SpectraSuite Data File
++++++++++++++++++++++++++++++++++++
Date: Fri Oct 25 10:44:26 EDT 2013
User: price-jones
Dark Spectrum Present: No
Reference Spectrum Present: No
Number of Sampled Component Spectra: 1
Spectrometers: USB2+H05261
Integration Time (usec): 100000 (USB2+H05261)
Spectra Averaged: 1 (USB2+H05261)
Boxcar Smoothing: 0 (USB2+H05261)
Correct for Electrical Dark: No (USB2+H05261)
Strobe/Lamp Enabled: No (USB2+H05261)
Correct for Detector Non-linearity: No (USB2+H05261)
Correct for Stray Light: No (USB2+H05261)
Number of Pixels in Processed Spectrum: 2048
>>>>>Begin Processed Spectral Data<<<<<
365.73	81.92
365.92	81.92
366.12	81.92
366.32	0.00
366.52	0.00
366.72	42.13
366.91	56.17
367.11	0.00
367.31	67.88
367.51	58.51
367.70	53.83
367.90	72.56
368.10	60.85
368.30	72.56
368.49	0.00
368.69	51.49
368.89	0.00
369.09	18.72
369.28	7.02
369.48	135.75
369.68	72.56
369.87	81.92
370.07	65.54
370.27	107.66
370.47	224.69
370.66	393.21
370.86	423.64
371.06	512.58
371.25	489.17
371.45	388.53
371.65	463.43
371.84	526.62
372.04	475.13
372.24	437.68
372.44	493.85
372.63	535.98
372.83	512.58
373.03	568.75
373.22	482.15
373.42	489.17
373.62	512.58
373.81	617.90
374.01	475.13
374.21	613.22
374.40	580.45
374.60	650.67
374.79	559.39
374.99	608.54
375.19	615.56
375.38	594.50
375.58	514.92
375.78	543.00
375.97	624.92
376.17	688.12
376.37	606.20
376.56	599.18
376.76	645.99
376.95	613.22
377.15	657.69
377.35	697.48
377.54	741.95
377.74	662.37
377.93	608.54
378.13	645.99
378.33	716.20
378.52	690.46
378.72	676.41
378.91	751.31
379.11	657.69
379.31	681.10
379.50	681.10
379.70	681.10
379.89	734.93
380.09	660.03
380.28	688.12
380.48	690.46
380.68	667.05
380.87	725.57
381.07	833.23
381.26	802.80
381.46	711.52
381.65	697.48
381.85	645.99
382.04	737.27
382.24	695.14
382.43	737.27
382.63	711.52
382.83	716.20
383.02	711.52
383.22	718.54
383.41	737.27
383.61	739.61
383.80	898.77
384.00	732.59
384.19	821.53
384.39	718.54
384.58	737.27
384.78	781.74
384.97	870.68
385.17	842.59
385.36	842.59
385.56	784.08
385.75	753.65
385.95	819.19
386.14	898.77
386.34	805.14
386.53	973.66
386.72	896.43
386.92	896.43
387.11	929.19
387.31	973.66
387.50	889.40
387.70	840.25
387.89	887.06
388.09	805.14
388.28	954.94
388.48	903.45
388.67	1004.09
388.86	877.70
389.06	950.26
389.25	1036.86
389.45	952.60
389.64	997.07
389.84	1102.39
390.03	987.71
390.22	994.73
390.42	1074.31
390.61	952.60
390.81	1029.84
391.00	1032.18
391.19	1114.10
391.39	1022.81
391.58	1149.20
391.78	1151.54
391.97	1130.48
392.16	1107.07
392.36	1153.88
392.55	1086.01
392.75	1036.86
392.94	1029.84
393.13	985.37
393.33	1029.84
393.52	1081.33
393.71	1146.86
393.91	1151.54
394.10	1144.52
394.29	1200.69
394.49	1317.72
394.68	1308.36
394.88	1329.42
395.07	1291.98
395.26	1275.59
395.46	1228.78
395.65	1287.29
395.84	1188.99
396.04	1273.25
396.23	1221.76
396.42	1196.01
396.62	1249.85
396.81	1212.40
397.00	1256.87
397.19	1341.13
397.39	1329.42
397.58	1357.51
397.77	1451.13
397.97	1523.69
398.16	1551.78
398.35	1561.14
398.55	1488.58
398.74	1558.80
398.93	1540.07
399.12	1521.35
399.32	1528.37
399.51	1575.18
399.70	1643.06
399.90	1570.50
400.09	1703.91
400.28	1643.06
400.47	1666.46
400.67	1748.38
400.86	1643.06
401.05	1666.46
401.24	1823.28
401.44	1762.42
401.63	1802.21
401.82	1832.64
402.01	1734.34
402.21	1764.76
402.40	1792.85
402.59	1774.13
402.78	1879.45
402.97	1743.70
403.17	1888.81
403.36	1893.49
403.55	1865.41
403.74	1923.92
403.93	2043.29
404.13	1968.39
404.32	1942.64
404.51	1844.34
404.70	2026.90
404.89	1966.05
405.09	1919.24
405.28	2003.50
405.47	1961.37
405.66	2059.67
405.85	2022.22
406.05	2024.56
406.24	2069.03
406.43	2162.66
406.62	2197.76
406.81	2153.29
407.00	2127.55
407.20	2118.18
407.39	2218.83
407.58	2094.78
407.77	2186.06
407.96	2328.83
408.15	2406.07
408.34	2249.25
408.54	2342.88
408.73	2415.43
408.92	2373.30
409.11	2312.45
409.30	2370.96
409.49	2228.19
409.68	2380.32
409.87	2321.81
410.07	2457.56
410.26	2471.61
410.45	2551.18
410.64	2516.08
410.83	2539.48
411.02	2649.49
411.21	2719.70
411.40	2670.55
411.59	2572.25
411.78	2640.12
411.98	2717.36
412.17	2696.30
412.36	2696.30
412.55	2722.04
412.74	2796.94
412.93	2785.24
413.12	2834.39
413.31	2953.76
413.50	2960.78
413.69	2857.79
413.88	3007.59
414.07	2930.35
414.26	3026.31
414.45	3063.76
414.64	3068.44
414.83	3030.99
415.02	3164.40
415.22	3204.19
415.41	3314.20
415.60	3103.55
415.79	3379.73
415.98	3375.05
416.17	3421.86
416.36	3389.10
416.55	3433.57
416.74	3435.91
416.93	3316.54
417.12	3393.78
417.31	3447.61
417.50	3463.99
417.69	3604.42
417.88	3494.42
418.07	3545.91
418.26	3452.29
418.45	3639.53
418.64	3911.04
418.83	3606.77
419.02	3613.79
419.21	3705.07
419.39	3693.37
419.58	3641.87
419.77	3627.83
419.96	3665.28
420.15	3794.01
420.34	3812.73
420.53	3761.24
420.72	3911.04
420.91	3861.88
421.10	3953.16
421.29	3861.88
421.48	3918.06
421.67	3927.42
421.86	3948.48
422.05	4018.70
422.24	3768.26
422.43	3833.80
422.61	4018.70
422.80	4023.38
422.99	4032.74
423.18	4011.68
423.37	4131.05
423.56	4077.21
423.75	3962.53
423.94	4014.02
424.13	3824.44
424.32	3915.72
424.50	4007.00
424.69	4147.43
424.88	4102.96
425.07	4058.49
425.26	4002.32
425.45	4021.04
425.64	4037.42
425.83	4021.04
426.01	4278.50
426.20	4210.62
426.39	4114.66
426.58	4205.94
426.77	4166.15
426.96	4135.73
427.15	4145.09
427.33	4098.28
427.52	4231.69
427.71	4198.92
427.90	4287.86
428.09	4311.27
428.28	4341.69
428.46	4194.24
428.65	4318.29
428.84	4355.74
429.03	4461.06
429.22	4299.56
429.40	4280.84
429.59	4234.03
429.78	3985.93
429.97	3988.27
430.16	4084.23
430.34	4290.20
430.53	4348.72
430.72	4243.39
430.91	4351.06
431.10	4458.72
431.28	4641.28
431.47	4610.86
431.66	4699.80
431.85	4528.94
432.03	4793.42
432.22	4739.58
432.41	4908.10
432.60	4821.50
432.79	4950.23
432.97	4868.31
433.16	5001.72
433.35	4865.97
433.54	4699.80
433.72	4765.33
433.91	4777.03
434.10	4999.38
434.28	4884.70
434.47	4985.34
434.66	5001.72
434.85	5081.30
435.03	5142.16
435.22	5041.51
435.41	5249.82
435.59	5125.77
435.78	5245.14
435.97	5334.08
436.16	5240.46
436.34	5219.39
436.53	5383.23
436.72	5224.08
436.90	5270.89
437.09	5320.04
437.28	5329.40
437.46	5282.59
437.65	5245.14
437.84	5301.31
438.02	5317.70
438.21	5305.99
438.40	5270.89
438.58	5554.09
438.77	5563.45
438.96	5558.77
439.14	5678.14
439.33	5748.36
439.52	5687.50
439.70	5661.76
439.89	5879.43
440.08	5778.78
440.26	5923.90
440.45	5795.17
440.63	6160.29
440.82	6181.35
441.01	6176.67
441.19	6277.32
441.38	6078.37
441.57	6300.72
441.75	6375.62
441.94	6413.07
442.12	6392.00
442.31	6541.80
442.50	6469.24
442.68	6607.33
442.87	6408.39
443.05	6408.39
443.24	6544.14
443.43	6703.29
443.61	6595.63
443.80	6937.35
443.98	6607.33
444.17	6340.51
444.35	6555.84
444.54	6703.29
444.73	6850.75
444.91	6492.65
445.10	6583.93
445.28	6822.66
445.47	6689.25
445.65	6689.25
445.84	6710.32
446.02	6799.26
446.21	6724.36
446.39	6640.10
446.58	6712.66
446.77	6904.58
446.95	6647.12
447.14	7042.67
447.32	7089.48
447.51	6892.88
447.69	6817.98
447.88	6724.36
448.06	6885.86
448.25	6979.48
448.43	7129.27
448.62	6972.46
448.80	6785.21
448.99	6860.11
449.17	7187.79
449.36	7077.78
449.54	7028.63
449.73	7307.15
449.91	7470.99
450.10	7353.96
450.28	7616.10
450.46	7445.24
450.65	7344.60
450.83	7253.32
451.02	7611.42
451.20	7555.25
451.39	7494.40
451.57	7227.57
451.76	7288.43
451.94	7513.12
452.13	7616.10
452.31	7295.45
452.49	7300.13
452.68	7571.63
452.86	7384.39
453.05	7543.55
453.23	7630.15
453.42	7391.41
453.60	7620.78
453.78	7658.23
453.97	7564.61
454.15	7653.55
454.34	7667.60
454.52	7756.54
454.70	7545.89
454.89	7796.32
455.07	7691.00
455.26	7850.16
455.44	7964.84
455.62	8128.68
455.81	8035.06
455.99	8084.21
456.17	8154.43
456.36	8138.04
456.54	8161.45
456.73	8299.54
456.91	8280.82
457.09	8224.64
457.28	8430.61
457.46	8344.01
457.64	8423.59
457.83	8217.62
458.01	8290.18
458.19	8491.46
458.38	8369.76
458.56	8486.78
458.74	8489.12
458.93	8383.80
459.11	8514.87
459.29	8645.94
459.48	8500.83
459.66	8542.96
459.84	8667.00
460.03	8711.47
460.21	8769.99
460.39	8919.78
460.57	8793.39
460.76	8968.93
460.94	8842.54
461.12	8929.14
461.31	8980.64
461.49	9165.54
461.67	9029.79
461.85	9144.47
462.04	9036.81
462.22	9224.05
462.40	9104.68
462.59	9123.41
462.77	9069.58
462.95	9048.51
463.13	9240.44
463.32	9144.47
463.50	9195.96
463.68	9226.39
463.86	9479.17
464.05	9102.34
464.23	9067.24
464.41	9355.12
464.59	9128.09
464.78	9408.95
464.96	9207.67
465.14	9275.54
465.32	9359.80
465.50	9511.94
465.69	9640.67
465.87	9479.17
466.05	9467.47
466.23	9275.54
466.41	9327.03
466.60	9509.60
466.78	9205.33
466.96	9418.32
467.14	9399.59
467.32	9605.56
467.51	9870.04
467.69	9525.98
467.87	9708.54
468.05	9736.63
468.23	9724.93
468.41	9645.35
468.60	9767.06
468.78	9860.68
468.96	9778.76
469.14	9912.17
469.32	10043.24
469.50	9689.82
469.69	9919.19
469.87	9867.70
470.05	10235.16
470.23	10033.88
470.41	10045.58
470.59	10326.44
470.77	10024.51
470.95	10228.14
471.14	10197.71
471.32	10181.33
471.50	10668.16
471.68	10616.67
471.86	10567.52
472.04	10623.69
472.22	10764.12
472.40	10406.02
472.58	10494.96
472.77	10743.06
472.95	10841.36
473.13	11098.82
473.31	10857.75
473.49	10782.85
473.67	10899.87
473.85	10991.16
474.03	11225.21
474.21	11370.32
474.39	11229.89
474.57	11375.00
474.75	11410.11
474.93	11698.00
475.12	11492.03
475.30	11585.65
475.48	11456.92
475.66	11705.02
475.84	11548.20
476.02	11758.85
476.20	11756.51
476.38	11789.28
476.56	12159.08
476.74	12231.64
476.92	12044.40
477.10	11967.16
477.28	12533.57
477.46	12484.42
477.64	12238.66
477.82	12631.87
478.00	12931.46
478.18	12650.60
478.36	12877.63
478.54	13097.64
478.72	13032.10
478.90	13202.96
479.08	13399.57
479.26	13490.85
479.44	13558.72
479.62	13589.15
479.80	14019.81
479.98	13872.36
480.16	14106.41
480.34	13853.63
480.52	13984.70
480.70	14181.31
480.88	14080.66
481.06	14462.17
481.24	14382.59
481.41	14604.94
481.59	14724.31
481.77	14721.97
481.95	14878.79
482.13	15000.49
482.31	15059.01
482.49	15096.46
482.67	15276.68
482.85	15583.29
483.03	15534.14
483.21	15580.95
483.39	16095.86
483.57	15946.07
483.74	15988.20
483.92	15906.28
484.10	15793.94
484.28	16102.89
484.46	16641.21
484.64	16662.27
484.82	16287.79
485.00	16615.46
485.18	16896.33
485.35	16872.92
485.53	16549.93
485.71	16734.83
485.89	16865.90
486.07	16964.20
486.25	17142.08
486.43	17200.60
486.61	17331.67
486.78	18003.40
486.96	17708.49
487.14	18071.28
487.32	18195.32
487.50	18546.40
487.68	18256.18
487.85	18684.50
488.03	18932.59
488.21	18794.50
488.39	18916.21
488.57	19063.66
488.75	19253.25
488.92	19634.75
489.10	19817.32
489.28	19943.70
489.46	20116.90
489.64	20339.26
489.81	20535.86
489.99	20744.17
490.17	20828.43
490.35	21109.29
490.53	21095.25
490.70	20931.41
490.88	20835.45
491.06	21223.98
491.24	21226.32
491.41	21118.65
491.59	21479.10
491.77	21128.02
491.95	21467.39
492.13	21823.16
492.30	22207.00
492.48	22174.24
492.66	22361.48
492.84	22216.36
493.01	22223.39
493.19	22469.14
493.37	22977.04
493.54	22953.63
493.72	22670.43
493.90	23253.22
494.08	23358.55
494.25	23669.84
494.43	23501.32
494.61	23805.59
494.79	24030.28
494.96	23957.72
495.14	23899.21
495.32	24006.87
495.49	24500.73
495.67	24166.03
495.85	24673.93
496.02	24465.62
496.20	24950.11
496.38	25043.73
496.55	24865.85
496.73	25685.04
496.91	25432.26
497.09	25479.07
497.26	26005.69
497.44	25762.28
497.62	25804.41
497.79	26012.71
497.97	25649.93
498.14	26150.81
498.32	26111.02
498.50	26511.25
498.67	26539.33
498.85	26356.77
499.03	26906.80
499.20	26876.37
499.38	26714.87
499.56	27016.80
499.73	27206.39
499.91	26939.57
500.08	27529.38
500.26	26541.68
500.44	26813.18
500.61	27405.33
500.79	27201.71
500.97	27892.16
501.14	27733.01
501.32	27541.08
501.49	27929.61
501.67	27955.36
501.84	27924.93
502.02	28032.60
502.20	28414.10
502.37	28912.64
502.55	28247.93
502.72	28664.54
502.90	28694.97
503.07	28924.34
503.25	28877.53
503.43	28755.82
503.60	29006.26
503.78	28484.32
503.95	28603.69
504.13	29244.99
504.30	29174.78
504.48	29415.85
504.65	29422.87
504.83	29642.88
505.01	30249.08
505.18	29883.96
505.36	30043.12
505.53	30146.10
505.71	30368.45
505.88	30731.23
506.06	30391.86
506.23	30464.41
506.41	30368.45
506.58	30579.10
506.76	30504.20
506.93	30597.82
507.11	30672.72
507.28	30410.58
507.46	30558.03
507.63	30710.17
507.81	30944.22
507.98	30668.04
508.16	30883.37
508.33	31014.44
508.50	31405.31
508.68	31412.33
508.85	31901.50
509.03	31793.84
509.20	31765.75
509.38	31976.40
509.55	32107.47
509.73	31810.22
509.90	32137.90
510.08	32217.47
510.25	31857.03
510.42	32388.33
510.60	32142.58
510.77	32105.13
510.95	32711.33
511.12	32793.25
511.30	33371.36
511.47	33214.54
511.64	33205.18
511.82	33083.47
511.99	33158.37
512.17	33015.60
512.34	32861.12
512.51	33181.77
512.69	33612.43
512.86	33565.62
513.04	33743.50
513.21	33607.75
513.38	33212.20
513.56	33619.46
513.73	33312.84
513.90	33905.00
514.08	33652.22
514.25	34043.09
514.43	33865.21
514.60	33785.63
514.77	33991.60
514.95	34251.40
515.12	34494.82
515.29	34125.01
515.47	34452.69
515.64	34815.47
515.81	34408.22
515.99	34478.43
516.16	34459.71
516.33	34059.48
516.51	34162.46
516.68	34096.92
516.85	33596.05
517.03	34169.48
517.20	34597.80
517.37	35012.07
517.54	34944.20
517.72	34799.08
517.89	34597.80
518.06	34609.50
518.24	34560.35
518.41	34848.24
518.58	35276.55
518.75	35351.45
518.93	36271.28
519.10	35147.82
519.27	35620.61
519.45	35782.11
519.62	35777.43
519.79	35901.48
519.96	35981.06
520.14	36041.91
520.31	35943.61
520.48	36348.52
520.65	36268.94
520.83	37111.53
521.00	36603.64
521.17	36882.16
521.34	36484.27
521.52	37174.73
521.69	37041.32
521.86	37104.51
522.03	37170.05
522.20	37010.89
522.38	36788.54
522.55	37228.56
522.72	36961.74
522.89	37303.46
523.07	37366.65
523.24	37015.57
523.41	38113.28
523.58	37558.58
523.75	38218.61
523.92	37867.53
524.10	38380.10
524.27	38024.34
524.44	38029.02
524.61	37888.59
524.78	38316.91
524.96	38036.05
525.13	38377.76
525.30	38527.56
525.47	38733.53
525.64	38361.38
525.81	38089.88
525.98	38651.61
526.16	37696.67
526.33	37986.89
526.50	38181.16
526.67	37809.01
526.84	38024.34
527.01	38160.09
527.18	38485.43
527.36	38639.90
527.53	39117.37
527.70	39358.45
527.87	39075.24
528.04	39232.06
528.21	39276.53
528.38	39180.57
528.55	39543.35
528.72	39728.25
528.89	39917.84
529.07	39681.44
529.24	39330.36
529.41	39681.44
529.58	39353.77
529.75	39784.43
529.92	39658.04
530.09	39910.82
530.26	40086.36
530.43	40217.43
530.60	39873.37
530.77	39901.45
530.94	40381.26
531.11	40259.55
531.28	40215.08
531.46	40636.38
531.63	40184.66
531.80	40203.38
531.97	40498.29
532.14	40137.85
532.31	39606.55
532.48	39842.94
532.65	40715.96
532.82	40065.29
532.99	40711.28
533.16	40411.69
533.33	40830.65
533.50	41109.17
533.67	40711.28
533.84	40957.03
534.01	40811.92
534.18	40746.39
534.35	41083.42
534.52	40790.86
534.69	41109.17
534.86	41453.23
535.03	41078.74
535.20	41909.63
535.37	41656.85
535.54	41378.33
535.71	41375.99
535.88	41163.00
536.05	40914.90
536.22	41411.10
536.38	41612.38
536.55	41916.65
536.72	41188.75
536.89	41200.45
537.06	41556.21
537.23	41984.53
537.40	41727.07
537.57	41535.15
537.74	41577.28
537.91	42349.65
538.08	42206.88
538.25	41869.84
538.42	41986.87
538.59	42141.35
538.75	41708.35
538.92	42024.32
539.09	42031.34
539.26	42050.06
539.43	42029.00
539.60	42153.05
539.77	41584.30
539.94	42380.08
540.11	41773.88
540.28	41975.17
540.44	42335.61
540.61	42117.94
540.78	42066.45
540.95	42424.55
541.12	42068.79
541.29	42335.61
541.46	42469.02
541.62	42328.59
541.79	42733.50
541.96	42408.17
542.13	42466.68
542.30	42632.86
542.47	43154.80
542.63	42974.58
542.80	42997.98
542.97	43264.80
543.14	43159.48
543.31	43543.33
543.48	43374.81
543.64	43908.45
543.81	43543.33
543.98	43519.92
544.15	43367.79
544.32	44025.48
544.48	43917.81
544.65	43519.92
544.82	43538.65
544.99	43723.55
545.16	43658.01
545.32	43466.09
545.49	44128.46
545.66	44343.79
545.83	44102.71
546.00	44020.80
546.16	44226.76
546.33	43803.13
546.50	43438.00
546.67	43878.02
546.83	43622.90
547.00	44086.33
547.17	43601.84
547.34	43892.07
547.50	44437.41
547.67	44446.77
547.84	44346.13
548.00	44767.43
548.17	44982.76
548.34	44552.10
548.51	44704.23
548.67	44439.75
548.84	44350.81
549.01	44453.79
549.18	44411.67
549.34	44254.85
549.51	44856.37
549.68	44683.17
549.84	44971.05
550.01	44547.42
550.18	44769.77
550.34	44774.45
550.51	44903.18
550.68	44835.30
550.84	44135.48
551.01	44605.93
551.18	44985.10
551.34	44966.37
551.51	44975.73
551.68	45174.68
551.84	45076.38
552.01	44987.44
552.18	44821.26
552.34	44772.11
552.51	45251.92
552.68	44554.44
552.84	45214.47
553.01	45455.54
553.18	44933.60
553.34	45137.23
553.51	45120.85
553.67	45170.00
553.84	45474.27
554.01	45343.20
554.17	45610.02
554.34	45422.78
554.51	45450.86
554.67	45607.68
554.84	45296.39
555.00	45553.85
555.17	45710.66
555.33	45572.57
555.50	45614.70
555.67	45682.58
555.83	45448.52
556.00	45523.42
556.16	45640.45
556.33	45537.46
556.50	45270.64
556.66	45689.60
556.83	45633.42
556.99	45502.35
557.16	46045.36
557.32	45968.12
557.49	46052.38
557.65	45174.68
557.82	46234.94
557.98	45640.45
558.15	45865.14
558.32	45776.20
558.48	45741.09
558.65	45579.59
558.81	45558.53
558.98	45464.91
559.14	45883.86
559.31	45808.96
559.47	45790.24
559.64	46012.59
559.80	46174.09
559.97	46237.28
560.13	45949.40
560.30	45879.18
560.46	46052.38
560.63	46117.92
560.79	46735.82
560.96	46052.38
561.12	46445.59
561.29	46089.83
561.45	46333.24
561.61	46295.80
561.78	46316.86
561.94	45827.69
562.11	46454.95
562.27	46298.14
562.44	46298.14
562.60	46508.79
562.77	46363.67
562.93	45944.72
563.10	46241.96
563.26	45460.23
563.42	46216.22
563.59	46485.38
563.75	45951.74
563.92	46396.44
564.08	46321.54
564.24	46574.32
564.41	46581.34
564.57	46028.98
564.74	46361.33
564.90	46457.29
565.07	46590.70
565.23	46342.61
565.39	46010.25
565.56	46621.13
565.72	46227.92
565.88	46335.59
566.05	46461.97
566.21	45815.99
566.38	46131.96
566.54	46316.86
566.70	46686.67
566.87	46658.58
567.03	46909.02
567.19	47112.64
567.36	46845.82
567.52	46504.10
567.68	46515.81
567.85	46490.06
568.01	46476.02
568.17	46330.90
568.34	46424.53
568.50	46176.43
568.66	46349.63
568.83	46483.04
568.99	46366.01
569.15	46433.89
569.32	46469.00
569.48	45970.46
569.64	46862.21
569.81	46298.14
569.97	46298.14
570.13	46876.25
570.30	46160.05
570.46	46033.66
570.62	46279.41
570.78	46057.06
570.95	46588.36
571.11	46518.15
571.27	46267.71
571.43	46424.53
571.60	46974.55
571.76	46583.68
571.92	46838.80
572.09	46670.28
572.25	46820.08
572.41	46679.64
572.57	46988.60
572.74	46780.29
572.90	46775.61
573.06	46976.89
573.22	46909.02
573.38	46394.10
573.55	46604.75
573.71	46740.50
573.87	46717.09
574.03	46117.92
574.20	46623.47
574.36	46504.10
574.52	47012.00
574.68	46150.68
574.84	46700.71
575.01	46927.74
575.17	46646.88
575.33	46391.76
575.49	46806.03
575.65	46646.88
575.82	47171.16
575.98	46499.42
576.14	47023.70
576.30	46717.09
576.46	46967.53
576.62	46380.06
576.79	46920.72
576.95	46351.97
577.11	46452.61
577.27	46478.36
577.43	46574.32
577.59	46848.16
577.75	46637.51
577.92	46138.98
578.08	46480.70
578.24	46396.44
578.40	46726.46
578.56	46356.65
578.72	46567.30
578.88	46646.88
579.04	47040.09
579.21	46284.09
579.37	46817.74
579.53	47084.56
579.69	46810.71
579.85	46546.23
580.01	46897.31
580.17	46789.65
580.33	47206.26
580.49	46803.69
580.65	47597.13
580.82	47077.54
580.98	46447.93
581.14	46155.36
581.30	47047.11
581.46	46937.10
581.62	46815.40
581.78	46667.94
581.94	47007.32
582.10	46457.29
582.26	46775.61
582.42	46726.46
582.58	46667.94
582.74	46948.81
582.90	47042.43
583.06	47150.09
583.22	47166.48
583.38	47311.59
583.54	47016.68
583.70	47105.62
583.86	46827.10
584.02	46997.96
584.18	47166.48
584.34	46986.25
584.50	46632.83
584.66	46883.27
584.82	46817.74
584.98	47091.58
585.14	47023.70
585.30	46583.68
585.46	46710.07
585.62	46443.25
585.78	46433.89
585.94	46665.60
586.10	46864.55
586.26	46623.47
586.42	47026.04
586.58	47157.11
586.74	47243.71
586.90	46754.54
587.06	46817.74
587.22	47278.82
587.38	46408.14
587.54	46747.52
587.70	46923.06
587.86	46967.53
588.02	46593.04
588.18	47173.50
588.34	46307.50
588.49	46211.54
588.65	46164.73
588.81	46061.74
588.97	46279.41
589.13	46085.15
589.29	46759.22
589.45	46330.90
589.61	46775.61
589.77	47019.02
589.93	46438.57
590.08	46969.87
590.24	46696.03
590.40	46845.82
590.56	47058.81
590.72	47171.16
590.88	46845.82
591.04	46681.98
591.20	47477.77
591.35	46983.91
591.51	47519.90
591.67	47379.46
591.83	46799.01
591.99	46923.06
592.15	46595.38
592.31	47229.67
592.46	46988.60
592.62	47056.47
592.78	47311.59
592.94	47082.22
593.10	46794.33
593.26	46981.57
593.41	46803.69
593.57	46766.24
593.73	46869.23
593.89	47164.14
594.05	47082.22
594.20	46738.16
594.36	46466.66
594.52	46410.48
594.68	46979.23
594.84	46822.42
594.99	47047.11
595.15	46571.98
595.31	47023.70
595.47	46801.35
595.62	47054.13
595.78	47166.48
595.94	47206.26
596.10	47452.02
596.25	47304.57
596.41	47606.50
596.57	47114.98
596.73	47377.12
596.88	46878.59
597.04	47023.70
597.20	46726.46
597.36	46969.87
597.51	47166.48
597.67	47405.21
597.83	46562.62
597.99	47334.99
598.14	47494.15
598.30	47122.01
598.46	47105.62
598.61	46686.67
598.77	46897.31
598.93	46639.86
599.09	47049.45
599.24	47753.95
599.40	47491.81
599.56	47107.96
599.71	47049.45
599.87	47220.31
600.03	47105.62
600.18	46927.74
600.34	46817.74
600.50	46983.91
600.65	46955.83
600.81	47201.58
600.97	47253.08
601.12	47346.70
601.28	46838.80
601.44	47129.03
601.59	47105.62
601.75	46983.91
601.91	46986.25
602.06	46553.26
602.22	47063.49
602.37	46717.09
602.53	46831.78
602.69	47276.48
602.84	47185.20
603.00	47157.11
603.16	46820.08
603.31	46941.78
603.47	47210.95
603.62	46796.67
603.78	47049.45
603.94	47395.85
604.09	47150.09
604.25	47391.17
604.40	46749.86
604.56	46817.74
604.71	47283.50
604.87	46546.23
605.03	47145.41
605.18	46478.36
605.34	46717.09
605.49	46614.11
605.65	46649.22
605.80	47100.94
605.96	46904.34
606.12	47377.12
606.27	47285.84
606.43	46483.04
606.58	46866.89
606.74	46614.11
606.89	47012.00
607.05	47288.18
607.20	47012.00
607.36	46611.77
607.51	46773.27
607.67	46653.90
607.82	46670.28
607.98	46724.11
608.13	46246.65
608.29	46618.79
608.44	46583.68
608.60	45808.96
608.75	46302.82
608.91	46368.35
609.06	46237.28
609.22	46632.83
609.37	46366.01
609.53	46897.31
609.68	46843.48
609.84	46471.34
609.99	46478.36
610.15	46518.15
610.30	46366.01
610.46	45977.48
610.61	46557.94
610.76	46799.01
610.92	46389.42
611.07	46469.00
611.23	46380.06
611.38	46417.50
611.54	46157.70
611.69	46150.68
611.84	46178.77
612.00	45979.82
612.15	45947.06
612.31	46241.96
612.46	45815.99
612.62	46253.67
612.77	46178.77
612.92	46220.90
613.08	45874.50
613.23	46094.51
613.39	45996.21
613.54	45883.86
613.69	46089.83
613.85	45684.92
614.00	46293.46
614.15	46160.05
614.31	46195.15
614.46	46178.77
614.62	46031.32
614.77	45954.08
614.92	45867.48
615.08	45668.53
615.23	45970.46
615.38	45883.86
615.54	45378.31
615.69	45621.72
615.84	45748.11
616.00	45488.31
616.15	45448.52
616.30	45703.64
616.46	45200.43
616.61	45270.64
616.76	45483.63
616.92	44797.85
617.07	45235.53
617.22	45013.18
617.37	45125.53
617.53	45357.24
617.68	45411.07
617.83	45476.61
617.99	45535.12
618.14	45404.05
618.29	45097.44
618.45	44879.77
618.60	45134.89
618.75	44961.69
618.90	45490.65
619.06	45104.46
619.21	45146.59
619.36	45528.10
619.51	45214.47
619.67	45294.05
619.82	45165.32
619.97	45223.83
620.12	45031.91
620.28	44425.71
620.43	44889.13
620.58	45127.87
620.73	44849.35
620.89	44940.63
621.04	45013.18
621.19	44650.40
621.34	45153.62
621.49	45174.68
621.65	44383.58
621.80	44832.96
621.95	44526.35
622.10	44596.57
622.25	44439.75
622.41	44179.95
622.56	44624.65
622.71	44832.96
622.86	44589.55
623.01	44554.44
623.16	44067.61
623.32	44776.79
623.47	44350.81
623.62	43959.94
623.77	44151.87
623.92	43894.41
624.07	44222.08
624.23	44528.69
624.38	43983.35
624.53	43512.90
624.68	44053.56
624.83	44065.27
624.98	43995.05
625.13	43377.15
625.29	43908.45
625.44	43707.16
625.59	44135.48
625.74	43192.25
625.89	43316.29
626.04	43679.08
626.19	43297.57
626.34	43723.55
626.49	44093.35
626.65	43400.55
626.80	44048.88
626.95	43796.10
627.10	43868.66
627.25	43665.03
627.40	43531.62
627.55	43253.10
627.70	43016.71
627.85	42866.91
628.00	43009.68
628.15	43037.77
628.30	43084.58
628.45	43374.81
628.60	43587.80
628.76	43512.90
628.91	43002.66
629.06	43070.54
629.21	43253.10
629.36	43311.61
629.51	42986.28
629.66	42887.98
629.81	42710.10
629.96	42777.97
630.11	42948.83
630.26	43325.66
630.41	43295.23
630.56	42651.58
630.71	42864.57
630.86	42930.11
631.01	42803.72
631.16	42356.67
631.31	42595.41
631.46	42438.59
631.61	42714.78
631.76	42574.34
631.91	42656.26
632.06	42515.83
632.21	42880.95
632.36	43075.22
632.51	42501.79
632.66	42576.69
632.81	42122.62
632.96	42394.12
633.10	42082.83
633.25	42609.45
633.40	42417.53
633.55	42263.05
633.70	42150.71
633.85	42326.25
634.00	42160.07
634.15	42171.77
634.30	42712.44
634.45	41862.82
634.60	41904.95
634.75	42122.62
634.90	42230.29
635.05	42298.16
635.19	41727.07
635.34	41638.13
635.49	42181.13
635.64	42260.71
635.79	41951.76
635.94	41254.28
636.09	41958.78
636.24	42047.72
636.39	41970.49
636.53	41741.11
636.68	41778.56
636.83	41923.68
636.98	41741.11
637.13	41844.10
637.28	41581.96
637.43	42078.15
637.57	42134.32
637.72	41720.05
637.87	41420.46
638.02	41593.66
638.17	41986.87
638.32	41544.51
638.46	41600.68
638.61	41038.95
638.76	41762.18
638.91	41656.85
639.06	41649.83
639.20	41167.68
639.35	41558.55
639.50	41343.22
639.65	41872.18
639.80	41652.17
639.94	41127.89
640.09	41181.73
640.24	41186.41
640.39	40954.69
640.54	40701.92
640.68	41074.06
640.83	41308.11
640.98	40830.65
641.13	40816.60
641.27	40865.75
641.42	40912.56
641.57	40950.01
641.72	40865.75
641.86	40662.13
642.01	40741.71
642.16	40648.08
642.31	40432.75
642.45	40786.18
642.60	40524.04
642.75	40856.39
642.90	40491.27
643.04	40945.33
643.19	40545.10
643.34	40264.24
643.48	40327.43
643.63	40484.25
643.78	40069.97
643.93	40460.84
644.07	40098.06
644.22	40201.04
644.37	39784.43
644.51	40535.74
644.66	40669.15
644.81	40091.04
644.95	40495.95
645.10	40594.25
645.25	40470.20
645.39	40582.55
645.54	40053.59
645.69	40336.79
645.83	39728.25
645.98	39990.39
646.13	40411.69
646.27	40374.24
646.42	40294.66
646.57	40041.88
646.71	39786.77
646.86	40362.54
647.00	40250.19
647.15	40432.75
647.30	39873.37
647.44	40231.47
647.59	40168.27
647.74	39707.19
647.88	39515.26
648.03	39463.77
648.17	39971.67
648.32	39746.98
648.47	40053.59
648.61	39276.53
648.76	39765.70
648.90	39761.02
649.05	39384.19
649.20	39433.35
649.34	39302.28
649.49	39402.92
649.63	39419.30
649.78	39140.78
649.92	39435.69
650.07	39627.61
650.21	39440.37
650.36	39379.51
650.51	39257.81
650.65	39702.51
650.80	40034.86
650.94	39597.18
651.09	39159.50
651.23	39438.03
651.38	39391.22
651.52	39072.90
651.67	38923.11
651.81	39147.80
651.96	39138.44
652.10	38897.36
652.25	38649.27
652.39	38925.45
652.54	38778.00
652.68	39423.98
652.83	39194.61
652.97	39019.07
653.12	39019.07
653.26	38824.81
653.41	38670.33
653.55	38277.12
653.70	38831.83
653.84	39026.09
653.99	38888.00
654.13	38667.99
654.27	38665.65
654.42	38361.38
654.56	38253.72
654.71	38693.74
654.85	38459.68
655.00	38462.02
655.14	38352.02
655.29	38117.96
655.43	38005.62
655.57	38066.47
655.72	37670.92
655.86	38110.94
656.01	37755.18
656.15	37633.47
656.30	37809.01
656.44	37933.06
656.58	37933.06
656.73	38085.20
656.87	37818.38
657.01	38014.98
657.16	38019.66
657.30	37507.08
657.45	37713.05
657.59	38010.30
657.73	37516.45
657.88	37902.64
658.02	37858.17
658.16	37937.74
658.31	38080.52
658.45	37841.78
658.60	37652.20
658.74	37893.27
658.88	37563.26
659.03	37462.61
659.17	37516.45
659.31	37457.93
659.46	37392.40
659.60	37640.50
659.74	37436.87
659.89	37118.56
660.03	37209.84
660.17	37378.36
660.32	37193.45
660.46	37958.81
660.60	37469.64
660.74	36884.50
660.89	37062.38
661.03	37097.49
661.17	36779.18
661.32	36596.62
661.46	36521.72
661.60	36870.46
661.74	36835.35
661.89	36748.75
662.03	36666.83
662.17	36453.84
662.31	36708.96
662.46	36982.80
662.60	36730.03
662.74	36788.54
662.88	36521.72
663.03	36126.17
663.17	35777.43
663.31	35887.43
663.45	35974.03
663.60	36278.30
663.74	36088.72
663.88	35761.05
664.02	35992.76
664.17	36299.37
664.31	35857.01
664.45	35978.72
664.59	35845.30
664.73	35999.78
664.88	36093.40
665.02	35438.05
665.16	35763.39
665.30	35541.03
665.44	35899.14
665.59	35236.77
665.73	35318.68
665.87	35157.19
666.01	35283.58
666.15	34888.03
666.29	35178.25
666.44	35353.79
666.58	34986.33
666.72	34866.96
666.86	34993.35
667.00	35086.97
667.14	35150.17
667.28	34487.79
667.43	34684.40
667.57	34459.71
667.71	34536.94
667.85	34415.24
667.99	34733.55
668.13	34312.25
668.27	34473.75
668.41	34300.55
668.56	34286.51
668.70	34558.01
668.84	34270.12
668.98	34115.65
669.12	33799.68
669.26	33919.04
669.40	33448.60
669.54	33855.85
669.68	33619.46
669.82	33603.07
669.96	33804.36
670.10	33406.47
670.25	33244.97
670.39	33928.41
670.53	33354.97
670.67	33591.37
670.81	33783.29
670.95	33497.75
671.09	33415.83
671.23	33511.79
671.37	33703.71
671.51	33352.63
671.65	33034.32
671.79	32971.13
671.93	32811.97
672.07	32919.63
672.21	32875.16
672.35	32699.62
672.49	32444.51
672.63	33001.55
672.77	32652.81
672.91	32751.12
673.05	32580.26
673.19	32414.08
673.33	32151.94
673.47	32285.35
673.61	32044.27
673.75	32018.53
673.89	31906.18
674.03	31620.64
674.17	32051.30
674.31	31978.74
674.45	31866.39
674.59	31597.23
674.73	32004.49
674.87	31449.78
675.01	31505.95
675.15	31152.53
675.29	31400.63
675.43	30984.01
675.56	31075.29
675.70	31182.96
675.84	30916.14
675.98	30326.32
676.12	31072.95
676.26	30951.24
676.40	30937.20
676.54	30780.39
676.68	30607.19
676.82	30443.35
676.96	30216.32
677.10	30078.22
677.23	30380.15
677.37	30148.44
677.51	29895.66
677.65	29759.91
677.79	29366.70
677.93	29663.95
678.07	29411.17
678.21	29310.53
678.34	29443.94
678.48	29429.90
678.62	29064.77
678.76	28746.46
678.90	28945.41
679.04	28659.86
679.18	28737.10
679.31	28175.37
679.45	28479.64
679.59	28486.66
679.73	28386.02
679.87	28037.28
680.00	27882.80
680.14	28343.89
680.28	28297.08
680.42	28231.54
680.56	28212.82
680.70	28119.20
680.83	28004.51
680.97	28133.24
681.11	28163.67
681.25	27601.94
681.39	27342.14
681.52	27580.87
681.66	27473.21
681.80	27487.25
681.94	27145.53
682.07	27089.36
682.21	27335.12
682.35	26998.08
682.49	27173.62
682.62	26953.61
682.76	26565.08
682.90	26639.98
683.04	26513.59
683.17	26511.25
683.31	26391.88
683.45	26366.13
683.59	25853.56
683.72	25668.66
683.86	25568.01
684.00	25937.82
684.13	25879.30
684.27	25825.47
684.41	25724.83
684.55	25275.45
684.68	25385.45
684.82	25104.59
684.96	25235.66
685.09	25717.81
685.23	25268.42
685.37	25326.94
685.50	24952.45
685.64	24989.90
685.78	24519.45
685.91	24421.15
686.05	24584.99
686.19	24184.76
686.32	24549.88
686.46	24041.98
686.60	23737.71
686.73	23927.30
686.87	23662.82
687.01	23388.97
687.14	23206.41
687.28	23463.87
687.42	23445.15
687.55	23363.23
687.69	23503.66
687.82	23384.29
687.96	23501.32
688.10	23236.84
688.23	22951.29
688.37	22466.80
688.50	22551.06
688.64	22604.89
688.78	22644.68
688.91	22656.39
689.05	22691.49
689.18	22518.29
689.32	22178.92
689.46	22188.28
689.59	22466.80
689.73	22436.38
689.86	22089.98
690.00	21656.98
690.13	22228.07
690.27	21965.93
690.41	21848.90
690.54	21692.08
690.68	21060.14
690.81	21731.87
690.95	21275.47
691.08	21497.82
691.22	21331.64
691.35	21343.35
691.49	21362.07
691.62	21647.61
691.76	21270.79
691.89	20807.36
692.03	20662.25
692.16	20718.42
692.30	20671.61
692.43	20514.80
692.57	20451.60
692.70	20133.29
692.84	20617.78
692.97	20245.63
693.11	20109.88
693.24	19861.79
693.38	19946.05
693.51	19829.02
693.65	19936.68
693.78	19936.68
693.92	20004.56
694.05	19873.49
694.19	19594.96
694.32	19768.16
694.45	19555.18
694.59	19243.88
694.72	19103.45
694.86	19264.95
694.99	18717.26
695.13	19103.45
695.26	18733.65
695.39	18710.24
695.53	18923.23
695.66	18754.71
695.80	18799.18
695.93	18567.47
696.07	18441.08
696.20	18314.69
696.33	18183.62
696.47	18373.21
696.60	18157.88
696.73	18202.35
696.87	18347.46
697.00	18284.26
697.14	18008.08
697.27	17930.84
697.40	17855.95
697.54	17689.77
697.67	17678.07
697.80	17490.82
697.94	17570.40
698.07	17212.30
698.21	17032.08
698.34	17441.67
698.47	17085.91
698.61	16968.88
698.74	16725.47
698.87	16669.30
699.01	16659.93
699.14	16627.17
699.27	16709.08
699.40	16538.23
699.54	16311.19
699.67	16322.90
699.80	16304.17
699.94	16397.79
700.07	16109.91
700.20	15927.35
700.34	15929.69
700.47	16229.27
700.60	16468.01
700.73	15976.50
700.87	16065.44
701.00	15775.21
701.13	15906.28
701.26	15658.18
701.40	15559.88
701.53	15396.04
701.66	15543.50
701.79	15220.50
701.93	15367.96
702.06	15342.21
702.19	15159.65
702.32	15480.30
702.46	15063.69
702.59	14885.81
702.72	14946.66
702.85	14984.11
702.99	14970.07
703.12	14843.68
703.25	14750.06
703.38	14541.75
703.51	14590.90
703.65	14635.37
703.78	14640.05
703.91	14370.89
704.04	14422.38
704.17	14185.99
704.31	14038.53
704.44	14185.99
704.57	14122.79
704.70	14251.52
704.83	14181.31
704.96	14036.19
705.10	13851.29
705.23	13811.50
>>>>>End Processed Spectral Data<<<<<
