SpectraSuite Data File
++++++++++++++++++++++++++++++++++++
Date: Fri Oct 25 10:47:29 EDT 2013
User: price-jones
Dark Spectrum Present: No
Reference Spectrum Present: No
Number of Sampled Component Spectra: 1
Spectrometers: USB2+H05261
Integration Time (usec): 100000 (USB2+H05261)
Spectra Averaged: 1 (USB2+H05261)
Boxcar Smoothing: 0 (USB2+H05261)
Correct for Electrical Dark: No (USB2+H05261)
Strobe/Lamp Enabled: No (USB2+H05261)
Correct for Detector Non-linearity: No (USB2+H05261)
Correct for Stray Light: No (USB2+H05261)
Number of Pixels in Processed Spectrum: 2048
>>>>>Begin Processed Spectral Data<<<<<
365.73	170.86
365.92	170.86
366.12	170.86
366.32	42.13
366.52	0.00
366.72	46.81
366.91	56.17
367.11	58.51
367.31	37.45
367.51	4.68
367.70	28.09
367.90	77.24
368.10	18.72
368.30	28.09
368.49	53.83
368.69	53.83
368.89	72.56
369.09	81.92
369.28	63.19
369.48	112.35
369.68	72.56
369.87	53.83
370.07	42.13
370.27	224.69
370.47	173.20
370.66	330.02
370.86	395.55
371.06	451.72
371.25	517.26
371.45	409.59
371.65	440.02
371.84	425.98
372.04	425.98
372.24	489.17
372.44	477.47
372.63	519.60
372.83	550.03
373.03	463.43
373.22	512.58
373.42	514.92
373.62	561.73
373.81	512.58
374.01	526.62
374.21	524.28
374.40	550.03
374.60	528.96
374.79	578.11
374.99	526.62
375.19	533.64
375.38	526.62
375.58	559.39
375.78	564.07
375.97	601.52
376.17	594.50
376.37	559.39
376.56	580.45
376.76	638.97
376.95	526.62
377.15	648.33
377.35	594.50
377.54	617.90
377.74	657.69
377.93	620.24
378.13	627.26
378.33	603.86
378.52	575.77
378.72	615.56
378.91	589.82
379.11	524.28
379.31	575.77
379.50	589.82
379.70	592.16
379.89	594.50
380.09	692.80
380.28	681.10
380.48	655.35
380.68	610.88
380.87	674.07
381.07	692.80
381.26	744.29
381.46	702.16
381.65	725.57
381.85	550.03
382.04	596.84
382.24	575.77
382.43	664.71
382.63	706.84
382.83	688.12
383.02	685.78
383.22	758.33
383.41	657.69
383.61	610.88
383.80	777.06
384.00	695.14
384.19	711.52
384.39	781.74
384.58	702.16
384.78	755.99
384.97	791.10
385.17	758.33
385.36	791.10
385.56	842.59
385.75	746.63
385.95	765.36
386.14	753.65
386.34	765.36
386.53	805.14
386.72	802.80
386.92	777.06
387.11	802.80
387.31	816.85
387.50	777.06
387.70	807.48
387.89	713.86
388.09	802.80
388.28	732.59
388.48	812.17
388.67	917.49
388.86	842.59
389.06	917.49
389.25	851.96
389.45	880.04
389.64	894.08
389.84	819.19
390.03	903.45
390.22	917.49
390.42	868.34
390.61	877.70
390.81	854.30
391.00	842.59
391.19	875.36
391.39	912.81
391.58	922.17
391.78	933.87
391.97	940.90
392.16	889.40
392.36	966.64
392.55	968.98
392.75	889.40
392.94	910.47
393.13	870.68
393.33	940.90
393.52	976.00
393.71	1128.14
393.91	966.64
394.10	1029.84
394.29	936.21
394.49	1015.79
394.68	1116.44
394.88	1088.35
395.07	1130.48
395.26	1039.20
395.46	1064.94
395.65	1114.10
395.84	1116.44
396.04	1235.80
396.23	1093.03
396.42	1165.59
396.62	1198.35
396.81	1139.84
397.00	1076.65
397.19	1142.18
397.39	1111.75
397.58	1160.91
397.77	1219.42
397.97	1191.33
398.16	1179.63
398.35	1313.04
398.55	1238.14
398.74	1238.14
398.93	1369.21
399.12	1273.25
399.32	1306.02
399.51	1329.42
399.70	1329.42
399.90	1385.60
400.09	1322.40
400.28	1432.41
400.47	1376.24
400.67	1399.64
400.86	1427.73
401.05	1434.75
401.24	1409.00
401.44	1385.60
401.63	1416.02
401.82	1451.13
402.01	1441.77
402.21	1397.30
402.40	1509.65
402.59	1526.03
402.78	1500.28
402.97	1493.26
403.17	1565.82
403.36	1455.81
403.55	1558.80
403.74	1497.94
403.93	1638.38
404.13	1689.87
404.32	1703.91
404.51	1636.03
404.70	1732.00
404.89	1624.33
405.09	1703.91
405.28	1701.57
405.47	1659.44
405.66	1596.25
405.85	1734.34
406.05	1792.85
406.24	1687.53
406.43	1706.25
406.62	1685.19
406.81	1806.89
407.00	1762.42
407.20	1743.70
407.39	1767.10
407.58	1839.66
407.77	1834.98
407.96	1851.36
408.15	1867.75
408.34	1933.28
408.54	1849.02
408.73	1820.94
408.92	1987.11
409.11	2010.52
409.30	1977.75
409.49	2017.54
409.68	1968.39
409.87	2017.54
410.07	1994.14
410.26	2026.90
410.45	2062.01
410.64	2101.80
410.83	2136.91
411.02	2122.87
411.21	2118.18
411.40	2307.77
411.59	2321.81
411.78	2256.28
411.98	2197.76
412.17	2328.83
412.36	2282.02
412.55	2267.98
412.74	2436.50
412.93	2363.94
413.12	2218.83
413.31	2382.67
413.50	2459.90
413.69	2595.65
413.88	2450.54
414.07	2499.69
414.26	2417.77
414.45	2581.61
414.64	2518.42
414.83	2555.86
415.02	2516.08
415.22	2658.85
415.41	2700.98
415.60	2799.28
415.79	2644.81
415.98	2775.88
416.17	2773.53
416.36	2754.81
416.55	2829.71
416.74	2883.54
416.93	2754.81
417.12	2857.79
417.31	2984.18
417.50	2843.75
417.69	2995.89
417.88	2956.10
418.07	2909.29
418.26	3056.74
418.45	3059.08
418.64	3187.81
418.83	3094.19
419.02	2986.52
419.21	3089.51
419.39	3005.25
419.58	3063.76
419.77	3119.93
419.96	3049.72
420.15	3129.30
420.34	3199.51
420.53	3267.39
420.72	3199.51
420.91	3143.34
421.10	3307.18
421.29	3145.68
421.48	3246.32
421.67	3279.09
421.86	3389.10
422.05	3295.47
422.24	3363.35
422.43	3351.65
422.61	3442.93
422.80	3328.24
422.99	3499.10
423.18	3356.33
423.37	3566.98
423.56	3428.88
423.75	3456.97
423.94	3379.73
424.13	3288.45
424.32	3293.13
424.50	3438.25
424.69	3676.98
424.88	3517.83
425.07	3251.00
425.26	3318.88
425.45	3393.78
425.64	3449.95
425.83	3389.10
426.01	3496.76
426.20	3515.48
426.39	3513.14
426.58	3487.40
426.77	3517.83
426.96	3545.91
427.15	3506.12
427.33	3517.83
427.52	3569.32
427.71	3625.49
427.90	3637.19
428.09	3529.53
428.28	3653.58
428.46	3702.73
428.65	3686.34
428.84	3707.41
429.03	3794.01
429.22	3588.04
429.40	3852.52
429.59	3665.28
429.78	3707.41
429.97	3583.36
430.16	3632.51
430.34	3676.98
430.53	3847.84
430.72	3894.65
430.91	3808.05
431.10	3927.42
431.28	4044.45
431.47	4044.45
431.66	3999.98
431.85	3882.95
432.03	4049.13
432.22	4081.89
432.41	3990.61
432.60	4025.72
432.79	4053.81
432.97	4161.47
433.16	4032.74
433.35	4044.45
433.54	4255.09
433.72	4175.52
433.91	4156.79
434.10	4177.86
434.28	4086.58
434.47	4292.54
434.66	4339.35
434.85	4243.39
435.03	4348.72
435.22	4292.54
435.41	4517.23
435.59	4334.67
435.78	4259.78
435.97	4547.66
436.16	4423.61
436.34	4442.34
436.53	4641.28
436.72	4615.54
436.90	4423.61
437.09	4601.49
437.28	4468.08
437.46	4444.68
437.65	4648.30
437.84	4695.11
438.02	4587.45
438.21	4610.86
438.40	4554.68
438.58	4713.84
438.77	4746.61
438.96	4786.40
439.14	4793.42
439.33	4751.29
439.52	4959.60
439.70	4978.32
439.89	4947.89
440.08	4910.44
440.26	4957.25
440.45	5111.73
440.63	5181.95
440.82	5261.52
441.01	5193.65
441.19	5146.84
441.38	5399.62
441.57	5416.00
441.75	5350.46
441.94	5582.18
442.12	5322.38
442.31	5561.11
442.50	5394.93
442.68	5607.92
442.87	5544.73
443.05	5528.35
443.24	5514.30
443.43	5568.13
443.61	5685.16
443.80	5760.06
443.98	5497.92
444.17	5483.88
444.35	5558.77
444.54	5858.36
444.73	5497.92
444.91	5544.73
445.10	5750.70
445.28	5493.24
445.47	5661.76
445.65	5783.46
445.84	5788.14
446.02	5790.49
446.21	5668.78
446.39	5675.80
446.58	5846.66
446.77	5888.79
446.95	5647.71
447.14	5788.14
447.32	5959.00
447.51	5650.05
447.69	5891.13
447.88	5902.83
448.06	6052.63
448.25	5790.49
448.43	5820.91
448.62	5769.42
448.80	5919.21
448.99	5912.19
449.17	5846.66
449.36	5951.98
449.54	6036.24
449.73	6132.20
449.91	6054.97
450.10	6090.07
450.28	6349.87
450.46	6153.27
450.65	6139.23
450.83	6253.91
451.02	6010.50
451.20	6417.75
451.39	6293.70
451.57	6197.74
451.76	6071.35
451.94	6169.65
452.13	6359.24
452.31	6331.15
452.49	6237.53
452.68	6382.64
452.86	6160.29
453.05	6366.26
453.23	6534.78
453.42	6380.30
453.60	6321.79
453.78	6349.87
453.97	6431.79
454.15	6700.95
454.34	6494.99
454.52	6555.84
454.70	6546.48
454.89	6738.40
455.07	6621.38
455.26	6647.12
455.44	6789.89
455.62	6836.70
455.81	6815.64
455.99	6803.94
456.17	6813.30
456.36	6801.60
456.54	7075.44
456.73	6874.15
456.91	7246.30
457.09	7253.32
457.28	7178.42
457.46	6953.73
457.64	7049.69
457.83	7117.57
458.01	7133.95
458.19	7178.42
458.38	7169.06
458.56	7183.10
458.74	7192.47
458.93	7054.37
459.11	7258.00
459.29	7482.69
459.48	7325.88
459.66	7321.20
459.84	7269.70
460.03	7531.84
460.21	7473.33
460.39	7651.21
460.57	7461.63
460.76	7517.80
460.94	7627.81
461.12	7494.40
461.31	7538.87
461.49	7559.93
461.67	7449.93
461.85	7864.20
462.04	7667.60
462.22	8259.75
462.40	7779.94
462.59	7648.87
462.77	7831.43
462.95	7847.82
463.13	7819.73
463.32	7866.54
463.50	7840.79
463.68	7929.74
463.86	7969.52
464.05	7871.22
464.23	7786.96
464.41	7995.27
464.59	7920.37
464.78	8039.74
464.96	8065.49
465.14	7786.96
465.32	8112.30
465.50	8051.44
465.69	8124.00
465.87	7934.42
466.05	8276.13
466.23	8100.59
466.41	8011.65
466.60	8297.20
466.78	8304.22
466.96	8229.32
467.14	8362.73
467.32	8285.50
467.51	8500.83
467.69	8149.75
467.87	8191.88
468.05	8430.61
468.23	8383.80
468.41	8152.09
468.60	8236.35
468.78	8442.31
468.96	8407.20
469.14	8517.21
469.32	8922.12
469.50	8315.92
469.69	8713.81
469.87	8723.18
470.05	8936.17
470.23	8835.52
470.41	8816.80
470.59	8718.50
470.77	8777.01
470.95	8730.20
471.14	8891.70
471.32	8908.08
471.50	8992.34
471.68	9195.96
471.86	9041.49
472.04	9186.60
472.22	9198.31
472.40	9142.13
472.58	9092.98
472.77	9231.07
472.95	9312.99
473.13	9734.29
473.31	9256.82
473.49	9462.79
473.67	9474.49
473.85	9420.66
474.03	9575.13
474.21	9755.35
474.39	9619.60
474.57	9830.25
474.75	9865.36
474.93	9926.21
475.12	9717.90
475.30	10118.14
475.48	9989.41
475.66	9928.55
475.84	9916.85
476.02	10148.56
476.20	10059.62
476.38	10267.93
476.56	10600.29
476.74	10698.59
476.92	10544.11
477.10	10452.83
477.28	10408.36
477.46	10590.92
477.64	10979.45
477.82	10810.93
478.00	11178.40
478.18	11185.42
478.36	11370.32
478.54	11370.32
478.72	11358.62
478.90	11463.94
479.08	11456.92
479.26	11690.98
479.44	11632.46
479.62	11609.06
479.80	11887.58
479.98	11929.71
480.16	11969.50
480.34	11943.75
480.52	12423.56
480.70	12402.50
480.88	12131.00
481.06	12402.50
481.24	12353.35
481.41	12503.14
481.59	12746.56
481.77	12636.55
481.95	12894.01
482.13	12854.22
482.31	12856.56
482.49	12982.95
482.67	13205.30
482.85	13163.17
483.03	13408.93
483.21	13631.28
483.39	13682.77
483.57	13694.47
483.74	13846.61
483.92	14111.09
484.10	13862.99
484.28	14097.05
484.46	14197.69
484.64	14394.29
484.82	14342.80
485.00	14483.24
485.18	14677.50
485.35	14700.90
485.53	14616.65
485.71	14927.94
485.89	14864.74
486.07	14827.29
486.25	15161.99
486.43	15143.27
486.61	15449.88
486.78	15662.86
486.96	15543.50
487.14	15735.42
487.32	15887.56
487.50	16079.48
487.68	16189.49
487.85	16673.98
488.03	16290.13
488.21	16643.55
488.39	16877.60
488.57	16772.28
488.75	16905.69
488.92	17207.62
489.10	17170.17
489.28	17444.01
489.46	17692.11
489.64	17411.25
489.81	17778.71
489.99	18022.12
490.17	18171.92
490.35	18251.50
490.53	18335.76
490.70	18628.32
490.88	18434.06
491.06	18754.71
491.24	18356.82
491.41	18649.39
491.59	18686.84
491.77	18649.39
491.95	18841.31
492.13	19363.25
492.30	19417.08
492.48	19454.53
492.66	19510.71
492.84	19545.81
493.01	20123.93
493.19	20044.35
493.37	20166.06
493.54	20025.62
493.72	20039.67
493.90	20589.69
494.08	20823.75
494.25	20685.65
494.43	20886.94
494.61	21195.89
494.79	21156.10
494.96	20891.62
495.14	21025.03
495.32	21191.21
495.49	21408.88
495.67	21099.93
495.85	21853.58
496.02	21727.19
496.20	22029.12
496.38	21865.28
496.55	21710.81
496.73	22522.98
496.91	22487.87
497.09	22359.14
497.26	22546.38
497.44	22654.05
497.62	22637.66
497.79	23192.37
497.97	22731.28
498.14	23281.31
498.32	23363.23
498.50	23220.45
498.67	23470.89
498.85	23304.71
499.03	23506.00
499.20	23325.78
499.38	23908.57
499.56	23442.81
499.73	24304.12
499.91	24222.20
500.08	23964.75
500.26	23990.49
500.44	24123.90
500.61	24533.50
500.79	24187.10
500.97	24435.19
501.14	24924.36
501.32	24744.14
501.49	24851.81
501.67	24641.16
501.84	25158.42
502.02	24863.51
502.20	25755.26
502.37	25500.14
502.55	25146.72
502.72	25221.61
502.90	25692.06
503.07	25532.90
503.25	25406.52
503.43	25280.13
503.60	25809.09
503.78	25626.53
503.95	25537.59
504.13	26054.84
504.30	26272.51
504.48	25745.89
504.65	26443.37
504.83	26632.96
505.01	26279.54
505.18	26089.95
505.36	26478.48
505.53	26333.37
505.71	27225.11
505.88	26974.67
506.06	26724.24
506.23	26831.90
506.41	26576.78
506.58	27140.85
506.76	26864.67
506.93	27201.71
507.11	27042.55
507.28	27431.08
507.46	27381.93
507.63	27236.81
507.81	27943.66
507.98	27711.94
508.16	27632.36
508.33	27749.39
508.50	27850.03
508.68	27838.33
508.85	28161.33
509.03	28350.91
509.20	28297.08
509.38	28662.20
509.55	28549.85
509.73	28730.08
509.90	28755.82
510.08	28514.75
510.25	28788.59
510.42	29228.61
510.60	29078.82
510.77	29130.31
510.95	29186.48
511.12	28947.75
511.30	29085.84
511.47	29263.72
511.64	29472.03
511.82	29860.55
511.99	29457.98
512.17	29371.38
512.34	29659.27
512.51	29834.81
512.69	29851.19
512.86	30382.49
513.04	29972.90
513.21	30246.74
513.38	29867.58
513.56	30300.58
513.73	29909.71
513.90	30260.79
514.08	30478.46
514.25	30565.06
514.43	31007.42
514.60	30558.03
514.77	30822.51
514.95	30768.68
515.12	30665.70
515.29	30909.11
515.47	31342.11
515.64	31346.79
515.81	30836.56
515.99	31171.25
516.16	31173.60
516.33	31398.29
516.51	31559.78
516.68	30862.30
516.85	30866.98
517.03	31363.18
517.20	31538.72
517.37	31267.22
517.54	31796.18
517.72	31964.70
517.89	31419.35
518.06	31564.46
518.24	31889.80
518.41	31688.51
518.58	32297.05
518.75	32067.68
518.93	32336.84
519.10	32126.19
519.27	32208.11
519.45	32100.45
519.62	32891.55
519.79	32503.02
519.96	32606.00
520.14	32636.43
520.31	32643.45
520.48	33057.73
520.65	32613.02
520.83	32938.36
521.00	33050.70
521.17	33216.88
521.34	33039.00
521.52	33331.57
521.69	33713.08
521.86	33483.70
522.03	33399.44
522.20	33633.50
522.38	33549.24
522.55	33890.96
522.72	33738.82
522.89	33872.23
523.07	34040.75
523.24	33511.79
523.41	34195.23
523.58	33818.40
523.75	34160.12
523.92	34235.02
524.10	34635.25
524.27	34366.09
524.44	34480.77
524.61	34368.43
524.78	34408.22
524.96	34590.78
525.13	34691.42
525.30	34785.04
525.47	34913.77
525.64	34771.00
525.81	34913.77
525.98	35023.78
526.16	34988.67
526.33	34710.14
526.50	35278.89
526.67	35175.91
526.84	34976.97
527.01	34962.92
527.18	35005.05
527.36	35524.65
527.53	35314.00
527.70	35667.42
527.87	35569.12
528.04	35386.56
528.21	35704.87
528.38	35550.40
528.55	36088.72
528.72	35779.77
528.89	36161.28
529.07	35882.75
529.24	35653.38
529.41	35817.22
529.58	36002.12
529.75	36105.10
529.92	36093.40
530.09	36229.15
530.26	36479.59
530.43	36275.96
530.60	36020.84
530.77	36224.47
530.94	36643.43
531.11	36278.30
531.28	36704.28
531.46	36591.94
531.63	36582.57
531.80	36732.37
531.97	36500.65
532.14	36620.02
532.31	36744.07
532.48	36811.95
532.65	36992.17
532.82	36730.03
532.99	37102.17
533.16	37029.62
533.33	36854.08
533.50	37345.59
533.67	37502.40
533.84	36928.97
534.01	37242.60
534.18	37640.50
534.35	37408.78
534.52	37263.67
534.69	38031.36
534.86	37282.39
535.03	37144.30
535.20	37977.53
535.37	38031.36
535.54	38220.95
535.71	37778.59
535.88	38150.73
536.05	37736.46
536.22	37888.59
536.38	38263.08
536.55	38033.71
536.72	38132.01
536.89	37624.11
537.06	38108.60
537.23	38218.61
537.40	38110.94
537.57	38225.63
537.74	38319.25
537.91	38838.85
538.08	38953.54
538.25	38347.34
538.42	38527.56
538.59	38766.29
538.75	38464.36
538.92	38377.76
539.09	38876.30
539.26	38609.48
539.43	39023.75
539.60	38820.13
539.77	38455.00
539.94	38902.04
540.11	39016.73
540.28	38841.19
540.44	39044.82
540.61	38759.27
540.78	38967.58
540.95	39063.54
541.12	38972.26
541.29	38490.11
541.46	38934.81
541.62	38824.81
541.79	39498.88
541.96	39117.37
542.13	39159.50
542.30	39180.57
542.47	39945.92
542.63	39309.30
542.80	39557.39
542.97	39878.05
543.14	40027.84
543.31	40004.44
543.48	40196.36
543.64	40383.60
543.81	40154.23
543.98	40203.38
544.15	40032.52
544.32	40041.88
544.48	40435.10
544.65	39992.73
544.82	40402.33
544.99	40297.00
545.16	40023.16
545.32	40119.12
545.49	40568.51
545.66	40615.32
545.83	40765.11
546.00	40243.17
546.16	40339.13
546.33	40467.86
546.50	40191.68
546.67	40697.24
546.83	40407.01
547.00	40816.60
547.17	40748.73
547.34	40919.59
547.50	40802.56
547.67	40844.69
547.84	40605.95
548.00	40947.67
548.17	41556.21
548.34	40982.78
548.51	41092.79
548.67	40704.26
548.84	41060.02
549.01	41048.32
549.18	41104.49
549.34	41303.43
549.51	41392.37
549.68	41874.52
549.84	41317.48
550.01	41542.17
550.18	41195.77
550.34	41904.95
550.51	41177.04
550.68	41064.70
550.84	41394.71
551.01	41467.27
551.18	40889.16
551.34	41965.81
551.51	41687.28
551.68	41731.75
551.84	41411.10
552.01	41361.95
552.18	41801.97
552.34	41614.72
552.51	42050.06
552.68	41961.12
552.84	41713.03
553.01	42347.31
553.18	42209.22
553.34	41940.06
553.51	41858.14
553.67	41982.19
553.84	42267.73
554.01	41998.57
554.17	42394.12
554.34	42349.65
554.51	42106.24
554.67	42162.41
554.84	42174.11
555.00	41785.58
555.17	42117.94
555.33	42094.53
555.50	42670.31
555.67	42232.63
555.83	42176.45
556.00	42618.81
556.16	42946.49
556.33	42590.73
556.50	42492.43
556.66	42827.12
556.83	42326.25
556.99	42845.85
557.16	42672.65
557.32	43107.99
557.49	42993.30
557.65	42684.35
557.82	42672.65
557.98	42504.13
558.15	42752.23
558.32	42885.64
558.48	42705.41
558.65	43079.90
558.81	42733.50
558.98	42583.71
559.14	43196.93
559.31	42759.25
559.47	42724.14
559.64	43540.99
559.80	43564.39
559.97	43428.64
560.13	42759.25
560.30	43084.58
560.46	42866.91
560.63	43189.91
560.79	43299.91
560.96	42958.19
561.12	43412.26
561.29	43098.62
561.45	43147.78
561.61	43655.67
561.78	43093.94
561.94	42946.49
562.11	42925.42
562.27	43276.51
562.44	43313.95
562.60	43849.94
562.77	43779.72
562.93	43171.18
563.10	43430.98
563.26	43040.11
563.42	43690.78
563.59	42806.06
563.75	43613.54
563.92	43945.90
564.08	43311.61
564.24	43761.00
564.41	44091.01
564.57	43349.06
564.74	43550.35
564.90	43578.43
565.07	43655.67
565.23	43086.92
565.39	43225.01
565.56	43697.80
565.72	43608.86
565.88	43658.01
566.05	43379.49
566.21	43613.54
566.38	43255.44
566.54	43819.51
566.70	43702.48
566.87	43838.23
567.03	43789.08
567.19	43999.73
567.36	43632.27
567.52	43765.68
567.68	43849.94
567.85	43543.33
568.01	43625.25
568.17	43751.63
568.34	43959.94
568.50	43976.33
568.66	43168.84
568.83	43665.03
568.99	43849.94
569.15	43789.08
569.32	43807.81
569.48	43578.43
569.64	44194.00
569.81	43969.30
569.97	43885.04
570.13	43849.94
570.30	43805.47
570.46	43753.97
570.62	43407.58
570.78	43559.71
570.95	43945.90
571.11	43538.65
571.27	43770.36
571.43	43842.92
571.60	43885.04
571.76	43819.51
571.92	44151.87
572.09	44327.41
572.25	44065.27
572.41	44053.56
572.57	43786.74
572.74	44697.21
572.90	44243.15
573.06	44098.03
573.22	44184.63
573.38	44170.59
573.55	43892.07
573.71	44364.85
573.87	44376.56
574.03	43899.09
574.20	44271.23
574.36	44142.50
574.52	43768.02
574.68	43943.56
574.84	44091.01
575.01	43983.35
575.17	44018.46
575.33	43627.59
575.49	44205.70
575.65	44294.64
575.82	44411.67
575.98	44409.32
576.14	44814.24
576.30	44034.84
576.46	43814.83
576.62	43400.55
576.79	43915.47
576.95	43901.43
577.11	43618.22
577.27	44011.43
577.43	43976.33
577.59	44135.48
577.75	43849.94
577.92	43969.30
578.08	44158.89
578.24	44034.84
578.40	44095.69
578.56	44170.59
578.72	44212.72
578.88	44500.61
579.04	44168.25
579.21	44030.16
579.37	44112.08
579.53	44699.55
579.69	44238.47
579.85	44509.97
580.01	44025.48
580.17	44186.97
580.33	44254.85
580.49	44545.08
580.65	44346.13
580.82	44624.65
580.98	44147.18
581.14	43882.70
581.30	44655.08
581.46	44348.47
581.62	44322.72
581.78	44208.04
581.94	44540.39
582.10	44156.55
582.26	44355.49
582.42	44175.27
582.58	43833.55
582.74	44395.28
582.90	44531.03
583.06	44264.21
583.22	44348.47
583.38	44156.55
583.54	43828.87
583.70	44278.25
583.86	44170.59
584.02	44072.29
584.18	44402.30
584.34	44402.30
584.50	44463.16
584.66	44060.58
584.82	44282.94
584.98	44474.86
585.14	44526.35
585.30	43894.41
585.46	44067.61
585.62	44158.89
585.78	43941.22
585.94	44444.43
586.10	44240.81
586.26	44009.09
586.42	44603.59
586.58	44294.64
586.74	44603.59
586.90	43962.28
587.06	44259.53
587.22	44339.11
587.38	44203.36
587.54	44741.68
587.70	44392.94
587.86	44781.47
588.02	44678.49
588.18	44612.95
588.34	44325.07
588.49	44266.55
588.65	44282.94
588.81	44102.71
588.97	44390.60
589.13	44217.40
589.29	44549.76
589.45	44406.98
589.61	44872.75
589.77	44568.48
589.93	44741.68
590.08	44596.57
590.24	44465.50
590.40	44889.13
590.56	44882.11
590.72	44680.83
590.88	44069.95
591.04	44638.70
591.20	45256.60
591.35	44837.64
591.51	45006.16
591.67	44491.24
591.83	44568.48
591.99	44472.52
592.15	44348.47
592.31	44463.16
592.46	44580.18
592.62	44528.69
592.78	44753.38
592.94	44690.19
593.10	44685.51
593.26	45017.86
593.41	45001.48
593.57	44755.72
593.73	44240.81
593.89	44711.25
594.05	44142.50
594.20	44591.89
594.36	45071.70
594.52	44652.74
594.68	44655.08
594.84	44905.52
594.99	45373.63
595.15	44596.57
595.31	44954.67
595.47	44453.79
595.62	44952.33
595.78	44821.26
595.94	45006.16
596.10	45022.54
596.25	44725.30
596.41	44687.85
596.57	44624.65
596.73	44886.79
596.88	44519.33
597.04	44634.02
597.20	44435.07
597.36	44591.89
597.51	45064.67
597.67	44685.51
597.83	44781.47
597.99	44718.28
598.14	44989.78
598.30	44854.03
598.46	44657.42
598.61	44685.51
598.77	44563.80
598.93	44797.85
599.09	45022.54
599.24	44952.33
599.40	45083.40
599.56	45076.38
599.71	45144.25
599.87	45216.81
600.03	44477.20
600.18	44788.49
600.34	44825.94
600.50	44989.78
600.65	44458.48
600.81	45254.26
600.97	44910.20
601.12	45251.92
601.28	44692.53
601.44	44535.71
601.59	44919.56
601.75	44444.43
601.91	44989.78
602.06	45006.16
602.22	44521.67
602.37	45139.57
602.53	44898.50
602.69	44935.95
602.84	44774.45
603.00	44528.69
603.16	45010.84
603.31	44612.95
603.47	44830.62
603.62	44083.99
603.78	44619.97
603.94	44626.99
604.09	44753.38
604.25	44893.82
604.40	44994.46
604.56	44898.50
604.71	44802.53
604.87	44442.09
605.03	44762.75
605.18	44886.79
605.34	44491.24
605.49	44058.24
605.65	44715.93
605.80	44580.18
605.96	44823.60
606.12	44423.37
606.27	45031.91
606.43	44535.71
606.58	45043.61
606.74	44472.52
606.89	44556.78
607.05	44655.08
607.20	44622.31
607.36	44542.74
607.51	45010.84
607.67	44865.73
607.82	44275.91
607.98	44641.04
608.13	44648.06
608.29	44624.65
608.44	44416.35
608.60	44093.35
608.75	44425.71
608.91	44243.15
609.06	44659.76
609.22	44889.13
609.37	44439.75
609.53	44325.07
609.68	44367.20
609.84	44390.60
609.99	44128.46
610.15	44662.10
610.30	44201.02
610.46	44105.06
610.61	44076.97
610.76	44135.48
610.92	44376.56
611.07	43976.33
611.23	44041.86
611.38	44046.54
611.54	44025.48
611.69	43927.17
611.84	43512.90
612.00	44069.95
612.15	43789.08
612.31	44250.17
612.46	44231.44
612.62	44531.03
612.77	44037.18
612.92	44313.36
613.08	43791.42
613.23	44027.82
613.39	43990.37
613.54	43931.86
613.69	44011.43
613.85	43758.66
614.00	43988.03
614.15	44612.95
614.31	43978.67
614.46	43910.79
614.62	43695.46
614.77	43800.79
614.92	43845.26
615.08	43440.34
615.23	43779.72
615.38	43782.06
615.54	43248.42
615.69	43831.21
615.84	43358.42
616.00	43812.49
616.15	43716.53
616.30	43695.46
616.46	43363.11
616.61	43672.06
616.76	43503.54
616.92	43192.25
617.07	43409.92
617.22	43084.58
617.37	43498.86
617.53	43548.01
617.68	43391.19
617.83	43199.27
617.99	43697.80
618.14	43332.68
618.29	43185.22
618.45	43262.46
618.60	43328.00
618.75	43526.94
618.90	43349.06
619.06	43395.87
619.21	43185.22
619.36	43119.69
619.51	43421.62
619.67	42864.57
619.82	43356.08
619.97	43393.53
620.12	42810.74
620.28	42642.22
620.43	43077.56
620.58	43166.50
620.73	42667.97
620.89	43339.70
621.04	43068.20
621.19	43005.00
621.34	42801.38
621.49	42553.28
621.65	42782.65
621.80	42862.23
621.95	42469.02
622.10	42436.25
622.25	42618.81
622.41	42728.82
622.56	42483.06
622.71	42445.62
622.86	42490.09
623.01	43077.56
623.16	42766.27
623.32	42899.68
623.47	42845.85
623.62	42447.96
623.77	42279.44
623.92	42316.89
624.07	42190.50
624.23	42429.23
624.38	42487.74
624.53	42438.59
624.68	42321.57
624.83	42628.18
624.98	42253.69
625.13	41991.55
625.29	42183.48
625.44	41783.24
625.59	42029.00
625.74	42066.45
625.89	41848.78
626.04	41558.55
626.19	42024.32
626.34	42478.38
626.49	41813.67
626.65	42038.36
626.80	42241.99
626.95	41474.29
627.10	41729.41
627.25	41907.29
627.40	41713.03
627.55	41193.43
627.70	41263.64
627.85	41542.17
628.00	41638.13
628.15	41855.80
628.30	41663.88
628.45	42038.36
628.60	41902.61
628.76	41523.44
628.91	41457.91
629.06	41322.16
629.21	41734.09
629.36	41794.95
629.51	41282.37
629.66	41331.52
629.81	41411.10
629.96	41572.60
630.11	41375.99
630.26	41282.37
630.41	41305.77
630.56	41383.01
630.71	41876.86
630.86	41310.46
631.01	41055.34
631.16	41354.93
631.31	40938.31
631.46	40627.02
631.61	41151.30
631.76	41593.66
631.91	41350.24
632.06	41198.11
632.21	41097.47
632.36	41165.34
632.51	41010.87
632.66	40617.66
632.81	40687.87
632.96	40928.95
633.10	40507.65
633.25	41057.68
633.40	40879.80
633.55	41123.21
633.70	41170.02
633.85	41106.83
634.00	40540.42
634.15	40545.10
634.30	40285.30
634.45	40818.94
634.60	40793.20
634.75	40933.63
634.90	40779.15
635.05	40280.62
635.19	40502.97
635.34	40816.60
635.49	40652.76
635.64	40280.62
635.79	40507.65
635.94	40184.66
636.09	40395.31
636.24	40484.25
636.39	39885.07
636.53	39990.39
636.68	39814.85
636.83	40201.04
636.98	40713.62
637.13	40020.82
637.28	40151.89
637.43	40233.81
637.57	40004.44
637.72	40109.76
637.87	39625.27
638.02	40254.87
638.17	40034.86
638.32	39526.97
638.46	39889.75
638.61	39526.97
638.76	39323.34
638.91	39761.02
639.06	39866.34
639.20	39566.76
639.35	39864.00
639.50	39711.87
639.65	40215.08
639.80	39718.89
639.94	39777.40
640.09	39564.42
640.24	39393.56
640.39	39356.11
640.54	39372.49
640.68	39330.36
640.83	39407.60
640.98	39531.65
641.13	39480.16
641.27	40018.48
641.42	39096.31
641.57	39468.45
641.72	39267.17
641.86	39131.42
642.01	39276.53
642.16	39445.05
642.31	38885.66
642.45	39648.68
642.60	39152.48
642.75	39178.23
642.90	39325.68
643.04	39386.54
643.19	38958.22
643.34	39037.80
643.48	39283.55
643.63	39206.31
643.78	38693.74
643.93	38885.66
644.07	38892.68
644.22	38511.17
644.37	38911.41
644.51	38565.01
644.66	38909.07
644.81	39086.95
644.95	38983.96
645.10	38902.04
645.25	38761.61
645.39	38785.02
645.54	38995.67
645.69	38906.73
645.83	38646.93
645.98	38522.88
646.13	38305.21
646.27	38735.87
646.42	38583.73
646.57	38181.16
646.71	38899.70
646.86	38923.11
647.00	38780.34
647.15	38501.81
647.30	38794.38
647.44	38602.46
647.59	38717.14
647.74	38382.45
647.88	38480.75
648.03	38335.63
648.17	38387.13
648.32	37832.42
648.47	38230.31
648.61	38096.90
648.76	38258.40
648.90	38284.14
649.05	38150.73
649.20	38260.74
649.34	38787.36
649.49	38480.75
649.63	37785.61
649.78	38405.85
649.92	38639.90
650.07	38305.21
650.21	37893.27
650.36	38354.36
650.51	37881.57
650.65	38838.85
650.80	38689.06
650.94	38396.49
651.09	38096.90
651.23	37766.88
651.38	37823.06
651.52	38227.97
651.67	37694.33
651.81	37481.34
651.96	37677.94
652.10	37734.12
652.25	37881.57
652.39	37635.81
652.54	37610.07
652.68	37748.16
652.83	38005.62
652.97	37956.47
653.12	37425.17
653.26	37727.10
653.41	37633.47
653.55	37324.52
653.70	37273.03
653.84	37565.60
653.99	37296.44
654.13	37628.79
654.27	37364.31
654.42	37633.47
654.56	37574.96
654.71	37216.86
654.85	37631.13
655.00	37336.23
655.14	37244.94
655.29	36905.57
655.43	36863.44
655.57	37125.58
655.72	36746.41
655.86	37024.93
656.01	36973.44
656.15	36882.16
656.30	36900.89
656.44	36823.65
656.58	36800.24
656.73	36474.91
656.87	36503.00
657.01	36519.38
657.16	36858.76
657.30	36556.83
657.45	36325.11
657.59	36786.20
657.73	36631.72
657.88	36587.25
658.02	36254.90
658.16	36589.59
658.31	36608.32
658.45	36498.31
658.60	36381.29
658.74	36360.22
658.88	36144.89
659.03	36467.89
659.17	36444.48
659.31	35943.61
659.46	36088.72
659.60	36144.89
659.74	36545.12
659.89	35995.10
660.03	35826.58
660.17	36137.87
660.32	35840.62
660.46	36290.01
660.60	36039.57
660.74	36243.20
660.89	35803.17
661.03	35569.12
661.17	35735.30
661.32	35356.13
661.46	35566.78
661.60	35407.62
661.74	35515.29
661.89	35138.46
662.03	35426.35
662.17	35419.33
662.31	34998.03
662.46	35119.74
662.60	35409.96
662.74	35026.12
662.88	35278.89
663.03	34909.09
663.17	35463.80
663.31	35246.13
663.45	35086.97
663.60	34817.81
663.74	35005.05
663.88	34628.23
664.02	34646.95
664.17	34759.30
664.31	34347.36
664.45	34642.27
664.59	34869.30
664.73	34323.96
664.88	34345.02
665.02	34085.22
665.16	34319.28
665.30	34235.02
665.44	34232.68
665.59	34216.29
665.73	33895.64
665.87	33647.54
666.01	34045.43
666.15	34242.04
666.29	33837.12
666.44	34029.05
666.58	33991.60
666.72	34110.97
666.86	33802.02
667.00	34204.59
667.14	33720.10
667.28	33844.15
667.43	33670.95
667.57	33940.11
667.71	33472.00
667.85	33546.90
667.99	33439.23
668.13	33226.24
668.27	33338.59
668.41	33347.95
668.56	33123.26
668.70	33233.27
668.84	32783.88
668.98	32559.19
669.12	33069.43
669.26	33118.58
669.40	32865.80
669.54	32692.60
669.68	32936.02
669.82	32870.48
669.96	32982.83
670.10	32421.10
670.25	32465.57
670.39	32758.14
670.53	32903.25
670.67	32184.71
670.81	32322.80
670.95	32683.24
671.09	32563.87
671.23	32538.13
671.37	31985.76
671.51	32154.28
671.65	32095.77
671.79	31910.86
671.93	31922.57
672.07	32283.01
672.21	31908.52
672.35	31660.43
672.49	31587.87
672.63	31899.16
672.77	31747.03
672.91	31730.64
673.05	31480.21
673.19	31433.39
673.33	31311.69
673.47	31337.43
673.61	30986.35
673.75	31407.65
673.89	30962.95
674.03	30700.81
674.17	30904.43
674.31	30859.96
674.45	30976.99
674.59	30621.23
674.73	31136.15
674.87	30684.42
675.01	30866.98
675.15	30560.37
675.29	30960.61
675.43	30370.79
675.56	30323.98
675.70	30520.59
675.84	29956.52
675.98	29024.98
676.12	29631.18
676.26	29872.26
676.40	29626.50
676.54	29542.24
676.68	29720.12
676.82	29085.84
676.96	29706.08
677.10	29186.48
677.23	29221.59
677.37	29460.32
677.51	29244.99
677.65	29324.57
677.79	28376.66
677.93	29125.63
678.07	29006.26
678.21	28650.50
678.34	28776.89
678.48	28231.54
678.62	28374.31
678.76	28306.44
678.90	28379.00
679.04	28357.93
679.18	28390.70
679.31	27693.22
679.45	27850.03
679.59	27480.23
679.73	27234.47
679.87	27700.24
680.00	27608.96
680.14	27335.12
680.28	27386.61
680.42	27290.65
680.56	27033.19
680.70	27246.18
680.83	27213.41
680.97	27250.86
681.11	26534.65
681.25	26520.61
681.39	26567.42
681.52	26611.89
681.66	26522.95
681.80	26464.44
681.94	26448.05
682.07	26192.94
682.21	26204.64
682.35	26132.08
682.49	26127.40
682.62	26452.73
682.76	26066.55
682.90	25343.32
683.04	25806.75
683.17	25713.13
683.31	25645.25
683.45	25544.61
683.59	25343.32
683.72	25060.12
683.86	24863.51
684.00	24903.30
684.13	25230.98
684.27	25144.38
684.41	24882.24
684.55	25207.57
684.68	24727.76
684.82	24786.27
684.96	24643.50
685.09	24570.94
685.23	24369.66
685.37	24439.87
685.50	24170.71
685.64	24343.91
685.78	24173.05
685.91	24056.03
686.05	23789.20
686.19	23466.21
686.32	23901.55
686.46	23618.35
686.60	23278.97
686.73	23639.41
686.87	23075.34
687.01	23608.98
687.14	22979.38
687.28	22927.89
687.42	22593.19
687.55	22691.49
687.69	22628.30
687.82	22499.57
687.96	22923.21
688.10	22738.30
688.23	22455.10
688.37	22518.29
688.50	22153.17
688.64	22169.55
688.78	22174.24
688.91	22223.39
689.05	22157.85
689.18	21876.99
689.32	21610.17
689.46	21717.83
689.59	22223.39
689.73	22026.78
689.86	21612.51
690.00	21373.77
690.13	22054.87
690.27	21226.32
690.41	21296.53
690.54	21153.76
690.68	20982.90
690.81	21132.70
690.95	21046.10
691.08	20498.41
691.22	20891.62
691.35	20900.98
691.49	21132.70
691.62	20802.68
691.76	20704.38
691.89	20929.07
692.03	20379.04
692.16	20365.00
692.30	20116.90
692.43	20018.60
692.57	20077.12
692.70	19831.36
692.84	20016.26
692.97	19616.03
693.11	19946.05
693.24	19754.12
693.38	19309.42
693.51	19094.09
693.65	19548.15
693.78	19435.81
693.92	19499.00
694.05	19157.28
694.19	19290.70
694.32	19026.21
694.45	18864.72
694.59	18785.14
694.72	18642.37
694.86	18930.25
694.99	18801.52
695.13	18373.21
695.26	18625.98
695.39	18118.09
695.53	18347.46
695.66	18038.51
695.80	18258.52
695.93	18143.83
696.07	18092.34
696.20	17685.09
696.33	17848.93
696.47	17944.89
696.60	17823.18
696.73	17706.15
696.87	17352.73
697.00	17788.07
697.14	17664.02
697.27	17458.06
697.40	17432.31
697.54	17642.96
697.67	17095.27
697.80	17104.64
697.94	17125.70
698.07	16917.39
698.21	16769.94
698.34	16669.30
698.47	16802.71
698.61	16517.16
698.74	16486.73
698.87	16643.55
699.01	16358.00
699.14	16201.19
699.27	16135.65
699.40	16444.60
699.54	15901.60
699.67	15873.51
699.80	15786.91
699.94	16128.63
700.07	15978.84
700.20	15812.66
700.34	15754.15
700.47	15606.69
700.60	15761.17
700.73	15826.70
700.87	15651.16
701.00	15386.68
701.13	15517.75
701.26	15672.23
701.40	15414.77
701.53	15452.22
701.66	15098.80
701.79	15033.26
701.93	14925.60
702.06	14710.27
702.19	14890.49
702.32	14761.76
702.46	14712.61
702.59	14796.87
702.72	14586.22
702.85	14707.93
702.99	14501.96
703.12	14663.46
703.25	14714.95
703.38	14710.27
703.51	13951.93
703.65	14270.25
703.78	14024.49
703.91	14148.54
704.04	13867.67
704.17	14090.02
704.31	13832.57
704.44	13809.16
704.57	13626.60
704.70	13352.76
704.83	13764.69
704.96	13352.76
705.10	13675.75
705.23	13600.85
>>>>>End Processed Spectral Data<<<<<
