SpectraSuite Data File
++++++++++++++++++++++++++++++++++++
Date: Fri Oct 25 10:43:51 EDT 2013
User: price-jones
Dark Spectrum Present: No
Reference Spectrum Present: No
Number of Sampled Component Spectra: 1
Spectrometers: USB2+H05261
Integration Time (usec): 100000 (USB2+H05261)
Spectra Averaged: 1 (USB2+H05261)
Boxcar Smoothing: 0 (USB2+H05261)
Correct for Electrical Dark: No (USB2+H05261)
Strobe/Lamp Enabled: No (USB2+H05261)
Correct for Detector Non-linearity: No (USB2+H05261)
Correct for Stray Light: No (USB2+H05261)
Number of Pixels in Processed Spectrum: 2048
>>>>>Begin Processed Spectral Data<<<<<
365.73	81.92
365.92	81.92
366.12	81.92
366.32	44.47
366.52	9.36
366.72	42.13
366.91	28.09
367.11	49.15
367.31	37.45
367.51	18.72
367.70	37.45
367.90	84.26
368.10	0.00
368.30	100.64
368.49	65.54
368.69	93.62
368.89	49.15
369.09	7.02
369.28	7.02
369.48	72.56
369.68	46.81
369.87	112.35
370.07	121.71
370.27	63.19
370.47	112.35
370.66	400.23
370.86	421.30
371.06	430.66
371.25	500.87
371.45	475.13
371.65	433.00
371.84	477.47
372.04	458.74
372.24	472.79
372.44	470.45
372.63	582.79
372.83	514.92
373.03	566.41
373.22	510.24
373.42	608.54
373.62	585.13
373.81	557.05
374.01	599.18
374.21	585.13
374.40	564.07
374.60	606.20
374.79	601.52
374.99	552.37
375.19	603.86
375.38	671.73
375.58	664.71
375.78	594.50
375.97	552.37
376.17	692.80
376.37	594.50
376.56	594.50
376.76	528.96
376.95	566.41
377.15	608.54
377.35	674.07
377.54	631.94
377.74	676.41
377.93	627.26
378.13	638.97
378.33	589.82
378.52	578.11
378.72	795.78
378.91	664.71
379.11	624.92
379.31	732.59
379.50	725.57
379.70	819.19
379.89	704.50
380.09	697.48
380.28	716.20
380.48	753.65
380.68	660.03
380.87	643.65
381.07	739.61
381.26	791.10
381.46	791.10
381.65	763.01
381.85	650.67
382.04	615.56
382.24	709.18
382.43	676.41
382.63	664.71
382.83	702.16
383.02	744.29
383.22	763.01
383.41	685.78
383.61	695.14
383.80	763.01
384.00	760.67
384.19	858.98
384.39	765.36
384.58	826.21
384.78	805.14
384.97	793.44
385.17	868.34
385.36	819.19
385.56	777.06
385.75	835.57
385.95	802.80
386.14	903.45
386.34	844.93
386.53	887.06
386.72	833.23
386.92	777.06
387.11	875.36
387.31	840.25
387.50	905.79
387.70	887.06
387.89	875.36
388.09	847.27
388.28	894.08
388.48	826.21
388.67	910.47
388.86	877.70
389.06	1020.47
389.25	980.68
389.45	971.32
389.64	1036.86
389.84	954.94
390.03	1027.50
390.22	1050.90
390.42	1046.22
390.61	1048.56
390.81	1022.81
391.00	1149.20
391.19	1137.50
391.39	1078.99
391.58	1128.14
391.78	1081.33
391.97	971.32
392.16	931.53
392.36	1132.82
392.55	1062.60
392.75	1008.77
392.94	971.32
393.13	1032.18
393.33	1048.56
393.52	1090.69
393.71	1130.48
393.91	1032.18
394.10	1130.48
394.29	1128.14
394.49	1188.99
394.68	1196.01
394.88	1266.23
395.07	1282.61
395.26	1238.14
395.46	1306.02
395.65	1310.70
395.84	1226.44
396.04	1341.13
396.23	1100.05
396.42	1221.76
396.62	1170.27
396.81	1247.51
397.00	1186.65
397.19	1320.06
397.39	1242.82
397.58	1385.60
397.77	1411.34
397.97	1434.75
398.16	1301.34
398.35	1514.33
398.55	1432.41
398.74	1476.88
398.93	1561.14
399.12	1542.41
399.32	1502.62
399.51	1514.33
399.70	1617.31
399.90	1542.41
400.09	1558.80
400.28	1659.44
400.47	1701.57
400.67	1781.15
400.86	1692.21
401.05	1673.48
401.24	1732.00
401.44	1645.40
401.63	1832.64
401.82	1710.93
402.01	1743.70
402.21	1809.23
402.40	1739.02
402.59	1778.81
402.78	1806.89
402.97	1898.17
403.17	1802.21
403.36	1834.98
403.55	1893.49
403.74	1961.37
403.93	1804.55
404.13	1842.00
404.32	1930.94
404.51	1930.94
404.70	1996.48
404.89	1980.09
405.09	1987.11
405.28	1944.99
405.47	1921.58
405.66	2122.87
405.85	2036.27
406.05	2017.54
406.24	2062.01
406.43	2099.46
406.62	2115.84
406.81	2111.16
407.00	2150.95
407.20	2043.29
407.39	2104.14
407.58	2207.13
407.77	2183.72
407.96	2275.00
408.15	2165.00
408.34	2200.10
408.54	2312.45
408.73	2239.89
408.92	2239.89
409.11	2333.51
409.30	2352.24
409.49	2272.66
409.68	2312.45
409.87	2340.54
410.07	2246.91
410.26	2340.54
410.45	2403.73
410.64	2553.52
410.83	2441.18
411.02	2649.49
411.21	2602.68
411.40	2656.51
411.59	2658.85
411.78	2686.94
411.98	2588.63
412.17	2710.34
412.36	2597.99
412.55	2668.21
412.74	2855.45
412.93	2679.91
413.12	2780.56
413.31	2993.55
413.50	2876.52
413.69	2895.24
413.88	2970.14
414.07	2867.16
414.26	2995.89
414.45	3016.95
414.64	3136.32
414.83	3103.55
415.02	3089.51
415.22	3115.25
415.41	3094.19
415.60	3103.55
415.79	3199.51
415.98	3220.58
416.17	3272.07
416.36	3276.75
416.55	3272.07
416.74	3129.30
416.93	3349.31
417.12	3342.28
417.31	3396.12
417.50	3461.65
417.69	3419.52
417.88	3454.63
418.07	3461.65
418.26	3496.76
418.45	3545.91
418.64	3566.98
418.83	3527.19
419.02	3571.66
419.21	3632.51
419.39	3765.92
419.58	3641.87
419.77	3737.84
419.96	3581.02
420.15	3557.61
420.34	3695.71
420.53	3840.82
420.72	3878.27
420.91	3779.97
421.10	3894.65
421.29	3990.61
421.48	3911.04
421.67	3819.75
421.86	3843.16
422.05	3953.16
422.24	3805.71
422.43	3765.92
422.61	3941.46
422.80	3999.98
422.99	3857.20
423.18	3960.19
423.37	3920.40
423.56	4021.04
423.75	3929.76
423.94	3950.82
424.13	3812.73
424.32	3831.46
424.50	4053.81
424.69	4072.53
424.88	4049.13
425.07	3922.74
425.26	3920.40
425.45	4065.51
425.64	4119.34
425.83	3990.61
426.01	3960.19
426.20	4042.11
426.39	3941.46
426.58	4004.66
426.77	3880.61
426.96	4044.45
427.15	4112.32
427.33	4021.04
427.52	4196.58
427.71	4133.39
427.90	4182.54
428.09	4318.29
428.28	4180.20
428.46	4318.29
428.65	4248.07
428.84	4390.84
429.03	4236.37
429.22	4112.32
429.40	4231.69
429.59	4189.56
429.78	4025.72
429.97	3960.19
430.16	4058.49
430.34	4100.62
430.53	4196.58
430.72	4238.71
430.91	4238.71
431.10	4325.31
431.28	4587.45
431.47	4671.71
431.66	4772.35
431.85	4596.81
432.03	4702.14
432.22	4828.53
432.41	4613.20
432.60	4739.58
432.79	4858.95
432.97	4926.83
433.16	4823.84
433.35	4723.20
433.54	4641.28
433.72	4746.61
433.91	4704.48
434.10	4833.21
434.28	4798.10
434.47	4858.95
434.66	5006.41
434.85	4917.47
435.03	5088.32
435.22	5078.96
435.41	5158.54
435.59	5160.88
435.78	5205.35
435.97	5303.65
436.16	5308.34
436.34	5252.16
436.53	5336.42
436.72	5500.26
436.90	5132.79
437.09	5280.25
437.28	5200.67
437.46	5303.65
437.65	5327.06
437.84	5254.50
438.02	5280.25
438.21	5275.57
438.40	5331.74
438.58	5315.36
438.77	5706.23
438.96	5444.09
439.14	5593.88
439.33	5748.36
439.52	5654.73
439.70	5692.18
439.89	5753.04
440.08	5795.17
440.26	5870.06
440.45	5790.49
440.63	6008.16
440.82	6073.69
441.01	5870.06
441.19	6076.03
441.38	6059.65
441.57	6052.63
441.75	6197.74
441.94	6291.36
442.12	6417.75
442.31	6345.19
442.50	6401.37
442.68	6415.41
442.87	6434.13
443.05	6427.11
443.24	6494.99
443.43	6534.78
443.61	6471.58
443.80	6785.21
443.98	6401.37
444.17	6366.26
444.35	6612.01
444.54	6904.58
444.73	6672.87
444.91	6546.48
445.10	6637.76
445.28	6532.44
445.47	6567.54
445.65	6406.05
445.84	6380.30
446.02	6626.06
446.21	6703.29
446.39	6590.95
446.58	6663.51
446.77	6703.29
446.95	6572.22
447.14	6726.70
447.32	6860.11
447.51	6679.89
447.69	6771.17
447.88	6775.85
448.06	6726.70
448.25	6757.13
448.43	6892.88
448.62	6750.10
448.80	6773.51
448.99	6949.05
449.17	6927.99
449.36	6991.18
449.54	6909.26
449.73	7077.78
449.91	7307.15
450.10	7239.28
450.28	7349.28
450.46	7496.74
450.65	7201.83
450.83	7194.81
451.02	7283.75
451.20	7283.75
451.39	7447.58
451.57	7145.66
451.76	7234.60
451.94	7274.38
452.13	7297.79
452.31	7283.75
452.49	7218.21
452.68	7302.47
452.86	7307.15
453.05	7468.65
453.23	7358.64
453.42	7529.50
453.60	7382.05
453.78	7571.63
453.97	7372.69
454.15	7403.11
454.34	7412.48
454.52	7639.51
454.70	7590.36
454.89	7655.89
455.07	7700.36
455.26	7679.30
455.44	7815.05
455.62	7805.69
455.81	7836.11
455.99	8074.85
456.17	7880.58
456.36	7981.23
456.54	7899.31
456.73	8028.04
456.91	8175.49
457.09	8273.79
457.28	8287.84
457.46	8058.46
457.64	8411.89
457.83	8409.54
458.01	8072.51
458.19	8362.73
458.38	8231.66
458.56	8315.92
458.74	8322.94
458.93	8224.64
459.11	8255.07
459.29	8327.63
459.48	8697.43
459.66	8379.12
459.84	8503.17
460.03	8624.87
460.21	8709.13
460.39	8557.00
460.57	8674.03
460.76	8685.73
460.94	8739.56
461.12	8786.37
461.31	8929.14
461.49	8915.10
461.67	8648.28
461.85	8879.99
462.04	8985.32
462.22	9125.75
462.40	9064.89
462.59	9046.17
462.77	8919.78
462.95	9085.96
463.13	8945.53
463.32	8957.23
463.50	9191.28
463.68	9240.44
463.86	9184.26
464.05	8879.99
464.23	9231.07
464.41	9114.05
464.59	8952.55
464.78	9341.08
464.96	9027.45
465.14	9048.51
465.32	9247.46
465.50	9327.03
465.69	9458.10
465.87	9462.79
466.05	9156.18
466.23	9097.66
466.41	9397.25
466.60	9577.47
466.78	9238.09
466.96	9320.01
467.14	9188.94
467.32	9589.17
467.51	9530.66
467.69	9275.54
467.87	9453.42
468.05	9743.65
468.23	9568.11
468.41	9643.01
468.60	9598.54
468.78	9673.43
468.96	9813.87
469.14	9909.83
469.32	10113.45
469.50	9631.30
469.69	9802.16
469.87	9804.50
470.05	9940.26
470.23	10090.05
470.41	10043.24
470.59	10071.33
470.77	9832.59
470.95	10022.17
471.14	10356.87
471.32	9989.41
471.50	10417.72
471.68	10459.85
471.86	10544.11
472.04	10593.26
472.22	10738.38
472.40	10370.91
472.58	10473.90
472.77	10560.50
472.95	10560.50
473.13	11105.84
473.31	10558.16
473.49	10644.76
473.67	10705.61
473.85	10651.78
474.03	11087.12
474.21	11173.72
474.39	11250.96
474.57	11300.11
474.75	11157.33
474.93	11199.46
475.12	11267.34
475.30	11461.60
475.48	11290.74
475.66	11482.67
475.84	11407.77
476.02	11344.58
476.20	11660.55
476.38	11765.87
476.56	12163.76
476.74	11847.79
476.92	12053.76
477.10	11981.20
477.28	12332.28
477.46	12077.16
477.64	12531.23
477.82	12470.37
478.00	12835.50
478.18	12599.10
478.36	12755.92
478.54	12849.54
478.72	12863.58
478.90	12980.61
479.08	13399.57
479.26	13146.79
479.44	13139.77
479.62	13483.83
479.80	13518.93
479.98	13530.64
480.16	13680.43
480.34	13731.92
480.52	13928.53
480.70	14054.92
480.88	14040.87
481.06	14008.11
481.24	14181.31
481.41	14127.47
481.59	14946.66
481.77	14356.85
481.95	14267.91
482.13	14787.50
482.31	14733.67
482.49	15164.33
482.67	14953.68
482.85	15279.02
483.03	15274.34
483.21	15531.80
483.39	15339.87
483.57	15733.08
483.74	15367.96
483.92	15899.26
484.10	15819.68
484.28	15700.31
484.46	16439.92
484.64	16372.05
484.82	16208.21
485.00	16114.59
485.18	16706.74
485.35	16624.83
485.53	16587.38
485.71	16306.51
485.89	16446.94
486.07	16561.63
486.25	16744.19
486.43	17104.64
486.61	17287.20
486.78	17198.26
486.96	17495.50
487.14	18001.06
487.32	17916.80
487.50	17951.91
487.68	18319.37
487.85	18511.30
488.03	18684.50
488.21	18799.18
488.39	18747.69
488.57	18890.46
488.75	18764.07
488.92	19372.61
489.10	19363.25
489.28	19733.06
489.46	19756.46
489.64	19791.57
489.81	20098.18
489.99	20250.32
490.17	20568.63
490.35	20554.58
490.53	20409.47
490.70	20718.42
490.88	20545.22
491.06	21132.70
491.24	21018.01
491.41	20947.79
491.59	21256.75
491.77	21081.21
491.95	21099.93
492.13	21755.28
492.30	21593.78
492.48	21673.36
492.66	21811.45
492.84	21785.71
493.01	22279.56
493.19	21951.88
493.37	22366.16
493.54	22286.58
493.72	22801.50
493.90	23005.13
494.08	23154.92
494.25	23339.82
494.43	23447.49
494.61	23709.63
494.79	24056.03
494.96	23889.85
495.14	23861.76
495.32	24280.72
495.49	24102.84
495.67	24203.48
495.85	24254.97
496.02	24547.54
496.20	24704.35
496.38	24638.82
496.55	24744.14
496.73	24781.59
496.91	25223.95
497.09	25408.86
497.26	24959.47
497.44	25544.61
497.62	25696.74
497.79	25738.87
497.97	25207.57
498.14	25757.60
498.32	25776.32
498.50	25900.37
498.67	25872.28
498.85	26054.84
499.03	26562.74
499.20	26387.20
499.38	26384.86
499.56	26623.59
499.73	26904.46
499.91	27145.53
500.08	26742.96
500.26	26885.73
500.44	27026.17
500.61	27012.12
500.79	26682.11
500.97	27119.79
501.14	27400.65
501.32	27080.00
501.49	27175.96
501.67	27072.98
501.84	27740.03
502.02	27964.72
502.20	27962.38
502.37	27751.73
502.55	28037.28
502.72	28233.88
502.90	28671.56
503.07	28074.73
503.25	28556.88
503.43	28790.93
503.60	28322.82
503.78	28332.18
503.95	28254.95
504.13	28795.61
504.30	28929.02
504.48	28992.22
504.65	29200.52
504.83	29247.33
505.01	29331.59
505.18	29069.45
505.36	29495.43
505.53	29933.11
505.71	29930.77
505.88	29862.90
506.06	29762.25
506.23	30066.52
506.41	29888.64
506.58	30132.06
506.76	29830.13
506.93	30178.87
507.11	30235.04
507.28	30206.95
507.46	30139.08
507.63	30190.57
507.81	30328.66
507.98	30127.38
508.16	30892.73
508.33	30944.22
508.50	30866.98
508.68	31030.82
508.85	31440.42
509.03	31150.19
509.20	31321.05
509.38	31522.34
509.55	31850.01
509.73	31419.35
509.90	31693.19
510.08	31992.78
510.25	31805.54
510.42	32044.27
510.60	31875.76
510.77	31899.16
510.95	32224.50
511.12	31852.35
511.30	32385.99
511.47	32865.80
511.64	32570.90
511.82	32385.99
511.99	32474.93
512.17	32692.60
512.34	33167.73
512.51	32982.83
512.69	32924.32
512.86	33109.22
513.04	33596.05
513.21	33354.97
513.38	33069.43
513.56	33429.87
513.73	33020.28
513.90	33301.14
514.08	33530.51
514.25	33528.17
514.43	33570.30
514.60	33654.56
514.77	33457.96
514.95	34057.14
515.12	33921.38
515.29	33804.36
515.47	34384.81
515.64	34665.67
515.81	34211.61
515.99	34043.09
516.16	34033.73
516.33	34153.10
516.51	34338.00
516.68	33479.02
516.85	33399.44
517.03	33771.59
517.20	34256.08
517.37	34588.44
517.54	34583.76
517.72	34852.92
517.89	34300.55
518.06	34452.69
518.24	34394.17
518.41	34749.93
518.58	34637.59
518.75	34726.53
518.93	35084.63
519.10	35206.34
519.27	35409.96
519.45	35295.28
519.62	35784.45
519.79	35693.17
519.96	35477.84
520.14	35498.91
520.31	35519.97
520.48	35653.38
520.65	35772.75
520.83	35772.75
521.00	36765.14
521.17	36107.44
521.34	36027.87
521.52	36364.90
521.69	36479.59
521.86	36856.42
522.03	36690.24
522.20	36500.65
522.38	36664.49
522.55	36617.68
522.72	36704.28
522.89	36989.83
523.07	37202.82
523.24	36673.85
523.41	37371.33
523.58	37186.43
523.75	37888.59
523.92	37390.06
524.10	37717.73
524.27	37542.19
524.44	37235.58
524.61	37675.60
524.78	37883.91
524.96	38272.44
525.13	37769.22
525.30	38115.62
525.47	37851.14
525.64	37837.10
525.81	37982.21
525.98	37855.82
526.16	37380.70
526.33	37413.46
526.50	37865.19
526.67	37537.51
526.84	37521.13
527.01	37600.71
527.18	38347.34
527.36	38656.29
527.53	38698.42
527.70	38581.39
527.87	38773.31
528.04	38462.02
528.21	38719.48
528.38	38625.86
528.55	39433.35
528.72	39360.79
528.89	39058.86
529.07	38829.49
529.24	38724.16
529.41	38862.26
529.58	39299.94
529.75	39098.65
529.92	39498.88
530.09	39302.28
530.26	38969.92
530.43	39288.23
530.60	39571.44
530.77	39545.69
530.94	40065.29
531.11	39459.09
531.28	40034.86
531.46	40142.53
531.63	40224.45
531.80	39931.88
531.97	39438.03
532.14	39679.10
532.31	39496.54
532.48	39648.68
532.65	39938.90
532.82	39735.27
532.99	39751.66
533.16	40126.14
533.33	40444.46
533.50	40250.19
533.67	40807.24
533.84	40067.63
534.01	40627.02
534.18	40355.52
534.35	41064.70
534.52	40383.60
534.69	40470.20
534.86	40968.74
535.03	40657.45
535.20	40957.03
535.37	41109.17
535.54	41450.89
535.71	40966.40
535.88	40994.48
536.05	40896.18
536.22	40900.86
536.38	40655.11
536.55	40737.02
536.72	41041.29
536.89	41261.30
537.06	41141.94
537.23	41911.97
537.40	41235.56
537.57	40903.20
537.74	41626.43
537.91	41881.55
538.08	41509.40
538.25	41184.07
538.42	41696.64
538.59	41869.84
538.75	41497.70
538.92	41294.07
539.09	41710.69
539.26	41624.09
539.43	41710.69
539.60	41605.36
539.77	41631.11
539.94	41654.51
540.11	41661.54
540.28	41794.95
540.44	41549.19
540.61	41820.69
540.78	42078.15
540.95	42033.68
541.12	42029.00
541.29	42014.96
541.46	42220.92
541.62	41816.01
541.79	42202.20
541.96	41687.28
542.13	42522.85
542.30	42293.48
542.47	42693.71
542.63	42419.87
542.80	42515.83
542.97	43049.47
543.14	43196.93
543.31	42808.40
543.48	42508.81
543.64	43037.77
543.81	43313.95
543.98	42948.83
544.15	42653.92
544.32	43412.26
544.48	43674.40
544.65	43157.14
544.82	43601.84
544.99	43161.82
545.16	43269.48
545.32	43185.22
545.49	43583.12
545.66	43683.76
545.83	43842.92
546.00	43435.66
546.16	43487.15
546.33	43704.82
546.50	43370.13
546.67	43957.60
546.83	42993.30
547.00	43690.78
547.17	43409.92
547.34	43414.60
547.50	43831.21
547.67	43981.01
547.84	44065.27
548.00	43765.68
548.17	44072.29
548.34	44189.31
548.51	44425.71
548.67	43957.60
548.84	43875.68
549.01	43952.92
549.18	44502.95
549.34	44060.58
549.51	44121.44
549.68	44404.64
549.84	44622.31
550.01	44053.56
550.18	44313.36
550.34	44060.58
550.51	44552.10
550.68	44254.85
550.84	43658.01
551.01	44311.02
551.18	44224.42
551.34	44395.28
551.51	45174.68
551.68	44526.35
551.84	44397.62
552.01	44357.83
552.18	44783.81
552.34	44194.00
552.51	45015.52
552.68	44907.86
552.84	44713.59
553.01	44505.29
553.18	44673.81
553.34	44781.47
553.51	45434.48
553.67	44821.26
553.84	45153.62
554.01	44910.20
554.17	45207.45
554.34	45556.19
554.51	45027.23
554.67	45319.79
554.84	44856.37
555.00	44641.04
555.17	45055.31
555.33	45305.75
555.50	45422.78
555.67	44488.90
555.83	45373.63
556.00	44954.67
556.16	45654.49
556.33	45088.08
556.50	45514.06
556.66	44858.71
556.83	44978.07
556.99	45029.57
557.16	45387.67
557.32	45453.20
557.49	45518.74
557.65	45125.53
557.82	45247.24
557.98	45443.84
558.15	45455.54
558.32	45317.45
558.48	45371.28
558.65	45345.54
558.81	45052.97
558.98	45153.62
559.14	45366.60
559.31	45645.13
559.47	45682.58
559.64	45624.06
559.80	45848.75
559.97	45801.94
560.13	45673.21
560.30	45612.36
560.46	45361.92
560.63	45619.38
560.79	45975.14
560.96	45900.25
561.12	45387.67
561.29	45640.45
561.45	45841.73
561.61	45923.65
561.78	45736.41
561.94	45209.79
562.11	45382.99
562.27	45825.35
562.44	45535.12
562.60	46064.08
562.77	46033.66
562.93	45811.31
563.10	46281.75
563.26	45525.76
563.42	45904.93
563.59	45862.80
563.75	45769.18
563.92	45907.27
564.08	45865.14
564.24	46129.62
564.41	45940.04
564.57	46204.52
564.74	45350.22
564.90	45647.47
565.07	46253.67
565.23	45937.69
565.39	45818.33
565.56	45914.29
565.72	45441.50
565.88	46092.17
566.05	45698.96
566.21	45869.82
566.38	45984.51
566.54	45942.38
566.70	46218.56
566.87	46230.26
567.03	46122.60
567.19	46679.64
567.36	46405.80
567.52	45998.55
567.68	46534.53
567.85	45968.12
568.01	46497.08
568.17	46153.02
568.34	46101.53
568.50	46272.39
568.66	45769.18
568.83	46256.01
568.99	45914.29
569.15	46195.15
569.32	46466.66
569.48	45989.19
569.64	46223.24
569.81	46309.84
569.97	46277.07
570.13	46377.72
570.30	46232.60
570.46	46028.98
570.62	45500.01
570.78	46120.26
570.95	45806.62
571.11	45855.78
571.27	45799.60
571.43	46195.15
571.60	46218.56
571.76	45928.33
571.92	46375.37
572.09	46316.86
572.25	46473.68
572.41	46347.29
572.57	46286.43
572.74	46356.65
572.90	46117.92
573.06	46473.68
573.22	46349.63
573.38	46258.35
573.55	46124.94
573.71	45944.72
573.87	46183.45
574.03	46326.22
574.20	46635.17
574.36	46237.28
574.52	46316.86
574.68	46028.98
574.84	46223.24
575.01	45916.63
575.17	46171.75
575.33	45979.82
575.49	46082.81
575.65	45815.99
575.82	46457.29
575.98	46216.22
576.14	46440.91
576.30	46490.06
576.46	46075.79
576.62	46010.25
576.79	46218.56
576.95	46131.96
577.11	46246.65
577.27	46373.03
577.43	45904.93
577.59	46122.60
577.75	46375.37
577.92	45778.54
578.08	46036.00
578.24	46679.64
578.40	46021.95
578.56	46330.90
578.72	46309.84
578.88	46597.73
579.04	46267.71
579.21	46206.86
579.37	46213.88
579.53	46307.50
579.69	46539.21
579.85	46529.85
580.01	46632.83
580.17	46576.66
580.33	46080.47
580.49	46602.41
580.65	46347.29
580.82	46127.28
580.98	46569.64
581.14	46005.57
581.30	46293.46
581.46	46267.71
581.62	46710.07
581.78	46323.88
581.94	46649.22
582.10	46354.31
582.26	46277.07
582.42	46602.41
582.58	46564.96
582.74	46396.44
582.90	46138.98
583.06	46642.20
583.22	46461.97
583.38	46986.25
583.54	46328.56
583.70	46499.42
583.86	46391.76
584.02	46595.38
584.18	46593.04
584.34	46492.40
584.50	46401.12
584.66	46791.99
584.82	46370.69
584.98	46307.50
585.14	46784.97
585.30	46033.66
585.46	46817.74
585.62	46471.34
585.78	46429.21
585.94	45879.18
586.10	46328.56
586.26	46153.02
586.42	46663.26
586.58	46309.84
586.74	46490.06
586.90	46153.02
587.06	46560.28
587.22	46588.36
587.38	46536.87
587.54	46859.87
587.70	46354.31
587.86	46492.40
588.02	46241.96
588.18	46525.17
588.34	46153.02
588.49	46087.49
588.65	45607.68
588.81	45785.56
588.97	46073.45
589.13	45982.16
589.29	46241.96
589.45	46204.52
589.61	46234.94
589.77	46562.62
589.93	46869.23
590.08	46466.66
590.24	46784.97
590.40	46595.38
590.56	46777.95
590.72	46625.81
590.88	46284.09
591.04	46333.24
591.20	47021.36
591.35	46906.68
591.51	46852.84
591.67	46293.46
591.83	46319.20
591.99	46356.65
592.15	46431.55
592.31	46651.56
592.46	45839.39
592.62	47007.32
592.78	46492.40
592.94	46878.59
593.10	46745.18
593.26	46621.13
593.41	46831.78
593.57	46560.28
593.73	46209.20
593.89	46323.88
594.05	46536.87
594.20	46674.96
594.36	46693.69
594.52	46607.09
594.68	46719.43
594.84	46457.29
594.99	46511.13
595.15	46260.69
595.31	47009.66
595.47	46703.05
595.62	46543.89
595.78	46539.21
595.94	47049.45
596.10	47016.68
596.25	46801.35
596.41	46859.87
596.57	46546.23
596.73	46368.35
596.88	46522.83
597.04	46803.69
597.20	46225.58
597.36	46721.77
597.51	46775.61
597.67	46586.02
597.83	46651.56
597.99	47175.84
598.14	46480.70
598.30	46490.06
598.46	46424.53
598.61	46843.48
598.77	46539.21
598.93	46279.41
599.09	46990.94
599.24	47023.70
599.40	46684.33
599.56	47021.36
599.71	47089.24
599.87	46799.01
600.03	46937.10
600.18	46714.75
600.34	46534.53
600.50	46836.46
600.65	46499.42
600.81	46827.10
600.97	47171.16
601.12	46759.22
601.28	46705.39
601.44	46326.22
601.59	46663.26
601.75	46431.55
601.91	46787.31
602.06	46621.13
602.22	46710.07
602.37	47042.43
602.53	46775.61
602.69	46653.90
602.84	46686.67
603.00	46574.32
603.16	46253.67
603.31	46909.02
603.47	46476.02
603.62	46129.62
603.78	46473.68
603.94	46674.96
604.09	46604.75
604.25	46298.14
604.40	46335.59
604.56	46344.95
604.71	46899.65
604.87	46674.96
605.03	46553.26
605.18	46349.63
605.34	46621.13
605.49	46335.59
605.65	46520.49
605.80	46368.35
605.96	46375.37
606.12	46525.17
606.27	46679.64
606.43	46567.30
606.58	46410.48
606.74	46045.36
606.89	46209.20
607.05	46569.64
607.20	46438.57
607.36	46281.75
607.51	46569.64
607.67	46440.91
607.82	45837.05
607.98	46000.89
608.13	46213.88
608.29	46426.87
608.44	45799.60
608.60	46181.11
608.75	46092.17
608.91	46162.39
609.06	46190.47
609.22	46153.02
609.37	46204.52
609.53	45937.69
609.68	46087.49
609.84	45958.76
609.99	46389.42
610.15	45823.01
610.30	45703.64
610.46	45848.75
610.61	45759.81
610.76	45881.52
610.92	46136.64
611.07	46373.03
611.23	46117.92
611.38	45958.76
611.54	45525.76
611.69	45485.97
611.84	45797.26
612.00	45787.90
612.15	45607.68
612.31	45865.14
612.46	45631.08
612.62	45694.28
612.77	45776.20
612.92	46003.23
613.08	45368.94
613.23	45378.31
613.39	45160.64
613.54	44772.11
613.69	45642.79
613.85	45633.42
614.00	45439.16
614.15	45773.86
614.31	45460.23
614.46	45752.79
614.62	45727.05
614.77	45933.01
614.92	45612.36
615.08	45352.56
615.23	45333.84
615.38	45448.52
615.54	45184.04
615.69	45120.85
615.84	45240.21
616.00	45113.83
616.15	44678.49
616.30	45263.62
616.46	45228.51
616.61	44910.20
616.76	44942.97
616.92	45109.14
617.07	45003.82
617.22	45382.99
617.37	44488.90
617.53	45687.26
617.68	45373.63
617.83	45045.95
617.99	44933.60
618.14	44755.72
618.29	44690.19
618.45	44753.38
618.60	44402.30
618.75	44404.64
618.90	44144.84
619.06	44142.50
619.21	44516.99
619.36	45282.34
619.51	44788.49
619.67	44748.70
619.82	44542.74
619.97	45134.89
620.12	44781.47
620.28	44212.72
620.43	43983.35
620.58	44371.88
620.73	44435.07
620.89	44318.04
621.04	44463.16
621.19	44683.17
621.34	44662.10
621.49	44399.96
621.65	44308.68
621.80	44844.66
621.95	44182.29
622.10	44280.60
622.25	43915.47
622.41	44074.63
622.56	44236.12
622.71	44177.61
622.86	44123.78
623.01	44332.09
623.16	44177.61
623.32	44107.40
623.47	43646.31
623.62	44086.33
623.77	44002.07
623.92	43992.71
624.07	43824.19
624.23	43583.12
624.38	43569.07
624.53	43793.76
624.68	44076.97
624.83	43723.55
624.98	43597.16
625.13	43402.89
625.29	43122.03
625.44	43391.19
625.59	43210.97
625.74	43173.52
625.89	42784.99
626.04	43112.67
626.19	43515.24
626.34	43889.73
626.49	43908.45
626.65	43082.24
626.80	43503.54
626.95	43335.02
627.10	43208.63
627.25	43430.98
627.40	42831.80
627.55	43147.78
627.70	42887.98
627.85	43243.74
628.00	43161.82
628.15	43103.31
628.30	43093.94
628.45	43093.94
628.60	42948.83
628.76	43147.78
628.91	42600.09
629.06	42887.98
629.21	42646.90
629.36	42923.08
629.51	42604.77
629.66	42562.64
629.81	42906.70
629.96	42602.43
630.11	42866.91
630.26	42564.98
630.41	43042.45
630.56	42550.94
630.71	42618.81
630.86	42459.66
631.01	42440.93
631.16	42351.99
631.31	42171.77
631.46	41944.74
631.61	42286.46
631.76	42539.24
631.91	42174.11
632.06	42588.39
632.21	42562.64
632.36	42520.51
632.51	41986.87
632.66	41965.81
632.81	42010.28
632.96	42405.83
633.10	42234.97
633.25	42227.95
633.40	42213.90
633.55	42164.75
633.70	41991.55
633.85	42047.72
634.00	42040.70
634.15	41904.95
634.30	41752.82
634.45	41776.22
634.60	41631.11
634.75	42087.51
634.90	41914.31
635.05	41553.87
635.19	41645.15
635.34	41940.06
635.49	41837.08
635.64	41949.42
635.79	41263.64
635.94	41523.44
636.09	41972.83
636.24	41223.86
636.39	40844.69
636.53	41588.98
636.68	41429.82
636.83	41663.88
636.98	41581.96
637.13	41469.61
637.28	41752.82
637.43	41895.59
637.57	41736.43
637.72	41284.71
637.87	41497.70
638.02	41195.77
638.17	41586.64
638.32	41331.52
638.46	41116.19
638.61	41031.93
638.76	41305.77
638.91	41298.75
639.06	41003.85
639.20	41273.01
639.35	40980.44
639.50	41235.56
639.65	40765.11
639.80	41200.45
639.94	40877.46
640.09	41013.21
640.24	40825.96
640.39	40451.48
640.54	40587.23
640.68	40767.45
640.83	40484.25
640.98	40458.50
641.13	40285.30
641.27	40678.51
641.42	40713.62
641.57	40409.35
641.72	40545.10
641.86	40142.53
642.01	40201.04
642.16	40739.36
642.31	40201.04
642.45	40219.77
642.60	39894.43
642.75	40226.79
642.90	40306.37
643.04	40402.33
643.19	40133.17
643.34	39882.73
643.48	40229.13
643.63	39910.82
643.78	40009.12
643.93	40217.43
644.07	39681.44
644.22	40004.44
644.37	39597.18
644.51	40081.67
644.66	39889.75
644.81	39856.98
644.95	40451.48
645.10	39908.47
645.25	39894.43
645.39	40013.80
645.54	39669.74
645.69	39681.44
645.83	39749.32
645.98	39924.86
646.13	39594.84
646.27	39887.41
646.42	39793.79
646.57	39452.07
646.71	39735.27
646.86	40168.27
647.00	39445.05
647.15	39864.00
647.30	39531.65
647.44	39023.75
647.59	39318.66
647.74	39428.66
647.88	38988.64
648.03	39765.70
648.17	39414.62
648.32	39744.64
648.47	39260.15
648.61	38927.79
648.76	39023.75
648.90	39145.46
649.05	39229.72
649.20	39225.04
649.34	39182.91
649.49	39058.86
649.63	39236.74
649.78	39496.54
649.92	38998.01
650.07	39442.71
650.21	38749.91
650.36	39283.55
650.51	38937.15
650.65	39379.51
650.80	39360.79
650.94	39363.13
651.09	38902.04
651.23	38789.70
651.38	39203.97
651.52	38930.13
651.67	38618.84
651.81	38586.07
651.96	38501.81
652.10	38862.26
652.25	38808.42
652.39	38958.22
652.54	38955.88
652.68	38527.56
652.83	38499.47
652.97	38731.18
653.12	38756.93
653.26	38363.72
653.41	38440.96
653.55	38941.83
653.70	38122.65
653.84	38504.15
653.99	37743.48
654.13	38066.47
654.27	38026.68
654.42	37425.17
654.56	37518.79
654.71	38267.76
654.85	38387.13
655.00	38232.65
655.14	37876.89
655.29	37752.84
655.43	37993.92
655.57	37581.98
655.72	37563.26
655.86	37560.92
656.01	37488.36
656.15	37394.74
656.30	37287.07
656.44	37399.42
656.58	37537.51
656.73	37764.54
656.87	38019.66
657.01	37383.04
657.16	37563.26
657.30	37497.72
657.45	36776.84
657.59	37560.92
657.73	37771.57
657.88	37537.51
658.02	37479.00
658.16	37858.17
658.31	37794.97
658.45	37336.23
658.60	37345.59
658.74	37350.27
658.88	37429.85
659.03	37521.13
659.17	37301.12
659.31	36992.17
659.46	36945.36
659.60	36996.85
659.74	37277.71
659.89	36903.23
660.03	36655.13
660.17	37046.00
660.32	37010.89
660.46	37305.80
660.60	36610.66
660.74	36514.70
660.89	36814.29
661.03	36451.50
661.17	36072.34
661.32	36390.65
661.46	36311.07
661.60	36519.38
661.74	35955.31
661.89	36425.76
662.03	36390.65
662.17	36336.82
662.31	36362.56
662.46	36889.18
662.60	36465.55
662.74	35927.22
662.88	36027.87
663.03	36144.89
663.17	36046.59
663.31	35482.52
663.45	36187.02
663.60	35992.76
663.74	35440.39
663.88	35445.07
664.02	35536.35
664.17	35552.74
664.31	35431.03
664.45	35150.17
664.59	35505.93
664.73	35569.12
664.88	35442.73
665.02	34710.14
665.16	35229.74
665.30	35019.10
665.44	35299.96
665.59	34195.23
665.73	35119.74
665.87	35035.48
666.01	35122.08
666.15	35143.14
666.29	34944.20
666.44	34892.71
666.58	35063.57
666.72	34960.58
666.86	34455.03
667.00	34618.86
667.14	34045.43
667.28	34286.51
667.43	34464.39
667.57	34632.91
667.71	34448.00
667.85	34789.72
667.99	34284.17
668.13	34363.75
668.27	33874.57
668.41	34536.94
668.56	34043.09
668.70	33823.08
668.84	33748.18
668.98	33432.21
669.12	33757.55
669.26	33703.71
669.40	33792.65
669.54	33214.54
669.68	33958.83
669.82	33677.97
669.96	33495.41
670.10	33362.00
670.25	32945.38
670.39	33312.84
670.53	33191.14
670.67	33202.84
670.81	33291.78
670.95	32818.99
671.09	33287.10
671.23	32889.21
671.37	32687.92
671.51	32458.55
671.65	32601.32
671.79	32512.38
671.93	32727.71
672.07	32545.15
672.21	32540.47
672.35	32622.39
672.49	32669.20
672.63	32367.27
672.77	32556.85
672.91	32561.53
673.05	31957.67
673.19	31735.32
673.33	31995.12
673.47	31421.69
673.61	31512.97
673.75	31789.16
673.89	31260.20
674.03	31386.58
674.17	31964.70
674.31	31400.63
674.45	31501.27
674.59	31342.11
674.73	31314.03
674.87	31648.72
675.01	31065.93
675.15	31281.26
675.29	30838.90
675.43	31136.15
675.56	30991.03
675.70	30967.63
675.84	30808.47
675.98	29993.97
676.12	30485.48
676.26	30897.41
676.40	30412.92
676.54	30546.33
676.68	30740.60
676.82	29905.02
676.96	29876.94
677.10	30022.05
677.23	29748.21
677.37	29795.02
677.51	29865.24
677.65	29584.37
677.79	29357.34
677.93	29235.63
678.07	28931.36
678.21	28943.06
678.34	29039.03
678.48	29003.92
678.62	29057.75
678.76	28374.31
678.90	28793.27
679.04	28638.80
679.18	29027.32
679.31	28512.41
679.45	28189.41
679.59	27913.23
679.73	28116.86
679.87	28039.62
680.00	27976.42
680.14	28184.73
680.28	28245.58
680.42	27735.35
680.56	27985.79
680.70	27978.76
680.83	27976.42
680.97	27800.88
681.11	27466.19
681.25	27260.22
681.39	27590.24
681.52	27644.07
681.66	27185.32
681.80	26859.99
681.94	26941.91
682.07	26806.16
682.21	26728.92
682.35	26799.13
682.49	26504.23
682.62	26478.48
682.76	26520.61
682.90	26333.37
683.04	26089.95
683.17	26389.54
683.31	26075.91
683.45	25785.68
683.59	25535.24
683.72	25645.25
683.86	25844.20
684.00	25972.92
684.13	25645.25
684.27	25333.96
684.41	25495.46
684.55	24975.86
684.68	25413.54
684.82	25048.41
684.96	24980.54
685.09	25252.04
685.23	24666.91
685.37	24971.18
685.50	24711.38
685.64	24587.33
685.78	24329.87
685.91	24334.55
686.05	24037.30
686.19	24318.17
686.32	24217.52
686.46	23522.38
686.60	23288.33
686.73	23534.09
686.87	23506.00
687.01	23253.22
687.14	23222.80
687.28	22974.70
687.42	23171.30
687.55	23143.22
687.69	23201.73
687.82	23201.73
687.96	23140.88
688.10	22955.97
688.23	22607.23
688.37	22628.30
688.50	22300.62
688.64	22611.92
688.78	22530.00
688.91	22455.10
689.05	22522.98
689.18	22401.27
689.32	21858.26
689.46	22092.32
689.59	22504.25
689.73	22153.17
689.86	21820.81
690.00	21998.70
690.13	21902.73
690.27	21783.37
690.41	21727.19
690.54	21357.39
690.68	21312.92
690.81	21256.75
690.95	21427.60
691.08	21329.30
691.22	21221.64
691.35	21013.33
691.49	21170.15
691.62	20999.29
691.76	20922.05
691.89	21071.84
692.03	21123.33
692.16	20505.43
692.30	20601.40
692.43	20486.71
692.57	20458.62
692.70	20372.02
692.84	20016.26
692.97	20044.35
693.11	19985.83
693.24	19927.32
693.38	19690.93
693.51	19864.13
693.65	20011.58
693.78	19470.92
693.92	19899.23
694.05	19424.11
694.19	19150.26
694.32	19503.68
694.45	19358.57
694.59	19138.56
694.72	19239.20
694.86	18951.32
694.99	18618.96
695.13	18860.04
695.26	18658.75
695.39	18640.03
695.53	18822.59
695.66	18684.50
695.80	18654.07
695.93	18593.22
696.07	18787.48
696.20	18270.22
696.33	18546.40
696.47	18473.85
696.60	18108.72
696.73	17818.50
696.87	17759.98
697.00	17418.27
697.14	17547.00
697.27	17902.76
697.40	17444.01
697.54	17666.36
697.67	17504.87
697.80	17177.19
697.94	17090.59
698.07	16994.63
698.21	16912.71
698.34	17114.00
698.47	17233.36
698.61	16865.90
698.74	16891.65
698.87	16606.10
699.01	16517.16
699.14	16524.18
699.27	16294.81
699.40	16498.44
699.54	16783.98
699.67	16201.19
699.80	16039.69
699.94	16152.04
700.07	16243.32
700.20	16350.98
700.34	15819.68
700.47	16231.62
700.60	16306.51
700.73	16065.44
700.87	15885.22
701.00	15775.21
701.13	15672.23
701.26	15861.81
701.40	15728.40
701.53	15171.35
701.66	15393.70
701.79	15143.27
701.93	15110.50
702.06	14897.51
702.19	14778.14
702.32	14728.99
702.46	14885.81
702.59	14801.55
702.72	15021.56
702.85	14602.60
702.99	14839.00
703.12	14572.18
703.25	14375.57
703.38	14473.87
703.51	14326.42
703.65	14504.30
703.78	14310.04
703.91	13968.32
704.04	14338.12
704.17	13970.66
704.31	14019.81
704.44	13888.74
704.57	13701.50
704.70	13774.05
704.83	13497.87
704.96	13942.57
705.10	13540.00
705.23	13678.09
>>>>>End Processed Spectral Data<<<<<
