SpectraSuite Data File
++++++++++++++++++++++++++++++++++++
Date: Fri Oct 25 10:47:37 EDT 2013
User: price-jones
Dark Spectrum Present: No
Reference Spectrum Present: No
Number of Sampled Component Spectra: 1
Spectrometers: USB2+H05261
Integration Time (usec): 100000 (USB2+H05261)
Spectra Averaged: 1 (USB2+H05261)
Boxcar Smoothing: 0 (USB2+H05261)
Correct for Electrical Dark: No (USB2+H05261)
Strobe/Lamp Enabled: No (USB2+H05261)
Correct for Detector Non-linearity: No (USB2+H05261)
Correct for Stray Light: No (USB2+H05261)
Number of Pixels in Processed Spectrum: 2048
>>>>>Begin Processed Spectral Data<<<<<
365.73	142.77
365.92	142.77
366.12	142.77
366.32	121.71
366.52	60.85
366.72	30.43
366.91	14.04
367.11	63.19
367.31	23.41
367.51	58.51
367.70	9.36
367.90	93.62
368.10	35.11
368.30	56.17
368.49	117.03
368.69	60.85
368.89	21.06
369.09	84.26
369.28	56.17
369.48	63.19
369.68	79.58
369.87	42.13
370.07	98.30
370.27	95.96
370.47	177.88
370.66	397.89
370.86	407.25
371.06	425.98
371.25	479.81
371.45	477.47
371.65	524.28
371.84	407.25
372.04	381.51
372.24	468.11
372.44	388.53
372.63	486.83
372.83	500.87
373.03	568.75
373.22	484.49
373.42	512.58
373.62	533.64
373.81	547.69
374.01	594.50
374.21	507.90
374.40	599.18
374.60	596.84
374.79	496.19
374.99	543.00
375.19	486.83
375.38	540.66
375.58	545.34
375.78	634.29
375.97	594.50
376.17	552.37
376.37	573.43
376.56	566.41
376.76	561.73
376.95	475.13
377.15	613.22
377.35	615.56
377.54	608.54
377.74	587.47
377.93	657.69
378.13	657.69
378.33	521.94
378.52	650.67
378.72	582.79
378.91	674.07
379.11	550.03
379.31	622.58
379.50	585.13
379.70	653.01
379.89	664.71
380.09	709.18
380.28	615.56
380.48	629.60
380.68	660.03
380.87	664.71
381.07	664.71
381.26	699.82
381.46	655.35
381.65	690.46
381.85	645.99
382.04	737.27
382.24	645.99
382.43	594.50
382.63	674.07
382.83	594.50
383.02	636.63
383.22	730.25
383.41	690.46
383.61	704.50
383.80	713.86
384.00	741.95
384.19	784.08
384.39	732.59
384.58	791.10
384.78	704.50
384.97	805.14
385.17	702.16
385.36	711.52
385.56	800.46
385.75	753.65
385.95	755.99
386.14	826.21
386.34	800.46
386.53	798.12
386.72	772.38
386.92	851.96
387.11	847.27
387.31	915.15
387.50	866.00
387.70	800.46
387.89	910.47
388.09	812.17
388.28	784.08
388.48	844.93
388.67	875.36
388.86	805.14
389.06	866.00
389.25	847.27
389.45	856.64
389.64	868.34
389.84	947.92
390.03	936.21
390.22	912.81
390.42	952.60
390.61	922.17
390.81	917.49
391.00	983.02
391.19	1034.52
391.39	940.90
391.58	968.98
391.78	1001.75
391.97	1013.45
392.16	938.55
392.36	980.68
392.55	987.71
392.75	990.05
392.94	1057.92
393.13	999.41
393.33	968.98
393.52	961.96
393.71	990.05
393.91	978.34
394.10	1025.15
394.29	1006.43
394.49	1027.50
394.68	1086.01
394.88	1071.97
395.07	1165.59
395.26	1083.67
395.46	1167.93
395.65	1104.73
395.84	1128.14
396.04	1146.86
396.23	1104.73
396.42	1198.35
396.62	1240.48
396.81	1219.42
397.00	1163.25
397.19	1186.65
397.39	1153.88
397.58	1284.95
397.77	1263.89
397.97	1310.70
398.16	1254.53
398.35	1373.89
398.55	1427.73
398.74	1411.34
398.93	1423.05
399.12	1420.71
399.32	1266.23
399.51	1352.83
399.70	1406.66
399.90	1432.41
400.09	1514.33
400.28	1411.34
400.47	1495.60
400.67	1582.20
400.86	1483.90
401.05	1490.92
401.24	1455.81
401.44	1455.81
401.63	1467.52
401.82	1526.03
402.01	1540.07
402.21	1502.62
402.40	1617.31
402.59	1514.33
402.78	1533.05
402.97	1603.27
403.17	1614.97
403.36	1607.95
403.55	1689.87
403.74	1722.63
403.93	1732.00
404.13	1647.74
404.32	1715.61
404.51	1703.91
404.70	1696.89
404.89	1661.78
405.09	1802.21
405.28	1680.50
405.47	1710.93
405.66	1816.26
405.85	1792.85
406.05	1757.74
406.24	1769.44
406.43	1832.64
406.62	1799.87
406.81	1813.92
407.00	1825.62
407.20	1849.02
407.39	1914.56
407.58	1975.41
407.77	1956.69
407.96	2008.18
408.15	1952.01
408.34	1975.41
408.54	2073.71
408.73	2024.56
408.92	1984.77
409.11	2092.44
409.30	2066.69
409.49	2062.01
409.68	2118.18
409.87	2033.93
410.07	2183.72
410.26	2155.63
410.45	2270.32
410.64	2162.66
410.83	2228.19
411.02	2258.62
411.21	2270.32
411.40	2275.00
411.59	2300.75
411.78	2244.57
411.98	2263.30
412.17	2328.83
412.36	2338.20
412.55	2518.42
412.74	2368.62
412.93	2424.80
413.12	2525.44
413.31	2551.18
413.50	2605.02
413.69	2565.23
413.88	2534.80
414.07	2609.70
414.26	2619.06
414.45	2644.81
414.64	2658.85
414.83	2745.45
415.02	2773.53
415.22	2806.30
415.41	2897.58
415.60	2820.35
415.79	2843.75
415.98	2911.63
416.17	2904.60
416.36	2925.67
416.55	2895.24
416.74	2902.26
416.93	2864.82
417.12	3054.40
417.31	3049.72
417.50	3047.38
417.69	3124.62
417.88	3126.96
418.07	3119.93
418.26	3012.27
418.45	3185.47
418.64	3349.31
418.83	3309.52
419.02	3197.17
419.21	3183.13
419.39	3211.22
419.58	3227.60
419.77	3274.41
419.96	3337.60
420.15	3365.69
420.34	3377.39
420.53	3325.90
420.72	3478.04
420.91	3412.50
421.10	3363.35
421.29	3475.70
421.48	3503.78
421.67	3454.63
421.86	3403.14
422.05	3515.48
422.24	3459.31
422.43	3438.25
422.61	3503.78
422.80	3520.17
422.99	3536.55
423.18	3487.40
423.37	3681.66
423.56	3583.36
423.75	3632.51
423.94	3541.23
424.13	3396.12
424.32	3417.18
424.50	3581.02
424.69	3616.13
424.88	3639.53
425.07	3531.87
425.26	3597.40
425.45	3728.47
425.64	3679.32
425.83	3566.98
426.01	3744.86
426.20	3740.18
426.39	3688.68
426.58	3637.19
426.77	3634.85
426.96	3634.85
427.15	3641.87
427.33	3960.19
427.52	3592.72
427.71	3637.19
427.90	3784.65
428.09	3819.75
428.28	3831.46
428.46	3932.10
428.65	3859.54
428.84	3974.23
429.03	3946.14
429.22	3751.88
429.40	3817.41
429.59	3796.35
429.78	3693.37
429.97	3728.47
430.16	3688.68
430.34	3838.48
430.53	4004.66
430.72	3843.16
430.91	3871.25
431.10	4025.72
431.28	4159.13
431.47	4201.26
431.66	4248.07
431.85	4248.07
432.03	4236.37
432.22	4402.55
432.41	4201.26
432.60	4308.93
432.79	4306.59
432.97	4273.82
433.16	4367.44
433.35	4266.80
433.54	4322.97
433.72	4248.07
433.91	4341.69
434.10	4358.08
434.28	4301.90
434.47	4414.25
434.66	4634.26
434.85	4528.94
435.03	4610.86
435.22	4592.13
435.41	4528.94
435.59	4458.72
435.78	4596.81
435.97	4767.67
436.16	4723.20
436.34	4655.33
436.53	4638.94
436.72	4755.97
436.90	4758.31
437.09	4891.72
437.28	4753.63
437.46	4765.33
437.65	4622.56
437.84	4840.23
438.02	4807.46
438.21	4968.96
438.40	4870.65
438.58	4875.34
438.77	5076.62
438.96	4919.81
439.14	5144.50
439.33	5270.89
439.52	5118.75
439.70	5095.35
439.89	5207.69
440.08	5289.61
440.26	5430.04
440.45	5233.44
440.63	5334.08
440.82	5481.53
441.01	5408.98
441.19	5486.22
441.38	5446.43
441.57	5500.26
441.75	5558.77
441.94	5617.29
442.12	5771.76
442.31	5699.20
442.50	5778.78
442.68	5518.98
442.87	5628.99
443.05	5713.25
443.24	5846.66
443.43	5858.36
443.61	5900.49
443.80	6029.22
443.98	5654.73
444.17	5689.84
444.35	5909.85
444.54	6026.88
444.73	5863.04
444.91	6052.63
445.10	5802.19
445.28	6043.26
445.47	5905.17
445.65	5837.30
445.84	5797.51
446.02	6010.50
446.21	5935.60
446.39	5947.30
446.58	6148.59
446.77	6085.39
446.95	5914.53
447.14	6073.69
447.32	6050.28
447.51	6122.84
447.69	6054.97
447.88	6150.93
448.06	6141.57
448.25	6296.04
448.43	6237.53
448.62	6069.01
448.80	5980.07
448.99	6305.40
449.17	6232.85
449.36	6270.30
449.54	6333.49
449.73	6370.94
449.91	6525.41
450.10	6410.73
450.28	6499.67
450.46	6621.38
450.65	6579.25
450.83	6544.14
451.02	6544.14
451.20	6567.54
451.39	6747.76
451.57	6572.22
451.76	6544.14
451.94	6633.08
452.13	6494.99
452.31	6637.76
452.49	6576.91
452.68	6647.12
452.86	6548.82
453.05	6616.69
453.23	6736.06
453.42	6677.55
453.60	6630.74
453.78	6705.63
453.97	6722.02
454.15	6764.15
454.34	6656.48
454.52	6871.81
454.70	6986.50
454.89	6963.09
455.07	6890.54
455.26	7117.57
455.44	7035.65
455.62	6977.14
455.81	6927.99
455.99	6927.99
456.17	7351.62
456.36	7288.43
456.54	7239.28
456.73	7274.38
456.91	7529.50
457.09	7508.44
457.28	7742.49
457.46	7470.99
457.64	7344.60
457.83	7258.00
458.01	7431.20
458.19	7412.48
458.38	7325.88
458.56	7611.42
458.74	7616.10
458.93	7581.00
459.11	7550.57
459.29	7616.10
459.48	7728.45
459.66	7609.08
459.84	7515.46
460.03	7709.72
460.21	7793.98
460.39	7817.39
460.57	7836.11
460.76	7695.68
460.94	7791.64
461.12	7896.97
461.31	7976.55
461.49	8037.40
461.67	7861.86
461.85	8142.72
462.04	8095.91
462.22	8531.25
462.40	7995.27
462.59	8016.33
462.77	8210.60
462.95	8077.19
463.13	7955.48
463.32	7943.78
463.50	8287.84
463.68	8329.97
463.86	8304.22
464.05	8182.51
464.23	8131.02
464.41	8491.46
464.59	8013.99
464.78	8559.34
464.96	8283.16
465.14	8201.24
465.32	8376.78
465.50	8439.97
465.69	8610.83
465.87	8278.47
466.05	8402.52
466.23	8482.10
466.41	8381.46
466.60	8809.78
466.78	8376.78
466.96	8458.70
467.14	8496.14
467.32	8580.40
467.51	8734.88
467.69	8533.59
467.87	8571.04
468.05	8643.60
468.23	8671.68
468.41	8713.81
468.60	8629.56
468.78	8800.41
468.96	8795.73
469.14	8755.94
469.32	9104.68
469.50	8683.39
469.69	8945.53
469.87	8982.98
470.05	9020.42
470.23	9029.79
470.41	9179.58
470.59	9207.67
470.77	8992.34
470.95	9090.64
471.14	9392.57
471.32	9043.83
471.50	9364.48
471.68	9441.72
471.86	9418.32
472.04	9500.23
472.22	9863.02
472.40	9359.80
472.58	9453.42
472.77	9518.96
472.95	9820.89
473.13	10001.11
473.31	9774.08
473.49	9750.67
473.67	9790.46
473.85	10073.67
474.03	10099.41
474.21	9949.62
474.39	10040.90
474.57	10106.43
474.75	10422.41
474.93	10356.87
475.12	10263.25
475.30	10651.78
475.48	10457.51
475.66	10214.10
475.84	10246.87
476.02	10513.69
476.20	10544.11
476.38	10635.39
476.56	10888.17
476.74	10855.40
476.92	10960.73
477.10	10953.71
477.28	11206.48
477.46	11073.07
477.64	11176.06
477.82	11456.92
478.00	11728.42
478.18	11403.09
478.36	11524.80
478.54	11824.39
478.72	11915.67
478.90	11501.39
479.08	12128.66
479.26	12222.28
479.44	12013.97
479.62	12226.96
479.80	11997.59
479.98	12156.74
480.16	12358.03
480.34	12327.60
480.52	12795.71
480.70	12549.95
480.88	12437.61
481.06	12575.70
481.24	12674.00
481.41	12851.88
481.59	13439.36
481.77	13266.16
481.95	13350.42
482.13	13561.06
482.31	13338.71
482.49	13816.18
482.67	13930.87
482.85	13727.24
483.03	13834.91
483.21	14310.04
483.39	14099.39
483.57	14185.99
483.74	14064.28
483.92	14415.36
484.10	14300.67
484.28	14775.80
484.46	14916.23
484.64	15318.81
484.82	14906.87
485.00	15201.78
485.18	15169.01
485.35	15407.75
485.53	15042.62
485.71	15353.91
485.89	15377.32
486.07	15337.53
486.25	15665.21
486.43	15899.26
486.61	16133.31
486.78	16119.27
486.96	16027.99
487.14	16465.67
487.32	16325.24
487.50	16842.50
487.68	16901.01
487.85	16978.25
488.03	16940.80
488.21	17415.93
488.39	17263.79
488.57	17254.43
488.75	17420.61
488.92	17649.98
489.10	17678.07
489.28	17984.68
489.46	18647.05
489.64	18050.21
489.81	18705.56
489.99	18637.69
490.17	18855.36
490.35	18883.44
490.53	18918.55
490.70	18977.06
490.88	19007.49
491.06	19325.80
491.24	19063.66
491.41	19297.72
491.59	19473.26
491.77	19426.45
491.95	19674.54
492.13	19997.54
492.30	20229.25
492.48	20184.78
492.66	20262.02
492.84	20400.11
493.01	20776.94
493.19	20608.42
493.37	20769.91
493.54	20800.34
493.72	21053.12
493.90	20875.24
494.08	21069.50
494.25	21378.45
494.43	21317.60
494.61	21525.91
494.79	21638.25
494.96	21514.20
495.14	21757.62
495.32	21853.58
495.49	22312.33
495.67	22108.70
495.85	22471.48
496.02	22558.08
496.20	22515.95
496.38	22668.09
496.55	22918.53
496.73	23178.33
496.91	23248.54
497.09	23056.62
497.26	23363.23
497.44	23697.92
497.62	23311.74
497.79	23686.22
497.97	23545.79
498.14	23824.31
498.32	23934.32
498.50	24060.71
498.67	24161.35
498.85	24121.56
499.03	24577.97
499.20	24379.02
499.38	24570.94
499.56	24844.79
499.73	25062.46
499.91	24964.15
500.08	24725.42
500.26	24896.28
500.44	24961.81
500.61	24947.77
500.79	24931.39
500.97	24917.34
501.14	25647.59
501.32	25366.73
501.49	25537.59
501.67	25317.57
501.84	26015.05
502.02	25692.06
502.20	25572.69
502.37	26089.95
502.55	25905.05
502.72	26246.77
502.90	26235.06
503.07	26314.64
503.25	26328.69
503.43	26869.35
503.60	26810.84
503.78	26672.74
503.95	26483.16
504.13	26871.69
504.30	26780.41
504.48	26679.77
504.65	26927.86
504.83	26864.67
505.01	27274.26
505.18	27491.93
505.36	27522.36
505.53	27747.05
505.71	27814.93
505.88	27854.72
506.06	27557.47
506.23	27615.98
506.41	27611.30
506.58	27515.34
506.76	28133.24
506.93	28404.74
507.11	28400.06
507.28	28191.75
507.46	28189.41
507.63	27843.01
507.81	28781.57
507.98	28056.00
508.16	28652.84
508.33	28727.74
508.50	28666.88
508.68	28606.03
508.85	29472.03
509.03	29450.96
509.20	28898.59
509.38	29275.42
509.55	29600.76
509.73	29495.43
509.90	29364.36
510.08	29465.00
510.25	29378.40
510.42	30015.03
510.60	30045.46
510.77	29586.71
510.95	30153.12
511.12	29804.38
511.30	29937.79
511.47	30661.02
511.64	30326.32
511.82	30368.45
511.99	30295.89
512.17	30555.69
512.34	30749.96
512.51	30560.37
512.69	30450.37
512.86	30675.06
513.04	31136.15
513.21	31299.98
513.38	31145.51
513.56	31323.39
513.73	30953.58
513.90	30923.16
514.08	30953.58
514.25	31215.72
514.43	31417.01
514.60	31353.82
514.77	31463.82
514.95	31573.83
515.12	31630.00
515.29	31770.43
515.47	31805.54
515.64	32016.19
515.81	32002.14
515.99	32121.51
516.16	32135.56
516.33	31742.35
516.51	32198.75
516.68	31662.77
516.85	31896.82
517.03	32002.14
517.20	32327.48
517.37	32449.19
517.54	32561.53
517.72	32409.40
517.89	32458.55
518.06	32184.71
518.24	32313.44
518.41	32297.05
518.58	32395.35
518.75	32575.58
518.93	33039.00
519.10	32891.55
519.27	33088.15
519.45	33275.40
519.62	33113.90
519.79	33659.24
519.96	33921.38
520.14	33806.70
520.31	33867.55
520.48	33846.49
520.65	33628.82
520.83	34588.44
521.00	33371.36
521.17	33771.59
521.34	34225.65
521.52	34419.92
521.69	34553.33
521.86	34550.99
522.03	34483.11
522.20	34394.17
522.38	34459.71
522.55	34801.43
522.72	34532.26
522.89	34614.18
523.07	34548.65
523.24	34417.58
523.41	34714.83
523.58	34869.30
523.75	35192.30
523.92	35295.28
524.10	34939.52
524.27	35622.95
524.44	35505.93
524.61	35283.58
524.78	35459.12
524.96	35555.08
525.13	35606.57
525.30	35957.65
525.47	36252.56
525.64	35674.45
525.81	35927.22
525.98	35765.73
526.16	35421.67
526.33	35723.60
526.50	35948.29
526.67	35583.16
526.84	35618.27
527.01	35601.89
527.18	35915.52
527.36	36140.21
527.53	36208.09
527.70	36142.55
527.87	36666.83
528.04	36334.48
528.21	36261.92
528.38	36425.76
528.55	36617.68
528.72	36563.85
528.89	37095.15
529.07	37200.47
529.24	37097.49
529.41	37207.50
529.58	37083.45
529.75	37029.62
529.92	37069.40
530.09	37219.20
530.26	37352.61
530.43	37116.22
530.60	36648.11
530.77	37481.34
530.94	37488.36
531.11	37200.47
531.28	37951.79
531.46	37425.17
531.63	37560.92
531.80	37408.78
531.97	37167.71
532.14	37867.53
532.31	37699.01
532.48	37830.08
532.65	37940.08
532.82	37832.42
532.99	37979.87
533.16	37813.70
533.33	38052.43
533.50	38139.03
533.67	38246.69
533.84	38223.29
534.01	38181.16
534.18	38057.11
534.35	38705.44
534.52	38099.24
534.69	38433.94
534.86	38375.42
535.03	38534.58
535.20	38775.66
535.37	38967.58
535.54	38862.26
535.71	38504.15
535.88	38876.30
536.05	38691.40
536.22	39206.31
536.38	39002.69
536.55	38883.32
536.72	39002.69
536.89	38595.43
537.06	39131.42
537.23	39056.52
537.40	39426.32
537.57	39356.11
537.74	39578.46
537.91	39995.07
538.08	38937.15
538.25	39580.80
538.42	39367.81
538.59	39332.70
538.75	39414.62
538.92	39737.62
539.09	39477.82
539.26	39498.88
539.43	39615.91
539.60	39665.06
539.77	39480.16
539.94	39653.36
540.11	39658.04
540.28	39763.36
540.44	39997.41
540.61	39959.97
540.78	40203.38
540.95	39789.11
541.12	39878.05
541.29	39585.48
541.46	39576.12
541.62	40371.90
541.79	40568.51
541.96	39550.37
542.13	40334.45
542.30	40439.78
542.47	40320.41
542.63	40261.90
542.80	40320.41
542.97	40844.69
543.14	41057.68
543.31	40587.23
543.48	41240.24
543.64	41471.95
543.81	41242.58
543.98	40610.64
544.15	40905.54
544.32	41127.89
544.48	41022.57
544.65	41137.26
544.82	41020.23
544.99	40849.37
545.16	41507.06
545.32	41010.87
545.49	41368.97
545.66	41383.01
545.83	41151.30
546.00	41062.36
546.16	41572.60
546.33	41425.14
546.50	41209.81
546.67	41635.79
546.83	40910.22
547.00	41258.96
547.17	41766.86
547.34	41380.67
547.50	41439.18
547.67	41736.43
547.84	41827.71
548.00	41649.83
548.17	42192.84
548.34	41722.39
548.51	42120.28
548.67	42146.03
548.84	42085.17
549.01	41942.40
549.18	42087.51
549.34	41972.83
549.51	41998.57
549.68	42167.09
549.84	42408.17
550.01	42621.16
550.18	41813.67
550.34	42197.52
550.51	42267.73
550.68	42246.67
550.84	41792.61
551.01	42635.20
551.18	42377.74
551.34	42277.10
551.51	42532.22
551.68	42279.44
551.84	42684.35
552.01	42497.11
552.18	42567.32
552.34	42368.38
552.51	42674.99
552.68	42801.38
552.84	42244.33
553.01	42557.96
553.18	42518.17
553.34	42719.46
553.51	42471.36
553.67	42857.55
553.84	43140.75
554.01	43023.73
554.17	43077.56
554.34	43035.43
554.51	42911.38
554.67	43051.81
554.84	43192.25
555.00	42672.65
555.17	43480.13
555.33	43065.86
555.50	43187.56
555.67	43129.05
555.83	43309.27
556.00	42960.53
556.16	43859.30
556.33	43407.58
556.50	43564.39
556.66	43267.14
556.83	43103.31
556.99	43105.65
557.16	43821.85
557.32	43229.69
557.49	43428.64
557.65	43136.07
557.82	43133.73
557.98	43885.04
558.15	43393.53
558.32	43725.89
558.48	43583.12
558.65	43875.68
558.81	43524.60
558.98	43281.19
559.14	43950.58
559.31	43779.72
559.47	43840.57
559.64	43950.58
559.80	44226.76
559.97	43709.50
560.13	43959.94
560.30	43559.71
560.46	43643.97
560.63	44112.08
560.79	44175.27
560.96	44278.25
561.12	43796.10
561.29	44109.74
561.45	44540.39
561.61	43892.07
561.78	44123.78
561.94	43803.13
562.11	44041.86
562.27	43768.02
562.44	43894.41
562.60	44292.30
562.77	44285.28
562.93	44229.10
563.10	44240.81
563.26	43756.32
563.42	44102.71
563.59	44275.91
563.75	44098.03
563.92	44533.37
564.08	44243.15
564.24	44528.69
564.41	44266.55
564.57	44102.71
564.74	44671.46
564.90	44491.24
565.07	44226.76
565.23	43915.47
565.39	43924.83
565.56	44306.34
565.72	44486.56
565.88	43948.24
566.05	44196.34
566.21	44502.95
566.38	44011.43
566.54	44428.05
566.70	44676.15
566.87	44591.89
567.03	44390.60
567.19	44610.61
567.36	45074.04
567.52	43826.53
567.68	44444.43
567.85	44201.02
568.01	44556.78
568.17	44486.56
568.34	44692.53
568.50	44706.57
568.66	44367.20
568.83	44217.40
568.99	44041.86
569.15	44250.17
569.32	44264.21
569.48	43943.56
569.64	44662.10
569.81	44355.49
569.97	44509.97
570.13	44486.56
570.30	44240.81
570.46	44683.17
570.62	44390.60
570.78	44444.43
570.95	44507.63
571.11	44561.46
571.27	44203.36
571.43	45099.78
571.60	45059.99
571.76	44664.44
571.92	44437.41
572.09	44519.33
572.25	44547.42
572.41	44519.33
572.57	44516.99
572.74	44940.63
572.90	45001.48
573.06	44444.43
573.22	44729.98
573.38	44699.55
573.55	44006.75
573.71	44577.84
573.87	44533.37
574.03	44591.89
574.20	44706.57
574.36	44542.74
574.52	44779.13
574.68	44186.97
574.84	45067.02
575.01	44528.69
575.17	44966.37
575.33	44601.25
575.49	44687.85
575.65	44856.37
575.82	45132.55
575.98	44910.20
576.14	45069.36
576.30	45029.57
576.46	44713.59
576.62	44694.87
576.79	44802.53
576.95	44500.61
577.11	44697.21
577.27	44945.31
577.43	44884.45
577.59	44844.66
577.75	44816.58
577.92	44381.24
578.08	44643.38
578.24	44509.97
578.40	44793.17
578.56	44856.37
578.72	44879.77
578.88	45167.66
579.04	45155.96
579.21	44982.76
579.37	44657.42
579.53	44542.74
579.69	44589.55
579.85	44882.11
580.01	44739.34
580.17	44858.71
580.33	45228.51
580.49	44650.40
580.65	45097.44
580.82	45172.34
580.98	44987.44
581.14	45017.86
581.30	45221.49
581.46	45059.99
581.62	44854.03
581.78	44678.49
581.94	44898.50
582.10	44832.96
582.26	45347.88
582.42	45050.63
582.58	44940.63
582.74	44765.09
582.90	45092.76
583.06	44982.76
583.22	44914.88
583.38	45476.61
583.54	45052.97
583.70	44975.73
583.86	45237.87
584.02	44699.55
584.18	45186.38
584.34	45134.89
584.50	44795.51
584.66	45221.49
584.82	44610.61
584.98	45174.68
585.14	45104.46
585.30	44615.29
585.46	44577.84
585.62	45031.91
585.78	44949.99
585.94	44538.05
586.10	44917.22
586.26	44795.51
586.42	44996.80
586.58	44814.24
586.74	45118.51
586.90	45165.32
587.06	44917.22
587.22	44765.09
587.38	45179.36
587.54	45460.23
587.70	45387.67
587.86	44949.99
588.02	44762.75
588.18	45282.34
588.34	45118.51
588.49	44842.32
588.65	44809.56
588.81	44811.90
588.97	44952.33
589.13	44683.17
589.29	44786.15
589.45	44793.17
589.61	45305.75
589.77	45567.89
589.93	45366.60
590.08	45338.52
590.24	45003.82
590.40	45270.64
590.56	45397.03
590.72	45179.36
590.88	45263.62
591.04	45088.08
591.20	45617.04
591.35	45338.52
591.51	45661.51
591.67	45071.70
591.83	45258.94
591.99	44781.47
592.15	45071.70
592.31	45380.65
592.46	45359.58
592.62	44863.39
592.78	45153.62
592.94	45455.54
593.10	45401.71
593.26	45354.90
593.41	44858.71
593.57	45237.87
593.73	45031.91
593.89	45322.13
594.05	45317.45
594.20	45258.94
594.36	45429.80
594.52	45595.98
594.68	45593.64
594.84	44999.14
594.99	45647.47
595.15	45132.55
595.31	45684.92
595.47	45305.75
595.62	45537.46
595.78	45626.40
595.94	45785.56
596.10	45598.32
596.25	45558.53
596.41	45378.31
596.57	45301.07
596.73	45345.54
596.88	45436.82
597.04	45174.68
597.20	45581.93
597.36	45420.44
597.51	45684.92
597.67	45422.78
597.83	45595.98
597.99	45862.80
598.14	45457.88
598.30	45572.57
598.46	45343.20
598.61	45752.79
598.77	45174.68
598.93	45214.47
599.09	45102.12
599.24	45490.65
599.40	45565.55
599.56	45883.86
599.71	45368.94
599.87	45743.43
600.03	45317.45
600.18	45083.40
600.34	45462.57
600.50	45567.89
600.65	45303.41
600.81	45474.27
600.97	45834.71
601.12	45813.65
601.28	45563.21
601.44	45382.99
601.59	45535.12
601.75	45272.98
601.91	45296.39
602.06	45329.16
602.22	45064.67
602.37	45226.17
602.53	45471.93
602.69	45347.88
602.84	45488.31
603.00	45577.25
603.16	45200.43
603.31	45141.91
603.47	45563.21
603.62	45022.54
603.78	45549.17
603.94	45338.52
604.09	45256.60
604.25	45453.20
604.40	45167.66
604.56	45387.67
604.71	45422.78
604.87	45455.54
605.03	45593.64
605.18	45125.53
605.34	45354.90
605.49	44994.46
605.65	45631.08
605.80	45443.84
605.96	45050.63
606.12	45476.61
606.27	45675.55
606.43	45324.47
606.58	45586.61
606.74	45099.78
606.89	45404.05
607.05	44907.86
607.20	45116.17
607.36	45179.36
607.51	45638.11
607.67	44893.82
607.82	45294.05
607.98	45277.66
608.13	45006.16
608.29	45095.10
608.44	44931.26
608.60	44619.97
608.75	44641.04
608.91	44622.31
609.06	44868.07
609.22	45270.64
609.37	44919.56
609.53	45036.59
609.68	44811.90
609.84	44952.33
609.99	45228.51
610.15	45322.13
610.30	44790.83
610.46	44182.29
610.61	44516.99
610.76	44982.76
610.92	44926.58
611.07	44561.46
611.23	44339.11
611.38	44722.96
611.54	44205.70
611.69	44999.14
611.84	44573.16
612.00	44694.87
612.15	44629.34
612.31	44973.39
612.46	44657.42
612.62	44701.89
612.77	44851.69
612.92	45078.72
613.08	44460.82
613.23	44701.89
613.39	44086.33
613.54	43674.40
613.69	44051.22
613.85	44268.89
614.00	44582.52
614.15	44715.93
614.31	44844.66
614.46	44816.58
614.62	44519.33
614.77	43863.98
614.92	44069.95
615.08	44488.90
615.23	44556.78
615.38	44013.77
615.54	43889.73
615.69	44313.36
615.84	43714.19
616.00	44020.80
616.15	44189.31
616.30	44327.41
616.46	43704.82
616.61	44048.88
616.76	44060.58
616.92	43777.38
617.07	43856.96
617.22	43871.00
617.37	43985.69
617.53	44154.21
617.68	44154.21
617.83	43917.81
617.99	44142.50
618.14	44093.35
618.29	43718.87
618.45	43529.28
618.60	43882.70
618.75	44027.82
618.90	43971.64
619.06	43828.87
619.21	43819.51
619.36	44280.60
619.51	43690.78
619.67	43599.50
619.82	44140.16
619.97	43854.62
620.12	43147.78
620.28	43487.15
620.43	43690.78
620.58	43564.39
620.73	43356.08
620.89	43412.26
621.04	43700.14
621.19	43283.53
621.34	43473.11
621.49	43225.01
621.65	43061.18
621.80	43690.78
621.95	43349.06
622.10	43203.95
622.25	43079.90
622.41	43201.61
622.56	43037.77
622.71	43009.68
622.86	42953.51
623.01	43323.32
623.16	43325.66
623.32	43182.88
623.47	43021.39
623.62	43309.27
623.77	42988.62
623.92	43086.92
624.07	43044.79
624.23	43077.56
624.38	42927.77
624.53	42869.25
624.68	42686.69
624.83	42829.46
624.98	42880.95
625.13	42759.25
625.29	42436.25
625.44	42740.52
625.59	42513.49
625.74	42293.48
625.89	42415.19
626.04	42361.36
626.19	42377.74
626.34	42335.61
626.49	42492.43
626.65	42808.40
626.80	42756.91
626.95	42300.50
627.10	42663.28
627.25	42295.82
627.40	42150.71
627.55	42075.81
627.70	42426.89
627.85	41968.15
628.00	42485.40
628.15	42394.12
628.30	42089.85
628.45	42532.22
628.60	41612.38
628.76	42368.38
628.91	41834.74
629.06	42480.72
629.21	42014.96
629.36	41715.37
629.51	42113.26
629.66	41792.61
629.81	41970.49
629.96	41670.90
630.11	41874.52
630.26	41792.61
630.41	42363.70
630.56	41708.35
630.71	41677.92
630.86	41511.74
631.01	41944.74
631.16	42246.67
631.31	41361.95
631.46	41226.20
631.61	41696.64
631.76	41593.66
631.91	41633.45
632.06	41876.86
632.21	41265.99
632.36	41675.58
632.51	41415.78
632.66	41687.28
632.81	41432.16
632.96	41453.23
633.10	41406.42
633.25	41439.18
633.40	41415.78
633.55	41247.26
633.70	41443.87
633.85	41226.20
634.00	41074.06
634.15	41401.74
634.30	40809.58
634.45	41265.99
634.60	40898.52
634.75	41233.22
634.90	40996.82
635.05	41158.32
635.19	40905.54
635.34	41034.27
635.49	41010.87
635.64	40701.92
635.79	40215.08
635.94	40566.16
636.09	40610.64
636.24	40353.18
636.39	40226.79
636.53	40383.60
636.68	40830.65
636.83	40617.66
636.98	40652.76
637.13	40392.97
637.28	40638.72
637.43	40994.48
637.57	40678.51
637.72	40732.34
637.87	40378.92
638.02	40765.11
638.17	40601.27
638.32	39922.52
638.46	39983.37
638.61	40091.04
638.76	40439.78
638.91	39934.22
639.06	40339.13
639.20	40266.58
639.35	40765.11
639.50	40151.89
639.65	40315.73
639.80	40308.71
639.94	39817.19
640.09	39742.30
640.24	40165.93
640.39	40297.00
640.54	39751.66
640.68	39648.68
640.83	40004.44
640.98	39966.99
641.13	39674.42
641.27	39854.64
641.42	39777.40
641.57	39915.50
641.72	39908.47
641.86	39800.81
642.01	39775.06
642.16	40025.50
642.31	39501.22
642.45	39966.99
642.60	39262.49
642.75	39639.31
642.90	39569.10
643.04	39770.38
643.19	39428.66
643.34	39313.98
643.48	39613.57
643.63	39269.51
643.78	39576.12
643.93	39283.55
644.07	39269.51
644.22	39145.46
644.37	38988.64
644.51	39271.85
644.66	39349.09
644.81	39159.50
644.95	39580.80
645.10	39627.61
645.25	39814.85
645.39	39241.42
645.54	39337.38
645.69	38972.26
645.83	38946.51
645.98	39002.69
646.13	39349.09
646.27	39548.03
646.42	39283.55
646.57	39082.27
646.71	38742.89
646.86	38993.32
647.00	39447.39
647.15	39140.78
647.30	39171.21
647.44	39168.87
647.59	39058.86
647.74	38745.23
647.88	38422.23
648.03	38483.09
648.17	39232.06
648.32	38363.72
648.47	38522.88
648.61	38803.74
648.76	38782.68
648.90	38899.70
649.05	38419.89
649.20	38827.15
649.34	38951.20
649.49	38607.14
649.63	38499.47
649.78	38501.81
649.92	38696.08
650.07	38733.53
650.21	38073.49
650.36	38770.97
650.51	38220.95
650.65	38478.41
650.80	38462.02
650.94	38450.32
651.09	38485.43
651.23	38457.34
651.38	38417.55
651.52	37993.92
651.67	38267.76
651.81	38096.90
651.96	38057.11
652.10	38288.82
652.25	37949.45
652.39	38110.94
652.54	38014.98
652.68	38258.40
652.83	38223.29
652.97	38557.99
653.12	38132.01
653.26	37991.58
653.41	37902.64
653.55	38181.16
653.70	37869.87
653.84	38249.03
653.99	37549.21
654.13	38106.26
654.27	37914.34
654.42	37734.12
654.56	37654.54
654.71	38045.41
654.85	37755.18
655.00	37551.56
655.14	37366.65
655.29	37303.46
655.43	37408.78
655.57	36835.35
655.72	36992.17
655.86	36935.99
656.01	37184.09
656.15	37191.11
656.30	37486.02
656.44	37392.40
656.58	37378.36
656.73	36638.75
656.87	36954.72
657.01	36437.46
657.16	36503.00
657.30	37060.04
657.45	36601.30
657.59	37289.42
657.73	36907.91
657.88	37041.32
658.02	37013.23
658.16	37083.45
658.31	36910.25
658.45	36776.84
658.60	36917.27
658.74	36797.90
658.88	36409.37
659.03	36645.77
659.17	36247.88
659.31	36659.81
659.46	36327.45
659.60	36362.56
659.74	36566.19
659.89	36240.86
660.03	36533.42
660.17	36746.41
660.32	36264.26
660.46	36601.30
660.60	36542.78
660.74	36650.45
660.89	36020.84
661.03	36100.42
661.17	36072.34
661.32	35857.01
661.46	35976.37
661.60	35910.84
661.74	35852.33
661.89	35819.56
662.03	35931.90
662.17	35826.58
662.31	35526.99
662.46	36135.53
662.60	35995.10
662.74	35739.98
662.88	35508.27
663.03	35576.14
663.17	36060.63
663.31	35189.95
663.45	35608.91
663.60	35360.81
663.74	34939.52
663.88	35274.21
664.02	35299.96
664.17	35232.08
664.31	34281.83
664.45	35147.82
664.59	34995.69
664.73	35285.92
664.88	34803.77
665.02	34801.43
665.16	34941.86
665.30	35082.29
665.44	34422.26
665.59	34134.37
665.73	34326.30
665.87	34401.19
666.01	34515.88
666.15	34494.82
666.29	34134.37
666.44	34525.24
666.58	34352.04
666.72	34127.35
666.86	34443.32
667.00	34403.53
667.14	34391.83
667.28	33883.94
667.43	33670.95
667.57	33890.96
667.71	33656.90
667.85	33881.60
667.99	33535.20
668.13	33645.20
668.27	33900.32
668.41	33895.64
668.56	33418.17
668.70	33715.42
668.84	33186.46
668.98	33586.69
669.12	33165.39
669.26	33132.62
669.40	33149.01
669.54	33324.55
669.68	33214.54
669.82	33282.42
669.96	33331.57
670.10	32549.83
670.25	33088.15
670.39	32840.06
670.53	32947.72
670.67	32222.16
670.81	33076.45
670.95	32673.88
671.09	32540.47
671.23	32929.00
671.37	32732.39
671.51	32697.28
671.65	32498.34
671.79	32355.57
671.93	32240.88
672.07	32730.05
672.21	32107.47
672.35	32046.62
672.49	31604.25
672.63	31927.25
672.77	31618.30
672.91	32046.62
673.05	31587.87
673.19	31349.14
673.33	31690.85
673.47	31784.48
673.61	31744.69
673.75	31360.84
673.89	31033.16
674.03	31082.31
674.17	31173.60
674.31	31538.72
674.45	31124.44
674.59	31079.97
674.73	31117.42
674.87	31122.10
675.01	31077.63
675.15	31051.89
675.29	30808.47
675.43	31014.44
675.56	30827.20
675.70	30576.76
675.84	30469.09
675.98	29387.77
676.12	30419.94
676.26	30068.86
676.40	30110.99
676.54	29942.47
676.68	29963.54
676.82	29296.49
676.96	29989.28
677.10	29656.93
677.23	29450.96
677.37	29677.99
677.51	29446.28
677.65	29703.74
677.79	28856.46
677.93	29144.35
678.07	28954.77
678.21	28741.78
678.34	28856.46
678.48	28830.72
678.62	29118.60
678.76	28343.89
678.90	28435.17
679.04	28133.24
679.18	28854.12
679.31	27960.04
679.45	28063.02
679.59	28304.10
679.73	27793.86
679.87	27770.46
680.00	27974.08
680.14	27812.59
680.28	27555.13
680.42	27428.74
680.56	27672.15
680.70	27438.10
680.83	26927.86
680.97	27271.92
681.11	26911.48
681.25	26850.63
681.39	26951.27
681.52	27080.00
681.66	27000.42
681.80	27037.87
681.94	26668.06
682.07	26766.37
682.21	26291.24
682.35	26347.41
682.49	26700.83
682.62	26307.62
682.76	26003.35
682.90	26288.90
683.04	26164.85
683.17	26162.51
683.31	26167.19
683.45	26120.38
683.59	25881.64
683.72	25935.48
683.86	25291.83
684.00	25340.98
684.13	25366.73
684.27	25476.73
684.41	25139.69
684.55	25111.61
684.68	24971.18
684.82	24994.58
684.96	25160.76
685.09	24783.93
685.23	24592.01
685.37	24833.08
685.50	24341.57
685.64	24304.12
685.78	24540.52
685.91	24383.70
686.05	23889.85
686.19	23960.06
686.32	24025.60
686.46	23716.65
686.60	23744.73
686.73	23538.77
686.87	23459.19
687.01	23367.91
687.14	23548.13
687.28	23295.35
687.42	23096.41
687.55	23206.41
687.69	23428.76
687.82	22785.12
687.96	23065.98
688.10	22937.25
688.23	22663.41
688.37	22487.87
688.50	22127.42
688.64	22675.11
688.78	22424.67
688.91	22356.80
689.05	22022.10
689.18	22553.40
689.32	21664.00
689.46	21783.37
689.59	22104.02
689.73	22415.31
689.86	21689.74
690.00	21795.07
690.13	21940.18
690.27	21441.65
690.41	21500.16
690.54	21493.14
690.68	20905.66
690.81	20971.20
690.95	21343.35
691.08	20996.95
691.22	21069.50
691.35	20786.30
691.49	21036.74
691.62	20472.67
691.76	21032.05
691.89	20479.69
692.03	20444.58
692.16	20599.05
692.30	20538.20
692.43	20334.57
692.57	20222.23
692.70	20514.80
692.84	20229.25
692.97	19873.49
693.11	19648.80
693.24	19784.55
693.38	19726.04
693.51	19662.84
693.65	19683.91
693.78	19454.53
693.92	19639.44
694.05	19398.36
694.19	19269.63
694.32	18920.89
694.45	19058.98
694.59	19073.03
694.72	19225.16
694.86	18869.40
694.99	18726.63
695.13	18640.03
695.26	18534.70
695.39	18181.28
695.53	18831.95
695.66	18494.91
695.80	18499.59
695.93	18068.94
696.07	18272.56
696.20	18141.49
696.33	18391.93
696.47	18216.39
696.60	17874.67
696.73	17968.29
696.87	17504.87
697.00	17586.79
697.14	17764.67
697.27	17867.65
697.40	17547.00
697.54	17074.21
697.67	17436.99
697.80	17462.74
697.94	17507.21
698.07	17289.54
698.21	16985.27
698.34	17125.70
698.47	16837.81
698.61	16666.95
698.74	16786.32
698.87	16699.72
699.01	16559.29
699.14	16355.66
699.27	16439.92
699.40	16393.11
699.54	16210.55
699.67	16168.42
699.80	16081.82
699.94	16477.37
700.07	15962.45
700.20	16215.23
700.34	16088.84
700.47	15714.36
700.60	15936.71
700.73	15831.38
700.87	15646.48
701.00	15477.96
701.13	15679.25
701.26	15557.54
701.40	15276.68
701.53	14974.75
701.66	15428.81
701.79	15353.91
701.93	15012.20
702.06	14881.13
702.19	14995.81
702.32	14841.34
702.46	14691.54
702.59	14920.92
702.72	14867.08
702.85	14602.60
702.99	14628.35
703.12	14579.20
703.25	14686.86
703.38	14487.92
703.51	14377.91
703.65	14015.13
703.78	14104.07
703.91	14134.50
704.04	14111.09
704.17	14162.58
704.31	13895.76
704.44	13898.10
704.57	13537.66
704.70	13811.50
704.83	13474.46
704.96	13699.16
705.10	13804.48
705.23	13855.97
>>>>>End Processed Spectral Data<<<<<
