SpectraSuite Data File
++++++++++++++++++++++++++++++++++++
Date: Fri Oct 25 11:33:35 EDT 2013
User: price-jones
Dark Spectrum Present: No
Reference Spectrum Present: No
Number of Sampled Component Spectra: 1
Spectrometers: USB2+H05261
Integration Time (usec): 100000 (USB2+H05261)
Spectra Averaged: 1 (USB2+H05261)
Boxcar Smoothing: 0 (USB2+H05261)
Correct for Electrical Dark: No (USB2+H05261)
Strobe/Lamp Enabled: No (USB2+H05261)
Correct for Detector Non-linearity: No (USB2+H05261)
Correct for Stray Light: No (USB2+H05261)
Number of Pixels in Processed Spectrum: 2048
>>>>>Begin Processed Spectral Data<<<<<
365.73	264.48
365.92	264.48
366.12	264.48
366.32	203.63
366.52	182.56
366.72	215.33
366.91	255.12
367.11	177.88
367.31	105.32
367.51	215.33
367.70	177.88
367.90	117.03
368.10	191.92
368.30	189.58
368.49	273.84
368.69	191.92
368.89	189.58
369.09	241.08
369.28	180.22
369.48	229.37
369.68	262.14
369.87	290.23
370.07	243.42
370.27	273.84
370.47	330.02
370.66	472.79
370.86	524.28
371.06	535.98
371.25	580.45
371.45	545.34
371.65	547.69
371.84	423.64
372.04	594.50
372.24	606.20
372.44	622.58
372.63	606.20
372.83	645.99
373.03	648.33
373.22	613.22
373.42	638.97
373.62	585.13
373.81	610.88
374.01	718.54
374.21	683.44
374.40	596.84
374.60	711.52
374.79	592.16
374.99	564.07
375.19	667.05
375.38	695.14
375.58	657.69
375.78	709.18
375.97	716.20
376.17	718.54
376.37	695.14
376.56	678.76
376.76	688.12
376.95	711.52
377.15	716.20
377.35	690.46
377.54	709.18
377.74	695.14
377.93	706.84
378.13	704.50
378.33	744.29
378.52	688.12
378.72	723.23
378.91	713.86
379.11	720.88
379.31	636.63
379.50	674.07
379.70	681.10
379.89	702.16
380.09	739.61
380.28	706.84
380.48	765.36
380.68	699.82
380.87	798.12
381.07	711.52
381.26	772.38
381.46	746.63
381.65	772.38
381.85	720.88
382.04	802.80
382.24	795.78
382.43	713.86
382.63	788.76
382.83	763.01
383.02	760.67
383.22	887.06
383.41	795.78
383.61	840.25
383.80	802.80
384.00	772.38
384.19	800.46
384.39	887.06
384.58	800.46
384.78	807.48
384.97	833.23
385.17	819.19
385.36	847.27
385.56	861.32
385.75	753.65
385.95	861.32
386.14	870.68
386.34	823.87
386.53	788.76
386.72	772.38
386.92	954.94
387.11	877.70
387.31	866.00
387.50	926.85
387.70	964.30
387.89	938.55
388.09	1008.77
388.28	873.02
388.48	880.04
388.67	924.51
388.86	903.45
389.06	985.37
389.25	926.85
389.45	912.81
389.64	903.45
389.84	919.83
390.03	882.38
390.22	987.71
390.42	898.77
390.61	903.45
390.81	968.98
391.00	1001.75
391.19	1001.75
391.39	917.49
391.58	985.37
391.78	992.39
391.97	994.73
392.16	926.85
392.36	1095.37
392.55	1060.26
392.75	1093.03
392.94	1001.75
393.13	1071.97
393.33	1027.50
393.52	1095.37
393.71	1069.62
393.91	1055.58
394.10	1123.46
394.29	1100.05
394.49	1118.78
394.68	1146.86
394.88	1114.10
395.07	1062.60
395.26	1146.86
395.46	1069.62
395.65	1188.99
395.84	1188.99
396.04	1203.04
396.23	1151.54
396.42	1203.04
396.62	1263.89
396.81	1247.51
397.00	1219.42
397.19	1191.33
397.39	1151.54
397.58	1366.87
397.77	1254.53
397.97	1240.48
398.16	1245.16
398.35	1308.36
398.55	1256.87
398.74	1252.19
398.93	1266.23
399.12	1188.99
399.32	1320.06
399.51	1385.60
399.70	1376.24
399.90	1287.29
400.09	1355.17
400.28	1359.85
400.47	1327.08
400.67	1352.83
400.86	1418.36
401.05	1416.02
401.24	1502.62
401.44	1502.62
401.63	1472.20
401.82	1462.83
402.01	1394.96
402.21	1448.79
402.40	1490.92
402.59	1472.20
402.78	1507.30
402.97	1542.41
403.17	1455.81
403.36	1593.90
403.55	1554.12
403.74	1568.16
403.93	1654.76
404.13	1603.27
404.32	1668.80
404.51	1570.50
404.70	1577.52
404.89	1612.63
405.09	1598.59
405.28	1694.55
405.47	1708.59
405.66	1603.27
405.85	1680.50
406.05	1778.81
406.24	1612.63
406.43	1715.61
406.62	1799.87
406.81	1872.43
407.00	1832.64
407.20	1755.40
407.39	1760.08
407.58	1930.94
407.77	1785.83
407.96	1778.81
408.15	1968.39
408.34	1898.17
408.54	1921.58
408.73	1926.26
408.92	1844.34
409.11	1963.71
409.30	1902.86
409.49	1989.46
409.68	2054.99
409.87	1888.81
410.07	2127.55
410.26	1954.35
410.45	2087.76
410.64	1998.82
410.83	2054.99
411.02	2069.03
411.21	2052.65
411.40	2118.18
411.59	2139.25
411.78	2263.30
411.98	2249.25
412.17	2209.47
412.36	2251.60
412.55	2244.57
412.74	2436.50
412.93	2321.81
413.12	2373.30
413.31	2466.92
413.50	2380.32
413.69	2347.56
413.88	2429.48
414.07	2448.20
414.26	2427.14
414.45	2558.21
414.64	2548.84
414.83	2602.68
415.02	2527.78
415.22	2583.95
415.41	2654.17
415.60	2558.21
415.79	2710.34
415.98	2736.09
416.17	2637.78
416.36	2677.57
416.55	2729.06
416.74	2759.49
416.93	2848.43
417.12	2747.79
417.31	2780.56
417.50	2862.48
417.69	2995.89
417.88	2979.50
418.07	2958.44
418.26	2977.16
418.45	2909.29
418.64	3035.67
418.83	3124.62
419.02	3045.04
419.21	3077.80
419.39	3176.11
419.58	3030.99
419.77	2991.20
419.96	3206.53
420.15	3155.04
420.34	3155.04
420.53	3255.69
420.72	3152.70
420.91	3304.84
421.10	3265.05
421.29	3349.31
421.48	3124.62
421.67	3389.10
421.86	3211.22
422.05	3192.49
422.24	3449.95
422.43	3325.90
422.61	3424.20
422.80	3410.16
422.99	3323.56
423.18	3318.88
423.37	3492.08
423.56	3405.48
423.75	3330.58
423.94	3361.01
424.13	3286.11
424.32	3236.96
424.50	3358.67
424.69	3419.52
424.88	3335.26
425.07	3445.27
425.26	3426.54
425.45	3426.54
425.64	3375.05
425.83	3339.94
426.01	3524.85
426.20	3447.61
426.39	3485.06
426.58	3449.95
426.77	3468.67
426.96	3569.32
427.15	3545.91
427.33	3674.64
427.52	3463.99
427.71	3609.11
427.90	3676.98
428.09	3604.42
428.28	3585.70
428.46	3623.15
428.65	3667.62
428.84	3646.55
429.03	3882.95
429.22	3702.73
429.40	3805.71
429.59	3700.39
429.78	3707.41
429.97	3751.88
430.16	3892.31
430.34	3803.37
430.53	3838.48
430.72	3911.04
430.91	3850.18
431.10	3829.12
431.28	3988.27
431.47	4002.32
431.66	4030.40
431.85	3894.65
432.03	4109.98
432.22	3988.27
432.41	3976.57
432.60	4077.21
432.79	4159.13
432.97	4018.70
433.16	4093.60
433.35	4119.34
433.54	4283.18
433.72	4023.38
433.91	4124.02
434.10	4194.24
434.28	4194.24
434.47	4287.86
434.66	4168.49
434.85	4273.82
435.03	4416.59
435.22	4351.06
435.41	4374.46
435.59	4362.76
435.78	4269.14
435.97	4402.55
436.16	4362.76
436.34	4355.74
436.53	4456.38
436.72	4585.11
436.90	4458.72
437.09	4528.94
437.28	4383.82
437.46	4540.64
437.65	4468.08
437.84	4561.70
438.02	4575.75
438.21	4627.24
438.40	4449.36
438.58	4821.50
438.77	4610.86
438.96	4725.54
439.14	4830.87
439.33	4873.00
439.52	4975.98
439.70	4961.94
439.89	5057.90
440.08	4957.25
440.26	5090.67
440.45	5032.15
440.63	5020.45
440.82	5125.77
441.01	5062.58
441.19	5298.97
441.38	5205.35
441.57	5249.82
441.75	5469.83
441.94	5315.36
442.12	5380.89
442.31	5528.35
442.50	5383.23
442.68	5392.59
442.87	5425.36
443.05	5486.22
443.24	5474.51
443.43	5387.91
443.61	5554.09
443.80	5767.08
443.98	5526.00
444.17	5446.43
444.35	5448.77
444.54	5668.78
444.73	5617.29
444.91	5694.52
445.10	5636.01
445.28	5572.82
445.47	5563.45
445.65	5682.82
445.84	5710.91
446.02	5673.46
446.21	5757.72
446.39	5664.10
446.58	5708.57
446.77	5832.62
446.95	5619.63
447.14	5685.16
447.32	5696.86
447.51	5764.74
447.69	5626.65
447.88	5671.12
448.06	5846.66
448.25	5659.42
448.43	5865.38
448.62	5678.14
448.80	5849.00
448.99	5811.55
449.17	5902.83
449.36	5944.96
449.54	6031.56
449.73	5963.68
449.91	5942.62
450.10	6033.90
450.28	6209.44
450.46	6113.48
450.65	6129.86
450.83	5961.34
451.02	6120.50
451.20	6225.82
451.39	6342.85
451.57	6146.25
451.76	6139.23
451.94	6139.23
452.13	6314.77
452.31	6216.46
452.49	6162.63
452.68	6321.79
452.86	6345.19
453.05	6347.53
453.23	6256.25
453.42	6380.30
453.60	6253.91
453.78	6399.02
453.97	6375.62
454.15	6509.03
454.34	6509.03
454.52	6626.06
454.70	6490.31
454.89	6483.28
455.07	6499.67
455.26	6642.44
455.44	6801.60
455.62	6656.48
455.81	6726.70
455.99	6754.79
456.17	6761.81
456.36	6661.16
456.54	6782.87
456.73	6918.62
456.91	6932.67
457.09	6836.70
457.28	6899.90
457.46	7117.57
457.64	6906.92
457.83	6984.16
458.01	6890.54
458.19	7096.50
458.38	7056.72
458.56	7265.02
458.74	6984.16
458.93	7117.57
459.11	7330.56
459.29	7117.57
459.48	7225.23
459.66	7204.17
459.84	7396.09
460.03	7255.66
460.21	7384.39
460.39	7307.15
460.57	7494.40
460.76	7440.56
460.94	7468.65
461.12	7492.05
461.31	7407.80
461.49	7538.87
461.67	7412.48
461.85	7786.96
462.04	7676.96
462.22	8189.53
462.40	7777.60
462.59	7868.88
462.77	7548.23
462.95	7784.62
463.13	7609.08
463.32	7838.45
463.50	8044.42
463.68	7913.35
463.86	7798.66
464.05	7793.98
464.23	7826.75
464.41	8025.70
464.59	7719.09
464.78	8149.75
464.96	7934.42
465.14	7981.23
465.32	8163.79
465.50	7929.74
465.69	8077.19
465.87	8138.04
466.05	8002.29
466.23	8102.93
466.41	8170.81
466.60	8458.70
466.78	8102.93
466.96	8203.58
467.14	8262.09
467.32	8217.62
467.51	8362.73
467.69	8147.40
467.87	8236.35
468.05	8393.16
468.23	8273.79
468.41	8276.13
468.60	8407.20
468.78	8423.59
468.96	8386.14
469.14	8470.40
469.32	8578.06
469.50	8458.70
469.69	8561.68
469.87	8669.34
470.05	8596.79
470.23	8603.81
470.41	8765.31
470.59	8931.48
470.77	8685.73
470.95	8676.37
471.14	9060.21
471.32	8645.94
471.50	9022.77
471.68	8879.99
471.86	9170.22
472.04	9135.11
472.22	9298.95
472.40	9177.24
472.58	9062.55
472.77	9142.13
472.95	9284.91
473.13	9767.06
473.31	9401.93
473.49	9411.29
473.67	9303.63
473.85	9533.00
474.03	9741.31
474.21	9547.05
474.39	9947.28
474.57	9848.97
474.75	9881.74
474.93	9968.34
475.12	9673.43
475.30	9958.98
475.48	9888.76
475.66	10054.94
475.84	9919.19
476.02	10272.61
476.20	9944.94
476.38	10338.15
476.56	10497.30
476.74	10621.35
476.92	10611.99
477.10	10656.46
477.28	10670.50
477.46	10682.20
477.64	10717.31
477.82	10731.36
478.00	11243.93
478.18	11213.51
478.36	11044.99
478.54	11267.34
478.72	11101.16
478.90	11573.95
479.08	11630.12
479.26	11683.95
479.44	11716.72
479.62	11726.08
479.80	11445.22
479.98	11929.71
480.16	12060.78
480.34	12002.27
480.52	12425.90
480.70	12250.36
480.88	12166.10
481.06	12393.14
481.24	12280.79
481.41	12351.01
481.59	12753.58
481.77	12774.64
481.95	12896.35
482.13	13027.42
482.31	12908.05
482.49	13254.45
482.67	13413.61
482.85	13362.12
483.03	13596.17
483.21	13657.03
483.39	13563.40
483.57	13846.61
483.74	13958.96
483.92	13682.77
484.10	13874.70
484.28	14307.69
484.46	14101.73
484.64	14635.37
484.82	14452.81
485.00	14733.67
485.18	14906.87
485.35	15035.60
485.53	14970.07
485.71	15332.85
485.89	15360.94
486.07	15332.85
486.25	15367.96
486.43	15548.18
486.61	15424.13
486.78	15864.15
486.96	15822.02
487.14	16163.74
487.32	16175.44
487.50	16355.66
487.68	16320.56
487.85	16486.73
488.03	16489.07
488.21	16624.83
488.39	16788.66
488.57	17132.72
488.75	17268.47
488.92	17334.01
489.10	17640.62
489.28	17488.48
489.46	17710.83
489.64	17818.50
489.81	18073.62
489.99	18122.77
490.17	18251.50
490.35	18354.48
490.53	18436.40
490.70	18427.04
490.88	18548.75
491.06	18810.89
491.24	19204.10
491.41	19140.90
491.59	19548.15
491.77	19110.47
491.95	19482.62
492.13	19613.69
492.30	19536.45
492.48	19686.25
492.66	19943.70
492.84	19847.74
493.01	20255.00
493.19	20105.20
493.37	20446.92
493.54	20116.90
493.72	20503.09
493.90	20673.95
494.08	20695.02
494.25	21025.03
494.43	21116.31
494.61	21291.85
494.79	21139.72
494.96	21263.77
495.14	21441.65
495.32	21673.36
495.49	21706.13
495.67	21687.40
495.85	22015.08
496.02	22012.74
496.20	22370.84
496.38	22104.02
496.55	22408.29
496.73	23012.15
496.91	22628.30
497.09	22806.18
497.26	23000.44
497.44	22710.22
497.62	23077.68
497.79	23428.76
497.97	23197.05
498.14	23290.67
498.32	23601.96
498.50	23740.05
498.67	23859.42
498.85	23662.82
499.03	24023.26
499.20	23599.62
499.38	24093.47
499.56	24266.67
499.73	24067.73
499.91	24381.36
500.08	24540.52
500.26	24418.81
500.44	24629.46
500.61	24905.64
500.79	24870.53
500.97	25102.25
501.14	25352.68
501.32	24702.01
501.49	25280.13
501.67	25010.96
501.84	25685.04
502.02	25734.19
502.20	25769.30
502.37	25570.35
502.55	25982.29
502.72	25802.07
502.90	25942.50
503.07	26099.31
503.25	26066.55
503.43	25860.58
503.60	26150.81
503.78	26291.24
503.95	26588.49
504.13	26305.28
504.30	26560.40
504.48	26520.61
504.65	26850.63
504.83	26859.99
505.01	27061.27
505.18	27091.70
505.36	27264.90
505.53	27288.31
505.71	27227.45
505.88	27180.64
506.06	27454.48
506.23	27372.57
506.41	27349.16
506.58	27723.65
506.76	28025.57
506.93	27615.98
507.11	27704.92
507.28	28016.21
507.46	28231.54
507.63	28189.41
507.81	28210.48
507.98	28018.55
508.16	28086.43
508.33	28737.10
508.50	28926.68
508.68	28395.38
508.85	28933.70
509.03	28739.44
509.20	29118.60
509.38	29397.13
509.55	29149.03
509.73	29298.83
509.90	29385.43
510.08	29481.39
510.25	29476.71
510.42	29619.48
510.60	29385.43
510.77	29867.58
510.95	30258.45
511.12	29844.17
511.30	30061.84
511.47	29790.34
511.64	29874.60
511.82	30511.22
511.99	30171.85
512.17	30202.27
512.34	30164.82
512.51	30581.44
512.69	30902.09
512.86	30878.69
513.04	30948.90
513.21	30684.42
513.38	30813.15
513.56	31440.42
513.73	31002.74
513.90	31332.75
514.08	31030.82
514.25	31398.29
514.43	31447.44
514.60	31606.59
514.77	31709.58
514.95	32102.79
515.12	31541.06
515.29	31744.69
515.47	31917.89
515.64	31793.84
515.81	32191.73
515.99	32086.40
516.16	32385.99
516.33	32137.90
516.51	32252.58
516.68	31957.67
516.85	32357.91
517.03	32407.06
517.20	32739.41
517.37	32643.45
517.54	32510.04
517.72	32755.80
517.89	32685.58
518.06	33057.73
518.24	33083.47
518.41	32943.04
518.58	33001.55
518.75	33078.79
518.93	33263.69
519.10	33371.36
519.27	33046.02
519.45	33352.63
519.62	33479.02
519.79	33947.13
519.96	33745.84
520.14	33907.34
520.31	33654.56
520.48	33919.04
520.65	33720.10
520.83	34389.49
521.00	34352.04
521.17	34384.81
521.34	34478.43
521.52	34356.72
521.69	34677.38
521.86	34948.88
522.03	34291.19
522.20	35019.10
522.38	35040.16
522.55	34583.76
522.72	34782.70
522.89	34927.81
523.07	35030.80
523.24	35206.34
523.41	35445.07
523.58	35442.73
523.75	35363.15
523.92	35557.42
524.10	35452.09
524.27	36013.82
524.44	35653.38
524.61	35945.95
524.78	35826.58
524.96	36133.19
525.13	35915.52
525.30	36058.29
525.47	36093.40
525.64	35992.76
525.81	35920.20
525.98	36292.35
526.16	36273.62
526.33	35983.40
526.50	36844.71
526.67	36135.53
526.84	36854.08
527.01	36189.36
527.18	36627.04
527.36	36524.06
527.53	36889.18
527.70	36856.42
527.87	37371.33
528.04	37029.62
528.21	36985.15
528.38	37158.34
528.55	37233.24
528.72	36994.51
528.89	36992.17
529.07	37184.09
529.24	37329.20
529.41	37350.27
529.58	37258.99
529.75	36961.74
529.92	37378.36
530.09	38082.86
530.26	37429.85
530.43	37462.61
530.60	37345.59
530.77	37907.32
530.94	37991.58
531.11	37759.86
531.28	37710.71
531.46	37900.29
531.63	38260.74
531.80	38389.47
531.97	38141.37
532.14	38073.49
532.31	38211.59
532.48	38279.46
532.65	38377.76
532.82	38429.26
532.99	38607.14
533.16	38295.85
533.33	38759.27
533.50	38698.42
533.67	38548.62
533.84	38504.15
534.01	38778.00
534.18	38904.38
534.35	39201.63
534.52	38820.13
534.69	39636.97
534.86	38972.26
535.03	39313.98
535.20	39103.33
535.37	39168.87
535.54	39711.87
535.71	39491.86
535.88	39414.62
536.05	39367.81
536.22	39407.60
536.38	39658.04
536.55	39358.45
536.72	39508.24
536.89	39746.98
537.06	39615.91
537.23	39962.31
537.40	39662.72
537.57	39903.79
537.74	39922.52
537.91	40517.01
538.08	40184.66
538.25	39861.66
538.42	39861.66
538.59	40360.20
538.75	40278.28
538.92	40081.67
539.09	40519.35
539.26	40631.70
539.43	40634.04
539.60	40526.38
539.77	40282.96
539.94	40722.98
540.11	40648.08
540.28	40615.32
540.44	40818.94
540.61	40694.89
540.78	40835.33
540.95	40900.86
541.12	41020.23
541.29	40383.60
541.46	41088.10
541.62	41212.15
541.79	41010.87
541.96	40603.61
542.13	40765.11
542.30	41221.52
542.47	41280.03
542.63	41373.65
542.80	41282.37
542.97	41556.21
543.14	41701.32
543.31	41998.57
543.48	41581.96
543.64	42267.73
543.81	41975.17
543.98	42101.56
544.15	41972.83
544.32	42473.70
544.48	42230.29
544.65	42483.06
544.82	42316.89
544.99	42309.86
545.16	42188.16
545.32	42356.67
545.49	42160.07
545.66	42663.28
545.83	42586.05
546.00	42440.93
546.16	42665.63
546.33	42384.76
546.50	42511.15
546.67	42679.67
546.83	42309.86
547.00	42660.94
547.17	42700.73
547.34	42543.92
547.50	43110.33
547.67	43021.39
547.84	42810.74
548.00	43299.91
548.17	43428.64
548.34	43185.22
548.51	43096.28
548.67	42906.70
548.84	43112.67
549.01	42815.42
549.18	43468.43
549.34	42993.30
549.51	43276.51
549.68	43662.69
549.84	43168.84
550.01	43430.98
550.18	43133.73
550.34	43250.76
550.51	43662.69
550.68	43821.85
550.84	43299.91
551.01	44203.36
551.18	43466.09
551.34	43569.07
551.51	43732.91
551.68	43515.24
551.84	43934.20
552.01	44041.86
552.18	44119.10
552.34	43838.23
552.51	44079.31
552.68	43831.21
552.84	43903.77
553.01	44229.10
553.18	43854.62
553.34	43985.69
553.51	44058.24
553.67	44144.84
553.84	44315.70
554.01	44320.38
554.17	43908.45
554.34	44318.04
554.51	44582.52
554.67	44903.18
554.84	44444.43
555.00	44339.11
555.17	44559.12
555.33	44835.30
555.50	44481.88
555.67	44545.08
555.83	44596.57
556.00	45275.32
556.16	45067.02
556.33	45027.23
556.50	44830.62
556.66	44694.87
556.83	44493.58
556.99	45481.29
557.16	45467.25
557.32	44949.99
557.49	45148.93
557.65	44737.00
557.82	44914.88
557.98	45244.90
558.15	44844.66
558.32	44807.22
558.48	45186.38
558.65	44945.31
558.81	45165.32
558.98	45258.94
559.14	45074.04
559.31	45057.65
559.47	45502.35
559.64	45099.78
559.80	45326.81
559.97	45464.91
560.13	45340.86
560.30	45530.44
560.46	45640.45
560.63	45528.10
560.79	45947.06
560.96	45645.13
561.12	45357.24
561.29	45673.21
561.45	45523.42
561.61	45490.65
561.78	45579.59
561.94	45673.21
562.11	45244.90
562.27	45366.60
562.44	45918.97
562.60	45830.03
562.77	45734.07
562.93	45507.04
563.10	46136.64
563.26	45663.85
563.42	45928.33
563.59	46176.43
563.75	45975.14
563.92	45745.77
564.08	45790.24
564.24	46373.03
564.41	46124.94
564.57	46054.72
564.74	46330.90
564.90	46253.67
565.07	45879.18
565.23	45776.20
565.39	45860.46
565.56	45993.87
565.72	45937.69
565.88	46047.70
566.05	46267.71
566.21	46059.40
566.38	45998.55
566.54	46483.04
566.70	46080.47
566.87	45741.09
567.03	45792.58
567.19	46480.70
567.36	46597.73
567.52	46426.87
567.68	46539.21
567.85	46478.36
568.01	46777.95
568.17	46337.93
568.34	46274.73
568.50	46674.96
568.66	46314.52
568.83	46403.46
568.99	46483.04
569.15	46291.12
569.32	45947.06
569.48	46361.33
569.64	46459.63
569.81	46944.12
569.97	46536.87
570.13	46724.11
570.30	46513.47
570.46	46614.11
570.62	46752.20
570.78	46316.86
570.95	46583.68
571.11	46518.15
571.27	46796.67
571.43	46309.84
571.60	46670.28
571.76	46307.50
571.92	46698.37
572.09	46639.86
572.25	46504.10
572.41	46038.34
572.57	46752.20
572.74	46953.49
572.90	46536.87
573.06	46813.05
573.22	46820.08
573.38	46871.57
573.55	46887.95
573.71	47405.21
573.87	46981.57
574.03	47044.77
574.20	46637.51
574.36	46735.82
574.52	47295.21
574.68	47004.98
574.84	46909.02
575.01	47290.52
575.17	46403.46
575.33	46721.77
575.49	46899.65
575.65	46824.76
575.82	46775.61
575.98	46391.76
576.14	47262.44
576.30	47084.56
576.46	47136.05
576.62	46677.30
576.79	47002.64
576.95	46546.23
577.11	46955.83
577.27	46890.29
577.43	47079.88
577.59	46740.50
577.75	46878.59
577.92	46941.78
578.08	46906.68
578.24	46602.41
578.40	46770.93
578.56	46918.38
578.72	47299.89
578.88	47409.89
579.04	47175.84
579.21	47068.17
579.37	46787.31
579.53	47175.84
579.69	47072.85
579.85	46897.31
580.01	46754.54
580.17	46918.38
580.33	47372.44
580.49	47173.50
580.65	47079.88
580.82	46787.31
580.98	46925.40
581.14	47274.14
581.30	47213.29
581.46	47220.31
581.62	47388.83
581.78	46770.93
581.94	47281.16
582.10	47318.61
582.26	47461.38
582.42	47288.18
582.58	47419.25
582.74	47496.49
582.90	46920.72
583.06	47157.11
583.22	46890.29
583.38	47292.86
583.54	47285.84
583.70	47140.73
583.86	47220.31
584.02	47262.44
584.18	47665.01
584.34	47349.04
584.50	47547.98
584.66	47009.66
584.82	47199.24
584.98	47461.38
585.14	47672.03
585.30	47398.19
585.46	47400.53
585.62	47416.91
585.78	47414.57
585.94	47374.78
586.10	47168.82
586.26	46976.89
586.42	47070.51
586.58	47437.98
586.74	47267.12
586.90	47330.31
587.06	47100.94
587.22	47318.61
587.38	47262.44
587.54	47667.35
587.70	47571.39
587.86	47601.82
588.02	47150.09
588.18	47419.25
588.34	47442.66
588.49	47437.98
588.65	47065.83
588.81	47281.16
588.97	47531.60
589.13	47601.82
589.29	47524.58
589.45	48006.73
589.61	47531.60
589.77	47447.34
589.93	47906.08
590.08	47512.88
590.24	47730.54
590.40	47957.58
590.56	47999.71
590.72	48023.11
590.88	47653.31
591.04	48088.65
591.20	47952.90
591.35	47852.25
591.51	47990.34
591.67	47758.63
591.83	47817.14
591.99	47587.77
592.15	47304.57
592.31	47529.26
592.46	47309.25
592.62	47648.63
592.78	47943.53
592.94	48257.17
593.10	48184.61
593.26	48074.60
593.41	48025.45
593.57	48109.71
593.73	47934.17
593.89	48336.74
594.05	47988.00
594.20	48205.67
594.36	48039.50
594.52	48184.61
594.68	48053.54
594.84	48032.47
594.99	48165.88
595.15	48238.44
595.31	47945.87
595.47	47800.76
595.62	48509.94
595.78	48083.97
595.94	48151.84
596.10	47894.38
596.25	48186.95
596.41	48067.58
596.57	47950.56
596.73	48519.31
596.88	48273.55
597.04	48343.77
597.20	48458.45
597.36	47812.46
597.51	48364.83
597.67	48107.37
597.83	48296.95
597.99	48208.01
598.14	48212.70
598.30	48100.35
598.46	47824.17
598.61	48376.53
598.77	47983.32
598.93	48306.32
599.09	47826.51
599.24	48371.85
599.40	48179.93
599.56	48507.60
599.71	48289.93
599.87	48659.74
600.03	48184.61
600.18	48514.62
600.34	48189.29
600.50	48313.34
600.65	48720.59
600.81	48547.39
600.97	48238.44
601.12	47962.26
601.28	47882.68
601.44	48329.72
601.59	48514.62
601.75	48189.29
601.91	48598.88
602.06	48114.39
602.22	48385.89
602.37	48196.31
602.53	48505.26
602.69	48322.70
602.84	47990.34
603.00	48147.16
603.16	48453.77
603.31	48102.69
603.47	48329.72
603.62	48259.51
603.78	48163.54
603.94	47959.92
604.09	48233.76
604.25	48320.36
604.40	47615.86
604.56	48093.33
604.71	48563.78
604.87	47847.57
605.03	47758.63
605.18	48142.48
605.34	48053.54
605.49	47892.04
605.65	48278.23
605.80	47786.72
605.96	48023.11
606.12	48137.80
606.27	48397.60
606.43	47969.28
606.58	48011.41
606.74	48200.99
606.89	48060.56
607.05	48615.27
607.20	48275.89
607.36	47730.54
607.51	48329.72
607.67	48081.63
607.82	47941.19
607.98	48264.19
608.13	47988.00
608.29	48243.12
608.44	48083.97
608.60	48004.39
608.75	47922.47
608.91	48037.16
609.06	47894.38
609.22	48308.66
609.37	48238.44
609.53	47957.58
609.68	48320.36
609.84	48170.57
609.99	48011.41
610.15	48004.39
610.30	47941.19
610.46	48154.18
610.61	47980.98
610.76	48109.71
610.92	47938.85
611.07	47709.48
611.23	47835.87
611.38	47791.40
611.54	47988.00
611.69	48013.75
611.84	48172.91
612.00	47803.10
612.15	47730.54
612.31	47665.01
612.46	47466.06
612.62	47791.40
612.77	47723.52
612.92	47952.90
613.08	47690.76
613.23	47730.54
613.39	47173.50
613.54	47936.51
613.69	47978.64
613.85	47608.84
614.00	47339.68
614.15	47908.43
614.31	47618.20
614.46	47480.11
614.62	47323.29
614.77	47566.71
614.92	47608.84
615.08	47505.85
615.23	47840.55
615.38	47735.23
615.54	47323.29
615.69	47657.99
615.84	47290.52
616.00	47697.78
616.15	47466.06
616.30	47271.80
616.46	47868.64
616.61	47250.74
616.76	47306.91
616.92	47360.74
617.07	47466.06
617.22	47334.99
617.37	47124.35
617.53	47054.13
617.68	47157.11
617.83	47086.90
617.99	47634.58
618.14	47437.98
618.29	47215.63
618.45	47173.50
618.60	46611.77
618.75	46756.88
618.90	47021.36
619.06	47054.13
619.21	46990.94
619.36	47208.61
619.51	46997.96
619.67	46894.97
619.82	47262.44
619.97	47016.68
620.12	47040.09
620.28	47334.99
620.43	46735.82
620.58	46892.63
620.73	46932.42
620.89	47131.37
621.04	47430.96
621.19	46529.85
621.34	46679.64
621.49	46742.84
621.65	46595.38
621.80	46955.83
621.95	46508.79
622.10	46749.86
622.25	46471.34
622.41	46794.33
622.56	46328.56
622.71	46440.91
622.86	46920.72
623.01	46590.70
623.16	46492.40
623.32	46689.01
623.47	46518.15
623.62	46239.62
623.77	46525.17
623.92	46309.84
624.07	46429.21
624.23	46932.42
624.38	46436.23
624.53	46656.24
624.68	46089.83
624.83	46597.73
624.98	46312.18
625.13	45886.20
625.29	46143.66
625.44	46066.42
625.59	46314.52
625.74	46256.01
625.89	45893.22
626.04	46199.83
626.19	45986.85
626.34	45708.32
626.49	46026.63
626.65	45853.44
626.80	45921.31
626.95	45514.06
627.10	45600.66
627.25	45935.35
627.40	46059.40
627.55	46192.81
627.70	45975.14
627.85	46272.39
628.00	45911.95
628.15	46040.68
628.30	45301.07
628.45	45539.80
628.60	45418.10
628.76	45319.79
628.91	45605.34
629.06	45008.50
629.21	45401.71
629.36	45457.88
629.51	46096.85
629.66	45790.24
629.81	45806.62
629.96	45610.02
630.11	45333.84
630.26	45193.40
630.41	45155.96
630.56	45209.79
630.71	45254.26
630.86	45340.86
631.01	45186.38
631.16	45092.76
631.31	44715.93
631.46	44828.28
631.61	45284.68
631.76	45626.40
631.91	45354.90
632.06	45532.78
632.21	45521.08
632.36	45507.04
632.51	44893.82
632.66	45202.77
632.81	44854.03
632.96	45212.13
633.10	45090.42
633.25	45427.46
633.40	45109.14
633.55	45387.67
633.70	45373.63
633.85	44678.49
634.00	44746.36
634.15	44748.70
634.30	44802.53
634.45	44549.76
634.60	44765.09
634.75	45350.22
634.90	44804.88
635.05	44830.62
635.19	44790.83
635.34	44835.30
635.49	44851.69
635.64	44697.21
635.79	44753.38
635.94	44500.61
636.09	44521.67
636.24	44603.59
636.39	44542.74
636.53	44416.35
636.68	44158.89
636.83	44273.57
636.98	44177.61
637.13	44189.31
637.28	44275.91
637.43	44390.60
637.57	44608.27
637.72	43938.88
637.87	44311.02
638.02	44158.89
638.17	44397.62
638.32	43903.77
638.46	43550.35
638.61	43398.21
638.76	43901.43
638.91	44062.93
639.06	43896.75
639.20	43854.62
639.35	43426.30
639.50	43587.80
639.65	43793.76
639.80	44257.19
639.94	44058.24
640.09	44278.25
640.24	43892.07
640.39	43482.47
640.54	43498.86
640.68	44013.77
640.83	43917.81
640.98	43751.63
641.13	43098.62
641.27	44233.78
641.42	43365.45
641.57	43753.97
641.72	43430.98
641.86	43112.67
642.01	43587.80
642.16	43515.24
642.31	43217.99
642.45	43414.60
642.60	43295.23
642.75	43548.01
642.90	43367.79
643.04	43536.30
643.19	43391.19
643.34	42752.23
643.48	42658.60
643.63	43082.24
643.78	43260.12
643.93	43571.41
644.07	42883.30
644.22	42925.42
644.37	42930.11
644.51	42948.83
644.66	43161.82
644.81	43002.66
644.95	43260.12
645.10	42703.07
645.25	42824.78
645.39	42658.60
645.54	43222.67
645.69	42735.84
645.83	42586.05
645.98	42618.81
646.13	42852.87
646.27	42653.92
646.42	42260.71
646.57	42782.65
646.71	42890.32
646.86	42918.40
647.00	42857.55
647.15	43262.46
647.30	43129.05
647.44	42543.92
647.59	42628.18
647.74	42454.98
647.88	42756.91
648.03	42892.66
648.17	42822.44
648.32	42635.20
648.47	42686.69
648.61	42529.87
648.76	42815.42
648.90	42000.91
649.05	42646.90
649.20	42532.22
649.34	42878.61
649.49	42213.90
649.63	42550.94
649.78	42682.01
649.92	42162.41
650.07	42646.90
650.21	42473.70
650.36	42607.11
650.51	42398.80
650.65	42047.72
650.80	42185.82
650.94	42920.74
651.09	42618.81
651.23	41806.65
651.38	42085.17
651.52	41610.04
651.67	42155.39
651.81	41785.58
651.96	42047.72
652.10	41869.84
652.25	41450.89
652.39	41698.98
652.54	41869.84
652.68	41642.81
652.83	41820.69
652.97	41937.72
653.12	41612.38
653.26	41731.75
653.41	41801.97
653.55	41947.08
653.70	41731.75
653.84	41984.53
653.99	41778.56
654.13	41797.29
654.27	41624.09
654.42	41839.42
654.56	41179.39
654.71	41450.89
654.85	41556.21
655.00	41584.30
655.14	41797.29
655.29	41684.94
655.43	42108.58
655.57	41261.30
655.72	41450.89
655.86	40790.86
656.01	40741.71
656.15	40802.56
656.30	40999.16
656.44	41478.97
656.58	41214.49
656.73	41071.72
656.87	41041.29
657.01	40954.69
657.16	41340.88
657.30	41029.59
657.45	40774.47
657.59	41055.34
657.73	40542.76
657.88	41024.91
658.02	41003.85
658.16	40842.35
658.31	40891.50
658.45	40638.72
658.60	40847.03
658.74	40610.64
658.88	41111.51
659.03	40470.20
659.17	40545.10
659.31	39899.11
659.46	40502.97
659.60	40154.23
659.74	39924.86
659.89	39871.03
660.03	39569.10
660.17	40236.15
660.32	39892.09
660.46	40282.96
660.60	39569.10
660.74	39990.39
660.89	40334.45
661.03	39962.31
661.17	39557.39
661.32	39683.78
661.46	39683.78
661.60	39044.82
661.74	39473.13
661.89	39835.92
662.03	39651.02
662.17	39440.37
662.31	39091.63
662.46	39218.02
662.60	39491.86
662.74	39005.03
662.88	39248.44
663.03	38836.51
663.17	38527.56
663.31	38850.55
663.45	39103.33
663.60	39782.09
663.74	38527.56
663.88	38492.45
664.02	38899.70
664.17	39356.11
664.31	38611.82
664.45	38824.81
664.59	39054.18
664.73	38649.27
664.88	38579.05
665.02	38628.20
665.16	38202.22
665.30	38307.55
665.44	38108.60
665.59	38302.87
665.73	38347.34
665.87	37811.35
666.01	37879.23
666.15	38064.13
666.29	37785.61
666.44	38075.84
666.58	37806.67
666.72	37366.65
666.86	37694.33
667.00	37673.26
667.14	37631.13
667.28	37787.95
667.43	37476.66
667.57	37851.14
667.71	37556.24
667.85	37738.80
667.99	37460.27
668.13	37095.15
668.27	37223.88
668.41	37024.93
668.56	36788.54
668.70	36549.81
668.84	36737.05
668.98	36463.21
669.12	36793.22
669.26	36737.05
669.40	36629.38
669.54	36727.69
669.68	36584.91
669.82	36854.08
669.96	36032.55
670.10	36280.64
670.25	36332.14
670.39	35885.09
670.53	36280.64
670.67	36395.33
670.81	36617.68
670.95	36346.18
671.09	35981.06
671.23	35480.18
671.37	35999.78
671.51	36231.49
671.65	35693.17
671.79	35566.78
671.93	35725.94
672.07	35665.08
672.21	35302.30
672.35	35192.30
672.49	35138.46
672.63	35431.03
672.77	34843.56
672.91	35180.59
673.05	35220.38
673.19	34693.76
673.33	34890.37
673.47	35033.14
673.61	34873.98
673.75	34319.28
673.89	34199.91
674.03	34274.80
674.17	33851.17
674.31	33909.68
674.45	33862.87
674.59	33900.32
674.73	34005.64
674.87	33872.23
675.01	33848.83
675.15	33418.17
675.29	33064.75
675.43	33261.35
675.56	33500.09
675.70	33177.09
675.84	33200.50
675.98	32385.99
676.12	33083.47
676.26	33429.87
676.40	32779.20
676.54	32716.01
676.68	32704.31
676.82	32341.52
676.96	32706.65
677.10	32624.73
677.23	32570.90
677.37	32231.52
677.51	32121.51
677.65	32517.06
677.79	31913.20
677.93	32285.35
678.07	32067.68
678.21	31934.27
678.34	31461.48
678.48	31236.79
678.62	30951.24
678.76	31253.17
678.90	30918.48
679.04	31337.43
679.18	31393.61
679.31	31145.51
679.45	31122.10
679.59	31075.29
679.73	30731.23
679.87	30487.82
680.00	30801.45
680.14	30543.99
680.28	30445.69
680.42	30419.94
680.56	30038.44
680.70	30253.76
680.83	29713.10
680.97	29748.21
681.11	30040.78
681.25	29795.02
681.39	29549.26
681.52	29577.35
681.66	29237.97
681.80	28844.76
681.94	28940.72
682.07	29259.04
682.21	28596.67
682.35	28205.80
682.49	28697.31
682.62	28882.21
682.76	28669.22
682.90	28294.74
683.04	28606.03
683.17	28030.26
683.31	28556.88
683.45	27873.44
683.59	27941.32
683.72	27702.58
683.86	27585.55
684.00	27835.99
684.13	27477.89
684.27	27337.46
684.41	27218.09
684.55	27630.02
684.68	27234.47
684.82	26974.67
684.96	27264.90
685.09	27283.62
685.23	27012.12
685.37	27393.63
685.50	27292.99
685.64	26742.96
685.78	26644.66
685.91	26370.82
686.05	26244.43
686.19	25811.43
686.32	26026.76
686.46	26043.14
686.60	25706.10
686.73	25722.49
686.87	25968.24
687.01	25773.98
687.14	25495.46
687.28	25511.84
687.42	25261.40
687.55	25268.42
687.69	24807.34
687.82	24568.60
687.96	24865.85
688.10	25179.48
688.23	24812.02
688.37	25116.29
688.50	24947.77
688.64	24512.43
688.78	24315.83
688.91	24425.83
689.05	24147.31
689.18	24004.53
689.32	23616.01
689.46	23562.17
689.59	23821.97
689.73	23967.09
689.86	23751.76
690.00	23695.58
690.13	23800.91
690.27	23580.90
690.41	23475.57
690.54	23344.50
690.68	23370.25
690.81	23152.58
690.95	22717.24
691.08	22534.68
691.22	22326.37
691.35	22494.89
691.49	22977.04
691.62	22717.24
691.76	22195.30
691.89	22122.74
692.03	22326.37
692.16	22221.05
692.30	22050.19
692.43	22071.25
692.57	21549.31
692.70	21586.76
692.84	21621.87
692.97	21539.95
693.11	21376.11
693.24	21514.20
693.38	21076.52
693.51	21200.57
693.65	21020.35
693.78	21036.74
693.92	21053.12
694.05	20779.28
694.19	20559.27
694.32	20636.50
694.45	20695.02
694.59	21057.80
694.72	20587.35
694.86	20269.04
694.99	20383.73
695.13	20086.48
695.26	19981.15
695.39	19733.06
695.53	19789.23
695.66	19662.84
695.80	19487.30
695.93	19627.73
696.07	19484.96
696.20	19068.34
696.33	18857.70
696.47	19035.58
696.60	18813.23
696.73	18890.46
696.87	19084.73
697.00	18815.57
697.14	18831.95
697.27	18728.97
697.40	18515.98
697.54	18537.04
697.67	18211.71
697.80	18551.09
697.94	18448.10
698.07	18270.22
698.21	18253.84
698.34	18038.51
698.47	17975.31
698.61	17422.95
698.74	17338.69
698.87	17682.75
699.01	17539.97
699.14	17631.26
699.27	17525.93
699.40	17029.74
699.54	17378.48
699.67	17013.35
699.80	16968.88
699.94	17135.06
700.07	17041.44
700.20	16798.02
700.34	17123.36
700.47	16713.77
700.60	17088.25
700.73	16716.11
700.87	16327.58
701.00	16318.22
701.13	16198.85
701.26	16353.32
701.40	16271.40
701.53	15868.83
701.66	15969.48
701.79	15838.41
701.93	15995.22
702.06	15452.22
702.19	15510.73
702.32	15737.76
702.46	15683.93
702.59	15885.22
702.72	15714.36
702.85	15374.98
702.99	15220.50
703.12	15145.61
703.25	15197.10
703.38	15012.20
703.51	15030.92
703.65	14710.27
703.78	14611.96
703.91	14635.37
704.04	14579.20
704.17	14361.53
704.31	14162.58
704.44	14284.29
704.57	14609.62
704.70	14342.80
704.83	14150.88
704.96	14169.60
705.10	13914.48
705.23	13968.32
>>>>>End Processed Spectral Data<<<<<
