SpectraSuite Data File
++++++++++++++++++++++++++++++++++++
Date: Fri Oct 25 10:44:15 EDT 2013
User: price-jones
Dark Spectrum Present: No
Reference Spectrum Present: No
Number of Sampled Component Spectra: 1
Spectrometers: USB2+H05261
Integration Time (usec): 100000 (USB2+H05261)
Spectra Averaged: 1 (USB2+H05261)
Boxcar Smoothing: 0 (USB2+H05261)
Correct for Electrical Dark: No (USB2+H05261)
Strobe/Lamp Enabled: No (USB2+H05261)
Correct for Detector Non-linearity: No (USB2+H05261)
Correct for Stray Light: No (USB2+H05261)
Number of Pixels in Processed Spectrum: 2048
>>>>>Begin Processed Spectral Data<<<<<
365.73	138.09
365.92	138.09
366.12	138.09
366.32	37.45
366.52	44.47
366.72	77.24
366.91	9.36
367.11	37.45
367.31	30.43
367.51	32.77
367.70	58.51
367.90	65.54
368.10	0.00
368.30	18.72
368.49	72.56
368.69	58.51
368.89	9.36
369.09	51.49
369.28	37.45
369.48	9.36
369.68	79.58
369.87	93.62
370.07	88.94
370.27	147.45
370.47	191.92
370.66	433.00
370.86	381.51
371.06	449.38
371.25	498.53
371.45	418.96
371.65	512.58
371.84	461.09
372.04	468.11
372.24	580.45
372.44	451.72
372.63	519.60
372.83	503.22
373.03	550.03
373.22	538.32
373.42	561.73
373.62	578.11
373.81	526.62
374.01	463.43
374.21	482.15
374.40	550.03
374.60	617.90
374.79	547.69
374.99	575.77
375.19	559.39
375.38	688.12
375.58	599.18
375.78	629.60
375.97	575.77
376.17	594.50
376.37	624.92
376.56	613.22
376.76	559.39
376.95	615.56
377.15	713.86
377.35	657.69
377.54	624.92
377.74	641.31
377.93	596.84
378.13	706.84
378.33	667.05
378.52	655.35
378.72	655.35
378.91	664.71
379.11	575.77
379.31	594.50
379.50	638.97
379.70	667.05
379.89	709.18
380.09	699.82
380.28	627.26
380.48	746.63
380.68	671.73
380.87	723.23
381.07	692.80
381.26	725.57
381.46	720.88
381.65	641.31
381.85	737.27
382.04	676.41
382.24	695.14
382.43	720.88
382.63	669.39
382.83	727.91
383.02	690.46
383.22	706.84
383.41	727.91
383.61	791.10
383.80	814.51
384.00	688.12
384.19	777.06
384.39	713.86
384.58	746.63
384.78	805.14
384.97	800.46
385.17	835.57
385.36	844.93
385.56	798.12
385.75	819.19
385.95	882.38
386.14	861.32
386.34	816.85
386.53	919.83
386.72	809.83
386.92	858.98
387.11	823.87
387.31	866.00
387.50	903.45
387.70	919.83
387.89	877.70
388.09	851.96
388.28	847.27
388.48	833.23
388.67	926.85
388.86	912.81
389.06	863.66
389.25	1008.77
389.45	844.93
389.64	985.37
389.84	812.17
390.03	1064.94
390.22	1041.54
390.42	1013.45
390.61	1011.11
390.81	966.64
391.00	1097.71
391.19	992.39
391.39	1118.78
391.58	1100.05
391.78	983.02
391.97	1011.11
392.16	1025.15
392.36	1086.01
392.55	966.64
392.75	1022.81
392.94	1076.65
393.13	1069.62
393.33	992.39
393.52	999.41
393.71	1064.94
393.91	1102.39
394.10	1132.82
394.29	1188.99
394.49	1146.86
394.68	1224.10
394.88	1181.97
395.07	1179.63
395.26	1181.97
395.46	1088.35
395.65	1277.93
395.84	1299.00
396.04	1203.04
396.23	1174.95
396.42	1177.29
396.62	1188.99
396.81	1261.55
397.00	1291.98
397.19	1235.80
397.39	1228.78
397.58	1327.08
397.77	1308.36
397.97	1310.70
398.16	1411.34
398.35	1472.20
398.55	1483.90
398.74	1605.61
398.93	1516.67
399.12	1409.00
399.32	1565.82
399.51	1483.90
399.70	1526.03
399.90	1537.73
400.09	1638.38
400.28	1657.10
400.47	1572.84
400.67	1626.67
400.86	1600.93
401.05	1664.12
401.24	1652.42
401.44	1652.42
401.63	1591.56
401.82	1694.55
402.01	1760.08
402.21	1774.13
402.40	1722.63
402.59	1729.66
402.78	1806.89
402.97	1781.15
403.17	1846.68
403.36	1816.26
403.55	1732.00
403.74	1764.76
403.93	1849.02
404.13	1994.14
404.32	1830.30
404.51	1806.89
404.70	1923.92
404.89	1844.34
405.09	2017.54
405.28	1914.56
405.47	1872.43
405.66	1961.37
405.85	2001.16
406.05	1937.96
406.24	1970.73
406.43	2076.06
406.62	1994.14
406.81	2125.21
407.00	2073.71
407.20	2026.90
407.39	2036.27
407.58	2073.71
407.77	2122.87
407.96	2146.27
408.15	2176.70
408.34	2186.06
408.54	2328.83
408.73	2218.83
408.92	2214.15
409.11	2373.30
409.30	2314.79
409.49	2232.87
409.68	2253.94
409.87	2246.91
410.07	2289.04
410.26	2429.48
410.45	2455.22
410.64	2345.22
410.83	2541.82
411.02	2445.86
411.21	2576.93
411.40	2553.52
411.59	2612.04
411.78	2534.80
411.98	2597.99
412.17	2600.34
412.36	2649.49
412.55	2729.06
412.74	2679.91
412.93	2754.81
413.12	2761.83
413.31	2820.35
413.50	2885.88
413.69	2878.86
413.88	2869.50
414.07	2860.13
414.26	2979.50
414.45	2956.10
414.64	3005.25
414.83	3117.59
415.02	3005.25
415.22	3019.29
415.41	3075.46
415.60	3143.34
415.79	3178.45
415.98	3258.03
416.17	3260.37
416.36	3318.88
416.55	3293.13
416.74	3328.24
416.93	3204.19
417.12	3239.30
417.31	3260.37
417.50	3431.23
417.69	3407.82
417.88	3421.86
418.07	3435.91
418.26	3517.83
418.45	3574.00
418.64	3583.36
418.83	3691.02
419.02	3543.57
419.21	3662.94
419.39	3672.30
419.58	3517.83
419.77	3428.88
419.96	3599.74
420.15	3676.98
420.34	3644.21
420.53	3730.81
420.72	3824.44
420.91	3744.86
421.10	3908.69
421.29	3875.93
421.48	3789.33
421.67	3812.73
421.86	3918.06
422.05	3786.99
422.24	3716.77
422.43	3868.91
422.61	3859.54
422.80	3929.76
422.99	3976.57
423.18	3887.63
423.37	3948.48
423.56	3946.14
423.75	3882.95
423.94	3859.54
424.13	3686.34
424.32	3728.47
424.50	3992.95
424.69	3908.69
424.88	3941.46
425.07	3899.33
425.26	3796.35
425.45	3784.65
425.64	3955.51
425.83	3992.95
426.01	3934.44
426.20	4030.40
426.39	4058.49
426.58	3974.23
426.77	3892.31
426.96	3964.87
427.15	3932.10
427.33	3969.55
427.52	4002.32
427.71	4051.47
427.90	4067.85
428.09	4100.62
428.28	4145.09
428.46	4098.28
428.65	3953.16
428.84	4138.07
429.03	4290.20
429.22	4063.17
429.40	4229.35
429.59	4109.98
429.78	3922.74
429.97	3950.82
430.16	4074.87
430.34	4077.21
430.53	4131.05
430.72	4112.32
430.91	4252.75
431.10	4294.88
431.28	4454.04
431.47	4500.85
431.66	4479.79
431.85	4535.96
432.03	4582.77
432.22	4545.32
432.41	4610.86
432.60	4683.41
432.79	4748.95
432.97	4758.31
433.16	4664.69
433.35	4599.15
433.54	4606.17
433.72	4629.58
433.91	4624.90
434.10	4781.71
434.28	4784.06
434.47	4741.93
434.66	4828.53
434.85	4968.96
435.03	4950.23
435.22	5062.58
435.41	5125.77
435.59	5041.51
435.78	5158.54
435.97	5095.35
436.16	5041.51
436.34	5235.78
436.53	5034.49
436.72	5125.77
436.90	5001.72
437.09	5193.65
437.28	5090.67
437.46	5282.59
437.65	5228.76
437.84	5172.58
438.02	5083.64
438.21	5137.48
438.40	5163.22
438.58	5336.42
438.77	5425.36
438.96	5408.98
439.14	5497.92
439.33	5584.52
439.52	5659.42
439.70	5589.20
439.89	5614.95
440.08	5605.58
440.26	5741.33
440.45	5860.70
440.63	5872.40
440.82	5928.58
441.01	5844.32
441.19	5991.77
441.38	6073.69
441.57	6143.91
441.75	6167.31
441.94	6237.53
442.12	6406.05
442.31	6338.17
442.50	6291.36
442.68	6265.61
442.87	6368.60
443.05	6361.58
443.24	6553.50
443.43	6246.89
443.61	6469.24
443.80	6586.27
443.98	6253.91
444.17	6305.40
444.35	6626.06
444.54	6658.82
444.73	6480.94
444.91	6459.88
445.10	6441.15
445.28	6494.99
445.47	6345.19
445.65	6253.91
445.84	6534.78
446.02	6574.56
446.21	6520.73
446.39	6459.88
446.58	6665.85
446.77	6710.32
446.95	6513.71
447.14	6684.57
447.32	6902.24
447.51	6604.99
447.69	6462.22
447.88	6656.48
448.06	6668.19
448.25	6883.52
448.43	6703.29
448.62	6693.93
448.80	6640.10
448.99	6902.24
449.17	6803.94
449.36	6764.15
449.54	6850.75
449.73	6965.43
449.91	7162.04
450.10	6920.96
450.28	7155.02
450.46	7302.47
450.65	7124.59
450.83	7225.23
451.02	6977.14
451.20	7176.08
451.39	7075.44
451.57	7225.23
451.76	7215.87
451.94	7176.08
452.13	7269.70
452.31	7157.36
452.49	7157.36
452.68	7105.87
452.86	7059.06
453.05	7258.00
453.23	7414.82
453.42	7218.21
453.60	7400.77
453.78	7494.40
453.97	7363.33
454.15	7485.03
454.34	7304.81
454.52	7510.78
454.70	7456.95
454.89	7508.44
455.07	7447.58
455.26	7693.34
455.44	7758.88
455.62	7669.94
455.81	7747.17
455.99	7791.64
456.17	7784.62
456.36	7733.13
456.54	7960.16
456.73	8025.70
456.91	7754.19
457.09	8009.31
457.28	8304.22
457.46	8079.53
457.64	8159.11
457.83	8070.17
458.01	8002.29
458.19	8142.72
458.38	8191.88
458.56	8187.19
458.74	8280.82
458.93	8259.75
459.11	8446.99
459.29	7978.89
459.48	8435.29
459.66	8212.94
459.84	8496.14
460.03	8557.00
460.21	8372.10
460.39	8641.26
460.57	8458.70
460.76	8430.61
460.94	8564.02
461.12	8650.62
461.31	8549.98
461.49	8627.21
461.67	8526.57
461.85	8870.63
462.04	8816.80
462.22	8854.25
462.40	8889.35
462.59	8980.64
462.77	8957.23
462.95	8872.97
463.13	8877.65
463.32	9081.28
463.50	8828.50
463.68	9011.06
463.86	9008.72
464.05	8828.50
464.23	9088.30
464.41	9170.22
464.59	8894.04
464.78	9025.11
464.96	8971.27
465.14	8821.48
465.32	9090.64
465.50	9198.31
465.69	9369.16
465.87	9193.62
466.05	9107.02
466.23	9160.86
466.41	9102.34
466.60	9387.89
466.78	9172.56
466.96	9165.54
467.14	9303.63
467.32	9247.46
467.51	9448.74
467.69	9085.96
467.87	9366.82
468.05	9535.34
468.23	9364.48
468.41	9324.69
468.60	9516.62
468.78	9577.47
468.96	9392.57
469.14	9760.03
469.32	9717.90
469.50	9266.18
469.69	9870.04
469.87	9790.46
470.05	9659.39
470.23	9827.91
470.41	9961.32
470.59	9589.17
470.77	9930.89
470.95	9877.06
471.14	10122.82
471.32	9956.64
471.50	10197.71
471.68	10281.97
471.86	10160.27
472.04	10441.13
472.22	10623.69
472.40	10246.87
472.58	10471.56
472.77	10293.68
472.95	10480.92
473.13	10932.64
473.31	10537.09
473.49	10450.49
473.67	10553.48
473.85	10794.55
474.03	10878.81
474.21	10801.57
474.39	11260.32
474.57	10930.30
474.75	11117.54
474.93	11297.77
475.12	11084.78
475.30	11325.85
475.48	11143.29
475.66	11276.70
475.84	11150.31
476.02	11346.92
476.20	11353.94
476.38	11520.12
476.56	12016.31
476.74	11908.65
476.92	11803.32
477.10	11770.55
477.28	12140.36
477.46	12133.34
477.64	12161.42
477.82	12168.45
478.00	12697.41
478.18	12449.31
478.36	12507.82
478.54	12676.34
478.72	12802.73
478.90	12725.49
479.08	13043.81
479.26	13221.69
479.44	13055.51
479.62	13193.60
479.80	13242.75
479.98	13366.80
480.16	13551.70
480.34	13596.17
480.52	13668.73
480.70	13799.80
480.88	13481.49
481.06	13827.88
481.24	13778.73
481.41	14281.95
481.59	14202.37
481.77	14422.38
481.95	14349.82
482.13	14698.56
482.31	14738.35
482.49	14710.27
482.67	14913.89
482.85	15059.01
483.03	15140.93
483.21	15297.74
483.39	15527.11
483.57	15295.40
483.74	15372.64
483.92	15566.90
484.10	15325.83
484.28	15791.59
484.46	16208.21
484.64	16255.02
484.82	16002.24
485.00	16475.03
485.18	16578.01
485.35	16472.69
485.53	15988.20
485.71	16159.06
485.89	16397.79
486.07	16159.06
486.25	16498.44
486.43	16578.01
486.61	16971.22
486.78	17018.04
486.96	17334.01
487.14	17727.22
487.32	17703.81
487.50	18209.37
487.68	17893.40
487.85	18417.68
488.03	18684.50
488.21	18237.45
488.39	18623.64
488.57	18450.44
488.75	18773.44
488.92	19140.90
489.10	19281.33
489.28	19330.48
489.46	19723.69
489.64	19534.11
489.81	19906.26
489.99	20177.76
490.17	20152.01
490.35	19995.20
490.53	20027.96
490.70	20285.42
490.88	20306.49
491.06	20748.85
491.24	20538.20
491.41	20896.30
491.59	20908.01
491.77	21025.03
491.95	20978.22
492.13	21120.99
492.30	21493.14
492.48	21603.14
492.66	21764.64
492.84	21717.83
493.01	21830.18
493.19	22029.12
493.37	22272.54
493.54	22331.05
493.72	22579.15
493.90	22590.85
494.08	23049.60
494.25	23192.37
494.43	22656.39
494.61	23625.37
494.79	23335.14
494.96	23639.41
495.14	23358.55
495.32	23777.50
495.49	23812.61
495.67	24011.56
495.85	23770.48
496.02	24119.22
496.20	24657.54
496.38	24645.84
496.55	24510.09
496.73	24931.39
496.91	24879.89
497.09	24734.78
497.26	25291.83
497.44	24849.47
497.62	25144.38
497.79	25729.51
497.97	25216.93
498.14	25219.27
498.32	25830.15
498.50	25778.66
498.67	26022.08
498.85	25635.89
499.03	26005.69
499.20	26431.67
499.38	26274.85
499.56	26139.10
499.73	26508.91
499.91	26567.42
500.08	26616.57
500.26	26270.17
500.44	26759.34
500.61	26661.04
500.79	26579.12
500.97	26714.87
501.14	27096.38
501.32	26773.39
501.49	27077.66
501.67	27236.81
501.84	27098.72
502.02	27426.40
502.20	27611.30
502.37	28247.93
502.55	27826.63
502.72	27700.24
502.90	27948.34
503.07	28091.11
503.25	27971.74
503.43	27906.21
503.60	27950.68
503.78	27962.38
503.95	27938.97
504.13	28041.96
504.30	28701.99
504.48	28561.56
504.65	28961.79
504.83	29034.35
505.01	29270.74
505.18	29071.79
505.36	29268.40
505.53	29380.74
505.71	29755.23
505.88	29715.44
506.06	29209.89
506.23	30146.10
506.41	29460.32
506.58	29415.85
506.76	29790.34
506.93	30113.33
507.11	29530.54
507.28	30520.59
507.46	29727.14
507.63	29895.66
507.81	30382.49
507.98	30228.02
508.16	30551.01
508.33	30754.64
508.50	30785.07
508.68	30759.32
508.85	31360.84
509.03	31028.48
509.20	30981.67
509.38	30993.37
509.55	31033.16
509.73	31351.48
509.90	31197.00
510.08	31173.60
510.25	31578.51
510.42	31503.61
510.60	31714.26
510.77	31936.61
510.95	31721.28
511.12	31875.76
511.30	32079.38
511.47	32353.23
511.64	32268.97
511.82	32751.12
511.99	31964.70
512.17	32479.61
512.34	31871.07
512.51	32500.68
512.69	32788.56
512.86	32397.70
513.04	32699.62
513.21	32655.15
513.38	33111.56
513.56	32699.62
513.73	32629.41
513.90	33383.06
514.08	33249.65
514.25	33247.31
514.43	33165.39
514.60	33418.17
514.77	33476.68
514.95	34117.99
515.12	33500.09
515.29	33799.68
515.47	34040.75
515.64	33935.43
515.81	33553.92
515.99	33448.60
516.16	33696.69
516.33	33591.37
516.51	33708.40
516.68	33174.75
516.85	33275.40
517.03	33589.03
517.20	34026.71
517.37	33951.81
517.54	34249.06
517.72	34141.39
517.89	34085.22
518.06	34347.36
518.24	34541.63
518.41	34181.18
518.58	33930.75
518.75	34595.46
518.93	34801.43
519.10	34513.54
519.27	34986.33
519.45	34953.56
519.62	35117.40
519.79	35154.85
519.96	35283.58
520.14	35716.58
520.31	35131.44
520.48	35456.78
520.65	35758.70
520.83	35786.79
521.00	35625.29
521.17	35791.47
521.34	36020.84
521.52	36287.67
521.69	35810.20
521.86	36456.18
522.03	35775.09
522.20	36217.45
522.38	36360.22
522.55	36318.09
522.72	35901.48
522.89	35995.10
523.07	36400.01
523.24	36718.32
523.41	37097.49
523.58	37144.30
523.75	36954.72
523.92	37413.46
524.10	37324.52
524.27	37287.07
524.44	36928.97
524.61	37411.12
524.78	37689.65
524.96	37607.73
525.13	37439.21
525.30	38078.18
525.47	37722.41
525.64	37406.44
525.81	37675.60
525.98	37926.04
526.16	37532.83
526.33	37258.99
526.50	37783.27
526.67	37305.80
526.84	37537.51
527.01	37612.41
527.18	37570.28
527.36	38045.41
527.53	38328.61
527.70	38398.83
527.87	38380.10
528.04	38218.61
528.21	38539.26
528.38	37975.19
528.55	38775.66
528.72	38778.00
528.89	39117.37
529.07	38941.83
529.24	38494.79
529.41	38770.97
529.58	38953.54
529.75	38642.24
529.92	38880.98
530.09	38937.15
530.26	39159.50
530.43	39276.53
530.60	39131.42
530.77	39328.02
530.94	39229.72
531.11	39084.61
531.28	39168.87
531.46	39484.84
531.63	39768.04
531.80	39735.27
531.97	39435.69
532.14	39431.01
532.31	39012.05
532.48	39131.42
532.65	39599.52
532.82	39423.98
532.99	39386.54
533.16	39718.89
533.33	40362.54
533.50	40016.14
533.67	40495.95
533.84	40257.21
534.01	40381.26
534.18	40191.68
534.35	40556.80
534.52	39742.30
534.69	40762.77
534.86	41102.15
535.03	40325.09
535.20	40870.43
535.37	40907.88
535.54	40996.82
535.71	40669.15
535.88	40818.94
536.05	40701.92
536.22	40744.05
536.38	41064.70
536.55	40587.23
536.72	40423.39
536.89	40502.97
537.06	40577.87
537.23	41392.37
537.40	41029.59
537.57	41242.58
537.74	41336.20
537.91	41322.16
538.08	40865.75
538.25	40961.72
538.42	41134.92
538.59	41722.39
538.75	41134.92
538.92	41254.28
539.09	41387.69
539.26	41434.50
539.43	41275.35
539.60	41280.03
539.77	41413.44
539.94	41497.70
540.11	41254.28
540.28	41436.84
540.44	41619.41
540.61	41675.58
540.78	41542.17
540.95	41139.60
541.12	41579.62
541.29	41462.59
541.46	41497.70
541.62	41804.31
541.79	42223.26
541.96	41680.26
542.13	42120.28
542.30	41673.24
542.47	41830.05
542.63	41902.61
542.80	42185.82
542.97	42389.44
543.14	42897.34
543.31	42649.24
543.48	42401.14
543.64	42887.98
543.81	43093.94
543.98	43192.25
544.15	42604.77
544.32	42773.29
544.48	43447.36
544.65	43180.54
544.82	42728.82
544.99	42682.01
545.16	43065.86
545.32	42738.18
545.49	43606.52
545.66	43388.85
545.83	43086.92
546.00	43421.62
546.16	42920.74
546.33	43037.77
546.50	42574.34
546.67	43573.75
546.83	42642.22
547.00	42906.70
547.17	43122.03
547.34	43318.64
547.50	43379.49
547.67	43786.74
547.84	43569.07
548.00	43585.46
548.17	44032.50
548.34	43548.01
548.51	44421.03
548.67	44034.84
548.84	43711.84
549.01	43653.33
549.18	43662.69
549.34	43643.97
549.51	44240.81
549.68	44311.02
549.84	44055.90
550.01	43981.01
550.18	43992.71
550.34	43845.26
550.51	43882.70
550.68	44025.48
550.84	43482.47
551.01	44526.35
551.18	44315.70
551.34	44004.41
551.51	44889.13
551.68	44505.29
551.84	44397.62
552.01	44254.85
552.18	44369.54
552.34	44030.16
552.51	44364.85
552.68	44282.94
552.84	44533.37
553.01	44369.54
553.18	44706.57
553.34	44624.65
553.51	44233.78
553.67	44509.97
553.84	44626.99
554.01	44666.78
554.17	44954.67
554.34	44769.77
554.51	45059.99
554.67	44725.30
554.84	44715.93
555.00	45017.86
555.17	44823.60
555.33	44648.06
555.50	44580.18
555.67	44648.06
555.83	44898.50
556.00	45088.08
556.16	45151.27
556.33	44776.79
556.50	44603.59
556.66	44893.82
556.83	44652.74
556.99	45603.00
557.16	45296.39
557.32	45034.25
557.49	45228.51
557.65	45095.10
557.82	45155.96
557.98	45170.00
558.15	45198.09
558.32	45088.08
558.48	44872.75
558.65	45368.94
558.81	44884.45
558.98	44945.31
559.14	45216.81
559.31	45050.63
559.47	45263.62
559.64	45621.72
559.80	45694.28
559.97	45382.99
560.13	45471.93
560.30	45584.27
560.46	45689.60
560.63	45336.18
560.79	45251.92
560.96	45565.55
561.12	45727.05
561.29	45567.89
561.45	45186.38
561.61	45294.05
561.78	45137.23
561.94	45418.10
562.11	45518.74
562.27	45244.90
562.44	45474.27
562.60	45787.90
562.77	45427.46
562.93	45507.04
563.10	45720.02
563.26	45095.10
563.42	45787.90
563.59	45254.26
563.75	45888.54
563.92	45893.22
564.08	45872.16
564.24	45755.13
564.41	45769.18
564.57	45666.19
564.74	45698.96
564.90	45509.38
565.07	45794.92
565.23	45647.47
565.39	45904.93
565.56	45918.97
565.72	45329.16
565.88	45619.38
566.05	45436.82
566.21	45710.66
566.38	45755.13
566.54	45532.78
566.70	46057.06
566.87	46129.62
567.03	45434.48
567.19	46469.00
567.36	46270.05
567.52	45958.76
567.68	46031.32
567.85	45801.94
568.01	46164.73
568.17	45815.99
568.34	45628.74
568.50	45925.99
568.66	45853.44
568.83	45808.96
568.99	45717.68
569.15	45490.65
569.32	46157.70
569.48	46003.23
569.64	46314.52
569.81	46223.24
569.97	46050.04
570.13	45703.64
570.30	45343.20
570.46	45940.04
570.62	45619.38
570.78	45853.44
570.95	45888.54
571.11	45766.84
571.27	45813.65
571.43	45507.04
571.60	46052.38
571.76	46096.85
571.92	45659.17
572.09	45940.04
572.25	46141.32
572.41	46316.86
572.57	45949.40
572.74	46305.16
572.90	46401.12
573.06	46153.02
573.22	46143.66
573.38	45558.53
573.55	45886.20
573.71	46270.05
573.87	46607.09
574.03	45935.35
574.20	46232.60
574.36	45984.51
574.52	46007.91
574.68	46148.34
574.84	45860.46
575.01	46408.14
575.17	45722.37
575.33	45883.86
575.49	45853.44
575.65	45888.54
575.82	45837.05
575.98	45811.31
576.14	46492.40
576.30	46597.73
576.46	45970.46
576.62	46113.23
576.79	45867.48
576.95	45876.84
577.11	45963.44
577.27	46017.27
577.43	45928.33
577.59	46155.36
577.75	45986.85
577.92	45787.90
578.08	45778.54
578.24	45904.93
578.40	45862.80
578.56	46103.87
578.72	45991.53
578.88	45925.99
579.04	46309.84
579.21	46396.44
579.37	46375.37
579.53	46614.11
579.69	45717.68
579.85	46265.37
580.01	46672.62
580.17	46050.04
580.33	45998.55
580.49	46419.84
580.65	46190.47
580.82	46298.14
580.98	46092.17
581.14	45940.04
581.30	46384.74
581.46	46153.02
581.62	46216.22
581.78	46209.20
581.94	46759.22
582.10	45717.68
582.26	46106.21
582.42	46033.66
582.58	46473.68
582.74	46195.15
582.90	46195.15
583.06	46527.51
583.22	46665.60
583.38	46424.53
583.54	46323.88
583.70	46513.47
583.86	45923.65
584.02	46054.72
584.18	46529.85
584.34	46089.83
584.50	45956.42
584.66	46218.56
584.82	46131.96
584.98	46412.82
585.14	46323.88
585.30	46150.68
585.46	46705.39
585.62	46319.20
585.78	46216.22
585.94	45645.13
586.10	45865.14
586.26	46199.83
586.42	47012.00
586.58	46164.73
586.74	46188.13
586.90	46108.55
587.06	46031.32
587.22	46384.74
587.38	46066.42
587.54	46358.99
587.70	46354.31
587.86	46024.29
588.02	46183.45
588.18	46361.33
588.34	46129.62
588.49	45830.03
588.65	45434.48
588.81	45287.03
588.97	45806.62
589.13	45804.28
589.29	45399.37
589.45	46003.23
589.61	46302.82
589.77	46330.90
589.93	46419.84
590.08	46293.46
590.24	46382.40
590.40	46791.99
590.56	47096.26
590.72	46670.28
590.88	46396.44
591.04	46461.97
591.20	46904.34
591.35	46597.73
591.51	46738.16
591.67	46525.17
591.83	46618.79
591.99	46080.47
592.15	46571.98
592.31	46302.82
592.46	46443.25
592.62	46117.92
592.78	46396.44
592.94	46454.95
593.10	46443.25
593.26	46721.77
593.41	46686.67
593.57	46197.49
593.73	46209.20
593.89	46073.45
594.05	46464.32
594.20	46454.95
594.36	46466.66
594.52	46157.70
594.68	46237.28
594.84	46028.98
594.99	46499.42
595.15	46426.87
595.31	46515.81
595.47	46412.82
595.62	46644.54
595.78	46815.40
595.94	46672.62
596.10	46703.05
596.25	46890.29
596.41	46417.50
596.57	46899.65
596.73	46674.96
596.88	45855.78
597.04	46178.77
597.20	46703.05
597.36	46129.62
597.51	46471.34
597.67	46461.97
597.83	46756.88
597.99	46770.93
598.14	46756.88
598.30	46305.16
598.46	46635.17
598.61	46646.88
598.77	46141.32
598.93	46160.05
599.09	46380.06
599.24	47093.92
599.40	46532.19
599.56	46906.68
599.71	46410.48
599.87	46302.82
600.03	46239.62
600.18	46281.75
600.34	46461.97
600.50	46623.47
600.65	46417.50
600.81	46855.18
600.97	47063.49
601.12	46354.31
601.28	46483.04
601.44	46396.44
601.59	46293.46
601.75	46274.73
601.91	45979.82
602.06	46246.65
602.22	46274.73
602.37	46454.95
602.53	46712.41
602.69	46768.58
602.84	46438.57
603.00	46604.75
603.16	46738.16
603.31	46586.02
603.47	46424.53
603.62	46389.42
603.78	46494.74
603.94	46387.08
604.09	46791.99
604.25	46487.72
604.40	46087.49
604.56	46307.50
604.71	46546.23
604.87	46167.07
605.03	45895.56
605.18	46314.52
605.34	46553.26
605.49	46176.43
605.65	46653.90
605.80	45925.99
605.96	46078.13
606.12	46394.10
606.27	46515.81
606.43	46089.83
606.58	46164.73
606.74	46153.02
606.89	46146.00
607.05	46073.45
607.20	46550.91
607.36	46639.86
607.51	46387.08
607.67	45827.69
607.82	46607.09
607.98	46096.85
608.13	45794.92
608.29	45984.51
608.44	45745.77
608.60	45624.06
608.75	45883.86
608.91	45881.52
609.06	45963.44
609.22	46270.05
609.37	45841.73
609.53	45593.64
609.68	45876.84
609.84	45909.61
609.99	45734.07
610.15	45794.92
610.30	45923.65
610.46	45467.25
610.61	45879.18
610.76	46005.57
610.92	45797.26
611.07	45879.18
611.23	45827.69
611.38	45855.78
611.54	45642.79
611.69	45614.70
611.84	45404.05
612.00	45874.50
612.15	45813.65
612.31	45766.84
612.46	45670.87
612.62	45361.92
612.77	45687.26
612.92	46033.66
613.08	45553.85
613.23	45254.26
613.39	45205.11
613.54	45397.03
613.69	45090.42
613.85	45268.30
614.00	45188.72
614.15	45947.06
614.31	45443.84
614.46	45191.06
614.62	45462.57
614.77	44947.65
614.92	45155.96
615.08	44903.18
615.23	45219.15
615.38	45111.49
615.54	44917.22
615.69	44870.41
615.84	45141.91
616.00	45074.04
616.15	45137.23
616.30	44863.39
616.46	44776.79
616.61	44432.73
616.76	44985.10
616.92	44479.54
617.07	44147.18
617.22	44566.14
617.37	44151.87
617.53	44758.06
617.68	45130.21
617.83	44893.82
617.99	44973.39
618.14	44954.67
618.29	45249.58
618.45	44526.35
618.60	44556.78
618.75	44474.86
618.90	44694.87
619.06	44404.64
619.21	45041.27
619.36	45022.54
619.51	44673.81
619.67	44444.43
619.82	44168.25
619.97	44477.20
620.12	44662.10
620.28	44233.78
620.43	44362.51
620.58	44570.82
620.73	44196.34
620.89	44385.92
621.04	44493.58
621.19	43995.05
621.34	44273.57
621.49	44257.19
621.65	44058.24
621.80	44741.68
621.95	43590.14
622.10	44041.86
622.25	43882.70
622.41	43672.06
622.56	43943.56
622.71	43945.90
622.86	43672.06
623.01	43899.09
623.16	44528.69
623.32	43695.46
623.47	44273.57
623.62	44156.55
623.77	43777.38
623.92	43648.65
624.07	43831.21
624.23	43660.35
624.38	43538.65
624.53	43365.45
624.68	43669.72
624.83	43456.73
624.98	43660.35
625.13	43578.43
625.29	43952.92
625.44	43625.25
625.59	43196.93
625.74	43044.79
625.89	43075.22
626.04	43178.20
626.19	43529.28
626.34	43393.53
626.49	43480.13
626.65	43342.04
626.80	43344.38
626.95	43269.48
627.10	43192.25
627.25	43253.10
627.40	42635.20
627.55	42679.67
627.70	42031.34
627.85	42520.51
628.00	42263.05
628.15	42707.76
628.30	42972.24
628.45	42904.36
628.60	42775.63
628.76	42967.55
628.91	43049.47
629.06	42738.18
629.21	42265.39
629.36	42270.08
629.51	42487.74
629.66	42562.64
629.81	41954.10
629.96	42340.29
630.11	42398.80
630.26	42607.11
630.41	42925.42
630.56	42632.86
630.71	42766.27
630.86	42579.03
631.01	42405.83
631.16	42309.86
631.31	42433.91
631.46	42164.75
631.61	42333.27
631.76	42120.28
631.91	42630.52
632.06	42218.58
632.21	42047.72
632.36	42316.89
632.51	42323.91
632.66	41642.81
632.81	41567.91
632.96	41790.27
633.10	42195.18
633.25	42085.17
633.40	41858.14
633.55	42316.89
633.70	42059.43
633.85	41876.86
634.00	42068.79
634.15	41783.24
634.30	41846.44
634.45	41755.16
634.60	41680.26
634.75	42036.02
634.90	41745.80
635.05	42000.91
635.19	41729.41
635.34	41865.16
635.49	41390.03
635.64	41347.90
635.79	41263.64
635.94	41303.43
636.09	41333.86
636.24	41593.66
636.39	41097.47
636.53	41273.01
636.68	41303.43
636.83	41493.02
636.98	41420.46
637.13	40940.65
637.28	41287.05
637.43	41640.47
637.57	41530.47
637.72	41633.45
637.87	40975.76
638.02	41448.55
638.17	41233.22
638.32	41333.86
638.46	41340.88
638.61	41055.34
638.76	40935.97
638.91	41029.59
639.06	41045.97
639.20	41226.20
639.35	41277.69
639.50	40879.80
639.65	41282.37
639.80	40912.56
639.94	40865.75
640.09	40917.25
640.24	40559.14
640.39	40360.20
640.54	40823.62
640.68	40886.82
640.83	40470.20
640.98	40306.37
641.13	40463.18
641.27	40437.44
641.42	40788.52
641.57	40463.18
641.72	40631.70
641.86	40264.24
642.01	40243.17
642.16	40491.27
642.31	40177.64
642.45	40800.22
642.60	40175.30
642.75	40428.07
642.90	40079.33
643.04	40254.87
643.19	40088.70
643.34	40079.33
643.48	39896.77
643.63	39665.06
643.78	40011.46
643.93	39765.70
644.07	40067.63
644.22	39952.94
644.37	39466.11
644.51	39742.30
644.66	39885.07
644.81	40114.44
644.95	40130.83
645.10	40463.18
645.25	40032.52
645.39	40058.27
645.54	39861.66
645.69	39344.41
645.83	39714.21
645.98	40060.61
646.13	39480.16
646.27	39754.00
646.42	39704.85
646.57	39077.58
646.71	39522.29
646.86	39665.06
647.00	39566.76
647.15	39658.04
647.30	39449.73
647.44	39213.34
647.59	39564.42
647.74	39037.80
647.88	39583.14
648.03	39459.09
648.17	39604.20
648.32	39035.45
648.47	39285.89
648.61	39100.99
648.76	39739.96
648.90	39150.14
649.05	39456.75
649.20	38951.20
649.34	39168.87
649.49	38770.97
649.63	38923.11
649.78	38770.97
649.92	38653.95
650.07	39419.30
650.21	38766.29
650.36	38899.70
650.51	38553.30
650.65	39431.01
650.80	39618.25
650.94	39423.98
651.09	39023.75
651.23	38827.15
651.38	38990.98
651.52	38490.11
651.67	38644.59
651.81	38515.86
651.96	38007.96
652.10	38256.06
652.25	38569.69
652.39	38745.23
652.54	38754.59
652.68	38274.78
652.83	38424.57
652.97	38665.65
653.12	38515.86
653.26	38382.45
653.41	38382.45
653.55	38045.41
653.70	38548.62
653.84	38494.79
653.99	38110.94
654.13	38480.75
654.27	38171.80
654.42	38005.62
654.56	37907.32
654.71	38370.74
654.85	38508.83
655.00	38291.16
655.14	38022.00
655.29	38263.08
655.43	37776.25
655.57	37727.10
655.72	37326.86
655.86	37502.40
656.01	37113.87
656.15	37174.73
656.30	36985.15
656.44	37464.96
656.58	37469.64
656.73	37539.85
656.87	37322.18
657.01	37399.42
657.16	37776.25
657.30	37146.64
657.45	37401.76
657.59	37544.53
657.73	37509.43
657.88	37581.98
658.02	37481.34
658.16	37902.64
658.31	37528.15
658.45	37364.31
658.60	37076.43
658.74	36982.80
658.88	37373.67
659.03	36975.78
659.17	37041.32
659.31	37116.22
659.46	37076.43
659.60	37151.32
659.74	36601.30
659.89	36893.86
660.03	36720.66
660.17	37013.23
660.32	36746.41
660.46	36692.58
660.60	36816.63
660.74	36566.19
660.89	36783.86
661.03	36208.09
661.17	36360.22
661.32	36341.50
661.46	36266.60
661.60	36088.72
661.74	36556.83
661.89	36367.24
662.03	36404.69
662.17	36149.57
662.31	36081.70
662.46	36196.38
662.60	36353.20
662.74	36435.12
662.88	36135.53
663.03	35599.55
663.17	35969.35
663.31	35377.20
663.45	35686.15
663.60	35983.40
663.74	35725.94
663.88	35608.91
664.02	35360.81
664.17	35644.02
664.31	35519.97
664.45	35515.29
664.59	35236.77
664.73	35349.11
664.88	35267.19
665.02	35264.85
665.16	35374.86
665.30	35042.50
665.44	35211.02
665.59	34738.23
665.73	34857.60
665.87	34958.24
666.01	34988.67
666.15	34972.28
666.29	34953.56
666.44	35021.44
666.58	34759.30
666.72	34609.50
666.86	34588.44
667.00	34560.35
667.14	34459.71
667.28	34134.37
667.43	34129.69
667.57	34426.94
667.71	34150.76
667.85	34401.19
667.99	34127.35
668.13	33853.51
668.27	33902.66
668.41	34520.56
668.56	33769.25
668.70	34045.43
668.84	34167.14
668.98	33205.18
669.12	33579.67
669.26	33429.87
669.40	33280.08
669.54	33422.85
669.68	33310.50
669.82	33521.15
669.96	33067.09
670.10	32765.16
670.25	33659.24
670.39	32982.83
670.53	33015.60
670.67	33230.93
670.81	33137.30
670.95	33324.55
671.09	32870.48
671.23	32692.60
671.37	32835.38
671.51	32680.90
671.65	32086.40
671.79	32570.90
671.93	32538.13
672.07	32919.63
672.21	32739.41
672.35	32161.30
672.49	32390.67
672.63	32479.61
672.77	32503.02
672.91	32400.04
673.05	32163.64
673.19	32147.26
673.33	31833.63
673.47	31775.11
673.61	31482.55
673.75	31393.61
673.89	31438.08
674.03	31321.05
674.17	31496.59
674.31	31248.49
674.45	31218.07
674.59	31487.23
674.73	31489.57
674.87	31189.98
675.01	31129.12
675.15	30745.28
675.29	31033.16
675.43	30906.77
675.56	31035.50
675.70	30787.41
675.84	30595.48
675.98	29832.47
676.12	30396.54
676.26	30817.83
676.40	30160.14
676.54	30515.90
676.68	30391.86
676.82	29823.11
676.96	30469.09
677.10	29731.83
677.23	29916.73
677.37	29628.84
677.51	29567.99
677.65	29612.46
677.79	28926.68
677.93	29521.18
678.07	29146.69
678.21	28893.91
678.34	28704.33
678.48	28900.94
678.62	28840.08
678.76	28407.08
678.90	28666.88
679.04	28561.56
679.18	28456.23
679.31	28669.22
679.45	28020.89
679.59	28247.93
679.73	27999.83
679.87	28175.37
680.00	27892.16
680.14	27763.43
680.28	27997.49
680.42	27672.15
680.56	27903.87
680.70	27667.47
680.83	27887.48
680.97	27459.16
681.11	27742.37
681.25	27126.81
681.39	27381.93
681.52	27608.96
681.66	27229.79
681.80	27005.10
681.94	26988.72
682.07	26923.18
682.21	26874.03
682.35	26747.64
682.49	26754.66
682.62	26345.07
682.76	26230.38
682.90	26384.86
683.04	26092.29
683.17	26122.72
683.31	25809.09
683.45	25900.37
683.59	25860.58
683.72	25865.26
683.86	25898.03
684.00	25490.77
684.13	25638.23
684.27	25528.22
684.41	25301.19
684.55	25399.49
684.68	25184.16
684.82	24915.00
684.96	25373.75
685.09	25076.50
685.23	25001.60
685.37	25067.14
685.50	24807.34
685.64	24739.46
685.78	24472.64
685.91	24463.28
686.05	24205.82
686.19	24360.30
686.32	23789.20
686.46	23543.45
686.60	23627.71
686.73	23564.51
686.87	23417.06
687.01	23314.08
687.14	23166.62
687.28	23133.86
687.42	23372.59
687.55	23068.32
687.69	23108.11
687.82	22937.25
687.96	23213.43
688.10	23145.56
688.23	22909.16
688.37	22370.84
688.50	22663.41
688.64	22686.81
688.78	22541.70
688.91	22476.16
689.05	22522.98
689.18	22391.91
689.32	22211.68
689.46	22113.38
689.59	22216.36
689.73	22256.15
689.86	21909.75
690.00	21902.73
690.13	21895.71
690.27	21673.36
690.41	21774.00
690.54	21181.85
690.68	21659.32
690.81	20954.82
690.95	21355.05
691.08	21242.70
691.22	21479.10
691.35	21355.05
691.49	21060.14
691.62	21142.06
691.76	20919.71
691.89	21111.63
692.03	20842.47
692.16	20996.95
692.30	20697.36
692.43	20194.14
692.57	20339.26
692.70	19936.68
692.84	20034.99
692.97	19868.81
693.11	19901.58
693.24	20091.16
693.38	19714.33
693.51	19674.54
693.65	19817.32
693.78	19765.82
693.92	19711.99
694.05	19590.28
694.19	19576.24
694.32	19447.51
694.45	19318.78
694.59	18958.34
694.72	18970.04
694.86	19138.56
694.99	18815.57
695.13	18778.12
695.26	18590.88
695.39	18504.28
695.53	18712.58
695.66	18586.19
695.80	18696.20
695.93	18541.72
696.07	18223.41
696.20	18506.62
696.33	18333.42
696.47	18281.92
696.60	18003.40
696.73	18038.51
696.87	18125.11
697.00	17998.72
697.14	17804.46
697.27	17701.47
697.40	17909.78
697.54	17542.32
697.67	17495.50
697.80	17179.53
697.94	17151.45
698.07	17188.89
698.21	17135.06
698.34	16994.63
698.47	17151.45
698.61	16898.67
698.74	16791.00
698.87	16556.95
699.01	16482.05
699.14	16463.33
699.27	16353.32
699.40	16556.95
699.54	16128.63
699.67	16439.92
699.80	16259.70
699.94	16130.97
700.07	16217.57
700.20	16006.92
700.34	16116.93
700.47	15983.52
700.60	16133.31
700.73	15824.36
700.87	15686.27
701.00	16081.82
701.13	15433.49
701.26	15456.90
701.40	15480.30
701.53	15726.06
701.66	15594.99
701.79	15311.78
701.93	15349.23
702.06	15080.07
702.19	14808.57
702.32	15185.40
702.46	14979.43
702.59	14757.08
702.72	14850.70
702.85	14853.04
702.99	14586.22
703.12	14600.26
703.25	14698.56
703.38	14422.38
703.51	14579.20
703.65	14452.81
703.78	14431.74
703.91	14216.41
704.04	14223.44
704.17	14331.10
704.31	14169.60
704.44	14354.51
704.57	14001.08
704.70	13722.56
704.83	13755.33
704.96	13631.28
705.10	13792.78
705.23	13853.63
>>>>>End Processed Spectral Data<<<<<
