SpectraSuite Data File
++++++++++++++++++++++++++++++++++++
Date: Fri Oct 25 11:33:17 EDT 2013
User: price-jones
Dark Spectrum Present: No
Reference Spectrum Present: No
Number of Sampled Component Spectra: 1
Spectrometers: USB2+H05261
Integration Time (usec): 100000 (USB2+H05261)
Spectra Averaged: 1 (USB2+H05261)
Boxcar Smoothing: 0 (USB2+H05261)
Correct for Electrical Dark: No (USB2+H05261)
Strobe/Lamp Enabled: No (USB2+H05261)
Correct for Detector Non-linearity: No (USB2+H05261)
Correct for Stray Light: No (USB2+H05261)
Number of Pixels in Processed Spectrum: 2048
>>>>>Begin Processed Spectral Data<<<<<
365.73	280.86
365.92	280.86
366.12	280.86
366.32	152.13
366.52	184.90
366.72	170.86
366.91	191.92
367.11	198.95
367.31	166.18
367.51	180.22
367.70	173.20
367.90	182.56
368.10	135.75
368.30	163.84
368.49	156.82
368.69	210.65
368.89	166.18
369.09	135.75
369.28	182.56
369.48	177.88
369.68	227.03
369.87	124.05
370.07	238.73
370.27	241.08
370.47	320.65
370.66	440.02
370.86	610.88
371.06	524.28
371.25	535.98
371.45	521.94
371.65	554.71
371.84	519.60
372.04	512.58
372.24	589.82
372.44	543.00
372.63	528.96
372.83	599.18
373.03	578.11
373.22	601.52
373.42	613.22
373.62	641.31
373.81	627.26
374.01	620.24
374.21	688.12
374.40	636.63
374.60	594.50
374.79	627.26
374.99	655.35
375.19	603.86
375.38	697.48
375.58	622.58
375.78	674.07
375.97	720.88
376.17	676.41
376.37	638.97
376.56	678.76
376.76	674.07
376.95	699.82
377.15	751.31
377.35	657.69
377.54	690.46
377.74	695.14
377.93	695.14
378.13	755.99
378.33	723.23
378.52	676.41
378.72	690.46
378.91	713.86
379.11	683.44
379.31	697.48
379.50	788.76
379.70	681.10
379.89	774.72
380.09	758.33
380.28	746.63
380.48	774.72
380.68	610.88
380.87	755.99
381.07	746.63
381.26	772.38
381.46	779.40
381.65	800.46
381.85	821.53
382.04	791.10
382.24	718.54
382.43	807.48
382.63	786.42
382.83	809.83
383.02	833.23
383.22	791.10
383.41	781.74
383.61	795.78
383.80	737.27
384.00	777.06
384.19	828.55
384.39	770.04
384.58	856.64
384.78	788.76
384.97	777.06
385.17	844.93
385.36	884.72
385.56	830.89
385.75	779.40
385.95	807.48
386.14	863.66
386.34	793.44
386.53	858.98
386.72	823.87
386.92	896.43
387.11	905.79
387.31	943.24
387.50	896.43
387.70	856.64
387.89	868.34
388.09	880.04
388.28	840.25
388.48	889.40
388.67	896.43
388.86	973.66
389.06	947.92
389.25	954.94
389.45	919.83
389.64	999.41
389.84	968.98
390.03	947.92
390.22	1060.26
390.42	924.51
390.61	990.05
390.81	1036.86
391.00	985.37
391.19	952.60
391.39	938.55
391.58	1034.52
391.78	1001.75
391.97	1001.75
392.16	966.64
392.36	1088.35
392.55	1076.65
392.75	1057.92
392.94	1027.50
393.13	1160.91
393.33	997.07
393.52	1036.86
393.71	1188.99
393.91	1100.05
394.10	1116.44
394.29	1135.16
394.49	1104.73
394.68	1165.59
394.88	1121.12
395.07	1064.94
395.26	1186.65
395.46	1156.22
395.65	1188.99
395.84	1196.01
396.04	1210.06
396.23	1181.97
396.42	1205.38
396.62	1270.91
396.81	1160.91
397.00	1167.93
397.19	1299.00
397.39	1177.29
397.58	1245.16
397.77	1221.76
397.97	1310.70
398.16	1308.36
398.35	1315.38
398.55	1348.15
398.74	1338.79
398.93	1313.04
399.12	1226.44
399.32	1296.66
399.51	1348.15
399.70	1345.81
399.90	1345.81
400.09	1322.40
400.28	1458.15
400.47	1345.81
400.67	1416.02
400.86	1462.83
401.05	1427.73
401.24	1418.36
401.44	1565.82
401.63	1404.32
401.82	1371.55
402.01	1502.62
402.21	1516.67
402.40	1476.88
402.59	1568.16
402.78	1418.36
402.97	1488.58
403.17	1526.03
403.36	1570.50
403.55	1570.50
403.74	1540.07
403.93	1558.80
404.13	1610.29
404.32	1579.86
404.51	1629.01
404.70	1603.27
404.89	1678.16
405.09	1767.10
405.28	1708.59
405.47	1689.87
405.66	1678.16
405.85	1748.38
406.05	1710.93
406.24	1746.04
406.43	1727.32
406.62	1755.40
406.81	1778.81
407.00	1846.68
407.20	1797.53
407.39	1874.77
407.58	1863.07
407.77	1865.41
407.96	1881.79
408.15	1994.14
408.34	1970.73
408.54	1916.90
408.73	1818.60
408.92	1886.47
409.11	2069.03
409.30	1973.07
409.49	1937.96
409.68	2057.33
409.87	1998.82
410.07	1982.43
410.26	2132.23
410.45	2101.80
410.64	1989.46
410.83	2106.48
411.02	2083.08
411.21	2197.76
411.40	2188.40
411.59	2319.47
411.78	2223.51
411.98	2314.79
412.17	2267.98
412.36	2195.42
412.55	2251.60
412.74	2422.45
412.93	2424.80
413.12	2289.04
413.31	2410.75
413.50	2399.05
413.69	2476.29
413.88	2441.18
414.07	2399.05
414.26	2581.61
414.45	2497.35
414.64	2471.61
414.83	2614.38
415.02	2644.81
415.22	2703.32
415.41	2745.45
415.60	2684.59
415.79	2703.32
415.98	2733.75
416.17	2656.51
416.36	2815.66
416.55	2740.77
416.74	2764.17
416.93	2843.75
417.12	2822.69
417.31	2857.79
417.50	2925.67
417.69	2942.05
417.88	2944.39
418.07	2913.97
418.26	3026.31
418.45	2991.20
418.64	3105.89
418.83	3133.98
419.02	3012.27
419.21	3077.80
419.39	3075.46
419.58	3208.87
419.77	3108.23
419.96	3215.90
420.15	3073.12
420.34	3190.15
420.53	3173.77
420.72	3332.92
420.91	3236.96
421.10	3339.94
421.29	3234.62
421.48	3241.64
421.67	3337.60
421.86	3361.01
422.05	3346.97
422.24	3372.71
422.43	3382.07
422.61	3201.85
422.80	3517.83
422.99	3449.95
423.18	3342.28
423.37	3435.91
423.56	3400.80
423.75	3513.14
423.94	3396.12
424.13	3255.69
424.32	3281.43
424.50	3407.82
424.69	3471.01
424.88	3660.60
425.07	3372.71
425.26	3379.73
425.45	3358.67
425.64	3459.31
425.83	3527.19
426.01	3421.86
426.20	3522.51
426.39	3524.85
426.58	3468.67
426.77	3365.69
426.96	3548.25
427.15	3597.40
427.33	3543.57
427.52	3473.36
427.71	3630.17
427.90	3534.21
428.09	3637.19
428.28	3721.45
428.46	3686.34
428.65	3808.05
428.84	3763.58
429.03	3845.50
429.22	3674.64
429.40	3878.27
429.59	3850.18
429.78	3817.41
429.97	3562.30
430.16	3953.16
430.34	3918.06
430.53	3953.16
430.72	3794.01
430.91	3878.27
431.10	3871.25
431.28	4063.17
431.47	3896.99
431.66	3911.04
431.85	3922.74
432.03	3990.61
432.22	4182.54
432.41	4077.21
432.60	4074.87
432.79	4100.62
432.97	4119.34
433.16	4147.43
433.35	4039.76
433.54	4189.56
433.72	4177.86
433.91	4182.54
434.10	4203.60
434.28	4166.15
434.47	4238.71
434.66	4227.01
434.85	4308.93
435.03	4273.82
435.22	4287.86
435.41	4435.32
435.59	4404.89
435.78	4329.99
435.97	4465.74
436.16	4554.68
436.34	4596.81
436.53	4395.53
436.72	4664.69
436.90	4468.08
437.09	4580.43
437.28	4318.29
437.46	4688.09
437.65	4699.80
437.84	4624.90
438.02	4554.68
438.21	4573.41
438.40	4521.92
438.58	4849.59
438.77	4903.42
438.96	4823.84
439.14	4940.87
439.33	4819.16
439.52	4943.21
439.70	4865.97
439.89	5008.75
440.08	4947.89
440.26	4990.02
440.45	5022.79
440.63	5107.05
440.82	5013.43
441.01	5174.92
441.19	5217.05
441.38	5270.89
441.57	5200.67
441.75	5231.10
441.94	5469.83
442.12	5313.02
442.31	5493.24
442.50	5413.66
442.68	5406.64
442.87	5359.83
443.05	5626.65
443.24	5687.50
443.43	5369.19
443.61	5661.76
443.80	5654.73
443.98	5376.21
444.17	5350.46
444.35	5549.41
444.54	5666.44
444.73	5750.70
444.91	5809.21
445.10	5778.78
445.28	5706.23
445.47	5638.35
445.65	5633.67
445.84	5654.73
446.02	5764.74
446.21	5731.97
446.39	5591.54
446.58	5710.91
446.77	5809.21
446.95	5624.31
447.14	5703.89
447.32	5727.29
447.51	5928.58
447.69	5788.14
447.88	5788.14
448.06	5776.44
448.25	5713.25
448.43	5921.56
448.62	5720.27
448.80	5919.21
448.99	5966.03
449.17	5841.98
449.36	5856.02
449.54	6108.80
449.73	6146.25
449.91	6132.20
450.10	6118.16
450.28	6069.01
450.46	5987.09
450.65	6008.16
450.83	6129.86
451.02	6101.78
451.20	6218.80
451.39	6277.32
451.57	6113.48
451.76	6169.65
451.94	6214.12
452.13	6415.41
452.31	6310.08
452.49	6214.12
452.68	6356.90
452.86	6527.75
453.05	6537.12
453.23	6377.96
453.42	6455.20
453.60	6497.33
453.78	6539.46
453.97	6319.45
454.15	6443.49
454.34	6471.58
454.52	6691.59
454.70	6628.40
454.89	6590.95
455.07	6558.18
455.26	6707.98
455.44	6764.15
455.62	6740.74
455.81	6780.53
455.99	6595.63
456.17	6991.18
456.36	6869.47
456.54	6951.39
456.73	6771.17
456.91	7073.10
457.09	7049.69
457.28	7227.57
457.46	7012.24
457.64	6986.50
457.83	7124.59
458.01	7021.61
458.19	7321.20
458.38	7208.85
458.56	7487.37
458.74	7143.32
458.93	7260.34
459.11	7295.45
459.29	7192.47
459.48	7265.02
459.66	7382.05
459.84	7524.82
460.03	7391.41
460.21	7379.71
460.39	7510.78
460.57	7398.43
460.76	7541.21
460.94	7634.83
461.12	7494.40
461.31	7487.37
461.49	7463.97
461.67	7658.23
461.85	7826.75
462.04	7789.30
462.22	8259.75
462.40	7955.48
462.59	7726.11
462.77	7609.08
462.95	7878.24
463.13	8011.65
463.32	7819.73
463.50	7927.39
463.68	7943.78
463.86	8109.96
464.05	7915.69
464.23	8072.51
464.41	8060.80
464.59	7960.16
464.78	8128.68
464.96	7999.95
465.14	8053.78
465.32	8168.47
465.50	8194.22
465.69	8259.75
465.87	8196.56
466.05	8182.51
466.23	8032.72
466.41	8285.50
466.60	8535.93
466.78	8245.71
466.96	8353.37
467.14	8152.09
467.32	8320.60
467.51	8248.05
467.69	8114.64
467.87	8360.39
468.05	8535.93
468.23	8468.06
468.41	8589.77
468.60	8273.79
468.78	8566.36
468.96	8547.64
469.14	8540.61
469.32	8634.24
469.50	8381.46
469.69	8472.74
469.87	8844.88
470.05	8755.94
470.23	8800.41
470.41	8720.84
470.59	8990.00
470.77	8879.99
470.95	8980.64
471.14	9135.11
471.32	8858.93
471.50	9153.84
471.68	9212.35
471.86	9025.11
472.04	9078.94
472.22	9427.68
472.40	9266.18
472.58	9266.18
472.77	9425.34
472.95	9556.41
473.13	9757.69
473.31	9366.82
473.49	9563.43
473.67	9460.45
473.85	9888.76
474.03	9729.61
474.21	9778.76
474.39	9837.27
474.57	9846.63
474.75	10012.81
474.93	10127.50
475.12	10150.90
475.30	10321.76
475.48	10164.95
475.66	10246.87
475.84	10207.08
476.02	10289.00
476.20	10317.08
476.38	10396.66
476.56	10663.48
476.74	10675.18
476.92	10621.35
477.10	10628.37
477.28	10703.27
477.46	10682.20
477.64	10939.66
477.82	10998.18
478.00	11337.56
478.18	11023.92
478.36	11309.47
478.54	11262.66
478.72	11403.09
478.90	11784.60
479.08	11805.66
479.26	11889.92
479.44	12016.31
479.62	11747.15
479.80	11913.33
479.98	11859.49
480.16	12224.62
480.34	12102.91
480.52	12322.92
480.70	12149.72
480.88	12311.22
481.06	12461.01
481.24	12547.61
481.41	12641.23
481.59	12959.55
481.77	13020.40
481.95	13085.94
482.13	12989.97
482.31	12840.18
482.49	13317.65
482.67	13523.62
482.85	13460.42
483.03	13708.52
483.21	13724.90
483.39	13774.05
483.57	13853.63
483.74	14162.58
483.92	14169.60
484.10	14139.18
484.28	14464.51
484.46	14450.47
484.64	14768.78
484.82	14595.58
485.00	14867.08
485.18	14941.98
485.35	15105.82
485.53	15295.40
485.71	15534.14
485.89	15484.98
486.07	15484.98
486.25	15445.20
486.43	15777.55
486.61	15735.42
486.78	15964.79
486.96	15882.88
487.14	16402.47
487.32	16023.31
487.50	16346.30
487.68	16568.65
487.85	16601.42
488.03	16828.45
488.21	17184.21
488.39	17249.75
488.57	17322.30
488.75	17549.34
488.92	17331.67
489.10	17879.35
489.28	17584.44
489.46	17970.63
489.64	17961.27
489.81	18441.08
489.99	18415.34
490.17	18050.21
490.35	18640.03
490.53	18651.73
490.70	18611.94
490.88	18979.40
491.06	18979.40
491.24	19412.40
491.41	19173.67
491.59	19073.03
491.77	19597.31
491.95	19344.53
492.13	19665.18
492.30	19946.05
492.48	19852.42
492.66	20077.12
492.84	20233.93
493.01	20070.09
493.19	20442.24
493.37	20315.85
493.54	20496.07
493.72	20650.55
493.90	20540.54
494.08	20863.54
494.25	21067.16
494.43	21289.51
494.61	21324.62
494.79	21479.10
494.96	21441.65
495.14	21603.14
495.32	21926.14
495.49	21858.26
495.67	21975.29
495.85	22244.45
496.02	22080.61
496.20	22703.20
496.38	22370.84
496.55	22345.09
496.73	22953.63
496.91	22647.02
497.09	22984.06
497.26	23105.77
497.44	22944.27
497.62	23473.23
497.79	24032.62
497.97	23599.62
498.14	23803.25
498.32	23700.26
498.50	23737.71
498.67	24100.50
498.85	24079.43
499.03	24418.81
499.20	24222.20
499.38	24790.95
499.56	24507.75
499.73	24617.75
499.91	24844.79
500.08	25050.75
500.26	24404.77
500.44	25106.93
500.61	25259.06
500.79	24982.88
500.97	25233.32
501.14	25240.34
501.32	25434.60
501.49	25582.06
501.67	25621.84
501.84	25888.67
502.02	25731.85
502.20	26029.10
502.37	25666.31
502.55	25923.77
502.72	25972.92
502.90	26071.23
503.07	26075.91
503.25	26195.28
503.43	26211.66
503.60	26888.07
503.78	26679.77
503.95	26621.25
504.13	26658.70
504.30	27105.74
504.48	26689.13
504.65	26965.31
504.83	27372.57
505.01	27447.46
505.18	27332.78
505.36	27744.71
505.53	27384.27
505.71	27641.73
505.88	27728.33
506.06	27908.55
506.23	27910.89
506.41	27744.71
506.58	28137.92
506.76	27955.36
506.93	28151.96
507.11	28367.29
507.28	28542.83
507.46	28491.34
507.63	28449.21
507.81	28423.47
507.98	28716.03
508.16	28779.23
508.33	28549.85
508.50	28861.15
508.68	29039.03
508.85	28891.57
509.03	28840.08
509.20	29268.40
509.38	29610.12
509.55	29635.86
509.73	29610.12
509.90	29975.24
510.08	30008.01
510.25	29860.55
510.42	30206.95
510.60	30213.98
510.77	29865.24
510.95	30387.18
511.12	29806.72
511.30	30211.64
511.47	30579.10
511.64	30281.85
511.82	30745.28
511.99	30698.47
512.17	30433.99
512.34	30712.51
512.51	30801.45
512.69	30773.36
512.86	30934.86
513.04	31498.93
513.21	30948.90
513.38	31543.40
513.56	31229.77
513.73	31089.34
513.90	31466.16
514.08	31227.43
514.25	31782.13
514.43	32065.34
514.60	31833.63
514.77	31676.81
514.95	32025.55
515.12	32275.99
515.29	31967.04
515.47	31992.78
515.64	32177.68
515.81	32088.74
515.99	32322.80
516.16	32746.44
516.33	32617.71
516.51	32772.18
516.68	32884.53
516.85	32629.41
517.03	33200.50
517.20	32996.87
517.37	33251.99
517.54	33340.93
517.72	33259.01
517.89	33111.56
518.06	33291.78
518.24	32919.63
518.41	33514.13
518.58	33158.37
518.75	33102.20
518.93	33570.30
519.10	33549.24
519.27	33694.35
519.45	34073.52
519.62	33809.04
519.79	33905.00
519.96	33879.25
520.14	34162.46
520.31	34239.70
520.48	34401.19
520.65	34185.86
520.83	34682.06
521.00	34579.07
521.17	34480.77
521.34	34455.03
521.52	34845.90
521.69	35208.68
521.86	35063.57
522.03	34888.03
522.20	35028.46
522.38	35356.13
522.55	35124.42
522.72	35103.35
522.89	34850.58
523.07	35915.52
523.24	35625.29
523.41	35992.76
523.58	35271.87
523.75	35625.29
523.92	35938.93
524.10	35725.94
524.27	36062.97
524.44	35573.80
524.61	36280.64
524.78	35983.40
524.96	36353.20
525.13	36224.47
525.30	36947.70
525.47	36683.22
525.64	36491.29
525.81	36453.84
525.98	36961.74
526.16	36297.03
526.33	36868.12
526.50	36800.24
526.67	36388.31
526.84	36596.62
527.01	36959.40
527.18	36971.10
527.36	36961.74
527.53	37209.84
527.70	37530.49
527.87	37624.11
528.04	37385.38
528.21	37626.45
528.38	37179.41
528.55	37235.58
528.72	37359.63
528.89	37296.44
529.07	37460.27
529.24	37333.89
529.41	37677.94
529.58	37603.05
529.75	37841.78
529.92	38033.71
530.09	37682.62
530.26	38012.64
530.43	37888.59
530.60	37350.27
530.77	38003.28
530.94	38333.29
531.11	38555.64
531.28	38103.92
531.46	38415.21
531.63	38309.89
531.80	38309.89
531.97	38646.93
532.14	38403.51
532.31	38728.84
532.48	39026.09
532.65	38412.87
532.82	38766.29
532.99	38785.02
533.16	38927.79
533.33	39253.12
533.50	39248.44
533.67	39009.71
533.84	38740.55
534.01	39330.36
534.18	39014.39
534.35	39456.75
534.52	39257.81
534.69	39477.82
534.86	39718.89
535.03	39344.41
535.20	39852.30
535.37	39824.22
535.54	39784.43
535.71	39613.57
535.88	39906.13
536.05	39386.54
536.22	40208.06
536.38	39606.55
536.55	40095.72
536.72	39974.01
536.89	39791.45
537.06	40093.38
537.23	40542.76
537.40	39964.65
537.57	40130.83
537.74	40126.14
537.91	40566.16
538.08	39849.96
538.25	40421.05
538.42	40179.98
538.59	40905.54
538.75	40273.60
538.92	40706.60
539.09	40790.86
539.26	40638.72
539.43	40470.20
539.60	40641.06
539.77	40940.65
539.94	41333.86
540.11	40889.16
540.28	41186.41
540.44	41268.33
540.61	41193.43
540.78	41113.85
540.95	40935.97
541.12	41125.55
541.29	40957.03
541.46	41350.24
541.62	41392.37
541.79	42068.79
541.96	40730.00
542.13	41251.94
542.30	41357.27
542.47	41537.49
542.63	41949.42
542.80	41979.85
542.97	42014.96
543.14	42230.29
543.31	41710.69
543.48	41926.02
543.64	42569.66
543.81	42452.64
543.98	42408.17
544.15	42487.74
544.32	41970.49
544.48	42707.76
544.65	42897.34
544.82	42387.10
544.99	42600.09
545.16	42522.85
545.32	42494.77
545.49	42761.59
545.66	43372.47
545.83	43168.84
546.00	42834.14
546.16	42988.62
546.33	42665.63
546.50	42731.16
546.67	43119.69
546.83	42309.86
547.00	43337.36
547.17	42862.23
547.34	43079.90
547.50	43215.65
547.67	43758.66
547.84	43086.92
548.00	43618.22
548.17	43639.29
548.34	43636.95
548.51	43641.63
548.67	43306.93
548.84	43718.87
549.01	43426.30
549.18	43580.78
549.34	43557.37
549.51	43969.30
549.68	44062.93
549.84	43349.06
550.01	44231.44
550.18	44205.70
550.34	43700.14
550.51	44030.16
550.68	44184.63
550.84	43674.40
551.01	44435.07
551.18	44093.35
551.34	43966.96
551.51	44765.09
551.68	44194.00
551.84	44264.21
552.01	44367.20
552.18	43906.11
552.34	44086.33
552.51	44512.31
552.68	44505.29
552.84	44591.89
553.01	44449.11
553.18	44624.65
553.34	44531.03
553.51	44978.07
553.67	44786.15
553.84	44699.55
554.01	44931.26
554.17	44641.04
554.34	44538.05
554.51	44666.78
554.67	44957.01
554.84	45078.72
555.00	44802.53
555.17	44781.47
555.33	45240.21
555.50	45441.50
555.67	44746.36
555.83	45071.70
556.00	45471.93
556.16	45476.61
556.33	45382.99
556.50	45078.72
556.66	45008.50
556.83	45050.63
556.99	45743.43
557.16	45647.47
557.32	45106.80
557.49	45537.46
557.65	45439.16
557.82	44802.53
557.98	45418.10
558.15	45684.92
558.32	45446.18
558.48	45514.06
558.65	45563.21
558.81	45710.66
558.98	45401.71
559.14	45682.58
559.31	45467.25
559.47	45605.34
559.64	45591.30
559.80	45560.87
559.97	46007.91
560.13	45544.48
560.30	46021.95
560.46	45813.65
560.63	45900.25
560.79	45844.07
560.96	45764.49
561.12	46387.08
561.29	46014.93
561.45	46176.43
561.61	46073.45
561.78	45673.21
561.94	46047.70
562.11	46082.81
562.27	45982.16
562.44	45656.83
562.60	46323.88
562.77	46459.63
562.93	45567.89
563.10	46181.11
563.26	46061.74
563.42	46408.14
563.59	46326.22
563.75	46160.05
563.92	46061.74
564.08	46497.08
564.24	46581.34
564.41	46007.91
564.57	46403.46
564.74	46440.91
564.90	46803.69
565.07	46623.47
565.23	46176.43
565.39	46452.61
565.56	46471.34
565.72	46316.86
565.88	46171.75
566.05	46731.14
566.21	46696.03
566.38	46557.94
566.54	46277.07
566.70	46782.63
566.87	46930.08
567.03	46602.41
567.19	46841.14
567.36	46911.36
567.52	46885.61
567.68	46763.90
567.85	46836.46
568.01	46864.55
568.17	46883.27
568.34	47187.54
568.50	46740.50
568.66	46447.93
568.83	46679.64
568.99	46859.87
569.15	46419.84
569.32	46588.36
569.48	46717.09
569.64	47171.16
569.81	46836.46
569.97	46892.63
570.13	47136.05
570.30	46525.17
570.46	46855.18
570.62	46930.08
570.78	46579.00
570.95	46581.34
571.11	47402.87
571.27	46646.88
571.43	46719.43
571.60	47222.65
571.76	47147.75
571.92	47433.30
572.09	47192.22
572.25	46904.34
572.41	46951.15
572.57	46775.61
572.74	47456.70
572.90	47084.56
573.06	47187.54
573.22	47213.29
573.38	47611.18
573.55	47433.30
573.71	47587.77
573.87	47072.85
574.03	47089.24
574.20	47356.06
574.36	47281.16
574.52	47370.10
574.68	47346.70
574.84	47702.46
575.01	47166.48
575.17	47012.00
575.33	47072.85
575.49	47070.51
575.65	47255.42
575.82	47662.67
575.98	47426.28
576.14	47529.26
576.30	47707.14
576.46	47320.95
576.62	47044.77
576.79	47302.23
576.95	47082.22
577.11	47161.79
577.27	47299.89
577.43	47360.74
577.59	47283.50
577.75	47405.21
577.92	47309.25
578.08	46944.12
578.24	47122.01
578.40	47604.16
578.56	47688.42
578.72	47278.82
578.88	47449.68
579.04	47374.78
579.21	47175.84
579.37	47346.70
579.53	47283.50
579.69	47526.92
579.85	47498.83
580.01	47611.18
580.17	47599.47
580.33	47782.04
580.49	47232.01
580.65	47281.16
580.82	47585.43
580.98	47552.66
581.14	47302.23
581.30	47583.09
581.46	47430.96
581.62	47363.08
581.78	47367.76
581.94	47725.86
582.10	47496.49
582.26	47576.07
582.42	47400.53
582.58	47674.37
582.74	47494.15
582.90	47491.81
583.06	47632.24
583.22	47856.93
583.38	47648.63
583.54	47592.45
583.70	47978.64
583.86	47707.14
584.02	47466.06
584.18	47821.83
584.34	47618.20
584.50	48285.25
584.66	47728.20
584.82	47704.80
584.98	47908.43
585.14	48119.07
585.30	47012.00
585.46	47246.05
585.62	47636.92
585.78	47517.56
585.94	47835.87
586.10	47718.84
586.26	47250.74
586.42	47639.26
586.58	47758.63
586.74	47845.23
586.90	47496.49
587.06	47709.48
587.22	47908.43
587.38	47547.98
587.54	47889.70
587.70	47910.77
587.86	48062.90
588.02	47627.56
588.18	47915.45
588.34	47395.85
588.49	47908.43
588.65	47662.67
588.81	47749.27
588.97	47863.96
589.13	47983.32
589.29	48083.97
589.45	48069.92
589.61	47964.60
589.77	48264.19
589.93	47833.53
590.08	48027.79
590.24	47955.24
590.40	48474.84
590.56	47969.28
590.72	48128.44
590.88	47938.85
591.04	48044.18
591.20	48346.11
591.35	48318.02
591.51	48231.42
591.67	48512.28
591.83	48699.53
591.99	47636.92
592.15	47838.21
592.31	48076.94
592.46	47929.49
592.62	48243.12
592.78	48165.88
592.94	48589.52
593.10	48626.97
593.26	48917.20
593.41	48292.27
593.57	48067.58
593.73	48257.17
593.89	49074.01
594.05	48839.96
594.20	48552.07
594.36	48673.78
594.52	48397.60
594.68	48556.75
594.84	48369.51
594.99	48722.93
595.15	48598.88
595.31	48388.24
595.47	48481.86
595.62	48587.18
595.78	48404.62
595.94	48865.70
596.10	47892.04
596.25	48467.81
596.41	48495.90
596.57	48409.30
596.73	48760.38
596.88	48519.31
597.04	48472.49
597.20	48465.47
597.36	48526.33
597.51	48367.17
597.67	48540.37
597.83	48011.41
597.99	48762.72
598.14	48388.24
598.30	48566.12
598.46	48659.74
598.61	48811.87
598.77	48793.15
598.93	48453.77
599.09	48479.52
599.24	48891.45
599.40	48727.61
599.56	49186.36
599.71	48879.75
599.87	49336.15
600.03	48685.48
600.18	48259.51
600.34	48371.85
600.50	48315.68
600.65	48751.02
600.81	48505.26
600.97	48734.63
601.12	48390.58
601.28	48748.68
601.44	48226.74
601.59	48619.95
601.75	48584.84
601.91	49001.46
602.06	48720.59
602.22	48942.94
602.37	48694.85
602.53	48807.19
602.69	48802.51
602.84	48449.09
603.00	48523.99
603.16	48629.31
603.31	48306.32
603.47	48865.70
603.62	48364.83
603.78	48725.27
603.94	48713.57
604.09	48893.79
604.25	48744.00
604.40	48624.63
604.56	48528.67
604.71	48779.10
604.87	48376.53
605.03	48601.22
605.18	48622.29
605.34	48392.92
605.49	48320.36
605.65	48598.88
605.80	48254.82
605.96	48685.48
606.12	48619.95
606.27	48477.18
606.43	48605.91
606.58	48650.38
606.74	48355.47
606.89	48914.86
607.05	48652.72
607.20	48587.18
607.36	48205.67
607.51	48718.25
607.67	48315.68
607.82	48271.21
607.98	48233.76
608.13	48179.93
608.29	48601.22
608.44	48615.27
608.60	48203.33
608.75	48203.33
608.91	48144.82
609.06	47800.76
609.22	48973.37
609.37	48509.94
609.53	48479.52
609.68	48776.76
609.84	48465.47
609.99	48371.85
610.15	48631.65
610.30	48821.23
610.46	48161.20
610.61	48325.04
610.76	48247.80
610.92	48215.04
611.07	48477.18
611.23	48371.85
611.38	48177.59
611.54	48238.44
611.69	48332.06
611.84	48467.81
612.00	48325.04
612.15	48004.39
612.31	48182.27
612.46	47547.98
612.62	48196.31
612.77	48156.52
612.92	48175.25
613.08	48048.86
613.23	48175.25
613.39	48076.94
613.54	47838.21
613.69	48479.52
613.85	48058.22
614.00	47735.23
614.15	48411.64
614.31	47653.31
614.46	47803.10
614.62	47718.84
614.77	47861.61
614.92	48074.60
615.08	48217.38
615.23	47681.39
615.38	48142.48
615.54	47615.86
615.69	47587.77
615.84	47725.86
616.00	47910.77
616.15	47922.47
616.30	47859.27
616.46	47826.51
616.61	47508.19
616.76	47892.04
616.92	47564.37
617.07	47533.94
617.22	47800.76
617.37	47000.30
617.53	47562.03
617.68	47625.22
617.83	47489.47
617.99	47906.08
618.14	47543.30
618.29	47295.21
618.45	47524.58
618.60	47765.65
618.75	46955.83
618.90	47470.75
619.06	47421.59
619.21	47753.95
619.36	47487.13
619.51	47229.67
619.67	47243.71
619.82	47463.72
619.97	47463.72
620.12	47463.72
620.28	47243.71
620.43	47875.66
620.58	47384.15
620.73	47529.26
620.89	47470.75
621.04	47524.58
621.19	47150.09
621.34	46916.04
621.49	47227.33
621.65	46857.52
621.80	47278.82
621.95	46714.75
622.10	47597.13
622.25	47154.77
622.41	47166.48
622.56	47138.39
622.71	46937.10
622.86	47395.85
623.01	46894.97
623.16	46759.22
623.32	46784.97
623.47	46738.16
623.62	46803.69
623.77	46981.57
623.92	46822.42
624.07	46834.12
624.23	46780.29
624.38	46838.80
624.53	47028.38
624.68	46747.52
624.83	46457.29
624.98	46424.53
625.13	46787.31
625.29	46574.32
625.44	46571.98
625.59	46698.37
625.74	46569.64
625.89	46288.77
626.04	46454.95
626.19	46656.24
626.34	45811.31
626.49	46014.93
626.65	46202.18
626.80	46419.84
626.95	46099.19
627.10	45869.82
627.25	46225.58
627.40	46761.56
627.55	46424.53
627.70	46003.23
627.85	46639.86
628.00	46176.43
628.15	46253.67
628.30	46216.22
628.45	46054.72
628.60	45794.92
628.76	46082.81
628.91	45914.29
629.06	45666.19
629.21	45865.14
629.36	45984.51
629.51	45872.16
629.66	46038.34
629.81	46241.96
629.96	45778.54
630.11	45523.42
630.26	45469.59
630.41	45883.86
630.56	45443.84
630.71	45804.28
630.86	46045.36
631.01	45591.30
631.16	45567.89
631.31	45865.14
631.46	45982.16
631.61	45806.62
631.76	45694.28
631.91	45668.53
632.06	45954.08
632.21	45605.34
632.36	46209.20
632.51	45254.26
632.66	45375.97
632.81	45476.61
632.96	45165.32
633.10	44973.39
633.25	45291.71
633.40	45237.87
633.55	45792.58
633.70	45109.14
633.85	45160.64
634.00	45160.64
634.15	44591.89
634.30	45006.16
634.45	44622.31
634.60	45237.87
634.75	45425.12
634.90	45099.78
635.05	45207.45
635.19	44807.22
635.34	45139.57
635.49	45029.57
635.64	45359.58
635.79	45439.16
635.94	45186.38
636.09	44989.78
636.24	44842.32
636.39	45062.33
636.53	45268.30
636.68	44898.50
636.83	44690.19
636.98	44648.06
637.13	44442.09
637.28	44737.00
637.43	44755.72
637.57	45062.33
637.72	44453.79
637.87	44753.38
638.02	44720.62
638.17	44444.43
638.32	44411.67
638.46	44128.46
638.61	44016.11
638.76	44215.06
638.91	44224.42
639.06	44182.29
639.20	44165.91
639.35	44147.18
639.50	43948.24
639.65	44509.97
639.80	44226.76
639.94	44210.38
640.09	44320.38
640.24	44449.11
640.39	44055.90
640.54	43756.32
640.68	44327.41
640.83	44425.71
640.98	43821.85
641.13	43711.84
641.27	44079.31
641.42	44020.80
641.57	44065.27
641.72	43908.45
641.86	43981.01
642.01	43683.76
642.16	44048.88
642.31	43461.41
642.45	44046.54
642.60	43782.06
642.75	43660.35
642.90	44058.24
643.04	44116.76
643.19	43529.28
643.34	43470.77
643.48	43629.93
643.63	43772.70
643.78	43819.51
643.93	43746.95
644.07	43552.69
644.22	43641.63
644.37	43580.78
644.51	43723.55
644.66	43459.07
644.81	43746.95
644.95	43590.14
645.10	43328.00
645.25	43044.79
645.39	43075.22
645.54	43220.33
645.69	42944.15
645.83	43007.34
645.98	42997.98
646.13	42866.91
646.27	43077.56
646.42	42581.37
646.57	43115.01
646.71	43225.01
646.86	43185.22
647.00	43056.50
647.15	43323.32
647.30	43107.99
647.44	43026.07
647.59	42969.90
647.74	42831.80
647.88	43215.65
648.03	43309.27
648.17	43026.07
648.32	43374.81
648.47	43225.01
648.61	42859.89
648.76	42876.27
648.90	43072.88
649.05	42389.44
649.20	42651.58
649.34	43019.05
649.49	42773.29
649.63	42979.26
649.78	43253.10
649.92	42880.95
650.07	43445.02
650.21	42717.12
650.36	43590.14
650.51	42864.57
650.65	42759.25
650.80	42883.30
650.94	42665.63
651.09	42827.12
651.23	42370.72
651.38	42199.86
651.52	42239.65
651.67	42071.13
651.81	42270.08
651.96	42122.62
652.10	41776.22
652.25	42040.70
652.39	41757.50
652.54	42263.05
652.68	42274.76
652.83	42326.25
652.97	42462.00
653.12	42333.27
653.26	41993.89
653.41	41785.58
653.55	41816.01
653.70	42124.96
653.84	42560.30
653.99	42000.91
654.13	42131.98
654.27	41937.72
654.42	42127.30
654.56	41965.81
654.71	42298.16
654.85	42010.28
655.00	41752.82
655.14	42249.01
655.29	41900.27
655.43	42466.68
655.57	41507.06
655.72	41638.13
655.86	41411.10
656.01	41078.74
656.15	41172.36
656.30	41769.20
656.44	41481.31
656.58	41792.61
656.73	41418.12
656.87	41645.15
657.01	41284.71
657.16	40926.61
657.30	41111.51
657.45	41509.40
657.59	41127.89
657.73	40786.18
657.88	41102.15
658.02	41155.98
658.16	41158.32
658.31	41193.43
658.45	41219.17
658.60	41034.27
658.74	41326.84
658.88	41118.53
659.03	41198.11
659.17	40612.98
659.31	40870.43
659.46	40577.87
659.60	41153.64
659.74	40533.40
659.89	40264.24
660.03	40495.95
660.17	40893.84
660.32	40765.11
660.46	40240.83
660.60	40041.88
660.74	40397.65
660.89	40659.79
661.03	40055.93
661.17	40091.04
661.32	39676.76
661.46	40037.20
661.60	40016.14
661.74	39840.60
661.89	39833.58
662.03	40126.14
662.17	39875.71
662.31	39922.52
662.46	39948.26
662.60	40201.04
662.74	39442.71
662.88	39419.30
663.03	38986.30
663.17	39384.19
663.31	39248.44
663.45	39299.94
663.60	39709.53
663.74	39339.72
663.88	39454.41
664.02	39187.59
664.17	39777.40
664.31	39290.57
664.45	38918.43
664.59	38684.37
664.73	38871.62
664.88	39131.42
665.02	38506.49
665.16	39037.80
665.30	38747.57
665.44	38333.29
665.59	38387.13
665.73	38473.73
665.87	37804.33
666.01	38249.03
666.15	38216.27
666.29	38150.73
666.44	38794.38
666.58	38314.57
666.72	38162.43
666.86	38244.35
667.00	38050.09
667.14	38220.95
667.28	37596.03
667.43	37654.54
667.57	38000.94
667.71	37998.60
667.85	38244.35
667.99	37736.46
668.13	37249.63
668.27	37787.95
668.41	37111.53
668.56	37081.11
668.70	37310.48
668.84	36875.14
668.98	37170.05
669.12	37139.62
669.26	37230.90
669.40	36952.38
669.54	37158.34
669.68	37153.66
669.82	36957.06
669.96	36521.72
670.10	36690.24
670.25	36795.56
670.39	36769.82
670.53	36734.71
670.67	36868.12
670.81	36620.02
670.95	36608.32
671.09	36149.57
671.23	35906.16
671.37	36591.94
671.51	35768.07
671.65	35978.72
671.79	36077.02
671.93	35995.10
672.07	35931.90
672.21	35674.45
672.35	35615.93
672.49	35292.94
672.63	35819.56
672.77	35388.90
672.91	35381.88
673.05	35838.28
673.19	35428.69
673.33	35311.66
673.47	34639.93
673.61	34632.91
673.75	34735.89
673.89	35005.05
674.03	34773.34
674.17	34485.45
674.31	34132.03
674.45	34256.08
674.59	34398.85
674.73	34307.57
674.87	34181.18
675.01	34279.49
675.15	33745.84
675.29	33457.96
675.43	34174.16
675.56	34066.50
675.70	33415.83
675.84	33481.36
675.98	32563.87
676.12	33350.29
676.26	33504.77
676.40	33392.42
676.54	32921.98
676.68	33167.73
676.82	32603.66
676.96	33088.15
677.10	32863.46
677.23	32573.24
677.37	32723.03
677.51	32561.53
677.65	32428.12
677.79	32402.38
677.93	32304.07
678.07	32491.32
678.21	32184.71
678.34	31662.77
678.48	31695.53
678.62	31683.83
678.76	31590.21
678.90	31648.72
679.04	31817.24
679.18	31498.93
679.31	31218.07
679.45	31438.08
679.59	31026.14
679.73	31138.49
679.87	30792.09
680.00	30761.66
680.14	30998.06
680.28	30930.18
680.42	30448.03
680.56	30583.78
680.70	30806.13
680.83	29921.41
680.97	29963.54
681.11	30307.60
681.25	29825.45
681.39	29638.20
681.52	29696.72
681.66	29465.00
681.80	29230.95
681.94	29209.89
682.07	29102.22
682.21	28926.68
682.35	29142.01
682.49	28875.19
682.62	28554.54
682.76	29144.35
682.90	29003.92
683.04	28987.53
683.17	28676.24
683.31	28367.29
683.45	28519.43
683.59	28020.89
683.72	28098.13
683.86	27969.40
684.00	27761.09
684.13	27915.57
684.27	27545.76
684.41	27269.58
684.55	27648.75
684.68	27508.32
684.82	27225.11
684.96	27445.12
685.09	27208.73
685.23	27449.80
685.37	27187.66
685.50	27615.98
685.64	27037.87
685.78	26759.34
685.91	26733.60
686.05	26197.62
686.19	26045.48
686.32	26319.32
686.46	25876.96
686.60	25647.59
686.73	26096.97
686.87	25916.75
687.01	26295.92
687.14	26174.21
687.28	25458.01
687.42	25902.71
687.55	25757.60
687.69	25364.39
687.82	25109.27
687.96	25364.39
688.10	25181.82
688.23	25116.29
688.37	24917.34
688.50	25074.16
688.64	24854.15
688.78	24896.28
688.91	24463.28
689.05	24346.25
689.18	24276.04
689.32	24002.19
689.46	23761.12
689.59	23861.76
689.73	24306.46
689.86	24238.59
690.00	23948.36
690.13	24283.06
690.27	23931.98
690.41	23679.20
690.54	23386.63
690.68	23482.59
690.81	23529.41
690.95	23187.69
691.08	22981.72
691.22	22654.05
691.35	22675.11
691.49	23140.88
691.62	22920.87
691.76	22569.79
691.89	22272.54
692.03	22185.94
692.16	22185.94
692.30	22181.26
692.43	22281.90
692.57	21853.58
692.70	22237.43
692.84	21909.75
692.97	21642.93
693.11	21493.14
693.24	21151.42
693.38	21287.17
693.51	21443.99
693.65	21385.47
693.78	21228.66
693.92	21003.97
694.05	20889.28
694.19	20840.13
694.32	20798.00
694.45	21069.50
694.59	20669.27
694.72	20809.70
694.86	20482.03
694.99	20271.38
695.13	20582.67
695.26	19939.02
695.39	19791.57
695.53	19885.19
695.66	19655.82
695.80	19646.46
695.93	19611.35
696.07	19613.69
696.20	19410.06
696.33	19407.72
696.47	19260.27
696.60	19229.84
696.73	19220.48
696.87	19363.25
697.00	18810.89
697.14	18995.79
697.27	18724.29
697.40	18888.12
697.54	18651.73
697.67	18600.24
697.80	18731.31
697.94	18501.93
698.07	18448.10
698.21	18223.41
698.34	18354.48
698.47	18214.05
698.61	17767.01
698.74	17647.64
698.87	17713.17
699.01	17575.08
699.14	17792.75
699.27	17523.59
699.40	17310.60
699.54	17343.37
699.67	17303.58
699.80	17432.31
699.94	17224.00
700.07	17228.68
700.20	16992.29
700.34	16903.35
700.47	17027.40
700.60	17060.16
700.73	17069.53
700.87	16592.06
701.00	16617.80
701.13	16460.99
701.26	16283.11
701.40	16283.11
701.53	16334.60
701.66	16599.08
701.79	16102.89
701.93	15435.83
702.06	15707.34
702.19	15770.53
702.32	15641.80
702.46	15871.17
702.59	16042.03
702.72	15683.93
702.85	15611.37
702.99	15693.29
703.12	15428.81
703.25	15389.02
703.38	15108.16
703.51	15178.37
703.65	14970.07
703.78	14633.03
703.91	14483.24
704.04	14874.10
704.17	14675.16
704.31	14530.05
704.44	14588.56
704.57	14534.73
704.70	14464.51
704.83	14366.21
704.96	14373.23
705.10	14171.94
705.23	13970.66
>>>>>End Processed Spectral Data<<<<<
