SpectraSuite Data File
++++++++++++++++++++++++++++++++++++
Date: Fri Oct 25 10:43:54 EDT 2013
User: price-jones
Dark Spectrum Present: No
Reference Spectrum Present: No
Number of Sampled Component Spectra: 1
Spectrometers: USB2+H05261
Integration Time (usec): 100000 (USB2+H05261)
Spectra Averaged: 1 (USB2+H05261)
Boxcar Smoothing: 0 (USB2+H05261)
Correct for Electrical Dark: No (USB2+H05261)
Strobe/Lamp Enabled: No (USB2+H05261)
Correct for Detector Non-linearity: No (USB2+H05261)
Correct for Stray Light: No (USB2+H05261)
Number of Pixels in Processed Spectrum: 2048
>>>>>Begin Processed Spectral Data<<<<<
365.73	126.39
365.92	126.39
366.12	126.39
366.32	42.13
366.52	44.47
366.72	39.79
366.91	30.43
367.11	37.45
367.31	51.49
367.51	28.09
367.70	0.00
367.90	0.00
368.10	23.41
368.30	32.77
368.49	14.04
368.69	39.79
368.89	0.00
369.09	67.88
369.28	0.00
369.48	9.36
369.68	138.09
369.87	58.51
370.07	42.13
370.27	168.52
370.47	154.48
370.66	337.04
370.86	407.25
371.06	472.79
371.25	517.26
371.45	461.09
371.65	489.17
371.84	428.32
372.04	491.51
372.24	496.19
372.44	552.37
372.63	486.83
372.83	491.51
373.03	477.47
373.22	484.49
373.42	486.83
373.62	580.45
373.81	622.58
374.01	573.43
374.21	589.82
374.40	512.58
374.60	613.22
374.79	580.45
374.99	528.96
375.19	575.77
375.38	664.71
375.58	617.90
375.78	671.73
375.97	713.86
376.17	688.12
376.37	601.52
376.56	601.52
376.76	662.37
376.95	547.69
377.15	594.50
377.35	599.18
377.54	634.29
377.74	638.97
377.93	653.01
378.13	648.33
378.33	692.80
378.52	669.39
378.72	610.88
378.91	716.20
379.11	699.82
379.31	671.73
379.50	669.39
379.70	699.82
379.89	688.12
380.09	741.95
380.28	739.61
380.48	727.91
380.68	674.07
380.87	713.86
381.07	667.05
381.26	706.84
381.46	648.33
381.65	748.97
381.85	699.82
382.04	674.07
382.24	704.50
382.43	751.31
382.63	702.16
382.83	751.31
383.02	739.61
383.22	716.20
383.41	739.61
383.61	699.82
383.80	823.87
384.00	753.65
384.19	704.50
384.39	917.49
384.58	837.91
384.78	798.12
384.97	849.61
385.17	774.72
385.36	835.57
385.56	781.74
385.75	891.74
385.95	880.04
386.14	826.21
386.34	912.81
386.53	819.19
386.72	910.47
386.92	851.96
387.11	877.70
387.31	901.11
387.50	830.89
387.70	901.11
387.89	931.53
388.09	922.17
388.28	943.24
388.48	950.26
388.67	976.00
388.86	1015.79
389.06	1036.86
389.25	1057.92
389.45	987.71
389.64	976.00
389.84	1043.88
390.03	1067.28
390.22	1104.73
390.42	1025.15
390.61	1107.07
390.81	1130.48
391.00	1116.44
391.19	1111.75
391.39	1088.35
391.58	1074.31
391.78	1064.94
391.97	1093.03
392.16	1116.44
392.36	1116.44
392.55	1097.71
392.75	1076.65
392.94	1060.26
393.13	1020.47
393.33	1029.84
393.52	1114.10
393.71	1104.73
393.91	1121.12
394.10	1104.73
394.29	1130.48
394.49	1191.33
394.68	1329.42
394.88	1203.04
395.07	1327.08
395.26	1277.93
395.46	1289.64
395.65	1369.21
395.84	1256.87
396.04	1334.11
396.23	1256.87
396.42	1219.42
396.62	1261.55
396.81	1310.70
397.00	1200.69
397.19	1306.02
397.39	1362.19
397.58	1455.81
397.77	1418.36
397.97	1528.37
398.16	1467.52
398.35	1563.48
398.55	1535.39
398.74	1535.39
398.93	1633.69
399.12	1568.16
399.32	1542.41
399.51	1533.05
399.70	1699.23
399.90	1724.97
400.09	1645.40
400.28	1732.00
400.47	1713.27
400.67	1755.40
400.86	1776.47
401.05	1785.83
401.24	1788.17
401.44	1799.87
401.63	1743.70
401.82	1825.62
402.01	1818.60
402.21	1849.02
402.40	1858.39
402.59	1853.70
402.78	1905.20
402.97	1884.13
403.17	1842.00
403.36	1858.39
403.55	1891.15
403.74	1893.49
403.93	1982.43
404.13	1844.34
404.32	1907.54
404.51	1891.15
404.70	1989.46
404.89	1867.75
405.09	2057.33
405.28	2043.29
405.47	2054.99
405.66	2026.90
405.85	2115.84
406.05	2106.48
406.24	2078.40
406.43	2038.61
406.62	2263.30
406.81	2118.18
407.00	2230.53
407.20	2239.89
407.39	2148.61
407.58	2200.10
407.77	2270.32
407.96	2157.97
408.15	2239.89
408.34	2347.56
408.54	2455.22
408.73	2368.62
408.92	2464.58
409.11	2457.56
409.30	2443.52
409.49	2380.32
409.68	2415.43
409.87	2406.07
410.07	2469.27
410.26	2469.27
410.45	2445.86
410.64	2516.08
410.83	2605.02
411.02	2637.78
411.21	2633.10
411.40	2698.64
411.59	2693.96
411.78	2757.15
411.98	2691.62
412.17	2785.24
412.36	2726.72
412.55	2815.66
412.74	2925.67
412.93	2871.84
413.12	2799.28
413.31	2963.12
413.50	2899.92
413.69	2986.52
413.88	3150.36
414.07	3047.38
414.26	3150.36
414.45	3035.67
414.64	3052.06
414.83	3101.21
415.02	3220.58
415.22	3227.60
415.41	3307.18
415.60	3279.09
415.79	3398.46
415.98	3454.63
416.17	3183.13
416.36	3424.20
416.55	3346.97
416.74	3459.31
416.93	3463.99
417.12	3363.35
417.31	3510.80
417.50	3440.59
417.69	3602.08
417.88	3599.74
418.07	3527.19
418.26	3681.66
418.45	3527.19
418.64	3829.12
418.83	3756.56
419.02	3810.39
419.21	3672.30
419.39	3812.73
419.58	3702.73
419.77	3660.60
419.96	3737.84
420.15	3829.12
420.34	3758.90
420.53	4007.00
420.72	3955.51
420.91	3906.35
421.10	4056.15
421.29	4018.70
421.48	4030.40
421.67	4065.51
421.86	4056.15
422.05	3985.93
422.24	3922.74
422.43	3974.23
422.61	4100.62
422.80	3978.91
422.99	4028.06
423.18	4037.42
423.37	4290.20
423.56	4081.89
423.75	4170.83
423.94	3873.59
424.13	3995.29
424.32	3988.27
424.50	4238.71
424.69	4313.61
424.88	4147.43
425.07	4133.39
425.26	4152.11
425.45	4051.47
425.64	4119.34
425.83	4170.83
426.01	4301.90
426.20	4219.99
426.39	4112.32
426.58	4102.96
426.77	4035.08
426.96	4266.80
427.15	4077.21
427.33	4215.30
427.52	4145.09
427.71	4290.20
427.90	4374.46
428.09	4351.06
428.28	4243.39
428.46	4264.46
428.65	4517.23
428.84	4456.38
429.03	4496.17
429.22	4250.41
429.40	4381.48
429.59	4198.92
429.78	4126.36
429.97	4004.66
430.16	4056.15
430.34	4315.95
430.53	4257.43
430.72	4337.01
430.91	4381.48
431.10	4559.36
431.28	4716.18
431.47	4786.40
431.66	5004.07
431.85	4770.01
432.03	5004.07
432.22	4931.51
432.41	4966.62
432.60	4854.27
432.79	4947.89
432.97	5013.43
433.16	4931.51
433.35	4891.72
433.54	4894.06
433.72	4917.47
433.91	4868.31
434.10	5013.43
434.28	5078.96
434.47	5128.11
434.66	5132.79
434.85	5062.58
435.03	5158.54
435.22	5256.84
435.41	5233.44
435.59	5235.78
435.78	5334.08
435.97	5427.70
436.16	5493.24
436.34	5423.02
436.53	5277.91
436.72	5486.22
436.90	5308.34
437.09	5411.32
437.28	5469.83
437.46	5247.48
437.65	5364.51
437.84	5296.63
438.02	5401.96
438.21	5320.04
438.40	5315.36
438.58	5568.13
438.77	5621.97
438.96	5748.36
439.14	5605.58
439.33	5907.51
439.52	6083.05
439.70	5907.51
439.89	5909.85
440.08	5975.39
440.26	6059.65
440.45	5991.77
440.63	6225.82
440.82	6197.74
441.01	6286.68
441.19	6282.00
441.38	6478.60
441.57	6459.88
441.75	6534.78
441.94	6637.76
442.12	6586.27
442.31	6759.47
442.50	6649.46
442.68	6434.13
442.87	6558.18
443.05	6431.79
443.24	6733.72
443.43	6766.49
443.61	6640.10
443.80	6771.17
443.98	6731.38
444.17	6621.38
444.35	7000.54
444.54	6850.75
444.73	6960.75
444.91	6672.87
445.10	6780.53
445.28	6717.34
445.47	6698.61
445.65	6719.68
445.84	6829.68
446.02	6815.64
446.21	6834.36
446.39	6883.52
446.58	6986.50
446.77	6846.07
446.95	6846.07
447.14	6890.54
447.32	7204.17
447.51	6923.30
447.69	6932.67
447.88	7056.72
448.06	7054.37
448.25	6906.92
448.43	7295.45
448.62	7138.63
448.80	6956.07
448.99	7110.55
449.17	7180.76
449.36	7176.08
449.54	7377.37
449.73	7492.05
449.91	7442.90
450.10	7391.41
450.28	7597.38
450.46	7386.73
450.65	7513.12
450.83	7625.47
451.02	7463.97
451.20	7599.72
451.39	7702.70
451.57	7508.44
451.76	7421.84
451.94	7485.03
452.13	7623.12
452.31	7456.95
452.49	7517.80
452.68	7571.63
452.86	7501.42
453.05	7712.07
453.23	7763.56
453.42	7604.40
453.60	7627.81
453.78	7829.09
453.97	7632.49
454.15	7761.22
454.34	7616.10
454.52	7889.95
454.70	7829.09
454.89	7990.59
455.07	7871.22
455.26	8051.44
455.44	8037.40
455.62	8025.70
455.81	7948.46
455.99	7948.46
456.17	8154.43
456.36	8140.38
456.54	8402.52
456.73	8248.05
456.91	8659.98
457.09	8472.74
457.28	8557.00
457.46	8400.18
457.64	8533.59
457.83	8514.87
458.01	8554.66
458.19	8629.56
458.38	8620.19
458.56	8631.90
458.74	8423.59
458.93	8636.58
459.11	8400.18
459.29	8650.62
459.48	8732.54
459.66	8589.77
459.84	8830.84
460.03	8849.57
460.21	8940.85
460.39	9032.13
460.57	8901.06
460.76	8936.17
460.94	9060.21
461.12	8926.80
461.31	8936.17
461.49	9125.75
461.67	9057.87
461.85	9210.01
462.04	9132.77
462.22	9224.05
462.40	9312.99
462.59	9085.96
462.77	9366.82
462.95	9371.50
463.13	9095.32
463.32	9397.25
463.50	9561.09
463.68	9359.80
463.86	9465.13
464.05	9193.62
464.23	9617.26
464.41	9558.75
464.59	9177.24
464.78	9760.03
464.96	9575.13
465.14	9528.32
465.32	9657.05
465.50	9619.60
465.69	9643.01
465.87	9664.07
466.05	9596.20
466.23	9558.75
466.41	9666.41
466.60	9771.74
466.78	9612.58
466.96	9572.79
467.14	9565.77
467.32	9734.29
467.51	9870.04
467.69	9696.84
467.87	9809.19
468.05	9856.00
468.23	9860.68
468.41	9652.37
468.60	9933.23
468.78	10080.69
468.96	9926.21
469.14	9970.68
469.32	10289.00
469.50	9935.57
469.69	10038.56
469.87	10223.46
470.05	10228.14
470.23	10239.84
470.41	10181.33
470.59	10333.47
470.77	10478.58
470.95	10466.88
471.14	10576.88
471.32	10211.76
471.50	10796.89
471.68	10630.71
471.86	10745.40
472.04	11002.86
472.22	11084.78
472.40	10492.62
472.58	10822.64
472.77	10897.53
472.95	11201.80
473.13	11232.23
473.31	10977.11
473.49	11056.69
473.67	11211.17
473.85	11073.07
474.03	11276.70
474.21	11634.80
474.39	11461.60
474.57	11442.88
474.75	11583.31
474.93	11611.40
475.12	11705.02
475.30	11829.07
475.48	11555.22
475.66	11850.13
475.84	11918.01
476.02	11733.11
476.20	11702.68
476.38	12226.96
476.56	12395.48
476.74	12325.26
476.92	12468.03
477.10	12173.13
477.28	12528.89
477.46	12547.61
477.64	12519.53
477.82	12798.05
478.00	13046.15
478.18	13245.09
478.36	13018.06
478.54	13139.77
478.72	13298.92
478.90	13507.23
479.08	13624.26
479.26	13734.26
479.44	13584.47
479.62	13837.25
479.80	13867.67
479.98	13998.74
480.16	14242.16
480.34	14047.90
480.52	14398.98
480.70	14380.25
480.88	14223.44
481.06	14448.13
481.24	14305.35
481.41	14817.93
481.59	15232.21
481.77	15208.80
481.95	15033.26
482.13	15335.19
482.31	15232.21
482.49	15665.21
482.67	15609.03
482.85	15829.04
483.03	15847.77
483.21	15868.83
483.39	16084.16
483.57	15887.56
483.74	16086.50
483.92	16292.47
484.10	16098.20
484.28	16500.78
484.46	16706.74
484.64	16858.88
484.82	16533.54
485.00	16870.58
485.18	17083.57
485.35	17212.30
485.53	16531.20
485.71	16624.83
485.89	16961.86
486.07	16877.60
486.25	17186.55
486.43	17448.69
486.61	17720.20
486.78	17837.22
486.96	17806.80
487.14	18108.72
487.32	18768.76
487.50	18768.76
487.68	18724.29
487.85	18916.21
488.03	18925.57
488.21	19119.84
488.39	19300.06
488.57	19534.11
488.75	19091.75
488.92	19796.25
489.10	20020.94
489.28	20102.86
489.46	20390.75
489.64	20240.95
489.81	21020.35
489.99	20545.22
490.17	21081.21
490.35	21256.75
490.53	21085.89
490.70	21170.15
490.88	21123.33
491.06	21940.18
491.24	21474.42
491.41	21823.16
491.59	21666.34
491.77	21586.76
491.95	21584.42
492.13	22150.83
492.30	22628.30
492.48	22300.62
492.66	22799.16
492.84	22651.70
493.01	23122.15
493.19	22927.89
493.37	23229.82
493.54	23257.90
493.72	23726.01
493.90	23414.72
494.08	23702.61
494.25	23616.01
494.43	23964.75
494.61	24308.80
494.79	24114.54
494.96	24521.79
495.14	24348.59
495.32	24390.72
495.49	24650.52
495.67	24797.98
495.85	24863.51
496.02	25228.63
496.20	25142.03
496.38	24915.00
496.55	25528.22
496.73	26263.15
496.91	25649.93
497.09	26008.03
497.26	25928.45
497.44	26073.57
497.62	26132.08
497.79	26345.07
497.97	25902.71
498.14	26483.16
498.32	26661.04
498.50	26820.20
498.67	27077.66
498.85	26789.77
499.03	27143.19
499.20	27239.15
499.38	27461.51
499.56	27321.07
499.73	27571.51
499.91	27356.18
500.08	27679.18
500.26	27285.97
500.44	27431.08
500.61	27840.67
500.79	27414.69
500.97	27821.95
501.14	27950.68
501.32	28133.24
501.49	28112.17
501.67	28273.67
501.84	28292.40
502.02	28411.76
502.20	28716.03
502.37	28837.74
502.55	28493.68
502.72	29083.50
502.90	28833.06
503.07	28975.83
503.25	29008.60
503.43	29062.43
503.60	28800.29
503.78	29139.67
503.95	29186.48
504.13	29462.66
504.30	29530.54
504.48	29647.57
504.65	29942.47
504.83	29956.52
505.01	30403.56
505.18	29860.55
505.36	30508.88
505.53	30541.65
505.71	30581.44
505.88	30815.49
506.06	30450.37
506.23	30855.28
506.41	30710.17
506.58	30829.54
506.76	31225.09
506.93	30698.47
507.11	30871.67
507.28	30733.57
507.46	30866.98
507.63	31063.59
507.81	31498.93
507.98	31480.21
508.16	31351.48
508.33	31618.30
508.50	31583.19
508.68	31892.14
508.85	32655.15
509.03	32020.87
509.20	31793.84
509.38	32191.73
509.55	32243.22
509.73	32484.30
509.90	32313.44
510.08	32451.53
510.25	32109.81
510.42	31995.12
510.60	32708.99
510.77	32762.82
510.95	33027.30
511.12	33139.65
511.30	33298.80
511.47	33298.80
511.64	33883.94
511.82	33963.51
511.99	33331.57
512.17	33668.61
512.34	33146.67
512.51	33748.18
512.69	33481.36
512.86	33738.82
513.04	34213.95
513.21	33944.79
513.38	33516.47
513.56	33577.33
513.73	33797.34
513.90	33907.34
514.08	33755.21
514.25	34146.08
514.43	34452.69
514.60	34284.17
514.77	34766.32
514.95	34518.22
515.12	34597.80
515.29	34754.61
515.47	34845.90
515.64	35051.86
515.81	34836.53
515.99	34352.04
516.16	34567.37
516.33	34696.10
516.51	34534.60
516.68	34235.02
516.85	33977.56
517.03	34333.32
517.20	34630.57
517.37	35117.40
517.54	35318.68
517.72	35620.61
517.89	35037.82
518.06	34632.91
518.24	35236.77
518.41	34976.97
518.58	35580.82
518.75	35950.63
518.93	36044.25
519.10	35934.24
519.27	36027.87
519.45	36299.37
519.62	36542.78
519.79	36671.51
519.96	36683.22
520.14	36636.41
520.31	35929.56
520.48	36336.82
520.65	36634.06
520.83	37008.55
521.00	37212.18
521.17	36783.86
521.34	37027.28
521.52	36994.51
521.69	37055.36
521.86	37359.63
522.03	37401.76
522.20	37067.06
522.38	37621.77
522.55	37385.38
522.72	37516.45
522.89	37727.10
523.07	38029.02
523.24	37722.41
523.41	38033.71
523.58	38436.28
523.75	38242.01
523.92	38361.38
524.10	38436.28
524.27	38815.44
524.44	38403.51
524.61	38789.70
524.78	38469.04
524.96	38597.77
525.13	38862.26
525.30	39201.63
525.47	39449.73
525.64	38567.35
525.81	38611.82
525.98	38548.62
526.16	38469.04
526.33	38253.72
526.50	38478.41
526.67	38010.30
526.84	38211.59
527.01	38476.07
527.18	39208.65
527.36	39161.84
527.53	39512.92
527.70	39735.27
527.87	39665.06
528.04	39529.31
528.21	39501.22
528.38	39597.18
528.55	40002.10
528.72	39882.73
528.89	40112.10
529.07	40367.22
529.24	39718.89
529.41	40027.84
529.58	39880.39
529.75	39978.69
529.92	40292.32
530.09	40407.01
530.26	40308.71
530.43	40790.86
530.60	40456.16
530.77	40289.98
530.94	40678.51
531.11	40432.75
531.28	41090.44
531.46	41029.59
531.63	40680.85
531.80	40655.11
531.97	40402.33
532.14	40615.32
532.31	40203.38
532.48	40907.88
532.65	40858.73
532.82	40685.53
532.99	41195.77
533.16	40818.94
533.33	41357.27
533.50	41429.82
533.67	40947.67
533.84	40767.45
534.01	41596.00
534.18	40774.47
534.35	41411.10
534.52	41354.93
534.69	41572.60
534.86	41387.69
535.03	41525.78
535.20	42087.51
535.37	42101.56
535.54	41715.37
535.71	42192.84
535.88	41755.16
536.05	41633.45
536.22	41593.66
536.38	41902.61
536.55	41881.55
536.72	41708.35
536.89	41588.98
537.06	41635.79
537.23	42564.98
537.40	42052.41
537.57	41890.91
537.74	42433.91
537.91	42515.83
538.08	42190.50
538.25	41865.16
538.42	42267.73
538.59	42838.83
538.75	42408.17
538.92	42646.90
539.09	42277.10
539.26	42483.06
539.43	42525.19
539.60	42745.20
539.77	42382.42
539.94	42464.34
540.11	42621.16
540.28	42707.76
540.44	42731.16
540.61	42721.80
540.78	42452.64
540.95	42782.65
541.12	42403.49
541.29	42871.59
541.46	42728.82
541.62	43103.31
541.79	43435.66
541.96	42682.01
542.13	42724.14
542.30	42969.90
542.47	43419.28
542.63	43063.52
542.80	43019.05
542.97	43419.28
543.14	43665.03
543.31	43435.66
543.48	43826.53
543.64	43976.33
543.81	43683.76
543.98	43976.33
544.15	44107.40
544.32	44311.02
544.48	44449.11
544.65	44065.27
544.82	44369.54
544.99	43700.14
545.16	44004.41
545.32	43735.25
545.49	44353.15
545.66	44306.34
545.83	44264.21
546.00	44196.34
546.16	44502.95
546.33	44191.65
546.50	43990.37
546.67	44491.24
546.83	44203.36
547.00	44224.42
547.17	44439.75
547.34	43920.15
547.50	44449.11
547.67	44332.09
547.84	44533.37
548.00	44924.24
548.17	44893.82
548.34	44802.53
548.51	45184.04
548.67	44907.86
548.84	44870.41
549.01	44428.05
549.18	44788.49
549.34	44528.69
549.51	45237.87
549.68	45359.58
549.84	44662.10
550.01	45130.21
550.18	45448.52
550.34	45074.04
550.51	45083.40
550.68	44758.06
550.84	44697.21
551.01	44832.96
551.18	45366.60
551.34	45188.72
551.51	45476.61
551.68	45415.76
551.84	45434.48
552.01	45298.73
552.18	45340.86
552.34	44690.19
552.51	45214.47
552.68	45621.72
552.84	45361.92
553.01	45638.11
553.18	45553.85
553.34	44975.73
553.51	45165.32
553.67	45586.61
553.84	46134.30
554.01	45848.75
554.17	45727.05
554.34	46007.91
554.51	45984.51
554.67	45818.33
554.84	45577.25
555.00	45621.72
555.17	45537.46
555.33	46000.89
555.50	46089.83
555.67	45492.99
555.83	45724.71
556.00	45823.01
556.16	45841.73
556.33	46021.95
556.50	46054.72
556.66	45921.31
556.83	45975.14
556.99	45909.61
557.16	46358.99
557.32	46134.30
557.49	46068.76
557.65	45928.33
557.82	45825.35
557.98	46028.98
558.15	46028.98
558.32	46155.36
558.48	45287.03
558.65	46080.47
558.81	45823.01
558.98	45895.56
559.14	46230.26
559.31	46012.59
559.47	46344.95
559.64	46469.00
559.80	46377.72
559.97	46239.62
560.13	46288.77
560.30	45867.48
560.46	46560.28
560.63	46419.84
560.79	46579.00
560.96	46674.96
561.12	46188.13
561.29	46188.13
561.45	46340.27
561.61	46101.53
561.78	46188.13
561.94	46459.63
562.11	46232.60
562.27	46583.68
562.44	46300.48
562.60	46696.03
562.77	46576.66
562.93	46260.69
563.10	46314.52
563.26	45965.78
563.42	46899.65
563.59	46373.03
563.75	46398.78
563.92	46649.22
564.08	46536.87
564.24	46878.59
564.41	46557.94
564.57	46571.98
564.74	46476.02
564.90	46590.70
565.07	46653.90
565.23	46672.62
565.39	46555.60
565.56	46410.48
565.72	46120.26
565.88	46527.51
566.05	46513.47
566.21	46876.25
566.38	46539.21
566.54	46869.23
566.70	46946.47
566.87	46967.53
567.03	46703.05
567.19	47426.28
567.36	46967.53
567.52	46731.14
567.68	46873.91
567.85	46859.87
568.01	46756.88
568.17	46726.46
568.34	47030.72
568.50	46848.16
568.66	46813.05
568.83	47070.51
568.99	46653.90
569.15	46796.67
569.32	46962.85
569.48	46412.82
569.64	46979.23
569.81	46370.69
569.97	46883.27
570.13	46705.39
570.30	46555.60
570.46	46607.09
570.62	46277.07
570.78	46148.34
570.95	46244.30
571.11	46782.63
571.27	46972.21
571.43	46932.42
571.60	47192.22
571.76	47114.98
571.92	47325.63
572.09	46813.05
572.25	46892.63
572.41	46579.00
572.57	46728.80
572.74	47370.10
572.90	47058.81
573.06	47019.02
573.22	47068.17
573.38	46955.83
573.55	46698.37
573.71	47037.75
573.87	46689.01
574.03	46724.11
574.20	47000.30
574.36	46480.70
574.52	47082.22
574.68	46960.51
574.84	46981.57
575.01	47075.19
575.17	47089.24
575.33	46527.51
575.49	46417.50
575.65	47014.34
575.82	47290.52
575.98	46770.93
576.14	46789.65
576.30	46721.77
576.46	46955.83
576.62	47061.15
576.79	47086.90
576.95	46674.96
577.11	46843.48
577.27	47079.88
577.43	47206.26
577.59	46497.08
577.75	46506.44
577.92	46429.21
578.08	46436.23
578.24	46625.81
578.40	46824.76
578.56	47105.62
578.72	46621.13
578.88	47056.47
579.04	47107.96
579.21	46969.87
579.37	47288.18
579.53	46939.44
579.69	47026.04
579.85	46866.89
580.01	47026.04
580.17	47419.25
580.33	46904.34
580.49	46988.60
580.65	46801.35
580.82	47351.38
580.98	46983.91
581.14	46581.34
581.30	47054.13
581.46	47026.04
581.62	47594.79
581.78	46976.89
581.94	47255.42
582.10	47255.42
582.26	47278.82
582.42	47072.85
582.58	47281.16
582.74	47047.11
582.90	47412.23
583.06	47353.72
583.22	47482.45
583.38	47334.99
583.54	47180.52
583.70	47402.87
583.86	47299.89
584.02	46501.76
584.18	46979.23
584.34	47124.35
584.50	47037.75
584.66	47012.00
584.82	46766.24
584.98	47253.08
585.14	46972.21
585.30	46775.61
585.46	47030.72
585.62	46777.95
585.78	46979.23
585.94	46738.16
586.10	47122.01
586.26	46742.84
586.42	47489.47
586.58	47152.43
586.74	47147.75
586.90	47089.24
587.06	47000.30
587.22	47077.54
587.38	47161.79
587.54	47007.32
587.70	47412.23
587.86	47241.37
588.02	47068.17
588.18	47147.75
588.34	47089.24
588.49	46464.32
588.65	46167.07
588.81	46597.73
588.97	46930.08
589.13	46677.30
589.29	47133.71
589.45	46749.86
589.61	46951.15
589.77	47489.47
589.93	46799.01
590.08	47213.29
590.24	47091.58
590.40	47199.24
590.56	47489.47
590.72	47505.85
590.88	46894.97
591.04	47028.38
591.20	46974.55
591.35	47215.63
591.51	47693.10
591.67	46836.46
591.83	46887.95
591.99	47150.09
592.15	46820.08
592.31	47381.80
592.46	47089.24
592.62	47096.26
592.78	47566.71
592.94	47365.42
593.10	47351.38
593.26	47393.51
593.41	47543.30
593.57	47058.81
593.73	47248.39
593.89	47185.20
594.05	47466.06
594.20	46988.60
594.36	46909.02
594.52	47035.41
594.68	46756.88
594.84	47002.64
594.99	47412.23
595.15	47105.62
595.31	47461.38
595.47	47208.61
595.62	47657.99
595.78	47131.37
595.94	47515.22
596.10	47295.21
596.25	47683.73
596.41	47049.45
596.57	47136.05
596.73	47445.00
596.88	47381.80
597.04	47295.21
597.20	47192.22
597.36	46939.44
597.51	47423.93
597.67	47082.22
597.83	47299.89
597.99	47555.00
598.14	47316.27
598.30	47407.55
598.46	47379.46
598.61	47339.68
598.77	47236.69
598.93	47068.17
599.09	47358.40
599.24	47346.70
599.40	47494.15
599.56	47124.35
599.71	47267.12
599.87	46878.59
600.03	47285.84
600.18	47349.04
600.34	47143.07
600.50	47260.10
600.65	46731.14
600.81	47124.35
600.97	47330.31
601.12	47026.04
601.28	47423.93
601.44	46897.31
601.59	46866.89
601.75	46836.46
601.91	47161.79
602.06	46997.96
602.22	47253.08
602.37	47133.71
602.53	47505.85
602.69	47475.43
602.84	47033.07
603.00	47194.56
603.16	47129.03
603.31	47264.78
603.47	47290.52
603.62	46890.29
603.78	47070.51
603.94	47323.29
604.09	46990.94
604.25	47217.97
604.40	46658.58
604.56	46983.91
604.71	47119.66
604.87	47157.11
605.03	46976.89
605.18	46916.04
605.34	46930.08
605.49	46822.42
605.65	46777.95
605.80	47274.14
605.96	47297.55
606.12	46731.14
606.27	47353.72
606.43	47072.85
606.58	47091.58
606.74	46625.81
606.89	46845.82
607.05	46967.53
607.20	47004.98
607.36	46836.46
607.51	47573.73
607.67	46766.24
607.82	46600.07
607.98	46539.21
608.13	46742.84
608.29	46579.00
608.44	46344.95
608.60	46630.49
608.75	47014.34
608.91	46796.67
609.06	46815.40
609.22	47070.51
609.37	46745.18
609.53	46876.25
609.68	46780.29
609.84	46794.33
609.99	46450.27
610.15	46380.06
610.30	46267.71
610.46	46103.87
610.61	46464.32
610.76	46476.02
610.92	46710.07
611.07	46721.77
611.23	46588.36
611.38	46443.25
611.54	46279.41
611.69	46344.95
611.84	46403.46
612.00	46050.04
612.15	46052.38
612.31	46389.42
612.46	46316.86
612.62	46213.88
612.77	46363.67
612.92	46724.11
613.08	45827.69
613.23	45935.35
613.39	45745.77
613.54	45474.27
613.69	45769.18
613.85	45797.26
614.00	46241.96
614.15	46330.90
614.31	45947.06
614.46	46422.19
614.62	46108.55
614.77	46148.34
614.92	45839.39
615.08	46143.66
615.23	46092.17
615.38	46059.40
615.54	45551.51
615.69	45422.78
615.84	45558.53
616.00	45820.67
616.15	45380.65
616.30	45841.73
616.46	45640.45
616.61	45656.83
616.76	45790.24
616.92	45497.67
617.07	45537.46
617.22	45542.14
617.37	45059.99
617.53	45401.71
617.68	45914.29
617.83	45586.61
617.99	45399.37
618.14	45649.81
618.29	45462.57
618.45	45088.08
618.60	45448.52
618.75	44797.85
618.90	45385.33
619.06	45034.25
619.21	45331.50
619.36	45539.80
619.51	44914.88
619.67	45146.59
619.82	45123.19
619.97	45539.80
620.12	45008.50
620.28	44964.03
620.43	45268.30
620.58	45090.42
620.73	44903.18
620.89	45081.06
621.04	45275.32
621.19	45153.62
621.34	44931.26
621.49	44608.27
621.65	44776.79
621.80	44966.37
621.95	44879.77
622.10	44851.69
622.25	44268.89
622.41	44648.06
622.56	44378.90
622.71	44978.07
622.86	44748.70
623.01	44987.44
623.16	44601.25
623.32	44634.02
623.47	44648.06
623.62	44552.10
623.77	44439.75
623.92	44758.06
624.07	44177.61
624.23	44114.42
624.38	44154.21
624.53	44282.94
624.68	44430.39
624.83	44830.62
624.98	44318.04
625.13	43831.21
625.29	43908.45
625.44	43866.32
625.59	44158.89
625.74	43604.18
625.89	43852.28
626.04	43627.59
626.19	43948.24
626.34	43971.64
626.49	43882.70
626.65	43866.32
626.80	44154.21
626.95	43732.91
627.10	43655.67
627.25	43611.20
627.40	43646.31
627.55	43213.31
627.70	43468.43
627.85	43346.72
628.00	43318.64
628.15	43533.96
628.30	43749.29
628.45	44039.52
628.60	43199.27
628.76	43929.51
628.91	43643.97
629.06	43000.32
629.21	42953.51
629.36	43337.36
629.51	43161.82
629.66	43332.68
629.81	43344.38
629.96	42955.85
630.11	43187.56
630.26	43342.04
630.41	43548.01
630.56	43021.39
630.71	42595.41
630.86	43157.14
631.01	42810.74
631.16	42642.22
631.31	42761.59
631.46	42483.06
631.61	42862.23
631.76	42864.57
631.91	42677.33
632.06	43033.09
632.21	43260.12
632.36	42541.58
632.51	42412.85
632.66	42454.98
632.81	42773.29
632.96	42487.74
633.10	42796.70
633.25	42749.88
633.40	42569.66
633.55	42445.62
633.70	42450.30
633.85	42522.85
634.00	42618.81
634.15	42368.38
634.30	42298.16
634.45	42092.19
634.60	42127.30
634.75	42464.34
634.90	42068.79
635.05	42117.94
635.19	41996.23
635.34	42359.02
635.49	42305.18
635.64	42059.43
635.79	42122.62
635.94	41998.57
636.09	42213.90
636.24	41970.49
636.39	42089.85
636.53	41645.15
636.68	41677.92
636.83	41858.14
636.98	42047.72
637.13	41738.77
637.28	42277.10
637.43	42099.22
637.57	41729.41
637.72	42061.77
637.87	41996.23
638.02	41818.35
638.17	41757.50
638.32	41614.72
638.46	41621.75
638.61	41478.97
638.76	41497.70
638.91	41624.09
639.06	41476.63
639.20	41752.82
639.35	42143.69
639.50	41834.74
639.65	41993.89
639.80	41771.54
639.94	41572.60
640.09	41163.00
640.24	41118.53
640.39	41123.21
640.54	40802.56
640.68	41343.22
640.83	40985.12
640.98	40907.88
641.13	40891.50
641.27	40994.48
641.42	40994.48
641.57	40854.05
641.72	40910.22
641.86	40751.07
642.01	41095.13
642.16	40652.76
642.31	40573.19
642.45	40772.13
642.60	40655.11
642.75	40996.82
642.90	40762.77
643.04	40786.18
643.19	40451.48
643.34	40727.66
643.48	40830.65
643.63	41078.74
643.78	40498.29
643.93	40809.58
644.07	40669.15
644.22	40631.70
644.37	40187.00
644.51	40603.61
644.66	40549.78
644.81	40645.74
644.95	40601.27
645.10	40900.86
645.25	40629.36
645.39	40299.34
645.54	40498.29
645.69	40556.80
645.83	40481.91
645.98	40306.37
646.13	40219.77
646.27	40533.40
646.42	39971.67
646.57	40116.78
646.71	40018.48
646.86	39852.30
647.00	40456.16
647.15	39775.06
647.30	39955.29
647.44	39957.63
647.59	40009.12
647.74	39594.84
647.88	40161.25
648.03	39601.86
648.17	39517.60
648.32	39594.84
648.47	39784.43
648.61	39161.84
648.76	40020.82
648.90	39744.64
649.05	39910.82
649.20	39304.62
649.34	39569.10
649.49	39147.80
649.63	39559.73
649.78	39810.17
649.92	39594.84
650.07	39814.85
650.21	39412.28
650.36	39966.99
650.51	39957.63
650.65	39988.05
650.80	39934.22
650.94	39681.44
651.09	39463.77
651.23	39028.43
651.38	39482.50
651.52	39061.20
651.67	39260.15
651.81	38808.42
651.96	39068.22
652.10	38892.68
652.25	39145.46
652.39	39250.78
652.54	39459.09
652.68	39082.27
652.83	39484.84
652.97	39372.49
653.12	39356.11
653.26	38553.30
653.41	38934.81
653.55	38684.37
653.70	38836.51
653.84	38918.43
653.99	38843.53
654.13	38883.32
654.27	38714.80
654.42	38838.85
654.56	38768.63
654.71	38649.27
654.85	38321.59
655.00	38569.69
655.14	38440.96
655.29	38281.80
655.43	38134.35
655.57	37958.81
655.72	37539.85
655.86	37900.29
656.01	37909.66
656.15	37432.19
656.30	37858.17
656.44	38092.22
656.58	37907.32
656.73	38286.48
656.87	38202.22
657.01	37942.42
657.16	37659.22
657.30	37691.99
657.45	37701.35
657.59	37549.21
657.73	37631.13
657.88	38073.49
658.02	38307.55
658.16	38064.13
658.31	37883.91
658.45	38431.60
658.60	37652.20
658.74	38017.32
658.88	37921.36
659.03	37647.52
659.17	37635.81
659.31	37507.08
659.46	37202.82
659.60	37509.43
659.74	37425.17
659.89	37638.15
660.03	37074.09
660.17	37378.36
660.32	37549.21
660.46	37607.73
660.60	37132.60
660.74	37549.21
660.89	37146.64
661.03	36699.60
661.17	36952.38
661.32	36758.11
661.46	37069.40
661.60	37127.92
661.74	36514.70
661.89	37120.90
662.03	36589.59
662.17	36711.30
662.31	36861.10
662.46	37200.47
662.60	36804.92
662.74	36638.75
662.88	36385.97
663.03	36236.17
663.17	36439.80
663.31	36334.48
663.45	36320.43
663.60	36250.22
663.74	36126.17
663.88	35484.86
664.02	35768.07
664.17	36025.53
664.31	35716.58
664.45	35786.79
664.59	35920.20
664.73	35662.74
664.88	36224.47
665.02	35810.20
665.16	35290.60
665.30	35742.32
665.44	35419.33
665.59	35103.35
665.73	35269.53
665.87	35356.13
666.01	35321.02
666.15	35299.96
666.29	35264.85
666.44	35381.88
666.58	35185.27
666.72	35124.42
666.86	35028.46
667.00	35019.10
667.14	34653.97
667.28	34836.53
667.43	34848.24
667.57	35199.32
667.71	34672.70
667.85	34885.68
667.99	34630.57
668.13	34838.87
668.27	34375.45
668.41	34822.49
668.56	34455.03
668.70	34483.11
668.84	34061.82
668.98	33785.63
669.12	34082.88
669.26	33862.87
669.40	34178.84
669.54	33825.42
669.68	33825.42
669.82	33687.33
669.96	34092.24
670.10	33507.11
670.25	33659.24
670.39	33631.16
670.53	33294.12
670.67	33413.49
670.81	33787.97
670.95	33448.60
671.09	33436.89
671.23	32971.13
671.37	33422.85
671.51	32900.91
671.65	32994.53
671.79	32912.61
671.93	32809.63
672.07	33214.54
672.21	32701.96
672.35	32971.13
672.49	33106.88
672.63	32587.28
672.77	32924.32
672.91	32676.22
673.05	32421.10
673.19	32627.07
673.33	31948.31
673.47	31838.31
673.61	32126.19
673.75	31683.83
673.89	31531.70
674.03	31789.16
674.17	32086.40
674.31	31784.48
674.45	31660.43
674.59	31777.45
674.73	31910.86
674.87	31475.52
675.01	31365.52
675.15	30958.27
675.29	31335.09
675.43	31204.02
675.56	31412.33
675.70	30991.03
675.84	31058.91
675.98	29928.43
676.12	31246.15
676.26	30885.71
676.40	31044.87
676.54	30817.83
676.68	30808.47
676.82	30010.35
676.96	30438.67
677.10	30656.34
677.23	30307.60
677.37	30258.45
677.51	29855.87
677.65	29713.10
677.79	29427.56
677.93	30047.80
678.07	29322.23
678.21	29589.05
678.34	29331.59
678.48	28989.88
678.62	28954.77
678.76	28891.57
678.90	28959.45
679.04	28833.06
679.18	28893.91
679.31	28634.11
679.45	28591.98
679.59	28645.82
679.73	29146.69
679.87	28444.53
680.00	28587.30
680.14	28252.61
680.28	28437.51
680.42	27992.81
680.56	28261.97
680.70	27941.32
680.83	27981.10
680.97	27812.59
681.11	27674.49
681.25	27742.37
681.39	27559.81
681.52	27688.54
681.66	27431.08
681.80	27197.02
681.94	27232.13
682.07	27211.07
682.21	27072.98
682.35	26881.05
682.49	27098.72
682.62	26600.19
682.76	26670.40
682.90	26349.75
683.04	26309.96
683.17	26546.36
683.31	26295.92
683.45	26242.09
683.59	26106.34
683.72	26284.22
683.86	26066.55
684.00	26132.08
684.13	25841.85
684.27	25500.14
684.41	25553.97
684.55	25652.27
684.68	25710.78
684.82	25221.61
684.96	25167.78
685.09	25256.72
685.23	25202.89
685.37	25156.08
685.50	25163.10
685.64	25104.59
685.78	24641.16
685.91	24290.08
686.05	24416.47
686.19	24299.44
686.32	24072.41
686.46	23665.16
686.60	23534.09
686.73	23709.63
686.87	23342.16
687.01	23063.64
687.14	23278.97
687.28	23419.40
687.42	23721.33
687.55	23477.91
687.69	23269.61
687.82	22986.40
687.96	23475.57
688.10	22930.23
688.23	22768.73
688.37	22714.90
688.50	22780.43
688.64	23044.91
688.78	22586.17
688.91	22398.93
689.05	22583.83
689.18	22675.11
689.32	22436.38
689.46	22389.56
689.59	22527.66
689.73	22515.95
689.86	21954.22
690.00	21563.36
690.13	21968.27
690.27	21771.66
690.41	21654.64
690.54	21563.36
690.68	21434.63
690.81	21561.02
690.95	21289.51
691.08	21685.06
691.22	21231.00
691.35	21528.25
691.49	21301.22
691.62	21413.56
691.76	21273.13
691.89	21132.70
692.03	21200.57
692.16	20716.08
692.30	20802.68
692.43	20479.69
692.57	20287.76
692.70	20318.19
692.84	20257.34
692.97	20428.20
693.11	20173.08
693.24	19857.10
693.38	19974.13
693.51	19981.15
693.65	20112.22
693.78	19859.45
693.92	19812.63
694.05	19737.74
694.19	19857.10
694.32	19463.90
694.45	19655.82
694.59	19435.81
694.72	19419.42
694.86	19253.25
694.99	18934.93
695.13	19122.18
695.26	19129.20
695.39	18850.67
695.53	19138.56
695.66	18916.21
695.80	18602.58
695.93	18745.35
696.07	18499.59
696.20	18829.61
696.33	18586.19
696.47	18541.72
696.60	18427.04
696.73	18300.65
696.87	18047.87
697.00	18071.28
697.14	17907.44
697.27	17851.27
697.40	17750.62
697.54	17460.40
697.67	17757.64
697.80	17764.67
697.94	17160.81
698.07	17207.62
698.21	17387.84
698.34	17273.15
698.47	17551.68
698.61	17003.99
698.74	17254.43
698.87	17111.66
699.01	16905.69
699.14	16596.74
699.27	16421.20
699.40	16746.53
699.54	16519.50
699.67	16311.19
699.80	16379.07
699.94	16255.02
700.07	16353.32
700.20	16243.32
700.34	15957.77
700.47	16011.60
700.60	16135.65
700.73	16308.85
700.87	15749.46
701.00	15840.75
701.13	15644.14
701.26	15587.97
701.40	15688.61
701.53	15552.86
701.66	15529.45
701.79	15480.30
701.93	15236.89
702.06	15129.22
702.19	14871.76
702.32	15007.52
702.46	14778.14
702.59	14979.43
702.72	14902.19
702.85	15154.97
702.99	14665.80
703.12	14965.39
703.25	14621.33
703.38	14527.71
703.51	14651.75
703.65	14523.02
703.78	14420.04
703.91	14324.08
704.04	14197.69
704.17	14012.79
704.31	14108.75
704.44	13902.78
704.57	14097.05
704.70	13886.40
704.83	13968.32
704.96	13675.75
705.10	13767.03
705.23	13792.78
>>>>>End Processed Spectral Data<<<<<
