SpectraSuite Data File
++++++++++++++++++++++++++++++++++++
Date: Fri Oct 25 10:43:23 EDT 2013
User: price-jones
Dark Spectrum Present: No
Reference Spectrum Present: No
Number of Sampled Component Spectra: 1
Spectrometers: USB2+H05261
Integration Time (usec): 100000 (USB2+H05261)
Spectra Averaged: 1 (USB2+H05261)
Boxcar Smoothing: 0 (USB2+H05261)
Correct for Electrical Dark: No (USB2+H05261)
Strobe/Lamp Enabled: No (USB2+H05261)
Correct for Detector Non-linearity: No (USB2+H05261)
Correct for Stray Light: No (USB2+H05261)
Number of Pixels in Processed Spectrum: 2048
>>>>>Begin Processed Spectral Data<<<<<
365.73	131.07
365.92	131.07
366.12	131.07
366.32	53.83
366.52	0.00
366.72	44.47
366.91	0.00
367.11	0.00
367.31	0.00
367.51	0.00
367.70	0.00
367.90	0.00
368.10	0.00
368.30	7.02
368.49	11.70
368.69	86.60
368.89	25.75
369.09	37.45
369.28	56.17
369.48	65.54
369.68	35.11
369.87	100.64
370.07	65.54
370.27	77.24
370.47	142.77
370.66	348.74
370.86	447.04
371.06	489.17
371.25	489.17
371.45	437.68
371.65	507.90
371.84	451.72
372.04	482.15
372.24	510.24
372.44	512.58
372.63	531.30
372.83	538.32
373.03	470.45
373.22	496.19
373.42	461.09
373.62	557.05
373.81	650.67
374.01	477.47
374.21	587.47
374.40	564.07
374.60	582.79
374.79	514.92
374.99	606.20
375.19	634.29
375.38	650.67
375.58	592.16
375.78	634.29
375.97	606.20
376.17	613.22
376.37	557.05
376.56	627.26
376.76	622.58
376.95	613.22
377.15	617.90
377.35	568.75
377.54	631.94
377.74	634.29
377.93	702.16
378.13	629.60
378.33	631.94
378.52	599.18
378.72	599.18
378.91	615.56
379.11	596.84
379.31	622.58
379.50	615.56
379.70	725.57
379.89	648.33
380.09	624.92
380.28	704.50
380.48	683.44
380.68	765.36
380.87	653.01
381.07	692.80
381.26	779.40
381.46	737.27
381.65	650.67
381.85	704.50
382.04	713.86
382.24	645.99
382.43	662.37
382.63	650.67
382.83	697.48
383.02	734.93
383.22	751.31
383.41	657.69
383.61	730.25
383.80	812.17
384.00	779.40
384.19	760.67
384.39	809.83
384.58	734.93
384.78	805.14
384.97	807.48
385.17	833.23
385.36	770.04
385.56	798.12
385.75	847.27
385.95	866.00
386.14	798.12
386.34	732.59
386.53	737.27
386.72	807.48
386.92	896.43
387.11	816.85
387.31	877.70
387.50	915.15
387.70	910.47
387.89	990.05
388.09	870.68
388.28	917.49
388.48	861.32
388.67	910.47
388.86	929.19
389.06	917.49
389.25	905.79
389.45	915.15
389.64	980.68
389.84	1034.52
390.03	973.66
390.22	1062.60
390.42	987.71
390.61	950.26
390.81	1006.43
391.00	1078.99
391.19	1060.26
391.39	961.96
391.58	1081.33
391.78	1043.88
391.97	1029.84
392.16	1022.81
392.36	1018.13
392.55	961.96
392.75	978.34
392.94	994.73
393.13	1055.58
393.33	1048.56
393.52	1046.22
393.71	1111.75
393.91	1097.71
394.10	1076.65
394.29	1116.44
394.49	1198.35
394.68	1247.51
394.88	1263.89
395.07	1100.05
395.26	1198.35
395.46	1249.85
395.65	1294.32
395.84	1263.89
396.04	1205.38
396.23	1116.44
396.42	1086.01
396.62	1214.74
396.81	1118.78
397.00	1217.08
397.19	1226.44
397.39	1343.47
397.58	1380.92
397.77	1287.29
397.97	1411.34
398.16	1399.64
398.35	1380.92
398.55	1418.36
398.74	1378.58
398.93	1554.12
399.12	1458.15
399.32	1537.73
399.51	1533.05
399.70	1591.56
399.90	1481.56
400.09	1544.75
400.28	1680.50
400.47	1612.63
400.67	1600.93
400.86	1582.20
401.05	1551.78
401.24	1696.89
401.44	1713.27
401.63	1760.08
401.82	1696.89
402.01	1685.19
402.21	1757.74
402.40	1703.91
402.59	1678.16
402.78	1778.81
402.97	1720.29
403.17	1790.51
403.36	1727.32
403.55	1804.55
403.74	1790.51
403.93	1881.79
404.13	1966.05
404.32	1839.66
404.51	1933.28
404.70	1879.45
404.89	1879.45
405.09	2031.58
405.28	2069.03
405.47	2024.56
405.66	1975.41
405.85	2010.52
406.05	1952.01
406.24	2017.54
406.43	1991.80
406.62	2040.95
406.81	2118.18
407.00	1940.30
407.20	2015.20
407.39	2136.91
407.58	2015.20
407.77	2162.66
407.96	2218.83
408.15	2214.15
408.34	2242.23
408.54	2289.04
408.73	2221.17
408.92	2342.88
409.11	2300.75
409.30	2342.88
409.49	2277.34
409.68	2286.70
409.87	2291.38
410.07	2298.41
410.26	2340.54
410.45	2375.64
410.64	2396.71
410.83	2448.20
411.02	2441.18
411.21	2586.29
411.40	2487.99
411.59	2605.02
411.78	2649.49
411.98	2670.55
412.17	2642.46
412.36	2726.72
412.55	2703.32
412.74	2801.62
412.93	2747.79
413.12	2761.83
413.31	2944.39
413.50	2904.60
413.69	2846.09
413.88	2946.73
414.07	2836.73
414.26	3007.59
414.45	2949.08
414.64	3063.76
414.83	3119.93
415.02	3126.96
415.22	3096.53
415.41	3206.53
415.60	3180.79
415.79	3253.34
415.98	3255.69
416.17	3236.96
416.36	3241.64
416.55	3211.22
416.74	3290.79
416.93	3082.49
417.12	3318.88
417.31	3452.29
417.50	3211.22
417.69	3515.48
417.88	3400.80
418.07	3414.84
418.26	3426.54
418.45	3515.48
418.64	3653.58
418.83	3515.48
419.02	3700.39
419.21	3606.77
419.39	3543.57
419.58	3557.61
419.77	3583.36
419.96	3754.22
420.15	3719.11
420.34	3639.53
420.53	3686.34
420.72	3803.37
420.91	3840.82
421.10	3794.01
421.29	3953.16
421.48	3913.38
421.67	3976.57
421.86	3791.67
422.05	3754.22
422.24	3782.31
422.43	3765.92
422.61	3875.93
422.80	4093.60
422.99	3969.55
423.18	3990.61
423.37	4044.45
423.56	4102.96
423.75	3976.57
423.94	3826.78
424.13	3749.54
424.32	3810.39
424.50	3896.99
424.69	4093.60
424.88	4100.62
425.07	3953.16
425.26	3896.99
425.45	3812.73
425.64	3871.25
425.83	3950.82
426.01	4021.04
426.20	4030.40
426.39	4063.17
426.58	3913.38
426.77	3929.76
426.96	3908.69
427.15	3941.46
427.33	4095.94
427.52	3981.25
427.71	4203.60
427.90	3957.85
428.09	4152.11
428.28	4173.18
428.46	4203.60
428.65	4149.77
428.84	4329.99
429.03	4196.58
429.22	4109.98
429.40	4051.47
429.59	4196.58
429.78	3880.61
429.97	3906.35
430.16	3974.23
430.34	4208.28
430.53	4163.81
430.72	4140.41
430.91	4109.98
431.10	4423.61
431.28	4568.73
431.47	4674.05
431.66	4580.43
431.85	4592.13
432.03	4624.90
432.22	4713.84
432.41	4587.45
432.60	4606.17
432.79	4821.50
432.97	4755.97
433.16	4741.93
433.35	4655.33
433.54	4652.98
433.72	4685.75
433.91	4702.14
434.10	4865.97
434.28	4823.84
434.47	4779.37
434.66	4929.17
434.85	5046.20
435.03	5029.81
435.22	4990.02
435.41	5163.22
435.59	5043.85
435.78	5163.22
435.97	5013.43
436.16	5200.67
436.34	5167.90
436.53	5013.43
436.72	5310.68
436.90	5142.16
437.09	5322.38
437.28	5043.85
437.46	5266.21
437.65	5247.48
437.84	5268.55
438.02	5039.17
438.21	5317.70
438.40	5125.77
438.58	5289.61
438.77	5322.38
438.96	5282.59
439.14	5614.95
439.33	5600.90
439.52	5706.23
439.70	5727.29
439.89	5830.27
440.08	5636.01
440.26	5809.21
440.45	5790.49
440.63	5856.02
440.82	5825.59
441.01	5907.51
441.19	6029.22
441.38	6045.60
441.57	6101.78
441.75	6237.53
441.94	6211.78
442.12	6258.59
442.31	6565.20
442.50	6427.11
442.68	6246.89
442.87	6214.12
443.05	6340.51
443.24	6581.59
443.43	6417.75
443.61	6431.79
443.80	6661.16
443.98	6265.61
444.17	6188.38
444.35	6544.14
444.54	6724.36
444.73	6574.56
444.91	6438.81
445.10	6754.79
445.28	6431.79
445.47	6434.13
445.65	6413.07
445.84	6548.82
446.02	6857.77
446.21	6602.65
446.39	6595.63
446.58	6588.61
446.77	6651.80
446.95	6473.92
447.14	6803.94
447.32	6864.79
447.51	6810.96
447.69	6799.26
447.88	6689.25
448.06	6745.42
448.25	6874.15
448.43	6935.01
448.62	6869.47
448.80	6693.93
448.99	6846.07
449.17	6890.54
449.36	6768.83
449.54	7030.97
449.73	7049.69
449.91	7222.89
450.10	7293.11
450.28	7225.23
450.46	7307.15
450.65	7302.47
450.83	7365.67
451.02	7262.68
451.20	7419.50
451.39	7281.41
451.57	7220.55
451.76	7342.26
451.94	7274.38
452.13	7527.16
452.31	7047.35
452.49	7321.20
452.68	7192.47
452.86	7075.44
453.05	7384.39
453.23	7332.90
453.42	7246.30
453.60	7314.17
453.78	7536.52
453.97	7426.52
454.15	7438.22
454.34	7459.29
454.52	7496.74
454.70	7559.93
454.89	7506.10
455.07	7499.08
455.26	7588.02
455.44	7768.24
455.62	7709.72
455.81	7655.89
455.99	7763.56
456.17	7999.95
456.36	7885.26
456.54	7868.88
456.73	8002.29
456.91	8161.45
457.09	8105.28
457.28	8142.72
457.46	8222.30
457.64	8149.75
457.83	8018.68
458.01	7955.48
458.19	8376.78
458.38	7983.57
458.56	8325.29
458.74	8264.43
458.93	8266.77
459.11	8311.24
459.29	8292.52
459.48	8348.69
459.66	8266.77
459.84	8339.33
460.03	8365.07
460.21	8425.93
460.39	8390.82
460.57	8510.19
460.76	8641.26
460.94	8496.14
461.12	8521.89
461.31	8706.79
461.49	8919.78
461.67	8659.98
461.85	8945.53
462.04	8868.29
462.22	9327.03
462.40	9041.49
462.59	8624.87
462.77	8769.99
462.95	8971.27
463.13	9048.51
463.32	8943.19
463.50	8945.53
463.68	8990.00
463.86	9062.55
464.05	8788.71
464.23	8959.57
464.41	9181.92
464.59	9029.79
464.78	9308.31
464.96	9158.52
465.14	9184.26
465.32	9174.90
465.50	9233.41
465.69	9441.72
465.87	9312.99
466.05	9188.94
466.23	9308.31
466.41	9277.88
466.60	9298.95
466.78	8912.76
466.96	9345.76
467.14	9593.86
467.32	9425.34
467.51	9544.70
467.69	9242.78
467.87	9626.62
468.05	9565.77
468.23	9682.80
468.41	9434.70
468.60	9441.72
468.78	9694.50
468.96	9483.85
469.14	9696.84
469.32	9774.08
469.50	9462.79
469.69	9823.23
469.87	10001.11
470.05	9809.19
470.23	9837.27
470.41	9820.89
470.59	9949.62
470.77	9834.93
470.95	10066.64
471.14	10083.03
471.32	10050.26
471.50	10291.34
471.68	10413.04
471.86	10504.32
472.04	10399.00
472.22	10644.76
472.40	10232.82
472.58	10466.88
472.77	10443.47
472.95	10609.65
473.13	10832.00
473.31	10490.28
473.49	10705.61
473.67	10462.19
473.85	10583.90
474.03	10991.16
474.21	10841.36
474.39	11138.61
474.57	11164.36
474.75	11206.48
474.93	11325.85
475.12	11122.23
475.30	11543.52
475.48	11094.14
475.66	11101.16
475.84	11592.67
476.02	11492.03
476.20	11400.75
476.38	11730.76
476.56	11999.93
476.74	11770.55
476.92	11810.34
477.10	12100.57
477.28	12105.25
477.46	12107.59
477.64	12259.73
477.82	12322.92
478.00	12587.40
478.18	12547.61
478.36	12688.04
478.54	12592.08
478.72	12683.36
478.90	13116.36
479.08	13254.45
479.26	12910.40
479.44	13158.49
479.62	13156.15
479.80	13371.48
479.98	13413.61
480.16	13654.69
480.34	13544.68
480.52	14083.00
480.70	13855.97
480.88	13825.54
481.06	14059.60
481.24	14197.69
481.41	14595.58
481.59	14525.36
481.77	14586.22
481.95	14457.49
482.13	14689.20
482.31	14726.65
482.49	14911.55
482.67	14862.40
482.85	14930.28
483.03	15194.76
483.21	15403.07
483.39	15487.32
483.57	15438.17
483.74	15405.41
483.92	15625.42
484.10	15433.49
484.28	15854.79
484.46	16009.26
484.64	16446.94
484.82	15843.09
485.00	16140.33
485.18	16486.73
485.35	16608.44
485.53	16304.17
485.71	16334.60
485.89	16669.30
486.07	16320.56
486.25	17216.98
486.43	16952.50
486.61	17043.78
486.78	17266.13
486.96	17633.60
487.14	17832.54
487.32	17717.86
487.50	17987.02
487.68	18553.43
487.85	18485.55
488.03	18686.84
488.21	18640.03
488.39	18623.64
488.57	18878.76
488.75	18745.35
488.92	19171.33
489.10	19358.57
489.28	19374.95
489.46	19733.06
489.64	19873.49
489.81	20023.28
489.99	20240.95
490.17	20414.15
490.35	20512.46
490.53	20128.61
490.70	20692.68
490.88	20409.47
491.06	20776.94
491.24	20900.98
491.41	20680.97
491.59	20978.22
491.77	21104.61
491.95	21394.84
492.13	21329.30
492.30	21523.57
492.48	21851.24
492.66	21816.13
492.84	21907.41
493.01	22106.36
493.19	21965.93
493.37	22595.53
493.54	22295.94
493.72	22789.80
493.90	22625.96
494.08	23253.22
494.25	23285.99
494.43	23363.23
494.61	23222.80
494.79	23676.86
494.96	23592.60
495.14	23627.71
495.32	23335.14
495.49	23768.14
495.67	23864.10
495.85	24086.45
496.02	24458.60
496.20	24535.84
496.38	24634.14
496.55	24680.95
496.73	25046.07
496.91	24725.42
497.09	24875.21
497.26	25123.31
497.44	25088.20
497.62	25219.27
497.79	25734.19
497.97	25397.15
498.14	25458.01
498.32	25928.45
498.50	25493.12
498.67	25858.24
498.85	26094.63
499.03	26335.71
499.20	26319.32
499.38	26293.58
499.56	26717.22
499.73	26536.99
499.91	26675.09
500.08	26494.86
500.26	26349.75
500.44	26815.52
500.61	27019.14
500.79	27105.74
500.97	27131.49
501.14	27520.02
501.32	27318.73
501.49	27098.72
501.67	27267.24
501.84	27461.51
502.02	27597.26
502.20	27711.94
502.37	27894.50
502.55	28032.60
502.72	28175.37
502.90	27803.22
503.07	28023.23
503.25	27915.57
503.43	28266.65
503.60	27868.76
503.78	28287.71
503.95	27974.08
504.13	28659.86
504.30	28545.17
504.48	28428.15
504.65	28872.85
504.83	28929.02
505.01	29184.14
505.18	28980.51
505.36	29369.04
505.53	29441.60
505.71	29834.81
505.88	29869.92
506.06	29539.90
506.23	29598.41
506.41	29532.88
506.58	29692.04
506.76	30316.96
506.93	29916.73
507.11	30059.50
507.28	30033.75
507.46	30080.56
507.63	30122.69
507.81	29933.11
507.98	30300.58
508.16	30684.42
508.33	30483.14
508.50	30799.11
508.68	31335.09
508.85	31377.22
509.03	31194.66
509.20	31054.23
509.38	31316.37
509.55	31299.98
509.73	31276.58
509.90	31274.24
510.08	31470.84
510.25	31548.08
510.42	31782.13
510.60	31882.78
510.77	32142.58
510.95	32596.64
511.12	31747.03
511.30	31948.31
511.47	32517.06
511.64	32374.29
511.82	32652.81
511.99	32254.92
512.17	32158.96
512.34	32055.98
512.51	31992.78
512.69	32425.78
512.86	32671.54
513.04	33193.48
513.21	32694.94
513.38	32790.91
513.56	33053.05
513.73	32723.03
513.90	33308.16
514.08	32940.70
514.25	33336.25
514.43	33312.84
514.60	32912.61
514.77	33184.12
514.95	33663.93
515.12	33633.50
515.29	33539.88
515.47	33628.82
515.64	33940.11
515.81	33897.98
515.99	34047.77
516.16	33919.04
516.33	33574.98
516.51	34052.45
516.68	33106.88
516.85	33329.23
517.03	33778.61
517.20	33993.94
517.37	34064.16
517.54	34845.90
517.72	34314.59
517.89	33755.21
518.06	33834.78
518.24	34277.15
518.41	34555.67
518.58	34520.56
518.75	34237.36
518.93	35044.84
519.10	34637.59
519.27	35110.38
519.45	35166.55
519.62	35536.35
519.79	35674.45
519.96	35185.27
520.14	35524.65
520.31	35274.21
520.48	35559.76
520.65	35346.77
520.83	35639.34
521.00	35763.39
521.17	36062.97
521.34	35828.92
521.52	36605.98
521.69	36079.36
521.86	36217.45
522.03	36320.43
522.20	36444.48
522.38	36605.98
522.55	36669.17
522.72	36266.60
522.89	36470.23
523.07	36650.45
523.24	36376.61
523.41	37055.36
523.58	37078.77
523.75	37521.13
523.92	37312.82
524.10	37092.81
524.27	37460.27
524.44	37289.42
524.61	37460.27
524.78	37546.87
524.96	37745.82
525.13	37624.11
525.30	37965.83
525.47	37975.19
525.64	37471.98
525.81	37736.46
525.98	37177.07
526.16	37734.12
526.33	37516.45
526.50	37284.73
526.67	37359.63
526.84	37303.46
527.01	37883.91
527.18	38237.33
527.36	38071.15
527.53	38017.32
527.70	38721.82
527.87	38391.81
528.04	38492.45
528.21	38829.49
528.38	38663.31
528.55	38602.46
528.72	38859.91
528.89	39332.70
529.07	39103.33
529.24	38522.88
529.41	39194.61
529.58	38710.12
529.75	38810.76
529.92	39222.70
530.09	39213.34
530.26	39351.43
530.43	38988.64
530.60	38969.92
530.77	39311.64
530.94	39522.29
531.11	39278.87
531.28	39409.94
531.46	39288.23
531.63	39658.04
531.80	39533.99
531.97	39533.99
532.14	39714.21
532.31	39489.52
532.48	39641.65
532.65	40098.06
532.82	39187.59
532.99	39892.09
533.16	39688.46
533.33	39761.02
533.50	40116.78
533.67	39908.47
533.84	39868.69
534.01	40165.93
534.18	40093.38
534.35	40336.79
534.52	40451.48
534.69	40612.98
534.86	40388.28
535.03	40343.81
535.20	40842.35
535.37	40898.52
535.54	40905.54
535.71	40573.19
535.88	40746.39
536.05	40664.47
536.22	41027.25
536.38	41010.87
536.55	40884.48
536.72	40744.05
536.89	40395.31
537.06	40769.79
537.23	41081.08
537.40	41027.25
537.57	41053.00
537.74	41361.95
537.91	41748.14
538.08	41612.38
538.25	41378.33
538.42	41324.50
538.59	41235.56
538.75	41060.02
538.92	41429.82
539.09	41408.76
539.26	41429.82
539.43	41401.74
539.60	41202.79
539.77	41177.04
539.94	41469.61
540.11	41759.84
540.28	41422.80
540.44	41530.47
540.61	41586.64
540.78	41301.09
540.95	41443.87
541.12	41488.34
541.29	41579.62
541.46	42220.92
541.62	41841.76
541.79	41773.88
541.96	41654.51
542.13	41965.81
542.30	42274.76
542.47	42286.46
542.63	42122.62
542.80	42183.48
542.97	42244.33
543.14	42691.37
543.31	42667.97
543.48	42588.39
543.64	42939.47
543.81	43182.88
543.98	42995.64
544.15	42794.36
544.32	42710.10
544.48	43274.16
544.65	42649.24
544.82	42810.74
544.99	42787.33
545.16	42990.96
545.32	42986.28
545.49	43187.56
545.66	43391.19
545.83	43159.48
546.00	43171.18
546.16	43243.74
546.33	42859.89
546.50	42518.17
546.67	43189.91
546.83	42955.85
547.00	43306.93
547.17	43159.48
547.34	43391.19
547.50	43423.96
547.67	43524.60
547.84	43555.03
548.00	43480.13
548.17	43840.57
548.34	43894.41
548.51	43920.15
548.67	44023.14
548.84	43800.79
549.01	43524.60
549.18	44002.07
549.34	43768.02
549.51	43882.70
549.68	44179.95
549.84	44083.99
550.01	44226.76
550.18	43271.82
550.34	43749.29
550.51	44205.70
550.68	43966.96
550.84	43278.85
551.01	43885.04
551.18	43772.70
551.34	44062.93
551.51	43990.37
551.68	44481.88
551.84	43959.94
552.01	44020.80
552.18	44587.21
552.34	44018.46
552.51	44570.82
552.68	44062.93
552.84	44430.39
553.01	44769.77
553.18	44327.41
553.34	44659.76
553.51	44409.32
553.67	44378.90
553.84	44795.51
554.01	44561.46
554.17	44629.34
554.34	44811.90
554.51	45071.70
554.67	44650.40
554.84	44858.71
555.00	44877.43
555.17	45186.38
555.33	45130.21
555.50	44807.22
555.67	45036.59
555.83	44704.23
556.00	44966.37
556.16	45008.50
556.33	44591.89
556.50	44935.95
556.66	44617.63
556.83	44591.89
556.99	44744.02
557.16	44814.24
557.32	44917.22
557.49	45020.20
557.65	44774.45
557.82	45102.12
557.98	45148.93
558.15	44877.43
558.32	45162.98
558.48	44566.14
558.65	44802.53
558.81	45179.36
558.98	45003.82
559.14	44875.09
559.31	45064.67
559.47	44966.37
559.64	45352.56
559.80	45240.21
559.97	45078.72
560.13	44947.65
560.30	44928.92
560.46	45684.92
560.63	45216.81
560.79	45832.37
560.96	45776.20
561.12	45392.35
561.29	45001.48
561.45	45247.24
561.61	45478.95
561.78	45118.51
561.94	45127.87
562.11	45717.68
562.27	45317.45
562.44	45001.48
562.60	45750.45
562.77	45415.76
562.93	45556.19
563.10	45413.41
563.26	45593.64
563.42	45406.39
563.59	45958.76
563.75	45736.41
563.92	45680.24
564.08	45357.24
564.24	45986.85
564.41	45755.13
564.57	45429.80
564.74	45338.52
564.90	46120.26
565.07	45443.84
565.23	45825.35
565.39	45364.26
565.56	45436.82
565.72	45621.72
565.88	45771.52
566.05	45787.90
566.21	45626.40
566.38	45378.31
566.54	45801.94
566.70	45958.76
566.87	45925.99
567.03	45701.30
567.19	46045.36
567.36	46113.23
567.52	45881.52
567.68	45830.03
567.85	45867.48
568.01	46064.08
568.17	45694.28
568.34	46164.73
568.50	45724.71
568.66	45766.84
568.83	45542.14
568.99	45893.22
569.15	45993.87
569.32	45881.52
569.48	45289.37
569.64	46199.83
569.81	46134.30
569.97	45626.40
570.13	46066.42
570.30	45593.64
570.46	45776.20
570.62	45415.76
570.78	45483.63
570.95	45179.36
571.11	45640.45
571.27	45514.06
571.43	45965.78
571.60	46057.06
571.76	45771.52
571.92	46028.98
572.09	46045.36
572.25	45851.09
572.41	46192.81
572.57	46082.81
572.74	46202.18
572.90	45895.56
573.06	46054.72
573.22	45677.90
573.38	45900.25
573.55	45663.85
573.71	46192.81
573.87	45883.86
574.03	46148.34
574.20	46342.61
574.36	46328.56
574.52	45914.29
574.68	46108.55
574.84	46043.02
575.01	45954.08
575.17	45731.73
575.33	45752.79
575.49	45710.66
575.65	45827.69
575.82	45900.25
575.98	45528.10
576.14	46014.93
576.30	46108.55
576.46	45972.80
576.62	45752.79
576.79	46181.11
576.95	45893.22
577.11	46401.12
577.27	46096.85
577.43	45837.05
577.59	46028.98
577.75	46099.19
577.92	45567.89
578.08	45666.19
578.24	45736.41
578.40	46033.66
578.56	46085.15
578.72	46024.29
578.88	46251.33
579.04	46291.12
579.21	45684.92
579.37	45762.15
579.53	45844.07
579.69	45755.13
579.85	45820.67
580.01	46178.77
580.17	46036.00
580.33	45797.26
580.49	46050.04
580.65	45855.78
580.82	46007.91
580.98	46183.45
581.14	45909.61
581.30	46185.79
581.46	45970.46
581.62	46092.17
581.78	45883.86
581.94	46342.61
582.10	45937.69
582.26	46071.10
582.42	46000.89
582.58	46398.78
582.74	46021.95
582.90	46197.49
583.06	46045.36
583.22	45886.20
583.38	46396.44
583.54	46160.05
583.70	46380.06
583.86	46312.18
584.02	46176.43
584.18	46227.92
584.34	46171.75
584.50	46248.99
584.66	46466.66
584.82	46312.18
584.98	46216.22
585.14	46204.52
585.30	45907.27
585.46	45591.30
585.62	45921.31
585.78	45783.22
585.94	45787.90
586.10	45998.55
586.26	45600.66
586.42	46309.84
586.58	46169.41
586.74	46199.83
586.90	45888.54
587.06	46213.88
587.22	46043.02
587.38	45815.99
587.54	46410.48
587.70	46593.04
587.86	46188.13
588.02	45998.55
588.18	46216.22
588.34	45951.74
588.49	45705.98
588.65	45626.40
588.81	45708.32
588.97	45659.17
589.13	45874.50
589.29	45928.33
589.45	45668.53
589.61	45975.14
589.77	46550.91
589.93	46026.63
590.08	46267.71
590.24	46525.17
590.40	46043.02
590.56	46426.87
590.72	46094.51
590.88	46291.12
591.04	46237.28
591.20	46960.51
591.35	46183.45
591.51	47000.30
591.67	45977.48
591.83	46258.35
591.99	45886.20
592.15	45961.10
592.31	46057.06
592.46	46131.96
592.62	46579.00
592.78	46553.26
592.94	46010.25
593.10	46103.87
593.26	46679.64
593.41	46291.12
593.57	45975.14
593.73	46284.09
593.89	46256.01
594.05	46157.70
594.20	46085.15
594.36	46150.68
594.52	46349.63
594.68	46284.09
594.84	46337.93
594.99	46684.33
595.15	46003.23
595.31	46426.87
595.47	46398.78
595.62	46501.76
595.78	46277.07
595.94	46199.83
596.10	46660.92
596.25	45888.54
596.41	46202.18
596.57	45783.22
596.73	46543.89
596.88	46197.49
597.04	46323.88
597.20	46312.18
597.36	45918.97
597.51	46330.90
597.67	45998.55
597.83	46143.66
597.99	46546.23
598.14	46274.73
598.30	46295.80
598.46	46206.86
598.61	46621.13
598.77	46202.18
598.93	46248.99
599.09	46412.82
599.24	46815.40
599.40	46887.95
599.56	46218.56
599.71	46054.72
599.87	46387.08
600.03	46131.96
600.18	46555.60
600.34	46497.08
600.50	45968.12
600.65	46373.03
600.81	46103.87
600.97	46712.41
601.12	46270.05
601.28	46391.76
601.44	45984.51
601.59	46178.77
601.75	46344.95
601.91	46010.25
602.06	45914.29
602.22	46415.16
602.37	46148.34
602.53	46258.35
602.69	46557.94
602.84	45970.46
603.00	46138.98
603.16	46096.85
603.31	45921.31
603.47	46244.30
603.62	46106.21
603.78	46384.74
603.94	46457.29
604.09	46768.58
604.25	45965.78
604.40	46260.69
604.56	46548.57
604.71	46171.75
604.87	45989.19
605.03	45572.57
605.18	46129.62
605.34	46387.08
605.49	45963.44
605.65	46354.31
605.80	46230.26
605.96	46078.13
606.12	46136.64
606.27	46288.77
606.43	45525.76
606.58	46054.72
606.74	46054.72
606.89	45832.37
607.05	46185.79
607.20	46129.62
607.36	46047.70
607.51	46319.20
607.67	46141.32
607.82	45619.38
607.98	45879.18
608.13	45703.64
608.29	45933.01
608.44	45069.36
608.60	45645.13
608.75	46043.02
608.91	45890.88
609.06	45357.24
609.22	45862.80
609.37	45832.37
609.53	46295.80
609.68	45883.86
609.84	45598.32
609.99	45471.93
610.15	45308.09
610.30	45272.98
610.46	45436.82
610.61	45698.96
610.76	45834.71
610.92	45720.02
611.07	45691.94
611.23	45813.65
611.38	45581.93
611.54	45743.43
611.69	45275.32
611.84	45572.57
612.00	45635.77
612.15	45198.09
612.31	45916.63
612.46	45074.04
612.62	45612.36
612.77	45069.36
612.92	45301.07
613.08	45446.18
613.23	44987.44
613.39	45057.65
613.54	45254.26
613.69	44952.33
613.85	44870.41
614.00	44868.07
614.15	45354.90
614.31	45378.31
614.46	45069.36
614.62	44868.07
614.77	45029.57
614.92	45221.49
615.08	44933.60
615.23	44903.18
615.38	44980.42
615.54	44547.42
615.69	44800.19
615.84	44718.28
616.00	45034.25
616.15	44830.62
616.30	44893.82
616.46	44664.44
616.61	44437.41
616.76	44542.74
616.92	44795.51
617.07	44659.76
617.22	44519.33
617.37	44605.93
617.53	45071.70
617.68	45155.96
617.83	44666.78
617.99	44287.62
618.14	44444.43
618.29	44158.89
618.45	44004.41
618.60	44217.40
618.75	43966.96
618.90	44168.25
619.06	44332.09
619.21	44493.58
619.36	44196.34
619.51	44254.85
619.67	44275.91
619.82	43632.27
619.97	44336.77
620.12	43765.68
620.28	43889.73
620.43	43632.27
620.58	44102.71
620.73	44325.07
620.89	43969.30
621.04	44229.10
621.19	44500.61
621.34	44254.85
621.49	44011.43
621.65	44123.78
621.80	44025.48
621.95	43849.94
622.10	43985.69
622.25	43496.52
622.41	43863.98
622.56	43351.40
622.71	43863.98
622.86	43629.93
623.01	43548.01
623.16	43735.25
623.32	43674.40
623.47	43386.51
623.62	43798.44
623.77	42930.11
623.92	43690.78
624.07	43248.42
624.23	43028.41
624.38	43531.62
624.53	43105.65
624.68	43363.11
624.83	43264.80
624.98	43941.22
625.13	43194.59
625.29	43234.38
625.44	43208.63
625.59	42775.63
625.74	42930.11
625.89	42679.67
626.04	43051.81
626.19	42515.83
626.34	43349.06
626.49	43208.63
626.65	43051.81
626.80	43665.03
626.95	42436.25
627.10	42714.78
627.25	42635.20
627.40	42635.20
627.55	42316.89
627.70	42527.53
627.85	42410.51
628.00	42742.86
628.15	42815.42
628.30	42944.15
628.45	42923.08
628.60	42660.94
628.76	42244.33
628.91	42759.25
629.06	42721.80
629.21	42499.45
629.36	42412.85
629.51	42536.90
629.66	42295.82
629.81	42679.67
629.96	42469.02
630.11	42679.67
630.26	42754.57
630.41	42602.43
630.56	42513.49
630.71	42588.39
630.86	42272.42
631.01	41593.66
631.16	41883.89
631.31	41806.65
631.46	41684.94
631.61	42188.16
631.76	42012.62
631.91	42295.82
632.06	41961.12
632.21	41883.89
632.36	42195.18
632.51	41750.48
632.66	42281.78
632.81	41579.62
632.96	41588.98
633.10	42071.13
633.25	41593.66
633.40	41670.90
633.55	41832.39
633.70	41783.24
633.85	41308.11
634.00	41804.31
634.15	41816.01
634.30	41478.97
634.45	41523.44
634.60	41706.01
634.75	41184.07
634.90	41043.63
635.05	41701.32
635.19	41137.26
635.34	41860.48
635.49	41462.59
635.64	41060.02
635.79	41188.75
635.94	40863.41
636.09	41038.95
636.24	41095.13
636.39	40814.26
636.53	41163.00
636.68	40835.33
636.83	41212.15
636.98	40994.48
637.13	41265.99
637.28	41387.69
637.43	41301.09
637.57	40823.62
637.72	40832.99
637.87	40980.44
638.02	41174.70
638.17	41303.43
638.32	40748.73
638.46	40636.38
638.61	40458.50
638.76	40790.86
638.91	40898.52
639.06	40467.86
639.20	40776.81
639.35	40580.21
639.50	40694.89
639.65	40837.67
639.80	40744.05
639.94	40814.26
640.09	40456.16
640.24	40629.36
640.39	40872.78
640.54	40350.84
640.68	40439.78
640.83	40058.27
640.98	40062.95
641.13	40172.96
641.27	40339.13
641.42	40573.19
641.57	39784.43
641.72	40179.98
641.86	40526.38
642.01	39950.60
642.16	40114.44
642.31	39786.77
642.45	40191.68
642.60	40062.95
642.75	40163.59
642.90	40114.44
643.04	40140.19
643.19	40109.76
643.34	39803.15
643.48	39494.20
643.63	39442.71
643.78	39838.26
643.93	39690.80
644.07	39723.57
644.22	39643.99
644.37	39325.68
644.51	39519.95
644.66	39562.08
644.81	39922.52
644.95	40030.18
645.10	39473.13
645.25	39550.37
645.39	39552.71
645.54	39452.07
645.69	39384.19
645.83	39711.87
645.98	39351.43
646.13	39271.85
646.27	39494.20
646.42	39456.75
646.57	39431.01
646.71	39508.24
646.86	39398.24
647.00	39407.60
647.15	39257.81
647.30	39241.42
647.44	39283.55
647.59	39239.08
647.74	39356.11
647.88	39047.16
648.03	39213.34
648.17	39278.87
648.32	38789.70
648.47	38981.62
648.61	38560.33
648.76	39346.75
648.90	39131.42
649.05	38572.03
649.20	39063.54
649.34	38888.00
649.49	38312.23
649.63	38651.61
649.78	39051.84
649.92	38909.07
650.07	38953.54
650.21	38529.90
650.36	39098.65
650.51	38658.63
650.65	38843.53
650.80	39063.54
650.94	38937.15
651.09	38464.36
651.23	38602.46
651.38	38478.41
651.52	38171.80
651.67	37949.45
651.81	38455.00
651.96	38462.02
652.10	38052.43
652.25	38316.91
652.39	38543.94
652.54	38307.55
652.68	38335.63
652.83	38244.35
652.97	38707.78
653.12	38450.32
653.26	37869.87
653.41	38384.79
653.55	38410.53
653.70	37937.74
653.84	37972.85
653.99	38476.07
654.13	37916.68
654.27	38260.74
654.42	38373.08
654.56	37958.81
654.71	38202.22
654.85	37961.15
655.00	38256.06
655.14	37408.78
655.29	37486.02
655.43	37563.26
655.57	37139.62
655.72	37258.99
655.86	37317.50
656.01	36706.62
656.15	36622.36
656.30	36678.54
656.44	36858.76
656.58	37268.35
656.73	37226.22
656.87	37179.41
657.01	37577.30
657.16	37242.60
657.30	36938.33
657.45	36877.48
657.59	37038.98
657.73	37088.13
657.88	37390.06
658.02	37441.55
658.16	37673.26
658.31	37446.23
658.45	37598.37
658.60	37148.98
658.74	36959.40
658.88	37090.47
659.03	37036.64
659.17	36659.81
659.31	36519.38
659.46	36896.20
659.60	36744.07
659.74	36994.51
659.89	36128.51
660.03	36055.95
660.17	36992.17
660.32	36870.46
660.46	36437.46
660.60	36395.33
660.74	36715.98
660.89	36524.06
661.03	36144.89
661.17	36563.85
661.32	36367.24
661.46	36671.51
661.60	36254.90
661.74	36229.15
661.89	36135.53
662.03	36184.68
662.17	35775.09
662.31	36016.16
662.46	36299.37
662.60	36081.70
662.74	35826.58
662.88	35819.56
663.03	35648.70
663.17	35716.58
663.31	35704.87
663.45	35454.44
663.60	35449.75
663.74	35229.74
663.88	35419.33
664.02	35318.68
664.17	35119.74
664.31	35388.90
664.45	35182.93
664.59	34932.50
664.73	35005.05
664.88	35477.84
665.02	34466.73
665.16	34831.85
665.30	34724.19
665.44	34646.95
665.59	34565.03
665.73	34728.87
665.87	34469.07
666.01	34600.14
666.15	34335.66
666.29	33975.22
666.44	34569.71
666.58	34319.28
666.72	33865.21
666.86	34389.49
667.00	34522.90
667.14	34169.48
667.28	34176.50
667.43	34183.52
667.57	34272.46
667.71	33727.12
667.85	34129.69
667.99	33881.60
668.13	34543.97
668.27	33745.84
668.41	34075.86
668.56	33827.76
668.70	33795.00
668.84	33518.81
668.98	33511.79
669.12	33713.08
669.26	33998.62
669.40	33195.82
669.54	33205.18
669.68	33102.20
669.82	33251.99
669.96	33085.81
670.10	33303.48
670.25	33200.50
670.39	33013.26
670.53	32746.44
670.67	33331.57
670.81	32783.88
670.95	32697.28
671.09	32577.92
671.23	32453.87
671.37	32758.14
671.51	32601.32
671.65	32201.09
671.79	32219.81
671.93	32004.49
672.07	32016.19
672.21	31807.88
672.35	32091.09
672.49	32154.28
672.63	31990.44
672.77	31639.36
672.91	31571.49
673.05	31669.79
673.19	32037.25
673.33	31468.50
673.47	31381.90
673.61	31566.81
673.75	31789.16
673.89	31108.06
674.03	31630.00
674.17	31307.01
674.31	31157.21
674.45	31473.18
674.59	31620.64
674.73	31562.12
674.87	30806.13
675.01	31110.40
675.15	30845.92
675.29	30862.30
675.43	30927.84
675.56	31065.93
675.70	30742.94
675.84	30511.22
675.98	29624.16
676.12	30429.30
676.26	30450.37
676.40	30483.14
676.54	30228.02
676.68	30424.62
676.82	29542.24
676.96	30089.93
677.10	29858.21
677.23	29612.46
677.37	29792.68
677.51	29734.17
677.65	29558.63
677.79	28863.49
677.93	29151.37
678.07	29298.83
678.21	28666.88
678.34	28765.18
678.48	29024.98
678.62	28383.68
678.76	28088.77
678.90	28168.35
679.04	27899.19
679.18	28243.24
679.31	27908.55
679.45	27845.35
679.59	27697.90
679.73	27784.50
679.87	27847.69
680.00	28046.64
680.14	27828.97
680.28	27594.92
680.42	27503.64
680.56	27639.39
680.70	27587.89
680.83	27393.63
680.97	27332.78
681.11	27555.13
681.25	27267.24
681.39	26923.18
681.52	27033.19
681.66	26595.51
681.80	26955.95
681.94	26366.13
682.07	26541.68
682.21	26703.17
682.35	26541.68
682.49	26478.48
682.62	25891.01
682.76	26132.08
682.90	26029.10
683.04	26080.59
683.17	25633.55
683.31	25586.74
683.45	26169.53
683.59	25387.79
683.72	25790.36
683.86	25729.51
684.00	25359.70
684.13	25179.48
684.27	24861.17
684.41	24964.15
684.55	25142.03
684.68	24945.43
684.82	25106.93
684.96	24477.32
685.09	24858.83
685.23	24594.35
685.37	24489.03
685.50	24580.31
685.64	24400.08
685.78	24247.95
685.91	24297.10
686.05	24257.31
686.19	23744.73
686.32	23587.92
686.46	23726.01
686.60	23400.68
686.73	23283.65
686.87	23335.14
687.01	23456.85
687.14	23063.64
687.28	22838.95
687.42	22991.08
687.55	22897.46
687.69	22747.67
687.82	23117.47
687.96	22991.08
688.10	22616.60
688.23	22434.03
688.37	22698.52
688.50	22700.86
688.64	22567.45
688.78	22211.68
688.91	22097.00
689.05	21888.69
689.18	21809.11
689.32	21692.08
689.46	22061.89
689.59	22064.23
689.73	21851.24
689.86	21631.23
690.00	21834.86
690.13	21549.31
690.27	21504.84
690.41	21242.70
690.54	21095.25
690.68	21273.13
690.81	21249.72
690.95	21228.66
691.08	21078.86
691.22	21041.42
691.35	21158.44
691.49	20676.29
691.62	21032.05
691.76	20699.70
691.89	20765.23
692.03	20561.61
692.16	20425.86
692.30	20575.65
692.43	20273.72
692.57	20074.77
692.70	20088.82
692.84	19702.63
692.97	19433.47
693.11	19964.77
693.24	19831.36
693.38	19632.41
693.51	19800.93
693.65	19328.14
693.78	19597.31
693.92	19304.74
694.05	19194.73
694.19	19044.94
694.32	19398.36
694.45	19304.74
694.59	18984.09
694.72	19321.12
694.86	18899.83
694.99	18764.07
695.13	18560.45
695.26	18263.20
695.39	18745.35
695.53	18539.38
695.66	18724.29
695.80	18174.26
695.93	18310.01
696.07	18221.07
696.20	18319.37
696.33	18113.41
696.47	17830.20
696.60	18005.74
696.73	17762.33
696.87	17724.88
697.00	17392.52
697.14	17708.49
697.27	17144.42
697.40	17490.82
697.54	17003.99
697.67	17177.19
697.80	16821.43
697.94	16802.71
698.07	17062.51
698.21	17252.09
698.34	17296.56
698.47	16889.31
698.61	16982.93
698.74	16695.04
698.87	17013.35
699.01	16407.16
699.14	16367.37
699.27	16512.48
699.40	16430.56
699.54	16126.29
699.67	16156.72
699.80	16285.45
699.94	15985.86
700.07	16350.98
700.20	15990.54
700.34	15906.28
700.47	15723.72
700.60	15730.74
700.73	15709.68
700.87	15667.55
701.00	15337.53
701.13	15300.08
701.26	15286.04
701.40	15382.00
701.53	15192.42
701.66	15166.67
701.79	15098.80
701.93	14988.79
702.06	14939.64
702.19	14899.85
702.32	14937.30
702.46	14883.47
702.59	14930.28
702.72	14644.73
702.85	14806.23
702.99	14415.36
703.12	14565.15
703.25	14473.87
703.38	14431.74
703.51	14363.87
703.65	14059.60
703.78	14057.26
703.91	13860.65
704.04	13996.40
704.17	13996.40
704.31	14050.24
704.44	13865.33
704.57	13734.26
704.70	13783.41
704.83	13523.62
704.96	13642.98
705.10	13657.03
705.23	13242.75
>>>>>End Processed Spectral Data<<<<<
