SpectraSuite Data File
++++++++++++++++++++++++++++++++++++
Date: Fri Oct 25 10:43:15 EDT 2013
User: price-jones
Dark Spectrum Present: No
Reference Spectrum Present: No
Number of Sampled Component Spectra: 1
Spectrometers: USB2+H05261
Integration Time (usec): 100000 (USB2+H05261)
Spectra Averaged: 1 (USB2+H05261)
Boxcar Smoothing: 0 (USB2+H05261)
Correct for Electrical Dark: No (USB2+H05261)
Strobe/Lamp Enabled: No (USB2+H05261)
Correct for Detector Non-linearity: No (USB2+H05261)
Correct for Stray Light: No (USB2+H05261)
Number of Pixels in Processed Spectrum: 2048
>>>>>Begin Processed Spectral Data<<<<<
365.73	152.13
365.92	152.13
366.12	152.13
366.32	0.00
366.52	60.85
366.72	72.56
366.91	91.28
367.11	0.00
367.31	0.00
367.51	0.00
367.70	18.72
367.90	51.49
368.10	16.38
368.30	25.75
368.49	9.36
368.69	21.06
368.89	110.01
369.09	49.15
369.28	14.04
369.48	51.49
369.68	124.05
369.87	74.90
370.07	124.05
370.27	133.41
370.47	191.92
370.66	322.99
370.86	423.64
371.06	470.45
371.25	477.47
371.45	435.34
371.65	395.55
371.84	435.34
372.04	489.17
372.24	493.85
372.44	484.49
372.63	414.27
372.83	533.64
373.03	479.81
373.22	521.94
373.42	510.24
373.62	524.28
373.81	585.13
374.01	505.56
374.21	552.37
374.40	554.71
374.60	585.13
374.79	524.28
374.99	648.33
375.19	566.41
375.38	613.22
375.58	589.82
375.78	606.20
375.97	528.96
376.17	620.24
376.37	596.84
376.56	636.63
376.76	580.45
376.95	692.80
377.15	634.29
377.35	636.63
377.54	667.05
377.74	695.14
377.93	650.67
378.13	636.63
378.33	681.10
378.52	688.12
378.72	770.04
378.91	713.86
379.11	627.26
379.31	648.33
379.50	697.48
379.70	660.03
379.89	660.03
380.09	645.99
380.28	702.16
380.48	704.50
380.68	755.99
380.87	678.76
381.07	690.46
381.26	709.18
381.46	690.46
381.65	713.86
381.85	678.76
382.04	739.61
382.24	723.23
382.43	784.08
382.63	692.80
382.83	603.86
383.02	606.20
383.22	699.82
383.41	648.33
383.61	681.10
383.80	767.70
384.00	774.72
384.19	674.07
384.39	791.10
384.58	805.14
384.78	702.16
384.97	821.53
385.17	774.72
385.36	854.30
385.56	800.46
385.75	788.76
385.95	854.30
386.14	894.08
386.34	891.74
386.53	849.61
386.72	816.85
386.92	826.21
387.11	849.61
387.31	823.87
387.50	856.64
387.70	830.89
387.89	830.89
388.09	807.48
388.28	931.53
388.48	812.17
388.67	1001.75
388.86	961.96
389.06	826.21
389.25	1029.84
389.45	999.41
389.64	971.32
389.84	1032.18
390.03	1011.11
390.22	1050.90
390.42	976.00
390.61	957.28
390.81	1022.81
391.00	1050.90
391.19	1006.43
391.39	1004.09
391.58	1062.60
391.78	1022.81
391.97	1029.84
392.16	1060.26
392.36	1086.01
392.55	1036.86
392.75	1001.75
392.94	1029.84
393.13	1006.43
393.33	966.64
393.52	1076.65
393.71	1156.22
393.91	1050.90
394.10	1081.33
394.29	1071.97
394.49	1137.50
394.68	1109.41
394.88	1186.65
395.07	1263.89
395.26	1217.08
395.46	1130.48
395.65	1256.87
395.84	1184.31
396.04	1263.89
396.23	1146.86
396.42	1231.12
396.62	1214.74
396.81	1186.65
397.00	1130.48
397.19	1217.08
397.39	1324.74
397.58	1338.79
397.77	1462.83
397.97	1338.79
398.16	1444.11
398.35	1479.22
398.55	1479.22
398.74	1469.86
398.93	1516.67
399.12	1488.58
399.32	1453.47
399.51	1474.54
399.70	1631.35
399.90	1540.07
400.09	1577.52
400.28	1607.95
400.47	1570.50
400.67	1687.53
400.86	1664.12
401.05	1666.46
401.24	1743.70
401.44	1715.61
401.63	1816.26
401.82	1739.02
402.01	1680.50
402.21	1621.99
402.40	1806.89
402.59	1696.89
402.78	1741.36
402.97	1743.70
403.17	1816.26
403.36	1799.87
403.55	1834.98
403.74	1942.64
403.93	1884.13
404.13	1863.07
404.32	1774.13
404.51	1792.85
404.70	1980.09
404.89	1928.60
405.09	1998.82
405.28	1909.88
405.47	2043.29
405.66	2012.86
405.85	2015.20
406.05	2043.29
406.24	2043.29
406.43	2071.37
406.62	2029.24
406.81	2047.97
407.00	1968.39
407.20	2071.37
407.39	2031.58
407.58	2249.25
407.77	2211.81
407.96	2256.28
408.15	2307.77
408.34	2141.59
408.54	2176.70
408.73	2277.34
408.92	2183.72
409.11	2277.34
409.30	2303.09
409.49	2333.51
409.68	2279.68
409.87	2270.32
410.07	2394.37
410.26	2394.37
410.45	2413.09
410.64	2420.11
410.83	2450.54
411.02	2504.37
411.21	2590.97
411.40	2541.82
411.59	2703.32
411.78	2614.38
411.98	2605.02
412.17	2693.96
412.36	2750.13
412.55	2710.34
412.74	2768.85
412.93	2647.15
413.12	2698.64
413.31	2839.07
413.50	2883.54
413.69	2806.30
413.88	2813.32
414.07	2890.56
414.26	2939.71
414.45	2923.33
414.64	3016.95
414.83	2965.46
415.02	3145.68
415.22	2984.18
415.41	3016.95
415.60	3169.09
415.79	3171.43
415.98	3194.83
416.17	3222.92
416.36	3248.66
416.55	3176.11
416.74	3145.68
416.93	3274.41
417.12	3318.88
417.31	3251.00
417.50	3454.63
417.69	3522.51
417.88	3368.03
418.07	3321.22
418.26	3529.53
418.45	3536.55
418.64	3588.04
418.83	3529.53
419.02	3618.47
419.21	3644.21
419.39	3602.08
419.58	3445.27
419.77	3548.25
419.96	3721.45
420.15	3698.05
420.34	3796.35
420.53	3744.86
420.72	3742.52
420.91	3880.61
421.10	3761.24
421.29	3782.31
421.48	3819.75
421.67	4009.34
421.86	3744.86
422.05	3651.24
422.24	3822.09
422.43	3749.54
422.61	3810.39
422.80	3868.91
422.99	3840.82
423.18	4011.68
423.37	3943.80
423.56	3904.01
423.75	3875.93
423.94	3815.07
424.13	3676.98
424.32	3726.13
424.50	3962.53
424.69	3969.55
424.88	4030.40
425.07	3878.27
425.26	3911.04
425.45	4042.11
425.64	4053.81
425.83	4065.51
426.01	4095.94
426.20	3885.29
426.39	4140.41
426.58	4021.04
426.77	3929.76
426.96	3922.74
427.15	3850.18
427.33	4028.06
427.52	4140.41
427.71	4091.26
427.90	3971.89
428.09	4081.89
428.28	4135.73
428.46	4191.90
428.65	4135.73
428.84	4334.67
429.03	4318.29
429.22	4147.43
429.40	4173.18
429.59	4002.32
429.78	3737.84
429.97	3819.75
430.16	3885.29
430.34	4105.30
430.53	4219.99
430.72	4203.60
430.91	4301.90
431.10	4222.33
431.28	4552.34
431.47	4568.73
431.66	4692.77
431.85	4596.81
432.03	4566.39
432.22	4681.07
432.41	4578.09
432.60	4662.35
432.79	4652.98
432.97	4692.77
433.16	4774.69
433.35	4601.49
433.54	4641.28
433.72	4627.24
433.91	4554.68
434.10	4856.61
434.28	4814.48
434.47	5027.47
434.66	4861.29
434.85	4889.38
435.03	4882.36
435.22	4968.96
435.41	5081.30
435.59	4964.28
435.78	5111.73
435.97	5273.23
436.16	5210.03
436.34	5170.24
436.53	5212.37
436.72	5437.06
436.90	5048.54
437.09	5090.67
437.28	5001.72
437.46	4980.66
437.65	5224.08
437.84	5277.91
438.02	5191.31
438.21	5210.03
438.40	5149.18
438.58	5345.78
438.77	5401.96
438.96	5355.15
439.14	5551.75
439.33	5617.29
439.52	5652.39
439.70	5703.89
439.89	5661.76
440.08	5708.57
440.26	5633.67
440.45	5762.40
440.63	5844.32
440.82	6017.52
441.01	5942.62
441.19	5989.43
441.38	5961.34
441.57	6090.07
441.75	6216.46
441.94	6274.98
442.12	6263.27
442.31	6349.87
442.50	6319.45
442.68	6153.27
442.87	6218.80
443.05	6345.19
443.24	6504.35
443.43	6352.21
443.61	6246.89
443.80	6621.38
443.98	6403.71
444.17	6331.15
444.35	6422.43
444.54	6609.67
444.73	6485.62
444.91	6450.52
445.10	6373.28
445.28	6478.60
445.47	6413.07
445.65	6373.28
445.84	6544.14
446.02	6574.56
446.21	6459.88
446.39	6551.16
446.58	6729.04
446.77	6747.76
446.95	6492.65
447.14	6612.01
447.32	6775.85
447.51	6719.68
447.69	6612.01
447.88	6700.95
448.06	6752.45
448.25	6731.38
448.43	6782.87
448.62	6754.79
448.80	6808.62
448.99	6698.61
449.17	6736.06
449.36	6761.81
449.54	6913.94
449.73	7157.36
449.91	7101.19
450.10	7000.54
450.28	7218.21
450.46	7061.40
450.65	7148.00
450.83	7227.57
451.02	7066.08
451.20	7229.91
451.39	7211.19
451.57	7262.68
451.76	7176.08
451.94	7112.89
452.13	7260.34
452.31	7150.34
452.49	7101.19
452.68	7389.07
452.86	7138.63
453.05	7332.90
453.23	7229.91
453.42	7274.38
453.60	7269.70
453.78	7384.39
453.97	7452.27
454.15	7304.81
454.34	7346.94
454.52	7541.21
454.70	7538.87
454.89	7611.42
455.07	7468.65
455.26	7588.02
455.44	7744.83
455.62	7714.41
455.81	7894.63
455.99	7875.90
456.17	7770.58
456.36	7737.81
456.54	7852.50
456.73	7943.78
456.91	8152.09
457.09	8072.51
457.28	8346.35
457.46	8004.63
457.64	8063.15
457.83	7967.18
458.01	7978.89
458.19	8159.11
458.38	8219.96
458.56	8351.03
458.74	8442.31
458.93	8187.19
459.11	8360.39
459.29	8121.66
459.48	8423.59
459.66	8292.52
459.84	8442.31
460.03	8664.66
460.21	8318.26
460.39	8397.84
460.57	8222.30
460.76	8652.96
460.94	8744.24
461.12	8575.72
461.31	8652.96
461.49	8624.87
461.67	8664.66
461.85	8872.97
462.04	8833.18
462.22	9245.12
462.40	8769.99
462.59	8659.98
462.77	8889.35
462.95	9249.80
463.13	8868.29
463.32	9050.85
463.50	9085.96
463.68	9029.79
463.86	9001.70
464.05	8765.31
464.23	8798.07
464.41	9060.21
464.59	8884.67
464.78	9177.24
464.96	8875.31
465.14	9123.41
465.32	9385.55
465.50	9114.05
465.69	9296.61
465.87	9242.78
466.05	9172.56
466.23	9071.92
466.41	9240.44
466.60	9411.29
466.78	9083.62
466.96	9184.26
467.14	9228.73
467.32	9301.29
467.51	9380.87
467.69	9177.24
467.87	9401.93
468.05	9540.02
468.23	9287.25
468.41	9364.48
468.60	9376.19
468.78	9509.60
468.96	9467.47
469.14	9715.56
469.32	9591.52
469.50	9413.63
469.69	9685.14
469.87	9867.70
470.05	10036.22
470.23	9860.68
470.41	9757.69
470.59	9837.27
470.77	9806.84
470.95	10008.13
471.14	10066.64
471.32	10167.29
471.50	10183.67
471.68	10394.32
471.86	10410.70
472.04	10394.32
472.22	10743.06
472.40	10218.78
472.58	10511.35
472.77	10384.96
472.95	10614.33
473.13	10740.72
473.31	10485.60
473.49	10684.55
473.67	10565.18
473.85	10602.63
474.03	10621.35
474.21	10871.79
474.39	11037.97
474.57	11143.29
474.75	11119.89
474.93	11248.61
475.12	10958.39
475.30	11199.46
475.48	11044.99
475.66	11286.06
475.84	11159.67
476.02	11353.94
476.20	11426.50
476.38	11630.12
476.56	11892.26
476.74	11871.20
476.92	11702.68
477.10	11707.36
477.28	11826.73
477.46	12030.35
477.64	12245.68
477.82	12292.49
478.00	12606.13
478.18	12411.86
478.36	12596.76
478.54	12706.77
478.72	12648.26
478.90	12833.16
479.08	13036.78
479.26	13249.77
479.44	13039.12
479.62	13547.02
479.80	13486.17
479.98	13547.02
480.16	13547.02
480.34	13341.05
480.52	13895.76
480.70	13769.37
480.88	13722.56
481.06	14078.32
481.24	13858.31
481.41	14197.69
481.59	14384.93
481.77	14583.88
481.95	14396.64
482.13	14523.02
482.31	14413.02
482.49	15012.20
482.67	14841.34
482.85	14979.43
483.03	15042.62
483.21	15396.04
483.39	15363.28
483.57	15365.62
483.74	15391.36
483.92	15653.50
484.10	15396.04
484.28	15854.79
484.46	16088.84
484.64	16257.36
484.82	16191.83
485.00	16219.91
485.18	16042.03
485.35	16432.90
485.53	16252.68
485.71	16016.29
485.89	16306.51
486.07	16343.96
486.25	16528.86
486.43	16589.72
486.61	17027.40
486.78	17146.76
486.96	17287.20
487.14	17673.39
487.32	17404.22
487.50	17823.18
487.68	18242.14
487.85	17923.82
488.03	18616.62
488.21	18656.41
488.39	18623.64
488.57	18499.59
488.75	18745.35
488.92	18892.80
489.10	19234.52
489.28	19208.78
489.46	19943.70
489.64	19435.81
489.81	19880.51
489.99	20318.19
490.17	20262.02
490.35	20262.02
490.53	20037.33
490.70	20315.85
490.88	20498.41
491.06	20547.56
491.24	20751.19
491.41	20493.73
491.59	20521.82
491.77	20645.87
491.95	21242.70
492.13	21259.09
492.30	21785.71
492.48	21619.53
492.66	21626.55
492.84	21834.86
493.01	21879.33
493.19	21968.27
493.37	22192.96
493.54	22155.51
493.72	22469.14
493.90	22417.65
494.08	22895.12
494.25	23056.62
494.43	23030.87
494.61	23094.07
494.79	23349.18
494.96	23068.32
495.14	23325.78
495.32	23517.70
495.49	23578.56
495.67	23892.19
495.85	24198.80
496.02	24332.21
496.20	24002.19
496.38	24189.44
496.55	24163.69
496.73	24999.26
496.91	24425.83
497.09	24929.05
497.26	24795.64
497.44	24809.68
497.62	25273.10
497.79	25219.27
497.97	25120.97
498.14	25432.26
498.32	25366.73
498.50	25638.23
498.67	26111.02
498.85	25954.20
499.03	26356.77
499.20	25972.92
499.38	26398.90
499.56	26632.96
499.73	26267.83
499.91	26174.21
500.08	26548.70
500.26	26333.37
500.44	26223.36
500.61	26705.51
500.79	26370.82
500.97	27154.90
501.14	26972.33
501.32	27042.55
501.49	27117.45
501.67	27054.25
501.84	27463.85
502.02	27087.02
502.20	27566.83
502.37	27768.12
502.55	27711.94
502.72	27627.68
502.90	27875.78
503.07	27789.18
503.25	27871.10
503.43	27604.28
503.60	28046.64
503.78	27845.35
503.95	28189.41
504.13	28517.09
504.30	28435.17
504.48	28624.75
504.65	28797.95
504.83	29205.20
505.01	29106.90
505.18	29099.88
505.36	29383.09
505.53	29544.58
505.71	29565.65
505.88	29624.16
506.06	29317.55
506.23	29420.53
506.41	29486.07
506.58	29912.05
506.76	29670.97
506.93	29947.15
507.11	29954.18
507.28	29713.10
507.46	30003.33
507.63	30195.25
507.81	30206.95
507.98	29905.02
508.16	30293.55
508.33	30590.80
508.50	30494.84
508.68	30436.33
508.85	31243.81
509.03	31124.44
509.20	30691.44
509.38	31175.94
509.55	31253.17
509.73	31072.95
509.90	31241.47
510.08	31227.43
510.25	31307.01
510.42	31653.40
510.60	31688.51
510.77	31632.34
510.95	31508.29
511.12	31644.04
511.30	31714.26
511.47	32327.48
511.64	32163.64
511.82	32161.30
511.99	31901.50
512.17	32222.16
512.34	32013.85
512.51	32203.43
512.69	32900.91
512.86	32566.21
513.04	32673.88
513.21	32624.73
513.38	32652.81
513.56	32561.53
513.73	32545.15
513.90	33097.52
514.08	32634.09
514.25	33003.89
514.43	32723.03
514.60	32917.29
514.77	33104.54
514.95	33359.66
515.12	33251.99
515.29	33441.57
515.47	33984.58
515.64	34075.86
515.81	33935.43
515.99	33670.95
516.16	34101.61
516.33	33174.75
516.51	33500.09
516.68	33261.35
516.85	33359.66
517.03	33532.86
517.20	33933.09
517.37	34408.22
517.54	34387.15
517.72	34094.58
517.89	33876.91
518.06	34057.14
518.24	33820.74
518.41	34387.15
518.58	34293.53
518.75	34623.54
518.93	34471.41
519.10	34810.79
519.27	34958.24
519.45	35026.12
519.62	35318.68
519.79	35409.96
519.96	35194.64
520.14	35241.45
520.31	35110.38
520.48	35227.40
520.65	35377.20
520.83	35548.06
521.00	35910.84
521.17	35882.75
521.34	36315.75
521.52	35613.59
521.69	35938.93
521.86	36282.98
522.03	36348.52
522.20	36524.06
522.38	35913.18
522.55	35885.09
522.72	36385.97
522.89	36268.94
523.07	37027.28
523.24	36458.52
523.41	36854.08
523.58	36556.83
523.75	37387.72
523.92	36659.81
524.10	37474.32
524.27	37233.24
524.44	37258.99
524.61	37284.73
524.78	37317.50
524.96	37511.77
525.13	37359.63
525.30	37734.12
525.47	37443.89
525.64	37289.42
525.81	37329.20
525.98	37785.61
526.16	37237.92
526.33	37120.90
526.50	37038.98
526.67	36795.56
526.84	37528.15
527.01	37397.08
527.18	37277.71
527.36	38298.19
527.53	37837.10
527.70	38462.02
527.87	38078.18
528.04	38029.02
528.21	38232.65
528.38	38286.48
528.55	38707.78
528.72	38295.85
528.89	39428.66
529.07	38567.35
529.24	38609.48
529.41	38508.83
529.58	38557.99
529.75	38426.92
529.92	38609.48
530.09	39218.02
530.26	38862.26
530.43	39005.03
530.60	39000.35
530.77	39433.35
530.94	39192.27
531.11	39615.91
531.28	39262.49
531.46	39154.82
531.63	39782.09
531.80	39075.24
531.97	39152.48
532.14	39381.85
532.31	38904.38
532.48	39180.57
532.65	39625.27
532.82	39431.01
532.99	39611.23
533.16	39454.41
533.33	39756.34
533.50	40362.54
533.67	40074.65
533.84	40051.25
534.01	39957.63
534.18	40151.89
534.35	40538.08
534.52	40189.34
534.69	40250.19
534.86	40098.06
535.03	40114.44
535.20	40479.57
535.37	40816.60
535.54	40474.88
535.71	40512.33
535.88	40404.67
536.05	40472.54
536.22	40641.06
536.38	41099.81
536.55	40381.26
536.72	40374.24
536.89	40158.91
537.06	40507.65
537.23	41010.87
537.40	40978.10
537.57	40837.67
537.74	40830.65
537.91	41347.90
538.08	41076.40
538.25	41062.36
538.42	41127.89
538.59	41006.19
538.75	40762.77
538.92	41167.68
539.09	41273.01
539.26	41132.57
539.43	41551.53
539.60	41476.63
539.77	40755.75
539.94	41116.19
540.11	41329.18
540.28	41397.06
540.44	40891.50
540.61	41523.44
540.78	41207.47
540.95	41750.48
541.12	40832.99
541.29	41340.88
541.46	41457.91
541.62	41539.83
541.79	41340.88
541.96	41282.37
542.13	41516.42
542.30	41397.06
542.47	41525.78
542.63	41895.59
542.80	41972.83
542.97	42513.49
543.14	42487.74
543.31	42307.52
543.48	42167.09
543.64	42253.69
543.81	42724.14
543.98	42738.18
544.15	42609.45
544.32	42485.40
544.48	43171.18
544.65	42721.80
544.82	42522.85
544.99	42295.82
545.16	42923.08
545.32	42382.42
545.49	42944.15
545.66	43115.01
545.83	42892.66
546.00	43005.00
546.16	42485.40
546.33	42958.19
546.50	42792.01
546.67	43250.76
546.83	42937.13
547.00	43264.80
547.17	42773.29
547.34	43421.62
547.50	43187.56
547.67	43005.00
547.84	43227.35
548.00	43173.52
548.17	43711.84
548.34	43089.26
548.51	43655.67
548.67	43924.83
548.84	43660.35
549.01	43365.45
549.18	43377.15
549.34	43391.19
549.51	43543.33
549.68	43519.92
549.84	44081.65
550.01	43543.33
550.18	43531.62
550.34	43899.09
550.51	43798.44
550.68	43749.29
550.84	43782.06
551.01	43517.58
551.18	43756.32
551.34	43332.68
551.51	44062.93
551.68	43969.30
551.84	44458.48
552.01	43924.83
552.18	44126.12
552.34	44135.48
552.51	44252.51
552.68	44128.46
552.84	44626.99
553.01	44662.10
553.18	44161.23
553.34	43985.69
553.51	44177.61
553.67	44360.17
553.84	44531.03
554.01	44474.86
554.17	44502.95
554.34	44575.50
554.51	44751.04
554.67	44788.49
554.84	44479.54
555.00	43849.94
555.17	44320.38
555.33	44650.40
555.50	44294.64
555.67	44570.82
555.83	44222.08
556.00	44959.35
556.16	44947.65
556.33	44612.95
556.50	44486.56
556.66	44697.21
556.83	44348.47
556.99	45291.71
557.16	44795.51
557.32	44938.29
557.49	44872.75
557.65	44460.82
557.82	44732.32
557.98	45045.95
558.15	44985.10
558.32	44999.14
558.48	44854.03
558.65	45006.16
558.81	44203.36
558.98	44549.76
559.14	45392.35
559.31	45312.77
559.47	45303.41
559.64	44800.19
559.80	45268.30
559.97	44933.60
560.13	44847.00
560.30	44488.90
560.46	45230.85
560.63	44996.80
560.79	45748.11
560.96	45628.74
561.12	44957.01
561.29	44910.20
561.45	45305.75
561.61	45020.20
561.78	44903.18
561.94	45151.27
562.11	45333.84
562.27	45368.94
562.44	45427.46
562.60	45265.96
562.77	45460.23
562.93	45160.64
563.10	45720.02
563.26	45076.38
563.42	45535.12
563.59	45303.41
563.75	45509.38
563.92	45558.53
564.08	45382.99
564.24	45528.10
564.41	45097.44
564.57	45460.23
564.74	45392.35
564.90	45216.81
565.07	45525.76
565.23	45034.25
565.39	45397.03
565.56	45591.30
565.72	45425.12
565.88	45415.76
566.05	45312.77
566.21	45584.27
566.38	45322.13
566.54	45577.25
566.70	45507.04
566.87	45947.06
567.03	45523.42
567.19	46157.70
567.36	45881.52
567.52	45193.40
567.68	45624.06
567.85	45436.82
568.01	45392.35
568.17	44989.78
568.34	46117.92
568.50	45806.62
568.66	45488.31
568.83	45544.48
568.99	45471.93
569.15	45696.62
569.32	45464.91
569.48	45413.41
569.64	45703.64
569.81	45727.05
569.97	45769.18
570.13	45591.30
570.30	45214.47
570.46	45364.26
570.62	45141.91
570.78	44720.62
570.95	45228.51
571.11	45504.70
571.27	45251.92
571.43	45588.95
571.60	45338.52
571.76	45677.90
571.92	45834.71
572.09	45827.69
572.25	45993.87
572.41	45806.62
572.57	45640.45
572.74	46117.92
572.90	45591.30
573.06	46045.36
573.22	46028.98
573.38	46061.74
573.55	45713.00
573.71	45874.50
573.87	45982.16
574.03	45794.92
574.20	45794.92
574.36	45373.63
574.52	45652.15
574.68	45860.46
574.84	45619.38
575.01	45535.12
575.17	45811.31
575.33	45579.59
575.49	45815.99
575.65	45338.52
575.82	45937.69
575.98	45242.56
576.14	46103.87
576.30	45916.63
576.46	45621.72
576.62	45883.86
576.79	45916.63
576.95	45612.36
577.11	45837.05
577.27	45647.47
577.43	45984.51
577.59	46005.57
577.75	45703.64
577.92	45200.43
578.08	45467.25
578.24	45219.15
578.40	45448.52
578.56	45766.84
578.72	45652.15
578.88	46124.94
579.04	46127.28
579.21	45518.74
579.37	45743.43
579.53	45680.24
579.69	45532.78
579.85	45525.76
580.01	45893.22
580.17	45680.24
580.33	46277.07
580.49	45949.40
580.65	45907.27
580.82	45979.82
580.98	45717.68
581.14	45556.19
581.30	45904.93
581.46	46314.52
581.62	45762.15
581.78	45954.08
581.94	46178.77
582.10	46188.13
582.26	46066.42
582.42	46190.47
582.58	46043.02
582.74	45759.81
582.90	46227.92
583.06	46328.56
583.22	46085.15
583.38	46319.20
583.54	45785.56
583.70	46239.62
583.86	46129.62
584.02	46096.85
584.18	45638.11
584.34	45607.68
584.50	45743.43
584.66	46153.02
584.82	46122.60
584.98	45998.55
585.14	45893.22
585.30	45968.12
585.46	45792.58
585.62	45591.30
585.78	46192.81
585.94	45982.16
586.10	46061.74
586.26	45432.14
586.42	46344.95
586.58	46089.83
586.74	46298.14
586.90	46054.72
587.06	45694.28
587.22	46230.26
587.38	46017.27
587.54	46110.89
587.70	46134.30
587.86	46000.89
588.02	45815.99
588.18	45818.33
588.34	46005.57
588.49	45277.66
588.65	45481.29
588.81	45282.34
588.97	45832.37
589.13	45640.45
589.29	45851.09
589.45	45792.58
589.61	45963.44
589.77	46260.69
589.93	45773.86
590.08	46167.07
590.24	46122.60
590.40	46162.39
590.56	46082.81
590.72	46073.45
590.88	45600.66
591.04	46344.95
591.20	46361.33
591.35	46146.00
591.51	46239.62
591.67	45876.84
591.83	45839.39
591.99	46274.73
592.15	46227.92
592.31	46218.56
592.46	46237.28
592.62	46307.50
592.78	45743.43
592.94	46487.72
593.10	45766.84
593.26	46316.86
593.41	46326.22
593.57	46054.72
593.73	45425.12
593.89	45895.56
594.05	46101.53
594.20	46326.22
594.36	45942.38
594.52	45956.42
594.68	46291.12
594.84	45977.48
594.99	45911.95
595.15	45890.88
595.31	46237.28
595.47	45958.76
595.62	46047.70
595.78	45787.90
595.94	46469.00
596.10	46326.22
596.25	46234.94
596.41	46223.24
596.57	45485.97
596.73	46127.28
596.88	46412.82
597.04	45972.80
597.20	46012.59
597.36	45977.48
597.51	46323.88
597.67	46197.49
597.83	46274.73
597.99	46431.55
598.14	46096.85
598.30	46211.54
598.46	46492.40
598.61	46337.93
598.77	45909.61
598.93	45698.96
599.09	45989.19
599.24	47040.09
599.40	46394.10
599.56	46202.18
599.71	46436.23
599.87	46195.15
600.03	46314.52
600.18	46157.70
600.34	46164.73
600.50	45918.97
600.65	45954.08
600.81	46464.32
600.97	46445.59
601.12	46225.58
601.28	46038.34
601.44	45783.22
601.59	45691.94
601.75	45897.91
601.91	46031.32
602.06	46197.49
602.22	45968.12
602.37	45790.24
602.53	45799.60
602.69	46391.76
602.84	46033.66
603.00	45925.99
603.16	45937.69
603.31	45942.38
603.47	46026.63
603.62	46094.51
603.78	45916.63
603.94	46274.73
604.09	46272.39
604.25	46141.32
604.40	45478.95
604.56	46003.23
604.71	46230.26
604.87	45811.31
605.03	45570.23
605.18	46003.23
605.34	46010.25
605.49	45542.14
605.65	45937.69
605.80	45940.04
605.96	45799.60
606.12	45680.24
606.27	45825.35
606.43	45963.44
606.58	45890.88
606.74	45684.92
606.89	45773.86
607.05	45808.96
607.20	45478.95
607.36	45652.15
607.51	46024.29
607.67	45942.38
607.82	46113.23
607.98	45434.48
608.13	45741.09
608.29	45780.88
608.44	45574.91
608.60	45432.14
608.75	45848.75
608.91	45708.32
609.06	45371.28
609.22	45792.58
609.37	45078.72
609.53	45668.53
609.68	45867.48
609.84	45394.69
609.99	45113.83
610.15	45556.19
610.30	45127.87
610.46	45280.00
610.61	45312.77
610.76	45418.10
610.92	45808.96
611.07	45343.20
611.23	45322.13
611.38	45684.92
611.54	45397.03
611.69	45397.03
611.84	44905.52
612.00	44980.42
612.15	44952.33
612.31	45490.65
612.46	44954.67
612.62	45502.35
612.77	45083.40
612.92	45694.28
613.08	44755.72
613.23	45254.26
613.39	44701.89
613.54	44554.44
613.69	45095.10
613.85	44765.09
614.00	44905.52
614.15	44851.69
614.31	44971.05
614.46	45249.58
614.62	45064.67
614.77	44924.24
614.92	45258.94
615.08	44367.20
615.23	45289.37
615.38	44739.34
615.54	44634.02
615.69	44825.94
615.84	44299.32
616.00	44399.96
616.15	44793.17
616.30	45001.48
616.46	44348.47
616.61	44334.43
616.76	44371.88
616.92	44233.78
617.07	44102.71
617.22	43957.60
617.37	44332.09
617.53	44554.44
617.68	44406.98
617.83	44495.92
617.99	44055.90
618.14	44339.11
618.29	44521.67
618.45	44442.09
618.60	43833.55
618.75	43611.20
618.90	43421.62
619.06	43777.38
619.21	43995.05
619.36	44500.61
619.51	44126.12
619.67	43772.70
619.82	44093.35
619.97	44034.84
620.12	43704.82
620.28	43374.81
620.43	43772.70
620.58	43840.57
620.73	43768.02
620.89	44093.35
621.04	44259.53
621.19	43847.60
621.34	44191.65
621.49	43400.55
621.65	43599.50
621.80	43873.34
621.95	43328.00
622.10	44161.23
622.25	43971.64
622.41	43557.37
622.56	43447.36
622.71	44243.15
622.86	43491.83
623.01	43442.68
623.16	43459.07
623.32	43262.46
623.47	43585.46
623.62	43761.00
623.77	43388.85
623.92	43639.29
624.07	43068.20
624.23	43393.53
624.38	43232.04
624.53	43206.29
624.68	43030.75
624.83	43695.46
624.98	43281.19
625.13	42836.48
625.29	43014.37
625.44	42850.53
625.59	43002.66
625.74	42483.06
625.89	43014.37
626.04	43276.51
626.19	42574.34
626.34	43311.61
626.49	43035.43
626.65	43255.44
626.80	42684.35
626.95	42850.53
627.10	42286.46
627.25	42557.96
627.40	42389.44
627.55	42284.12
627.70	42305.18
627.85	42164.75
628.00	42337.95
628.15	42415.19
628.30	42267.73
628.45	42361.36
628.60	42319.23
628.76	42281.78
628.91	42202.20
629.06	42237.31
629.21	42202.20
629.36	42073.47
629.51	42403.49
629.66	42019.64
629.81	41860.48
629.96	41986.87
630.11	42052.41
630.26	42260.71
630.41	42150.71
630.56	42174.11
630.71	42335.61
630.86	41638.13
631.01	42150.71
631.16	41745.80
631.31	41481.31
631.46	41240.24
631.61	41605.36
631.76	42050.06
631.91	42209.22
632.06	42066.45
632.21	41776.22
632.36	41778.56
632.51	41343.22
632.66	41872.18
632.81	41085.76
632.96	41755.16
633.10	41275.35
633.25	41886.23
633.40	41734.09
633.55	41677.92
633.70	41879.21
633.85	41399.40
634.00	41846.44
634.15	41352.58
634.30	41254.28
634.45	41776.22
634.60	41560.89
634.75	41425.14
634.90	40917.25
635.05	41888.57
635.19	41029.59
635.34	41268.33
635.49	41762.18
635.64	41684.94
635.79	40802.56
635.94	40774.47
636.09	41036.61
636.24	40699.58
636.39	40582.55
636.53	41036.61
636.68	41141.94
636.83	40479.57
636.98	40818.94
637.13	41223.86
637.28	40837.67
637.43	41219.17
637.57	40800.22
637.72	40767.45
637.87	40699.58
638.02	40760.43
638.17	40921.93
638.32	40683.19
638.46	40533.40
638.61	40882.14
638.76	40397.65
638.91	40507.65
639.06	40135.51
639.20	40584.89
639.35	40418.71
639.50	40751.07
639.65	40935.97
639.80	40444.46
639.94	40285.30
640.09	40156.57
640.24	40561.48
640.39	40205.72
640.54	40367.22
640.68	40051.25
640.83	40306.37
640.98	40278.28
641.13	39990.39
641.27	40313.39
641.42	40009.12
641.57	40355.52
641.72	40025.50
641.86	39899.11
642.01	39482.50
642.16	39852.30
642.31	39746.98
642.45	39786.77
642.60	39826.56
642.75	39765.70
642.90	40060.61
643.04	39856.98
643.19	39950.60
643.34	39910.82
643.48	39550.37
643.63	39566.76
643.78	39725.91
643.93	39927.20
644.07	39435.69
644.22	39428.66
644.37	39456.75
644.51	39225.04
644.66	39576.12
644.81	39920.18
644.95	40018.48
645.10	39388.88
645.25	39590.16
645.39	39222.70
645.54	39278.87
645.69	38899.70
645.83	39250.78
645.98	38845.87
646.13	39297.59
646.27	39208.65
646.42	38660.97
646.57	39271.85
646.71	39173.55
646.86	39210.99
647.00	39014.39
647.15	39103.33
647.30	39096.31
647.44	38719.48
647.59	39154.82
647.74	38691.40
647.88	38841.19
648.03	38431.60
648.17	38972.26
648.32	38691.40
648.47	38866.94
648.61	38478.41
648.76	38885.66
648.90	38639.90
649.05	38995.67
649.20	38768.63
649.34	38609.48
649.49	38616.50
649.63	38501.81
649.78	38731.18
649.92	38380.10
650.07	38609.48
650.21	38382.45
650.36	38710.12
650.51	38108.60
650.65	38759.27
650.80	39278.87
650.94	38546.28
651.09	38742.89
651.23	37942.42
651.38	38000.94
651.52	38419.89
651.67	38047.75
651.81	37930.72
651.96	38342.66
652.10	38412.87
652.25	38258.40
652.39	38122.65
652.54	38356.70
652.68	38270.10
652.83	38412.87
652.97	38190.52
653.12	38583.73
653.26	37656.88
653.41	37804.33
653.55	37996.26
653.70	38061.79
653.84	37785.61
653.99	37970.51
654.13	37834.76
654.27	37656.88
654.42	37722.41
654.56	37790.29
654.71	37984.55
654.85	38120.31
655.00	37881.57
655.14	37661.56
655.29	37312.82
655.43	37067.06
655.57	36943.02
655.72	37315.16
655.86	37017.91
656.01	36879.82
656.15	36772.16
656.30	37172.39
656.44	37593.68
656.58	37015.57
656.73	37134.94
656.87	37305.80
657.01	37055.36
657.16	36617.68
657.30	36723.01
657.45	36861.10
657.59	36723.01
657.73	37036.64
657.88	36926.63
658.02	37069.40
658.16	37055.36
658.31	37071.75
658.45	37013.23
658.60	37106.85
658.74	37048.34
658.88	36978.12
659.03	36411.71
659.17	35997.44
659.31	36849.39
659.46	36292.35
659.60	36397.67
659.74	36521.72
659.89	35974.03
660.03	36350.86
660.17	36713.64
660.32	36744.07
660.46	36762.79
660.60	35777.43
660.74	36575.55
660.89	36147.23
661.03	35976.37
661.17	35756.36
661.32	36020.84
661.46	36109.78
661.60	35768.07
661.74	35721.26
661.89	35913.18
662.03	35583.16
662.17	35894.46
662.31	36308.73
662.46	36273.62
662.60	35681.47
662.74	35903.82
662.88	35908.50
663.03	35445.07
663.17	35475.50
663.31	34955.90
663.45	35487.20
663.60	35325.71
663.74	35424.01
663.88	35314.00
664.02	34946.54
664.17	35405.28
664.31	35084.63
664.45	35047.18
664.59	35065.91
664.73	34944.20
664.88	35054.20
665.02	34820.15
665.16	34541.63
665.30	34256.08
665.44	34492.47
665.59	34642.27
665.73	34677.38
665.87	33926.07
666.01	34209.27
666.15	34553.33
666.29	34487.79
666.44	34527.58
666.58	34483.11
666.72	34139.05
666.86	34288.85
667.00	33947.13
667.14	34260.76
667.28	33694.35
667.43	33731.80
667.57	34288.85
667.71	34031.39
667.85	34061.82
667.99	34075.86
668.13	34129.69
668.27	33790.31
668.41	33773.93
668.56	33259.01
668.70	33427.53
668.84	33034.32
668.98	33787.97
669.12	33518.81
669.26	33432.21
669.40	32758.14
669.54	32931.34
669.68	32985.17
669.82	32783.88
669.96	32622.39
670.10	33174.75
670.25	33343.27
670.39	32753.46
670.53	32627.07
670.67	32360.25
670.81	32449.19
670.95	32418.76
671.09	32617.71
671.23	32615.37
671.37	32498.34
671.51	32355.57
671.65	32126.19
671.79	31751.71
671.93	31625.32
672.07	32011.51
672.21	32016.19
672.35	31824.26
672.49	31796.18
672.63	31763.41
672.77	31571.49
672.91	31805.54
673.05	32006.83
673.19	31463.82
673.33	31068.27
673.47	31122.10
673.61	31016.78
673.75	31189.98
673.89	31314.03
674.03	31435.74
674.17	31131.47
674.31	30555.69
674.45	31225.09
674.59	30852.94
674.73	31056.57
674.87	30782.73
675.01	31030.82
675.15	30654.00
675.29	30504.20
675.43	30668.04
675.56	30731.23
675.70	30829.54
675.84	30831.88
675.98	29277.76
676.12	30192.91
676.26	30141.42
676.40	30328.66
676.54	30136.74
676.68	29900.34
676.82	29560.97
676.96	29778.64
677.10	30232.70
677.23	29677.99
677.37	29542.24
677.51	29565.65
677.65	29069.45
677.79	28699.65
677.93	29123.29
678.07	28582.62
678.21	28664.54
678.34	28428.15
678.48	28493.68
678.62	28299.42
678.76	27971.74
678.90	28336.87
679.04	28357.93
679.18	28177.71
679.31	27655.77
679.45	28109.83
679.59	27896.85
679.73	27620.66
679.87	27531.72
680.00	27178.30
680.14	27821.95
680.28	27608.96
680.42	27023.83
680.56	27398.31
680.70	27171.28
680.83	27475.55
680.97	27033.19
681.11	27182.98
681.25	27080.00
681.39	26654.02
681.52	27278.94
681.66	26754.66
681.80	26548.70
681.94	26352.09
682.07	26125.06
682.21	26277.19
682.35	26511.25
682.49	26338.05
682.62	26363.79
682.76	25841.85
682.90	25846.54
683.04	25935.48
683.17	25617.16
683.31	25790.36
683.45	25507.16
683.59	25238.00
683.72	25399.49
683.86	25186.50
684.00	24805.00
684.13	24762.87
684.27	24641.16
684.41	24774.57
684.55	24727.76
684.68	25186.50
684.82	25074.16
684.96	24498.39
685.09	24687.97
685.23	24592.01
685.37	24521.79
685.50	24805.00
685.64	24271.36
685.78	23969.43
685.91	24369.66
686.05	23707.29
686.19	23592.60
686.32	23882.83
686.46	23428.76
686.60	23044.91
686.73	22909.16
686.87	23124.49
687.01	23283.65
687.14	22750.01
687.28	22937.25
687.42	22750.01
687.55	22677.45
687.69	22773.41
687.82	22752.35
687.96	22740.64
688.10	22253.81
688.23	22211.68
688.37	22515.95
688.50	22508.93
688.64	22197.64
688.78	22118.06
688.91	21895.71
689.05	22068.91
689.18	21867.63
689.32	21446.33
689.46	21841.88
689.59	22132.11
689.73	21713.15
689.86	21727.19
690.00	21507.18
690.13	21624.21
690.27	21275.47
690.41	21326.96
690.54	20896.30
690.68	21205.25
690.81	21280.15
690.95	21046.10
691.08	21046.10
691.22	20793.32
691.35	20695.02
691.49	20793.32
691.62	20552.24
691.76	20718.42
691.89	20812.04
692.03	20322.87
692.16	20046.69
692.30	20500.75
692.43	20269.04
692.57	20123.93
692.70	19620.71
692.84	19943.70
692.97	19564.54
693.11	19580.92
693.24	19314.10
693.38	19386.66
693.51	19557.52
693.65	19344.53
693.78	19180.69
693.92	19176.01
694.05	19077.71
694.19	19154.94
694.32	19356.23
694.45	19253.25
694.59	18958.34
694.72	19061.32
694.86	19089.41
694.99	18714.92
695.13	18625.98
695.26	18485.55
695.39	18532.36
695.53	18616.62
695.66	18361.50
695.80	18192.98
695.93	18188.30
696.07	18209.37
696.20	18200.01
696.33	18050.21
696.47	17802.11
696.60	17954.25
696.73	17617.21
696.87	17804.46
697.00	17605.51
697.14	17483.80
697.27	17170.17
697.40	17502.53
697.54	17509.55
697.67	17202.94
697.80	17071.87
697.94	17212.30
698.07	16837.81
698.21	16973.56
698.34	17233.36
698.47	16931.44
698.61	16521.84
698.74	16802.71
698.87	16741.85
699.01	16456.31
699.14	16240.98
699.27	16266.72
699.40	16500.78
699.54	16285.45
699.67	15978.84
699.80	16004.58
699.94	15995.22
700.07	16086.50
700.20	15833.72
700.34	15777.55
700.47	15899.26
700.60	15688.61
700.73	15634.78
700.87	15793.94
701.00	15403.07
701.13	15426.47
701.26	15461.58
701.40	15396.04
701.53	14904.53
701.66	15049.64
701.79	15105.82
701.93	14892.83
702.06	15035.60
702.19	14841.34
702.32	15211.14
702.46	15044.96
702.59	14892.83
702.72	14607.28
702.85	14604.94
702.99	14649.41
703.12	14457.49
703.25	14436.42
703.38	14562.81
703.51	14527.71
703.65	14047.90
703.78	13912.14
703.91	13905.12
704.04	13895.76
704.17	13696.82
704.31	13816.18
704.44	13788.10
704.57	13563.40
704.70	13521.27
704.83	13357.44
704.96	13406.59
705.10	13617.24
705.23	13460.42
>>>>>End Processed Spectral Data<<<<<
