SpectraSuite Data File
++++++++++++++++++++++++++++++++++++
Date: Fri Oct 25 10:47:10 EDT 2013
User: price-jones
Dark Spectrum Present: No
Reference Spectrum Present: No
Number of Sampled Component Spectra: 1
Spectrometers: USB2+H05261
Integration Time (usec): 100000 (USB2+H05261)
Spectra Averaged: 1 (USB2+H05261)
Boxcar Smoothing: 0 (USB2+H05261)
Correct for Electrical Dark: No (USB2+H05261)
Strobe/Lamp Enabled: No (USB2+H05261)
Correct for Detector Non-linearity: No (USB2+H05261)
Correct for Stray Light: No (USB2+H05261)
Number of Pixels in Processed Spectrum: 2048
>>>>>Begin Processed Spectral Data<<<<<
365.73	105.32
365.92	105.32
366.12	105.32
366.32	147.45
366.52	16.38
366.72	60.85
366.91	58.51
367.11	7.02
367.31	56.17
367.51	46.81
367.70	30.43
367.90	18.72
368.10	81.92
368.30	0.00
368.49	23.41
368.69	28.09
368.89	23.41
369.09	16.38
369.28	72.56
369.48	135.75
369.68	95.96
369.87	100.64
370.07	138.09
370.27	175.54
370.47	198.95
370.66	402.57
370.86	416.62
371.06	486.83
371.25	461.09
371.45	414.27
371.65	404.91
371.84	418.96
372.04	428.32
372.24	454.06
372.44	435.34
372.63	463.43
372.83	547.69
373.03	411.93
373.22	454.06
373.42	554.71
373.62	531.30
373.81	594.50
374.01	517.26
374.21	533.64
374.40	496.19
374.60	641.31
374.79	566.41
374.99	510.24
375.19	524.28
375.38	550.03
375.58	543.00
375.78	550.03
375.97	624.92
376.17	631.94
376.37	608.54
376.56	550.03
376.76	575.77
376.95	603.86
377.15	589.82
377.35	620.24
377.54	615.56
377.74	538.32
377.93	641.31
378.13	608.54
378.33	631.94
378.52	610.88
378.72	674.07
378.91	650.67
379.11	601.52
379.31	587.47
379.50	566.41
379.70	685.78
379.89	650.67
380.09	634.29
380.28	664.71
380.48	650.67
380.68	615.56
380.87	657.69
381.07	653.01
381.26	660.03
381.46	683.44
381.65	692.80
381.85	702.16
382.04	634.29
382.24	702.16
382.43	716.20
382.63	634.29
382.83	734.93
383.02	755.99
383.22	718.54
383.41	706.84
383.61	777.06
383.80	793.44
384.00	734.93
384.19	748.97
384.39	781.74
384.58	779.40
384.78	807.48
384.97	779.40
385.17	802.80
385.36	723.23
385.56	720.88
385.75	702.16
385.95	753.65
386.14	842.59
386.34	744.29
386.53	807.48
386.72	716.20
386.92	905.79
387.11	706.84
387.31	718.54
387.50	748.97
387.70	739.61
387.89	833.23
388.09	760.67
388.28	786.42
388.48	741.95
388.67	903.45
388.86	877.70
389.06	800.46
389.25	835.57
389.45	910.47
389.64	809.83
389.84	908.13
390.03	999.41
390.22	990.05
390.42	854.30
390.61	936.21
390.81	889.40
391.00	917.49
391.19	978.34
391.39	945.58
391.58	997.07
391.78	940.90
391.97	968.98
392.16	905.79
392.36	980.68
392.55	940.90
392.75	1020.47
392.94	898.77
393.13	994.73
393.33	884.72
393.52	1064.94
393.71	1004.09
393.91	1029.84
394.10	1025.15
394.29	966.64
394.49	985.37
394.68	1165.59
394.88	1107.07
395.07	1100.05
395.26	1022.81
395.46	1067.28
395.65	999.41
395.84	1107.07
396.04	1067.28
396.23	978.34
396.42	1121.12
396.62	1151.54
396.81	1196.01
397.00	1207.72
397.19	1121.12
397.39	1116.44
397.58	1139.84
397.77	1277.93
397.97	1172.61
398.16	1217.08
398.35	1280.27
398.55	1259.21
398.74	1282.61
398.93	1277.93
399.12	1289.64
399.32	1336.45
399.51	1364.53
399.70	1313.04
399.90	1345.81
400.09	1394.96
400.28	1385.60
400.47	1385.60
400.67	1359.85
400.86	1521.35
401.05	1430.07
401.24	1451.13
401.44	1446.45
401.63	1483.90
401.82	1500.28
402.01	1530.71
402.21	1418.36
402.40	1547.09
402.59	1607.95
402.78	1472.20
402.97	1535.39
403.17	1561.14
403.36	1589.22
403.55	1591.56
403.74	1593.90
403.93	1530.71
404.13	1579.86
404.32	1629.01
404.51	1570.50
404.70	1584.54
404.89	1736.68
405.09	1732.00
405.28	1647.74
405.47	1650.08
405.66	1666.46
405.85	1741.36
406.05	1727.32
406.24	1900.52
406.43	1699.23
406.62	1788.17
406.81	1905.20
407.00	1755.40
407.20	1689.87
407.39	1760.08
407.58	1827.96
407.77	1907.54
407.96	1837.32
408.15	1813.92
408.34	1942.64
408.54	1898.17
408.73	1898.17
408.92	2012.86
409.11	1977.75
409.30	1980.09
409.49	1966.05
409.68	2104.14
409.87	2026.90
410.07	2057.33
410.26	2043.29
410.45	2216.49
410.64	2136.91
410.83	2202.44
411.02	2244.57
411.21	2153.29
411.40	2356.92
411.59	2258.62
411.78	2326.49
411.98	2291.38
412.17	2333.51
412.36	2359.26
412.55	2230.53
412.74	2413.09
412.93	2413.09
413.12	2333.51
413.31	2455.22
413.50	2445.86
413.69	2408.41
413.88	2511.39
414.07	2534.80
414.26	2619.06
414.45	2593.31
414.64	2551.18
414.83	2593.31
415.02	2642.46
415.22	2736.09
415.41	2708.00
415.60	2715.02
415.79	2654.17
415.98	3033.33
416.17	2775.88
416.36	2761.83
416.55	2775.88
416.74	2942.05
416.93	2874.18
417.12	2813.32
417.31	2960.78
417.50	2834.39
417.69	3098.87
417.88	3117.59
418.07	2951.42
418.26	3014.61
418.45	3038.02
418.64	3148.02
418.83	3131.64
419.02	3169.09
419.21	3124.62
419.39	3173.77
419.58	2951.42
419.77	3117.59
419.96	3110.57
420.15	3222.92
420.34	3218.24
420.53	3192.49
420.72	3314.20
420.91	3251.00
421.10	3255.69
421.29	3386.76
421.48	3290.79
421.67	3452.29
421.86	3410.16
422.05	3290.79
422.24	3386.76
422.43	3260.37
422.61	3300.16
422.80	3447.61
422.99	3471.01
423.18	3475.70
423.37	3602.08
423.56	3410.16
423.75	3454.63
423.94	3375.05
424.13	3180.79
424.32	3417.18
424.50	3356.33
424.69	3517.83
424.88	3630.17
425.07	3524.85
425.26	3522.51
425.45	3471.01
425.64	3555.27
425.83	3550.59
426.01	3529.53
426.20	3449.95
426.39	3459.31
426.58	3475.70
426.77	3559.95
426.96	3506.12
427.15	3536.55
427.33	3552.93
427.52	3623.15
427.71	3644.21
427.90	3634.85
428.09	3620.81
428.28	3667.62
428.46	3679.32
428.65	3700.39
428.84	3796.35
429.03	3754.22
429.22	3730.81
429.40	3817.41
429.59	3786.99
429.78	3545.91
429.97	3700.39
430.16	3705.07
430.34	3805.71
430.53	3868.91
430.72	3840.82
430.91	3756.56
431.10	3845.50
431.28	3868.91
431.47	3936.78
431.66	4231.69
431.85	3974.23
432.03	4088.92
432.22	4222.33
432.41	4117.00
432.60	4161.47
432.79	4112.32
432.97	4189.56
433.16	4173.18
433.35	4072.53
433.54	4147.43
433.72	4273.82
433.91	4180.20
434.10	4117.00
434.28	4283.18
434.47	4187.22
434.66	4437.66
434.85	4287.86
435.03	4276.16
435.22	4367.44
435.41	4461.06
435.59	4461.06
435.78	4428.29
435.97	4479.79
436.16	4428.29
436.34	4465.74
436.53	4573.41
436.72	4610.86
436.90	4442.34
437.09	4697.46
437.28	4376.80
437.46	4493.83
437.65	4585.11
437.84	4739.58
438.02	4594.47
438.21	4676.39
438.40	4526.60
438.58	4725.54
438.77	4861.29
438.96	4739.58
439.14	4858.95
439.33	5004.07
439.52	4940.87
439.70	5020.45
439.89	5055.56
440.08	5107.05
440.26	5043.85
440.45	5109.39
440.63	5275.57
440.82	5245.14
441.01	5107.05
441.19	5165.56
441.38	5205.35
441.57	5401.96
441.75	5284.93
441.94	5605.58
442.12	5514.30
442.31	5495.58
442.50	5448.77
442.68	5500.26
442.87	5544.73
443.05	5441.75
443.24	5750.70
443.43	5652.39
443.61	5694.52
443.80	5942.62
443.98	5645.37
444.17	5432.38
444.35	5809.21
444.54	5916.87
444.73	5760.06
444.91	5753.04
445.10	5736.65
445.28	5806.87
445.47	5687.50
445.65	5650.05
445.84	5706.23
446.02	5839.64
446.21	5863.04
446.39	5652.39
446.58	5923.90
446.77	5916.87
446.95	5748.36
447.14	5872.40
447.32	5811.55
447.51	5872.40
447.69	5933.26
447.88	5870.06
448.06	5944.96
448.25	5954.32
448.43	5870.06
448.62	5806.87
448.80	5874.74
448.99	5987.09
449.17	5916.87
449.36	6024.54
449.54	6115.82
449.73	6155.61
449.91	6291.36
450.10	6076.03
450.28	6331.15
450.46	6200.08
450.65	6324.13
450.83	6312.42
451.02	6120.50
451.20	6246.89
451.39	6277.32
451.57	6256.25
451.76	6349.87
451.94	6293.70
452.13	6445.84
452.31	6354.55
452.49	6272.64
452.68	6511.37
452.86	6497.33
453.05	6471.58
453.23	6462.22
453.42	6406.05
453.60	6469.24
453.78	6455.20
453.97	6485.62
454.15	6668.19
454.34	6548.82
454.52	6623.72
454.70	6743.08
454.89	6703.29
455.07	6719.68
455.26	6717.34
455.44	6876.49
455.62	6850.75
455.81	6902.24
455.99	6808.62
456.17	6799.26
456.36	6937.35
456.54	7037.99
456.73	7049.69
456.91	7026.29
457.09	7243.96
457.28	7255.66
457.46	7082.46
457.64	7150.34
457.83	6993.52
458.01	7208.85
458.19	7253.32
458.38	7035.65
458.56	7384.39
458.74	7220.55
458.93	7330.56
459.11	7382.05
459.29	7239.28
459.48	7281.41
459.66	7510.78
459.84	7391.41
460.03	7290.77
460.21	7531.84
460.39	7517.80
460.57	7620.78
460.76	7658.23
460.94	7566.95
461.12	7501.42
461.31	7672.28
461.49	7538.87
461.67	7632.49
461.85	7693.34
462.04	7646.53
462.22	8142.72
462.40	7779.94
462.59	8004.63
462.77	7618.44
462.95	8030.38
463.13	7791.64
463.32	7889.95
463.50	7995.27
463.68	7946.12
463.86	7906.33
464.05	7789.30
464.23	7887.61
464.41	7920.37
464.59	7974.21
464.78	8088.89
464.96	8060.80
465.14	7929.74
465.32	7957.82
465.50	8149.75
465.69	8133.36
465.87	8187.19
466.05	8093.57
466.23	8159.11
466.41	8205.92
466.60	8156.77
466.78	8194.22
466.96	8320.60
467.14	8390.82
467.32	8308.90
467.51	8376.78
467.69	7978.89
467.87	8292.52
468.05	8449.33
468.23	8395.50
468.41	8477.42
468.60	8442.31
468.78	8587.43
468.96	8458.70
469.14	8512.53
469.32	8580.40
469.50	8526.57
469.69	8716.16
469.87	8702.11
470.05	8798.07
470.23	8774.67
470.41	8725.52
470.59	8762.97
470.77	8889.35
470.95	8990.00
471.14	9104.68
471.32	9167.88
471.50	9273.20
471.68	8973.61
471.86	9245.12
472.04	9029.79
472.22	9530.66
472.40	9172.56
472.58	8961.91
472.77	9490.87
472.95	9418.32
473.13	9598.54
473.31	9245.12
473.49	9502.58
473.67	9605.56
473.85	9479.17
474.03	9516.62
474.21	9554.07
474.39	9760.03
474.57	9731.95
474.75	10026.86
474.93	9902.81
475.12	10148.56
475.30	10026.86
475.48	9947.28
475.66	9898.13
475.84	10115.80
476.02	10296.02
476.20	10291.34
476.38	10450.49
476.56	10504.32
476.74	10586.24
476.92	10621.35
477.10	10546.45
477.28	10890.51
477.46	10792.21
477.64	10899.87
477.82	11056.69
478.00	11042.65
478.18	11199.46
478.36	11211.17
478.54	11372.66
478.72	11300.11
478.90	11566.93
479.08	11496.71
479.26	11716.72
479.44	11751.83
479.62	11985.88
479.80	11885.24
479.98	12056.10
480.16	12154.40
480.34	12030.35
480.52	12365.05
480.70	12280.79
480.88	12236.32
481.06	12231.64
481.24	12135.68
481.41	12781.67
481.59	12884.65
481.77	13060.19
481.95	13032.10
482.13	12884.65
482.31	12912.74
482.49	13315.31
482.67	13188.92
482.85	13469.78
483.03	13490.85
483.21	13638.30
483.39	13757.67
483.57	13776.39
483.74	14092.37
483.92	14047.90
484.10	14080.66
484.28	14211.73
484.46	14448.13
484.64	14406.00
484.82	14340.46
485.00	14501.96
485.18	14595.58
485.35	15009.86
485.53	14822.61
485.71	14878.79
485.89	14984.11
486.07	14920.92
486.25	15253.27
486.43	15089.43
486.61	15548.18
486.78	15969.48
486.96	15695.63
487.14	16009.26
487.32	16379.07
487.50	16152.04
487.68	16463.33
487.85	16664.61
488.03	16549.93
488.21	16812.07
488.39	16734.83
488.57	16748.87
488.75	16830.79
488.92	17460.40
489.10	17558.70
489.28	17619.55
489.46	17418.27
489.64	17788.07
489.81	17921.48
489.99	18106.38
490.17	18150.85
490.35	18457.46
490.53	18211.71
490.70	18593.22
490.88	18515.98
491.06	18450.44
491.24	18518.32
491.41	18771.10
491.59	18743.01
491.77	18843.65
491.95	19180.69
492.13	18979.40
492.30	19571.56
492.48	19627.73
492.66	19824.34
492.84	19536.45
493.01	20013.92
493.19	19779.87
493.37	19840.72
493.54	20130.95
493.72	20634.16
493.90	20475.01
494.08	20332.23
494.25	20563.95
494.43	20992.26
494.61	21191.21
494.79	21128.02
494.96	21336.32
495.14	21158.44
495.32	21057.80
495.49	21401.86
495.67	21539.95
495.85	21680.38
496.02	21757.62
496.20	21879.33
496.38	22085.30
496.55	22099.34
496.73	22394.25
496.91	22354.46
497.09	22831.93
497.26	22677.45
497.44	22754.69
497.62	22967.68
497.79	22867.03
497.97	23157.26
498.14	23154.92
498.32	23098.75
498.50	23473.23
498.67	23529.41
498.85	23365.57
499.03	23658.14
499.20	23721.33
499.38	23704.95
499.56	24013.90
499.73	24355.61
499.91	24100.50
500.08	24318.17
500.26	24020.92
500.44	24449.24
500.61	24219.86
500.79	24046.66
500.97	24655.20
501.14	25069.48
501.32	24802.66
501.49	24856.49
501.67	25029.69
501.84	25200.55
502.02	25109.27
502.20	25319.92
502.37	25074.16
502.55	25394.81
502.72	25443.96
502.90	25617.16
503.07	25663.97
503.25	25586.74
503.43	25846.54
503.60	25802.07
503.78	25731.85
503.95	25790.36
504.13	26321.66
504.30	26075.91
504.48	26176.55
504.65	26501.89
504.83	26476.14
505.01	26637.64
505.18	26506.57
505.36	26749.98
505.53	26965.31
505.71	27131.49
505.88	26810.84
506.06	26518.27
506.23	27206.39
506.41	26920.84
506.58	27154.90
506.76	27461.51
506.93	27391.29
507.11	27473.21
507.28	27459.16
507.46	27711.94
507.63	27185.32
507.81	27835.99
507.98	27325.75
508.16	27903.87
508.33	27931.95
508.50	28147.28
508.68	28137.92
508.85	28568.58
509.03	28474.96
509.20	28472.62
509.38	29036.69
509.55	28556.88
509.73	28673.90
509.90	28620.07
510.08	28503.04
510.25	28922.00
510.42	28975.83
510.60	29151.37
510.77	29198.18
510.95	29270.74
511.12	29017.96
511.30	29326.91
511.47	29628.84
511.64	29656.93
511.82	29713.10
511.99	29336.27
512.17	30129.72
512.34	29582.03
512.51	30061.84
512.69	30192.91
512.86	30342.70
513.04	30316.96
513.21	30160.14
513.38	30373.13
513.56	30307.60
513.73	29937.79
513.90	30614.21
514.08	30314.62
514.25	31009.76
514.43	30663.36
514.60	30614.21
514.77	30504.20
514.95	30789.75
515.12	30916.14
515.29	31297.64
515.47	30918.48
515.64	31622.98
515.81	31119.76
515.99	31136.15
516.16	31512.97
516.33	31438.08
516.51	31454.46
516.68	31290.62
516.85	31463.82
517.03	31484.89
517.20	31438.08
517.37	31735.32
517.54	31744.69
517.72	31723.62
517.89	31737.66
518.06	31536.38
518.24	31634.68
518.41	31871.07
518.58	32168.32
518.75	32039.59
518.93	32690.26
519.10	32414.08
519.27	32568.55
519.45	32624.73
519.62	32671.54
519.79	32631.75
519.96	33172.41
520.14	33153.69
520.31	32741.75
520.48	32919.63
520.65	33130.28
520.83	33207.52
521.00	33422.85
521.17	33099.86
521.34	33359.66
521.52	33549.24
521.69	33212.20
521.86	33848.83
522.03	33787.97
522.20	33549.24
522.38	33797.34
522.55	33895.64
522.72	33645.20
522.89	33631.16
523.07	33682.65
523.24	33785.63
523.41	34316.93
523.58	34384.81
523.75	34227.99
523.92	34398.85
524.10	34705.46
524.27	34593.12
524.44	34422.26
524.61	34630.57
524.78	34618.86
524.96	34321.62
525.13	34792.06
525.30	34965.26
525.47	35204.00
525.64	35208.68
525.81	34972.28
525.98	35112.72
526.16	35306.98
526.33	35220.38
526.50	35035.48
526.67	35386.56
526.84	35093.99
527.01	35068.25
527.18	35112.72
527.36	35730.62
527.53	35562.10
527.70	35955.31
527.87	35847.64
528.04	35618.27
528.21	35875.73
528.38	35459.12
528.55	35857.01
528.72	35730.62
528.89	35674.45
529.07	36278.30
529.24	35964.67
529.41	35817.22
529.58	36095.74
529.75	35779.77
529.92	36458.52
530.09	36376.61
530.26	36350.86
530.43	36437.46
530.60	36247.88
530.77	36517.04
530.94	36364.90
531.11	36772.16
531.28	36725.35
531.46	36371.92
531.63	37022.59
531.80	36514.70
531.97	37113.87
532.14	37106.85
532.31	36893.86
532.48	36964.08
532.65	37139.62
532.82	36863.44
532.99	37354.95
533.16	36802.58
533.33	37228.56
533.50	37827.74
533.67	37441.55
533.84	37053.02
534.01	37542.19
534.18	37787.95
534.35	37874.55
534.52	37633.47
534.69	37633.47
534.86	37954.13
535.03	37659.22
535.20	37991.58
535.37	38050.09
535.54	38148.39
535.71	38089.88
535.88	38059.45
536.05	37787.95
536.22	37954.13
536.38	38141.37
536.55	38148.39
536.72	38330.95
536.89	38176.48
537.06	38464.36
537.23	38216.27
537.40	38513.52
537.57	38506.49
537.74	38583.73
537.91	38717.14
538.08	38873.96
538.25	37951.79
538.42	38672.67
538.59	38761.61
538.75	38440.96
538.92	38983.96
539.09	38473.73
539.26	38696.08
539.43	38635.22
539.60	38845.87
539.77	39091.63
539.94	39213.34
540.11	38422.23
540.28	38864.60
540.44	39168.87
540.61	39199.29
540.78	38909.07
540.95	39014.39
541.12	38871.62
541.29	38632.88
541.46	39161.84
541.62	39473.13
541.79	39473.13
541.96	38686.71
542.13	39388.88
542.30	39175.89
542.47	39744.64
542.63	39683.78
542.80	40079.33
542.97	40205.72
543.14	39908.47
543.31	40086.36
543.48	39917.84
543.64	40100.40
543.81	40538.08
543.98	40006.78
544.15	40048.91
544.32	40517.01
544.48	40739.36
544.65	40399.99
544.82	40245.51
544.99	40112.10
545.16	40596.59
545.32	40163.59
545.49	40727.66
545.66	40807.24
545.83	40620.00
546.00	41015.55
546.16	40465.52
546.33	40236.15
546.50	39751.66
546.67	40781.49
546.83	40849.37
547.00	40907.88
547.17	40620.00
547.34	40769.79
547.50	40847.03
547.67	41219.17
547.84	41064.70
548.00	40968.74
548.17	41195.77
548.34	41263.64
548.51	41544.51
548.67	41015.55
548.84	41275.35
549.01	41387.69
549.18	41390.03
549.34	41240.24
549.51	41375.99
549.68	41911.97
549.84	41483.66
550.01	41888.57
550.18	41277.69
550.34	41881.55
550.51	41801.97
550.68	41308.11
550.84	41167.68
551.01	41914.31
551.18	41904.95
551.34	41759.84
551.51	41916.65
551.68	42050.06
551.84	41996.23
552.01	41558.55
552.18	41996.23
552.34	41846.44
552.51	41799.63
552.68	41551.53
552.84	42110.92
553.01	42232.63
553.18	41944.74
553.34	42010.28
553.51	41942.40
553.67	42099.22
553.84	42469.02
554.01	42440.93
554.17	42143.69
554.34	42548.60
554.51	42223.26
554.67	42595.41
554.84	42632.86
555.00	42356.67
555.17	42487.74
555.33	42431.57
555.50	42447.96
555.67	42134.32
555.83	42326.25
556.00	42569.66
556.16	42506.47
556.33	42602.43
556.50	42550.94
556.66	42813.08
556.83	42583.71
556.99	43084.58
557.16	42740.52
557.32	42302.84
557.49	43122.03
557.65	42359.02
557.82	42635.20
557.98	42658.60
558.15	43115.01
558.32	42576.69
558.48	42827.12
558.65	43264.80
558.81	42768.61
558.98	42911.38
559.14	42822.44
559.31	43049.47
559.47	43086.92
559.64	43412.26
559.80	43033.09
559.97	43140.75
560.13	42660.94
560.30	43035.43
560.46	42965.21
560.63	43021.39
560.79	43098.62
560.96	43768.02
561.12	43517.58
561.29	43182.88
561.45	43248.42
561.61	43110.33
561.78	43445.02
561.94	43332.68
562.11	43070.54
562.27	42871.59
562.44	43601.84
562.60	43732.91
562.77	43395.87
562.93	43140.75
563.10	43178.20
563.26	43330.34
563.42	43669.72
563.59	43489.49
563.75	43723.55
563.92	43536.30
564.08	43562.05
564.24	43538.65
564.41	43798.44
564.57	43606.52
564.74	43377.15
564.90	43777.38
565.07	44048.88
565.23	43803.13
565.39	43749.29
565.56	43611.20
565.72	43707.16
565.88	43826.53
566.05	43028.41
566.21	43428.64
566.38	43746.95
566.54	43402.89
566.70	44257.19
566.87	44320.38
567.03	43934.20
567.19	44367.20
567.36	44046.54
567.52	43786.74
567.68	43971.64
567.85	43842.92
568.01	43721.21
568.17	43573.75
568.34	43782.06
568.50	43498.86
568.66	43753.97
568.83	44004.41
568.99	43779.72
569.15	43746.95
569.32	43786.74
569.48	43798.44
569.64	44088.67
569.81	43501.20
569.97	43934.20
570.13	43878.02
570.30	44098.03
570.46	43711.84
570.62	44144.84
570.78	43772.70
570.95	43533.96
571.11	44254.85
571.27	43842.92
571.43	44107.40
571.60	44055.90
571.76	43402.89
571.92	44025.48
572.09	43749.29
572.25	43920.15
572.41	44465.50
572.57	44112.08
572.74	44741.68
572.90	44210.38
573.06	44264.21
573.22	44238.47
573.38	44325.07
573.55	43559.71
573.71	44107.40
573.87	44079.31
574.03	43475.45
574.20	44109.74
574.36	43840.57
574.52	43871.00
574.68	44446.77
574.84	44243.15
575.01	44161.23
575.17	44091.01
575.33	44238.47
575.49	44378.90
575.65	44528.69
575.82	44683.17
575.98	44409.32
576.14	44418.69
576.30	44664.44
576.46	43910.79
576.62	43833.55
576.79	43962.28
576.95	43873.34
577.11	43849.94
577.27	44175.27
577.43	44531.03
577.59	44100.37
577.75	44243.15
577.92	43910.79
578.08	43852.28
578.24	44002.07
578.40	44313.36
578.56	44208.04
578.72	44030.16
578.88	44369.54
579.04	44294.64
579.21	44086.33
579.37	44893.82
579.53	44449.11
579.69	44121.44
579.85	44025.48
580.01	44481.88
580.17	44669.12
580.33	44186.97
580.49	44577.84
580.65	44460.82
580.82	44282.94
580.98	44458.48
581.14	44280.60
581.30	44676.15
581.46	44257.19
581.62	44402.30
581.78	44154.21
581.94	44568.48
582.10	44619.97
582.26	44828.28
582.42	44626.99
582.58	44203.36
582.74	44296.98
582.90	44374.22
583.06	44446.77
583.22	44713.59
583.38	44327.41
583.54	44362.51
583.70	44423.37
583.86	44109.74
584.02	43995.05
584.18	44807.22
584.34	44545.08
584.50	44325.07
584.66	44587.21
584.82	44306.34
584.98	44685.51
585.14	44259.53
585.30	44500.61
585.46	44318.04
585.62	44643.38
585.78	44191.65
585.94	44182.29
586.10	44315.70
586.26	44453.79
586.42	44065.27
586.58	44479.54
586.74	44158.89
586.90	44151.87
587.06	44706.57
587.22	44453.79
587.38	44451.45
587.54	44832.96
587.70	45209.79
587.86	44374.22
588.02	44502.95
588.18	44624.65
588.34	44135.48
588.49	44423.37
588.65	44172.93
588.81	44350.81
588.97	44467.84
589.13	44280.60
589.29	44444.43
589.45	44713.59
589.61	44683.17
589.77	44552.10
589.93	44615.29
590.08	44774.45
590.24	45041.27
590.40	44942.97
590.56	44774.45
590.72	44839.98
590.88	44439.75
591.04	44409.32
591.20	44966.37
591.35	44914.88
591.51	44732.32
591.67	44807.22
591.83	44526.35
591.99	44753.38
592.15	44308.68
592.31	44645.72
592.46	45001.48
592.62	44645.72
592.78	44811.90
592.94	44570.82
593.10	44268.89
593.26	44900.84
593.41	44673.81
593.57	44428.05
593.73	44500.61
593.89	44676.15
594.05	44594.23
594.20	44891.48
594.36	45076.38
594.52	45043.61
594.68	44694.87
594.84	44404.64
594.99	44996.80
595.15	45092.76
595.31	45055.31
595.47	45282.34
595.62	45127.87
595.78	44638.70
595.94	45015.52
596.10	44992.12
596.25	44751.04
596.41	44893.82
596.57	44706.57
596.73	44875.09
596.88	44259.53
597.04	44809.56
597.20	45029.57
597.36	44694.87
597.51	44996.80
597.67	45043.61
597.83	44767.43
597.99	45057.65
598.14	44547.42
598.30	44729.98
598.46	44624.65
598.61	44531.03
598.77	44687.85
598.93	44987.44
599.09	44713.59
599.24	45605.34
599.40	45006.16
599.56	45102.12
599.71	45240.21
599.87	45413.41
600.03	44851.69
600.18	45036.59
600.34	44704.23
600.50	44772.11
600.65	44608.27
600.81	45256.60
600.97	45572.57
601.12	45656.83
601.28	45024.89
601.44	44739.34
601.59	44889.13
601.75	44790.83
601.91	44884.45
602.06	44917.22
602.22	45137.23
602.37	44795.51
602.53	44790.83
602.69	45024.89
602.84	44900.84
603.00	45062.33
603.16	44762.75
603.31	44804.88
603.47	44971.05
603.62	44559.12
603.78	44919.56
603.94	44652.74
604.09	44821.26
604.25	45088.08
604.40	44671.46
604.56	45282.34
604.71	45235.53
604.87	44509.97
605.03	44652.74
605.18	44575.50
605.34	44758.06
605.49	44257.19
605.65	45038.93
605.80	44711.25
605.96	44793.17
606.12	44737.00
606.27	45097.44
606.43	44697.21
606.58	44765.09
606.74	44587.21
606.89	44837.64
607.05	44739.34
607.20	44629.34
607.36	44779.13
607.51	45083.40
607.67	45034.25
607.82	44493.58
607.98	44828.28
608.13	44147.18
608.29	44463.16
608.44	44294.64
608.60	44238.47
608.75	43999.73
608.91	44196.34
609.06	44027.82
609.22	45186.38
609.37	44278.25
609.53	44495.92
609.68	44657.42
609.84	44720.62
609.99	44645.72
610.15	44524.01
610.30	44484.22
610.46	44289.96
610.61	44397.62
610.76	44437.41
610.92	44311.02
611.07	43903.77
611.23	44156.55
611.38	44304.00
611.54	44156.55
611.69	43927.17
611.84	43636.95
612.00	43810.15
612.15	44247.83
612.31	44402.30
612.46	44245.49
612.62	44292.30
612.77	44053.56
612.92	44264.21
613.08	43910.79
613.23	44456.14
613.39	43971.64
613.54	44018.46
613.69	44025.48
613.85	44275.91
614.00	44222.08
614.15	44320.38
614.31	44233.78
614.46	44472.52
614.62	44189.31
614.77	43683.76
614.92	43770.36
615.08	44105.06
615.23	43831.21
615.38	43845.26
615.54	43311.61
615.69	43941.22
615.84	43620.56
616.00	43838.23
616.15	43842.92
616.30	43938.88
616.46	43625.25
616.61	43210.97
616.76	43555.03
616.92	43461.41
617.07	43189.91
617.22	43217.99
617.37	43519.92
617.53	44002.07
617.68	43627.59
617.83	43508.22
617.99	43812.49
618.14	43426.30
618.29	43386.51
618.45	43234.38
618.60	43636.95
618.75	43445.02
618.90	43349.06
619.06	43463.75
619.21	43349.06
619.36	43344.38
619.51	43131.39
619.67	42887.98
619.82	43377.15
619.97	43295.23
620.12	42876.27
620.28	42876.27
620.43	42969.90
620.58	43208.63
620.73	42902.02
620.89	42607.11
621.04	42883.30
621.19	42696.05
621.34	43091.60
621.49	42997.98
621.65	42792.01
621.80	42564.98
621.95	42534.56
622.10	42623.50
622.25	42696.05
622.41	42609.45
622.56	42670.31
622.71	42951.17
622.86	42628.18
623.01	42850.53
623.16	42862.23
623.32	42459.66
623.47	42480.72
623.62	42967.55
623.77	42454.98
623.92	42153.05
624.07	42080.49
624.23	42319.23
624.38	42139.00
624.53	41689.62
624.68	42089.85
624.83	42810.74
624.98	42359.02
625.13	41897.93
625.29	42726.48
625.44	42057.09
625.59	42185.82
625.74	41947.08
625.89	41799.63
626.04	41813.67
626.19	41914.31
626.34	42139.00
626.49	41811.33
626.65	41989.21
626.80	42029.00
626.95	41977.51
627.10	42078.15
627.25	41579.62
627.40	41631.11
627.55	41745.80
627.70	41406.42
627.85	41375.99
628.00	41591.32
628.15	42253.69
628.30	41787.92
628.45	42405.83
628.60	41752.82
628.76	41808.99
628.91	41600.68
629.06	41610.04
629.21	41546.85
629.36	41535.15
629.51	41556.21
629.66	41249.60
629.81	41137.26
629.96	41483.66
630.11	41572.60
630.26	41750.48
630.41	41177.04
630.56	41518.76
630.71	41514.08
630.86	41368.97
631.01	41172.36
631.16	41542.17
631.31	40676.17
631.46	40685.53
631.61	41390.03
631.76	40893.84
631.91	41411.10
632.06	41329.18
632.21	41216.83
632.36	40802.56
632.51	40938.31
632.66	41031.93
632.81	40720.64
632.96	40835.33
633.10	40905.54
633.25	41006.19
633.40	41134.92
633.55	40875.12
633.70	41132.57
633.85	40617.66
634.00	40884.48
634.15	40753.41
634.30	40678.51
634.45	40531.06
634.60	40758.09
634.75	40624.68
634.90	40769.79
635.05	40313.39
635.19	40718.30
635.34	40779.15
635.49	40715.96
635.64	40481.91
635.79	40306.37
635.94	40203.38
636.09	40402.33
636.24	40240.83
636.39	40069.97
636.53	40020.82
636.68	39559.73
636.83	40098.06
636.98	40381.26
637.13	39627.61
637.28	40348.50
637.43	40493.61
637.57	40617.66
637.72	39807.83
637.87	39945.92
638.02	40027.84
638.17	39927.20
638.32	39592.50
638.46	39735.27
638.61	40055.93
638.76	39414.62
638.91	39819.53
639.06	40098.06
639.20	39878.05
639.35	40250.19
639.50	39585.48
639.65	39697.83
639.80	39934.22
639.94	39615.91
640.09	40168.27
640.24	40006.78
640.39	39651.02
640.54	39643.99
640.68	39512.92
640.83	39695.49
640.98	39718.89
641.13	39695.49
641.27	39641.65
641.42	39580.80
641.57	39730.59
641.72	39510.58
641.86	39122.05
642.01	39079.92
642.16	39360.79
642.31	38649.27
642.45	39175.89
642.60	39009.71
642.75	38637.56
642.90	39442.71
643.04	38768.63
643.19	39093.97
643.34	39159.50
643.48	39199.29
643.63	39222.70
643.78	39119.71
643.93	39058.86
644.07	38597.77
644.22	39210.99
644.37	38829.49
644.51	38675.01
644.66	39019.07
644.81	38878.64
644.95	39086.95
645.10	38831.83
645.25	39215.68
645.39	39072.90
645.54	39082.27
645.69	39019.07
645.83	38862.26
645.98	38286.48
646.13	39152.48
646.27	38679.69
646.42	38864.60
646.57	38883.32
646.71	39136.10
646.86	38632.88
647.00	38684.37
647.15	38850.55
647.30	38794.38
647.44	38487.77
647.59	38782.68
647.74	38684.37
647.88	38323.93
648.03	38429.26
648.17	38295.85
648.32	38010.30
648.47	38333.29
648.61	37993.92
648.76	38359.04
648.90	38267.76
649.05	38017.32
649.20	38160.09
649.34	38492.45
649.49	37837.10
649.63	37806.67
649.78	38396.49
649.92	38319.25
650.07	38298.19
650.21	38031.36
650.36	37991.58
650.51	37729.44
650.65	38333.29
650.80	38698.42
650.94	38096.90
651.09	38132.01
651.23	37848.80
651.38	37940.08
651.52	37933.06
651.67	38010.30
651.81	37710.71
651.96	37696.67
652.10	37668.58
652.25	37654.54
652.39	37635.81
652.54	37584.32
652.68	37933.06
652.83	37991.58
652.97	37993.92
653.12	37851.14
653.26	37579.64
653.41	37701.35
653.55	38017.32
653.70	37635.81
653.84	37593.68
653.99	37186.43
654.13	38113.28
654.27	37397.08
654.42	37612.41
654.56	37130.26
654.71	37284.73
654.85	37202.82
655.00	37385.38
655.14	37446.23
655.29	36875.14
655.43	37106.85
655.57	37156.00
655.72	36442.14
655.86	36762.79
656.01	36992.17
656.15	36847.05
656.30	36856.42
656.44	36676.19
656.58	36947.70
656.73	36898.55
656.87	36950.04
657.01	36371.92
657.16	36751.09
657.30	36465.55
657.45	36524.06
657.59	36538.10
657.73	36533.42
657.88	36566.19
658.02	36760.45
658.16	36566.19
658.31	36793.22
658.45	36610.66
658.60	36491.29
658.74	36196.38
658.88	36664.49
659.03	36257.24
659.17	36189.36
659.31	36105.10
659.46	36140.21
659.60	36081.70
659.74	35924.88
659.89	36275.96
660.03	36011.48
660.17	36446.82
660.32	35864.03
660.46	36371.92
660.60	36533.42
660.74	35681.47
660.89	35573.80
661.03	35894.46
661.17	35454.44
661.32	35618.27
661.46	35494.22
661.60	35262.51
661.74	35402.94
661.89	35508.27
662.03	35328.05
662.17	35449.75
662.31	35229.74
662.46	35562.10
662.60	34892.71
662.74	35304.64
662.88	35351.45
663.03	35281.24
663.17	35489.54
663.31	34810.79
663.45	35007.39
663.60	34848.24
663.74	34934.84
663.88	34836.53
664.02	34941.86
664.17	34927.81
664.31	34555.67
664.45	35009.73
664.59	34492.47
664.73	34579.07
664.88	34649.29
665.02	34291.19
665.16	34129.69
665.30	34263.10
665.44	34518.22
665.59	34132.03
665.73	34387.15
665.87	34026.71
666.01	33795.00
666.15	33848.83
666.29	34113.31
666.44	34595.46
666.58	33865.21
666.72	33970.54
666.86	34146.08
667.00	34213.95
667.14	33563.28
667.28	33455.62
667.43	33443.91
667.57	34031.39
667.71	33474.34
667.85	33923.72
667.99	33312.84
668.13	33378.38
668.27	33544.56
668.41	33544.56
668.56	32821.33
668.70	33582.01
668.84	33273.06
668.98	32896.23
669.12	33057.73
669.26	33287.10
669.40	33081.13
669.54	33081.13
669.68	32856.44
669.82	32776.86
669.96	32716.01
670.10	32531.11
670.25	32732.39
670.39	32751.12
670.53	32650.47
670.67	32598.98
670.81	32493.66
670.95	32273.65
671.09	32306.41
671.23	32505.36
671.37	32393.01
671.51	32332.16
671.65	31948.31
671.79	31676.81
671.93	31665.11
672.07	32407.06
672.21	32147.26
672.35	31770.43
672.49	32144.92
672.63	32376.63
672.77	31498.93
672.91	31854.69
673.05	31360.84
673.19	31503.61
673.33	31248.49
673.47	31192.32
673.61	31239.13
673.75	31009.76
673.89	31098.70
674.03	30955.93
674.17	30724.21
674.31	31096.36
674.45	30824.86
674.59	30857.62
674.73	31091.68
674.87	30927.84
675.01	30693.79
675.15	30857.62
675.29	30588.46
675.43	30820.17
675.56	30836.56
675.70	30347.39
675.84	30087.59
675.98	29113.92
676.12	29764.59
676.26	30167.16
676.40	29818.42
676.54	29656.93
676.68	29591.39
676.82	29219.25
676.96	29535.22
677.10	29406.49
677.23	29338.62
677.37	29113.92
677.51	29144.35
677.65	29132.65
677.79	28701.99
677.93	28900.94
678.07	28439.85
678.21	28596.67
678.34	28439.85
678.48	28554.54
678.62	28334.53
678.76	28819.02
678.90	28428.15
679.04	28009.19
679.18	28163.67
679.31	27796.20
679.45	27826.63
679.59	27812.59
679.73	27749.39
679.87	27644.07
680.00	27573.85
680.14	27290.65
680.28	27180.64
680.42	27461.51
680.56	27517.68
680.70	27157.24
680.83	27119.79
680.97	26984.04
681.11	26874.03
681.25	26862.33
681.39	26897.44
681.52	26551.04
681.66	26579.12
681.80	26529.97
681.94	26534.65
682.07	26316.98
682.21	26356.77
682.35	26178.89
682.49	26071.23
682.62	26167.19
682.76	25862.92
682.90	25825.47
683.04	25837.17
683.17	25832.49
683.31	25584.40
683.45	25872.28
683.59	25586.74
683.72	25315.23
683.86	25448.64
684.00	25142.03
684.13	25235.66
684.27	25326.94
684.41	24924.36
684.55	24936.07
684.68	24730.10
684.82	24493.71
684.96	24582.65
685.09	24416.47
685.23	24425.83
685.37	24444.56
685.50	24460.94
685.64	24287.74
685.78	24086.45
685.91	24327.53
686.05	23852.40
686.19	23772.82
686.32	23782.18
686.46	23344.50
686.60	23150.24
686.73	23742.39
686.87	23749.42
687.01	23433.44
687.14	23253.22
687.28	22850.65
687.42	22930.23
687.55	22808.52
687.69	22738.30
687.82	22820.22
687.96	22778.09
688.10	22424.67
688.23	22682.13
688.37	22300.62
688.50	22169.55
688.64	22319.35
688.78	22029.12
688.91	22202.32
689.05	22415.31
689.18	22141.47
689.32	21638.25
689.46	21933.16
689.59	21937.84
689.73	22087.64
689.86	21694.43
690.00	21479.10
690.13	21851.24
690.27	21277.81
690.41	21745.92
690.54	21036.74
690.68	20999.29
690.81	20835.45
690.95	20999.29
691.08	20947.79
691.22	20884.60
691.35	21025.03
691.49	21029.71
691.62	20767.57
691.76	20629.48
691.89	20379.04
692.03	20580.33
692.16	20121.59
692.30	20072.43
692.43	20304.15
692.57	20051.37
692.70	19751.78
692.84	19735.40
692.97	19721.35
693.11	19744.76
693.24	19466.24
693.38	19477.94
693.51	19356.23
693.65	19255.59
693.78	19515.39
693.92	19218.14
694.05	19545.81
694.19	19262.61
694.32	19108.13
694.45	19239.20
694.59	19157.28
694.72	18684.50
694.86	18766.42
694.99	18661.09
695.13	18733.65
695.26	18494.91
695.39	18209.37
695.53	18171.92
695.66	17923.82
695.80	18246.82
695.93	18080.64
696.07	17877.01
696.20	18237.45
696.33	17832.54
696.47	17729.56
696.60	18029.15
696.73	17809.14
696.87	17841.90
697.00	17795.09
697.14	17334.01
697.27	17280.18
697.40	17460.40
697.54	17322.30
697.67	17163.15
697.80	17308.26
697.94	17202.94
698.07	16959.52
698.21	16807.39
698.34	17001.65
698.47	16882.28
698.61	16149.70
698.74	16568.65
698.87	16554.61
699.01	16231.62
699.14	16339.28
699.27	16329.92
699.40	16531.20
699.54	15901.60
699.67	16238.64
699.80	16011.60
699.94	15843.09
700.07	15920.32
700.20	15744.78
700.34	15634.78
700.47	15580.95
700.60	15894.58
700.73	15850.11
700.87	15665.21
701.00	15548.18
701.13	15213.48
701.26	15412.43
701.40	15276.68
701.53	15044.96
701.66	15140.93
701.79	15059.01
701.93	14920.92
702.06	14810.91
702.19	14827.29
702.32	14738.35
702.46	14586.22
702.59	14544.09
702.72	14565.15
702.85	14689.20
702.99	14686.86
703.12	14539.41
703.25	14551.11
703.38	14291.31
703.51	14225.78
703.65	13837.25
703.78	14043.21
703.91	13837.25
704.04	14373.23
704.17	13855.97
704.31	13703.84
704.44	13748.31
704.57	13504.89
704.70	13612.56
704.83	13621.92
704.96	13642.98
705.10	13577.45
705.23	13593.83
>>>>>End Processed Spectral Data<<<<<
