SpectraSuite Data File
++++++++++++++++++++++++++++++++++++
Date: Fri Oct 25 11:34:16 EDT 2013
User: price-jones
Dark Spectrum Present: No
Reference Spectrum Present: No
Number of Sampled Component Spectra: 1
Spectrometers: USB2+H05261
Integration Time (usec): 100000 (USB2+H05261)
Spectra Averaged: 1 (USB2+H05261)
Boxcar Smoothing: 0 (USB2+H05261)
Correct for Electrical Dark: No (USB2+H05261)
Strobe/Lamp Enabled: No (USB2+H05261)
Correct for Detector Non-linearity: No (USB2+H05261)
Correct for Stray Light: No (USB2+H05261)
Number of Pixels in Processed Spectrum: 2048
>>>>>Begin Processed Spectral Data<<<<<
365.73	299.59
365.92	299.59
366.12	299.59
366.32	175.54
366.52	205.97
366.72	170.86
366.91	145.11
367.11	163.84
367.31	229.37
367.51	175.54
367.70	241.08
367.90	182.56
368.10	203.63
368.30	166.18
368.49	208.31
368.69	177.88
368.89	212.99
369.09	196.60
369.28	208.31
369.48	187.24
369.68	215.33
369.87	220.01
370.07	238.73
370.27	252.78
370.47	290.23
370.66	521.94
370.86	538.32
371.06	507.90
371.25	603.86
371.45	550.03
371.65	545.34
371.84	561.73
372.04	503.22
372.24	599.18
372.44	543.00
372.63	578.11
372.83	543.00
373.03	638.97
373.22	594.50
373.42	547.69
373.62	615.56
373.81	599.18
374.01	606.20
374.21	713.86
374.40	582.79
374.60	641.31
374.79	674.07
374.99	615.56
375.19	592.16
375.38	634.29
375.58	650.67
375.78	629.60
375.97	678.76
376.17	753.65
376.37	631.94
376.56	681.10
376.76	606.20
376.95	713.86
377.15	636.63
377.35	622.58
377.54	685.78
377.74	702.16
377.93	662.37
378.13	819.19
378.33	751.31
378.52	732.59
378.72	671.73
378.91	732.59
379.11	706.84
379.31	678.76
379.50	655.35
379.70	676.41
379.89	669.39
380.09	648.33
380.28	723.23
380.48	683.44
380.68	748.97
380.87	798.12
381.07	685.78
381.26	709.18
381.46	758.33
381.65	770.04
381.85	760.67
382.04	798.12
382.24	786.42
382.43	741.95
382.63	805.14
382.83	748.97
383.02	713.86
383.22	784.08
383.41	725.57
383.61	772.38
383.80	807.48
384.00	819.19
384.19	816.85
384.39	821.53
384.58	802.80
384.78	798.12
384.97	896.43
385.17	784.08
385.36	842.59
385.56	854.30
385.75	833.23
385.95	837.91
386.14	880.04
386.34	821.53
386.53	844.93
386.72	770.04
386.92	875.36
387.11	908.13
387.31	821.53
387.50	812.17
387.70	877.70
387.89	950.26
388.09	840.25
388.28	861.32
388.48	866.00
388.67	800.46
388.86	837.91
389.06	868.34
389.25	985.37
389.45	891.74
389.64	849.61
389.84	936.21
390.03	936.21
390.22	924.51
390.42	929.19
390.61	1006.43
390.81	884.72
391.00	903.45
391.19	1041.54
391.39	961.96
391.58	915.15
391.78	1020.47
391.97	976.00
392.16	985.37
392.36	992.39
392.55	1029.84
392.75	1043.88
392.94	1027.50
393.13	1018.13
393.33	966.64
393.52	1100.05
393.71	1067.28
393.91	1078.99
394.10	1104.73
394.29	1132.82
394.49	1060.26
394.68	1067.28
394.88	1093.03
395.07	1149.20
395.26	1139.84
395.46	1107.07
395.65	1125.80
395.84	1139.84
396.04	1177.29
396.23	1179.63
396.42	1184.31
396.62	1247.51
396.81	1214.74
397.00	1191.33
397.19	1165.59
397.39	1177.29
397.58	1196.01
397.77	1207.72
397.97	1263.89
398.16	1238.14
398.35	1210.06
398.55	1177.29
398.74	1219.42
398.93	1266.23
399.12	1275.59
399.32	1249.85
399.51	1284.95
399.70	1327.08
399.90	1301.34
400.09	1308.36
400.28	1352.83
400.47	1263.89
400.67	1357.51
400.86	1275.59
401.05	1411.34
401.24	1303.68
401.44	1371.55
401.63	1427.73
401.82	1397.30
402.01	1359.85
402.21	1392.62
402.40	1404.32
402.59	1371.55
402.78	1401.98
402.97	1378.58
403.17	1511.99
403.36	1444.11
403.55	1572.84
403.74	1582.20
403.93	1535.39
404.13	1582.20
404.32	1507.30
404.51	1465.18
404.70	1593.90
404.89	1678.16
405.09	1699.23
405.28	1631.35
405.47	1666.46
405.66	1551.78
405.85	1685.19
406.05	1741.36
406.24	1692.21
406.43	1645.40
406.62	1685.19
406.81	1769.44
407.00	1694.55
407.20	1678.16
407.39	1706.25
407.58	1846.68
407.77	1755.40
407.96	1858.39
408.15	1928.60
408.34	1792.85
408.54	1816.26
408.73	1790.51
408.92	1827.96
409.11	1926.26
409.30	1891.15
409.49	1949.67
409.68	2008.18
409.87	1900.52
410.07	1944.99
410.26	1944.99
410.45	2003.50
410.64	1987.11
410.83	2040.95
411.02	2080.74
411.21	2080.74
411.40	2033.93
411.59	2099.46
411.78	2085.42
411.98	2101.80
412.17	2242.23
412.36	2188.40
412.55	2324.15
412.74	2317.13
412.93	2242.23
413.12	2249.25
413.31	2408.41
413.50	2275.00
413.69	2347.56
413.88	2459.90
414.07	2382.67
414.26	2518.42
414.45	2457.56
414.64	2401.39
414.83	2459.90
415.02	2558.21
415.22	2511.39
415.41	2640.12
415.60	2469.27
415.79	2539.48
415.98	2644.81
416.17	2546.50
416.36	2579.27
416.55	2672.89
416.74	2675.23
416.93	2642.46
417.12	2768.85
417.31	2750.13
417.50	2806.30
417.69	2850.77
417.88	2832.05
418.07	2820.35
418.26	2965.46
418.45	2928.01
418.64	3089.51
418.83	2928.01
419.02	2963.12
419.21	2909.29
419.39	2935.03
419.58	2972.48
419.77	3033.33
419.96	3052.06
420.15	3084.83
420.34	2970.14
420.53	2977.16
420.72	3192.49
420.91	3150.36
421.10	3215.90
421.29	3187.81
421.48	3145.68
421.67	3070.78
421.86	3052.06
422.05	3281.43
422.24	3262.71
422.43	3211.22
422.61	3335.26
422.80	3281.43
422.99	3243.98
423.18	3325.90
423.37	3302.50
423.56	3276.75
423.75	3421.86
423.94	3171.43
424.13	3038.02
424.32	3197.17
424.50	3358.67
424.69	3316.54
424.88	3431.23
425.07	3258.03
425.26	3309.52
425.45	3375.05
425.64	3342.28
425.83	3325.90
426.01	3269.73
426.20	3288.45
426.39	3314.20
426.58	3377.39
426.77	3353.99
426.96	3475.70
427.15	3349.31
427.33	3442.93
427.52	3410.16
427.71	3548.25
427.90	3578.68
428.09	3552.93
428.28	3506.12
428.46	3557.61
428.65	3686.34
428.84	3559.95
429.03	3564.64
429.22	3618.47
429.40	3564.64
429.59	3815.07
429.78	3543.57
429.97	3595.06
430.16	3658.26
430.34	3623.15
430.53	3775.28
430.72	3833.80
430.91	3747.20
431.10	3684.00
431.28	3754.22
431.47	3740.18
431.66	3889.97
431.85	3775.28
432.03	3950.82
432.22	4098.28
432.41	3946.14
432.60	3854.86
432.79	3878.27
432.97	3969.55
433.16	3974.23
433.35	3990.61
433.54	3985.93
433.72	3953.16
433.91	4095.94
434.10	4142.75
434.28	3985.93
434.47	4091.26
434.66	4304.25
434.85	4201.26
435.03	4124.02
435.22	4299.56
435.41	4327.65
435.59	4337.01
435.78	4351.06
435.97	4346.37
436.16	4297.22
436.34	4294.88
436.53	4287.86
436.72	4416.59
436.90	4334.67
437.09	4383.82
437.28	4177.86
437.46	4348.72
437.65	4404.89
437.84	4526.60
438.02	4353.40
438.21	4456.38
438.40	4404.89
438.58	4435.32
438.77	4657.67
438.96	4571.07
439.14	4716.18
439.33	4847.25
439.52	4765.33
439.70	4800.44
439.89	4887.04
440.08	4870.65
440.26	4793.42
440.45	4741.93
440.63	4936.19
440.82	5188.97
441.01	4849.59
441.19	5081.30
441.38	5100.03
441.57	5020.45
441.75	5242.80
441.94	5296.63
442.12	5305.99
442.31	5240.46
442.50	5205.35
442.68	5282.59
442.87	5259.18
443.05	5317.70
443.24	5500.26
443.43	5364.51
443.61	5343.44
443.80	5528.35
443.98	5273.23
444.17	5153.86
444.35	5350.46
444.54	5591.54
444.73	5439.40
444.91	5387.91
445.10	5481.53
445.28	5469.83
445.47	5434.72
445.65	5673.46
445.84	5605.58
446.02	5696.86
446.21	5577.50
446.39	5413.66
446.58	5568.13
446.77	5729.63
446.95	5348.12
447.14	5420.68
447.32	5598.56
447.51	5668.78
447.69	5621.97
447.88	5497.92
448.06	5640.69
448.25	5661.76
448.43	5731.97
448.62	5785.80
448.80	5694.52
448.99	5654.73
449.17	5715.59
449.36	5806.87
449.54	5781.12
449.73	5769.42
449.91	5940.28
450.10	5816.23
450.28	5933.26
450.46	6012.84
450.65	5834.96
450.83	5987.09
451.02	5811.55
451.20	6015.18
451.39	5834.96
451.57	6022.20
451.76	6010.50
451.94	6118.16
452.13	6239.87
452.31	6253.91
452.49	6052.63
452.68	6293.70
452.86	6141.57
453.05	6146.25
453.23	6218.80
453.42	6115.82
453.60	6195.40
453.78	6169.65
453.97	6071.35
454.15	6267.95
454.34	6209.44
454.52	6452.86
454.70	6253.91
454.89	6317.11
455.07	6354.55
455.26	6476.26
455.44	6544.14
455.62	6469.24
455.81	6363.92
455.99	6572.22
456.17	6705.63
456.36	6724.36
456.54	6731.38
456.73	6633.08
456.91	6906.92
457.09	6740.74
457.28	6787.55
457.46	6700.95
457.64	6862.45
457.83	6897.56
458.01	6761.81
458.19	7173.74
458.38	7016.93
458.56	7080.12
458.74	6869.47
458.93	6911.60
459.11	7061.40
459.29	6998.20
459.48	7000.54
459.66	6984.16
459.84	6981.82
460.03	7274.38
460.21	7159.70
460.39	7084.80
460.57	7157.36
460.76	7155.02
460.94	7288.43
461.12	7169.06
461.31	7201.83
461.49	7417.16
461.67	7248.64
461.85	7548.23
462.04	7398.43
462.22	7810.37
462.40	7510.78
462.59	7398.43
462.77	7499.08
462.95	7435.88
463.13	7562.27
463.32	7492.05
463.50	7784.62
463.68	7829.09
463.86	7754.19
464.05	7630.15
464.23	7681.64
464.41	7892.29
464.59	7470.99
464.78	7791.64
464.96	7822.07
465.14	7679.30
465.32	7733.13
465.50	7765.90
465.69	7913.35
465.87	7929.74
466.05	7826.75
466.23	7843.14
466.41	7955.48
466.60	8074.85
466.78	7875.90
466.96	7845.48
467.14	8079.53
467.32	7962.50
467.51	8152.09
467.69	7833.77
467.87	7962.50
468.05	8217.62
468.23	8051.44
468.41	7969.52
468.60	8112.30
468.78	8273.79
468.96	8154.43
469.14	8109.96
469.32	8428.27
469.50	8051.44
469.69	8517.21
469.87	8428.27
470.05	8493.80
470.23	8505.51
470.41	8465.72
470.59	8557.00
470.77	8580.40
470.95	8599.13
471.14	8704.45
471.32	8313.58
471.50	8711.47
471.68	8655.30
471.86	8849.57
472.04	8755.94
472.22	9032.13
472.40	8741.90
472.58	8926.80
472.77	9034.47
472.95	9200.65
473.13	9355.12
473.31	9057.87
473.49	9053.19
473.67	9114.05
473.85	9146.81
474.03	9287.25
474.21	9205.33
474.39	9352.78
474.57	9446.40
474.75	9589.17
474.93	9614.92
475.12	9654.71
475.30	9764.72
475.48	9776.42
475.66	9923.87
475.84	9886.42
476.02	9619.60
476.20	10061.96
476.38	10183.67
476.56	10256.23
476.74	10228.14
476.92	10150.90
477.10	10111.11
477.28	10403.68
477.46	10260.91
477.64	10485.60
477.82	10621.35
478.00	10757.10
478.18	10546.45
478.36	10654.12
478.54	10764.12
478.72	10920.94
478.90	11108.18
479.08	11286.06
479.26	11201.80
479.44	11276.70
479.62	11531.82
479.80	11372.66
479.98	11585.65
480.16	11761.19
480.34	11698.00
480.52	11700.34
480.70	11630.12
480.88	11850.13
481.06	11875.88
481.24	12051.42
481.41	12018.65
481.59	12208.23
481.77	12521.87
481.95	12468.03
482.13	12458.67
482.31	12367.39
482.49	12847.20
482.67	12695.07
482.85	13315.31
483.03	13099.98
483.21	13116.36
483.39	13310.63
483.57	13362.12
483.74	13357.44
483.92	13743.63
484.10	13547.02
484.28	13984.70
484.46	14047.90
484.64	14171.94
484.82	13743.63
485.00	14300.67
485.18	14335.78
485.35	14555.79
485.53	14551.11
485.71	14406.00
485.89	14827.29
486.07	14649.41
486.25	14787.50
486.43	14967.73
486.61	15241.57
486.78	15447.54
486.96	15314.13
487.14	15374.98
487.32	15400.72
487.50	15559.88
487.68	16044.37
487.85	16173.10
488.03	16042.03
488.21	16720.79
488.39	16542.91
488.57	16484.39
488.75	16650.57
488.92	16842.50
489.10	16849.52
489.28	17050.80
489.46	17444.01
489.64	17102.29
489.81	17425.29
489.99	17371.46
490.17	17682.75
490.35	17919.14
490.53	18015.10
490.70	18302.99
490.88	18167.24
491.06	18429.38
491.24	18017.44
491.41	18499.59
491.59	18553.43
491.77	18490.23
491.95	18733.65
492.13	18836.63
492.30	18853.02
492.48	19248.57
492.66	19147.92
492.84	18979.40
493.01	19389.00
493.19	19499.00
493.37	19571.56
493.54	19508.37
493.72	20070.09
493.90	19885.19
494.08	20114.56
494.25	20182.44
494.43	19999.88
494.61	20568.63
494.79	20329.89
494.96	20463.30
495.14	20767.57
495.32	20760.55
495.49	21053.12
495.67	21029.71
495.85	21399.52
496.02	21703.79
496.20	21563.36
496.38	21549.31
496.55	21638.25
496.73	21848.90
496.91	21954.22
497.09	22298.28
497.26	22384.88
497.44	21652.30
497.62	22466.80
497.79	22806.18
497.97	22387.22
498.14	22874.06
498.32	22867.03
498.50	22796.82
498.67	23215.77
498.85	23391.31
499.03	23267.27
499.20	23349.18
499.38	23566.85
499.56	23381.95
499.73	23910.91
499.91	23625.37
500.08	23779.84
500.26	23632.39
500.44	23847.72
500.61	24290.08
500.79	23936.66
500.97	24233.91
501.14	24694.99
501.32	24369.66
501.49	24372.00
501.67	24252.63
501.84	24676.27
502.02	24767.55
502.20	24683.29
502.37	25111.61
502.55	25046.07
502.72	25046.07
502.90	25090.54
503.07	25055.43
503.25	24936.07
503.43	25186.50
503.60	25413.54
503.78	25050.75
503.95	25598.44
504.13	25228.63
504.30	25708.44
504.48	25888.67
504.65	25678.02
504.83	26436.35
505.01	26242.09
505.18	26328.69
505.36	26658.70
505.53	26609.55
505.71	26012.71
505.88	26441.03
506.06	26394.22
506.23	26644.66
506.41	26405.92
506.58	27080.00
506.76	27033.19
506.93	26621.25
507.11	27051.91
507.28	27295.33
507.46	26969.99
507.63	27630.02
507.81	27473.21
507.98	27058.93
508.16	27199.37
508.33	27447.46
508.50	28006.85
508.68	27810.25
508.85	27910.89
509.03	27936.63
509.20	28079.41
509.38	28528.79
509.55	28308.78
509.73	28205.80
509.90	28390.70
510.08	28201.11
510.25	28357.93
510.42	28589.64
510.60	28746.46
510.77	28917.32
510.95	29003.92
511.12	28854.12
511.30	28971.15
511.47	28816.68
511.64	29036.69
511.82	29385.43
511.99	29347.98
512.17	29291.80
512.34	29408.83
512.51	29553.94
512.69	29792.68
512.86	29717.78
513.04	29872.26
513.21	29909.71
513.38	30174.19
513.56	30265.47
513.73	29680.33
513.90	30197.59
514.08	29944.81
514.25	30689.10
514.43	30469.09
514.60	30661.02
514.77	30600.16
514.95	30766.34
515.12	30541.65
515.29	30661.02
515.47	31115.08
515.64	31012.10
515.81	30621.23
515.99	30899.75
516.16	31578.51
516.33	30965.29
516.51	31321.05
516.68	31384.24
516.85	31360.84
517.03	31693.19
517.20	31651.06
517.37	31704.90
517.54	31800.86
517.72	31718.94
517.89	31484.89
518.06	31861.71
518.24	32020.87
518.41	32051.30
518.58	31840.65
518.75	31910.86
518.93	32119.17
519.10	32137.90
519.27	32339.18
519.45	32573.24
519.62	32210.45
519.79	32563.87
519.96	32697.28
520.14	32645.79
520.31	32601.32
520.48	32517.06
520.65	32905.59
520.83	33029.64
521.00	33331.57
521.17	33198.16
521.34	33085.81
521.52	33167.73
521.69	33425.19
521.86	33589.03
522.03	33263.69
522.20	33507.11
522.38	33638.18
522.55	33703.71
522.72	33652.22
522.89	33670.95
523.07	34209.27
523.24	34000.96
523.41	34101.61
523.58	33951.81
523.75	34644.61
523.92	33933.09
524.10	34101.61
524.27	34518.22
524.44	34326.30
524.61	34845.90
524.78	34511.20
524.96	34749.93
525.13	34705.46
525.30	35072.93
525.47	35070.59
525.64	35138.46
525.81	35398.26
525.98	35131.44
526.16	34759.30
526.33	35082.29
526.50	35208.68
526.67	35257.83
526.84	34998.03
527.01	35047.18
527.18	35391.24
527.36	34981.65
527.53	35292.94
527.70	35819.56
527.87	36079.36
528.04	35648.70
528.21	35697.85
528.38	35768.07
528.55	36294.69
528.72	35779.77
528.89	35859.35
529.07	35707.21
529.24	35936.59
529.41	36142.55
529.58	36275.96
529.75	36208.09
529.92	36116.81
530.09	36268.94
530.26	36495.97
530.43	36751.09
530.60	36067.66
530.77	36781.52
530.94	36624.70
531.11	36498.31
531.28	36512.36
531.46	36664.49
531.63	36905.57
531.80	36767.48
531.97	37411.12
532.14	36847.05
532.31	36840.03
532.48	37127.92
532.65	37551.56
532.82	36659.81
532.99	37165.37
533.16	37207.50
533.33	37123.24
533.50	37500.06
533.67	37249.63
533.84	37228.56
534.01	37717.73
534.18	37640.50
534.35	37762.20
534.52	37640.50
534.69	37787.95
534.86	37813.70
535.03	37832.42
535.20	37947.11
535.37	37846.46
535.54	38092.22
535.71	37848.80
535.88	38602.46
536.05	38370.74
536.22	38557.99
536.38	38342.66
536.55	38256.06
536.72	38323.93
536.89	38260.74
537.06	38457.34
537.23	38649.27
537.40	38171.80
537.57	38682.03
537.74	38625.86
537.91	38965.24
538.08	39337.38
538.25	38665.65
538.42	39023.75
538.59	39398.24
538.75	38419.89
538.92	38962.90
539.09	39042.48
539.26	39213.34
539.43	39000.35
539.60	39496.54
539.77	39580.80
539.94	39332.70
540.11	39203.97
540.28	39620.59
540.44	39353.77
540.61	39295.25
540.78	39634.63
540.95	39459.09
541.12	39321.00
541.29	39515.26
541.46	39646.33
541.62	39941.24
541.79	40023.16
541.96	39070.56
542.13	40098.06
542.30	39882.73
542.47	40126.14
542.63	40100.40
542.80	40596.59
542.97	40676.17
543.14	40512.33
543.31	40280.62
543.48	40107.42
543.64	40435.10
543.81	40711.28
543.98	40655.11
544.15	40306.37
544.32	40535.74
544.48	41200.45
544.65	40917.25
544.82	40914.90
544.99	40795.54
545.16	41247.26
545.32	40533.40
545.49	41256.62
545.66	41542.17
545.83	41090.44
546.00	41134.92
546.16	41118.53
546.33	40950.01
546.50	41081.08
546.67	41352.58
546.83	40758.09
547.00	41301.09
547.17	41563.23
547.34	40987.46
547.50	41801.97
547.67	41560.89
547.84	41350.24
548.00	41972.83
548.17	41979.85
548.34	41914.31
548.51	41940.06
548.67	41811.33
548.84	42171.77
549.01	41518.76
549.18	42005.59
549.34	41944.74
549.51	42155.39
549.68	41872.18
549.84	41963.46
550.01	42220.92
550.18	42026.66
550.34	41713.03
550.51	42567.32
550.68	42249.01
550.84	41516.42
551.01	42569.66
551.18	42415.19
551.34	42398.80
551.51	42260.71
551.68	42499.45
551.84	42508.81
552.01	42464.34
552.18	42321.57
552.34	42190.50
552.51	42939.47
552.68	42312.20
552.84	42829.46
553.01	42745.20
553.18	42784.99
553.34	42656.26
553.51	42576.69
553.67	42663.28
553.84	42740.52
554.01	43033.09
554.17	42784.99
554.34	43051.81
554.51	42588.39
554.67	42948.83
554.84	43196.93
555.00	42766.27
555.17	43002.66
555.33	43449.70
555.50	43054.15
555.67	42958.19
555.83	43470.77
556.00	43395.87
556.16	43658.01
556.33	43262.46
556.50	43086.92
556.66	43058.84
556.83	43077.56
556.99	43395.87
557.16	43470.77
557.32	44332.09
557.49	43583.12
557.65	43601.84
557.82	43641.63
557.98	43604.18
558.15	43648.65
558.32	44051.22
558.48	43580.78
558.65	43686.10
558.81	43377.15
558.98	43714.19
559.14	44182.29
559.31	43899.09
559.47	44006.75
559.64	44100.37
559.80	44135.48
559.97	44491.24
560.13	43658.01
560.30	44037.18
560.46	43856.96
560.63	44025.48
560.79	44208.04
560.96	44327.41
561.12	44065.27
561.29	44612.95
561.45	44168.25
561.61	44259.53
561.78	44149.53
561.94	43880.36
562.11	44217.40
562.27	44495.92
562.44	44313.36
562.60	44456.14
562.77	44605.93
562.93	44002.07
563.10	44715.93
563.26	44205.70
563.42	44432.73
563.59	44341.45
563.75	44322.72
563.92	44734.66
564.08	44428.05
564.24	44304.00
564.41	44123.78
564.57	44823.60
564.74	44737.00
564.90	44615.29
565.07	44779.13
565.23	44624.65
565.39	44549.76
565.56	44683.17
565.72	44526.35
565.88	44327.41
566.05	44519.33
566.21	44879.77
566.38	44737.00
566.54	45048.29
566.70	44666.78
566.87	44949.99
567.03	44722.96
567.19	44959.35
567.36	45301.07
567.52	44889.13
567.68	45155.96
567.85	45368.94
568.01	45170.00
568.17	44645.72
568.34	45006.16
568.50	44957.01
568.66	44542.74
568.83	45237.87
568.99	45406.39
569.15	44844.66
569.32	44797.85
569.48	44875.09
569.64	45567.89
569.81	45352.56
569.97	45228.51
570.13	44975.73
570.30	44669.12
570.46	45354.90
570.62	45900.25
570.78	45256.60
570.95	44954.67
571.11	45375.97
571.27	45275.32
571.43	45235.53
571.60	45275.32
571.76	44989.78
571.92	44910.20
572.09	45287.03
572.25	45354.90
572.41	44980.42
572.57	45516.40
572.74	45507.04
572.90	45373.63
573.06	45713.00
573.22	45748.11
573.38	45867.48
573.55	45272.98
573.71	45645.13
573.87	45755.13
574.03	45366.60
574.20	45588.95
574.36	45404.05
574.52	45382.99
574.68	45249.58
574.84	45684.92
575.01	45839.39
575.17	45656.83
575.33	45605.34
575.49	44968.71
575.65	45944.72
575.82	45645.13
575.98	45572.57
576.14	45553.85
576.30	45586.61
576.46	45979.82
576.62	45359.58
576.79	45495.33
576.95	45249.58
577.11	44954.67
577.27	45598.32
577.43	45713.00
577.59	46021.95
577.75	45687.26
577.92	45343.20
578.08	45336.18
578.24	45872.16
578.40	45759.81
578.56	45787.90
578.72	45588.95
578.88	45954.08
579.04	45727.05
579.21	45546.82
579.37	45532.78
579.53	45827.69
579.69	45331.50
579.85	45830.03
580.01	45455.54
580.17	45670.87
580.33	45347.88
580.49	45549.17
580.65	45694.28
580.82	46162.39
580.98	45607.68
581.14	45638.11
581.30	45858.12
581.46	45675.55
581.62	45837.05
581.78	45811.31
581.94	45429.80
582.10	45872.16
582.26	45614.70
582.42	45792.58
582.58	45715.34
582.74	45766.84
582.90	45846.41
583.06	46192.81
583.22	45521.08
583.38	45993.87
583.54	45488.31
583.70	45691.94
583.86	46204.52
584.02	45764.49
584.18	45986.85
584.34	46050.04
584.50	46225.58
584.66	46258.35
584.82	45949.40
584.98	46216.22
585.14	45815.99
585.30	45626.40
585.46	46129.62
585.62	46375.37
585.78	45729.39
585.94	45666.19
586.10	46073.45
586.26	45677.90
586.42	45415.76
586.58	45635.77
586.74	45591.30
586.90	45511.72
587.06	45872.16
587.22	46164.73
587.38	45750.45
587.54	46099.19
587.70	46124.94
587.86	46328.56
588.02	45750.45
588.18	45979.82
588.34	45851.09
588.49	46225.58
588.65	45621.72
588.81	46321.54
588.97	46167.07
589.13	46160.05
589.29	46096.85
589.45	46232.60
589.61	46337.93
589.77	46447.93
589.93	46380.06
590.08	46031.32
590.24	46387.08
590.40	46564.96
590.56	46745.18
590.72	46422.19
590.88	46239.62
591.04	46319.20
591.20	46344.95
591.35	46422.19
591.51	46614.11
591.67	46515.81
591.83	46305.16
591.99	46185.79
592.15	46363.67
592.31	46696.03
592.46	45907.27
592.62	46696.03
592.78	46443.25
592.94	46789.65
593.10	46684.33
593.26	46611.77
593.41	46646.88
593.57	46691.35
593.73	46777.95
593.89	46726.46
594.05	46803.69
594.20	46628.15
594.36	46827.10
594.52	46794.33
594.68	46698.37
594.84	46567.30
594.99	47068.17
595.15	46843.48
595.31	46813.05
595.47	46665.60
595.62	46649.22
595.78	46635.17
595.94	46930.08
596.10	46733.48
596.25	46995.62
596.41	46735.82
596.57	46464.32
596.73	46604.75
596.88	46546.23
597.04	46834.12
597.20	47002.64
597.36	46539.21
597.51	46548.57
597.67	46604.75
597.83	46855.18
597.99	47009.66
598.14	46508.79
598.30	46864.55
598.46	46497.08
598.61	47098.60
598.77	46930.08
598.93	46904.34
599.09	46890.29
599.24	46887.95
599.40	46642.20
599.56	46777.95
599.71	47154.77
599.87	47449.68
600.03	47297.55
600.18	47070.51
600.34	46602.41
600.50	46571.98
600.65	46890.29
600.81	47093.92
600.97	46880.93
601.12	46904.34
601.28	46972.21
601.44	46616.45
601.59	46820.08
601.75	46600.07
601.91	47154.77
602.06	46607.09
602.22	46869.23
602.37	46663.26
602.53	47019.02
602.69	46642.20
602.84	46377.72
603.00	46763.90
603.16	46887.95
603.31	46848.16
603.47	46841.14
603.62	46698.37
603.78	47068.17
603.94	46607.09
604.09	46948.81
604.25	46906.68
604.40	46609.43
604.56	46665.60
604.71	46887.95
604.87	46738.16
605.03	46609.43
605.18	46752.20
605.34	46674.96
605.49	46471.34
605.65	46890.29
605.80	46241.96
605.96	46703.05
606.12	46646.88
606.27	46768.58
606.43	46600.07
606.58	47311.59
606.74	46583.68
606.89	46742.84
607.05	46731.14
607.20	46815.40
607.36	46834.12
607.51	47030.72
607.67	46773.27
607.82	46382.40
607.98	46291.12
608.13	46782.63
608.29	46405.80
608.44	46731.14
608.60	46663.26
608.75	46813.05
608.91	46777.95
609.06	45993.87
609.22	46873.91
609.37	46309.84
609.53	47082.22
609.68	46696.03
609.84	46621.13
609.99	46342.61
610.15	46461.97
610.30	46628.15
610.46	46284.09
610.61	46061.74
610.76	46431.55
610.92	46160.05
611.07	46171.75
611.23	46153.02
611.38	46164.73
611.54	46305.16
611.69	46848.16
611.84	46429.21
612.00	46490.06
612.15	46080.47
612.31	46628.15
612.46	46082.81
612.62	46464.32
612.77	46377.72
612.92	46440.91
613.08	46071.10
613.23	46471.34
613.39	46068.76
613.54	46096.85
613.69	46707.73
613.85	46356.65
614.00	45773.86
614.15	46122.60
614.31	46075.79
614.46	45963.44
614.62	45755.13
614.77	45834.71
614.92	45855.78
615.08	46092.17
615.23	46031.32
615.38	46021.95
615.54	46087.49
615.69	46043.02
615.84	45698.96
616.00	45881.52
616.15	46363.67
616.30	46092.17
616.46	46115.58
616.61	45773.86
616.76	45921.31
616.92	45869.82
617.07	46476.02
617.22	46157.70
617.37	45698.96
617.53	45565.55
617.68	45680.24
617.83	45567.89
617.99	46590.70
618.14	45631.08
618.29	46021.95
618.45	45710.66
618.60	45820.67
618.75	45736.41
618.90	45380.65
619.06	46014.93
619.21	45731.73
619.36	45801.94
619.51	45191.06
619.67	45263.62
619.82	45525.76
619.97	45387.67
620.12	45640.45
620.28	45364.26
620.43	45764.49
620.58	45640.45
620.73	45319.79
620.89	45221.49
621.04	45729.39
621.19	45078.72
621.34	45455.54
621.49	45027.23
621.65	45109.14
621.80	45427.46
621.95	45174.68
622.10	45139.57
622.25	45083.40
622.41	45317.45
622.56	44926.58
622.71	45378.31
622.86	45485.97
623.01	45624.06
623.16	45331.50
623.32	45144.25
623.47	44985.10
623.62	45191.06
623.77	45013.18
623.92	45090.42
624.07	45315.11
624.23	44989.78
624.38	44912.54
624.53	45036.59
624.68	44493.58
624.83	44765.09
624.98	45020.20
625.13	44638.70
625.29	44575.50
625.44	44795.51
625.59	44917.22
625.74	45074.04
625.89	44552.10
626.04	44879.77
626.19	44201.02
626.34	44395.28
626.49	43990.37
626.65	44474.86
626.80	44322.72
626.95	44186.97
627.10	44027.82
627.25	44357.83
627.40	44381.24
627.55	44535.71
627.70	44140.16
627.85	44325.07
628.00	44456.14
628.15	44381.24
628.30	44172.93
628.45	43758.66
628.60	43667.37
628.76	44091.01
628.91	43814.83
629.06	43461.41
629.21	43962.28
629.36	43992.71
629.51	44088.67
629.66	44154.21
629.81	44025.48
629.96	43971.64
630.11	44287.62
630.26	44126.12
630.41	43522.26
630.56	43772.70
630.71	43910.79
630.86	43978.67
631.01	43302.25
631.16	43697.80
631.31	43826.53
631.46	43276.51
631.61	43878.02
631.76	43973.98
631.91	43878.02
632.06	43880.36
632.21	44030.16
632.36	43978.67
632.51	43182.88
632.66	44231.44
632.81	43557.37
632.96	43550.35
633.10	43428.64
633.25	43681.42
633.40	43613.54
633.55	43564.39
633.70	43145.44
633.85	43721.21
634.00	43302.25
634.15	43208.63
634.30	43423.96
634.45	43377.15
634.60	43395.87
634.75	43309.27
634.90	43409.92
635.05	43246.08
635.19	43304.59
635.34	43330.34
635.49	43363.11
635.64	43023.73
635.79	43367.79
635.94	43138.41
636.09	43498.86
636.24	42876.27
636.39	42923.08
636.53	42960.53
636.68	42543.92
636.83	42651.58
636.98	42602.43
637.13	42700.73
637.28	42616.47
637.43	43014.37
637.57	42925.42
637.72	42265.39
637.87	42572.00
638.02	42866.91
638.17	42691.37
638.32	42462.00
638.46	42431.57
638.61	41956.44
638.76	42340.29
638.91	42298.16
639.06	42438.59
639.20	42061.77
639.35	42192.84
639.50	42073.47
639.65	42562.64
639.80	42122.62
639.94	42464.34
640.09	42476.04
640.24	42396.46
640.39	42005.59
640.54	41914.31
640.68	42288.80
640.83	42443.27
640.98	41921.34
641.13	41780.90
641.27	42438.59
641.42	42263.05
641.57	42225.60
641.72	42155.39
641.86	41921.34
642.01	41904.95
642.16	42017.30
642.31	41794.95
642.45	41876.86
642.60	41900.27
642.75	42080.49
642.90	41832.39
643.04	42131.98
643.19	41806.65
643.34	41387.69
643.48	41420.46
643.63	41844.10
643.78	41514.08
643.93	41776.22
644.07	41865.16
644.22	41593.66
644.37	41621.75
644.51	41839.42
644.66	41715.37
644.81	41453.23
644.95	41708.35
645.10	41478.97
645.25	41497.70
645.39	41471.95
645.54	41523.44
645.69	41642.81
645.83	41057.68
645.98	41495.36
646.13	40919.59
646.27	41099.81
646.42	40725.32
646.57	41514.08
646.71	41237.90
646.86	41612.38
647.00	41322.16
647.15	41268.33
647.30	41326.84
647.44	41265.99
647.59	41015.55
647.74	40605.95
647.88	41350.24
648.03	41675.58
648.17	41380.67
648.32	41261.30
648.47	41123.21
648.61	40722.98
648.76	41207.47
648.90	40744.05
649.05	41088.10
649.20	40701.92
649.34	40797.88
649.49	41242.58
649.63	41069.38
649.78	40800.22
649.92	41350.24
650.07	40760.43
650.21	40783.83
650.36	41198.11
650.51	41134.92
650.65	41336.20
650.80	40961.72
650.94	40971.08
651.09	40652.76
651.23	40353.18
651.38	40432.75
651.52	40112.10
651.67	40594.25
651.81	40238.49
651.96	40407.01
652.10	40371.90
652.25	39840.60
652.39	40285.30
652.54	40346.15
652.68	40156.57
652.83	40477.22
652.97	40559.14
653.12	40381.26
653.26	40140.19
653.41	40250.19
653.55	40423.39
653.70	40041.88
653.84	40552.12
653.99	40371.90
654.13	40383.60
654.27	39840.60
654.42	39564.42
654.56	39936.56
654.71	40261.90
654.85	40514.67
655.00	40285.30
655.14	39758.68
655.29	40133.17
655.43	39817.19
655.57	40048.91
655.72	39541.01
655.86	39845.28
656.01	39494.20
656.15	39871.03
656.30	39634.63
656.44	39667.40
656.58	39882.73
656.73	39613.57
656.87	39686.12
657.01	39735.27
657.16	39468.45
657.30	39248.44
657.45	39159.50
657.59	39194.61
657.73	38953.54
657.88	39419.30
658.02	39405.26
658.16	39241.42
658.31	39636.97
658.45	39274.19
658.60	39246.10
658.74	38836.51
658.88	39438.03
659.03	38932.47
659.17	39318.66
659.31	38869.28
659.46	38958.22
659.60	39105.67
659.74	38742.89
659.89	38438.62
660.03	38288.82
660.17	38895.02
660.32	38871.62
660.46	38600.12
660.60	38340.32
660.74	38597.77
660.89	38288.82
661.03	38082.86
661.17	38185.84
661.32	38225.63
661.46	38415.21
661.60	38127.33
661.74	38251.38
661.89	38066.47
662.03	38504.15
662.17	38157.75
662.31	37809.01
662.46	38567.35
662.60	37771.57
662.74	37450.91
662.88	37532.83
663.03	37509.43
663.17	37471.98
663.31	37123.24
663.45	37640.50
663.60	37745.82
663.74	37752.84
663.88	37713.05
664.02	37214.52
664.17	37830.08
664.31	37310.48
664.45	37125.58
664.59	37354.95
664.73	37345.59
664.88	37242.60
665.02	36872.80
665.16	36898.55
665.30	37062.38
665.44	37017.91
665.59	36554.49
665.73	36505.34
665.87	36477.25
666.01	36921.95
666.15	36891.52
666.29	36168.30
666.44	36547.47
666.58	36460.87
666.72	36318.09
666.86	36446.82
667.00	36175.32
667.14	36282.98
667.28	36217.45
667.43	35931.90
667.57	36327.45
667.71	36156.60
667.85	36285.33
667.99	36194.04
668.13	35606.57
668.27	35934.24
668.41	35732.96
668.56	35154.85
668.70	35271.87
668.84	35285.92
668.98	35407.62
669.12	35700.19
669.26	35496.56
669.40	35133.78
669.54	35054.20
669.68	35342.09
669.82	35344.43
669.96	34916.11
670.10	34813.13
670.25	35021.44
670.39	34981.65
670.53	34862.28
670.67	34600.14
670.81	34969.94
670.95	34836.53
671.09	34478.43
671.23	34202.25
671.37	34621.20
671.51	34321.62
671.65	34494.82
671.79	34178.84
671.93	34373.11
672.07	34373.11
672.21	34223.31
672.35	33888.62
672.49	33832.44
672.63	33865.21
672.77	33949.47
672.91	33380.72
673.05	33734.14
673.19	33242.63
673.33	33308.16
673.47	33123.26
673.61	33366.68
673.75	32828.35
673.89	33294.12
674.03	32931.34
674.17	32716.01
674.31	32910.27
674.45	32720.69
674.59	32947.72
674.73	32463.23
674.87	32727.71
675.01	32554.51
675.15	32243.22
675.29	32084.06
675.43	32236.20
675.56	32245.56
675.70	32343.86
675.84	31681.49
675.98	31164.23
676.12	32058.32
676.26	31903.84
676.40	32098.11
676.54	31569.15
676.68	32016.19
676.82	30775.70
676.96	31307.01
677.10	31512.97
677.23	30796.77
677.37	31297.64
677.51	31414.67
677.65	30862.30
677.79	30930.18
677.93	31573.83
678.07	30951.24
678.21	30235.04
678.34	30419.94
678.48	30246.74
678.62	30171.85
678.76	30323.98
678.90	30082.91
679.04	30176.53
679.18	30110.99
679.31	29867.58
679.45	29465.00
679.59	29626.50
679.73	29593.73
679.87	29493.09
680.00	29528.20
680.14	29467.34
680.28	28844.76
680.42	29111.58
680.56	29291.80
680.70	28884.55
680.83	28589.64
680.97	28980.51
681.11	28657.52
681.25	28781.57
681.39	28423.47
681.52	28744.12
681.66	27999.83
681.80	27784.50
681.94	27599.60
682.07	27615.98
682.21	27725.99
682.35	27892.16
682.49	27454.48
682.62	27758.75
682.76	27442.78
682.90	27136.17
683.04	27288.31
683.17	27346.82
683.31	27278.94
683.45	27094.04
683.59	26487.84
683.72	26850.63
683.86	26904.46
684.00	26785.09
684.13	26513.59
684.27	26359.11
684.41	26532.31
684.55	26328.69
684.68	26293.58
684.82	25879.30
684.96	26001.01
685.09	25790.36
685.23	26190.59
685.37	26005.69
685.50	26181.23
685.64	25773.98
685.78	25844.20
685.91	25898.03
686.05	25200.55
686.19	24868.19
686.32	24933.73
686.46	24364.98
686.60	24491.37
686.73	24919.68
686.87	24430.51
687.01	24727.76
687.14	24781.59
687.28	24512.43
687.42	24154.33
687.55	24444.56
687.69	24159.01
687.82	24336.89
687.96	23962.40
688.10	23873.46
688.23	23896.87
688.37	23868.78
688.50	23943.68
688.64	23688.56
688.78	23623.03
688.91	23304.71
689.05	23166.62
689.18	23091.73
689.32	22412.97
689.46	23007.47
689.59	23126.83
689.73	22998.10
689.86	22946.61
690.00	22764.05
690.13	22609.58
690.27	22471.48
690.41	22412.97
690.54	22459.78
690.68	22375.52
690.81	22101.68
690.95	22111.04
691.08	21818.47
691.22	21935.50
691.35	21659.32
691.49	21933.16
691.62	21617.19
691.76	21125.68
691.89	21366.75
692.03	21174.83
692.16	20879.92
692.30	21205.25
692.43	20800.34
692.57	20863.54
692.70	20893.96
692.84	20711.40
692.97	20154.35
693.11	20552.24
693.24	20262.02
693.38	20498.41
693.51	20196.48
693.65	20056.05
693.78	20107.54
693.92	20042.01
694.05	19711.99
694.19	19857.10
694.32	19625.39
694.45	20013.92
694.59	19695.61
694.72	19878.17
694.86	19662.84
694.99	19391.34
695.13	19412.40
695.26	19138.56
695.39	19028.56
695.53	18904.51
695.66	19150.26
695.80	18834.29
695.93	18885.78
696.07	18845.99
696.20	18405.97
696.33	18541.72
696.47	18043.19
696.60	18314.69
696.73	18183.62
696.87	18249.16
697.00	18272.56
697.14	17940.21
697.27	17844.24
697.40	17774.03
697.54	17680.41
697.67	17554.02
697.80	17708.49
697.94	17497.84
698.07	17731.90
698.21	17469.76
698.34	17516.57
698.47	17324.65
698.61	16933.78
698.74	16769.94
698.87	16816.75
699.01	16652.91
699.14	16732.49
699.27	17083.57
699.40	16549.93
699.54	16524.18
699.67	16224.59
699.80	16257.36
699.94	16336.94
700.07	16147.36
700.20	16079.48
700.34	16013.95
700.47	16175.44
700.60	16255.02
700.73	16037.35
700.87	16020.97
701.00	15955.43
701.13	15702.65
701.26	15625.42
701.40	15875.85
701.53	15379.66
701.66	15534.14
701.79	15272.00
701.93	14995.81
702.06	14958.36
702.19	14864.74
702.32	15019.22
702.46	15267.31
702.59	14918.57
702.72	15157.31
702.85	14972.41
702.99	14902.19
703.12	14743.03
703.25	14431.74
703.38	14459.83
703.51	14380.25
703.65	14380.25
703.78	14085.34
703.91	14214.07
704.04	13926.19
704.17	13827.88
704.31	13914.48
704.44	14001.08
704.57	13628.94
704.70	13516.59
704.83	13586.81
704.96	13729.58
705.10	13589.15
705.23	13444.04
>>>>>End Processed Spectral Data<<<<<
