SpectraSuite Data File
++++++++++++++++++++++++++++++++++++
Date: Fri Oct 25 10:44:13 EDT 2013
User: price-jones
Dark Spectrum Present: No
Reference Spectrum Present: No
Number of Sampled Component Spectra: 1
Spectrometers: USB2+H05261
Integration Time (usec): 100000 (USB2+H05261)
Spectra Averaged: 1 (USB2+H05261)
Boxcar Smoothing: 0 (USB2+H05261)
Correct for Electrical Dark: No (USB2+H05261)
Strobe/Lamp Enabled: No (USB2+H05261)
Correct for Detector Non-linearity: No (USB2+H05261)
Correct for Stray Light: No (USB2+H05261)
Number of Pixels in Processed Spectrum: 2048
>>>>>Begin Processed Spectral Data<<<<<
365.73	168.52
365.92	168.52
366.12	168.52
366.32	7.02
366.52	25.75
366.72	67.88
366.91	0.00
367.11	74.90
367.31	4.68
367.51	65.54
367.70	7.02
367.90	23.41
368.10	0.00
368.30	0.00
368.49	25.75
368.69	21.06
368.89	0.00
369.09	39.79
369.28	95.96
369.48	0.00
369.68	30.43
369.87	138.09
370.07	44.47
370.27	100.64
370.47	191.92
370.66	383.85
370.86	421.30
371.06	521.94
371.25	451.72
371.45	423.64
371.65	472.79
371.84	404.91
372.04	458.74
372.24	493.85
372.44	503.22
372.63	514.92
372.83	482.15
373.03	594.50
373.22	533.64
373.42	496.19
373.62	580.45
373.81	559.39
374.01	484.49
374.21	528.96
374.40	437.68
374.60	550.03
374.79	589.82
374.99	608.54
375.19	543.00
375.38	573.43
375.58	667.05
375.78	641.31
375.97	594.50
376.17	615.56
376.37	608.54
376.56	617.90
376.76	594.50
376.95	671.73
377.15	645.99
377.35	582.79
377.54	692.80
377.74	615.56
377.93	631.94
378.13	587.47
378.33	711.52
378.52	697.48
378.72	678.76
378.91	638.97
379.11	662.37
379.31	603.86
379.50	653.01
379.70	699.82
379.89	718.54
380.09	634.29
380.28	716.20
380.48	624.92
380.68	650.67
380.87	723.23
381.07	706.84
381.26	791.10
381.46	716.20
381.65	718.54
381.85	723.23
382.04	723.23
382.24	758.33
382.43	732.59
382.63	718.54
382.83	755.99
383.02	791.10
383.22	781.74
383.41	758.33
383.61	840.25
383.80	777.06
384.00	739.61
384.19	737.27
384.39	800.46
384.58	856.64
384.78	837.91
384.97	800.46
385.17	812.17
385.36	826.21
385.56	727.91
385.75	713.86
385.95	912.81
386.14	866.00
386.34	744.29
386.53	788.76
386.72	875.36
386.92	823.87
387.11	851.96
387.31	856.64
387.50	868.34
387.70	856.64
387.89	748.97
388.09	912.81
388.28	929.19
388.48	903.45
388.67	896.43
388.86	903.45
389.06	856.64
389.25	1034.52
389.45	945.58
389.64	1039.20
389.84	978.34
390.03	884.72
390.22	987.71
390.42	1006.43
390.61	966.64
390.81	1022.81
391.00	1060.26
391.19	1036.86
391.39	1078.99
391.58	1076.65
391.78	1011.11
391.97	1027.50
392.16	905.79
392.36	1046.22
392.55	1029.84
392.75	1039.20
392.94	891.74
393.13	1001.75
393.33	1013.45
393.52	910.47
393.71	1107.07
393.91	1055.58
394.10	1156.22
394.29	1086.01
394.49	1191.33
394.68	1193.67
394.88	1181.97
395.07	1217.08
395.26	1254.53
395.46	1165.59
395.65	1181.97
395.84	1214.74
396.04	1163.25
396.23	1181.97
396.42	1186.65
396.62	1214.74
396.81	1198.35
397.00	1191.33
397.19	1191.33
397.39	1324.74
397.58	1357.51
397.77	1291.98
397.97	1301.34
398.16	1397.30
398.35	1423.05
398.55	1376.24
398.74	1425.39
398.93	1533.05
399.12	1486.24
399.32	1394.96
399.51	1528.37
399.70	1500.28
399.90	1596.25
400.09	1530.71
400.28	1661.78
400.47	1621.99
400.67	1668.80
400.86	1706.25
401.05	1687.53
401.24	1577.52
401.44	1753.06
401.63	1724.97
401.82	1708.59
402.01	1621.99
402.21	1694.55
402.40	1692.21
402.59	1743.70
402.78	1652.42
402.97	1781.15
403.17	1739.02
403.36	1802.21
403.55	1806.89
403.74	1834.98
403.93	1844.34
404.13	1877.11
404.32	1785.83
404.51	1809.23
404.70	1867.75
404.89	1839.66
405.09	2001.16
405.28	1905.20
405.47	1832.64
405.66	2017.54
405.85	1973.07
406.05	1912.22
406.24	1898.17
406.43	2064.35
406.62	2022.22
406.81	2104.14
407.00	2052.65
407.20	2038.61
407.39	2047.97
407.58	2193.08
407.77	2139.25
407.96	2062.01
408.15	2275.00
408.34	2270.32
408.54	2204.78
408.73	2265.64
408.92	2183.72
409.11	2272.66
409.30	2270.32
409.49	2202.44
409.68	2193.08
409.87	2282.02
410.07	2370.96
410.26	2289.04
410.45	2373.30
410.64	2413.09
410.83	2476.29
411.02	2450.54
411.21	2551.18
411.40	2466.92
411.59	2635.44
411.78	2539.48
411.98	2541.82
412.17	2672.89
412.36	2698.64
412.55	2668.21
412.74	2710.34
412.93	2679.91
413.12	2717.36
413.31	2747.79
413.50	2787.58
413.69	2876.52
413.88	2836.73
414.07	2806.30
414.26	2850.77
414.45	2862.48
414.64	2944.39
414.83	2946.73
415.02	3084.83
415.22	3075.46
415.41	3103.55
415.60	3070.78
415.79	3007.59
415.98	3236.96
416.17	3304.84
416.36	3124.62
416.55	3157.38
416.74	3141.00
416.93	3225.26
417.12	3251.00
417.31	3204.19
417.50	3335.26
417.69	3361.01
417.88	3456.97
418.07	3447.61
418.26	3222.92
418.45	3405.48
418.64	3513.14
418.83	3524.85
419.02	3492.08
419.21	3632.51
419.39	3583.36
419.58	3559.95
419.77	3574.00
419.96	3513.14
420.15	3581.02
420.34	3520.17
420.53	3707.41
420.72	3744.86
420.91	3691.02
421.10	3824.44
421.29	3882.95
421.48	3770.60
421.67	3866.56
421.86	3616.13
422.05	3723.79
422.24	3674.64
422.43	3761.24
422.61	4021.04
422.80	3758.90
422.99	3941.46
423.18	3833.80
423.37	3967.21
423.56	4039.76
423.75	4004.66
423.94	3805.71
424.13	3522.51
424.32	3873.59
424.50	3918.06
424.69	3981.25
424.88	4060.83
425.07	3826.78
425.26	3878.27
425.45	3892.31
425.64	3936.78
425.83	4091.26
426.01	4051.47
426.20	4023.38
426.39	3887.63
426.58	3957.85
426.77	3988.27
426.96	3847.84
427.15	4091.26
427.33	3948.48
427.52	4007.00
427.71	4170.83
427.90	4095.94
428.09	4014.02
428.28	3988.27
428.46	4222.33
428.65	4241.05
428.84	4128.70
429.03	4360.42
429.22	4098.28
429.40	4095.94
429.59	4196.58
429.78	3925.08
429.97	3939.12
430.16	4002.32
430.34	4177.86
430.53	4142.75
430.72	4203.60
430.91	4203.60
431.10	4189.56
431.28	4430.63
431.47	4554.68
431.66	4627.24
431.85	4493.83
432.03	4402.55
432.22	4554.68
432.41	4517.23
432.60	4603.83
432.79	4645.96
432.97	4753.63
433.16	4610.86
433.35	4465.74
433.54	4723.20
433.72	4535.96
433.91	4667.03
434.10	4615.54
434.28	4575.75
434.47	4903.42
434.66	4954.91
434.85	4903.42
435.03	4910.44
435.22	4868.31
435.41	4964.28
435.59	4924.49
435.78	5022.79
435.97	4975.98
436.16	5123.43
436.34	5083.64
436.53	5240.46
436.72	5048.54
436.90	5013.43
437.09	5062.58
437.28	5093.01
437.46	5289.61
437.65	5095.35
437.84	5132.79
438.02	5146.84
438.21	5137.48
438.40	5139.82
438.58	5228.76
438.77	5315.36
438.96	5373.87
439.14	5558.77
439.33	5526.00
439.52	5607.92
439.70	5493.24
439.89	5607.92
440.08	5820.91
440.26	5591.54
440.45	5603.24
440.63	5774.10
440.82	6001.13
441.01	6012.84
441.19	5844.32
441.38	5963.68
441.57	6183.70
441.75	6127.52
441.94	6274.98
442.12	6312.42
442.31	6293.70
442.50	6270.30
442.68	6279.66
442.87	6260.93
443.05	6115.82
443.24	6356.90
443.43	6373.28
443.61	6382.64
443.80	6567.54
443.98	6230.51
444.17	6260.93
444.35	6506.69
444.54	6544.14
444.73	6392.00
444.91	6614.35
445.10	6436.47
445.28	6354.55
445.47	6303.06
445.65	6312.42
445.84	6450.52
446.02	6441.15
446.21	6534.78
446.39	6544.14
446.58	6480.94
446.77	6562.86
446.95	6565.20
447.14	6679.89
447.32	6647.12
447.51	6459.88
447.69	6602.65
447.88	6740.74
448.06	6616.69
448.25	6658.82
448.43	6801.60
448.62	6560.52
448.80	6682.23
448.99	6857.77
449.17	6857.77
449.36	6480.94
449.54	6850.75
449.73	7000.54
449.91	6974.80
450.10	7045.01
450.28	7227.57
450.46	7056.72
450.65	7234.60
450.83	7295.45
451.02	7222.89
451.20	7201.83
451.39	7229.91
451.57	7030.97
451.76	7243.96
451.94	7229.91
452.13	7150.34
452.31	7138.63
452.49	7045.01
452.68	7166.72
452.86	7145.66
453.05	7213.53
453.23	7227.57
453.42	7131.61
453.60	7309.49
453.78	7534.18
453.97	7426.52
454.15	7494.40
454.34	7281.41
454.52	7485.03
454.70	7426.52
454.89	7435.88
455.07	7524.82
455.26	7723.77
455.44	7712.07
455.62	7482.69
455.81	7822.07
455.99	7723.77
456.17	7822.07
456.36	7679.30
456.54	7775.26
456.73	7829.09
456.91	8203.58
457.09	8063.15
457.28	8142.72
457.46	7978.89
457.64	8086.55
457.83	8100.59
458.01	7946.12
458.19	8313.58
458.38	8056.12
458.56	8142.72
458.74	8255.07
458.93	8102.93
459.11	8210.60
459.29	8170.81
459.48	8278.47
459.66	8248.05
459.84	8297.20
460.03	8564.02
460.21	8264.43
460.39	8107.62
460.57	8386.14
460.76	8566.36
460.94	8540.61
461.12	8456.36
461.31	8496.14
461.49	8519.55
461.67	8472.74
461.85	8961.91
462.04	8781.69
462.22	8882.33
462.40	8912.76
462.59	8868.29
462.77	8667.00
462.95	8891.70
463.13	8681.05
463.32	8758.28
463.50	8961.91
463.68	8922.12
463.86	8992.34
464.05	8910.42
464.23	8858.93
464.41	8968.93
464.59	8791.05
464.78	9081.28
464.96	8844.88
465.14	8854.25
465.32	9109.36
465.50	9144.47
465.69	9109.36
465.87	8982.98
466.05	9125.75
466.23	9114.05
466.41	9020.42
466.60	9334.06
466.78	9125.75
466.96	9193.62
467.14	9411.29
467.32	9139.79
467.51	9376.19
467.69	9130.43
467.87	9334.06
468.05	9418.32
468.23	9469.81
468.41	9214.69
468.60	9362.14
468.78	9577.47
468.96	9462.79
469.14	9661.73
469.32	9825.57
469.50	9308.31
469.69	9715.56
469.87	9612.58
470.05	9668.75
470.23	9551.73
470.41	9635.99
470.59	9631.30
470.77	9668.75
470.95	9879.40
471.14	10181.33
471.32	9937.91
471.50	10181.33
471.68	10249.21
471.86	10139.20
472.04	10235.16
472.22	10394.32
472.40	10246.87
472.58	10363.89
472.77	10317.08
472.95	10611.99
473.13	10824.98
473.31	10558.16
473.49	10389.64
473.67	10448.15
473.85	10567.52
474.03	10696.25
474.21	10567.52
474.39	10876.47
474.57	10850.72
474.75	11286.06
474.93	11091.80
475.12	11091.80
475.30	11007.54
475.48	11059.03
475.66	11428.84
475.84	11290.74
476.02	11199.46
476.20	11257.98
476.38	11599.70
476.56	11983.54
476.74	11913.33
476.92	11627.78
477.10	11698.00
477.28	11922.69
477.46	11864.18
477.64	12212.92
477.82	12334.62
478.00	12318.24
478.18	12498.46
478.36	12554.63
478.54	12503.14
478.72	12657.62
478.90	12760.60
479.08	13013.38
479.26	13090.62
479.44	12901.03
479.62	12816.77
479.80	13235.73
479.98	13263.82
480.16	13315.31
480.34	13481.49
480.52	13481.49
480.70	13612.56
480.88	13383.18
481.06	13776.39
481.24	13961.30
481.41	14202.37
481.59	14178.97
481.77	14345.14
481.95	14326.42
482.13	14623.67
482.31	14403.66
482.49	15054.33
482.67	14560.47
482.85	14642.39
483.03	14909.21
483.21	15197.10
483.39	15421.79
483.57	15136.24
483.74	15482.64
483.92	15431.15
484.10	15611.37
484.28	15508.39
484.46	16004.58
484.64	16489.07
484.82	15934.37
485.00	15999.90
485.18	16348.64
485.35	16329.92
485.53	15971.82
485.71	16004.58
485.89	16372.05
486.07	16498.44
486.25	16505.46
486.43	16498.44
486.61	16767.60
486.78	17160.81
486.96	17319.96
487.14	17738.92
487.32	17783.39
487.50	17930.84
487.68	18026.81
487.85	18082.98
488.03	18504.28
488.21	18295.97
488.39	18443.42
488.57	18565.13
488.75	18553.43
488.92	19105.79
489.10	19103.45
489.28	19246.23
489.46	19594.96
489.64	19398.36
489.81	20027.96
489.99	19854.76
490.17	20278.40
490.35	20074.77
490.53	20091.16
490.70	20444.58
490.88	20467.98
491.06	20400.11
491.24	20751.19
491.41	20805.02
491.59	20577.99
491.77	20589.69
491.95	21025.03
492.13	21160.78
492.30	21434.63
492.48	21879.33
492.66	21783.37
492.84	21713.15
493.01	21841.88
493.19	21748.26
493.37	22389.56
493.54	22068.91
493.72	22328.71
493.90	22302.96
494.08	22560.42
494.25	23173.64
494.43	22862.35
494.61	23321.10
494.79	23042.57
494.96	23470.89
495.14	23473.23
495.32	23700.26
495.49	23763.46
495.67	23697.92
495.85	23836.02
496.02	24187.10
496.20	24215.18
496.38	24285.40
496.55	24446.90
496.73	25060.12
496.91	24425.83
497.09	24737.12
497.26	24535.84
497.44	24730.10
497.62	25097.56
497.79	25348.00
497.97	24790.95
498.14	25331.62
498.32	25277.79
498.50	25214.59
498.67	25883.98
498.85	25858.24
499.03	25869.94
499.20	26040.80
499.38	26253.79
499.56	26314.64
499.73	26359.11
499.91	26405.92
500.08	26389.54
500.26	26169.53
500.44	26607.21
500.61	26361.45
500.79	26309.96
500.97	26747.64
501.14	27185.32
501.32	26984.04
501.49	27204.05
501.67	27089.36
501.84	27360.86
502.02	27243.84
502.20	27651.09
502.37	28084.09
502.55	27419.38
502.72	27819.61
502.90	27779.82
503.07	27903.87
503.25	28170.69
503.43	27854.72
503.60	27775.14
503.78	28027.92
503.95	28147.28
504.13	28060.68
504.30	28173.03
504.48	28678.58
504.65	28877.53
504.83	28893.91
505.01	28446.87
505.18	28959.45
505.36	29296.49
505.53	29024.98
505.71	29518.84
505.88	29621.82
506.06	29383.09
506.23	29493.09
506.41	29432.24
506.58	29715.44
506.76	29572.67
506.93	29841.83
507.11	29862.90
507.28	29837.15
507.46	29549.26
507.63	29968.22
507.81	30082.91
507.98	29898.00
508.16	30576.76
508.33	30307.60
508.50	30639.95
508.68	30852.94
508.85	30848.26
509.03	30859.96
509.20	31112.74
509.38	30850.60
509.55	31061.25
509.73	30984.01
509.90	31133.81
510.08	31115.08
510.25	31510.63
510.42	31264.88
510.60	31463.82
510.77	31503.61
510.95	31730.64
511.12	31693.19
511.30	31969.38
511.47	32353.23
511.64	32226.84
511.82	32044.27
511.99	31852.35
512.17	32428.12
512.34	32032.57
512.51	32320.46
512.69	32552.17
512.86	32348.54
513.04	32500.68
513.21	32636.43
513.38	32496.00
513.56	32900.91
513.73	32624.73
513.90	33125.60
514.08	32720.69
514.25	32980.49
514.43	32870.48
514.60	33020.28
514.77	33085.81
514.95	33883.94
515.12	33048.36
515.29	33591.37
515.47	33958.83
515.64	33827.76
515.81	33759.89
515.99	33780.95
516.16	33425.19
516.33	33284.76
516.51	33783.29
516.68	33249.65
516.85	33523.49
517.03	33488.38
517.20	34000.96
517.37	34188.21
517.54	33881.60
517.72	33872.23
517.89	34050.11
518.06	33696.69
518.24	33890.96
518.41	33507.11
518.58	34579.07
518.75	34754.61
518.93	34478.43
519.10	34794.40
519.27	34775.68
519.45	35096.33
519.62	34747.59
519.79	35009.73
519.96	35166.55
520.14	35541.03
520.31	35374.86
520.48	35250.81
520.65	35412.31
520.83	35739.98
521.00	35934.24
521.17	35784.45
521.34	35924.88
521.52	35852.33
521.69	36238.51
521.86	35938.93
522.03	36341.50
522.20	35824.24
522.38	36250.22
522.55	36210.43
522.72	36231.49
522.89	36257.24
523.07	36388.31
523.24	36610.66
523.41	36596.62
523.58	36807.26
523.75	37816.04
523.92	36910.25
524.10	37167.71
524.27	37298.78
524.44	37275.37
524.61	37345.59
524.78	37308.14
524.96	37759.86
525.13	37020.25
525.30	37448.57
525.47	37844.12
525.64	37785.61
525.81	37296.44
525.98	37516.45
526.16	37731.78
526.33	37127.92
526.50	37734.12
526.67	37031.96
526.84	37193.45
527.01	37420.48
527.18	37993.92
527.36	37879.23
527.53	38127.33
527.70	38452.66
527.87	38223.29
528.04	38066.47
528.21	38330.95
528.38	38609.48
528.55	38642.24
528.72	38494.79
528.89	38623.52
529.07	38447.98
529.24	38532.24
529.41	38820.13
529.58	38869.28
529.75	38223.29
529.92	38635.22
530.09	39047.16
530.26	39304.62
530.43	39019.07
530.60	38979.28
530.77	38899.70
530.94	39157.16
531.11	39285.89
531.28	39086.95
531.46	39555.05
531.63	39304.62
531.80	39152.48
531.97	39470.79
532.14	39105.67
532.31	39077.58
532.48	39529.31
532.65	39828.90
532.82	39723.57
532.99	39484.84
533.16	39487.18
533.33	40079.33
533.50	40287.64
533.67	39896.77
533.84	39655.70
534.01	40130.83
534.18	39838.26
534.35	40044.23
534.52	39997.41
534.69	40697.24
534.86	40175.30
535.03	40292.32
535.20	40844.69
535.37	40610.64
535.54	41139.60
535.71	40315.73
535.88	40671.49
536.05	40046.57
536.22	40837.67
536.38	40622.34
536.55	40559.14
536.72	40636.38
536.89	40112.10
537.06	40442.12
537.23	41120.87
537.40	41125.55
537.57	41069.38
537.74	40549.78
537.91	41043.63
538.08	40910.22
538.25	40648.08
538.42	41237.90
538.59	41254.28
538.75	40959.38
538.92	41111.51
539.09	41123.21
539.26	41296.41
539.43	41333.86
539.60	41163.00
539.77	40818.94
539.94	40975.76
540.11	41118.53
540.28	41104.49
540.44	41258.96
540.61	41343.22
540.78	40891.50
540.95	41352.58
541.12	41205.13
541.29	41418.12
541.46	41289.39
541.62	42012.62
541.79	42171.77
541.96	41724.73
542.13	41806.65
542.30	41216.83
542.47	41895.59
542.63	42064.11
542.80	41876.86
542.97	42246.67
543.14	42473.70
543.31	42616.47
543.48	42693.71
543.64	42979.26
543.81	42808.40
543.98	42707.76
544.15	42939.47
544.32	42672.65
544.48	43615.88
544.65	42632.86
544.82	42944.15
544.99	42581.37
545.16	42822.44
545.32	42649.24
545.49	43276.51
545.66	43653.33
545.83	42841.17
546.00	43058.84
546.16	43065.86
546.33	42485.40
546.50	42995.64
546.67	42887.98
546.83	42848.19
547.00	43234.38
547.17	42925.42
547.34	43316.29
547.50	43084.58
547.67	43702.48
547.84	43217.99
548.00	43552.69
548.17	43826.53
548.34	43819.51
548.51	43803.13
548.67	43786.74
548.84	43421.62
549.01	43461.41
549.18	43679.08
549.34	43770.36
549.51	43873.34
549.68	44053.56
549.84	43494.18
550.01	44432.73
550.18	43957.60
550.34	43814.83
550.51	43480.13
550.68	43824.19
550.84	43536.30
551.01	44231.44
551.18	44154.21
551.34	43761.00
551.51	44369.54
551.68	44479.54
551.84	44222.08
552.01	43915.47
552.18	44102.71
552.34	44201.02
552.51	44423.37
552.68	44165.91
552.84	44638.70
553.01	44486.56
553.18	44266.55
553.34	44025.48
553.51	44268.89
553.67	44196.34
553.84	45071.70
554.01	44842.32
554.17	44371.88
554.34	44722.96
554.51	44671.46
554.67	44542.74
554.84	44800.19
555.00	44428.05
555.17	44725.30
555.33	44964.03
555.50	44795.51
555.67	44685.51
555.83	44538.05
556.00	44591.89
556.16	45041.27
556.33	44926.58
556.50	44666.78
556.66	44907.86
556.83	44926.58
556.99	44889.13
557.16	45380.65
557.32	45006.16
557.49	45043.61
557.65	44924.24
557.82	44760.40
557.98	45265.96
558.15	44694.87
558.32	45404.05
558.48	45099.78
558.65	44919.56
558.81	44685.51
558.98	44795.51
559.14	45015.52
559.31	45146.59
559.47	45076.38
559.64	45038.93
559.80	45013.18
559.97	44900.84
560.13	45567.89
560.30	45357.24
560.46	45003.82
560.63	45581.93
560.79	45275.32
560.96	45574.91
561.12	45373.63
561.29	45390.01
561.45	45214.47
561.61	45301.07
561.78	45167.66
561.94	45240.21
562.11	45614.70
562.27	45394.69
562.44	45282.34
562.60	45565.55
562.77	44933.60
562.93	45420.44
563.10	45841.73
563.26	45312.77
563.42	45794.92
563.59	45502.35
563.75	45392.35
563.92	45626.40
564.08	45631.08
564.24	45743.43
564.41	45457.88
564.57	45556.19
564.74	45567.89
564.90	45869.82
565.07	45319.79
565.23	45455.54
565.39	45247.24
565.56	45818.33
565.72	45413.41
565.88	45478.95
566.05	45748.11
566.21	45776.20
566.38	45343.20
566.54	45331.50
566.70	45244.90
566.87	46136.64
567.03	46017.27
567.19	46138.98
567.36	45881.52
567.52	45813.65
567.68	46108.55
567.85	45820.67
568.01	45701.30
568.17	45902.59
568.34	45691.94
568.50	45743.43
568.66	45867.48
568.83	46036.00
568.99	45467.25
569.15	45502.35
569.32	46061.74
569.48	45399.37
569.64	45968.12
569.81	46014.93
569.97	45961.10
570.13	46096.85
570.30	45528.10
570.46	45722.37
570.62	45226.17
570.78	45631.08
570.95	45418.10
571.11	45701.30
571.27	45883.86
571.43	45455.54
571.60	45705.98
571.76	45975.14
571.92	45937.69
572.09	45708.32
572.25	45675.55
572.41	45675.55
572.57	45801.94
572.74	46366.01
572.90	45734.07
573.06	46000.89
573.22	46064.08
573.38	46017.27
573.55	45722.37
573.71	45958.76
573.87	45909.61
574.03	46082.81
574.20	45897.91
574.36	45930.67
574.52	45715.34
574.68	46117.92
574.84	46000.89
575.01	45769.18
575.17	45778.54
575.33	45830.03
575.49	45755.13
575.65	46443.25
575.82	46394.10
575.98	45844.07
576.14	46085.15
576.30	46263.03
576.46	45598.32
576.62	46136.64
576.79	45897.91
576.95	46068.76
577.11	45787.90
577.27	45844.07
577.43	46305.16
577.59	46096.85
577.75	45401.71
577.92	45600.66
578.08	45745.77
578.24	45525.76
578.40	45516.40
578.56	45918.97
578.72	46281.75
578.88	46007.91
579.04	46024.29
579.21	45792.58
579.37	46000.89
579.53	46199.83
579.69	45715.34
579.85	46206.86
580.01	45982.16
580.17	46068.76
580.33	46422.19
580.49	46024.29
580.65	46422.19
580.82	46241.96
580.98	46087.49
581.14	46234.94
581.30	45975.14
581.46	46536.87
581.62	46157.70
581.78	46099.19
581.94	46623.47
582.10	46227.92
582.26	46403.46
582.42	46078.13
582.58	46014.93
582.74	46038.34
582.90	46157.70
583.06	46438.57
583.22	46445.59
583.38	46796.67
583.54	46204.52
583.70	46480.70
583.86	46291.12
584.02	46028.98
584.18	46122.60
584.34	46284.09
584.50	46064.08
584.66	46263.03
584.82	46122.60
584.98	46260.69
585.14	46499.42
585.30	45862.80
585.46	45698.96
585.62	45640.45
585.78	45998.55
585.94	45832.37
586.10	46368.35
586.26	45654.49
586.42	46630.49
586.58	46768.58
586.74	46174.09
586.90	45982.16
587.06	45977.48
587.22	46539.21
587.38	46101.53
587.54	46272.39
587.70	46270.05
587.86	46251.33
588.02	46358.99
588.18	46040.68
588.34	46007.91
588.49	45677.90
588.65	45485.97
588.81	45488.31
588.97	45776.20
589.13	45827.69
589.29	45705.98
589.45	45820.67
589.61	46174.09
589.77	46143.66
589.93	46227.92
590.08	46148.34
590.24	46405.80
590.40	46518.15
590.56	46391.76
590.72	46412.82
590.88	46038.34
591.04	46684.33
591.20	46557.94
591.35	46337.93
591.51	46412.82
591.67	46548.57
591.83	46363.67
591.99	46216.22
592.15	46539.21
592.31	46188.13
592.46	46122.60
592.62	46157.70
592.78	46401.12
592.94	46583.68
593.10	46358.99
593.26	46401.12
593.41	46183.45
593.57	45900.25
593.73	46309.84
593.89	46218.56
594.05	45940.04
594.20	46178.77
594.36	46314.52
594.52	46010.25
594.68	46248.99
594.84	46461.97
594.99	46244.30
595.15	46485.38
595.31	46728.80
595.47	46258.35
595.62	46309.84
595.78	46277.07
595.94	46478.36
596.10	46852.84
596.25	46527.51
596.41	46370.69
596.57	46548.57
596.73	46548.57
596.88	46113.23
597.04	46174.09
597.20	46068.76
597.36	46171.75
597.51	46677.30
597.67	46557.94
597.83	46679.64
597.99	46658.58
598.14	46866.89
598.30	46286.43
598.46	46253.67
598.61	46354.31
598.77	46263.03
598.93	46141.32
599.09	46607.09
599.24	47100.94
599.40	46710.07
599.56	46295.80
599.71	46239.62
599.87	46370.69
600.03	46476.02
600.18	46103.87
600.34	46167.07
600.50	46424.53
600.65	46314.52
600.81	46911.36
600.97	46571.98
601.12	46742.84
601.28	46447.93
601.44	46300.48
601.59	46443.25
601.75	45778.54
601.91	46204.52
602.06	46248.99
602.22	46286.43
602.37	46188.13
602.53	46129.62
602.69	46824.76
602.84	46026.63
603.00	46293.46
603.16	46508.79
603.31	46124.94
603.47	46543.89
603.62	46225.58
603.78	46604.75
603.94	46394.10
604.09	46574.32
604.25	46291.12
604.40	45970.46
604.56	46567.30
604.71	46000.89
604.87	46106.21
605.03	46323.88
605.18	45956.42
605.34	46129.62
605.49	45729.39
605.65	46092.17
605.80	46377.72
605.96	46232.60
606.12	46337.93
606.27	46466.66
606.43	46050.04
606.58	45940.04
606.74	45963.44
606.89	46295.80
607.05	46384.74
607.20	46260.69
607.36	46277.07
607.51	46183.45
607.67	45818.33
607.82	45907.27
607.98	45886.20
608.13	45792.58
608.29	45832.37
608.44	45729.39
608.60	45462.57
608.75	45893.22
608.91	45928.33
609.06	46026.63
609.22	46052.38
609.37	45799.60
609.53	46068.76
609.68	45825.35
609.84	45729.39
609.99	45422.78
610.15	45390.01
610.30	45439.16
610.46	45205.11
610.61	45691.94
610.76	45661.51
610.92	45956.42
611.07	45544.48
611.23	46014.93
611.38	45684.92
611.54	45691.94
611.69	45422.78
611.84	45331.50
612.00	45326.81
612.15	45258.94
612.31	45516.40
612.46	45696.62
612.62	45347.88
612.77	45553.85
612.92	46045.36
613.08	45090.42
613.23	45736.41
613.39	45240.21
613.54	44985.10
613.69	44989.78
613.85	45373.63
614.00	45687.26
614.15	45703.64
614.31	45619.38
614.46	45333.84
614.62	45471.93
614.77	45132.55
614.92	45088.08
615.08	45528.10
615.23	44589.55
615.38	45228.51
615.54	44914.88
615.69	44830.62
615.84	44512.31
616.00	45027.23
616.15	45109.14
616.30	45120.85
616.46	45034.25
616.61	44514.65
616.76	44584.86
616.92	44196.34
617.07	44575.50
617.22	44299.32
617.37	44655.08
617.53	45127.87
617.68	44938.29
617.83	44619.97
617.99	44692.53
618.14	44868.07
618.29	44926.58
618.45	44662.10
618.60	44603.59
618.75	44699.55
618.90	44900.84
619.06	44626.99
619.21	44545.08
619.36	44856.37
619.51	44821.26
619.67	44308.68
619.82	44402.30
619.97	44245.49
620.12	44369.54
620.28	43981.01
620.43	44521.67
620.58	44624.65
620.73	44360.17
620.89	44177.61
621.04	44004.41
621.19	44016.11
621.34	44240.81
621.49	44472.52
621.65	43641.63
621.80	44444.43
621.95	44041.86
622.10	43840.57
622.25	43470.77
622.41	44018.46
622.56	43945.90
622.71	43737.59
622.86	44114.42
623.01	43763.34
623.16	43821.85
623.32	43683.76
623.47	44177.61
623.62	43927.17
623.77	43744.61
623.92	43786.74
624.07	43604.18
624.23	43711.84
624.38	43442.68
624.53	43725.89
624.68	43562.05
624.83	43683.76
624.98	43812.49
625.13	43515.24
625.29	43213.31
625.44	43016.71
625.59	43028.41
625.74	42698.39
625.89	42848.19
626.04	42995.64
626.19	43646.31
626.34	43519.92
626.49	43320.98
626.65	43440.34
626.80	43316.29
626.95	43023.73
627.10	42787.33
627.25	43208.63
627.40	42909.04
627.55	42789.67
627.70	41886.23
627.85	42394.12
628.00	42464.34
628.15	42855.21
628.30	42408.17
628.45	42483.06
628.60	42857.55
628.76	42864.57
628.91	42902.02
629.06	42682.01
629.21	42440.93
629.36	42440.93
629.51	42068.79
629.66	42150.71
629.81	41895.59
629.96	42174.11
630.11	42763.93
630.26	42719.46
630.41	42930.11
630.56	42176.45
630.71	42660.94
630.86	42199.86
631.01	42068.79
631.16	42066.45
631.31	42089.85
631.46	41436.84
631.61	42286.46
631.76	41827.71
631.91	41895.59
632.06	42405.83
632.21	42597.75
632.36	42433.91
632.51	42181.13
632.66	42096.88
632.81	41490.68
632.96	41972.83
633.10	42087.51
633.25	42094.53
633.40	42096.88
633.55	42211.56
633.70	42007.94
633.85	41715.37
634.00	42003.25
634.15	42185.82
634.30	41689.62
634.45	41411.10
634.60	41387.69
634.75	41551.53
634.90	41773.88
635.05	41727.07
635.19	41682.60
635.34	41727.07
635.49	41605.36
635.64	40996.82
635.79	40800.22
635.94	41846.44
636.09	41415.78
636.24	41427.48
636.39	40992.14
636.53	41284.71
636.68	41027.25
636.83	41116.19
636.98	41242.58
637.13	40814.26
637.28	41130.23
637.43	41219.17
637.57	41361.95
637.72	41055.34
637.87	41261.30
638.02	41155.98
638.17	41413.44
638.32	40882.14
638.46	40900.86
638.61	41207.47
638.76	40748.73
638.91	40627.02
639.06	41127.89
639.20	41017.89
639.35	40795.54
639.50	41195.77
639.65	40823.62
639.80	40940.65
639.94	40629.36
640.09	41036.61
640.24	40542.76
640.39	40402.33
640.54	40657.45
640.68	40741.71
640.83	40119.12
640.98	40432.75
641.13	40151.89
641.27	40868.09
641.42	40484.25
641.57	40493.61
641.72	40245.51
641.86	40055.93
642.01	40552.12
642.16	40058.27
642.31	39854.64
642.45	40076.99
642.60	39693.15
642.75	40149.55
642.90	39868.69
643.04	39999.76
643.19	40084.01
643.34	40165.93
643.48	39845.28
643.63	39997.41
643.78	40189.34
643.93	39962.31
644.07	40023.16
644.22	40079.33
644.37	39676.76
644.51	39934.22
644.66	39978.69
644.81	39969.33
644.95	39929.54
645.10	39737.62
645.25	40184.66
645.39	39915.50
645.54	39754.00
645.69	39775.06
645.83	39739.96
645.98	39679.10
646.13	39615.91
646.27	39667.40
646.42	39482.50
646.57	39321.00
646.71	39353.77
646.86	39660.38
647.00	39445.05
647.15	39662.72
647.30	39360.79
647.44	39365.47
647.59	39522.29
647.74	39264.83
647.88	38939.49
648.03	39475.48
648.17	39449.73
648.32	39440.37
648.47	39475.48
648.61	38712.46
648.76	39386.54
648.90	39356.11
649.05	39166.52
649.20	39321.00
649.34	38932.47
649.49	38850.55
649.63	38803.74
649.78	39035.45
649.92	39428.66
650.07	39435.69
650.21	38981.62
650.36	38717.14
650.51	38653.95
650.65	39105.67
650.80	39344.41
650.94	39196.95
651.09	38801.40
651.23	38347.34
651.38	38305.21
651.52	38714.80
651.67	38763.95
651.81	38433.94
651.96	38522.88
652.10	38590.75
652.25	38541.60
652.39	38354.36
652.54	38813.10
652.68	38724.16
652.83	38899.70
652.97	38920.77
653.12	38745.23
653.26	38192.86
653.41	38426.92
653.55	38286.48
653.70	37881.57
653.84	38370.74
653.99	38403.51
654.13	38110.94
654.27	37998.60
654.42	38014.98
654.56	37965.83
654.71	37986.89
654.85	37851.14
655.00	38089.88
655.14	38078.18
655.29	37792.63
655.43	37708.37
655.57	37558.58
655.72	37474.32
655.86	37123.24
656.01	37493.04
656.15	37013.23
656.30	37139.62
656.44	37720.07
656.58	37546.87
656.73	37333.89
656.87	37467.30
657.01	37251.97
657.16	37673.26
657.30	37387.72
657.45	37001.53
657.59	37095.15
657.73	37191.11
657.88	37371.33
658.02	37347.93
658.16	37769.22
658.31	37745.82
658.45	37455.59
658.60	37228.56
658.74	37291.76
658.88	37017.91
659.03	37336.23
659.17	36891.52
659.31	36992.17
659.46	37095.15
659.60	37277.71
659.74	37078.77
659.89	36788.54
660.03	37088.13
660.17	36996.85
660.32	36905.57
660.46	37046.00
660.60	36657.47
660.74	36741.73
660.89	36514.70
661.03	36458.52
661.17	36084.04
661.32	36067.66
661.46	36353.20
661.60	36498.31
661.74	36315.75
661.89	36414.05
662.03	36222.13
662.17	36620.02
662.31	36198.73
662.46	35957.65
662.60	36084.04
662.74	36517.04
662.88	35332.73
663.03	35140.80
663.17	35702.53
663.31	35732.96
663.45	35571.46
663.60	35658.06
663.74	35517.63
663.88	35629.98
664.02	35318.68
664.17	35833.60
664.31	35253.15
664.45	35220.38
664.59	35428.69
664.73	35211.02
664.88	35526.99
665.02	34660.99
665.16	35063.57
665.30	34878.66
665.44	35058.88
665.59	34778.02
665.73	34462.05
665.87	34986.33
666.01	34857.60
666.15	34689.08
666.29	35157.19
666.44	35133.78
666.58	34590.78
666.72	34724.19
666.86	34646.95
667.00	34253.74
667.14	34459.71
667.28	34316.93
667.43	34349.70
667.57	34436.30
667.71	34190.55
667.85	34064.16
667.99	34274.80
668.13	33933.09
668.27	34073.52
668.41	34117.99
668.56	33750.52
668.70	34012.66
668.84	33993.94
668.98	33511.79
669.12	33663.93
669.26	33448.60
669.40	33577.33
669.54	33448.60
669.68	33188.80
669.82	33048.36
669.96	32924.32
670.10	33167.73
670.25	33333.91
670.39	32814.31
670.53	33055.39
670.67	32849.42
670.81	33130.28
670.95	32816.65
671.09	32924.32
671.23	33214.54
671.37	32912.61
671.51	32877.51
671.65	32470.25
671.79	32257.26
671.93	32491.32
672.07	32664.52
672.21	32498.34
672.35	32395.35
672.49	32584.94
672.63	32727.71
672.77	32023.21
672.91	32378.97
673.05	32247.90
673.19	31945.97
673.33	31864.05
673.47	31552.76
673.61	31770.43
673.75	31538.72
673.89	31770.43
674.03	31580.85
674.17	31405.31
674.31	31796.18
674.45	31264.88
674.59	31164.23
674.73	31583.19
674.87	31075.29
675.01	31166.57
675.15	31192.32
675.29	30883.37
675.43	30668.04
675.56	30754.64
675.70	30223.34
675.84	30405.90
675.98	29813.74
676.12	30412.92
676.26	30235.04
676.40	30672.72
676.54	30794.43
676.68	30249.08
676.82	30057.16
676.96	30057.16
677.10	29984.60
677.23	29926.09
677.37	29696.72
677.51	29586.71
677.65	29628.84
677.79	29244.99
677.93	29544.58
678.07	29240.31
678.21	28854.12
678.34	28687.95
678.48	28795.61
678.62	28477.30
678.76	28563.90
678.90	28594.32
679.04	28327.50
679.18	28379.00
679.31	28306.44
679.45	27992.81
679.59	27962.38
679.73	28037.28
679.87	27704.92
680.00	27864.08
680.14	27442.78
680.28	27934.29
680.42	27882.80
680.56	27765.78
680.70	27550.45
680.83	27950.68
680.97	27566.83
681.11	27515.34
681.25	27143.19
681.39	27129.15
681.52	27119.79
681.66	27534.06
681.80	27049.57
681.94	27026.17
682.07	27178.30
682.21	26862.33
682.35	26904.46
682.49	26471.46
682.62	26508.91
682.76	26443.37
682.90	26036.12
683.04	25951.86
683.17	26426.99
683.31	25832.49
683.45	26096.97
683.59	25593.76
683.72	25610.14
683.86	25825.47
684.00	25497.80
684.13	25521.20
684.27	25385.45
684.41	25050.75
684.55	25659.29
684.68	25118.63
684.82	25542.27
684.96	24865.85
685.09	25195.87
685.23	24819.04
685.37	25139.69
685.50	24992.24
685.64	24886.92
685.78	24304.12
685.91	24643.50
686.05	24245.61
686.19	24175.39
686.32	23957.72
686.46	23608.98
686.60	23400.68
686.73	23470.89
686.87	23393.65
687.01	22993.42
687.14	23211.09
687.28	23007.47
687.42	23339.82
687.55	23190.03
687.69	23044.91
687.82	23164.28
687.96	23171.30
688.10	23105.77
688.23	22852.99
688.37	22097.00
688.50	22649.36
688.64	22469.14
688.78	22335.73
688.91	22387.22
689.05	22242.11
689.18	22277.22
689.32	22157.85
689.46	22356.80
689.59	22473.82
689.73	21968.27
689.86	21867.63
690.00	21867.63
690.13	22235.09
690.27	21544.63
690.41	21591.44
690.54	21364.41
690.68	21598.46
690.81	21345.69
690.95	21202.91
691.08	21050.78
691.22	21329.30
691.35	20781.62
691.49	21053.12
691.62	20922.05
691.76	21170.15
691.89	21029.71
692.03	20741.83
692.16	20456.28
692.30	20814.38
692.43	20432.88
692.57	20313.51
692.70	20262.02
692.84	20355.64
692.97	20119.24
693.11	19978.81
693.24	19803.27
693.38	19634.75
693.51	19653.48
693.65	19829.02
693.78	19875.83
693.92	19587.94
694.05	19676.88
694.19	19346.87
694.32	19253.25
694.45	19115.16
694.59	19056.64
694.72	18869.40
694.86	19215.80
694.99	18909.19
695.13	18897.49
695.26	19110.47
695.39	18562.79
695.53	18874.08
695.66	18775.78
695.80	18548.75
695.93	18565.13
696.07	18551.09
696.20	18312.35
696.33	18291.29
696.47	18101.70
696.60	17972.97
696.73	17825.52
696.87	17940.21
697.00	18026.81
697.14	17860.63
697.27	17535.29
697.40	17923.82
697.54	17713.17
697.67	17518.91
697.80	17303.58
697.94	17071.87
698.07	17076.55
698.21	17128.04
698.34	17092.93
698.47	16851.86
698.61	16802.71
698.74	16636.53
698.87	16685.68
699.01	16699.72
699.14	16343.96
699.27	16313.53
699.40	16397.79
699.54	15953.09
699.67	16280.77
699.80	16393.11
699.94	16201.19
700.07	16212.89
700.20	16060.76
700.34	15896.92
700.47	15953.09
700.60	15932.03
700.73	16084.16
700.87	15653.50
701.00	15817.34
701.13	15796.28
701.26	15360.94
701.40	15328.17
701.53	15426.47
701.66	15304.76
701.79	15180.71
701.93	15246.25
702.06	14855.38
702.19	15040.28
702.32	15016.88
702.46	14958.36
702.59	14817.93
702.72	14668.14
702.85	14831.97
702.99	14743.03
703.12	14586.22
703.25	14368.55
703.38	14469.19
703.51	14270.25
703.65	14260.88
703.78	14083.00
703.91	14146.20
704.04	14047.90
704.17	14200.03
704.31	14193.01
704.44	14019.81
704.57	13802.14
704.70	13696.82
704.83	13755.33
704.96	13888.74
705.10	13738.94
705.23	13610.22
>>>>>End Processed Spectral Data<<<<<
