SpectraSuite Data File
++++++++++++++++++++++++++++++++++++
Date: Fri Oct 25 10:48:21 EDT 2013
User: price-jones
Dark Spectrum Present: No
Reference Spectrum Present: No
Number of Sampled Component Spectra: 1
Spectrometers: USB2+H05261
Integration Time (usec): 100000 (USB2+H05261)
Spectra Averaged: 1 (USB2+H05261)
Boxcar Smoothing: 0 (USB2+H05261)
Correct for Electrical Dark: No (USB2+H05261)
Strobe/Lamp Enabled: No (USB2+H05261)
Correct for Detector Non-linearity: No (USB2+H05261)
Correct for Stray Light: No (USB2+H05261)
Number of Pixels in Processed Spectrum: 2048
>>>>>Begin Processed Spectral Data<<<<<
365.73	117.03
365.92	117.03
366.12	117.03
366.32	112.35
366.52	21.06
366.72	77.24
366.91	58.51
367.11	51.49
367.31	84.26
367.51	44.47
367.70	28.09
367.90	142.77
368.10	117.03
368.30	49.15
368.49	0.00
368.69	11.70
368.89	16.38
369.09	56.17
369.28	44.47
369.48	110.01
369.68	58.51
369.87	198.95
370.07	117.03
370.27	124.05
370.47	276.18
370.66	418.96
370.86	517.26
371.06	512.58
371.25	557.05
371.45	500.87
371.65	479.81
371.84	435.34
372.04	489.17
372.24	517.26
372.44	573.43
372.63	498.53
372.83	461.09
373.03	547.69
373.22	580.45
373.42	547.69
373.62	573.43
373.81	528.96
374.01	587.47
374.21	550.03
374.40	627.26
374.60	578.11
374.79	540.66
374.99	582.79
375.19	540.66
375.38	638.97
375.58	653.01
375.78	648.33
375.97	587.47
376.17	692.80
376.37	566.41
376.56	655.35
376.76	645.99
376.95	678.76
377.15	777.06
377.35	671.73
377.54	685.78
377.74	690.46
377.93	692.80
378.13	676.41
378.33	645.99
378.52	760.67
378.72	634.29
378.91	713.86
379.11	641.31
379.31	648.33
379.50	610.88
379.70	741.95
379.89	645.99
380.09	662.37
380.28	753.65
380.48	657.69
380.68	767.70
380.87	681.10
381.07	823.87
381.26	767.70
381.46	730.25
381.65	772.38
381.85	695.14
382.04	734.93
382.24	753.65
382.43	781.74
382.63	823.87
382.83	741.95
383.02	826.21
383.22	763.01
383.41	711.52
383.61	744.29
383.80	748.97
384.00	758.33
384.19	882.38
384.39	767.70
384.58	805.14
384.78	828.55
384.97	863.66
385.17	861.32
385.36	802.80
385.56	856.64
385.75	833.23
385.95	919.83
386.14	786.42
386.34	809.83
386.53	894.08
386.72	840.25
386.92	830.89
387.11	833.23
387.31	812.17
387.50	858.98
387.70	821.53
387.89	887.06
388.09	971.32
388.28	863.66
388.48	870.68
388.67	976.00
388.86	966.64
389.06	968.98
389.25	950.26
389.45	933.87
389.64	983.02
389.84	1102.39
390.03	1130.48
390.22	1114.10
390.42	985.37
390.61	1114.10
390.81	1060.26
391.00	1027.50
391.19	1132.82
391.39	1053.24
391.58	1153.88
391.78	992.39
391.97	1158.57
392.16	1069.62
392.36	1135.16
392.55	1055.58
392.75	1041.54
392.94	940.90
393.13	964.30
393.33	1011.11
393.52	1055.58
393.71	1100.05
393.91	1158.57
394.10	1235.80
394.29	1128.14
394.49	1100.05
394.68	1193.67
394.88	1247.51
395.07	1273.25
395.26	1247.51
395.46	1294.32
395.65	1341.13
395.84	1268.57
396.04	1322.40
396.23	1217.08
396.42	1149.20
396.62	1277.93
396.81	1303.68
397.00	1341.13
397.19	1423.05
397.39	1437.09
397.58	1483.90
397.77	1437.09
397.97	1451.13
398.16	1409.00
398.35	1558.80
398.55	1526.03
398.74	1460.49
398.93	1556.46
399.12	1404.32
399.32	1619.65
399.51	1516.67
399.70	1633.69
399.90	1551.78
400.09	1598.59
400.28	1596.25
400.47	1664.12
400.67	1675.82
400.86	1708.59
401.05	1647.74
401.24	1736.68
401.44	1778.81
401.63	1760.08
401.82	1654.76
402.01	1785.83
402.21	1659.44
402.40	1699.23
402.59	1675.82
402.78	1724.97
402.97	1837.32
403.17	1842.00
403.36	1802.21
403.55	1830.30
403.74	1961.37
403.93	1858.39
404.13	1870.09
404.32	1984.77
404.51	1877.11
404.70	2001.16
404.89	1923.92
405.09	1940.30
405.28	1928.60
405.47	2024.56
405.66	2062.01
405.85	1982.43
406.05	2097.12
406.24	2026.90
406.43	2033.93
406.62	2176.70
406.81	2148.61
407.00	2115.84
407.20	2036.27
407.39	2054.99
407.58	2190.74
407.77	2204.78
407.96	2359.26
408.15	2249.25
408.34	2176.70
408.54	2380.32
408.73	2305.43
408.92	2335.85
409.11	2338.20
409.30	2366.28
409.49	2342.88
409.68	2455.22
409.87	2340.54
410.07	2396.71
410.26	2319.47
410.45	2380.32
410.64	2551.18
410.83	2513.74
411.02	2572.25
411.21	2635.44
411.40	2590.97
411.59	2757.15
411.78	2644.81
411.98	2642.46
412.17	2796.94
412.36	2787.58
412.55	2848.43
412.74	2771.19
412.93	2825.03
413.12	2677.57
413.31	2904.60
413.50	2801.62
413.69	2883.54
413.88	3000.57
414.07	2958.44
414.26	2988.86
414.45	2993.55
414.64	3087.17
414.83	3155.04
415.02	3131.64
415.22	3199.51
415.41	3110.57
415.60	3229.94
415.79	3232.28
415.98	3297.81
416.17	3199.51
416.36	3246.32
416.55	3293.13
416.74	3361.01
416.93	3304.84
417.12	3428.88
417.31	3304.84
417.50	3400.80
417.69	3517.83
417.88	3515.48
418.07	3375.05
418.26	3681.66
418.45	3510.80
418.64	3613.79
418.83	3651.24
419.02	3599.74
419.21	3576.34
419.39	3634.85
419.58	3630.17
419.77	3665.28
419.96	3756.56
420.15	3667.62
420.34	3784.65
420.53	3808.05
420.72	3838.48
420.91	3740.18
421.10	3859.54
421.29	3831.46
421.48	3906.35
421.67	3889.97
421.86	3810.39
422.05	3824.44
422.24	3894.65
422.43	3932.10
422.61	3927.42
422.80	4081.89
422.99	3988.27
423.18	4077.21
423.37	4030.40
423.56	4025.72
423.75	3981.25
423.94	3985.93
424.13	3751.88
424.32	3899.33
424.50	4058.49
424.69	4117.00
424.88	4098.28
425.07	3831.46
425.26	3913.38
425.45	3918.06
425.64	4032.74
425.83	3990.61
426.01	4065.51
426.20	4128.70
426.39	4070.19
426.58	4035.08
426.77	4011.68
426.96	4100.62
427.15	4074.87
427.33	4088.92
427.52	4131.05
427.71	4140.41
427.90	4175.52
428.09	4243.39
428.28	4198.92
428.46	4311.27
428.65	4397.87
428.84	4255.09
429.03	4393.19
429.22	4194.24
429.40	4170.83
429.59	4290.20
429.78	4107.64
429.97	4095.94
430.16	4091.26
430.34	4077.21
430.53	4379.14
430.72	4362.76
430.91	4194.24
431.10	4348.72
431.28	4575.75
431.47	4772.35
431.66	4702.14
431.85	4655.33
432.03	4720.86
432.22	4842.57
432.41	4634.26
432.60	4657.67
432.79	4674.05
432.97	4739.58
433.16	4767.67
433.35	4770.01
433.54	4622.56
433.72	4753.63
433.91	4730.22
434.10	4873.00
434.28	4840.23
434.47	4950.23
434.66	4952.57
434.85	4894.06
435.03	5160.88
435.22	5013.43
435.41	5214.71
435.59	5172.58
435.78	5210.03
435.97	5270.89
436.16	5170.24
436.34	5165.56
436.53	5135.14
436.72	5392.59
436.90	5301.31
437.09	5284.93
437.28	5357.49
437.46	5341.10
437.65	5317.70
437.84	5310.68
438.02	5427.70
438.21	5238.12
438.40	5118.75
438.58	5387.91
438.77	5502.60
438.96	5495.58
439.14	5643.03
439.33	5724.95
439.52	5830.27
439.70	5809.21
439.89	5788.14
440.08	5841.98
440.26	5811.55
440.45	5804.53
440.63	5942.62
440.82	6069.01
441.01	6010.50
441.19	5935.60
441.38	6305.40
441.57	6188.38
441.75	6499.67
441.94	6296.04
442.12	6277.32
442.31	6551.16
442.50	6331.15
442.68	6321.79
442.87	6333.49
443.05	6600.31
443.24	6684.57
443.43	6523.07
443.61	6583.93
443.80	6712.66
443.98	6541.80
444.17	6403.71
444.35	6532.44
444.54	6731.38
444.73	6771.17
444.91	6452.86
445.10	6562.86
445.28	6527.75
445.47	6445.84
445.65	6635.42
445.84	6623.72
446.02	6682.23
446.21	6686.91
446.39	6707.98
446.58	6888.20
446.77	6768.83
446.95	6787.55
447.14	7052.03
447.32	6986.50
447.51	6792.23
447.69	6817.98
447.88	6801.60
448.06	6895.22
448.25	6853.09
448.43	6773.51
448.62	6719.68
448.80	6654.14
448.99	6806.28
449.17	6918.62
449.36	6803.94
449.54	7033.31
449.73	6953.73
449.91	7035.65
450.10	7232.26
450.28	7400.77
450.46	7274.38
450.65	7227.57
450.83	7265.02
451.02	7307.15
451.20	7344.60
451.39	7363.33
451.57	7358.64
451.76	7332.90
451.94	7349.28
452.13	7435.88
452.31	7389.07
452.49	7225.23
452.68	7232.26
452.86	7108.21
453.05	7353.96
453.23	7407.80
453.42	7342.26
453.60	7358.64
453.78	7583.34
453.97	7485.03
454.15	7461.63
454.34	7545.89
454.52	7665.25
454.70	7639.51
454.89	7665.25
455.07	7695.68
455.26	7726.11
455.44	7620.78
455.62	7922.71
455.81	7749.51
455.99	7918.03
456.17	7999.95
456.36	7957.82
456.54	8086.55
456.73	8070.17
456.91	8196.56
457.09	8318.26
457.28	8388.48
457.46	8060.80
457.64	8255.07
457.83	8177.83
458.01	7971.86
458.19	8418.91
458.38	8248.05
458.56	8327.63
458.74	8341.67
458.93	8325.29
459.11	8475.08
459.29	8365.07
459.48	8404.86
459.66	8589.77
459.84	8381.46
460.03	8461.04
460.21	8571.04
460.39	8678.71
460.57	8678.71
460.76	8627.21
460.94	8887.01
461.12	8830.84
461.31	8734.88
461.49	8772.33
461.67	8814.46
461.85	8912.76
462.04	8849.57
462.22	9228.73
462.40	8997.02
462.59	9032.13
462.77	8945.53
462.95	9212.35
463.13	9125.75
463.32	9153.84
463.50	9088.30
463.68	9305.97
463.86	9097.66
464.05	9039.15
464.23	9193.62
464.41	9352.78
464.59	8929.14
464.78	9282.56
464.96	9193.62
465.14	9329.38
465.32	9558.75
465.50	9451.08
465.69	9434.70
465.87	9362.14
466.05	9406.61
466.23	9301.29
466.41	9280.22
466.60	9650.03
466.78	9401.93
466.96	9437.04
467.14	9153.84
467.32	9432.36
467.51	9694.50
467.69	9334.06
467.87	9434.70
468.05	9668.75
468.23	9806.84
468.41	9535.34
468.60	9528.32
468.78	9579.81
468.96	9748.33
469.14	9921.53
469.32	9699.18
469.50	9383.21
469.69	9783.44
469.87	9774.08
470.05	9961.32
470.23	10083.03
470.41	10113.45
470.59	10101.75
470.77	9963.66
470.95	10169.63
471.14	10420.06
471.32	10335.81
471.50	10637.73
471.68	10452.83
471.86	10480.92
472.04	10544.11
472.22	10724.33
472.40	10373.25
472.58	10436.45
472.77	10588.58
472.95	10626.03
473.13	11236.91
473.31	10672.84
473.49	10724.33
473.67	10754.76
473.85	10895.19
474.03	11185.42
474.21	11098.82
474.39	11370.32
474.57	10979.45
474.75	11468.62
474.93	11344.58
475.12	11426.50
475.30	11468.62
475.48	11365.64
475.66	11555.22
475.84	11485.01
476.02	11688.64
476.20	11548.20
476.38	11751.83
476.56	11948.43
476.74	11889.92
476.92	11988.22
477.10	11922.69
477.28	12231.64
477.46	12446.97
477.64	12236.32
477.82	12631.87
478.00	12791.03
478.18	12894.01
478.36	12816.77
478.54	12896.35
478.72	12805.07
478.90	12994.65
479.08	13132.75
479.26	13252.11
479.44	13577.45
479.62	13331.69
479.80	13336.37
479.98	13736.60
480.16	13830.23
480.34	14005.77
480.52	13940.23
480.70	13778.73
480.88	13947.25
481.06	13951.93
481.24	14534.73
481.41	14457.49
481.59	14956.02
481.77	14782.82
481.95	14548.77
482.13	14827.29
482.31	14864.74
482.49	14951.34
482.67	15152.63
482.85	15325.83
483.03	15503.71
483.21	15440.51
483.39	15513.07
483.57	15597.33
483.74	15693.29
483.92	16123.95
484.10	16119.27
484.28	16018.63
484.46	16381.41
484.64	16627.17
484.82	16542.91
485.00	16313.53
485.18	16730.15
485.35	16802.71
485.53	16575.67
485.71	16451.63
485.89	16741.85
486.07	16868.24
486.25	17022.72
486.43	17046.12
486.61	17390.18
486.78	17528.27
486.96	17837.22
487.14	17975.31
487.32	18033.83
487.50	18260.86
487.68	18640.03
487.85	18642.37
488.03	18867.06
488.21	18768.76
488.39	18513.64
488.57	18970.04
488.75	19248.57
488.92	19573.90
489.10	19829.02
489.28	19864.13
489.46	20210.53
489.64	20114.56
489.81	20072.43
489.99	20556.93
490.17	20872.90
490.35	20800.34
490.53	20781.62
490.70	20807.36
490.88	20954.82
491.06	21446.33
491.24	21483.78
491.41	21191.21
491.59	21144.40
491.77	21163.12
491.95	21443.99
492.13	21617.19
492.30	22068.91
492.48	21774.00
492.66	22473.82
492.84	22527.66
493.01	22822.56
493.19	22567.45
493.37	22677.45
493.54	23005.13
493.72	23056.62
493.90	22948.95
494.08	23229.82
494.25	23360.89
494.43	23735.37
494.61	24077.09
494.79	23601.96
494.96	23735.37
495.14	23850.06
495.32	24053.69
495.49	24133.26
495.67	24093.47
495.85	24294.76
496.02	24741.80
496.20	24959.47
496.38	25071.82
496.55	24896.28
496.73	25294.17
496.91	25017.99
497.09	25432.26
497.26	25249.70
497.44	25596.10
497.62	25685.04
497.79	26265.49
497.97	25710.78
498.14	26080.59
498.32	25895.69
498.50	25972.92
498.67	26506.57
498.85	26642.32
499.03	26916.16
499.20	26483.16
499.38	26443.37
499.56	26916.16
499.73	26876.37
499.91	26834.24
500.08	27030.85
500.26	26813.18
500.44	27002.76
500.61	27358.52
500.79	26864.67
500.97	27136.17
501.14	27538.74
501.32	27503.64
501.49	27501.29
501.67	27304.69
501.84	28056.00
502.02	28088.77
502.20	28325.16
502.37	28374.31
502.55	28320.48
502.72	28187.07
502.90	28559.22
503.07	28744.12
503.25	28552.20
503.43	28496.02
503.60	28545.17
503.78	28662.20
503.95	28809.65
504.13	28603.69
504.30	29422.87
504.48	28931.36
504.65	29827.79
504.83	29645.23
505.01	29914.39
505.18	29467.34
505.36	29982.26
505.53	29717.78
505.71	30080.56
505.88	30356.75
506.06	29855.87
506.23	30244.40
506.41	29837.15
506.58	30499.52
506.76	30291.21
506.93	30726.55
507.11	30829.54
507.28	30389.52
507.46	30738.26
507.63	30370.79
507.81	30728.89
507.98	30682.08
508.16	30646.97
508.33	31239.13
508.50	31435.74
508.68	31503.61
508.85	31433.39
509.03	31435.74
509.20	32046.62
509.38	31630.00
509.55	31655.75
509.73	31707.24
509.90	32168.32
510.08	31466.16
510.25	32252.58
510.42	32233.86
510.60	31985.76
510.77	32463.23
510.95	32402.38
511.12	32505.36
511.30	32383.65
511.47	32753.46
511.64	33039.00
511.82	32964.10
511.99	32652.81
512.17	33034.32
512.34	32816.65
512.51	33074.11
512.69	33074.11
512.86	33050.70
513.04	33357.32
513.21	33322.21
513.38	33205.18
513.56	33373.70
513.73	33146.67
513.90	33631.16
514.08	33228.59
514.25	33773.93
514.43	33376.04
514.60	33890.96
514.77	33701.37
514.95	34209.27
515.12	34005.64
515.29	34213.95
515.47	34485.45
515.64	34717.17
515.81	34272.46
515.99	34333.32
516.16	34436.30
516.33	34251.40
516.51	34103.95
516.68	33893.30
516.85	33523.49
517.03	34178.84
517.20	34632.91
517.37	35033.14
517.54	34937.18
517.72	35105.70
517.89	34785.04
518.06	34576.73
518.24	34471.41
518.41	34946.54
518.58	35180.59
518.75	35349.11
518.93	35674.45
519.10	35555.08
519.27	35480.18
519.45	35639.34
519.62	35690.83
519.79	35613.59
519.96	36046.59
520.14	36126.17
520.31	35969.35
520.48	36177.66
520.65	36002.12
520.83	36699.60
521.00	36566.19
521.17	36205.75
521.34	36636.41
521.52	36540.44
521.69	36760.45
521.86	36933.65
522.03	36903.23
522.20	37022.59
522.38	37111.53
522.55	37268.35
522.72	37177.07
522.89	36774.50
523.07	37336.23
523.24	37102.17
523.41	37354.95
523.58	37404.10
523.75	37825.40
523.92	37923.70
524.10	37914.34
524.27	38043.07
524.44	38738.21
524.61	38136.69
524.78	37783.27
524.96	38127.33
525.13	38157.75
525.30	38403.51
525.47	38382.45
525.64	38522.88
525.81	38234.99
525.98	38218.61
526.16	38148.39
526.33	37567.94
526.50	38356.70
526.67	37638.15
526.84	38433.94
527.01	38174.14
527.18	38258.40
527.36	38871.62
527.53	38885.66
527.70	39367.81
527.87	39075.24
528.04	38932.47
528.21	39613.57
528.38	38976.94
528.55	39559.73
528.72	39239.08
528.89	40020.82
529.07	39421.64
529.24	39622.93
529.41	39477.82
529.58	39295.25
529.75	39313.98
529.92	39716.55
530.09	39487.18
530.26	39959.97
530.43	39772.72
530.60	39814.85
530.77	39665.06
530.94	40467.86
531.11	39662.72
531.28	40664.47
531.46	40418.71
531.63	40325.09
531.80	40584.89
531.97	40245.51
532.14	40133.17
532.31	39955.29
532.48	40421.05
532.65	40563.82
532.82	40273.60
532.99	40608.29
533.16	40334.45
533.33	40617.66
533.50	40627.02
533.67	41027.25
533.84	40851.71
534.01	40751.07
534.18	40428.07
534.35	41649.83
534.52	40879.80
534.69	41041.29
534.86	41165.34
535.03	41017.89
535.20	41392.37
535.37	41287.05
535.54	41539.83
535.71	41146.62
535.88	41221.52
536.05	40879.80
536.22	41282.37
536.38	41596.00
536.55	41680.26
536.72	41689.62
536.89	41560.89
537.06	41792.61
537.23	41954.10
537.40	41612.38
537.57	41684.94
537.74	42071.13
537.91	41923.68
538.08	42057.09
538.25	41813.67
538.42	41427.48
538.59	42354.33
538.75	42043.04
538.92	42019.64
539.09	42267.73
539.26	42131.98
539.43	42050.06
539.60	42539.24
539.77	42354.33
539.94	42270.08
540.11	42122.62
540.28	41926.02
540.44	42272.42
540.61	42181.13
540.78	41876.86
540.95	42366.04
541.12	42316.89
541.29	42342.63
541.46	42813.08
541.62	42616.47
541.79	42731.16
541.96	42209.22
542.13	42660.94
542.30	42944.15
542.47	42604.77
542.63	42740.52
542.80	43360.76
542.97	43510.56
543.14	43068.20
543.31	43409.92
543.48	43608.86
543.64	43674.40
543.81	43599.50
543.98	43391.19
544.15	43639.29
544.32	43636.95
544.48	43779.72
544.65	43676.74
544.82	44004.41
544.99	43203.95
545.16	44039.52
545.32	43075.22
545.49	44381.24
545.66	44088.67
545.83	43697.80
546.00	43995.05
546.16	43969.30
546.33	43672.06
546.50	43475.45
546.67	44353.15
546.83	43775.04
547.00	43580.78
547.17	43892.07
547.34	43896.75
547.50	44079.31
547.67	44385.92
547.84	44088.67
548.00	44432.73
548.17	44348.47
548.34	44250.17
548.51	44542.74
548.67	44900.84
548.84	44690.19
549.01	44521.67
549.18	44521.67
549.34	44505.29
549.51	44643.38
549.68	44685.51
549.84	44481.88
550.01	44556.78
550.18	44786.15
550.34	43962.28
550.51	44706.57
550.68	44835.30
550.84	44619.97
551.01	44720.62
551.18	44821.26
551.34	44797.85
551.51	44470.18
551.68	44945.31
551.84	45188.72
552.01	44814.24
552.18	45109.14
552.34	45003.82
552.51	45052.97
552.68	45067.02
552.84	45165.32
553.01	45141.91
553.18	45081.06
553.34	44987.44
553.51	45074.04
553.67	45394.69
553.84	45991.53
554.01	45467.25
554.17	45525.76
554.34	45556.19
554.51	45350.22
554.67	45687.26
554.84	45422.78
555.00	45556.19
555.17	45441.50
555.33	45626.40
555.50	45450.86
555.67	45860.46
555.83	45698.96
556.00	45563.21
556.16	46028.98
556.33	45586.61
556.50	45684.92
556.66	46073.45
556.83	45212.13
556.99	46092.17
557.16	45743.43
557.32	45680.24
557.49	45769.18
557.65	45614.70
557.82	45876.84
557.98	46113.23
558.15	46059.40
558.32	45567.89
558.48	46047.70
558.65	45586.61
558.81	45825.35
558.98	45808.96
559.14	45418.10
559.31	46017.27
559.47	46024.29
559.64	46162.39
559.80	45933.01
559.97	45965.78
560.13	45869.82
560.30	46043.02
560.46	46738.16
560.63	46258.35
560.79	46457.29
560.96	46174.09
561.12	46148.34
561.29	45954.08
561.45	45907.27
561.61	45977.48
561.78	45949.40
561.94	46202.18
562.11	46162.39
562.27	45958.76
562.44	46588.36
562.60	46504.10
562.77	46810.71
562.93	46347.29
563.10	46394.10
563.26	46258.35
563.42	46536.87
563.59	46569.64
563.75	46043.02
563.92	46791.99
564.08	46511.13
564.24	46543.89
564.41	46223.24
564.57	46309.84
564.74	46553.26
564.90	46593.04
565.07	46302.82
565.23	46529.85
565.39	46417.50
565.56	46691.35
565.72	46803.69
565.88	46710.07
566.05	46571.98
566.21	46382.40
566.38	46356.65
566.54	46522.83
566.70	47110.30
566.87	47421.59
567.03	46995.62
567.19	47412.23
567.36	46768.58
567.52	46679.64
567.68	46756.88
567.85	46663.26
568.01	46756.88
568.17	46256.01
568.34	46782.63
568.50	46773.27
568.66	46504.10
568.83	46997.96
568.99	46625.81
569.15	46464.32
569.32	46340.27
569.48	46534.53
569.64	46820.08
569.81	46923.06
569.97	46590.70
570.13	46403.46
570.30	46204.52
570.46	46656.24
570.62	46298.14
570.78	46391.76
570.95	46396.44
571.11	46480.70
571.27	46686.67
571.43	46230.26
571.60	47002.64
571.76	46979.23
571.92	46405.80
572.09	46440.91
572.25	46944.12
572.41	46827.10
572.57	46698.37
572.74	47026.04
572.90	46941.78
573.06	47000.30
573.22	47246.05
573.38	46667.94
573.55	46384.74
573.71	47171.16
573.87	46934.76
574.03	46412.82
574.20	47019.02
574.36	46817.74
574.52	47171.16
574.68	47122.01
574.84	46899.65
575.01	46646.88
575.17	46808.37
575.33	46649.22
575.49	46555.60
575.65	47012.00
575.82	46799.01
575.98	46878.59
576.14	47187.54
576.30	47295.21
576.46	46742.84
576.62	46890.29
576.79	46656.24
576.95	46770.93
577.11	46763.90
577.27	47180.52
577.43	46742.84
577.59	46644.54
577.75	46918.38
577.92	46719.43
578.08	46663.26
578.24	46543.89
578.40	46651.56
578.56	46714.75
578.72	47044.77
578.88	46995.62
579.04	47222.65
579.21	46604.75
579.37	46974.55
579.53	46909.02
579.69	46618.79
579.85	46794.33
580.01	46787.31
580.17	47185.20
580.33	47098.60
580.49	47339.68
580.65	47082.22
580.82	46887.95
580.98	46969.87
581.14	46639.86
581.30	47313.93
581.46	47206.26
581.62	47454.36
581.78	47063.49
581.94	47491.81
582.10	47278.82
582.26	47433.30
582.42	47316.27
582.58	47152.43
582.74	46796.67
582.90	47175.84
583.06	47498.83
583.22	47187.54
583.38	47107.96
583.54	47147.75
583.70	47143.07
583.86	47227.33
584.02	46890.29
584.18	47014.34
584.34	47327.97
584.50	46705.39
584.66	46824.76
584.82	46822.42
584.98	47346.70
585.14	47290.52
585.30	46733.48
585.46	47077.54
585.62	46553.26
585.78	46663.26
585.94	45902.59
586.10	46784.97
586.26	46756.88
586.42	47061.15
586.58	47014.34
586.74	47601.82
586.90	46981.57
587.06	46787.31
587.22	47136.05
587.38	47056.47
587.54	47508.19
587.70	47140.73
587.86	47182.86
588.02	47377.12
588.18	46960.51
588.34	46829.44
588.49	46457.29
588.65	46361.33
588.81	46808.37
588.97	46534.53
589.13	46227.92
589.29	46323.88
589.45	46391.76
589.61	47037.75
589.77	46939.44
589.93	47030.72
590.08	47023.70
590.24	47299.89
590.40	46803.69
590.56	47122.01
590.72	47026.04
590.88	46738.16
591.04	46775.61
591.20	47346.70
591.35	47309.25
591.51	47627.56
591.67	47037.75
591.83	47363.08
591.99	47072.85
592.15	46857.52
592.31	47084.56
592.46	47379.46
592.62	47063.49
592.78	47260.10
592.94	47213.29
593.10	47100.94
593.26	47433.30
593.41	47210.95
593.57	46995.62
593.73	47114.98
593.89	47353.72
594.05	46997.96
594.20	47388.83
594.36	47182.86
594.52	47147.75
594.68	47213.29
594.84	47089.24
594.99	47236.69
595.15	47026.04
595.31	47725.86
595.47	47049.45
595.62	47079.88
595.78	47430.96
595.94	47379.46
596.10	47519.90
596.25	47475.43
596.41	47477.77
596.57	47466.06
596.73	47456.70
596.88	47117.32
597.04	47519.90
597.20	47210.95
597.36	46824.76
597.51	47662.67
597.67	47051.79
597.83	47147.75
597.99	47882.68
598.14	47503.51
598.30	47353.72
598.46	47166.48
598.61	47320.95
598.77	47051.79
598.93	46834.12
599.09	47241.37
599.24	47590.11
599.40	47194.56
599.56	47686.07
599.71	47028.38
599.87	47494.15
600.03	47084.56
600.18	47185.20
600.34	46986.25
600.50	47618.20
600.65	46747.52
600.81	47255.42
600.97	47416.91
601.12	47854.59
601.28	47325.63
601.44	47154.77
601.59	47224.99
601.75	46754.54
601.91	47290.52
602.06	46820.08
602.22	47255.42
602.37	47372.44
602.53	47281.16
602.69	47253.08
602.84	47271.80
603.00	47278.82
603.16	47377.12
603.31	46911.36
603.47	47657.99
603.62	46649.22
603.78	47433.30
603.94	46885.61
604.09	47173.50
604.25	47449.68
604.40	47306.91
604.56	46937.10
604.71	47002.64
604.87	47033.07
605.03	47257.76
605.18	47117.32
605.34	47302.23
605.49	46569.64
605.65	47597.13
605.80	47028.38
605.96	47290.52
606.12	47206.26
606.27	47264.78
606.43	46803.69
606.58	47105.62
606.74	47105.62
606.89	46972.21
607.05	47274.14
607.20	47302.23
607.36	47086.90
607.51	47114.98
607.67	46951.15
607.82	47159.45
607.98	46894.97
608.13	46955.83
608.29	47056.47
608.44	46712.41
608.60	46373.03
608.75	46501.76
608.91	46579.00
609.06	46733.48
609.22	46878.59
609.37	46579.00
609.53	46883.27
609.68	46782.63
609.84	46904.34
609.99	46501.76
610.15	46712.41
610.30	46607.09
610.46	45921.31
610.61	46157.70
610.76	46595.38
610.92	46366.01
611.07	46508.79
611.23	46127.28
611.38	46478.36
611.54	46387.08
611.69	46614.11
611.84	46326.22
612.00	46784.97
612.15	46054.72
612.31	46464.32
612.46	46302.82
612.62	46569.64
612.77	46649.22
612.92	46370.69
613.08	46258.35
613.23	46499.42
613.39	45972.80
613.54	45663.85
613.69	46169.41
613.85	45827.69
614.00	46597.73
614.15	46579.00
614.31	46363.67
614.46	46550.91
614.62	46473.68
614.77	46361.33
614.92	46092.17
615.08	46253.67
615.23	46052.38
615.38	45975.14
615.54	45792.58
615.69	45680.24
615.84	45757.47
616.00	45869.82
616.15	45535.12
616.30	46146.00
616.46	45682.58
616.61	45319.79
616.76	45832.37
616.92	45319.79
617.07	45603.00
617.22	45532.78
617.37	45799.60
617.53	46241.96
617.68	46007.91
617.83	45881.52
617.99	45729.39
618.14	45830.03
618.29	45406.39
618.45	45191.06
618.60	45474.27
618.75	45556.19
618.90	45713.00
619.06	45670.87
619.21	45858.12
619.36	45331.50
619.51	45488.31
619.67	45043.61
619.82	45830.03
619.97	45893.22
620.12	45076.38
620.28	44872.75
620.43	45074.04
620.58	45219.15
620.73	45106.80
620.89	44774.45
621.04	44982.76
621.19	45160.64
621.34	45158.30
621.49	45191.06
621.65	44580.18
621.80	45687.26
621.95	44552.10
622.10	44828.28
622.25	44701.89
622.41	44889.13
622.56	44971.05
622.71	44875.09
622.86	44568.48
623.01	45228.51
623.16	44882.11
623.32	45085.74
623.47	44879.77
623.62	44854.03
623.77	44519.33
623.92	44772.11
624.07	44128.46
624.23	44327.41
624.38	44357.83
624.53	44060.58
624.68	44725.30
624.83	44807.22
624.98	44809.56
625.13	44580.18
625.29	44329.75
625.44	44694.87
625.59	44271.23
625.74	43711.84
625.89	43782.06
626.04	43934.20
626.19	44390.60
626.34	44222.08
626.49	44191.65
626.65	44273.57
626.80	44198.68
626.95	43845.26
627.10	43686.10
627.25	43798.44
627.40	43295.23
627.55	43718.87
627.70	43157.14
627.85	43175.86
628.00	43496.52
628.15	43983.35
628.30	43452.05
628.45	43903.77
628.60	43477.79
628.76	43653.33
628.91	43686.10
629.06	43526.94
629.21	43543.33
629.36	43227.35
629.51	43332.68
629.66	43203.95
629.81	43248.42
629.96	43416.94
630.11	43459.07
630.26	43337.36
630.41	43381.83
630.56	43241.40
630.71	43119.69
630.86	43112.67
631.01	43398.21
631.16	43194.59
631.31	43044.79
631.46	42218.58
631.61	43203.95
631.76	43227.35
631.91	43274.16
632.06	43037.77
632.21	43213.31
632.36	43175.86
632.51	42703.07
632.66	43042.45
632.81	42674.99
632.96	43100.97
633.10	42665.63
633.25	42700.73
633.40	42670.31
633.55	43217.99
633.70	42611.79
633.85	42120.28
634.00	43084.58
634.15	42403.49
634.30	42492.43
634.45	42480.72
634.60	42534.56
634.75	42628.18
634.90	43005.00
635.05	42988.62
635.19	42232.63
635.34	42887.98
635.49	42157.73
635.64	42419.87
635.79	42136.66
635.94	42291.14
636.09	42616.47
636.24	42492.43
636.39	42099.22
636.53	42157.73
636.68	42328.59
636.83	42113.26
636.98	42312.20
637.13	41794.95
637.28	42108.58
637.43	42419.87
637.57	42536.90
637.72	42150.71
637.87	42476.04
638.02	41993.89
638.17	42040.70
638.32	41490.68
638.46	41996.23
638.61	41591.32
638.76	41060.02
638.91	42328.59
639.06	41614.72
639.20	41689.62
639.35	41832.39
639.50	41729.41
639.65	41514.08
639.80	41743.45
639.94	41528.13
640.09	41373.65
640.24	41385.35
640.39	41165.34
640.54	41668.56
640.68	41111.51
640.83	41380.67
640.98	41284.71
641.13	41237.90
641.27	41820.69
641.42	41282.37
641.57	41312.80
641.72	41507.06
641.86	41130.23
642.01	40912.56
642.16	40893.84
642.31	40818.94
642.45	41436.84
642.60	41392.37
642.75	40879.80
642.90	41020.23
643.04	40940.65
643.19	40907.88
643.34	41221.52
643.48	40919.59
643.63	41163.00
643.78	40961.72
643.93	40666.81
644.07	40774.47
644.22	40673.83
644.37	40935.97
644.51	40624.68
644.66	40786.18
644.81	40744.05
644.95	41029.59
645.10	40968.74
645.25	40758.09
645.39	40900.86
645.54	40950.01
645.69	40392.97
645.83	40514.67
645.98	40636.38
646.13	40685.53
646.27	40748.73
646.42	40289.98
646.57	40453.82
646.71	40006.78
646.86	40594.25
647.00	40414.03
647.15	40465.52
647.30	40629.36
647.44	40194.02
647.59	40535.74
647.74	39800.81
647.88	40224.45
648.03	40095.72
648.17	39924.86
648.32	39634.63
648.47	39590.16
648.61	39856.98
648.76	40292.32
648.90	40002.10
649.05	39971.67
649.20	40128.48
649.34	39938.90
649.49	39625.27
649.63	39934.22
649.78	40088.70
649.92	39524.63
650.07	40210.40
650.21	39634.63
650.36	39599.52
650.51	39580.80
650.65	39658.04
650.80	40322.75
650.94	40039.54
651.09	39665.06
651.23	39639.31
651.38	39384.19
651.52	39278.87
651.67	39920.18
651.81	39278.87
651.96	39477.82
652.10	39384.19
652.25	39194.61
652.39	39239.08
652.54	39360.79
652.68	39278.87
652.83	39360.79
652.97	39672.08
653.12	39339.72
653.26	39241.42
653.41	38745.23
653.55	38883.32
653.70	39175.89
653.84	39253.12
653.99	38902.04
654.13	39225.04
654.27	39028.43
654.42	38981.62
654.56	38770.97
654.71	38946.51
654.85	38822.47
655.00	38712.46
655.14	38562.67
655.29	38106.26
655.43	38862.26
655.57	38501.81
655.72	38525.22
655.86	38337.98
656.01	38625.86
656.15	37989.24
656.30	38307.55
656.44	38686.71
656.58	37886.25
656.73	37940.08
656.87	38328.61
657.01	37907.32
657.16	37876.89
657.30	38071.15
657.45	37378.36
657.59	38146.05
657.73	37649.86
657.88	38007.96
658.02	37958.81
658.16	38361.38
658.31	38211.59
658.45	38469.04
658.60	38256.06
658.74	38230.31
658.88	38321.59
659.03	38007.96
659.17	37436.87
659.31	37949.45
659.46	37689.65
659.60	37600.71
659.74	37881.57
659.89	37841.78
660.03	37645.18
660.17	37593.68
660.32	37329.20
660.46	37773.91
660.60	37518.79
660.74	37577.30
660.89	37556.24
661.03	36928.97
661.17	37071.75
661.32	37230.90
661.46	37617.09
661.60	36928.97
661.74	37088.13
661.89	37038.98
662.03	37069.40
662.17	37146.64
662.31	36851.73
662.46	37357.29
662.60	36882.16
662.74	36985.15
662.88	37064.72
663.03	36858.76
663.17	36306.39
663.31	36374.27
663.45	36444.48
663.60	36355.54
663.74	36327.45
663.88	35777.43
664.02	36217.45
664.17	36510.02
664.31	35620.61
664.45	35690.83
664.59	36158.94
664.73	36013.82
664.88	36479.59
665.02	36144.89
665.16	36030.21
665.30	36208.09
665.44	35959.99
665.59	35349.11
665.73	35693.17
665.87	35747.00
666.01	35784.45
666.15	35246.13
666.29	35587.85
666.44	35672.10
666.58	35316.34
666.72	35503.59
666.86	35229.74
667.00	35721.26
667.14	35051.86
667.28	34749.93
667.43	34878.66
667.57	35234.42
667.71	35178.25
667.85	35159.53
667.99	34834.19
668.13	34951.22
668.27	34499.50
668.41	34983.99
668.56	34651.63
668.70	34930.16
668.84	34211.61
668.98	34934.84
669.12	34277.15
669.26	33874.57
669.40	34263.10
669.54	34017.35
669.68	34146.08
669.82	34197.57
669.96	33404.13
670.10	33713.08
670.25	33972.88
670.39	34113.31
670.53	33474.34
670.67	33443.91
670.81	33893.30
670.95	34092.24
671.09	33893.30
671.23	33621.80
671.37	33720.10
671.51	33347.95
671.65	33181.77
671.79	33408.81
671.93	32840.06
672.07	33352.63
672.21	32964.10
672.35	32919.63
672.49	32823.67
672.63	33078.79
672.77	32950.06
672.91	32985.17
673.05	32533.45
673.19	32477.27
673.33	32631.75
673.47	32732.39
673.61	32364.93
673.75	32631.75
673.89	31952.99
674.03	32147.26
674.17	31606.59
674.31	32051.30
674.45	31878.10
674.59	31831.29
674.73	32240.88
674.87	31927.25
675.01	32182.37
675.15	32149.60
675.29	31831.29
675.43	31756.39
675.56	31639.36
675.70	31494.25
675.84	31346.79
675.98	30457.39
676.12	31604.25
676.26	31335.09
676.40	30719.53
676.54	30857.62
676.68	31021.46
676.82	30368.45
676.96	30506.54
677.10	30522.93
677.23	30520.59
677.37	30602.50
677.51	30375.47
677.65	30209.29
677.79	30045.46
677.93	30583.78
678.07	30022.05
678.21	29656.93
678.34	29771.61
678.48	29710.76
678.62	29593.73
678.76	29378.40
678.90	29261.38
679.04	29549.26
679.18	29476.71
679.31	29336.27
679.45	28816.68
679.59	28716.03
679.73	28917.32
679.87	28809.65
680.00	29123.29
680.14	28549.85
680.28	28690.29
680.42	28531.13
680.56	28701.99
680.70	28379.00
680.83	28273.67
680.97	28325.16
681.11	27861.74
681.25	27690.88
681.39	27833.65
681.52	27515.34
681.66	27915.57
681.80	27768.12
681.94	27768.12
682.07	27573.85
682.21	27346.82
682.35	27227.45
682.49	27192.34
682.62	27061.27
682.76	27072.98
682.90	26874.03
683.04	26937.23
683.17	27105.74
683.31	26693.81
683.45	26703.17
683.59	26525.29
683.72	26260.81
683.86	26003.35
684.00	26099.31
684.13	26024.42
684.27	26267.83
684.41	25968.24
684.55	25752.91
684.68	25441.62
684.82	25729.51
684.96	25340.98
685.09	25991.65
685.23	25565.67
685.37	25621.84
685.50	25343.32
685.64	25195.87
685.78	25193.53
685.91	25083.52
686.05	25053.09
686.19	24844.79
686.32	24765.21
686.46	24177.73
686.60	23931.98
686.73	23894.53
686.87	23955.38
687.01	23917.93
687.14	23697.92
687.28	23496.64
687.42	23496.64
687.55	23491.96
687.69	23377.27
687.82	23442.81
687.96	23768.14
688.10	23491.96
688.23	23290.67
688.37	23346.84
688.50	22845.97
688.64	22771.07
688.78	22927.89
688.91	22838.95
689.05	22787.46
689.18	22324.03
689.32	22057.21
689.46	22515.95
689.59	22539.36
689.73	22569.79
689.86	22457.44
690.00	22490.21
690.13	22670.43
690.27	22455.10
690.41	22370.84
690.54	22036.14
690.68	22029.12
690.81	21942.52
690.95	21715.49
691.08	21876.99
691.22	21481.44
691.35	21783.37
691.49	21500.16
691.62	21656.98
691.76	21458.03
691.89	21305.90
692.03	21036.74
692.16	21242.70
692.30	21092.91
692.43	20837.79
692.57	20748.85
692.70	20889.28
692.84	20833.11
692.97	20631.82
693.11	20727.78
693.24	20224.57
693.38	20194.14
693.51	19953.07
693.65	20570.97
693.78	20128.61
693.92	20215.21
694.05	19880.51
694.19	19480.28
694.32	19721.35
694.45	19721.35
694.59	19791.57
694.72	19562.20
694.86	19606.67
694.99	19033.24
695.13	19030.90
695.26	18735.99
695.39	18927.91
695.53	19091.75
695.66	18951.32
695.80	18724.29
695.93	18773.44
696.07	18530.02
696.20	18838.97
696.33	18991.11
696.47	18476.19
696.60	18548.75
696.73	18597.90
696.87	18265.54
697.00	18157.88
697.14	18333.42
697.27	17848.93
697.40	18370.86
697.54	18087.66
697.67	17944.89
697.80	17905.10
697.94	17495.50
698.07	17584.44
698.21	17532.95
698.34	17713.17
698.47	17378.48
698.61	17359.75
698.74	17156.13
698.87	17132.72
699.01	16870.58
699.14	16812.07
699.27	16945.48
699.40	16987.61
699.54	16596.74
699.67	16636.53
699.80	16468.01
699.94	16767.60
700.07	16643.55
700.20	16273.74
700.34	16236.30
700.47	16379.07
700.60	16442.26
700.73	16533.54
700.87	16088.84
701.00	16018.63
701.13	15941.39
701.26	15939.05
701.40	15932.03
701.53	15854.79
701.66	15751.81
701.79	15344.55
701.93	15522.43
702.06	15103.48
702.19	15269.66
702.32	15496.69
702.46	15213.48
702.59	15222.84
702.72	15363.28
702.85	15140.93
702.99	15330.51
703.12	15194.76
703.25	15040.28
703.38	15131.56
703.51	14757.08
703.65	14801.55
703.78	14661.12
703.91	14569.83
704.04	14122.79
704.17	14162.58
704.31	14406.00
704.44	14068.96
704.57	14143.86
704.70	14183.65
704.83	14045.55
704.96	14214.07
705.10	13989.38
705.23	14174.28
>>>>>End Processed Spectral Data<<<<<
