SpectraSuite Data File
++++++++++++++++++++++++++++++++++++
Date: Fri Oct 25 10:46:56 EDT 2013
User: price-jones
Dark Spectrum Present: No
Reference Spectrum Present: No
Number of Sampled Component Spectra: 1
Spectrometers: USB2+H05261
Integration Time (usec): 100000 (USB2+H05261)
Spectra Averaged: 1 (USB2+H05261)
Boxcar Smoothing: 0 (USB2+H05261)
Correct for Electrical Dark: No (USB2+H05261)
Strobe/Lamp Enabled: No (USB2+H05261)
Correct for Detector Non-linearity: No (USB2+H05261)
Correct for Stray Light: No (USB2+H05261)
Number of Pixels in Processed Spectrum: 2048
>>>>>Begin Processed Spectral Data<<<<<
365.73	119.37
365.92	119.37
366.12	119.37
366.32	51.49
366.52	23.41
366.72	21.06
366.91	0.00
367.11	105.32
367.31	18.72
367.51	35.11
367.70	93.62
367.90	79.58
368.10	0.00
368.30	56.17
368.49	0.00
368.69	39.79
368.89	100.64
369.09	32.77
369.28	65.54
369.48	84.26
369.68	0.00
369.87	77.24
370.07	60.85
370.27	100.64
370.47	262.14
370.66	393.21
370.86	411.93
371.06	407.25
371.25	451.72
371.45	526.62
371.65	395.55
371.84	475.13
372.04	367.46
372.24	418.96
372.44	463.43
372.63	526.62
372.83	489.17
373.03	554.71
373.22	559.39
373.42	561.73
373.62	573.43
373.81	505.56
374.01	545.34
374.21	510.24
374.40	531.30
374.60	585.13
374.79	599.18
374.99	578.11
375.19	552.37
375.38	606.20
375.58	538.32
375.78	599.18
375.97	564.07
376.17	601.52
376.37	596.84
376.56	643.65
376.76	610.88
376.95	624.92
377.15	634.29
377.35	624.92
377.54	667.05
377.74	678.76
377.93	622.58
378.13	655.35
378.33	645.99
378.52	638.97
378.72	662.37
378.91	706.84
379.11	629.60
379.31	697.48
379.50	653.01
379.70	723.23
379.89	697.48
380.09	674.07
380.28	741.95
380.48	716.20
380.68	641.31
380.87	697.48
381.07	755.99
381.26	720.88
381.46	709.18
381.65	753.65
381.85	770.04
382.04	763.01
382.24	730.25
382.43	781.74
382.63	767.70
382.83	744.29
383.02	674.07
383.22	779.40
383.41	681.10
383.61	657.69
383.80	741.95
384.00	755.99
384.19	777.06
384.39	866.00
384.58	884.72
384.78	842.59
384.97	781.74
385.17	844.93
385.36	826.21
385.56	753.65
385.75	866.00
385.95	781.74
386.14	784.08
386.34	844.93
386.53	866.00
386.72	767.70
386.92	868.34
387.11	931.53
387.31	908.13
387.50	828.55
387.70	816.85
387.89	964.30
388.09	851.96
388.28	910.47
388.48	858.98
388.67	880.04
388.86	945.58
389.06	954.94
389.25	971.32
389.45	936.21
389.64	1011.11
389.84	1043.88
390.03	875.36
390.22	973.66
390.42	1001.75
390.61	1004.09
390.81	1001.75
391.00	1069.62
391.19	1074.31
391.39	1060.26
391.58	1081.33
391.78	1069.62
391.97	1062.60
392.16	1062.60
392.36	1008.77
392.55	971.32
392.75	966.64
392.94	1018.13
393.13	1032.18
393.33	959.62
393.52	1137.50
393.71	1165.59
393.91	1142.18
394.10	1090.69
394.29	1139.84
394.49	1167.93
394.68	1287.29
394.88	1151.54
395.07	1221.76
395.26	1158.57
395.46	1238.14
395.65	1263.89
395.84	1228.78
396.04	1291.98
396.23	1186.65
396.42	1139.84
396.62	1310.70
396.81	1228.78
397.00	1214.74
397.19	1261.55
397.39	1287.29
397.58	1299.00
397.77	1263.89
397.97	1385.60
398.16	1441.77
398.35	1418.36
398.55	1451.13
398.74	1451.13
398.93	1465.18
399.12	1502.62
399.32	1446.45
399.51	1448.79
399.70	1544.75
399.90	1523.69
400.09	1547.09
400.28	1619.65
400.47	1643.06
400.67	1593.90
400.86	1638.38
401.05	1570.50
401.24	1652.42
401.44	1694.55
401.63	1673.48
401.82	1720.29
402.01	1666.46
402.21	1659.44
402.40	1703.91
402.59	1727.32
402.78	1739.02
402.97	1708.59
403.17	1717.95
403.36	1849.02
403.55	1823.28
403.74	1877.11
403.93	1816.26
404.13	1806.89
404.32	1893.49
404.51	1834.98
404.70	1856.04
404.89	1914.56
405.09	1930.94
405.28	1968.39
405.47	1816.26
405.66	1984.77
405.85	1914.56
406.05	1888.81
406.24	2010.52
406.43	2017.54
406.62	2001.16
406.81	2062.01
407.00	2038.61
407.20	1991.80
407.39	2047.97
407.58	2071.37
407.77	2108.82
407.96	2207.13
408.15	2181.38
408.34	2005.84
408.54	2167.34
408.73	2289.04
408.92	2132.23
409.11	2359.26
409.30	2317.13
409.49	2267.98
409.68	2267.98
409.87	2345.22
410.07	2286.70
410.26	2331.17
410.45	2406.07
410.64	2321.81
410.83	2410.75
411.02	2431.82
411.21	2497.35
411.40	2541.82
411.59	2607.36
411.78	2518.42
411.98	2539.48
412.17	2602.68
412.36	2672.89
412.55	2715.02
412.74	2691.62
412.93	2729.06
413.12	2527.78
413.31	2818.00
413.50	2794.60
413.69	2843.75
413.88	2818.00
414.07	2799.28
414.26	2703.32
414.45	2925.67
414.64	2953.76
414.83	3014.61
415.02	3035.67
415.22	3012.27
415.41	3096.53
415.60	3012.27
415.79	3108.23
415.98	3248.66
416.17	3269.73
416.36	3169.09
416.55	3082.49
416.74	3171.43
416.93	3119.93
417.12	3080.14
417.31	3187.81
417.50	3162.06
417.69	3309.52
417.88	3449.95
418.07	3323.56
418.26	3442.93
418.45	3389.10
418.64	3552.93
418.83	3485.06
419.02	3473.36
419.21	3688.68
419.39	3506.12
419.58	3461.65
419.77	3494.42
419.96	3632.51
420.15	3641.87
420.34	3688.68
420.53	3721.45
420.72	3805.71
420.91	3815.07
421.10	3805.71
421.29	3831.46
421.48	3932.10
421.67	3747.20
421.86	3726.13
422.05	3714.43
422.24	3801.03
422.43	3747.20
422.61	3517.83
422.80	3932.10
422.99	3786.99
423.18	3866.56
423.37	3913.38
423.56	3911.04
423.75	3934.44
423.94	3798.69
424.13	3688.68
424.32	3674.64
424.50	3948.48
424.69	4119.34
424.88	3908.69
425.07	3920.40
425.26	3925.08
425.45	3885.29
425.64	3960.19
425.83	3688.68
426.01	3882.95
426.20	3943.80
426.39	3908.69
426.58	3845.50
426.77	3873.59
426.96	3789.33
427.15	3948.48
427.33	3892.31
427.52	3955.51
427.71	3974.23
427.90	4067.85
428.09	4189.56
428.28	3976.57
428.46	4014.02
428.65	4170.83
428.84	4372.12
429.03	4170.83
429.22	3964.87
429.40	4212.96
429.59	4105.30
429.78	3943.80
429.97	3978.91
430.16	4121.68
430.34	4166.15
430.53	4046.79
430.72	4212.96
430.91	4189.56
431.10	4166.15
431.28	4512.55
431.47	4432.97
431.66	4582.77
431.85	4535.96
432.03	4496.17
432.22	4690.43
432.41	4713.84
432.60	4489.15
432.79	4613.20
432.97	4671.71
433.16	4652.98
433.35	4554.68
433.54	4624.90
433.72	4627.24
433.91	4746.61
434.10	4624.90
434.28	4737.24
434.47	4856.61
434.66	4884.70
434.85	4858.95
435.03	4849.59
435.22	4863.63
435.41	4910.44
435.59	4947.89
435.78	5062.58
435.97	5048.54
436.16	5060.24
436.34	4971.30
436.53	5121.09
436.72	5111.73
436.90	5004.07
437.09	5102.37
437.28	5085.98
437.46	5139.82
437.65	5046.20
437.84	5004.07
438.02	5078.96
438.21	5032.15
438.40	5104.71
438.58	5224.08
438.77	5369.19
438.96	5364.51
439.14	5565.79
439.33	5448.77
439.52	5399.62
439.70	5469.83
439.89	5589.20
440.08	5614.95
440.26	5799.85
440.45	5593.88
440.63	5715.59
440.82	5614.95
441.01	5706.23
441.19	5935.60
441.38	5830.27
441.57	5961.34
441.75	6141.57
441.94	6225.82
442.12	6314.77
442.31	6319.45
442.50	6274.98
442.68	6303.06
442.87	6115.82
443.05	6211.78
443.24	6256.25
443.43	6223.48
443.61	6502.01
443.80	6427.11
443.98	6317.11
444.17	6094.76
444.35	6214.12
444.54	6384.98
444.73	6588.61
444.91	6366.26
445.10	6317.11
445.28	6487.96
445.47	6296.04
445.65	6319.45
445.84	6352.21
446.02	6546.48
446.21	6511.37
446.39	6361.58
446.58	6427.11
446.77	6539.46
446.95	6326.47
447.14	6516.05
447.32	6567.54
447.51	6630.74
447.69	6511.37
447.88	6527.75
448.06	6480.94
448.25	6637.76
448.43	6855.43
448.62	6661.16
448.80	6588.61
448.99	6693.93
449.17	6642.44
449.36	6644.78
449.54	6808.62
449.73	6986.50
449.91	7035.65
450.10	7089.48
450.28	7026.29
450.46	7133.95
450.65	7068.42
450.83	7108.21
451.02	7162.04
451.20	7148.00
451.39	6958.41
451.57	7059.06
451.76	6850.75
451.94	6986.50
452.13	7222.89
452.31	6939.69
452.49	6909.26
452.68	7117.57
452.86	7293.11
453.05	7183.10
453.23	7325.88
453.42	7180.76
453.60	7225.23
453.78	7253.32
453.97	7199.49
454.15	7283.75
454.34	7417.16
454.52	7370.35
454.70	7428.86
454.89	7515.46
455.07	7524.82
455.26	7487.37
455.44	7681.64
455.62	7588.02
455.81	7473.33
455.99	7810.37
456.17	7805.69
456.36	7440.56
456.54	7782.28
456.73	7873.56
456.91	7955.48
457.09	8004.63
457.28	7981.23
457.46	7995.27
457.64	8021.02
457.83	7936.76
458.01	8091.23
458.19	8070.17
458.38	7868.88
458.56	8205.92
458.74	8079.53
458.93	7985.91
459.11	8107.62
459.29	8147.40
459.48	8182.51
459.66	8098.25
459.84	8262.09
460.03	8325.29
460.21	8454.02
460.39	8493.80
460.57	8367.42
460.76	8458.70
460.94	8444.65
461.12	8388.48
461.31	8690.41
461.49	8409.54
461.67	8308.90
461.85	8669.34
462.04	8631.90
462.22	9111.71
462.40	8709.13
462.59	8554.66
462.77	8575.72
462.95	8669.34
463.13	8840.20
463.32	8830.84
463.50	8910.42
463.68	8868.29
463.86	8968.93
464.05	8947.87
464.23	8760.63
464.41	8940.85
464.59	8781.69
464.78	9074.26
464.96	8868.29
465.14	8933.82
465.32	9064.89
465.50	9060.21
465.69	9153.84
465.87	9191.28
466.05	9067.24
466.23	9217.03
466.41	8980.64
466.60	9348.10
466.78	8861.27
466.96	9123.41
467.14	9266.18
467.32	9167.88
467.51	9266.18
467.69	9043.83
467.87	9275.54
468.05	9217.03
468.23	9355.12
468.41	9221.71
468.60	9338.74
468.78	9439.38
468.96	9336.40
469.14	9540.02
469.32	9841.95
469.50	9397.25
469.69	9827.91
469.87	9589.17
470.05	9542.36
470.23	9745.99
470.41	9708.54
470.59	9865.36
470.77	9781.10
470.95	9722.59
471.14	10040.90
471.32	9715.56
471.50	10132.18
471.68	10120.48
471.86	10373.25
472.04	10335.81
472.22	10319.42
472.40	9951.96
472.58	10068.98
472.77	10279.63
472.95	10331.12
473.13	10616.67
473.31	10436.45
473.49	10307.72
473.67	10527.73
473.85	10527.73
474.03	10946.69
474.21	10686.89
474.39	10916.26
474.57	10743.06
474.75	11159.67
474.93	10942.00
475.12	11105.84
475.30	10904.56
475.48	11206.48
475.66	11056.69
475.84	11185.42
476.02	11220.53
476.20	11236.91
476.38	11456.92
476.56	11817.36
476.74	11562.25
476.92	11639.48
477.10	11646.51
477.28	11957.80
477.46	11936.73
477.64	12009.29
477.82	12194.19
478.00	12622.51
478.18	12559.31
478.36	12339.30
478.54	12423.56
478.72	12503.14
478.90	12741.88
479.08	12779.32
479.26	12905.71
479.44	12957.21
479.62	13177.22
479.80	13076.57
479.98	13497.87
480.16	13650.00
480.34	13163.17
480.52	13341.05
480.70	13516.59
480.88	13502.55
481.06	13750.65
481.24	13912.14
481.41	13947.25
481.59	14335.78
481.77	14312.38
481.95	14129.81
482.13	14530.05
482.31	14214.07
482.49	14534.73
482.67	14672.82
482.85	14855.38
483.03	14986.45
483.21	15087.09
483.39	15091.77
483.57	15426.47
483.74	15307.10
483.92	15609.03
484.10	15374.98
484.28	15822.02
484.46	15765.85
484.64	15953.09
484.82	15815.00
485.00	16018.63
485.18	16189.49
485.35	16446.94
485.53	16168.42
485.71	16219.91
485.89	16416.52
486.07	16149.70
486.25	16673.98
486.43	16521.84
486.61	16772.28
486.78	17074.21
486.96	17085.91
487.14	17441.67
487.32	17893.40
487.50	17605.51
487.68	17825.52
487.85	18251.50
488.03	18361.50
488.21	18192.98
488.39	18090.00
488.57	18263.20
488.75	18429.38
488.92	18916.21
489.10	18988.77
489.28	19227.50
489.46	19297.72
489.64	19080.05
489.81	19871.15
489.99	19852.42
490.17	20091.16
490.35	20240.95
490.53	19978.81
490.70	20255.00
490.88	20182.44
491.06	20898.64
491.24	20758.21
491.41	20283.08
491.59	20540.54
491.77	20610.76
491.95	21088.23
492.13	21039.08
492.30	21455.69
492.48	21631.23
492.66	21415.90
492.84	21352.71
493.01	21912.10
493.19	21715.49
493.37	21984.65
493.54	21895.71
493.72	22232.75
493.90	22445.74
494.08	22640.00
494.25	22918.53
494.43	22827.24
494.61	23124.49
494.79	23250.88
494.96	23044.91
495.14	23419.40
495.32	23236.84
495.49	23379.61
495.67	23344.50
495.85	23587.92
496.02	24173.05
496.20	23964.75
496.38	24290.08
496.55	24170.71
496.73	24961.81
496.91	24425.83
497.09	24929.05
497.26	24755.85
497.44	24687.97
497.62	24685.63
497.79	25099.90
497.97	24814.36
498.14	25146.72
498.32	25453.33
498.50	25422.90
498.67	25799.73
498.85	25907.39
499.03	25914.41
499.20	25968.24
499.38	26059.52
499.56	26113.36
499.73	26291.24
499.91	26443.37
500.08	26326.35
500.26	25867.60
500.44	26309.96
500.61	26551.04
500.79	26389.54
500.97	26501.89
501.14	27206.39
501.32	27096.38
501.49	26583.80
501.67	26913.82
501.84	27096.38
502.02	27325.75
502.20	27033.19
502.37	27604.28
502.55	27461.51
502.72	27545.76
502.90	27686.20
503.07	27915.57
503.25	27562.15
503.43	27868.76
503.60	27775.14
503.78	27917.91
503.95	27990.47
504.13	28327.50
504.30	28400.06
504.48	28158.99
504.65	28463.25
504.83	28797.95
505.01	28755.82
505.18	28879.87
505.36	29130.31
505.53	28725.39
505.71	29432.24
505.88	29483.73
506.06	28783.91
506.23	29427.56
506.41	29158.39
506.58	29357.34
506.76	29422.87
506.93	29528.20
507.11	29881.62
507.28	29853.53
507.46	29844.17
507.63	29638.20
507.81	29982.26
507.98	29935.45
508.16	30057.16
508.33	30883.37
508.50	30658.68
508.68	30469.09
508.85	30897.41
509.03	30567.40
509.20	30682.08
509.38	31026.14
509.55	30714.85
509.73	31234.45
509.90	31344.45
510.08	31461.48
510.25	31005.08
510.42	31454.46
510.60	31622.98
510.77	31299.98
510.95	31817.24
511.12	31557.44
511.30	31791.50
511.47	32098.11
511.64	32215.13
511.82	31910.86
511.99	31723.62
512.17	32109.81
512.34	32084.06
512.51	32657.49
512.69	32500.68
512.86	32093.43
513.04	32521.74
513.21	32676.22
513.38	32584.94
513.56	32381.31
513.73	32378.97
513.90	32994.53
514.08	32765.16
514.25	32669.20
514.43	33326.89
514.60	33460.30
514.77	33076.45
514.95	33596.05
515.12	33518.81
515.29	33404.13
515.47	33635.84
515.64	33467.32
515.81	33553.92
515.99	33621.80
516.16	33460.30
516.33	33621.80
516.51	33177.09
516.68	33010.92
516.85	33184.12
517.03	33734.14
517.20	33677.97
517.37	33853.51
517.54	34096.92
517.72	34218.63
517.89	33755.21
518.06	33984.58
518.24	34249.06
518.41	34047.77
518.58	34291.19
518.75	34616.52
518.93	34763.98
519.10	34754.61
519.27	34859.94
519.45	34637.59
519.62	34939.52
519.79	35248.47
519.96	35009.73
520.14	35669.76
520.31	35037.82
520.48	35096.33
520.65	35117.40
520.83	35491.88
521.00	35747.00
521.17	35857.01
521.34	35913.18
521.52	35784.45
521.69	35894.46
521.86	36046.59
522.03	36128.51
522.20	36456.18
522.38	36421.08
522.55	36385.97
522.72	36165.96
522.89	35924.88
523.07	36201.07
523.24	36219.79
523.41	36760.45
523.58	36624.70
523.75	37235.58
523.92	37127.92
524.10	36734.71
524.27	36863.44
524.44	37390.06
524.61	36879.82
524.78	37280.05
524.96	37418.14
525.13	37853.48
525.30	38073.49
525.47	37801.99
525.64	37404.10
525.81	37668.58
525.98	37013.23
526.16	37158.34
526.33	36921.95
526.50	37230.90
526.67	37418.14
526.84	37607.73
527.01	37476.66
527.18	37628.79
527.36	37752.84
527.53	38066.47
527.70	38309.89
527.87	38618.84
528.04	38059.45
528.21	37984.55
528.38	38012.64
528.55	38724.16
528.72	38555.64
528.89	38827.15
529.07	38663.31
529.24	38487.77
529.41	38436.28
529.58	38354.36
529.75	38536.92
529.92	38850.55
530.09	38658.63
530.26	38953.54
530.43	38888.00
530.60	39189.93
530.77	38684.37
530.94	39541.01
531.11	38705.44
531.28	38965.24
531.46	39152.48
531.63	39199.29
531.80	39384.19
531.97	39000.35
532.14	39695.49
532.31	38754.59
532.48	39510.58
532.65	39337.38
532.82	39297.59
532.99	39426.32
533.16	39445.05
533.33	39658.04
533.50	39655.70
533.67	39915.50
533.84	39922.52
534.01	39704.85
534.18	39728.25
534.35	40472.54
534.52	40219.77
534.69	40769.79
534.86	40205.72
535.03	39910.82
535.20	40620.00
535.37	40648.08
535.54	41141.94
535.71	40589.57
535.88	40182.32
536.05	40191.68
536.22	40968.74
536.38	40446.80
536.55	40547.44
536.72	40601.27
536.89	40643.40
537.06	40610.64
537.23	40730.00
537.40	40367.22
537.57	40734.68
537.74	40992.14
537.91	41448.55
538.08	40821.28
538.25	40692.55
538.42	40940.65
538.59	41361.95
538.75	40697.24
538.92	41055.34
539.09	41111.51
539.26	41144.28
539.43	41296.41
539.60	41507.06
539.77	41235.56
539.94	41390.03
540.11	41371.31
540.28	41380.67
540.44	41132.57
540.61	41359.61
540.78	41457.91
540.95	41298.75
541.12	41661.54
541.29	41116.19
541.46	41830.05
541.62	41876.86
541.79	42024.32
541.96	41780.90
542.13	41605.36
542.30	41954.10
542.47	41551.53
542.63	42120.28
542.80	41848.78
542.97	42459.66
543.14	42831.80
543.31	42527.53
543.48	43063.52
543.64	42997.98
543.81	42574.34
543.98	42754.57
544.15	42405.83
544.32	42480.72
544.48	42941.81
544.65	42749.88
544.82	42859.89
544.99	42700.73
545.16	43091.60
545.32	42951.17
545.49	42927.77
545.66	43320.98
545.83	43173.52
546.00	43320.98
546.16	42794.36
546.33	43021.39
546.50	42731.16
546.67	43246.08
546.83	42586.05
547.00	43522.26
547.17	43175.86
547.34	43124.37
547.50	43119.69
547.67	43826.53
547.84	43356.08
548.00	43295.23
548.17	43545.67
548.34	43470.77
548.51	44179.95
548.67	44119.10
548.84	44079.31
549.01	43477.79
549.18	43976.33
549.34	43466.09
549.51	44053.56
549.68	43922.49
549.84	43686.10
550.01	44383.58
550.18	44030.16
550.34	44098.03
550.51	44142.50
550.68	43847.60
550.84	43604.18
551.01	44076.97
551.18	44184.63
551.34	44179.95
551.51	44006.75
551.68	44376.56
551.84	44477.20
552.01	43887.39
552.18	43915.47
552.34	43955.26
552.51	44086.33
552.68	44266.55
552.84	44402.30
553.01	44563.80
553.18	44282.94
553.34	44423.37
553.51	44093.35
553.67	44282.94
553.84	44453.79
554.01	44994.46
554.17	44491.24
554.34	44615.29
554.51	44245.49
554.67	45022.54
554.84	44364.85
555.00	44449.11
555.17	44329.75
555.33	45191.06
555.50	44655.08
555.67	44945.31
555.83	44854.03
556.00	44804.88
556.16	45181.70
556.33	44935.95
556.50	45024.89
556.66	45071.70
556.83	44704.23
556.99	45399.37
557.16	45406.39
557.32	45003.82
557.49	44811.90
557.65	44797.85
557.82	44781.47
557.98	44982.76
558.15	45237.87
558.32	45043.61
558.48	44542.74
558.65	44912.54
558.81	45127.87
558.98	45177.02
559.14	44877.43
559.31	45188.72
559.47	45024.89
559.64	45387.67
559.80	45240.21
559.97	45038.93
560.13	44919.56
560.30	45038.93
560.46	45581.93
560.63	45387.67
560.79	45626.40
560.96	45713.00
561.12	45595.98
561.29	45535.12
561.45	45186.38
561.61	46106.21
561.78	45787.90
561.94	45380.65
562.11	45565.55
562.27	45565.55
562.44	45209.79
562.60	45181.70
562.77	45886.20
562.93	45624.06
563.10	45830.03
563.26	45631.08
563.42	45705.98
563.59	45418.10
563.75	45605.34
563.92	45429.80
564.08	45570.23
564.24	45741.09
564.41	45324.47
564.57	45619.38
564.74	45666.19
564.90	45832.37
565.07	45858.12
565.23	45907.27
565.39	45832.37
565.56	45979.82
565.72	45741.09
565.88	45879.18
566.05	45764.49
566.21	45626.40
566.38	45792.58
566.54	45518.74
566.70	45984.51
566.87	46094.51
567.03	46274.73
567.19	46253.67
567.36	45865.14
567.52	46188.13
567.68	46267.71
567.85	46153.02
568.01	45970.46
568.17	45680.24
568.34	45923.65
568.50	45727.05
568.66	45823.01
568.83	46019.61
568.99	45839.39
569.15	45705.98
569.32	45860.46
569.48	45261.28
569.64	46473.68
569.81	46059.40
569.97	45743.43
570.13	45900.25
570.30	45820.67
570.46	45485.97
570.62	45780.88
570.78	45820.67
570.95	45652.15
571.11	46028.98
571.27	45722.37
571.43	45694.28
571.60	45855.78
571.76	46050.04
571.92	45914.29
572.09	45874.50
572.25	46176.43
572.41	45942.38
572.57	46557.94
572.74	46424.53
572.90	46824.76
573.06	45965.78
573.22	45818.33
573.38	45755.13
573.55	46012.59
573.71	46370.69
573.87	45972.80
574.03	45996.21
574.20	46232.60
574.36	45460.23
574.52	46241.96
574.68	46300.48
574.84	45970.46
575.01	46436.23
575.17	45881.52
575.33	45691.94
575.49	45830.03
575.65	46401.12
575.82	46457.29
575.98	46089.83
576.14	46117.92
576.30	46232.60
576.46	46188.13
576.62	46131.96
576.79	46321.54
576.95	46005.57
577.11	45820.67
577.27	46117.92
577.43	46567.30
577.59	45900.25
577.75	46176.43
577.92	45883.86
578.08	45773.86
578.24	45799.60
578.40	46501.76
578.56	46284.09
578.72	45951.74
578.88	46595.38
579.04	46567.30
579.21	46007.91
579.37	46124.94
579.53	46356.65
579.69	46089.83
579.85	46024.29
580.01	46567.30
580.17	46171.75
580.33	46490.06
580.49	46197.49
580.65	46190.47
580.82	46281.75
580.98	46398.78
581.14	46160.05
581.30	46237.28
581.46	46478.36
581.62	46328.56
581.78	46349.63
581.94	46480.70
582.10	46321.54
582.26	46485.38
582.42	46429.21
582.58	46307.50
582.74	46251.33
582.90	46183.45
583.06	46452.61
583.22	46557.94
583.38	46443.25
583.54	46417.50
583.70	46274.73
583.86	46279.41
584.02	45888.54
584.18	46099.19
584.34	46181.11
584.50	46562.62
584.66	46408.14
584.82	46176.43
584.98	46380.06
585.14	46649.22
585.30	46436.23
585.46	46445.59
585.62	46394.10
585.78	45977.48
585.94	45949.40
586.10	46361.33
586.26	46176.43
586.42	46244.30
586.58	46799.01
586.74	46263.03
586.90	45970.46
587.06	45886.20
587.22	46071.10
587.38	46019.61
587.54	46483.04
587.70	46333.24
587.86	46251.33
588.02	46522.83
588.18	46447.93
588.34	46246.65
588.49	46047.70
588.65	45848.75
588.81	45745.77
588.97	46087.49
589.13	45755.13
589.29	45993.87
589.45	46309.84
589.61	46520.49
589.77	46300.48
589.93	46375.37
590.08	46600.07
590.24	46684.33
590.40	46522.83
590.56	46937.10
590.72	46691.35
590.88	45954.08
591.04	46553.26
591.20	46618.79
591.35	46810.71
591.51	46988.60
591.67	46550.91
591.83	46651.56
591.99	46536.87
592.15	46323.88
592.31	46656.24
592.46	46876.25
592.62	46574.32
592.78	46412.82
592.94	46810.71
593.10	46925.40
593.26	46607.09
593.41	46333.24
593.57	46515.81
593.73	46344.95
593.89	46557.94
594.05	46387.08
594.20	46480.70
594.36	46955.83
594.52	46663.26
594.68	46384.74
594.84	46050.04
594.99	47014.34
595.15	46380.06
595.31	47063.49
595.47	46660.92
595.62	46663.26
595.78	46656.24
595.94	46827.10
596.10	46869.23
596.25	46225.58
596.41	46768.58
596.57	46569.64
596.73	46571.98
596.88	46302.82
597.04	46677.30
597.20	46358.99
597.36	46483.04
597.51	46461.97
597.67	46583.68
597.83	46681.98
597.99	46948.81
598.14	46557.94
598.30	46717.09
598.46	46855.18
598.61	46590.70
598.77	46490.06
598.93	46515.81
599.09	46939.44
599.24	47070.51
599.40	47082.22
599.56	46806.03
599.71	46733.48
599.87	46955.83
600.03	46829.44
600.18	47065.83
600.34	46607.09
600.50	46763.90
600.65	46197.49
600.81	46810.71
600.97	47089.24
601.12	47040.09
601.28	46738.16
601.44	46436.23
601.59	46642.20
601.75	46284.09
601.91	46424.53
602.06	46541.55
602.22	46440.91
602.37	46476.02
602.53	46461.97
602.69	46471.34
602.84	46501.76
603.00	46073.45
603.16	46689.01
603.31	46356.65
603.47	46351.97
603.62	46424.53
603.78	46567.30
603.94	46251.33
604.09	46857.52
604.25	46480.70
604.40	46461.97
604.56	46347.29
604.71	46471.34
604.87	46485.38
605.03	47012.00
605.18	46497.08
605.34	46248.99
605.49	46665.60
605.65	46909.02
605.80	46340.27
605.96	46267.71
606.12	46309.84
606.27	46789.65
606.43	46248.99
606.58	46361.33
606.74	45951.74
606.89	46656.24
607.05	46316.86
607.20	46300.48
607.36	46017.27
607.51	46354.31
607.67	46237.28
607.82	46485.38
607.98	46618.79
608.13	46005.57
608.29	45418.10
608.44	45951.74
608.60	45904.93
608.75	46047.70
608.91	46092.17
609.06	45684.92
609.22	46071.10
609.37	45963.44
609.53	46511.13
609.68	46113.23
609.84	45982.16
609.99	46108.55
610.15	45984.51
610.30	46010.25
610.46	45909.61
610.61	46068.76
610.76	45954.08
610.92	46082.81
611.07	45741.09
611.23	45991.53
611.38	46241.96
611.54	45848.75
611.69	46117.92
611.84	45635.77
612.00	45354.90
612.15	45579.59
612.31	45815.99
612.46	45830.03
612.62	45942.38
612.77	45626.40
612.92	45933.01
613.08	45439.16
613.23	45713.00
613.39	45551.51
613.54	45640.45
613.69	45731.73
613.85	45490.65
614.00	45408.73
614.15	45694.28
614.31	45429.80
614.46	45689.60
614.62	45729.39
614.77	45345.54
614.92	45680.24
615.08	45382.99
615.23	45413.41
615.38	45698.96
615.54	45233.19
615.69	45221.49
615.84	45385.33
616.00	45268.30
616.15	45666.19
616.30	45364.26
616.46	44720.62
616.61	44921.90
616.76	45460.23
616.92	45120.85
617.07	44547.42
617.22	44919.56
617.37	44648.06
617.53	45055.31
617.68	44889.13
617.83	45127.87
617.99	44774.45
618.14	45439.16
618.29	45006.16
618.45	44287.62
618.60	45010.84
618.75	44704.23
618.90	44891.48
619.06	44767.43
619.21	44830.62
619.36	44797.85
619.51	44987.44
619.67	44582.52
619.82	45116.17
619.97	44945.31
620.12	45062.33
620.28	44453.79
620.43	44753.38
620.58	44769.77
620.73	44617.63
620.89	44634.02
621.04	44460.82
621.19	44526.35
621.34	44018.46
621.49	44526.35
621.65	44715.93
621.80	44294.64
621.95	43969.30
622.10	43971.64
622.25	43983.35
622.41	44091.01
622.56	43882.70
622.71	44151.87
622.86	44268.89
623.01	44533.37
623.16	44126.12
623.32	44198.68
623.47	44449.11
623.62	44273.57
623.77	44196.34
623.92	43866.32
624.07	44271.23
624.23	43627.59
624.38	43550.35
624.53	43831.21
624.68	43718.87
624.83	44222.08
624.98	44112.08
625.13	43856.96
625.29	43672.06
625.44	43522.26
625.59	43538.65
625.74	43463.75
625.89	43302.25
626.04	43217.99
626.19	43613.54
626.34	43643.97
626.49	43580.78
626.65	43150.12
626.80	43538.65
626.95	43147.78
627.10	42909.04
627.25	42738.18
627.40	43365.45
627.55	42522.85
627.70	42707.76
627.85	43002.66
628.00	42871.59
628.15	43016.71
628.30	42799.04
628.45	43227.35
628.60	42635.20
628.76	43428.64
628.91	43463.75
629.06	42794.36
629.21	43086.92
629.36	43192.25
629.51	42824.78
629.66	42850.53
629.81	42223.26
629.96	42391.78
630.11	42653.92
630.26	42829.46
630.41	43367.79
630.56	43007.34
630.71	42759.25
630.86	42487.74
631.01	42787.33
631.16	42747.54
631.31	42576.69
631.46	42106.24
631.61	42604.77
631.76	42754.57
631.91	42740.52
632.06	42873.93
632.21	42328.59
632.36	42747.54
632.51	42459.66
632.66	42445.62
632.81	42497.11
632.96	42225.60
633.10	42241.99
633.25	42525.19
633.40	42494.77
633.55	42153.05
633.70	42178.79
633.85	42171.77
634.00	42370.72
634.15	41593.66
634.30	42445.62
634.45	41696.64
634.60	42239.65
634.75	42354.33
634.90	42195.18
635.05	41792.61
635.19	41928.36
635.34	42344.97
635.49	42384.76
635.64	41694.30
635.79	42354.33
635.94	41408.76
636.09	41830.05
636.24	41783.24
636.39	41691.96
636.53	41504.72
636.68	41401.74
636.83	41523.44
636.98	41801.97
637.13	41256.62
637.28	41624.09
637.43	41516.42
637.57	41773.88
637.72	41874.52
637.87	41340.88
638.02	41586.64
638.17	41207.47
638.32	41340.88
638.46	41230.88
638.61	41439.18
638.76	40797.88
638.91	41125.55
639.06	41303.43
639.20	41537.49
639.35	41476.63
639.50	41364.29
639.65	41422.80
639.80	41516.42
639.94	41240.24
640.09	40664.47
640.24	40655.11
640.39	40996.82
640.54	41146.62
640.68	41041.29
640.83	40725.32
640.98	41352.58
641.13	40484.25
641.27	41591.32
641.42	41020.23
641.57	41088.10
641.72	41045.97
641.86	40355.52
642.01	40587.23
642.16	40425.73
642.31	39917.84
642.45	40484.25
642.60	40428.07
642.75	40594.25
642.90	40432.75
643.04	40477.22
643.19	40205.72
643.34	40591.91
643.48	40240.83
643.63	40011.46
643.78	39835.92
643.93	40205.72
644.07	40243.17
644.22	40369.56
644.37	40151.89
644.51	40278.28
644.66	40428.07
644.81	40526.38
644.95	40498.29
645.10	40624.68
645.25	40154.23
645.39	39950.60
645.54	40376.58
645.69	40041.88
645.83	39508.24
645.98	40453.82
646.13	40191.68
646.27	40360.20
646.42	40030.18
646.57	39873.37
646.71	40027.84
646.86	39941.24
647.00	39723.57
647.15	39519.95
647.30	40245.51
647.44	39620.59
647.59	39473.13
647.74	39622.93
647.88	39676.76
648.03	39981.03
648.17	39538.67
648.32	39187.59
648.47	39569.10
648.61	39253.12
648.76	40109.76
648.90	39566.76
649.05	39447.39
649.20	39849.96
649.34	39580.80
649.49	39089.29
649.63	39164.18
649.78	39416.96
649.92	38815.44
650.07	39969.33
650.21	39496.54
650.36	39503.56
650.51	39260.15
650.65	39915.50
650.80	39622.93
650.94	39187.59
651.09	39353.77
651.23	38967.58
651.38	39129.08
651.52	38806.08
651.67	39037.80
651.81	38932.47
651.96	38754.59
652.10	39091.63
652.25	38696.08
652.39	38862.26
652.54	38983.96
652.68	39180.57
652.83	39143.12
652.97	38803.74
653.12	38918.43
653.26	39035.45
653.41	39005.03
653.55	38775.66
653.70	38345.00
653.84	38550.96
653.99	38424.57
654.13	38876.30
654.27	38696.08
654.42	38359.04
654.56	38574.37
654.71	38408.19
654.85	38665.65
655.00	38326.27
655.14	38401.17
655.29	38127.33
655.43	38319.25
655.57	38155.41
655.72	37823.06
655.86	37972.85
656.01	37392.40
656.15	37368.99
656.30	37383.04
656.44	37797.31
656.58	37523.47
656.73	37806.67
656.87	37680.28
657.01	37766.88
657.16	38293.50
657.30	37621.77
657.45	37570.28
657.59	37556.24
657.73	37097.49
657.88	37666.24
658.02	37628.79
658.16	37848.80
658.31	37982.21
658.45	37521.13
658.60	37324.52
658.74	37633.47
658.88	37589.00
659.03	37207.50
659.17	37027.28
659.31	37392.40
659.46	37104.51
659.60	37141.96
659.74	37148.98
659.89	37015.57
660.03	37249.63
660.17	36760.45
660.32	36910.25
660.46	37099.83
660.60	37001.53
660.74	37209.84
660.89	36999.19
661.03	36879.82
661.17	36811.95
661.32	36767.48
661.46	36952.38
661.60	36900.89
661.74	36641.09
661.89	36620.02
662.03	36369.58
662.17	36105.10
662.31	35903.82
662.46	36493.63
662.60	36746.41
662.74	36346.18
662.88	36545.12
663.03	36250.22
663.17	36397.67
663.31	36093.40
663.45	35660.40
663.60	35875.73
663.74	36091.06
663.88	36086.38
664.02	35686.15
664.17	36140.21
664.31	35756.36
664.45	35765.73
664.59	36046.59
664.73	35686.15
664.88	35632.32
665.02	35157.19
665.16	35665.08
665.30	35370.18
665.44	35299.96
665.59	35042.50
665.73	35112.72
665.87	35302.30
666.01	35042.50
666.15	35154.85
666.29	35086.97
666.44	35424.01
666.58	34567.37
666.72	35161.87
666.86	35206.34
667.00	34934.84
667.14	34778.02
667.28	34490.13
667.43	34756.96
667.57	34962.92
667.71	34272.46
667.85	34675.04
667.99	34616.52
668.13	34424.60
668.27	34150.76
668.41	34396.51
668.56	34108.63
668.70	34260.76
668.84	34246.72
668.98	33912.02
669.12	34071.18
669.26	34141.39
669.40	34164.80
669.54	33820.74
669.68	33771.59
669.82	33727.12
669.96	33909.68
670.10	33504.77
670.25	33914.36
670.39	33694.35
670.53	33694.35
670.67	33090.49
670.81	33488.38
670.95	33233.27
671.09	33530.51
671.23	33617.11
671.37	33401.79
671.51	32835.38
671.65	32765.16
671.79	32978.15
671.93	32723.03
672.07	33362.00
672.21	32751.12
672.35	32701.96
672.49	33195.82
672.63	32800.27
672.77	32737.07
672.91	32713.67
673.05	32189.39
673.19	32484.30
673.33	32144.92
673.47	32465.57
673.61	32051.30
673.75	31962.36
673.89	31786.82
674.03	31147.85
674.17	31742.35
674.31	31756.39
674.45	31461.48
674.59	31976.40
674.73	31501.27
674.87	31505.95
675.01	31426.37
675.15	31278.92
675.29	31667.45
675.43	31360.84
675.56	31101.04
675.70	31246.15
675.84	30962.95
675.98	30078.22
676.12	30986.35
676.26	30696.13
676.40	30476.12
676.54	30632.93
676.68	30473.78
676.82	29979.92
676.96	30010.35
677.10	30331.00
677.23	30082.91
677.37	30052.48
677.51	29916.73
677.65	29844.17
677.79	29565.65
677.93	29982.26
678.07	29584.37
678.21	29078.82
678.34	28994.56
678.48	29083.50
678.62	29418.19
678.76	29369.04
678.90	29242.65
679.04	28868.17
679.18	29074.13
679.31	28631.77
679.45	28343.89
679.59	28624.75
679.73	28414.10
679.87	28240.90
680.00	28390.70
680.14	28278.35
680.28	27894.50
680.42	27906.21
680.56	27775.14
680.70	28343.89
680.83	27920.25
680.97	27957.70
681.11	27786.84
681.25	27587.89
681.39	27824.29
681.52	27615.98
681.66	27487.25
681.80	27194.68
681.94	27138.51
682.07	26822.54
682.21	27276.60
682.35	26670.40
682.49	26810.84
682.62	26820.20
682.76	26944.25
682.90	26572.10
683.04	26553.38
683.17	26504.23
683.31	26401.24
683.45	26618.91
683.59	26244.43
683.72	26003.35
683.86	26115.70
684.00	25755.26
684.13	26031.44
684.27	25916.75
684.41	25628.87
684.55	25275.45
684.68	25352.68
684.82	25486.09
684.96	25394.81
685.09	25371.41
685.23	25462.69
685.37	24872.87
685.50	24706.70
685.64	24980.54
685.78	24900.96
685.91	24781.59
686.05	24671.59
686.19	24243.27
686.32	24687.97
686.46	24304.12
686.60	24201.14
686.73	23824.31
686.87	24100.50
687.01	23833.68
687.14	23726.01
687.28	23608.98
687.42	23456.85
687.55	23335.14
687.69	23232.16
687.82	23342.16
687.96	23487.28
688.10	23278.97
688.23	23248.54
688.37	23234.50
688.50	22932.57
688.64	22930.23
688.78	22892.78
688.91	22808.52
689.05	22747.67
689.18	22614.26
689.32	22153.17
689.46	22335.73
689.59	22766.39
689.73	22553.40
689.86	22216.36
690.00	22209.34
690.13	22225.73
690.27	22017.42
690.41	21940.18
690.54	21474.42
690.68	21624.21
690.81	21528.25
690.95	21118.65
691.08	21399.52
691.22	21317.60
691.35	21008.65
691.49	21453.35
691.62	21090.57
691.76	21486.12
691.89	21268.45
692.03	20929.07
692.16	20781.62
692.30	20760.55
692.43	20545.22
692.57	20716.08
692.70	20692.68
692.84	20355.64
692.97	20205.84
693.11	20100.52
693.24	20149.67
693.38	20013.92
693.51	19866.47
693.65	19995.20
693.78	20128.61
693.92	19929.66
694.05	19829.02
694.19	19791.57
694.32	19950.73
694.45	19468.58
694.59	19241.54
694.72	19269.63
694.86	19033.24
694.99	19281.33
695.13	18988.77
695.26	18853.02
695.39	18848.33
695.53	18984.09
695.66	19035.58
695.80	18633.00
695.93	18686.84
696.07	18401.29
696.20	18478.53
696.33	18197.67
696.47	18298.31
696.60	18064.25
696.73	18153.20
696.87	18281.92
697.00	18150.85
697.14	18174.26
697.27	18120.43
697.40	17596.15
697.54	17844.24
697.67	17844.24
697.80	17717.86
697.94	17638.28
698.07	17371.46
698.21	17153.79
698.34	17582.10
698.47	17156.13
698.61	16978.25
698.74	17085.91
698.87	17078.89
699.01	17013.35
699.14	16854.20
699.27	16802.71
699.40	16858.88
699.54	16460.99
699.67	16432.90
699.80	16507.80
699.94	16168.42
700.07	16545.25
700.20	16079.48
700.34	16142.67
700.47	16418.86
700.60	16187.14
700.73	16217.57
700.87	15807.98
701.00	15606.69
701.13	16077.14
701.26	15712.02
701.40	15943.73
701.53	15527.11
701.66	15405.41
701.79	15330.51
701.93	15204.12
702.06	15080.07
702.19	15218.16
702.32	15208.80
702.46	15122.20
702.59	14998.15
702.72	14796.87
702.85	14993.47
702.99	15239.23
703.12	14984.11
703.25	14607.28
703.38	14714.95
703.51	14677.50
703.65	14635.37
703.78	14649.41
703.91	14401.32
704.04	14427.06
704.17	14281.95
704.31	14295.99
704.44	14129.81
704.57	14113.43
704.70	14235.14
704.83	13935.55
704.96	14157.90
705.10	13919.17
705.23	13987.04
>>>>>End Processed Spectral Data<<<<<
