SpectraSuite Data File
++++++++++++++++++++++++++++++++++++
Date: Fri Oct 25 10:48:29 EDT 2013
User: price-jones
Dark Spectrum Present: No
Reference Spectrum Present: No
Number of Sampled Component Spectra: 1
Spectrometers: USB2+H05261
Integration Time (usec): 100000 (USB2+H05261)
Spectra Averaged: 1 (USB2+H05261)
Boxcar Smoothing: 0 (USB2+H05261)
Correct for Electrical Dark: No (USB2+H05261)
Strobe/Lamp Enabled: No (USB2+H05261)
Correct for Detector Non-linearity: No (USB2+H05261)
Correct for Stray Light: No (USB2+H05261)
Number of Pixels in Processed Spectrum: 2048
>>>>>Begin Processed Spectral Data<<<<<
365.73	175.54
365.92	175.54
366.12	175.54
366.32	56.17
366.52	119.37
366.72	110.01
366.91	0.00
367.11	7.02
367.31	35.11
367.51	93.62
367.70	49.15
367.90	2.34
368.10	2.34
368.30	16.38
368.49	28.09
368.69	16.38
368.89	25.75
369.09	42.13
369.28	53.83
369.48	128.73
369.68	187.24
369.87	93.62
370.07	138.09
370.27	105.32
370.47	189.58
370.66	379.17
370.86	397.89
371.06	458.74
371.25	510.24
371.45	543.00
371.65	505.56
371.84	444.70
372.04	528.96
372.24	540.66
372.44	486.83
372.63	547.69
372.83	545.34
373.03	540.66
373.22	594.50
373.42	517.26
373.62	615.56
373.81	645.99
374.01	627.26
374.21	615.56
374.40	564.07
374.60	638.97
374.79	627.26
374.99	615.56
375.19	578.11
375.38	657.69
375.58	585.13
375.78	594.50
375.97	685.78
376.17	723.23
376.37	669.39
376.56	566.41
376.76	624.92
376.95	667.05
377.15	610.88
377.35	606.20
377.54	650.67
377.74	688.12
377.93	596.84
378.13	667.05
378.33	755.99
378.52	629.60
378.72	702.16
378.91	641.31
379.11	676.41
379.31	585.13
379.50	702.16
379.70	737.27
379.89	748.97
380.09	755.99
380.28	779.40
380.48	704.50
380.68	660.03
380.87	624.92
381.07	709.18
381.26	725.57
381.46	678.76
381.65	737.27
381.85	704.50
382.04	741.95
382.24	767.70
382.43	676.41
382.63	713.86
382.83	772.38
383.02	800.46
383.22	751.31
383.41	716.20
383.61	786.42
383.80	868.34
384.00	816.85
384.19	734.93
384.39	763.01
384.58	828.55
384.78	837.91
384.97	873.02
385.17	774.72
385.36	828.55
385.56	779.40
385.75	800.46
385.95	830.89
386.14	854.30
386.34	840.25
386.53	854.30
386.72	870.68
386.92	957.28
387.11	971.32
387.31	940.90
387.50	816.85
387.70	903.45
387.89	894.08
388.09	922.17
388.28	894.08
388.48	880.04
388.67	940.90
388.86	987.71
389.06	1004.09
389.25	1048.56
389.45	1008.77
389.64	990.05
389.84	940.90
390.03	1032.18
390.22	1095.37
390.42	1018.13
390.61	1064.94
390.81	1128.14
391.00	1107.07
391.19	1095.37
391.39	1074.31
391.58	1083.67
391.78	1074.31
391.97	1043.88
392.16	1013.45
392.36	1170.27
392.55	1015.79
392.75	987.71
392.94	964.30
393.13	1062.60
393.33	1034.52
393.52	1053.24
393.71	1043.88
393.91	1100.05
394.10	1128.14
394.29	1170.27
394.49	1156.22
394.68	1074.31
394.88	1273.25
395.07	1327.08
395.26	1324.74
395.46	1254.53
395.65	1188.99
395.84	1235.80
396.04	1306.02
396.23	1266.23
396.42	1184.31
396.62	1156.22
396.81	1291.98
397.00	1217.08
397.19	1301.34
397.39	1308.36
397.58	1420.71
397.77	1348.15
397.97	1497.94
398.16	1537.73
398.35	1460.49
398.55	1418.36
398.74	1441.77
398.93	1528.37
399.12	1528.37
399.32	1479.22
399.51	1528.37
399.70	1645.40
399.90	1591.56
400.09	1696.89
400.28	1619.65
400.47	1584.54
400.67	1668.80
400.86	1650.08
401.05	1626.67
401.24	1657.10
401.44	1694.55
401.63	1781.15
401.82	1741.36
402.01	1743.70
402.21	1851.36
402.40	1746.04
402.59	1703.91
402.78	1783.49
402.97	1874.77
403.17	1858.39
403.36	1902.86
403.55	1863.07
403.74	1909.88
403.93	1858.39
404.13	1879.45
404.32	1933.28
404.51	1898.17
404.70	1984.77
404.89	1912.22
405.09	1963.71
405.28	1909.88
405.47	1935.62
405.66	2083.08
405.85	2031.58
406.05	2024.56
406.24	2005.84
406.43	2073.71
406.62	2129.89
406.81	2258.62
407.00	2045.63
407.20	2059.67
407.39	2005.84
407.58	2165.00
407.77	2230.53
407.96	2260.96
408.15	2293.72
408.34	2242.23
408.54	2270.32
408.73	2275.00
408.92	2291.38
409.11	2408.41
409.30	2347.56
409.49	2277.34
409.68	2246.91
409.87	2331.17
410.07	2450.54
410.26	2455.22
410.45	2307.77
410.64	2434.16
410.83	2555.86
411.02	2473.95
411.21	2621.40
411.40	2567.57
411.59	2614.38
411.78	2605.02
411.98	2597.99
412.17	2689.28
412.36	2708.00
412.55	2691.62
412.74	2843.75
412.93	2752.47
413.12	2726.72
413.31	2789.92
413.50	2998.23
413.69	2913.97
413.88	2874.18
414.07	2984.18
414.26	2918.65
414.45	3042.70
414.64	2850.77
414.83	2984.18
415.02	3091.85
415.22	3068.44
415.41	3145.68
415.60	3021.63
415.79	3164.40
415.98	3279.09
416.17	3281.43
416.36	3363.35
416.55	3265.05
416.74	3229.94
416.93	3288.45
417.12	3307.18
417.31	3412.50
417.50	3370.37
417.69	3475.70
417.88	3435.91
418.07	3468.67
418.26	3459.31
418.45	3548.25
418.64	3588.04
418.83	3592.72
419.02	3487.40
419.21	3660.60
419.39	3468.67
419.58	3562.30
419.77	3674.64
419.96	3634.85
420.15	3822.09
420.34	3845.50
420.53	3887.63
420.72	3943.80
420.91	3791.67
421.10	3889.97
421.29	4009.34
421.48	3801.03
421.67	3873.59
421.86	3777.62
422.05	3908.69
422.24	3747.20
422.43	3866.56
422.61	3976.57
422.80	4037.42
422.99	3901.67
423.18	3960.19
423.37	3957.85
423.56	3913.38
423.75	3983.59
423.94	3798.69
424.13	3653.58
424.32	3777.62
424.50	3950.82
424.69	4074.87
424.88	3995.29
425.07	4049.13
425.26	3878.27
425.45	3992.95
425.64	3936.78
425.83	4053.81
426.01	4072.53
426.20	4030.40
426.39	4025.72
426.58	4016.36
426.77	4023.38
426.96	4002.32
427.15	4021.04
427.33	3946.14
427.52	4070.19
427.71	4210.62
427.90	4088.92
428.09	4334.67
428.28	4170.83
428.46	4074.87
428.65	4163.81
428.84	4231.69
429.03	4271.48
429.22	4016.36
429.40	4170.83
429.59	4107.64
429.78	3962.53
429.97	3887.63
430.16	4086.58
430.34	4290.20
430.53	4390.84
430.72	4259.78
430.91	4306.59
431.10	4409.57
431.28	4550.00
431.47	4575.75
431.66	4723.20
431.85	4599.15
432.03	4578.09
432.22	4631.92
432.41	4709.16
432.60	4638.94
432.79	4732.56
432.97	4805.12
433.16	4690.43
433.35	4601.49
433.54	4748.95
433.72	4631.92
433.91	4784.06
434.10	4812.14
434.28	4624.90
434.47	4819.16
434.66	4999.38
434.85	4957.25
435.03	4992.36
435.22	4908.10
435.41	5219.39
435.59	4943.21
435.78	5207.69
435.97	5245.14
436.16	5198.33
436.34	5104.71
436.53	5210.03
436.72	5214.71
436.90	5151.52
437.09	5247.48
437.28	5298.97
437.46	5336.42
437.65	5135.14
437.84	5102.37
438.02	5275.57
438.21	5226.42
438.40	5151.52
438.58	5411.32
438.77	5401.96
438.96	5406.64
439.14	5607.92
439.33	5617.29
439.52	5792.83
439.70	5612.60
439.89	5713.25
440.08	5748.36
440.26	5762.40
440.45	5921.56
440.63	5757.72
440.82	5956.66
441.01	6017.52
441.19	6171.99
441.38	6174.33
441.57	6190.72
441.75	6216.46
441.94	6340.51
442.12	6204.76
442.31	6504.35
442.50	6366.26
442.68	6377.96
442.87	6361.58
443.05	6368.60
443.24	6520.73
443.43	6401.37
443.61	6485.62
443.80	6724.36
443.98	6457.54
444.17	6284.34
444.35	6562.86
444.54	6537.12
444.73	6745.42
444.91	6614.35
445.10	6583.93
445.28	6623.72
445.47	6553.50
445.65	6551.16
445.84	6656.48
446.02	6691.59
446.21	6656.48
446.39	6604.99
446.58	6836.70
446.77	6890.54
446.95	6562.86
447.14	6775.85
447.32	6810.96
447.51	6715.00
447.69	6836.70
447.88	6700.95
448.06	6846.07
448.25	6754.79
448.43	6981.82
448.62	6759.47
448.80	6719.68
448.99	6881.18
449.17	7066.08
449.36	6855.43
449.54	7117.57
449.73	6970.12
449.91	7122.25
450.10	7176.08
450.28	7192.47
450.46	7192.47
450.65	7187.79
450.83	7204.17
451.02	7246.30
451.20	7506.10
451.39	7248.64
451.57	7360.98
451.76	7288.43
451.94	7126.93
452.13	7283.75
452.31	7178.42
452.49	7192.47
452.68	7229.91
452.86	7246.30
453.05	7293.11
453.23	7218.21
453.42	7250.98
453.60	7419.50
453.78	7590.36
453.97	7372.69
454.15	7513.12
454.34	7410.14
454.52	7527.16
454.70	7590.36
454.89	7812.71
455.07	7723.77
455.26	7616.10
455.44	7852.50
455.62	7925.05
455.81	7803.35
455.99	7929.74
456.17	7978.89
456.36	7955.48
456.54	8081.87
456.73	8152.09
456.91	8269.11
457.09	8049.10
457.28	8325.29
457.46	8168.47
457.64	8126.34
457.83	8032.72
458.01	8006.97
458.19	8299.54
458.38	8105.28
458.56	8404.86
458.74	8255.07
458.93	8351.03
459.11	8388.48
459.29	8425.93
459.48	8507.85
459.66	8386.14
459.84	8524.23
460.03	8634.24
460.21	8669.34
460.39	8606.15
460.57	8498.49
460.76	8678.71
460.94	8727.86
461.12	8727.86
461.31	8737.22
461.49	8486.78
461.67	8765.31
461.85	8936.17
462.04	8791.05
462.22	9376.19
462.40	8837.86
462.59	9118.73
462.77	9146.81
462.95	9001.70
463.13	8856.59
463.32	8978.30
463.50	9100.00
463.68	9219.37
463.86	9219.37
464.05	8943.19
464.23	8985.32
464.41	9057.87
464.59	8985.32
464.78	9296.61
464.96	9102.34
465.14	9069.58
465.32	9242.78
465.50	9275.54
465.69	9207.67
465.87	9287.25
466.05	9233.41
466.23	9191.28
466.41	9462.79
466.60	9533.00
466.78	9341.08
466.96	9406.61
467.14	9334.06
467.32	9430.02
467.51	9502.58
467.69	9448.74
467.87	9437.04
468.05	9673.43
468.23	9577.47
468.41	9437.04
468.60	9816.21
468.78	9563.43
468.96	9544.70
469.14	9664.07
469.32	9832.59
469.50	9654.71
469.69	9858.34
469.87	9900.47
470.05	9877.06
470.23	9736.63
470.41	9893.44
470.59	10090.05
470.77	10024.51
470.95	10047.92
471.14	10188.35
471.32	10162.61
471.50	10642.42
471.68	10326.44
471.86	10576.88
472.04	10361.55
472.22	10682.20
472.40	10207.08
472.58	10590.92
472.77	10518.37
472.95	10560.50
473.13	11005.20
473.31	10590.92
473.49	10724.33
473.67	10731.36
473.85	10771.15
474.03	11122.23
474.21	11279.04
474.39	11154.99
474.57	11094.14
474.75	11339.90
474.93	11433.52
475.12	11321.17
475.30	11454.58
475.48	11337.56
475.66	11309.47
475.84	11393.73
476.02	11424.15
476.20	11564.59
476.38	11730.76
476.56	11985.88
476.74	11932.05
476.92	11716.72
477.10	11995.25
477.28	12224.62
477.46	12114.61
477.64	12486.76
477.82	12468.03
478.00	12575.70
478.18	12748.90
478.36	12807.41
478.54	12755.92
478.72	12690.38
478.90	13081.25
479.08	13231.05
479.26	13193.60
479.44	13331.69
479.62	13312.97
479.80	13334.03
479.98	13507.23
480.16	14040.87
480.34	13682.77
480.52	13813.84
480.70	14106.41
480.88	13792.78
481.06	13933.21
481.24	13977.68
481.41	14239.82
481.59	14586.22
481.77	14668.14
481.95	14747.72
482.13	14944.32
482.31	14689.20
482.49	15143.27
482.67	14988.79
482.85	15166.67
483.03	15508.39
483.21	15424.13
483.39	15735.42
483.57	15468.60
483.74	15644.14
483.92	15672.23
484.10	15768.19
484.28	15983.52
484.46	16189.49
484.64	16549.93
484.82	16276.09
485.00	16255.02
485.18	16568.65
485.35	16945.48
485.53	16283.11
485.71	16084.16
485.89	16718.45
486.07	16582.70
486.25	16886.97
486.43	16989.95
486.61	17352.73
486.78	17523.59
486.96	17383.16
487.14	17926.16
487.32	17848.93
487.50	18085.32
487.68	18492.57
487.85	18630.66
488.03	19012.17
488.21	18817.91
488.39	18625.98
488.57	18841.31
488.75	18956.00
488.92	19318.78
489.10	19723.69
489.28	19637.09
489.46	19756.46
489.64	19929.66
489.81	20039.67
489.99	20549.90
490.17	20332.23
490.35	20748.85
490.53	20627.14
490.70	20753.53
490.88	20842.47
491.06	21266.11
491.24	21219.30
491.41	20933.75
491.59	20769.91
491.77	20861.19
491.95	21228.66
492.13	21647.61
492.30	21963.59
492.48	21979.97
492.66	21991.67
492.84	22534.68
493.01	22080.61
493.19	22508.93
493.37	22590.85
493.54	22483.19
493.72	22635.32
493.90	22618.94
494.08	23339.82
494.25	23669.84
494.43	23365.57
494.61	23491.96
494.79	23611.32
494.96	23494.30
495.14	23974.11
495.32	23814.95
495.49	23985.81
495.67	24149.65
495.85	24072.41
496.02	24285.40
496.20	24467.96
496.38	24702.01
496.55	24603.71
496.73	25443.96
496.91	24727.76
497.09	25252.04
497.26	25434.60
497.44	25333.96
497.62	25415.88
497.79	25633.55
497.97	25528.22
498.14	25680.36
498.32	25986.97
498.50	26096.97
498.67	26139.10
498.85	26529.97
499.03	26583.80
499.20	26403.58
499.38	26483.16
499.56	26719.56
499.73	26567.42
499.91	26925.52
500.08	26881.05
500.26	26426.99
500.44	26897.44
500.61	27140.85
500.79	26602.53
500.97	27466.19
501.14	27721.30
501.32	27339.80
501.49	27644.07
501.67	27608.96
501.84	27889.82
502.02	27775.14
502.20	28156.64
502.37	28044.30
502.55	27938.97
502.72	28219.84
502.90	28278.35
503.07	28397.72
503.25	28599.01
503.43	28203.46
503.60	28294.74
503.78	28739.44
503.95	28673.90
504.13	29074.13
504.30	28952.43
504.48	28786.25
504.65	29291.80
504.83	29689.70
505.01	29305.85
505.18	29230.95
505.36	29837.15
505.53	29645.23
505.71	30267.81
505.88	30024.39
506.06	29912.05
506.23	30000.99
506.41	29773.95
506.58	30459.73
506.76	30349.73
506.93	30192.91
507.11	30267.81
507.28	30464.41
507.46	30445.69
507.63	30307.60
507.81	30663.36
507.98	30192.91
508.16	30909.11
508.33	31152.53
508.50	30974.65
508.68	31033.16
508.85	31496.59
509.03	31417.01
509.20	31215.72
509.38	31651.06
509.55	31351.48
509.73	31885.12
509.90	31594.89
510.08	32009.17
510.25	31894.48
510.42	31735.32
510.60	32170.66
510.77	32058.32
510.95	32407.06
511.12	32294.71
511.30	32666.86
511.47	32620.05
511.64	32882.19
511.82	32486.64
511.99	32350.88
512.17	32711.33
512.34	32257.26
512.51	33214.54
512.69	32992.19
512.86	32943.04
513.04	33755.21
513.21	33582.01
513.38	33556.26
513.56	32900.91
513.73	32973.47
513.90	33282.42
514.08	33670.95
514.25	33755.21
514.43	33811.38
514.60	33717.76
514.77	33776.27
514.95	34309.91
515.12	33823.08
515.29	33972.88
515.47	34553.33
515.64	34529.92
515.81	34139.05
515.99	34637.59
516.16	34029.05
516.33	34256.08
516.51	34295.87
516.68	33448.60
516.85	33872.23
517.03	33958.83
517.20	34649.29
517.37	34602.48
517.54	34923.13
517.72	34719.51
517.89	34548.65
518.06	34824.83
518.24	34651.63
518.41	34621.20
518.58	34972.28
518.75	34815.47
518.93	35150.17
519.10	35442.73
519.27	35564.44
519.45	35501.25
519.62	35496.56
519.79	35611.25
519.96	35938.93
520.14	35995.10
520.31	35690.83
520.48	36055.95
520.65	36070.00
520.83	36465.55
521.00	36517.04
521.17	36367.24
521.34	36444.48
521.52	36657.47
521.69	37244.94
521.86	36858.76
522.03	36928.97
522.20	36847.05
522.38	36790.88
522.55	37081.11
522.72	36957.06
522.89	36325.11
523.07	37408.78
523.24	37228.56
523.41	36985.15
523.58	37394.74
523.75	37483.68
523.92	37624.11
524.10	37612.41
524.27	37659.22
524.44	37720.07
524.61	38061.79
524.78	37720.07
524.96	37809.01
525.13	37874.55
525.30	38096.90
525.47	38281.80
525.64	38211.59
525.81	38485.43
525.98	37783.27
526.16	37982.21
526.33	37371.33
526.50	38078.18
526.67	37724.75
526.84	37996.26
527.01	37977.53
527.18	38593.09
527.36	38499.47
527.53	38759.27
527.70	39414.62
527.87	39309.30
528.04	38873.96
528.21	39260.15
528.38	38939.49
528.55	39512.92
528.72	39105.67
528.89	39739.96
529.07	39449.73
529.24	39241.42
529.41	39543.35
529.58	39508.24
529.75	39360.79
529.92	39742.30
530.09	39393.56
530.26	39821.87
530.43	40135.51
530.60	39613.57
530.77	39697.83
530.94	40165.93
531.11	39543.35
531.28	40240.83
531.46	40102.74
531.63	40598.93
531.80	39971.67
531.97	40156.57
532.14	40493.61
532.31	39543.35
532.48	39842.94
532.65	40208.06
532.82	39981.03
532.99	40109.76
533.16	40076.99
533.33	40313.39
533.50	40722.98
533.67	40568.51
533.84	40526.38
534.01	40697.24
534.18	40318.07
534.35	40514.67
534.52	41205.13
534.69	40762.77
534.86	40751.07
535.03	40444.46
535.20	41207.47
535.37	41500.04
535.54	41720.05
535.71	41155.98
535.88	40844.69
536.05	41003.85
536.22	41284.71
536.38	41296.41
536.55	41179.39
536.72	41118.53
536.89	41017.89
537.06	41270.67
537.23	41457.91
537.40	41759.84
537.57	41212.15
537.74	41551.53
537.91	42440.93
538.08	41617.07
538.25	41446.21
538.42	41439.18
538.59	42005.59
538.75	41851.12
538.92	41874.52
539.09	42232.63
539.26	42197.52
539.43	41757.50
539.60	41846.44
539.77	41970.49
539.94	42036.02
540.11	41668.56
540.28	41867.50
540.44	42321.57
540.61	42071.13
540.78	41942.40
540.95	42075.81
541.12	42014.96
541.29	42703.07
541.46	42204.54
541.62	42469.02
541.79	42616.47
541.96	41790.27
542.13	42543.92
542.30	42635.20
542.47	43028.41
542.63	42700.73
542.80	43138.41
542.97	43335.02
543.14	43398.21
543.31	42927.77
543.48	43522.26
543.64	43632.27
543.81	43838.23
543.98	43196.93
544.15	42927.77
544.32	43222.67
544.48	44189.31
544.65	43990.37
544.82	43374.81
544.99	43026.07
545.16	43639.29
545.32	43178.20
545.49	43536.30
545.66	43679.08
545.83	43835.89
546.00	43875.68
546.16	43578.43
546.33	43681.42
546.50	43332.68
546.67	44179.95
546.83	43594.82
547.00	43643.97
547.17	43742.27
547.34	44034.84
547.50	44025.48
547.67	44247.83
547.84	44196.34
548.00	44395.28
548.17	44156.55
548.34	44098.03
548.51	44264.21
548.67	44622.31
548.84	44753.38
549.01	44341.45
549.18	44350.81
549.34	44849.35
549.51	44732.32
549.68	44729.98
549.84	44449.11
550.01	44561.46
550.18	44516.99
550.34	44809.56
550.51	44891.48
550.68	44191.65
550.84	44383.58
551.01	44814.24
551.18	44346.13
551.34	44685.51
551.51	44643.38
551.68	45331.50
551.84	44992.12
552.01	44776.79
552.18	44481.88
552.34	44797.85
552.51	45130.21
552.68	44844.66
552.84	44896.16
553.01	45272.98
553.18	45003.82
553.34	45209.79
553.51	45146.59
553.67	44982.76
553.84	45574.91
554.01	45198.09
554.17	45696.62
554.34	45275.32
554.51	45427.46
554.67	45411.07
554.84	45415.76
555.00	45071.70
555.17	45160.64
555.33	45443.84
555.50	45212.13
555.67	45942.38
555.83	45294.05
556.00	45612.36
556.16	46050.04
556.33	45532.78
556.50	46050.04
556.66	45872.16
556.83	45879.18
556.99	45834.71
557.16	45963.44
557.32	45841.73
557.49	45605.34
557.65	45528.10
557.82	45598.32
557.98	45427.46
558.15	45586.61
558.32	45642.79
558.48	45443.84
558.65	45745.77
558.81	45237.87
558.98	45991.53
559.14	46066.42
559.31	45694.28
559.47	46078.13
559.64	46176.43
559.80	46429.21
559.97	46293.46
560.13	45698.96
560.30	45930.67
560.46	46241.96
560.63	45968.12
560.79	46103.87
560.96	46644.54
561.12	46061.74
561.29	45916.63
561.45	46206.86
561.61	45881.52
561.78	46300.48
561.94	46012.59
562.11	46284.09
562.27	46253.67
562.44	46057.06
562.60	46358.99
562.77	46469.00
562.93	46464.32
563.10	46274.73
563.26	45832.37
563.42	46307.50
563.59	46174.09
563.75	46291.12
563.92	46525.17
564.08	46487.72
564.24	46763.90
564.41	46153.02
564.57	46471.34
564.74	46525.17
564.90	46843.48
565.07	46506.44
565.23	46078.13
565.39	46192.81
565.56	46274.73
565.72	46330.90
565.88	46787.31
566.05	46340.27
566.21	46410.48
566.38	46494.74
566.54	46342.61
566.70	46564.96
566.87	46894.97
567.03	46761.56
567.19	47112.64
567.36	46579.00
567.52	46529.85
567.68	46520.49
567.85	46211.54
568.01	46277.07
568.17	46380.06
568.34	46108.55
568.50	46197.49
568.66	46581.34
568.83	46286.43
568.99	46213.88
569.15	46309.84
569.32	46483.04
569.48	46571.98
569.64	46579.00
569.81	46358.99
569.97	46747.52
570.13	46560.28
570.30	46284.09
570.46	46260.69
570.62	46429.21
570.78	46157.70
570.95	46745.18
571.11	46405.80
571.27	46525.17
571.43	46574.32
571.60	46588.36
571.76	46417.50
571.92	46586.02
572.09	46567.30
572.25	46752.20
572.41	46370.69
572.57	46948.81
572.74	47297.55
572.90	47075.19
573.06	46602.41
573.22	47168.82
573.38	46976.89
573.55	46738.16
573.71	46635.17
573.87	46894.97
574.03	46878.59
574.20	47012.00
574.36	46773.27
574.52	46827.10
574.68	46745.18
574.84	46564.96
575.01	47023.70
575.17	46852.84
575.33	46527.51
575.49	46560.28
575.65	46946.47
575.82	46780.29
575.98	46944.12
576.14	46962.85
576.30	46726.46
576.46	46834.12
576.62	46960.51
576.79	46415.16
576.95	46351.97
577.11	47054.13
577.27	46923.06
577.43	47105.62
577.59	46705.39
577.75	46405.80
577.92	46651.56
578.08	46085.15
578.24	46618.79
578.40	46635.17
578.56	46590.70
578.72	46689.01
578.88	46972.21
579.04	46258.35
579.21	46466.66
579.37	46799.01
579.53	46876.25
579.69	46728.80
579.85	47274.14
580.01	47192.22
580.17	46801.35
580.33	46990.94
580.49	46993.28
580.65	47098.60
580.82	46934.76
580.98	46843.48
581.14	46588.36
581.30	46841.14
581.46	47100.94
581.62	46714.75
581.78	47105.62
581.94	47416.91
582.10	47126.69
582.26	47395.85
582.42	47210.95
582.58	47068.17
582.74	46763.90
582.90	46948.81
583.06	47426.28
583.22	47182.86
583.38	47058.81
583.54	46993.28
583.70	46909.02
583.86	47136.05
584.02	46941.78
584.18	47166.48
584.34	47257.76
584.50	47255.42
584.66	46876.25
584.82	47054.13
584.98	47402.87
585.14	47412.23
585.30	46801.35
585.46	46841.14
585.62	46855.18
585.78	46927.74
585.94	46665.60
586.10	46731.14
586.26	46679.64
586.42	47257.76
586.58	47391.17
586.74	46824.76
586.90	46848.16
587.06	46703.05
587.22	47058.81
587.38	46677.30
587.54	47136.05
587.70	47075.19
587.86	46855.18
588.02	47292.86
588.18	47114.98
588.34	46791.99
588.49	46445.59
588.65	46747.52
588.81	46597.73
588.97	46583.68
589.13	46642.20
589.29	46632.83
589.45	46625.81
589.61	46611.77
589.77	47175.84
589.93	46878.59
590.08	47119.66
590.24	46995.62
590.40	47224.99
590.56	47217.97
590.72	47030.72
590.88	46857.52
591.04	47044.77
591.20	47555.00
591.35	47271.80
591.51	47913.11
591.67	47395.85
591.83	47274.14
591.99	46969.87
592.15	46735.82
592.31	46939.44
592.46	47318.61
592.62	46969.87
592.78	47157.11
592.94	47224.99
593.10	47124.35
593.26	47016.68
593.41	46997.96
593.57	46766.24
593.73	46906.68
593.89	47344.36
594.05	46902.00
594.20	47042.43
594.36	47428.62
594.52	47079.88
594.68	47384.15
594.84	47173.50
594.99	47494.15
595.15	46969.87
595.31	47482.45
595.47	47503.51
595.62	46979.23
595.78	47407.55
595.94	47274.14
596.10	47583.09
596.25	47283.50
596.41	47461.38
596.57	47667.35
596.73	47627.56
596.88	47311.59
597.04	47564.37
597.20	47112.64
597.36	47564.37
597.51	47515.22
597.67	47056.47
597.83	47002.64
597.99	47484.79
598.14	47096.26
598.30	46993.28
598.46	46834.12
598.61	46920.72
598.77	46775.61
598.93	47379.46
599.09	47105.62
599.24	47618.20
599.40	47288.18
599.56	47267.12
599.71	47543.30
599.87	47187.54
600.03	46920.72
600.18	46923.06
600.34	46951.15
600.50	47257.76
600.65	47346.70
600.81	47339.68
600.97	46981.57
601.12	47824.17
601.28	47112.64
601.44	47342.02
601.59	47056.47
601.75	46848.16
601.91	46731.14
602.06	46869.23
602.22	47489.47
602.37	47224.99
602.53	47363.08
602.69	47363.08
602.84	47166.48
603.00	46941.78
603.16	46871.57
603.31	46981.57
603.47	47459.04
603.62	47154.77
603.78	47201.58
603.94	46773.27
604.09	47449.68
604.25	46841.14
604.40	46962.85
604.56	46784.97
604.71	47367.76
604.87	47482.45
605.03	47124.35
605.18	46864.55
605.34	46899.65
605.49	46733.48
605.65	47164.14
605.80	47054.13
605.96	47061.15
606.12	46972.21
606.27	47421.59
606.43	46902.00
606.58	46923.06
606.74	46770.93
606.89	47014.34
607.05	46777.95
607.20	46595.38
607.36	47173.50
607.51	47241.37
607.67	47257.76
607.82	46621.13
607.98	46993.28
608.13	46543.89
608.29	47049.45
608.44	46796.67
608.60	46028.98
608.75	46735.82
608.91	46326.22
609.06	46782.63
609.22	47098.60
609.37	46756.88
609.53	46351.97
609.68	46494.74
609.84	46532.19
609.99	46368.35
610.15	46398.78
610.30	46478.36
610.46	46686.67
610.61	46466.66
610.76	46693.69
610.92	46550.91
611.07	46387.08
611.23	46337.93
611.38	46288.77
611.54	46564.96
611.69	46225.58
611.84	45834.71
612.00	46309.84
612.15	46153.02
612.31	46597.73
612.46	46464.32
612.62	46693.69
612.77	46192.81
612.92	46267.71
613.08	46019.61
613.23	46436.23
613.39	46103.87
613.54	45792.58
613.69	46298.14
613.85	46019.61
614.00	46223.24
614.15	46461.97
614.31	46457.29
614.46	46478.36
614.62	45904.93
614.77	46106.21
614.92	45839.39
615.08	45696.62
615.23	46185.79
615.38	46082.81
615.54	45755.13
615.69	45537.46
615.84	45532.78
616.00	45808.96
616.15	45610.02
616.30	45853.44
616.46	45469.59
616.61	45427.46
616.76	45619.38
616.92	45237.87
617.07	45722.37
617.22	45411.07
617.37	45771.52
617.53	45968.12
617.68	45603.00
617.83	45701.30
617.99	45937.69
618.14	45551.51
618.29	45656.83
618.45	44989.78
618.60	45450.86
618.75	45067.02
618.90	45485.97
619.06	45673.21
619.21	45167.66
619.36	45998.55
619.51	45446.18
619.67	45214.47
619.82	45504.70
619.97	45347.88
620.12	45064.67
620.28	44385.92
620.43	45635.77
620.58	45027.23
620.73	45315.11
620.89	44818.92
621.04	44776.79
621.19	45572.57
621.34	45055.31
621.49	44891.48
621.65	44870.41
621.80	45097.44
621.95	44458.48
622.10	45125.53
622.25	44779.13
622.41	44320.38
622.56	44367.20
622.71	45052.97
622.86	44711.25
623.01	44952.33
623.16	45160.64
623.32	44966.37
623.47	44971.05
623.62	44753.38
623.77	44451.45
623.92	44648.06
624.07	44194.00
624.23	44737.00
624.38	43934.20
624.53	44542.74
624.68	44535.71
624.83	44547.42
624.98	44264.21
625.13	43775.04
625.29	44608.27
625.44	44589.55
625.59	44140.16
625.74	44105.06
625.89	43309.27
626.04	43636.95
626.19	44233.78
626.34	43908.45
626.49	43901.43
626.65	44039.52
626.80	44615.29
626.95	43587.80
627.10	43728.23
627.25	43629.93
627.40	43349.06
627.55	43283.53
627.70	43213.31
627.85	43503.54
628.00	43278.85
628.15	43828.87
628.30	43632.27
628.45	43594.82
628.60	43887.39
628.76	43632.27
628.91	43580.78
629.06	43866.32
629.21	43192.25
629.36	43526.94
629.51	43222.67
629.66	43215.65
629.81	43248.42
629.96	43318.64
630.11	43175.86
630.26	43292.89
630.41	43501.20
630.56	42969.90
630.71	43234.38
630.86	43304.59
631.01	43021.39
631.16	42841.17
631.31	42850.53
631.46	42557.96
631.61	42939.47
631.76	42873.93
631.91	43100.97
632.06	43203.95
632.21	42972.24
632.36	43260.12
632.51	43227.35
632.66	43143.09
632.81	42513.49
632.96	42487.74
633.10	42532.22
633.25	42239.65
633.40	43098.62
633.55	43210.97
633.70	42452.64
633.85	42658.60
634.00	42892.66
634.15	42623.50
634.30	42497.11
634.45	42745.20
634.60	43016.71
634.75	42462.00
634.90	42639.88
635.05	42670.31
635.19	42770.95
635.34	42738.18
635.49	42279.44
635.64	42567.32
635.79	42134.32
635.94	42209.22
636.09	42340.29
636.24	42340.29
636.39	41825.37
636.53	42206.88
636.68	42227.95
636.83	42164.75
636.98	42366.04
637.13	42075.81
637.28	42089.85
637.43	41762.18
637.57	42298.16
637.72	42337.95
637.87	42396.46
638.02	42291.14
638.17	41605.36
638.32	41675.58
638.46	41560.89
638.61	41434.50
638.76	41731.75
638.91	41783.24
639.06	41581.96
639.20	41818.35
639.35	42012.62
639.50	41560.89
639.65	41902.61
639.80	41537.49
639.94	42052.41
640.09	41670.90
640.24	41336.20
640.39	41228.54
640.54	41329.18
640.68	41343.22
640.83	41275.35
640.98	41247.26
641.13	40978.10
641.27	41368.97
641.42	41223.86
641.57	41394.71
641.72	40996.82
641.86	41085.76
642.01	40919.59
642.16	40900.86
642.31	40882.14
642.45	40959.38
642.60	40964.06
642.75	40692.55
642.90	40947.67
643.04	40994.48
643.19	40985.12
643.34	40968.74
643.48	40622.34
643.63	40861.07
643.78	40685.53
643.93	40662.13
644.07	40182.32
644.22	40465.52
644.37	40531.06
644.51	40407.01
644.66	40266.58
644.81	40634.04
644.95	40907.88
645.10	40809.58
645.25	40708.94
645.39	40840.01
645.54	40271.26
645.69	40287.64
645.83	40437.44
645.98	40547.44
646.13	40847.03
646.27	40519.35
646.42	40423.39
646.57	40163.59
646.71	39859.32
646.86	40353.18
647.00	40107.42
647.15	40451.48
647.30	40353.18
647.44	39833.58
647.59	40182.32
647.74	40231.47
647.88	39861.66
648.03	40217.43
648.17	39730.59
648.32	39707.19
648.47	39819.53
648.61	39868.69
648.76	40107.42
648.90	39938.90
649.05	40088.70
649.20	40119.12
649.34	39988.05
649.49	39674.42
649.63	39950.60
649.78	40020.82
649.92	39814.85
650.07	39971.67
650.21	39660.38
650.36	39426.32
650.51	39941.24
650.65	40006.78
650.80	40114.44
650.94	40212.74
651.09	39667.40
651.23	39742.30
651.38	39583.14
651.52	39330.36
651.67	39304.62
651.81	39330.36
651.96	39243.76
652.10	39070.56
652.25	39117.37
652.39	38972.26
652.54	39550.37
652.68	39442.71
652.83	39463.77
652.97	39309.30
653.12	39342.06
653.26	38930.13
653.41	39302.28
653.55	38897.36
653.70	39108.01
653.84	38946.51
653.99	39033.11
654.13	39213.34
654.27	39129.08
654.42	39007.37
654.56	38710.12
654.71	39063.54
654.85	39257.81
655.00	38658.63
655.14	38742.89
655.29	38220.95
655.43	38703.10
655.57	38759.27
655.72	38471.39
655.86	38438.62
656.01	37816.04
656.15	38373.08
656.30	37907.32
656.44	38426.92
656.58	37933.06
656.73	37972.85
656.87	37816.04
657.01	37848.80
657.16	38323.93
657.30	37998.60
657.45	38181.16
657.59	38429.26
657.73	38293.50
657.88	38038.39
658.02	37942.42
658.16	37972.85
658.31	38286.48
658.45	38368.40
658.60	38073.49
658.74	38307.55
658.88	37923.70
659.03	37404.10
659.17	37942.42
659.31	37464.96
659.46	37544.53
659.60	37872.21
659.74	37689.65
659.89	37497.72
660.03	37516.45
660.17	37750.50
660.32	37963.49
660.46	38251.38
660.60	37787.95
660.74	37605.39
660.89	37811.35
661.03	37193.45
661.17	37345.59
661.32	36971.10
661.46	37429.85
661.60	37153.66
661.74	36868.12
661.89	37287.07
662.03	37120.90
662.17	36924.29
662.31	36793.22
662.46	37539.85
662.60	37198.13
662.74	36701.94
662.88	36666.83
663.03	36989.83
663.17	36479.59
663.31	36744.07
663.45	36807.26
663.60	36783.86
663.74	35995.10
663.88	36245.54
664.02	36402.35
664.17	36149.57
664.31	35992.76
664.45	36247.88
664.59	35880.41
664.73	35910.84
664.88	36266.60
665.02	35620.61
665.16	35964.67
665.30	35978.72
665.44	36222.13
665.59	35948.29
665.73	35967.01
665.87	35426.35
666.01	35440.39
666.15	35604.23
666.29	35555.08
666.44	35763.39
666.58	35236.77
666.72	35604.23
666.86	35676.79
667.00	35367.84
667.14	35119.74
667.28	34586.10
667.43	34796.74
667.57	35108.04
667.71	35098.67
667.85	35086.97
667.99	34766.32
668.13	34794.40
668.27	35040.16
668.41	35037.82
668.56	34476.09
668.70	34508.86
668.84	34284.17
668.98	34756.96
669.12	34487.79
669.26	34190.55
669.40	34185.86
669.54	34293.53
669.68	34223.31
669.82	34171.82
669.96	33935.43
670.10	33757.55
670.25	33998.62
670.39	34298.21
670.53	33998.62
670.67	33570.30
670.81	33928.41
670.95	34087.56
671.09	33773.93
671.23	33839.47
671.37	33708.40
671.51	33397.10
671.65	32987.51
671.79	33418.17
671.93	33378.38
672.07	33371.36
672.21	33167.73
672.35	32912.61
672.49	32931.34
672.63	33102.20
672.77	32835.38
672.91	32713.67
673.05	32381.31
673.19	32659.84
673.33	32797.93
673.47	32430.46
673.61	32486.64
673.75	32318.12
673.89	32301.73
674.03	32123.85
674.17	32147.26
674.31	32187.05
674.45	32240.88
674.59	31875.76
674.73	32397.70
674.87	31562.12
675.01	31861.71
675.15	32102.79
675.29	31887.46
675.43	31873.42
675.56	31634.68
675.70	31510.63
675.84	31260.20
675.98	30658.68
676.12	31285.94
676.26	31131.47
676.40	31222.75
676.54	31175.94
676.68	30876.35
676.82	30216.32
676.96	30843.58
677.10	30525.27
677.23	30192.91
677.37	30721.87
677.51	30183.55
677.65	30642.29
677.79	30328.66
677.93	30089.93
678.07	29951.84
678.21	29603.10
678.34	29769.27
678.48	29717.78
678.62	29816.08
678.76	29453.30
678.90	29378.40
679.04	29497.77
679.18	29212.23
679.31	29041.37
679.45	28641.14
679.59	28631.77
679.73	28720.71
679.87	28776.89
680.00	28978.17
680.14	28804.97
680.28	28481.98
680.42	28500.70
680.56	28465.60
680.70	28236.22
680.83	28112.17
680.97	28173.03
681.11	27784.50
681.25	27639.39
681.39	27967.06
681.52	27625.34
681.66	27791.52
681.80	27875.78
681.94	27449.80
682.07	27215.75
682.21	27339.80
682.35	27321.07
682.49	27620.66
682.62	26904.46
682.76	27009.78
682.90	27021.48
683.04	27000.42
683.17	26881.05
683.31	26834.24
683.45	26733.60
683.59	26431.67
683.72	26033.78
683.86	25781.00
684.00	26134.42
684.13	26309.96
684.27	26115.70
684.41	25858.24
684.55	25954.20
684.68	25589.08
684.82	25298.85
684.96	25642.91
685.09	25563.33
685.23	25397.15
685.37	25369.07
685.50	25364.39
685.64	25326.94
685.78	25397.15
685.91	24919.68
686.05	24992.24
686.19	24678.61
686.32	24903.30
686.46	24716.06
686.60	24247.95
686.73	24212.84
686.87	23803.25
687.01	23997.51
687.14	23489.62
687.28	23630.05
687.42	23765.80
687.55	23454.51
687.69	23625.37
687.82	23257.90
687.96	23552.81
688.10	23220.45
688.23	23283.65
688.37	23138.54
688.50	23168.96
688.64	22918.53
688.78	22829.59
688.91	22693.83
689.05	22644.68
689.18	22359.14
689.32	22396.59
689.46	22441.06
689.59	22560.42
689.73	22522.98
689.86	22340.41
690.00	22356.80
690.13	22492.55
690.27	22497.23
690.41	22293.60
690.54	22017.42
690.68	22031.46
690.81	21935.50
690.95	21617.19
691.08	21717.83
691.22	21605.49
691.35	21261.43
691.49	21708.47
691.62	21495.48
691.76	21303.56
691.89	21434.63
692.03	21298.88
692.16	21156.10
692.30	21163.12
692.43	20861.19
692.57	20861.19
692.70	20900.98
692.84	20762.89
692.97	20552.24
693.11	20592.03
693.24	20287.76
693.38	20350.96
693.51	20072.43
693.65	20170.74
693.78	20070.09
693.92	20025.62
694.05	19915.62
694.19	19791.57
694.32	19812.63
694.45	19775.19
694.59	19854.76
694.72	19473.26
694.86	19484.96
694.99	19145.58
695.13	18670.45
695.26	19005.15
695.39	19056.64
695.53	19051.96
695.66	19066.00
695.80	19019.19
695.93	18946.64
696.07	18581.51
696.20	18462.15
696.33	18672.79
696.47	18438.74
696.60	18719.60
696.73	18420.02
696.87	18487.89
697.00	18492.57
697.14	18225.75
697.27	18415.34
697.40	17991.70
697.54	18003.40
697.67	17963.61
697.80	17989.36
697.94	17837.22
698.07	17823.18
698.21	17673.39
698.34	17680.41
698.47	17231.02
698.61	17064.85
698.74	17209.96
698.87	16982.93
699.01	17074.21
699.14	16872.92
699.27	17216.98
699.40	16947.82
699.54	16908.03
699.67	16531.20
699.80	16882.28
699.94	16446.94
700.07	16505.46
700.20	16498.44
700.34	16194.17
700.47	16098.20
700.60	16198.85
700.73	16411.84
700.87	16238.64
701.00	15939.05
701.13	16163.74
701.26	15765.85
701.40	16107.57
701.53	15613.71
701.66	15506.05
701.79	15634.78
701.93	15281.36
702.06	15267.31
702.19	15274.34
702.32	15147.95
702.46	15180.71
702.59	15084.75
702.72	15147.95
702.85	15129.22
702.99	15349.23
703.12	15218.16
703.25	15080.07
703.38	14764.10
703.51	14850.70
703.65	14768.78
703.78	14834.32
703.91	14665.80
704.04	14813.25
704.17	14677.50
704.31	14277.27
704.44	14190.67
704.57	14015.13
704.70	14178.97
704.83	14047.90
704.96	14073.64
705.10	13949.59
705.23	14127.47
>>>>>End Processed Spectral Data<<<<<
