SpectraSuite Data File
++++++++++++++++++++++++++++++++++++
Date: Fri Oct 25 10:48:30 EDT 2013
User: price-jones
Dark Spectrum Present: No
Reference Spectrum Present: No
Number of Sampled Component Spectra: 1
Spectrometers: USB2+H05261
Integration Time (usec): 100000 (USB2+H05261)
Spectra Averaged: 1 (USB2+H05261)
Boxcar Smoothing: 0 (USB2+H05261)
Correct for Electrical Dark: No (USB2+H05261)
Strobe/Lamp Enabled: No (USB2+H05261)
Correct for Detector Non-linearity: No (USB2+H05261)
Correct for Stray Light: No (USB2+H05261)
Number of Pixels in Processed Spectrum: 2048
>>>>>Begin Processed Spectral Data<<<<<
365.73	189.58
365.92	189.58
366.12	189.58
366.32	49.15
366.52	128.73
366.72	9.36
366.91	32.77
367.11	46.81
367.31	46.81
367.51	84.26
367.70	23.41
367.90	0.00
368.10	0.00
368.30	46.81
368.49	49.15
368.69	100.64
368.89	28.09
369.09	46.81
369.28	161.50
369.48	88.94
369.68	133.41
369.87	105.32
370.07	119.37
370.27	124.05
370.47	215.33
370.66	407.25
370.86	421.30
371.06	444.70
371.25	587.47
371.45	456.40
371.65	418.96
371.84	440.02
372.04	468.11
372.24	535.98
372.44	475.13
372.63	545.34
372.83	524.28
373.03	538.32
373.22	566.41
373.42	470.45
373.62	603.86
373.81	589.82
374.01	634.29
374.21	599.18
374.40	552.37
374.60	599.18
374.79	594.50
374.99	587.47
375.19	498.53
375.38	589.82
375.58	571.09
375.78	573.43
375.97	681.10
376.17	622.58
376.37	662.37
376.56	617.90
376.76	678.76
376.95	704.50
377.15	559.39
377.35	627.26
377.54	685.78
377.74	657.69
377.93	720.88
378.13	720.88
378.33	744.29
378.52	669.39
378.72	596.84
378.91	678.76
379.11	667.05
379.31	676.41
379.50	601.52
379.70	720.88
379.89	753.65
380.09	791.10
380.28	713.86
380.48	711.52
380.68	720.88
380.87	725.57
381.07	751.31
381.26	767.70
381.46	763.01
381.65	802.80
381.85	697.48
382.04	669.39
382.24	709.18
382.43	706.84
382.63	763.01
382.83	812.17
383.02	713.86
383.22	770.04
383.41	692.80
383.61	812.17
383.80	870.68
384.00	844.93
384.19	823.87
384.39	828.55
384.58	873.02
384.78	767.70
384.97	830.89
385.17	798.12
385.36	833.23
385.56	800.46
385.75	835.57
385.95	917.49
386.14	854.30
386.34	814.51
386.53	842.59
386.72	830.89
386.92	870.68
387.11	983.02
387.31	950.26
387.50	807.48
387.70	875.36
387.89	945.58
388.09	887.06
388.28	936.21
388.48	940.90
388.67	945.58
388.86	992.39
389.06	973.66
389.25	943.24
389.45	1018.13
389.64	858.98
389.84	973.66
390.03	1081.33
390.22	1081.33
390.42	966.64
390.61	1050.90
390.81	1029.84
391.00	1100.05
391.19	1104.73
391.39	985.37
391.58	1081.33
391.78	1118.78
391.97	1135.16
392.16	1032.18
392.36	1081.33
392.55	1163.25
392.75	1095.37
392.94	1039.20
393.13	1008.77
393.33	1029.84
393.52	1116.44
393.71	1174.95
393.91	1163.25
394.10	1212.40
394.29	1200.69
394.49	1160.91
394.68	1235.80
394.88	1245.16
395.07	1289.64
395.26	1334.11
395.46	1280.27
395.65	1170.27
395.84	1282.61
396.04	1324.74
396.23	1203.04
396.42	1273.25
396.62	1221.76
396.81	1235.80
397.00	1266.23
397.19	1273.25
397.39	1284.95
397.58	1373.89
397.77	1507.30
397.97	1479.22
398.16	1444.11
398.35	1549.43
398.55	1561.14
398.74	1535.39
398.93	1549.43
399.12	1432.41
399.32	1565.82
399.51	1556.46
399.70	1582.20
399.90	1605.61
400.09	1584.54
400.28	1561.14
400.47	1657.10
400.67	1769.44
400.86	1701.57
401.05	1652.42
401.24	1603.27
401.44	1666.46
401.63	1750.72
401.82	1755.40
402.01	1703.91
402.21	1839.66
402.40	1774.13
402.59	1706.25
402.78	1757.74
402.97	1795.19
403.17	1739.02
403.36	1860.73
403.55	1816.26
403.74	1853.70
403.93	1907.54
404.13	1872.43
404.32	1870.09
404.51	1919.24
404.70	1968.39
404.89	1944.99
405.09	2071.37
405.28	1944.99
405.47	1954.35
405.66	1989.46
405.85	2012.86
406.05	2064.35
406.24	2022.22
406.43	2099.46
406.62	2090.10
406.81	2235.21
407.00	2094.78
407.20	2099.46
407.39	2160.31
407.58	2209.47
407.77	2296.07
407.96	2256.28
408.15	2333.51
408.34	2235.21
408.54	2401.39
408.73	2387.35
408.92	2265.64
409.11	2354.58
409.30	2377.98
409.49	2298.41
409.68	2331.17
409.87	2340.54
410.07	2335.85
410.26	2459.90
410.45	2424.80
410.64	2377.98
410.83	2621.40
411.02	2511.39
411.21	2605.02
411.40	2633.10
411.59	2569.91
411.78	2665.87
411.98	2640.12
412.17	2619.06
412.36	2757.15
412.55	2825.03
412.74	2759.49
412.93	2773.53
413.12	2857.79
413.31	2913.97
413.50	2853.11
413.69	2883.54
413.88	2930.35
414.07	2839.07
414.26	2988.86
414.45	3126.96
414.64	3033.33
414.83	3075.46
415.02	3098.87
415.22	3103.55
415.41	3164.40
415.60	3089.51
415.79	3197.17
415.98	3197.17
416.17	3286.11
416.36	3384.41
416.55	3314.20
416.74	3295.47
416.93	3169.09
417.12	3316.54
417.31	3412.50
417.50	3363.35
417.69	3562.30
417.88	3609.11
418.07	3438.25
418.26	3503.78
418.45	3527.19
418.64	3667.62
418.83	3588.04
419.02	3541.23
419.21	3641.87
419.39	3679.32
419.58	3613.79
419.77	3648.90
419.96	3548.25
420.15	3789.33
420.34	3716.77
420.53	3847.84
420.72	3768.26
420.91	3726.13
421.10	3751.88
421.29	3847.84
421.48	3789.33
421.67	3894.65
421.86	3911.04
422.05	3730.81
422.24	3786.99
422.43	3932.10
422.61	3826.78
422.80	3784.65
422.99	3882.95
423.18	3978.91
423.37	3976.57
423.56	3904.01
423.75	4100.62
423.94	4039.76
424.13	3698.05
424.32	3801.03
424.50	4030.40
424.69	4049.13
424.88	4058.49
425.07	3962.53
425.26	4032.74
425.45	4011.68
425.64	4107.64
425.83	4014.02
426.01	4016.36
426.20	4039.76
426.39	4081.89
426.58	3899.33
426.77	4100.62
426.96	3925.08
427.15	4117.00
427.33	4227.01
427.52	4086.58
427.71	4065.51
427.90	4182.54
428.09	4180.20
428.28	4177.86
428.46	4269.14
428.65	4297.22
428.84	4362.76
429.03	4292.54
429.22	4161.47
429.40	4156.79
429.59	4145.09
429.78	3990.61
429.97	4002.32
430.16	4198.92
430.34	4257.43
430.53	4205.94
430.72	4332.33
430.91	4257.43
431.10	4332.33
431.28	4519.57
431.47	4643.62
431.66	4741.93
431.85	4610.86
432.03	4744.27
432.22	4777.03
432.41	4688.09
432.60	4596.81
432.79	4748.95
432.97	4777.03
433.16	4858.95
433.35	4814.48
433.54	4683.41
433.72	4681.07
433.91	4702.14
434.10	4851.93
434.28	4901.08
434.47	4784.06
434.66	4973.64
434.85	5004.07
435.03	5032.15
435.22	5076.62
435.41	5177.26
435.59	5093.01
435.78	5088.32
435.97	5284.93
436.16	5238.12
436.34	5055.56
436.53	5151.52
436.72	5130.45
436.90	5193.65
437.09	5298.97
437.28	5125.77
437.46	5203.01
437.65	5090.67
437.84	5233.44
438.02	5268.55
438.21	5284.93
438.40	5259.18
438.58	5371.53
438.77	5495.58
438.96	5441.75
439.14	5682.82
439.33	5753.04
439.52	5748.36
439.70	5504.94
439.89	5825.59
440.08	5666.44
440.26	5792.83
440.45	5727.29
440.63	5870.06
440.82	6038.58
441.01	5860.70
441.19	6094.76
441.38	6324.13
441.57	6125.18
441.75	6043.26
441.94	6136.88
442.12	6413.07
442.31	6555.84
442.50	6443.49
442.68	6406.05
442.87	6530.09
443.05	6492.65
443.24	6670.53
443.43	6497.33
443.61	6448.18
443.80	6567.54
443.98	6377.96
444.17	6277.32
444.35	6506.69
444.54	6586.27
444.73	6513.71
444.91	6642.44
445.10	6520.73
445.28	6471.58
445.47	6490.31
445.65	6490.31
445.84	6509.03
446.02	6700.95
446.21	6614.35
446.39	6626.06
446.58	6754.79
446.77	6803.94
446.95	6817.98
447.14	6626.06
447.32	6757.13
447.51	6647.12
447.69	6736.06
447.88	6682.23
448.06	6743.08
448.25	6684.57
448.43	6857.77
448.62	6825.00
448.80	6630.74
448.99	6801.60
449.17	6942.03
449.36	6862.45
449.54	7192.47
449.73	7009.90
449.91	7213.53
450.10	7370.35
450.28	7316.51
450.46	7272.04
450.65	7215.87
450.83	7126.93
451.02	7236.94
451.20	7377.37
451.39	7269.70
451.57	7183.10
451.76	7344.60
451.94	7585.68
452.13	7337.58
452.31	7218.21
452.49	7267.36
452.68	7288.43
452.86	7229.91
453.05	7431.20
453.23	7569.29
453.42	7400.77
453.60	7358.64
453.78	7693.34
453.97	7318.86
454.15	7407.80
454.34	7463.97
454.52	7564.61
454.70	7683.98
454.89	7775.26
455.07	7658.23
455.26	7922.71
455.44	7896.97
455.62	7852.50
455.81	7840.79
455.99	7934.42
456.17	7791.64
456.36	8016.33
456.54	7922.71
456.73	8121.66
456.91	8226.98
457.09	8145.06
457.28	8379.12
457.46	7887.61
457.64	8119.32
457.83	8131.02
458.01	8063.15
458.19	8290.18
458.38	8276.13
458.56	8376.78
458.74	8407.20
458.93	8147.40
459.11	8301.88
459.29	8173.15
459.48	8360.39
459.66	8671.68
459.84	8601.47
460.03	8603.81
460.21	8484.44
460.39	8627.21
460.57	8486.78
460.76	8599.13
460.94	8629.56
461.12	8781.69
461.31	8648.28
461.49	8681.05
461.67	8720.84
461.85	8997.02
462.04	8777.01
462.22	9338.74
462.40	9071.92
462.59	8999.36
462.77	8891.70
462.95	9015.74
463.13	9006.38
463.32	9261.50
463.50	9095.32
463.68	9156.18
463.86	8980.64
464.05	8980.64
464.23	9170.22
464.41	9053.19
464.59	9032.13
464.78	9242.78
464.96	9074.26
465.14	9132.77
465.32	9338.74
465.50	9467.47
465.69	9448.74
465.87	9308.31
466.05	9158.52
466.23	9289.59
466.41	9144.47
466.60	9371.50
466.78	9277.88
466.96	9334.06
467.14	9444.06
467.32	9607.90
467.51	9652.37
467.69	9275.54
467.87	9341.08
468.05	9755.35
468.23	9701.52
468.41	9359.80
468.60	9502.58
468.78	9764.72
468.96	9544.70
469.14	9984.73
469.32	9879.40
469.50	9387.89
469.69	9914.51
469.87	9926.21
470.05	9900.47
470.23	9785.78
470.41	9886.42
470.59	10022.17
470.77	10003.45
470.95	9851.31
471.14	10115.80
471.32	9944.94
471.50	10349.85
471.68	10349.85
471.86	10462.19
472.04	10464.54
472.22	10710.29
472.40	10593.26
472.58	10490.28
472.77	10572.20
472.95	10541.77
473.13	10911.58
473.31	10827.32
473.49	10609.65
473.67	10665.82
473.85	10747.74
474.03	11084.78
474.21	11019.24
474.39	11190.10
474.57	11117.54
474.75	11389.05
474.93	11267.34
475.12	11339.90
475.30	11449.90
475.48	11335.21
475.66	11412.45
475.84	11449.90
476.02	11513.10
476.20	11456.92
476.38	11800.98
476.56	11962.48
476.74	11845.45
476.92	12053.76
477.10	12271.43
477.28	12105.25
477.46	12109.93
477.64	12601.44
477.82	12231.64
478.00	12428.24
478.18	12503.14
478.36	12566.34
478.54	12564.00
478.72	12952.52
478.90	12938.48
479.08	13195.94
479.26	13249.77
479.44	13453.40
479.62	13341.05
479.80	13355.10
479.98	13422.97
480.16	13715.54
480.34	13804.48
480.52	13881.72
480.70	13619.58
480.88	13855.97
481.06	14090.02
481.24	14129.81
481.41	14534.73
481.59	14459.83
481.77	14614.30
481.95	14464.51
482.13	14654.09
482.31	14785.16
482.49	14731.33
482.67	14960.70
482.85	15218.16
483.03	15140.93
483.21	15204.12
483.39	15695.63
483.57	15470.94
483.74	15590.31
483.92	15756.49
484.10	15597.33
484.28	16070.12
484.46	16194.17
484.64	16498.44
484.82	16002.24
485.00	16152.04
485.18	16641.21
485.35	16573.33
485.53	16521.84
485.71	16105.23
485.89	16552.27
486.07	16519.50
486.25	16727.81
486.43	16879.94
486.61	17123.36
486.78	17624.23
486.96	17617.21
487.14	17722.54
487.32	17668.70
487.50	17961.27
487.68	18438.74
487.85	18679.82
488.03	18672.79
488.21	18801.52
488.39	19026.21
488.57	19171.33
488.75	18609.60
488.92	19218.14
489.10	19777.53
489.28	19676.88
489.46	19749.44
489.64	19590.28
489.81	20252.66
489.99	20030.30
490.17	20500.75
490.35	20910.35
490.53	20367.34
490.70	20795.66
490.88	20435.22
491.06	21123.33
491.24	20821.41
491.41	20851.83
491.59	20938.43
491.77	21036.74
491.95	21350.37
492.13	21156.10
492.30	21785.71
492.48	21778.68
492.66	21930.82
492.84	21774.00
493.01	22527.66
493.19	22403.61
493.37	22583.83
493.54	22532.34
493.72	22967.68
493.90	22525.32
494.08	23051.94
494.25	23534.09
494.43	23662.82
494.61	23697.92
494.79	23777.50
494.96	23470.89
495.14	23700.26
495.32	24205.82
495.49	24130.92
495.67	24070.07
495.85	24528.81
496.02	24203.48
496.20	24659.88
496.38	24709.04
496.55	24687.97
496.73	25221.61
496.91	25326.94
497.09	25273.10
497.26	25441.62
497.44	25575.03
497.62	25238.00
497.79	25818.45
497.97	25230.98
498.14	25905.05
498.32	25495.46
498.50	26127.40
498.67	26216.34
498.85	26188.25
499.03	26324.01
499.20	26448.05
499.38	26820.20
499.56	26508.91
499.73	26721.90
499.91	26682.11
500.08	26855.31
500.26	26803.82
500.44	27105.74
500.61	27295.33
500.79	26658.70
500.97	27405.33
501.14	27166.60
501.32	27447.46
501.49	27077.66
501.67	27421.72
501.84	27950.68
502.02	27644.07
502.20	28130.90
502.37	28147.28
502.55	28091.11
502.72	27875.78
502.90	28215.16
503.07	28236.22
503.25	28414.10
503.43	28514.75
503.60	28280.69
503.78	28594.32
503.95	28512.41
504.13	28634.11
504.30	29078.82
504.48	28704.33
504.65	29355.00
504.83	29401.81
505.01	29528.20
505.18	29549.26
505.36	29799.70
505.53	29397.13
505.71	30127.38
505.88	30178.87
506.06	29699.06
506.23	29977.58
506.41	29860.55
506.58	30288.87
506.76	30134.40
506.93	30216.32
507.11	30263.13
507.28	30518.25
507.46	30115.67
507.63	30789.75
507.81	30646.97
507.98	30581.44
508.16	30567.40
508.33	31021.46
508.50	31192.32
508.68	31370.20
508.85	31669.79
509.03	31433.39
509.20	31405.31
509.38	31704.90
509.55	31868.73
509.73	31665.11
509.90	31789.16
510.08	31447.44
510.25	31761.07
510.42	31779.79
510.60	32135.56
510.77	32163.64
510.95	32442.17
511.12	32079.38
511.30	32655.15
511.47	32840.06
511.64	32952.40
511.82	33127.94
511.99	32718.35
512.17	32655.15
512.34	32519.40
512.51	33130.28
512.69	32900.91
512.86	33013.26
513.04	33628.82
513.21	33092.83
513.38	33350.29
513.56	33216.88
513.73	33010.92
513.90	33102.20
514.08	33605.41
514.25	33544.56
514.43	33951.81
514.60	33907.34
514.77	33834.78
514.95	33951.81
515.12	34202.25
515.29	34330.98
515.47	34192.89
515.64	34700.78
515.81	34366.09
515.99	33993.94
516.16	33996.28
516.33	34005.64
516.51	33912.02
516.68	33523.49
516.85	33586.69
517.03	34134.37
517.20	34270.12
517.37	34490.13
517.54	34728.87
517.72	34883.34
517.89	34202.25
518.06	34506.52
518.24	34684.40
518.41	34663.33
518.58	34796.74
518.75	35005.05
518.93	35611.25
519.10	35030.80
519.27	35304.64
519.45	35269.53
519.62	35693.17
519.79	35864.03
519.96	35915.52
520.14	35821.90
520.31	35522.31
520.48	35723.60
520.65	36046.59
520.83	36676.19
521.00	36680.88
521.17	36229.15
521.34	36177.66
521.52	36631.72
521.69	36435.12
521.86	36730.03
522.03	36444.48
522.20	36655.13
522.38	36959.40
522.55	37193.45
522.72	36605.98
522.89	36917.27
523.07	36975.78
523.24	37198.13
523.41	37015.57
523.58	37364.31
523.75	37404.10
523.92	37912.00
524.10	37689.65
524.27	37827.74
524.44	37741.14
524.61	38007.96
524.78	37710.71
524.96	37806.67
525.13	38326.27
525.30	37858.17
525.47	37991.58
525.64	37965.83
525.81	37797.31
525.98	38267.76
526.16	38122.65
526.33	37574.96
526.50	38181.16
526.67	37762.20
526.84	37862.85
527.01	38183.50
527.18	38679.69
527.36	38459.68
527.53	38532.24
527.70	38682.03
527.87	38726.50
528.04	38539.26
528.21	38932.47
528.38	38618.84
528.55	39138.44
528.72	39688.46
528.89	39489.52
529.07	38948.85
529.24	39119.71
529.41	39482.50
529.58	39328.02
529.75	39152.48
529.92	39826.56
530.09	39409.94
530.26	39700.17
530.43	39730.59
530.60	39550.37
530.77	40018.48
530.94	40203.38
531.11	39730.59
531.28	39718.89
531.46	40236.15
531.63	40456.16
531.80	39901.45
531.97	39686.12
532.14	40011.46
532.31	39468.45
532.48	40294.66
532.65	40299.34
532.82	39992.73
532.99	40385.94
533.16	40488.93
533.33	40882.14
533.50	40926.61
533.67	40498.29
533.84	39957.63
534.01	40596.59
534.18	40877.46
534.35	40942.99
534.52	40629.36
534.69	40718.30
534.86	41415.78
535.03	40811.92
535.20	41511.74
535.37	41691.96
535.54	41383.01
535.71	41263.64
535.88	41078.74
536.05	41069.38
536.22	41198.11
536.38	41659.20
536.55	41694.30
536.72	40893.84
536.89	41120.87
537.06	41263.64
537.23	41979.85
537.40	41357.27
537.57	41507.06
537.74	41298.75
537.91	41921.34
538.08	41940.06
538.25	41303.43
538.42	41724.73
538.59	41984.53
538.75	41537.49
538.92	42064.11
539.09	42148.37
539.26	41841.76
539.43	42190.50
539.60	42286.46
539.77	42164.75
539.94	42342.63
540.11	42099.22
540.28	41825.37
540.44	42160.07
540.61	42071.13
540.78	42024.32
540.95	42054.75
541.12	42469.02
541.29	42085.17
541.46	42157.73
541.62	42543.92
541.79	42424.55
541.96	42143.69
542.13	42251.35
542.30	42284.12
542.47	43030.75
542.63	42204.54
542.80	42899.68
542.97	43540.99
543.14	43103.31
543.31	42815.42
543.48	43328.00
543.64	43555.03
543.81	43601.84
543.98	43131.39
544.15	43395.87
544.32	43819.51
544.48	43545.67
544.65	43714.19
544.82	43349.06
544.99	43227.35
545.16	43206.29
545.32	43718.87
545.49	43723.55
545.66	43669.72
545.83	43805.47
546.00	44093.35
546.16	44058.24
546.33	43533.96
546.50	43917.81
546.67	44378.90
546.83	43236.72
547.00	43552.69
547.17	43765.68
547.34	44198.68
547.50	44002.07
547.67	44439.75
547.84	44037.18
548.00	44664.44
548.17	44919.56
548.34	43901.43
548.51	44196.34
548.67	44619.97
548.84	44500.61
549.01	44067.61
549.18	44149.53
549.34	44832.96
549.51	45055.31
549.68	44032.50
549.84	44285.28
550.01	44769.77
550.18	43856.96
550.34	44495.92
550.51	44432.73
550.68	44526.35
550.84	44231.44
551.01	44737.00
551.18	44861.05
551.34	44624.65
551.51	44868.07
551.68	44809.56
551.84	44521.67
552.01	45074.04
552.18	45010.84
552.34	44580.18
552.51	44968.71
552.68	44664.44
552.84	45015.52
553.01	45359.58
553.18	44868.07
553.34	45113.83
553.51	44989.78
553.67	44928.92
553.84	45406.39
554.01	45673.21
554.17	45830.03
554.34	45525.76
554.51	45464.91
554.67	45186.38
554.84	45584.27
555.00	44961.69
555.17	45385.33
555.33	44961.69
555.50	45277.66
555.67	45425.12
555.83	45214.47
556.00	45504.70
556.16	45638.11
556.33	45600.66
556.50	45640.45
556.66	45631.08
556.83	45483.63
556.99	45603.00
557.16	45528.10
557.32	46052.38
557.49	45909.61
557.65	45579.59
557.82	45441.50
557.98	45853.44
558.15	45691.94
558.32	45373.63
558.48	45801.94
558.65	45422.78
558.81	45769.18
558.98	45551.51
559.14	45544.48
559.31	45713.00
559.47	46181.11
559.64	45918.97
559.80	46169.41
559.97	45607.68
560.13	45525.76
560.30	45935.35
560.46	46052.38
560.63	45748.11
560.79	46298.14
560.96	46101.53
561.12	45808.96
561.29	46155.36
561.45	45961.10
561.61	46286.43
561.78	46117.92
561.94	46054.72
562.11	46153.02
562.27	46181.11
562.44	46176.43
562.60	46429.21
562.77	46532.19
562.93	46487.72
563.10	46473.68
563.26	45504.70
563.42	46476.02
563.59	46202.18
563.75	46363.67
563.92	46405.80
564.08	46380.06
564.24	46501.76
564.41	46550.91
564.57	46574.32
564.74	46185.79
564.90	46717.09
565.07	46113.23
565.23	46658.58
565.39	46227.92
565.56	46485.38
565.72	46483.04
565.88	46375.37
566.05	46665.60
566.21	46569.64
566.38	46560.28
566.54	46354.31
566.70	46478.36
566.87	47028.38
567.03	46597.73
567.19	47068.17
567.36	46398.78
567.52	46457.29
567.68	46740.50
567.85	46171.75
568.01	46646.88
568.17	46312.18
568.34	46499.42
568.50	46841.14
568.66	46085.15
568.83	46450.27
568.99	45890.88
569.15	46532.19
569.32	46424.53
569.48	46454.95
569.64	45886.20
569.81	46810.71
569.97	46401.12
570.13	46295.80
570.30	46342.61
570.46	46483.04
570.62	46176.43
570.78	46270.05
570.95	46433.89
571.11	46972.21
571.27	46181.11
571.43	46398.78
571.60	46637.51
571.76	46967.53
571.92	46522.83
572.09	46579.00
572.25	46667.94
572.41	46494.74
572.57	46623.47
572.74	46789.65
572.90	46911.36
573.06	46789.65
573.22	46939.44
573.38	47187.54
573.55	46529.85
573.71	47178.18
573.87	46899.65
574.03	46337.93
574.20	46937.10
574.36	46614.11
574.52	46806.03
574.68	46703.05
574.84	46747.52
575.01	46869.23
575.17	46799.01
575.33	46515.81
575.49	46396.44
575.65	47107.96
575.82	46635.17
575.98	47061.15
576.14	47384.15
576.30	47154.77
576.46	46476.02
576.62	46426.87
576.79	46520.49
576.95	46342.61
577.11	46579.00
577.27	46588.36
577.43	46925.40
577.59	46932.42
577.75	46684.33
577.92	46562.62
578.08	46106.21
578.24	46824.76
578.40	46920.72
578.56	46953.49
578.72	46630.49
578.88	46361.33
579.04	46965.19
579.21	46710.07
579.37	46349.63
579.53	47009.66
579.69	46576.66
579.85	46939.44
580.01	47044.77
580.17	46705.39
580.33	46761.56
580.49	47323.29
580.65	46990.94
580.82	46972.21
580.98	46443.25
581.14	46534.53
581.30	47166.48
581.46	46749.86
581.62	46791.99
581.78	46944.12
581.94	47306.91
582.10	46981.57
582.26	47292.86
582.42	46539.21
582.58	46932.42
582.74	46749.86
582.90	46747.52
583.06	47082.22
583.22	46883.27
583.38	47215.63
583.54	46766.24
583.70	47054.13
583.86	46576.66
584.02	46494.74
584.18	46981.57
584.34	47227.33
584.50	47124.35
584.66	46878.59
584.82	46632.83
584.98	47082.22
585.14	47147.75
585.30	46586.02
585.46	47185.20
585.62	46216.22
585.78	46588.36
585.94	46415.16
586.10	46803.69
586.26	46623.47
586.42	46967.53
586.58	47084.56
586.74	46740.50
586.90	46960.51
587.06	46607.09
587.22	47313.93
587.38	46513.47
587.54	47002.64
587.70	47033.07
587.86	47103.28
588.02	47000.30
588.18	47136.05
588.34	46611.77
588.49	46653.90
588.65	46291.12
588.81	46244.30
588.97	46356.65
589.13	46209.20
589.29	46717.09
589.45	46639.86
589.61	46461.97
589.77	46667.94
589.93	46618.79
590.08	47042.43
590.24	47030.72
590.40	46955.83
590.56	46960.51
590.72	46862.21
590.88	46824.76
591.04	46609.43
591.20	47281.16
591.35	46976.89
591.51	47571.39
591.67	47079.88
591.83	46986.25
591.99	46756.88
592.15	46948.81
592.31	47182.86
592.46	47058.81
592.62	47194.56
592.78	47098.60
592.94	47449.68
593.10	46787.31
593.26	47173.50
593.41	47171.16
593.57	47278.82
593.73	47004.98
593.89	47379.46
594.05	47269.46
594.20	46576.66
594.36	46784.97
594.52	46937.10
594.68	46843.48
594.84	47227.33
594.99	47320.95
595.15	47208.61
595.31	47224.99
595.47	46981.57
595.62	46934.76
595.78	47297.55
595.94	47384.15
596.10	47119.66
596.25	47325.63
596.41	47288.18
596.57	47002.64
596.73	47023.70
596.88	46796.67
597.04	47416.91
597.20	47239.03
597.36	47346.70
597.51	47248.39
597.67	47349.04
597.83	47351.38
597.99	46948.81
598.14	47337.33
598.30	47084.56
598.46	47164.14
598.61	47105.62
598.77	46981.57
598.93	46997.96
599.09	47131.37
599.24	47840.55
599.40	46927.74
599.56	47000.30
599.71	47107.96
599.87	47707.14
600.03	47363.08
600.18	46946.47
600.34	47129.03
600.50	47044.77
600.65	47164.14
600.81	47068.17
600.97	46974.55
601.12	47412.23
601.28	47248.39
601.44	46852.84
601.59	47168.82
601.75	46604.75
601.91	47342.02
602.06	46862.21
602.22	47288.18
602.37	47147.75
602.53	47133.71
602.69	47524.58
602.84	47466.06
603.00	46885.61
603.16	46784.97
603.31	46904.34
603.47	47192.22
603.62	46972.21
603.78	47119.66
603.94	46820.08
604.09	46878.59
604.25	46852.84
604.40	47243.71
604.56	46775.61
604.71	47023.70
604.87	47367.76
605.03	46932.42
605.18	46979.23
605.34	46986.25
605.49	46768.58
605.65	46894.97
605.80	46733.48
605.96	47320.95
606.12	47012.00
606.27	46967.53
606.43	47093.92
606.58	47370.10
606.74	47019.02
606.89	46979.23
607.05	46911.36
607.20	47016.68
607.36	47051.79
607.51	47004.98
607.67	47091.58
607.82	47033.07
607.98	47114.98
608.13	47096.26
608.29	46831.78
608.44	46637.51
608.60	45968.12
608.75	46506.44
608.91	46506.44
609.06	46202.18
609.22	46440.91
609.37	46555.60
609.53	46763.90
609.68	46590.70
609.84	46567.30
609.99	46522.83
610.15	46611.77
610.30	45930.67
610.46	46506.44
610.61	46799.01
610.76	46150.68
610.92	46398.78
611.07	46522.83
611.23	46499.42
611.38	46363.67
611.54	46298.14
611.69	46314.52
611.84	46504.10
612.00	46293.46
612.15	46050.04
612.31	46590.70
612.46	46202.18
612.62	46167.07
612.77	45998.55
612.92	46384.74
613.08	46197.49
613.23	46405.80
613.39	46153.02
613.54	45820.67
613.69	45818.33
613.85	46138.98
614.00	46539.21
614.15	46258.35
614.31	46232.60
614.46	46068.76
614.62	45787.90
614.77	46192.81
614.92	46106.21
615.08	45940.04
615.23	46005.57
615.38	45663.85
615.54	45462.57
615.69	45914.29
615.84	45881.52
616.00	45687.26
616.15	45677.90
616.30	45830.03
616.46	45371.28
616.61	45413.41
616.76	45698.96
616.92	45457.88
617.07	45539.80
617.22	45275.32
617.37	45420.44
617.53	45696.62
617.68	45448.52
617.83	45464.91
617.99	45565.55
618.14	45734.07
618.29	45401.71
618.45	44694.87
618.60	45588.95
618.75	45467.25
618.90	45549.17
619.06	45537.46
619.21	45532.78
619.36	45603.00
619.51	45308.09
619.67	45443.84
619.82	45567.89
619.97	45514.06
620.12	44989.78
620.28	45071.70
620.43	44949.99
620.58	45195.74
620.73	44893.82
620.89	44935.95
621.04	45177.02
621.19	44945.31
621.34	45015.52
621.49	44804.88
621.65	44587.21
621.80	45432.14
621.95	44790.83
622.10	44612.95
622.25	44957.01
622.41	44423.37
622.56	44383.58
622.71	44837.64
622.86	44622.31
623.01	44854.03
623.16	45015.52
623.32	44748.70
623.47	44975.73
623.62	44732.32
623.77	44463.16
623.92	44381.24
624.07	44467.84
624.23	44130.80
624.38	44367.20
624.53	44163.57
624.68	44315.70
624.83	44357.83
624.98	44261.87
625.13	44123.78
625.29	43908.45
625.44	44285.28
625.59	44353.15
625.74	43800.79
625.89	43618.22
626.04	43576.09
626.19	44140.16
626.34	43934.20
626.49	44100.37
626.65	43852.28
626.80	43959.94
626.95	43758.66
627.10	44058.24
627.25	43515.24
627.40	43136.07
627.55	43117.35
627.70	43133.73
627.85	43686.10
628.00	43697.80
628.15	43915.47
628.30	43585.46
628.45	43180.54
628.60	43632.27
628.76	43824.19
628.91	43072.88
629.06	43288.21
629.21	43199.27
629.36	43271.82
629.51	43402.89
629.66	43058.84
629.81	43051.81
629.96	43407.58
630.11	43140.75
630.26	43704.82
630.41	43356.08
630.56	42995.64
630.71	43658.01
630.86	43112.67
631.01	42990.96
631.16	43367.79
631.31	43159.48
631.46	42586.05
631.61	43234.38
631.76	42953.51
631.91	43026.07
632.06	42873.93
632.21	43203.95
632.36	43129.05
632.51	43005.00
632.66	42955.85
632.81	42422.21
632.96	43154.80
633.10	42724.14
633.25	42466.68
633.40	42850.53
633.55	42356.67
633.70	42562.64
633.85	42462.00
634.00	43122.03
634.15	42684.35
634.30	42712.44
634.45	42726.48
634.60	42181.13
634.75	42487.74
634.90	42686.69
635.05	42410.51
635.19	42501.79
635.34	42595.41
635.49	42476.04
635.64	41867.50
635.79	42366.04
635.94	41860.48
636.09	42426.89
636.24	42026.66
636.39	41851.12
636.53	41907.29
636.68	42270.08
636.83	42024.32
636.98	41879.21
637.13	41956.44
637.28	42117.94
637.43	42323.91
637.57	42370.72
637.72	42057.09
637.87	42246.67
638.02	42059.43
638.17	42141.35
638.32	41429.82
638.46	41762.18
638.61	41741.11
638.76	41399.40
638.91	41628.77
639.06	41432.16
639.20	41411.10
639.35	41897.93
639.50	41713.03
639.65	41745.80
639.80	41542.17
639.94	41593.66
640.09	41553.87
640.24	41551.53
640.39	41483.66
640.54	41331.52
640.68	40863.41
640.83	41656.85
640.98	41022.57
641.13	40985.12
641.27	41420.46
641.42	41116.19
641.57	41691.96
641.72	41308.11
641.86	41050.66
642.01	40671.49
642.16	41048.32
642.31	40858.73
642.45	40893.84
642.60	40790.86
642.75	40753.41
642.90	41284.71
643.04	40996.82
643.19	40954.69
643.34	41125.55
643.48	40973.42
643.63	40903.20
643.78	40603.61
643.93	41134.92
644.07	40069.97
644.22	40739.36
644.37	40704.26
644.51	40357.86
644.66	40493.61
644.81	40531.06
644.95	40975.76
645.10	40657.45
645.25	40818.94
645.39	40554.46
645.54	41024.91
645.69	40727.66
645.83	40498.29
645.98	40587.23
646.13	40502.97
646.27	40273.60
646.42	40142.53
646.57	40294.66
646.71	40280.62
646.86	39777.40
647.00	40318.07
647.15	40275.94
647.30	40273.60
647.44	39882.73
647.59	40238.49
647.74	39775.06
647.88	39695.49
648.03	39786.77
648.17	39871.03
648.32	39543.35
648.47	39754.00
648.61	39807.83
648.76	40053.59
648.90	40130.83
649.05	39873.37
649.20	39978.69
649.34	39316.32
649.49	39629.95
649.63	39627.61
649.78	39831.24
649.92	39653.36
650.07	40119.12
650.21	39798.47
650.36	39723.57
650.51	39529.31
650.65	39901.45
650.80	40140.19
650.94	40226.79
651.09	39718.89
651.23	39601.86
651.38	39559.73
651.52	39346.75
651.67	38845.87
651.81	39763.36
651.96	38801.40
652.10	39175.89
652.25	39356.11
652.39	38995.67
652.54	39426.32
652.68	39707.19
652.83	39351.43
652.97	39494.20
653.12	39264.83
653.26	39000.35
653.41	39077.58
653.55	39206.31
653.70	38600.12
653.84	39175.89
653.99	39363.13
654.13	38986.30
654.27	39227.38
654.42	38649.27
654.56	38974.60
654.71	39030.77
654.85	38993.32
655.00	38635.22
655.14	38553.30
655.29	38572.03
655.43	38536.92
655.57	38403.51
655.72	38029.02
655.86	38412.87
656.01	38188.18
656.15	38398.83
656.30	38120.31
656.44	38251.38
656.58	38141.37
656.73	38148.39
656.87	38349.68
657.01	37862.85
657.16	38087.54
657.30	38085.20
657.45	37961.15
657.59	38183.50
657.73	38127.33
657.88	38206.90
658.02	37743.48
658.16	37706.03
658.31	38515.86
658.45	38452.66
658.60	37801.99
658.74	37883.91
658.88	37958.81
659.03	37628.79
659.17	37249.63
659.31	37694.33
659.46	38171.80
659.60	37237.92
659.74	37230.90
659.89	37429.85
660.03	37432.19
660.17	37731.78
660.32	37706.03
660.46	37544.53
660.60	37471.98
660.74	37436.87
660.89	37617.09
661.03	37006.21
661.17	36914.93
661.32	36891.52
661.46	37085.79
661.60	37132.60
661.74	37046.00
661.89	36833.01
662.03	37036.64
662.17	37202.82
662.31	36641.09
662.46	37132.60
662.60	37029.62
662.74	36875.14
662.88	36713.64
663.03	36533.42
663.17	36629.38
663.31	36362.56
663.45	36786.20
663.60	36477.25
663.74	36268.94
663.88	36233.83
664.02	35971.69
664.17	36322.77
664.31	36034.89
664.45	36472.57
664.59	36327.45
664.73	36165.96
664.88	36308.73
665.02	35578.48
665.16	36027.87
665.30	36072.34
665.44	35592.53
665.59	35431.03
665.73	35793.81
665.87	35243.79
666.01	35536.35
666.15	35543.38
666.29	35531.67
666.44	35536.35
666.58	35496.56
666.72	35353.79
666.86	35416.99
667.00	35955.31
667.14	35468.48
667.28	34649.29
667.43	34934.84
667.57	34899.73
667.71	34899.73
667.85	34988.67
667.99	34422.26
668.13	34178.84
668.27	34611.84
668.41	34558.01
668.56	34548.65
668.70	34827.17
668.84	34686.74
668.98	34391.83
669.12	34370.77
669.26	34270.12
669.40	34387.15
669.54	33956.49
669.68	33897.98
669.82	33982.24
669.96	33741.16
670.10	33731.80
670.25	34218.63
670.39	33986.92
670.53	34029.05
670.67	33701.37
670.81	34073.52
670.95	33902.66
671.09	33703.71
671.23	33883.94
671.37	33776.27
671.51	33338.59
671.65	33256.67
671.79	32856.44
671.93	33057.73
672.07	33614.77
672.21	32938.36
672.35	32910.27
672.49	33003.89
672.63	33027.30
672.77	32720.69
672.91	33090.49
673.05	32545.15
673.19	32762.82
673.33	32755.80
673.47	32662.18
673.61	32432.80
673.75	31997.46
673.89	32226.84
674.03	31885.12
674.17	31770.43
674.31	31550.42
674.45	31697.88
674.59	32084.06
674.73	32133.21
674.87	31658.09
675.01	31686.17
675.15	32084.06
675.29	32013.85
675.43	31662.77
675.56	31515.31
675.70	31611.28
675.84	31335.09
675.98	30672.72
676.12	31091.68
676.26	30955.93
676.40	30988.69
676.54	30745.28
676.68	30785.07
676.82	30312.28
676.96	30480.80
677.10	30382.49
677.23	30115.67
677.37	30448.03
677.51	30429.30
677.65	30347.39
677.79	29771.61
677.93	30501.86
678.07	29956.52
678.21	29785.66
678.34	29890.98
678.48	29441.60
678.62	29724.80
678.76	29212.23
678.90	29324.57
679.04	29453.30
679.18	29305.85
679.31	29165.42
679.45	28966.47
679.59	28987.53
679.73	28893.91
679.87	28945.41
680.00	29062.43
680.14	28397.72
680.28	28386.02
680.42	28046.64
680.56	28676.24
680.70	28238.56
680.83	28252.61
680.97	27903.87
681.11	27936.63
681.25	28093.45
681.39	27927.27
681.52	27665.13
681.66	27360.86
681.80	27835.99
681.94	27470.87
682.07	27538.74
682.21	27068.30
682.35	27297.67
682.49	27498.95
682.62	27080.00
682.76	26909.14
682.90	27105.74
683.04	26906.80
683.17	26927.86
683.31	26335.71
683.45	26714.87
683.59	26277.19
683.72	26277.19
683.86	25986.97
684.00	26202.30
684.13	26204.64
684.27	26043.14
684.41	26211.66
684.55	25549.29
684.68	25811.43
684.82	25556.31
684.96	25781.00
685.09	25411.20
685.23	25612.48
685.37	25474.39
685.50	25469.71
685.64	25270.76
685.78	25242.68
685.91	25144.38
686.05	24893.94
686.19	24816.70
686.32	24676.27
686.46	24329.87
686.60	23948.36
686.73	24098.16
686.87	23590.26
687.01	23590.26
687.14	23498.98
687.28	23688.56
687.42	23948.36
687.55	23463.87
687.69	23316.42
687.82	23410.04
687.96	23175.98
688.10	23606.64
688.23	23274.29
688.37	23023.85
688.50	22881.08
688.64	23061.30
688.78	22764.05
688.91	22581.49
689.05	22410.63
689.18	22780.43
689.32	22424.67
689.46	22663.41
689.59	22698.52
689.73	22712.56
689.86	22349.78
690.00	22450.42
690.13	22387.22
690.27	22396.59
690.41	22258.49
690.54	21797.41
690.68	21680.38
690.81	21729.53
690.95	21514.20
691.08	21413.56
691.22	21504.84
691.35	21551.65
691.49	21577.40
691.62	21738.90
691.76	21507.18
691.89	21408.88
692.03	21170.15
692.16	21050.78
692.30	21041.42
692.43	20837.79
692.57	20517.14
692.70	20489.05
692.84	20713.74
692.97	20444.58
693.11	20318.19
693.24	20360.32
693.38	20011.58
693.51	19936.68
693.65	19999.88
693.78	20137.97
693.92	20144.99
694.05	20032.65
694.19	19733.06
694.32	19716.67
694.45	19625.39
694.59	19646.46
694.72	19278.99
694.86	19248.57
694.99	19218.14
695.13	19150.26
695.26	18876.42
695.39	18993.45
695.53	19295.38
695.66	18827.27
695.80	18714.92
695.93	18810.89
696.07	18789.82
696.20	18635.35
696.33	18087.66
696.47	18537.04
696.60	18391.93
696.73	18319.37
696.87	18354.48
697.00	18249.16
697.14	18354.48
697.27	17811.48
697.40	17846.58
697.54	18043.19
697.67	17806.80
697.80	17970.63
697.94	17790.41
698.07	17413.59
698.21	17633.60
698.34	17345.71
698.47	17252.09
698.61	17053.14
698.74	16849.52
698.87	17188.89
699.01	17125.70
699.14	16929.09
699.27	16580.36
699.40	16800.37
699.54	16563.97
699.67	16521.84
699.80	16622.48
699.94	16505.46
700.07	16498.44
700.20	16603.76
700.34	16226.93
700.47	16140.33
700.60	16575.67
700.73	16350.98
700.87	16411.84
701.00	16086.50
701.13	16027.99
701.26	16025.65
701.40	16065.44
701.53	15648.82
701.66	15510.73
701.79	15613.71
701.93	15438.17
702.06	15389.02
702.19	15222.84
702.32	15169.01
702.46	14981.77
702.59	15499.03
702.72	15145.61
702.85	15103.48
702.99	15091.77
703.12	14829.63
703.25	15059.01
703.38	14967.73
703.51	14981.77
703.65	14864.74
703.78	14677.50
703.91	14487.92
704.04	14724.31
704.17	14492.60
704.31	14396.64
704.44	14092.37
704.57	14120.45
704.70	13895.76
704.83	14071.30
704.96	14085.34
705.10	14265.57
705.23	13940.23
>>>>>End Processed Spectral Data<<<<<
