SpectraSuite Data File
++++++++++++++++++++++++++++++++++++
Date: Fri Oct 25 11:34:48 EDT 2013
User: price-jones
Dark Spectrum Present: No
Reference Spectrum Present: No
Number of Sampled Component Spectra: 1
Spectrometers: USB2+H05261
Integration Time (usec): 100000 (USB2+H05261)
Spectra Averaged: 1 (USB2+H05261)
Boxcar Smoothing: 0 (USB2+H05261)
Correct for Electrical Dark: No (USB2+H05261)
Strobe/Lamp Enabled: No (USB2+H05261)
Correct for Detector Non-linearity: No (USB2+H05261)
Correct for Stray Light: No (USB2+H05261)
Number of Pixels in Processed Spectrum: 2048
>>>>>Begin Processed Spectral Data<<<<<
365.73	280.86
365.92	280.86
366.12	280.86
366.32	205.97
366.52	187.24
366.72	271.50
366.91	124.05
367.11	187.24
367.31	163.84
367.51	234.05
367.70	196.60
367.90	201.29
368.10	177.88
368.30	184.90
368.49	175.54
368.69	210.65
368.89	238.73
369.09	234.05
369.28	245.76
369.48	210.65
369.68	262.14
369.87	266.82
370.07	215.33
370.27	311.29
370.47	283.20
370.66	479.81
370.86	521.94
371.06	510.24
371.25	547.69
371.45	561.73
371.65	561.73
371.84	500.87
372.04	557.05
372.24	533.64
372.44	571.09
372.63	641.31
372.83	564.07
373.03	603.86
373.22	617.90
373.42	662.37
373.62	615.56
373.81	645.99
374.01	671.73
374.21	629.60
374.40	636.63
374.60	678.76
374.79	585.13
374.99	706.84
375.19	638.97
375.38	674.07
375.58	657.69
375.78	702.16
375.97	695.14
376.17	730.25
376.37	603.86
376.56	620.24
376.76	667.05
376.95	688.12
377.15	622.58
377.35	685.78
377.54	650.67
377.74	709.18
377.93	732.59
378.13	737.27
378.33	709.18
378.52	741.95
378.72	685.78
378.91	702.16
379.11	711.52
379.31	697.48
379.50	648.33
379.70	727.91
379.89	744.29
380.09	788.76
380.28	620.24
380.48	697.48
380.68	704.50
380.87	676.41
381.07	706.84
381.26	753.65
381.46	823.87
381.65	765.36
381.85	755.99
382.04	798.12
382.24	758.33
382.43	725.57
382.63	758.33
382.83	786.42
383.02	814.51
383.22	711.52
383.41	702.16
383.61	802.80
383.80	805.14
384.00	805.14
384.19	814.51
384.39	702.16
384.58	755.99
384.78	734.93
384.97	816.85
385.17	821.53
385.36	837.91
385.56	809.83
385.75	781.74
385.95	826.21
386.14	725.57
386.34	765.36
386.53	828.55
386.72	760.67
386.92	835.57
387.11	809.83
387.31	880.04
387.50	816.85
387.70	875.36
387.89	889.40
388.09	924.51
388.28	758.33
388.48	863.66
388.67	837.91
388.86	931.53
389.06	898.77
389.25	898.77
389.45	929.19
389.64	908.13
389.84	936.21
390.03	870.68
390.22	912.81
390.42	959.62
390.61	950.26
390.81	1004.09
391.00	901.11
391.19	1001.75
391.39	954.94
391.58	903.45
391.78	964.30
391.97	945.58
392.16	976.00
392.36	1006.43
392.55	1013.45
392.75	950.26
392.94	929.19
393.13	973.66
393.33	1027.50
393.52	1046.22
393.71	1043.88
393.91	1046.22
394.10	966.64
394.29	1111.75
394.49	973.66
394.68	1006.43
394.88	1011.11
395.07	1076.65
395.26	1048.56
395.46	1125.80
395.65	1102.39
395.84	1165.59
396.04	1198.35
396.23	1158.57
396.42	1135.16
396.62	1203.04
396.81	1203.04
397.00	1102.39
397.19	1156.22
397.39	1128.14
397.58	1135.16
397.77	1221.76
397.97	1212.40
398.16	1214.74
398.35	1200.69
398.55	1284.95
398.74	1142.18
398.93	1233.46
399.12	1156.22
399.32	1249.85
399.51	1280.27
399.70	1287.29
399.90	1301.34
400.09	1256.87
400.28	1294.32
400.47	1287.29
400.67	1334.11
400.86	1261.55
401.05	1409.00
401.24	1406.66
401.44	1329.42
401.63	1479.22
401.82	1364.53
402.01	1303.68
402.21	1418.36
402.40	1441.77
402.59	1441.77
402.78	1479.22
402.97	1453.47
403.17	1533.05
403.36	1404.32
403.55	1462.83
403.74	1483.90
403.93	1568.16
404.13	1563.48
404.32	1554.12
404.51	1540.07
404.70	1614.97
404.89	1579.86
405.09	1671.14
405.28	1598.59
405.47	1682.85
405.66	1584.54
405.85	1624.33
406.05	1636.03
406.24	1689.87
406.43	1750.72
406.62	1748.38
406.81	1750.72
407.00	1743.70
407.20	1598.59
407.39	1797.53
407.58	1792.85
407.77	1741.36
407.96	1872.43
408.15	1790.51
408.34	1734.34
408.54	1905.20
408.73	1860.73
408.92	1818.60
409.11	1860.73
409.30	1860.73
409.49	1919.24
409.68	1923.92
409.87	1888.81
410.07	1954.35
410.26	1914.56
410.45	1921.58
410.64	1909.88
410.83	1977.75
411.02	2090.10
411.21	2064.35
411.40	2080.74
411.59	2165.00
411.78	2059.67
411.98	2059.67
412.17	2087.76
412.36	2085.42
412.55	2249.25
412.74	2200.10
412.93	2296.07
413.12	2195.42
413.31	2284.36
413.50	2216.49
413.69	2260.96
413.88	2377.98
414.07	2363.94
414.26	2368.62
414.45	2452.88
414.64	2471.61
414.83	2478.63
415.02	2464.58
415.22	2506.71
415.41	2506.71
415.60	2387.35
415.79	2499.69
415.98	2614.38
416.17	2682.25
416.36	2513.74
416.55	2663.53
416.74	2621.40
416.93	2658.85
417.12	2640.12
417.31	2839.07
417.50	2722.04
417.69	2822.69
417.88	2818.00
418.07	2810.98
418.26	2841.41
418.45	2916.31
418.64	2897.58
418.83	2733.75
419.02	2796.94
419.21	3000.57
419.39	2970.14
419.58	2951.42
419.77	2876.52
419.96	2958.44
420.15	3005.25
420.34	2974.82
420.53	3026.31
420.72	3033.33
420.91	3009.93
421.10	3201.85
421.29	3138.66
421.48	3035.67
421.67	2998.23
421.86	3089.51
422.05	3157.38
422.24	3070.78
422.43	3232.28
422.61	3157.38
422.80	3192.49
422.99	3183.13
423.18	3138.66
423.37	3269.73
423.56	3185.47
423.75	3276.75
423.94	3204.19
424.13	3082.49
424.32	3136.32
424.50	3126.96
424.69	3288.45
424.88	3276.75
425.07	3199.51
425.26	3063.76
425.45	3227.60
425.64	3253.34
425.83	3419.52
426.01	3400.80
426.20	3321.22
426.39	3321.22
426.58	3328.24
426.77	3267.39
426.96	3358.67
427.15	3211.22
427.33	3393.78
427.52	3548.25
427.71	3478.04
427.90	3379.73
428.09	3494.42
428.28	3487.40
428.46	3468.67
428.65	3548.25
428.84	3494.42
429.03	3653.58
429.22	3468.67
429.40	3644.21
429.59	3611.45
429.78	3522.51
429.97	3447.61
430.16	3487.40
430.34	3744.86
430.53	3700.39
430.72	3716.77
430.91	3749.54
431.10	3705.07
431.28	3801.03
431.47	3716.77
431.66	3964.87
431.85	3794.01
432.03	3824.44
432.22	3873.59
432.41	3880.61
432.60	3936.78
432.79	3826.78
432.97	3698.05
433.16	3852.52
433.35	3868.91
433.54	3941.46
433.72	3896.99
433.91	3868.91
434.10	3967.21
434.28	3950.82
434.47	4035.08
434.66	4007.00
434.85	3969.55
435.03	4215.30
435.22	4124.02
435.41	4170.83
435.59	4138.07
435.78	4177.86
435.97	4135.73
436.16	4175.52
436.34	4126.36
436.53	4159.13
436.72	4285.52
436.90	4149.77
437.09	4304.25
437.28	4149.77
437.46	4227.01
437.65	4280.84
437.84	4353.40
438.02	4470.42
438.21	4365.10
438.40	4404.89
438.58	4554.68
438.77	4526.60
438.96	4374.46
439.14	4461.06
439.33	4547.66
439.52	4564.04
439.70	4596.81
439.89	4786.40
440.08	4814.48
440.26	4770.01
440.45	4762.99
440.63	4889.38
440.82	4903.42
441.01	4802.78
441.19	4945.55
441.38	4980.66
441.57	4994.70
441.75	5069.60
441.94	5025.13
442.12	5228.76
442.31	5062.58
442.50	5137.48
442.68	5097.69
442.87	5203.01
443.05	5207.69
443.24	5263.86
443.43	5160.88
443.61	5214.71
443.80	5275.57
443.98	5174.92
444.17	5013.43
444.35	5287.27
444.54	5394.93
444.73	5217.05
444.91	5401.96
445.10	5373.87
445.28	5338.76
445.47	5226.42
445.65	5331.74
445.84	5549.41
446.02	5256.84
446.21	5313.02
446.39	5481.53
446.58	5514.30
446.77	5338.76
446.95	5298.97
447.14	5369.19
447.32	5453.45
447.51	5446.43
447.69	5444.09
447.88	5451.11
448.06	5507.28
448.25	5343.44
448.43	5526.00
448.62	5472.17
448.80	5458.13
448.99	5575.16
449.17	5673.46
449.36	5781.12
449.54	5664.10
449.73	5727.29
449.91	5638.35
450.10	5678.14
450.28	5724.95
450.46	5863.04
450.65	5853.68
450.83	5802.19
451.02	5916.87
451.20	5727.29
451.39	5891.13
451.57	5743.67
451.76	5755.38
451.94	6040.92
452.13	5877.09
452.31	5837.30
452.49	5884.11
452.68	5926.24
452.86	5893.47
453.05	6052.63
453.23	6071.35
453.42	5949.64
453.60	5944.96
453.78	6153.27
453.97	6047.94
454.15	6111.14
454.34	6120.50
454.52	6361.58
454.70	6277.32
454.89	6328.81
455.07	6251.57
455.26	6174.33
455.44	6406.05
455.62	6289.02
455.81	6319.45
455.99	6366.26
456.17	6469.24
456.36	6511.37
456.54	6541.80
456.73	6403.71
456.91	6497.33
457.09	6633.08
457.28	6794.58
457.46	6427.11
457.64	6729.04
457.83	6637.76
458.01	6595.63
458.19	6752.45
458.38	6750.10
458.56	6909.26
458.74	6757.13
458.93	6808.62
459.11	6935.01
459.29	6579.25
459.48	6733.72
459.66	6944.37
459.84	6796.92
460.03	6932.67
460.21	7126.93
460.39	6806.28
460.57	6876.49
460.76	7068.42
460.94	7070.76
461.12	6927.99
461.31	7164.38
461.49	7089.48
461.67	7129.27
461.85	7220.55
462.04	7080.12
462.22	7449.93
462.40	7262.68
462.59	7335.24
462.77	7265.02
462.95	7414.82
463.13	7363.33
463.32	7342.26
463.50	7438.22
463.68	7548.23
463.86	7377.37
464.05	7349.28
464.23	7248.64
464.41	7632.49
464.59	7431.20
464.78	7698.02
464.96	7499.08
465.14	7557.59
465.32	7653.55
465.50	7742.49
465.69	7693.34
465.87	7789.30
466.05	7765.90
466.23	7634.83
466.41	7662.91
466.60	7906.33
466.78	7637.17
466.96	7826.75
467.14	7786.96
467.32	7990.59
467.51	7845.48
467.69	7683.98
467.87	8126.34
468.05	8077.19
468.23	7824.41
468.41	7805.69
468.60	7925.05
468.78	8231.66
468.96	7831.43
469.14	8203.58
469.32	7941.44
469.50	8011.65
469.69	8184.85
469.87	8365.07
470.05	8442.31
470.23	8439.97
470.41	8243.37
470.59	8322.94
470.77	8070.17
470.95	8381.46
471.14	8374.44
471.32	8285.50
471.50	8463.38
471.68	8463.38
471.86	8615.51
472.04	8617.85
472.22	8627.21
472.40	8648.28
472.58	8674.03
472.77	8685.73
472.95	8870.63
473.13	8973.61
473.31	8779.35
473.49	9132.77
473.67	8844.88
473.85	8971.27
474.03	9018.08
474.21	9221.71
474.39	9198.31
474.57	9167.88
474.75	9394.91
474.93	9327.03
475.12	9235.75
475.30	9432.36
475.48	9518.96
475.66	9626.62
475.84	9633.64
476.02	9640.67
476.20	9778.76
476.38	9654.71
476.56	10010.47
476.74	9930.89
476.92	9781.10
477.10	9860.68
477.28	10022.17
477.46	10162.61
477.64	10160.27
477.82	10202.40
478.00	10611.99
478.18	10216.44
478.36	10455.17
478.54	10551.14
478.72	10733.70
478.90	10736.04
479.08	10682.20
479.26	11105.84
479.44	10956.05
479.62	11056.69
479.80	10988.82
479.98	11379.68
480.16	11435.86
480.34	11433.52
480.52	11602.04
480.70	11651.19
480.88	11424.15
481.06	11487.35
481.24	11482.67
481.41	12016.31
481.59	12051.42
481.77	12077.16
481.95	12229.30
482.13	12198.87
482.31	12154.40
482.49	12503.14
482.67	12608.47
482.85	12776.98
483.03	12828.48
483.21	12774.64
483.39	12861.24
483.57	12840.18
483.74	12931.46
483.92	13041.46
484.10	13053.17
484.28	13577.45
484.46	13657.03
484.64	13743.63
484.82	13544.68
485.00	13642.98
485.18	13748.31
485.35	14298.33
485.53	14185.99
485.71	14270.25
485.89	14422.38
486.07	14324.08
486.25	14398.98
486.43	14548.77
486.61	14679.84
486.78	14817.93
486.96	14923.26
487.14	15288.38
487.32	15269.66
487.50	15222.84
487.68	15459.24
487.85	15461.58
488.03	15695.63
488.21	16032.67
488.39	16187.14
488.57	16189.49
488.75	16079.48
488.92	16196.51
489.10	16482.05
489.28	16484.39
489.46	16748.87
489.64	16533.54
489.81	17074.21
489.99	16587.38
490.17	17516.57
490.35	17331.67
490.53	17418.27
490.70	17448.69
490.88	17373.80
491.06	17633.60
491.24	17799.77
491.41	17958.93
491.59	17944.89
491.77	18012.76
491.95	18314.69
492.13	18370.86
492.30	18658.75
492.48	18602.58
492.66	18700.88
492.84	18941.96
493.01	19019.19
493.19	18827.27
493.37	18953.66
493.54	19019.19
493.72	19115.16
493.90	19456.87
494.08	19620.71
494.25	19690.93
494.43	19740.08
494.61	19611.35
494.79	19913.28
494.96	20346.28
495.14	20247.97
495.32	20428.20
495.49	20135.63
495.67	20285.42
495.85	20858.85
496.02	21146.74
496.20	20671.61
496.38	21046.10
496.55	21207.59
496.73	21652.30
496.91	21266.11
497.09	21413.56
497.26	21652.30
497.44	21380.79
497.62	21886.35
497.79	22061.89
497.97	22005.72
498.14	22033.80
498.32	22108.70
498.50	22328.71
498.67	22185.94
498.85	22363.82
499.03	22515.95
499.20	22497.23
499.38	22675.11
499.56	22501.91
499.73	23206.41
499.91	23033.21
500.08	23084.70
500.26	22993.42
500.44	23070.66
500.61	23117.47
500.79	23339.82
500.97	23608.98
501.14	23700.26
501.32	23718.99
501.49	23407.70
501.67	23803.25
501.84	23618.35
502.02	23716.65
502.20	24215.18
502.37	24091.13
502.55	24357.96
502.72	24278.38
502.90	24329.87
503.07	24407.11
503.25	24453.92
503.43	24659.88
503.60	24800.32
503.78	24510.09
503.95	24577.97
504.13	24746.48
504.30	25221.61
504.48	24620.10
504.65	24865.85
504.83	25486.09
505.01	25902.71
505.18	25493.12
505.36	25455.67
505.53	25593.76
505.71	25841.85
505.88	25874.62
506.06	26029.10
506.23	25947.18
506.41	25811.43
506.58	26043.14
506.76	26419.97
506.93	26286.56
507.11	26316.98
507.28	26354.43
507.46	26740.62
507.63	26492.52
507.81	26677.43
507.98	26864.67
508.16	26686.79
508.33	26658.70
508.50	27185.32
508.68	26705.51
508.85	27520.02
509.03	27239.15
509.20	27255.54
509.38	27323.41
509.55	27431.08
509.73	27548.11
509.90	27662.79
510.08	27456.82
510.25	27852.38
510.42	27569.17
510.60	27623.00
510.77	27861.74
510.95	28395.38
511.12	27728.33
511.30	27639.39
511.47	28481.98
511.64	28348.57
511.82	28360.27
511.99	28280.69
512.17	28582.62
512.34	28535.81
512.51	28905.62
512.69	28505.38
512.86	28950.09
513.04	29099.88
513.21	28879.87
513.38	29401.81
513.56	29179.46
513.73	29053.07
513.90	29289.46
514.08	29181.80
514.25	29385.43
514.43	29511.81
514.60	29539.90
514.77	29605.44
514.95	29654.59
515.12	29832.47
515.29	29881.62
515.47	30089.93
515.64	30038.44
515.81	30050.14
515.99	30143.76
516.16	30183.55
516.33	30302.92
516.51	30668.04
516.68	30506.54
516.85	30520.59
517.03	30487.82
517.20	30855.28
517.37	30787.41
517.54	30792.09
517.72	31061.25
517.89	30974.65
518.06	30883.37
518.24	30859.96
518.41	30976.99
518.58	30979.33
518.75	30733.57
518.93	31229.77
519.10	31309.35
519.27	31653.40
519.45	31854.69
519.62	31583.19
519.79	31716.60
519.96	31878.10
520.14	31873.42
520.31	31512.97
520.48	32170.66
520.65	31707.24
520.83	32098.11
521.00	32154.28
521.17	32006.83
521.34	32453.87
521.52	31889.80
521.69	32781.54
521.86	32627.07
522.03	32594.30
522.20	32823.67
522.38	32884.53
522.55	32669.20
522.72	32854.10
522.89	33191.14
523.07	33558.60
523.24	32814.31
523.41	32943.04
523.58	32999.21
523.75	33074.11
523.92	33174.75
524.10	33432.21
524.27	33549.24
524.44	33425.19
524.61	33158.37
524.78	33949.47
524.96	33699.03
525.13	33773.93
525.30	34438.64
525.47	34059.48
525.64	33460.30
525.81	34101.61
525.98	34277.15
526.16	34108.63
526.33	34052.45
526.50	34298.21
526.67	33869.89
526.84	34504.18
527.01	33970.54
527.18	34623.54
527.36	34597.80
527.53	34546.31
527.70	34759.30
527.87	34703.12
528.04	34782.70
528.21	34440.98
528.38	34361.40
528.55	34902.07
528.72	35269.53
528.89	34930.16
529.07	34967.60
529.24	35421.67
529.41	34927.81
529.58	35227.40
529.75	35068.25
529.92	35531.67
530.09	35084.63
530.26	35466.14
530.43	35431.03
530.60	35339.75
530.77	35344.43
530.94	35587.85
531.11	35538.69
531.28	35494.22
531.46	35824.24
531.63	35852.33
531.80	35913.18
531.97	36034.89
532.14	36025.53
532.31	36304.05
532.48	36444.48
532.65	36119.15
532.82	36243.20
532.99	35791.47
533.16	36346.18
533.33	36147.23
533.50	36613.00
533.67	36540.44
533.84	36584.91
534.01	36788.54
534.18	36465.55
534.35	36715.98
534.52	37022.59
534.69	37184.09
534.86	36957.06
535.03	36727.69
535.20	36863.44
535.37	37134.94
535.54	36982.80
535.71	37097.49
535.88	37125.58
536.05	36751.09
536.22	37448.57
536.38	37118.56
536.55	37188.77
536.72	37319.84
536.89	37275.37
537.06	37455.59
537.23	37600.71
537.40	37296.44
537.57	37258.99
537.74	37364.31
537.91	37542.19
538.08	37359.63
538.25	37654.54
538.42	37310.48
538.59	37865.19
538.75	37656.88
538.92	37982.21
539.09	38206.90
539.26	38134.35
539.43	38321.59
539.60	38506.49
539.77	38174.14
539.94	38206.90
540.11	38417.55
540.28	38476.07
540.44	38227.97
540.61	38061.79
540.78	37818.38
540.95	38768.63
541.12	38192.86
541.29	38478.41
541.46	38314.57
541.62	38562.67
541.79	39154.82
541.96	38373.08
542.13	38211.59
542.30	38815.44
542.47	38974.60
542.63	38988.64
542.80	39297.59
542.97	39498.88
543.14	39278.87
543.31	39459.09
543.48	39438.03
543.64	40194.02
543.81	40088.70
543.98	39594.84
544.15	39115.03
544.32	39704.85
544.48	39840.60
544.65	39707.19
544.82	39889.75
544.99	39648.68
545.16	39746.98
545.32	39768.04
545.49	40114.44
545.66	39964.65
545.83	39990.39
546.00	40430.41
546.16	40271.26
546.33	40041.88
546.50	40004.44
546.67	39854.64
546.83	39700.17
547.00	40093.38
547.17	40252.53
547.34	40343.81
547.50	40144.87
547.67	40807.24
547.84	40435.10
548.00	40158.91
548.17	40938.31
548.34	40706.60
548.51	40514.67
548.67	40720.64
548.84	40748.73
549.01	40762.77
549.18	40730.00
549.34	40711.28
549.51	40814.26
549.68	40655.11
549.84	40158.91
550.01	40835.33
550.18	40561.48
550.34	40809.58
550.51	41172.36
550.68	41050.66
550.84	40825.96
551.01	41048.32
551.18	40641.06
551.34	41067.04
551.51	40992.14
551.68	41308.11
551.84	41031.93
552.01	41338.54
552.18	41333.86
552.34	40467.86
552.51	41748.14
552.68	40987.46
552.84	41287.05
553.01	41329.18
553.18	41006.19
553.34	41390.03
553.51	41598.34
553.67	41574.94
553.84	41715.37
554.01	41954.10
554.17	41965.81
554.34	41727.07
554.51	41626.43
554.67	42117.94
554.84	42354.33
555.00	41928.36
555.17	41488.34
555.33	42160.07
555.50	41951.76
555.67	42124.96
555.83	41963.46
556.00	42323.91
556.16	42579.03
556.33	42396.46
556.50	42204.54
556.66	42040.70
556.83	42408.17
556.99	42384.76
557.16	42642.22
557.32	42536.90
557.49	41968.15
557.65	42380.08
557.82	42440.93
557.98	42178.79
558.15	42351.99
558.32	42574.34
558.48	42068.79
558.65	42649.24
558.81	42415.19
558.98	42459.66
559.14	42440.93
559.31	42548.60
559.47	42251.35
559.64	42691.37
559.80	42384.76
559.97	43033.09
560.13	42731.16
560.30	42770.95
560.46	42792.01
560.63	43023.73
560.79	43030.75
560.96	42726.48
561.12	42646.90
561.29	42937.13
561.45	42801.38
561.61	43246.08
561.78	43271.82
561.94	42876.27
562.11	42696.05
562.27	43227.35
562.44	42590.73
562.60	42806.06
562.77	43391.19
562.93	42684.35
563.10	43351.40
563.26	43171.18
563.42	43559.71
563.59	42848.19
563.75	43232.04
563.92	42857.55
564.08	43079.90
564.24	43543.33
564.41	43365.45
564.57	43236.72
564.74	43508.22
564.90	42918.40
565.07	43468.43
565.23	43072.88
565.39	43646.31
565.56	43447.36
565.72	43435.66
565.88	43328.00
566.05	43470.77
566.21	43344.38
566.38	43416.94
566.54	43793.76
566.70	43840.57
566.87	43646.31
567.03	43409.92
567.19	43763.34
567.36	43866.32
567.52	43952.92
567.68	43721.21
567.85	44133.14
568.01	43845.26
568.17	43536.30
568.34	43756.32
568.50	43695.46
568.66	43613.54
568.83	43957.60
568.99	43529.28
569.15	43861.64
569.32	43515.24
569.48	43688.44
569.64	43899.09
569.81	43803.13
569.97	43957.60
570.13	43730.57
570.30	43765.68
570.46	44285.28
570.62	43784.40
570.78	43798.44
570.95	43702.48
571.11	44179.95
571.27	43702.48
571.43	43948.24
571.60	43929.51
571.76	43700.14
571.92	44226.76
572.09	43903.77
572.25	43826.53
572.41	43896.75
572.57	44133.14
572.74	44547.42
572.90	44030.16
573.06	44418.69
573.22	43758.66
573.38	44172.93
573.55	43669.72
573.71	44467.84
573.87	44411.67
574.03	43976.33
574.20	44250.17
574.36	44500.61
574.52	44098.03
574.68	44540.39
574.84	44701.89
575.01	44332.09
575.17	44575.50
575.33	44210.38
575.49	44245.49
575.65	44308.68
575.82	44500.61
575.98	43889.73
576.14	44554.44
576.30	44765.09
576.46	44383.58
576.62	44018.46
576.79	44268.89
576.95	44069.95
577.11	44137.82
577.27	44231.44
577.43	44278.25
577.59	44247.83
577.75	43995.05
577.92	44156.55
578.08	44212.72
578.24	44512.31
578.40	44678.49
578.56	44442.09
578.72	44275.91
578.88	45003.82
579.04	44212.72
579.21	43999.73
579.37	44458.48
579.53	44587.21
579.69	44437.41
579.85	44577.84
580.01	44016.11
580.17	44102.71
580.33	44451.45
580.49	44772.11
580.65	44411.67
580.82	44914.88
580.98	44076.97
581.14	44144.84
581.30	44662.10
581.46	44453.79
581.62	44676.15
581.78	44238.47
581.94	44676.15
582.10	44404.64
582.26	44622.31
582.42	44870.41
582.58	44704.23
582.74	44425.71
582.90	44641.04
583.06	44580.18
583.22	44383.58
583.38	44753.38
583.54	44624.65
583.70	44652.74
583.86	44814.24
584.02	44584.86
584.18	45022.54
584.34	44952.33
584.50	44966.37
584.66	44861.05
584.82	44526.35
584.98	45020.20
585.14	44779.13
585.30	44402.30
585.46	44608.27
585.62	44114.42
585.78	44851.69
585.94	43828.87
586.10	44664.44
586.26	44516.99
586.42	44247.83
586.58	44851.69
586.74	44594.23
586.90	44720.62
587.06	44559.12
587.22	44692.53
587.38	44491.24
587.54	44856.37
587.70	45298.73
587.86	44725.30
588.02	44999.14
588.18	44905.52
588.34	44549.76
588.49	44760.40
588.65	44870.41
588.81	44659.76
588.97	44982.76
589.13	44470.18
589.29	44804.88
589.45	45029.57
589.61	45144.25
589.77	44732.32
589.93	45017.86
590.08	45078.72
590.24	45567.89
590.40	45050.63
590.56	45148.93
590.72	45109.14
590.88	44900.84
591.04	44978.07
591.20	45563.21
591.35	45172.34
591.51	45778.54
591.67	45167.66
591.83	45298.73
591.99	44816.58
592.15	45144.25
592.31	45233.19
592.46	44971.05
592.62	45081.06
592.78	45085.74
592.94	45469.59
593.10	45607.68
593.26	45448.52
593.41	45490.65
593.57	45553.85
593.73	45294.05
593.89	45598.32
594.05	45464.91
594.20	44868.07
594.36	45897.91
594.52	45483.63
594.68	44907.86
594.84	45043.61
594.99	45462.57
595.15	45067.02
595.31	45413.41
595.47	45013.18
595.62	45230.85
595.78	45139.57
595.94	45476.61
596.10	45675.55
596.25	45186.38
596.41	45408.73
596.57	45127.87
596.73	45780.88
596.88	45617.04
597.04	45694.28
597.20	45666.19
597.36	45427.46
597.51	45689.60
597.67	45478.95
597.83	45195.74
597.99	45280.00
598.14	45315.11
598.30	45523.42
598.46	45584.27
598.61	45741.09
598.77	45525.76
598.93	45614.70
599.09	45649.81
599.24	45558.53
599.40	45497.67
599.56	45701.30
599.71	46054.72
599.87	46040.68
600.03	45703.64
600.18	45556.19
600.34	45427.46
600.50	45855.78
600.65	45715.34
600.81	45698.96
600.97	45918.97
601.12	45766.84
601.28	45766.84
601.44	45659.17
601.59	45886.20
601.75	45322.13
601.91	45542.14
602.06	45359.58
602.22	45659.17
602.37	45654.49
602.53	45982.16
602.69	45570.23
602.84	45612.36
603.00	45605.34
603.16	45425.12
603.31	45509.38
603.47	45598.32
603.62	45911.95
603.78	45766.84
603.94	45556.19
604.09	45186.38
604.25	45408.73
604.40	45497.67
604.56	45509.38
604.71	46007.91
604.87	45640.45
605.03	45638.11
605.18	45003.82
605.34	45691.94
605.49	45085.74
605.65	45820.67
605.80	45600.66
605.96	45357.24
606.12	45364.26
606.27	45258.94
606.43	45240.21
606.58	45853.44
606.74	45783.22
606.89	45275.32
607.05	45804.28
607.20	45471.93
607.36	45464.91
607.51	45720.02
607.67	45240.21
607.82	45282.34
607.98	45275.32
608.13	45586.61
608.29	45682.58
608.44	45418.10
608.60	45062.33
608.75	45481.29
608.91	45656.83
609.06	45235.53
609.22	45598.32
609.37	45027.23
609.53	45265.96
609.68	45326.81
609.84	45284.68
609.99	45329.16
610.15	45141.91
610.30	45764.49
610.46	44919.56
610.61	45181.70
610.76	44891.48
610.92	44992.12
611.07	44617.63
611.23	44844.66
611.38	45338.52
611.54	45446.18
611.69	45282.34
611.84	45230.85
612.00	45179.36
612.15	45141.91
612.31	45315.11
612.46	44844.66
612.62	44961.69
612.77	44851.69
612.92	45504.70
613.08	44739.34
613.23	44999.14
613.39	45228.51
613.54	44872.75
613.69	44875.09
613.85	44657.42
614.00	45099.78
614.15	44851.69
614.31	44842.32
614.46	44694.87
614.62	44603.59
614.77	44842.32
614.92	44538.05
615.08	44311.02
615.23	44807.22
615.38	45455.54
615.54	44865.73
615.69	44877.43
615.84	44580.18
616.00	44818.92
616.15	44879.77
616.30	44865.73
616.46	44563.80
616.61	44456.14
616.76	44945.31
616.92	44369.54
617.07	44680.83
617.22	44481.88
617.37	44498.26
617.53	44102.71
617.68	44502.95
617.83	44463.16
617.99	44945.31
618.14	44949.99
618.29	44491.24
618.45	44011.43
618.60	44334.43
618.75	44102.71
618.90	44011.43
619.06	44032.50
619.21	44086.33
619.36	44619.97
619.51	44631.68
619.67	44306.34
619.82	44383.58
619.97	44526.35
620.12	44399.96
620.28	44149.53
620.43	44339.11
620.58	44568.48
620.73	44210.38
620.89	44425.71
621.04	44203.36
621.19	44175.27
621.34	43840.57
621.49	43983.35
621.65	44355.49
621.80	44060.58
621.95	43889.73
622.10	44179.95
622.25	43868.66
622.41	44032.50
622.56	43800.79
622.71	44081.65
622.86	44219.74
623.01	43950.58
623.16	43641.63
623.32	43995.05
623.47	43604.18
623.62	43524.60
623.77	43840.57
623.92	43896.75
624.07	43854.62
624.23	43395.87
624.38	43608.86
624.53	43845.26
624.68	43119.69
624.83	43491.83
624.98	43681.42
625.13	43615.88
625.29	43353.74
625.44	43459.07
625.59	43608.86
625.74	43049.47
625.89	42810.74
626.04	43578.43
626.19	43358.42
626.34	43438.00
626.49	42913.72
626.65	42983.94
626.80	42916.06
626.95	43356.08
627.10	42897.34
627.25	43023.73
627.40	43274.16
627.55	43161.82
627.70	43220.33
627.85	43248.42
628.00	43283.53
628.15	42911.38
628.30	42784.99
628.45	42466.68
628.60	42440.93
628.76	42670.31
628.91	42892.66
629.06	42696.05
629.21	42843.51
629.36	42485.40
629.51	42667.97
629.66	42948.83
629.81	42848.19
629.96	42815.42
630.11	42904.36
630.26	42707.76
630.41	42459.66
630.56	42536.90
630.71	43096.28
630.86	42735.84
631.01	42057.09
631.16	42384.76
631.31	42316.89
631.46	42220.92
631.61	42848.19
631.76	42651.58
631.91	42759.25
632.06	42930.11
632.21	42363.70
632.36	42581.37
632.51	42333.27
632.66	42384.76
632.81	42387.10
632.96	42560.30
633.10	41977.51
633.25	42225.60
633.40	42057.09
633.55	42373.06
633.70	42033.68
633.85	42026.66
634.00	41848.78
634.15	41818.35
634.30	41956.44
634.45	41909.63
634.60	42375.40
634.75	42148.37
634.90	42246.67
635.05	41886.23
635.19	41881.55
635.34	41832.39
635.49	42080.49
635.64	41837.08
635.79	41844.10
635.94	42026.66
636.09	42260.71
636.24	41797.29
636.39	42071.13
636.53	41867.50
636.68	41755.16
636.83	41221.52
636.98	41282.37
637.13	41099.81
637.28	41677.92
637.43	41273.01
637.57	41394.71
637.72	41137.26
637.87	41195.77
638.02	41624.09
638.17	41546.85
638.32	41666.22
638.46	41420.46
638.61	40634.04
638.76	41034.27
638.91	41689.62
639.06	40774.47
639.20	40999.16
639.35	41104.49
639.50	41067.04
639.65	41532.81
639.80	40966.40
639.94	41537.49
640.09	41207.47
640.24	41315.14
640.39	41074.06
640.54	40879.80
640.68	40952.35
640.83	41153.64
640.98	40982.78
641.13	40521.69
641.27	41556.21
641.42	41113.85
641.57	41130.23
641.72	41090.44
641.86	40954.69
642.01	40304.02
642.16	40430.41
642.31	40217.43
642.45	40479.57
642.60	40435.10
642.75	40231.47
642.90	41003.85
643.04	40236.15
643.19	40137.85
643.34	40318.07
643.48	40163.59
643.63	40570.85
643.78	40240.83
643.93	40861.07
644.07	40381.26
644.22	40226.79
644.37	40514.67
644.51	40697.24
644.66	40627.02
644.81	40568.51
644.95	40247.85
645.10	40491.27
645.25	40027.84
645.39	39838.26
645.54	40362.54
645.69	40034.86
645.83	39959.97
645.98	39924.86
646.13	40079.33
646.27	40060.61
646.42	39480.16
646.57	40076.99
646.71	40280.62
646.86	40011.46
647.00	40081.67
647.15	40474.88
647.30	40053.59
647.44	40224.45
647.59	39639.31
647.74	39351.43
647.88	40065.29
648.03	40086.36
648.17	39978.69
648.32	39992.73
648.47	39847.62
648.61	39775.06
648.76	39899.11
648.90	39828.90
649.05	39641.65
649.20	39292.91
649.34	39643.99
649.49	39328.02
649.63	39793.79
649.78	39384.19
649.92	39377.17
650.07	40142.53
650.21	39744.64
650.36	39833.58
650.51	39496.54
650.65	39669.74
650.80	39718.89
650.94	39655.70
651.09	39482.50
651.23	38682.03
651.38	39243.76
651.52	39091.63
651.67	39208.65
651.81	39344.41
651.96	39356.11
652.10	38778.00
652.25	39030.77
652.39	39187.59
652.54	39208.65
652.68	38955.88
652.83	39037.80
652.97	39379.51
653.12	38955.88
653.26	39026.09
653.41	39178.23
653.55	38841.19
653.70	39005.03
653.84	39281.21
653.99	38958.22
654.13	39274.19
654.27	38665.65
654.42	38632.88
654.56	38630.54
654.71	38871.62
654.85	38794.38
655.00	38726.50
655.14	38944.17
655.29	38808.42
655.43	39019.07
655.57	38621.18
655.72	38625.86
655.86	38581.39
656.01	38359.04
656.15	38092.22
656.30	38328.61
656.44	38424.57
656.58	38653.95
656.73	38279.46
656.87	37617.09
657.01	38087.54
657.16	37949.45
657.30	38438.62
657.45	38541.60
657.59	38202.22
657.73	37731.78
657.88	38054.77
658.02	38462.02
658.16	38417.55
658.31	38195.20
658.45	38204.56
658.60	37895.61
658.74	38038.39
658.88	38281.80
659.03	37497.72
659.17	37621.77
659.31	37773.91
659.46	37933.06
659.60	37673.26
659.74	37839.44
659.89	37340.91
660.03	37450.91
660.17	37333.89
660.32	37663.90
660.46	37425.17
660.60	37425.17
660.74	36996.85
660.89	37731.78
661.03	36933.65
661.17	37163.03
661.32	37064.72
661.46	37376.01
661.60	37090.47
661.74	37130.26
661.89	37015.57
662.03	36577.89
662.17	36896.20
662.31	36889.18
662.46	36687.90
662.60	36430.44
662.74	35971.69
662.88	36215.11
663.03	36299.37
663.17	36428.10
663.31	36222.13
663.45	36587.25
663.60	36596.62
663.74	36463.21
663.88	36425.76
664.02	36009.14
664.17	36678.54
664.31	35988.08
664.45	35880.41
664.59	35878.07
664.73	35786.79
664.88	35585.50
665.02	36121.49
665.16	35779.77
665.30	35833.60
665.44	36037.23
665.59	35732.96
665.73	35480.18
665.87	35344.43
666.01	35578.48
666.15	35573.80
666.29	35613.59
666.44	35552.74
666.58	35559.76
666.72	34951.22
666.86	34930.16
667.00	35201.66
667.14	35019.10
667.28	35440.39
667.43	34923.13
667.57	35276.55
667.71	35241.45
667.85	35033.14
667.99	34843.56
668.13	34637.59
668.27	34438.64
668.41	34309.91
668.56	34190.55
668.70	34504.18
668.84	34096.92
668.98	34012.66
669.12	34515.88
669.26	34054.79
669.40	34450.35
669.54	33888.62
669.68	34087.56
669.82	34125.01
669.96	33460.30
670.10	33511.79
670.25	33811.38
670.39	33570.30
670.53	34466.73
670.67	34000.96
670.81	33944.79
670.95	33954.15
671.09	33596.05
671.23	33333.91
671.37	32898.57
671.51	33249.65
671.65	33242.63
671.79	33214.54
671.93	33144.33
672.07	33188.80
672.21	33170.07
672.35	33022.62
672.49	33057.73
672.63	32713.67
672.77	32617.71
672.91	32914.95
673.05	32257.26
673.19	32161.30
673.33	32584.94
673.47	32425.78
673.61	32205.77
673.75	31810.22
673.89	32079.38
674.03	32020.87
674.17	31784.48
674.31	32140.24
674.45	31997.46
674.59	31749.37
674.73	31892.14
674.87	31630.00
675.01	31641.70
675.15	31611.28
675.29	31079.97
675.43	31374.88
675.56	31461.48
675.70	31091.68
675.84	30761.66
675.98	30045.46
676.12	30850.60
676.26	30843.58
676.40	30616.55
676.54	30588.46
676.68	30270.15
676.82	30043.12
676.96	30359.09
677.10	30129.72
677.23	30321.64
677.37	30532.29
677.51	30426.96
677.65	29900.34
677.79	30003.33
677.93	29792.68
678.07	29509.47
678.21	29858.21
678.34	29352.66
678.48	28966.47
678.62	29149.03
678.76	29230.95
678.90	29195.84
679.04	29345.64
679.18	29490.75
679.31	28765.18
679.45	28496.02
679.59	28641.14
679.73	28629.43
679.87	28233.88
680.00	28297.08
680.14	28343.89
680.28	28187.07
680.42	28379.00
680.56	27971.74
680.70	27346.82
680.83	27658.11
680.97	27630.02
681.11	27934.29
681.25	27704.92
681.39	27711.94
681.52	27665.13
681.66	26927.86
681.80	26604.87
681.94	26885.73
682.07	26951.27
682.21	26803.82
682.35	26544.02
682.49	26703.17
682.62	26485.50
682.76	26710.19
682.90	26352.09
683.04	26656.36
683.17	26485.50
683.31	26143.78
683.45	26019.74
683.59	25743.55
683.72	25930.80
683.86	25839.51
684.00	25783.34
684.13	25860.58
684.27	25418.22
684.41	25436.94
684.55	25149.06
684.68	25333.96
684.82	25053.09
684.96	25039.05
685.09	25067.14
685.23	25289.49
685.37	25270.76
685.50	24886.92
685.64	24751.17
685.78	24687.97
685.91	24706.70
686.05	24416.47
686.19	24107.52
686.32	24159.01
686.46	23871.12
686.60	24130.92
686.73	23784.52
686.87	23950.70
687.01	23924.96
687.14	23700.26
687.28	24020.92
687.42	23534.09
687.55	23520.04
687.69	23154.92
687.82	23339.82
687.96	23152.58
688.10	23468.55
688.23	23175.98
688.37	23159.60
688.50	23175.98
688.64	22733.62
688.78	22740.64
688.91	22632.98
689.05	22696.17
689.18	22607.23
689.32	22134.45
689.46	22597.87
689.59	21984.65
689.73	22167.21
689.86	21954.22
690.00	22113.38
690.13	22001.04
690.27	21795.07
690.41	22389.56
690.54	21542.29
690.68	21493.14
690.81	21322.28
690.95	21102.27
691.08	21378.45
691.22	20891.62
691.35	21048.44
691.49	20985.24
691.62	20830.77
691.76	20671.61
691.89	20664.59
692.03	20477.35
692.16	20294.79
692.30	20128.61
692.43	19983.49
692.57	20224.57
692.70	20465.64
692.84	20240.95
692.97	19868.81
693.11	19789.23
693.24	19763.48
693.38	19672.20
693.51	19470.92
693.65	19473.26
693.78	19335.17
693.92	19262.61
694.05	19178.35
694.19	18965.36
694.32	19096.43
694.45	18984.09
694.59	19372.61
694.72	19164.31
694.86	18780.46
694.99	18611.94
695.13	18705.56
695.26	18361.50
695.39	17940.21
695.53	18391.93
695.66	18338.10
695.80	18211.71
695.93	18469.17
696.07	18071.28
696.20	17888.71
696.33	17664.02
696.47	17427.63
696.60	17865.31
696.73	17607.85
696.87	17767.01
697.00	17444.01
697.14	17727.22
697.27	17247.41
697.40	17521.25
697.54	16926.75
697.67	16987.61
697.80	17055.48
697.94	17334.01
698.07	17085.91
698.21	17036.76
698.34	17200.60
698.47	16610.78
698.61	16411.84
698.74	16395.45
698.87	16280.77
699.01	16517.16
699.14	16233.96
699.27	16163.74
699.40	16184.80
699.54	15892.24
699.67	15936.71
699.80	16020.97
699.94	15803.30
700.07	15690.95
700.20	15733.08
700.34	15482.64
700.47	15758.83
700.60	15527.11
700.73	15438.17
700.87	15417.11
701.00	15351.57
701.13	15054.33
701.26	15019.22
701.40	15122.20
701.53	15094.11
701.66	14965.39
701.79	14956.02
701.93	14576.86
702.06	14310.04
702.19	14487.92
702.32	14480.89
702.46	14806.23
702.59	14473.87
702.72	14342.80
702.85	14431.74
702.99	14237.48
703.12	14120.45
703.25	14001.08
703.38	14122.79
703.51	14162.58
703.65	13977.68
703.78	13547.02
703.91	13479.15
704.04	13657.03
704.17	13364.46
704.31	13345.73
704.44	13558.72
704.57	13221.69
704.70	13504.89
704.83	13259.13
704.96	13032.10
705.10	12868.27
705.23	12940.82
>>>>>End Processed Spectral Data<<<<<
