SpectraSuite Data File
++++++++++++++++++++++++++++++++++++
Date: Fri Oct 25 10:43:42 EDT 2013
User: price-jones
Dark Spectrum Present: No
Reference Spectrum Present: No
Number of Sampled Component Spectra: 1
Spectrometers: USB2+H05261
Integration Time (usec): 100000 (USB2+H05261)
Spectra Averaged: 1 (USB2+H05261)
Boxcar Smoothing: 0 (USB2+H05261)
Correct for Electrical Dark: No (USB2+H05261)
Strobe/Lamp Enabled: No (USB2+H05261)
Correct for Detector Non-linearity: No (USB2+H05261)
Correct for Stray Light: No (USB2+H05261)
Number of Pixels in Processed Spectrum: 2048
>>>>>Begin Processed Spectral Data<<<<<
365.73	112.35
365.92	112.35
366.12	112.35
366.32	49.15
366.52	44.47
366.72	42.13
366.91	23.41
367.11	0.00
367.31	0.00
367.51	88.94
367.70	7.02
367.90	0.00
368.10	0.00
368.30	9.36
368.49	30.43
368.69	135.75
368.89	35.11
369.09	25.75
369.28	0.00
369.48	7.02
369.68	16.38
369.87	126.39
370.07	60.85
370.27	95.96
370.47	154.48
370.66	337.04
370.86	390.87
371.06	435.34
371.25	486.83
371.45	397.89
371.65	475.13
371.84	475.13
372.04	479.81
372.24	540.66
372.44	559.39
372.63	521.94
372.83	468.11
373.03	533.64
373.22	418.96
373.42	505.56
373.62	496.19
373.81	512.58
374.01	582.79
374.21	561.73
374.40	519.60
374.60	573.43
374.79	594.50
374.99	568.75
375.19	575.77
375.38	547.69
375.58	592.16
375.78	606.20
375.97	547.69
376.17	716.20
376.37	624.92
376.56	624.92
376.76	601.52
376.95	571.09
377.15	617.90
377.35	631.94
377.54	589.82
377.74	713.86
377.93	589.82
378.13	690.46
378.33	690.46
378.52	667.05
378.72	643.65
378.91	741.95
379.11	631.94
379.31	681.10
379.50	678.76
379.70	716.20
379.89	657.69
380.09	695.14
380.28	746.63
380.48	704.50
380.68	657.69
380.87	678.76
381.07	695.14
381.26	671.73
381.46	748.97
381.65	706.84
381.85	727.91
382.04	643.65
382.24	681.10
382.43	629.60
382.63	653.01
382.83	695.14
383.02	678.76
383.22	784.08
383.41	643.65
383.61	727.91
383.80	746.63
384.00	718.54
384.19	763.01
384.39	863.66
384.58	758.33
384.78	800.46
384.97	828.55
385.17	784.08
385.36	798.12
385.56	753.65
385.75	763.01
385.95	854.30
386.14	891.74
386.34	880.04
386.53	784.08
386.72	788.76
386.92	816.85
387.11	875.36
387.31	884.72
387.50	924.51
387.70	961.96
387.89	847.27
388.09	917.49
388.28	994.73
388.48	901.11
388.67	933.87
388.86	926.85
389.06	964.30
389.25	1015.79
389.45	912.81
389.64	912.81
389.84	1013.45
390.03	1022.81
390.22	994.73
390.42	1008.77
390.61	1025.15
390.81	994.73
391.00	1036.86
391.19	1083.67
391.39	1027.50
391.58	950.26
391.78	1064.94
391.97	1109.41
392.16	1006.43
392.36	1039.20
392.55	994.73
392.75	1011.11
392.94	917.49
393.13	910.47
393.33	1053.24
393.52	1076.65
393.71	1027.50
393.91	1130.48
394.10	1130.48
394.29	1163.25
394.49	1200.69
394.68	1259.21
394.88	1181.97
395.07	1268.57
395.26	1200.69
395.46	1191.33
395.65	1254.53
395.84	1249.85
396.04	1224.10
396.23	1160.91
396.42	1242.82
396.62	1210.06
396.81	1233.46
397.00	1231.12
397.19	1296.66
397.39	1289.64
397.58	1409.00
397.77	1376.24
397.97	1437.09
398.16	1397.30
398.35	1427.73
398.55	1544.75
398.74	1460.49
398.93	1598.59
399.12	1481.56
399.32	1483.90
399.51	1511.99
399.70	1488.58
399.90	1643.06
400.09	1603.27
400.28	1671.14
400.47	1582.20
400.67	1645.40
400.86	1612.63
401.05	1680.50
401.24	1675.82
401.44	1706.25
401.63	1736.68
401.82	1724.97
402.01	1710.93
402.21	1636.03
402.40	1797.53
402.59	1811.57
402.78	1732.00
402.97	1874.77
403.17	1710.93
403.36	1760.08
403.55	1827.96
403.74	1858.39
403.93	1818.60
404.13	1837.32
404.32	1902.86
404.51	1881.79
404.70	1980.09
404.89	1888.81
405.09	1949.67
405.28	1930.94
405.47	1952.01
405.66	2073.71
405.85	2118.18
406.05	1902.86
406.24	2017.54
406.43	2022.22
406.62	2052.65
406.81	2118.18
407.00	2143.93
407.20	2012.86
407.39	2150.95
407.58	2083.08
407.77	2260.96
407.96	2239.89
408.15	2221.17
408.34	2160.31
408.54	2340.54
408.73	2305.43
408.92	2399.05
409.11	2310.11
409.30	2303.09
409.49	2296.07
409.68	2275.00
409.87	2291.38
410.07	2303.09
410.26	2338.20
410.45	2420.11
410.64	2396.71
410.83	2495.01
411.02	2504.37
411.21	2640.12
411.40	2633.10
411.59	2684.59
411.78	2626.08
411.98	2640.12
412.17	2642.46
412.36	2679.91
412.55	2717.36
412.74	2743.11
412.93	2677.57
413.12	2757.15
413.31	2963.12
413.50	2782.90
413.69	2860.13
413.88	2862.48
414.07	2813.32
414.26	2869.50
414.45	2939.71
414.64	3052.06
414.83	3204.19
415.02	3087.17
415.22	3148.02
415.41	3194.83
415.60	3155.04
415.79	3112.91
415.98	3269.73
416.17	3178.45
416.36	3136.32
416.55	3248.66
416.74	3148.02
416.93	3265.05
417.12	3253.34
417.31	3391.44
417.50	3346.97
417.69	3337.60
417.88	3419.52
418.07	3515.48
418.26	3349.31
418.45	3581.02
418.64	3723.79
418.83	3562.30
419.02	3583.36
419.21	3749.54
419.39	3581.02
419.58	3588.04
419.77	3667.62
419.96	3691.02
420.15	3772.94
420.34	3733.15
420.53	3763.58
420.72	3875.93
420.91	3840.82
421.10	3882.95
421.29	3864.22
421.48	3672.30
421.67	3850.18
421.86	3777.62
422.05	3880.61
422.24	3712.09
422.43	3744.86
422.61	3847.84
422.80	3920.40
422.99	3999.98
423.18	4091.26
423.37	3999.98
423.56	3868.91
423.75	3913.38
423.94	3936.78
424.13	3882.95
424.32	3784.65
424.50	3920.40
424.69	3915.72
424.88	3997.64
425.07	3969.55
425.26	3948.48
425.45	3985.93
425.64	3918.06
425.83	4063.17
426.01	4007.00
426.20	3957.85
426.39	4074.87
426.58	3889.97
426.77	4077.21
426.96	4032.74
427.15	3913.38
427.33	4030.40
427.52	4203.60
427.71	4074.87
427.90	4175.52
428.09	4077.21
428.28	4301.90
428.46	4156.79
428.65	4304.25
428.84	4320.63
429.03	4257.43
429.22	3999.98
429.40	4283.18
429.59	4283.18
429.78	4105.30
429.97	3904.01
430.16	3948.48
430.34	4126.36
430.53	4119.34
430.72	4093.60
430.91	4231.69
431.10	4376.80
431.28	4498.51
431.47	4622.56
431.66	4617.88
431.85	4517.23
432.03	4746.61
432.22	4671.71
432.41	4760.65
432.60	4564.04
432.79	4709.16
432.97	4746.61
433.16	4770.01
433.35	4674.05
433.54	4664.69
433.72	4631.92
433.91	4634.26
434.10	4774.69
434.28	4917.47
434.47	4685.75
434.66	4898.74
434.85	4903.42
435.03	4997.04
435.22	4940.87
435.41	5170.24
435.59	5046.20
435.78	5076.62
435.97	5308.34
436.16	5116.41
436.34	5043.85
436.53	5100.03
436.72	5177.26
436.90	4947.89
437.09	5329.40
437.28	5144.50
437.46	5273.23
437.65	5130.45
437.84	5167.90
438.02	5212.37
438.21	5179.61
438.40	5104.71
438.58	5383.23
438.77	5572.82
438.96	5598.56
439.14	5633.67
439.33	5472.17
439.52	5544.73
439.70	5722.61
439.89	5746.02
440.08	5645.37
440.26	5724.95
440.45	5926.24
440.63	5951.98
440.82	5944.96
441.01	6047.94
441.19	5872.40
441.38	6164.97
441.57	6094.76
441.75	6256.25
441.94	6289.02
442.12	6272.64
442.31	6394.34
442.50	6249.23
442.68	6406.05
442.87	6356.90
443.05	6455.20
443.24	6462.22
443.43	6347.53
443.61	6359.24
443.80	6492.65
443.98	6492.65
444.17	6462.22
444.35	6654.14
444.54	6595.63
444.73	6595.63
444.91	6349.87
445.10	6651.80
445.28	6485.62
445.47	6516.05
445.65	6555.84
445.84	6403.71
446.02	6630.74
446.21	6560.52
446.39	6534.78
446.58	6537.12
446.77	6661.16
446.95	6532.44
447.14	6647.12
447.32	6860.11
447.51	6665.85
447.69	6644.78
447.88	6881.18
448.06	6757.13
448.25	6785.21
448.43	6925.65
448.62	6768.83
448.80	6794.58
448.99	6839.05
449.17	6841.39
449.36	7014.59
449.54	6904.58
449.73	7094.16
449.91	7052.03
450.10	7241.62
450.28	7337.58
450.46	7225.23
450.65	7133.95
450.83	7194.81
451.02	7267.36
451.20	7353.96
451.39	7330.56
451.57	7159.70
451.76	7234.60
451.94	7255.66
452.13	7290.77
452.31	7227.57
452.49	7117.57
452.68	7363.33
452.86	7353.96
453.05	7213.53
453.23	7300.13
453.42	7318.86
453.60	7159.70
453.78	7747.17
453.97	7480.35
454.15	7363.33
454.34	7321.20
454.52	7555.25
454.70	7686.32
454.89	7573.97
455.07	7691.00
455.26	7541.21
455.44	7793.98
455.62	7733.13
455.81	7581.00
455.99	7793.98
456.17	7985.91
456.36	7765.90
456.54	7826.75
456.73	7985.91
456.91	8147.40
457.09	7969.52
457.28	8437.63
457.46	8255.07
457.64	8107.62
457.83	8198.90
458.01	8021.02
458.19	8402.52
458.38	8304.22
458.56	8236.35
458.74	8215.28
458.93	8238.69
459.11	8348.69
459.29	8255.07
459.48	8428.27
459.66	8163.79
459.84	8287.84
460.03	8615.51
460.21	8472.74
460.39	8458.70
460.57	8622.53
460.76	8542.96
460.94	8636.58
461.12	8667.00
461.31	8617.85
461.49	8594.45
461.67	8681.05
461.85	8917.44
462.04	8814.46
462.22	9205.33
462.40	8887.01
462.59	8713.81
462.77	8800.41
462.95	8779.35
463.13	8872.97
463.32	8727.86
463.50	8795.73
463.68	8975.95
463.86	9078.94
464.05	8781.69
464.23	8891.70
464.41	9188.94
464.59	8980.64
464.78	9076.60
464.96	9167.88
465.14	9357.46
465.32	9249.80
465.50	9434.70
465.69	9289.59
465.87	9193.62
466.05	9249.80
466.23	9385.55
466.41	9107.02
466.60	9434.70
466.78	9284.91
466.96	9462.79
467.14	9418.32
467.32	9247.46
467.51	9537.68
467.69	9259.16
467.87	9535.34
468.05	9673.43
468.23	9575.13
468.41	9392.57
468.60	9563.43
468.78	9628.96
468.96	9635.99
469.14	9678.12
469.32	9734.29
469.50	9547.05
469.69	9729.61
469.87	9956.64
470.05	9860.68
470.23	10008.13
470.41	9947.28
470.59	9982.38
470.77	9760.03
470.95	10141.54
471.14	10375.59
471.32	10195.37
471.50	10270.27
471.68	10422.41
471.86	10377.94
472.04	10340.49
472.22	10707.95
472.40	10232.82
472.58	10539.43
472.77	10623.69
472.95	10717.31
473.13	10799.23
473.31	10443.47
473.49	10562.84
473.67	10707.95
473.85	10871.79
474.03	11026.26
474.21	11056.69
474.39	11002.86
474.57	10834.34
474.75	10995.84
474.93	11154.99
475.12	11096.48
475.30	11435.86
475.48	11391.39
475.66	11363.30
475.84	11342.24
476.02	11286.06
476.20	11220.53
476.38	11733.11
476.56	11836.09
476.74	11744.81
476.92	11850.13
477.10	11889.92
477.28	11765.87
477.46	12170.79
477.64	12360.37
477.82	12320.58
478.00	12376.75
478.18	12688.04
478.36	12807.41
478.54	12791.03
478.72	12755.92
478.90	13032.10
479.08	13231.05
479.26	13111.68
479.44	13139.77
479.62	13338.71
479.80	13336.37
479.98	13462.76
480.16	13755.33
480.34	13752.99
480.52	13652.34
480.70	13905.12
480.88	13781.07
481.06	13832.57
481.24	14080.66
481.41	14270.25
481.59	14331.10
481.77	14363.87
481.95	14403.66
482.13	14626.01
482.31	14558.13
482.49	14782.82
482.67	14871.76
482.85	14883.47
483.03	15300.08
483.21	15232.21
483.39	15297.74
483.57	15344.55
483.74	15545.84
483.92	15513.07
484.10	15566.90
484.28	16088.84
484.46	16201.19
484.64	16285.45
484.82	16170.76
485.00	16133.31
485.18	16695.04
485.35	16496.10
485.53	16341.62
485.71	16233.96
485.89	16477.37
486.07	16512.48
486.25	16723.13
486.43	16910.37
486.61	17001.65
486.78	17338.69
486.96	17308.26
487.14	17659.34
487.32	17860.63
487.50	18101.70
487.68	18293.63
487.85	18305.33
488.03	18310.01
488.21	18551.09
488.39	18728.97
488.57	18993.45
488.75	18647.05
488.92	18998.13
489.10	19213.46
489.28	19396.02
489.46	19550.49
489.64	19510.71
489.81	20301.81
489.99	20229.25
490.17	20393.09
490.35	20463.30
490.53	20643.52
490.70	20479.69
490.88	20369.68
491.06	20959.50
491.24	20744.17
491.41	20830.77
491.59	20856.51
491.77	21013.33
491.95	21291.85
492.13	21387.82
492.30	21605.49
492.48	21523.57
492.66	21539.95
492.84	21972.95
493.01	22134.45
493.19	22228.07
493.37	22274.88
493.54	22122.74
493.72	22726.60
493.90	22792.14
494.08	23007.47
494.25	23414.72
494.43	23206.41
494.61	23353.87
494.79	23580.90
494.96	23477.91
495.14	23470.89
495.32	23442.81
495.49	23871.12
495.67	23690.90
495.85	24119.22
496.02	24212.84
496.20	24435.19
496.38	24400.08
496.55	24393.06
496.73	25046.07
496.91	25003.94
497.09	25071.82
497.26	25319.92
497.44	24779.25
497.62	25256.72
497.79	25252.04
497.97	25003.94
498.14	25586.74
498.32	25895.69
498.50	25694.40
498.67	26321.66
498.85	26045.48
499.03	25933.14
499.20	26272.51
499.38	26363.79
499.56	26527.63
499.73	26513.59
499.91	26494.86
500.08	27119.79
500.26	26618.91
500.44	26895.10
500.61	27274.26
500.79	26614.23
500.97	26724.24
501.14	27269.58
501.32	27358.52
501.49	27243.84
501.67	27428.74
501.84	27398.31
502.02	27503.64
502.20	28158.99
502.37	27999.83
502.55	27917.91
502.72	27917.91
502.90	28374.31
503.07	28004.51
503.25	28456.23
503.43	28048.98
503.60	28112.17
503.78	28451.55
503.95	28510.07
504.13	28603.69
504.30	28912.64
504.48	28725.39
504.65	29008.60
504.83	29191.16
505.01	29418.19
505.18	29579.69
505.36	29523.52
505.53	29682.67
505.71	29851.19
505.88	29607.78
506.06	29659.27
506.23	29696.72
506.41	29556.28
506.58	29944.81
506.76	29853.53
506.93	30211.64
507.11	30043.12
507.28	30106.31
507.46	29839.49
507.63	30204.61
507.81	30302.92
507.98	30244.40
508.16	30349.73
508.33	30473.78
508.50	31042.53
508.68	31126.78
508.85	31042.53
509.03	31281.26
509.20	31248.49
509.38	31688.51
509.55	31131.47
509.73	31271.90
509.90	31711.92
510.08	31878.10
510.25	31309.35
510.42	31768.09
510.60	31782.13
510.77	32142.58
510.95	32030.23
511.12	31840.65
511.30	32287.69
511.47	32643.45
511.64	32687.92
511.82	32519.40
511.99	32404.72
512.17	32442.17
512.34	32566.21
512.51	32732.39
512.69	32584.94
512.86	32889.21
513.04	32917.29
513.21	33127.94
513.38	33057.73
513.56	32823.67
513.73	33106.88
513.90	33289.44
514.08	33102.20
514.25	33057.73
514.43	33584.35
514.60	33039.00
514.77	33563.28
514.95	33722.44
515.12	33472.00
515.29	33429.87
515.47	33738.82
515.64	34330.98
515.81	33797.34
515.99	33626.48
516.16	34120.33
516.33	33874.57
516.51	33582.01
516.68	33464.98
516.85	33333.91
517.03	33483.70
517.20	33621.80
517.37	34450.35
517.54	34579.07
517.72	34632.91
517.89	34466.73
518.06	34281.83
518.24	34218.63
518.41	34036.07
518.58	34932.50
518.75	34630.57
518.93	34728.87
519.10	34953.56
519.27	35185.27
519.45	35119.74
519.62	35297.62
519.79	35569.12
519.96	35442.73
520.14	35484.86
520.31	35522.31
520.48	35784.45
520.65	35435.71
520.83	35875.73
521.00	36187.02
521.17	36086.38
521.34	35936.59
521.52	35934.24
521.69	36215.11
521.86	36594.28
522.03	36261.92
522.20	36257.24
522.38	36147.23
522.55	36451.50
522.72	36418.74
522.89	36304.05
523.07	36746.41
523.24	36465.55
523.41	36884.50
523.58	36786.20
523.75	37834.76
523.92	37287.07
524.10	37165.37
524.27	37481.34
524.44	37270.69
524.61	37495.38
524.78	37486.02
524.96	37535.17
525.13	37453.25
525.30	38078.18
525.47	38134.35
525.64	37411.12
525.81	37886.25
525.98	37809.01
526.16	37462.61
526.33	37137.28
526.50	37535.17
526.67	37148.98
526.84	37832.42
527.01	37490.70
527.18	37804.33
527.36	38096.90
527.53	38265.42
527.70	38588.41
527.87	38373.08
528.04	38550.96
528.21	38520.54
528.38	38316.91
528.55	39063.54
528.72	38972.26
528.89	39124.40
529.07	39290.57
529.24	38459.68
529.41	38902.04
529.58	38824.81
529.75	38590.75
529.92	38979.28
530.09	39381.85
530.26	39225.04
530.43	39566.76
530.60	39264.83
530.77	39112.69
530.94	39889.75
531.11	39395.90
531.28	39641.65
531.46	39988.05
531.63	39777.40
531.80	39503.56
531.97	39215.68
532.14	39508.24
532.31	39058.86
532.48	39700.17
532.65	40198.70
532.82	39508.24
532.99	39700.17
533.16	40236.15
533.33	40126.14
533.50	40135.51
533.67	40278.28
533.84	40114.44
534.01	40058.27
534.18	40105.08
534.35	40657.45
534.52	39730.59
534.69	40268.92
534.86	40964.06
535.03	40065.29
535.20	40832.99
535.37	40802.56
535.54	41240.24
535.71	40538.08
535.88	40638.72
536.05	40648.08
536.22	41081.08
536.38	41219.17
536.55	41326.84
536.72	40559.14
536.89	40715.96
537.06	40825.96
537.23	41282.37
537.40	41233.22
537.57	41263.64
537.74	41216.83
537.91	41464.93
538.08	41240.24
538.25	41294.07
538.42	41251.94
538.59	41677.92
538.75	41053.00
538.92	41104.49
539.09	41483.66
539.26	41546.85
539.43	41434.50
539.60	41659.20
539.77	41385.35
539.94	41720.05
540.11	41848.78
540.28	41233.22
540.44	40950.01
540.61	41490.68
540.78	41530.47
540.95	41680.26
541.12	41387.69
541.29	41507.06
541.46	42089.85
541.62	42312.20
541.79	41972.83
541.96	41436.84
542.13	42029.00
542.30	42398.80
542.47	42115.60
542.63	42335.61
542.80	42347.31
542.97	42155.39
543.14	42501.79
543.31	42139.00
543.48	42813.08
543.64	43281.19
543.81	42864.57
543.98	42747.54
544.15	42623.50
544.32	43145.44
544.48	43126.71
544.65	43246.08
544.82	43023.73
544.99	42698.39
545.16	42777.97
545.32	42834.14
545.49	43395.87
545.66	43538.65
545.83	43374.81
546.00	43529.28
546.16	43093.94
546.33	43227.35
546.50	43189.91
546.67	43189.91
546.83	42937.13
547.00	43718.87
547.17	43342.04
547.34	43051.81
547.50	43395.87
547.67	43515.24
547.84	43562.05
548.00	43730.57
548.17	44062.93
548.34	43358.42
548.51	44137.82
548.67	44175.27
548.84	43784.40
549.01	43753.97
549.18	43981.01
549.34	43789.08
549.51	43859.30
549.68	44261.87
549.84	44540.39
550.01	44044.20
550.18	44023.14
550.34	43847.60
550.51	43861.64
550.68	44285.28
550.84	43578.43
551.01	44278.25
551.18	44509.97
551.34	43992.71
551.51	44509.97
551.68	44210.38
551.84	44741.68
552.01	44376.56
552.18	44116.76
552.34	44198.68
552.51	43885.04
552.68	44374.22
552.84	43917.81
553.01	44636.36
553.18	44465.50
553.34	44542.74
553.51	44760.40
553.67	44641.04
553.84	44577.84
554.01	44753.38
554.17	44973.39
554.34	45031.91
554.51	44582.52
554.67	44790.83
554.84	44765.09
555.00	44636.36
555.17	44849.35
555.33	45006.16
555.50	44971.05
555.67	44491.24
555.83	44912.54
556.00	44945.31
556.16	45144.25
556.33	44856.37
556.50	44971.05
556.66	44554.44
556.83	44425.71
556.99	45034.25
557.16	45441.50
557.32	45003.82
557.49	45258.94
557.65	44882.11
557.82	44634.02
557.98	45031.91
558.15	44788.49
558.32	45223.83
558.48	45085.74
558.65	44751.04
558.81	45090.42
558.98	45015.52
559.14	45471.93
559.31	44935.95
559.47	45310.43
559.64	45151.27
559.80	45537.46
559.97	45713.00
560.13	45170.00
560.30	45343.20
560.46	45404.05
560.63	45741.09
560.79	45741.09
560.96	45537.46
561.12	45881.52
561.29	45109.14
561.45	45233.19
561.61	45488.31
561.78	45432.14
561.94	45067.02
562.11	45357.24
562.27	45675.55
562.44	45308.09
562.60	45640.45
562.77	45900.25
562.93	45406.39
563.10	45689.60
563.26	45485.97
563.42	45734.07
563.59	45600.66
563.75	45909.61
563.92	45638.11
564.08	46272.39
564.24	46038.34
564.41	45481.29
564.57	45703.64
564.74	45476.61
564.90	45544.48
565.07	45610.02
565.23	45890.88
565.39	45755.13
565.56	45516.40
565.72	45764.49
565.88	45485.97
566.05	45933.01
566.21	45579.59
566.38	45823.01
566.54	45404.05
566.70	45720.02
566.87	46293.46
567.03	45862.80
567.19	46314.52
567.36	46225.58
567.52	45811.31
567.68	46419.84
567.85	45329.16
568.01	46014.93
568.17	45848.75
568.34	46227.92
568.50	45652.15
568.66	45647.47
568.83	46387.08
568.99	45703.64
569.15	45696.62
569.32	45780.88
569.48	45659.17
569.64	46337.93
569.81	46010.25
569.97	45830.03
570.13	46113.23
570.30	45514.06
570.46	45675.55
570.62	45724.71
570.78	45364.26
570.95	45354.90
571.11	45801.94
571.27	45717.68
571.43	45572.57
571.60	45916.63
571.76	45642.79
571.92	45801.94
572.09	45982.16
572.25	46054.72
572.41	46192.81
572.57	45991.53
572.74	46431.55
572.90	45933.01
573.06	45935.35
573.22	46248.99
573.38	46213.88
573.55	46012.59
573.71	46543.89
573.87	46401.12
574.03	46012.59
574.20	46120.26
574.36	45979.82
574.52	46328.56
574.68	45820.67
574.84	46021.95
575.01	45663.85
575.17	45886.20
575.33	45701.30
575.49	45914.29
575.65	45930.67
575.82	46096.85
575.98	46045.36
576.14	46131.96
576.30	46209.20
576.46	46129.62
576.62	46190.47
576.79	45752.79
576.95	46330.90
577.11	46227.92
577.27	46410.48
577.43	45811.31
577.59	45783.22
577.75	45902.59
577.92	45677.90
578.08	45373.63
578.24	45270.64
578.40	45771.52
578.56	46230.26
578.72	45844.07
578.88	46157.70
579.04	45972.80
579.21	46089.83
579.37	46047.70
579.53	46157.70
579.69	46101.53
579.85	45935.35
580.01	46480.70
580.17	45935.35
580.33	45570.23
580.49	46204.52
580.65	46298.14
580.82	45958.76
580.98	45713.00
581.14	45888.54
581.30	46536.87
581.46	46073.45
581.62	46389.42
581.78	46223.24
581.94	46686.67
582.10	46403.46
582.26	46117.92
582.42	46019.61
582.58	46031.32
582.74	46117.92
582.90	46621.13
583.06	46230.26
583.22	46291.12
583.38	46403.46
583.54	46485.38
583.70	46630.49
583.86	46466.66
584.02	45818.33
584.18	46326.22
584.34	46160.05
584.50	46120.26
584.66	46398.78
584.82	45991.53
584.98	46562.62
585.14	46160.05
585.30	46120.26
585.46	46295.80
585.62	45783.22
585.78	46122.60
585.94	45659.17
586.10	45996.21
586.26	46143.66
586.42	46581.34
586.58	46248.99
586.74	46087.49
586.90	46012.59
587.06	46653.90
587.22	46274.73
587.38	46649.22
587.54	46117.92
587.70	46864.55
587.86	46607.09
588.02	46087.49
588.18	46553.26
588.34	45523.42
588.49	46115.58
588.65	45743.43
588.81	45834.71
588.97	45846.41
589.13	46157.70
589.29	45811.31
589.45	46253.67
589.61	45748.11
589.77	46366.01
589.93	46094.51
590.08	46529.85
590.24	46469.00
590.40	46609.43
590.56	46653.90
590.72	46225.58
590.88	46036.00
591.04	46113.23
591.20	46834.12
591.35	46689.01
591.51	46459.63
591.67	46075.79
591.83	46293.46
591.99	46541.55
592.15	45923.65
592.31	46312.18
592.46	46057.06
592.62	46323.88
592.78	46513.47
592.94	46506.44
593.10	46096.85
593.26	46721.77
593.41	46358.99
593.57	46574.32
593.73	46272.39
593.89	46728.80
594.05	46223.24
594.20	46270.05
594.36	46096.85
594.52	46328.56
594.68	46227.92
594.84	46445.59
594.99	46440.91
595.15	46398.78
595.31	46581.34
595.47	46529.85
595.62	46256.01
595.78	46101.53
595.94	46368.35
596.10	46469.00
596.25	46508.79
596.41	46387.08
596.57	46036.00
596.73	46204.52
596.88	46108.55
597.04	46541.55
597.20	46445.59
597.36	46096.85
597.51	46698.37
597.67	46557.94
597.83	46330.90
597.99	46962.85
598.14	46295.80
598.30	46817.74
598.46	46171.75
598.61	46497.08
598.77	46160.05
598.93	46469.00
599.09	46464.32
599.24	46813.05
599.40	46752.20
599.56	46469.00
599.71	46412.82
599.87	46637.51
600.03	46019.61
600.18	46003.23
600.34	46375.37
600.50	46410.48
600.65	46216.22
600.81	46295.80
600.97	46426.87
601.12	46607.09
601.28	46012.59
601.44	46054.72
601.59	46216.22
601.75	45799.60
601.91	46237.28
602.06	46419.84
602.22	46403.46
602.37	46234.94
602.53	46195.15
602.69	46525.17
602.84	46387.08
603.00	46593.04
603.16	46211.54
603.31	46370.69
603.47	46483.04
603.62	46089.83
603.78	46637.51
603.94	46494.74
604.09	46604.75
604.25	46459.63
604.40	46052.38
604.56	46333.24
604.71	46492.40
604.87	46169.41
605.03	46241.96
605.18	46169.41
605.34	45883.86
605.49	45801.94
605.65	46057.06
605.80	46211.54
605.96	46375.37
606.12	45944.72
606.27	46597.73
606.43	46089.83
606.58	46398.78
606.74	46181.11
606.89	45689.60
607.05	46160.05
607.20	46227.92
607.36	46302.82
607.51	46499.42
607.67	46380.06
607.82	46422.19
607.98	46043.02
608.13	45731.73
608.29	46115.58
608.44	45567.89
608.60	45680.24
608.75	46225.58
608.91	46014.93
609.06	45839.39
609.22	45832.37
609.37	45879.18
609.53	46092.17
609.68	46216.22
609.84	45628.74
609.99	45949.40
610.15	45614.70
610.30	45603.00
610.46	45631.08
610.61	45701.30
610.76	45762.15
610.92	45776.20
611.07	45727.05
611.23	45687.26
611.38	46094.51
611.54	45415.76
611.69	45584.27
611.84	45195.74
612.00	45284.68
612.15	45659.17
612.31	45773.86
612.46	45434.48
612.62	45715.34
612.77	45455.54
612.92	45558.53
613.08	45289.37
613.23	45586.61
613.39	45275.32
613.54	45315.11
613.69	45301.07
613.85	44914.88
614.00	45539.80
614.15	45401.71
614.31	45390.01
614.46	45921.31
614.62	45305.75
614.77	44947.65
614.92	45544.48
615.08	45130.21
615.23	45134.89
615.38	45083.40
615.54	44807.22
615.69	44619.97
615.84	44610.61
616.00	44659.76
616.15	44755.72
616.30	44947.65
616.46	45378.31
616.61	44624.65
616.76	45045.95
616.92	44772.11
617.07	44514.65
617.22	44332.09
617.37	44538.05
617.53	45434.48
617.68	44619.97
617.83	45219.15
617.99	45048.29
618.14	44847.00
618.29	44779.13
618.45	44402.30
618.60	44561.46
618.75	43908.45
618.90	44098.03
619.06	44474.86
619.21	44102.71
619.36	44629.34
619.51	44123.78
619.67	44339.11
619.82	44439.75
619.97	44282.94
620.12	44360.17
620.28	43620.56
620.43	44601.25
620.58	43913.13
620.73	44034.84
620.89	43910.79
621.04	44072.29
621.19	43966.96
621.34	44231.44
621.49	44116.76
621.65	44219.74
621.80	44285.28
621.95	43952.92
622.10	43903.77
622.25	43522.26
622.41	44100.37
622.56	43742.27
622.71	44121.44
622.86	43634.61
623.01	44156.55
623.16	43941.22
623.32	43840.57
623.47	43419.28
623.62	43866.32
623.77	43269.48
623.92	44105.06
624.07	43723.55
624.23	43044.79
624.38	43409.92
624.53	43662.69
624.68	43339.70
624.83	43704.82
624.98	43856.96
625.13	43185.22
625.29	43306.93
625.44	43065.86
625.59	42843.51
625.74	43306.93
625.89	43051.81
626.04	43508.22
626.19	43182.88
626.34	43330.34
626.49	42930.11
626.65	42682.01
626.80	43016.71
626.95	43208.63
627.10	43320.98
627.25	43021.39
627.40	43026.07
627.55	42431.57
627.70	42941.81
627.85	42939.47
628.00	42728.82
628.15	42979.26
628.30	42890.32
628.45	42895.00
628.60	42913.72
628.76	42855.21
628.91	42438.59
629.06	42511.15
629.21	42469.02
629.36	42593.07
629.51	42216.24
629.66	42607.11
629.81	42279.44
629.96	42564.98
630.11	42532.22
630.26	42855.21
630.41	42515.83
630.56	42415.19
630.71	42586.05
630.86	42513.49
631.01	42361.36
631.16	41860.48
631.31	41926.02
631.46	42199.86
631.61	42024.32
631.76	42195.18
631.91	42323.91
632.06	42021.98
632.21	42050.06
632.36	41890.91
632.51	41385.35
632.66	42192.84
632.81	41446.21
632.96	41916.65
633.10	42103.90
633.25	41881.55
633.40	42216.24
633.55	42344.97
633.70	41574.94
633.85	41322.16
634.00	41731.75
634.15	42017.30
634.30	41748.14
634.45	41607.70
634.60	41434.50
634.75	41497.70
634.90	41553.87
635.05	41401.74
635.19	41593.66
635.34	41544.51
635.49	41153.64
635.64	41598.34
635.79	41116.19
635.94	41055.34
636.09	41214.49
636.24	41450.89
636.39	41017.89
636.53	41488.34
636.68	41282.37
636.83	41076.40
636.98	41048.32
637.13	40807.24
637.28	41116.19
637.43	41287.05
637.57	41277.69
637.72	40961.72
637.87	41148.96
638.02	41483.66
638.17	41476.63
638.32	41118.53
638.46	41422.80
638.61	40919.59
638.76	40842.35
638.91	41177.04
639.06	40521.69
639.20	41006.19
639.35	41251.94
639.50	40687.87
639.65	40973.42
639.80	41060.02
639.94	40615.32
640.09	40388.28
640.24	40472.54
640.39	40652.76
640.54	40484.25
640.68	40669.15
640.83	40266.58
640.98	40428.07
641.13	40304.02
641.27	40348.50
641.42	40210.40
641.57	40711.28
641.72	40884.48
641.86	40517.01
642.01	40392.97
642.16	40201.04
642.31	39768.04
642.45	40072.31
642.60	39807.83
642.75	40250.19
642.90	40442.12
643.04	40128.48
643.19	40465.52
643.34	40170.61
643.48	39344.41
643.63	39882.73
643.78	40114.44
643.93	40133.17
644.07	39791.45
644.22	39756.34
644.37	39651.02
644.51	39845.28
644.66	39915.50
644.81	40161.25
644.95	39618.25
645.10	39861.66
645.25	39632.29
645.39	39988.05
645.54	39735.27
645.69	39833.58
645.83	39487.18
645.98	39662.72
646.13	39636.97
646.27	39810.17
646.42	39009.71
646.57	39491.86
646.71	39351.43
646.86	39309.30
647.00	39494.20
647.15	39285.89
647.30	39601.86
647.44	39159.50
647.59	39536.33
647.74	39222.70
647.88	39227.38
648.03	39110.35
648.17	39096.31
648.32	38871.62
648.47	39140.78
648.61	38611.82
648.76	39098.65
648.90	39239.08
649.05	39030.77
649.20	39044.82
649.34	39285.89
649.49	38775.66
649.63	38705.44
649.78	38775.66
649.92	38845.87
650.07	38899.70
650.21	38721.82
650.36	38962.90
650.51	38878.64
650.65	39115.03
650.80	38899.70
650.94	39136.10
651.09	38965.24
651.23	38820.13
651.38	38590.75
651.52	38775.66
651.67	38363.72
651.81	38541.60
651.96	38609.48
652.10	38923.11
652.25	38256.06
652.39	38635.22
652.54	38478.41
652.68	38288.82
652.83	38728.84
652.97	38906.73
653.12	38345.00
653.26	38270.10
653.41	38267.76
653.55	38078.18
653.70	38040.73
653.84	38679.69
653.99	38579.05
654.13	38103.92
654.27	37855.82
654.42	37904.98
654.56	38164.78
654.71	38440.96
654.85	37450.91
655.00	38293.50
655.14	37848.80
655.29	37427.51
655.43	37682.62
655.57	37038.98
655.72	37591.34
655.86	37310.48
656.01	37649.86
656.15	36971.10
656.30	37280.05
656.44	37298.78
656.58	37191.11
656.73	37275.37
656.87	37366.65
657.01	37275.37
657.16	37357.29
657.30	36889.18
657.45	36994.51
657.59	37287.07
657.73	37593.68
657.88	37696.67
658.02	37221.54
658.16	37226.22
658.31	37813.70
658.45	37500.06
658.60	36790.88
658.74	37413.46
658.88	37081.11
659.03	37076.43
659.17	36828.33
659.31	36996.85
659.46	37357.29
659.60	36463.21
659.74	36528.74
659.89	36432.78
660.03	36713.64
660.17	37024.93
660.32	37036.64
660.46	36825.99
660.60	36891.52
660.74	36353.20
660.89	36985.15
661.03	36488.95
661.17	36521.72
661.32	36451.50
661.46	36472.57
661.60	36416.40
661.74	36210.43
661.89	36205.75
662.03	36559.17
662.17	36392.99
662.31	36004.46
662.46	36268.94
662.60	35948.29
662.74	36144.89
662.88	36074.68
663.03	35782.11
663.17	36114.47
663.31	35550.40
663.45	36215.11
663.60	35943.61
663.74	35335.07
663.88	35662.74
664.02	35079.95
664.17	35505.93
664.31	34988.67
664.45	35044.84
664.59	35475.50
664.73	35402.94
664.88	35227.40
665.02	35440.39
665.16	35157.19
665.30	35051.86
665.44	34298.21
665.59	34691.42
665.73	34515.88
665.87	34782.70
666.01	34817.81
666.15	34838.87
666.29	34747.59
666.44	34773.34
666.58	34408.22
666.72	34668.02
666.86	34567.37
667.00	34672.70
667.14	34513.54
667.28	34382.47
667.43	34511.20
667.57	34506.52
667.71	34029.05
667.85	34288.85
667.99	34279.49
668.13	34199.91
668.27	34125.01
668.41	34040.75
668.56	33710.74
668.70	33439.23
668.84	33448.60
668.98	33666.27
669.12	33694.35
669.26	33701.37
669.40	33172.41
669.54	33476.68
669.68	33165.39
669.82	33259.01
669.96	33266.03
670.10	33113.90
670.25	33254.33
670.39	32924.32
670.53	33083.47
670.67	33043.68
670.81	33006.23
670.95	32720.69
671.09	32435.14
671.23	32549.83
671.37	32158.96
671.51	32554.51
671.65	32526.42
671.79	32325.14
671.93	32311.10
672.07	32484.30
672.21	32383.65
672.35	31859.37
672.49	32348.54
672.63	32198.75
672.77	32168.32
672.91	32587.28
673.05	32194.07
673.19	32060.66
673.33	31531.70
673.47	31419.35
673.61	31590.21
673.75	31700.22
673.89	31323.39
674.03	30993.37
674.17	31239.13
674.31	31419.35
674.45	31089.34
674.59	31531.70
674.73	31545.74
674.87	31007.42
675.01	31009.76
675.15	30813.15
675.29	30841.24
675.43	30895.07
675.56	30930.18
675.70	30445.69
675.84	30904.43
675.98	29575.01
676.12	30314.62
676.26	30871.67
676.40	30431.65
676.54	30490.16
676.68	30312.28
676.82	29830.13
676.96	29935.45
677.10	29912.05
677.23	29780.98
677.37	29724.80
677.51	29446.28
677.65	29612.46
677.79	29160.73
677.93	29579.69
678.07	28917.32
678.21	28786.25
678.34	28650.50
678.48	28767.52
678.62	28648.16
678.76	28390.70
678.90	28762.84
679.04	28446.87
679.18	28505.38
679.31	28126.22
679.45	28070.04
679.59	27936.63
679.73	27908.55
679.87	27997.49
680.00	27763.43
680.14	27793.86
680.28	27995.15
680.42	27772.80
680.56	27702.58
680.70	27349.16
680.83	27463.85
680.97	27484.91
681.11	26965.31
681.25	27356.18
681.39	27023.83
681.52	27215.75
681.66	27571.51
681.80	26834.24
681.94	26817.86
682.07	26700.83
682.21	26593.17
682.35	26457.42
682.49	26539.33
682.62	26707.85
682.76	26480.82
682.90	26239.75
683.04	26127.40
683.17	26106.34
683.31	25881.64
683.45	25617.16
683.59	25589.08
683.72	25965.90
683.86	25483.75
684.00	25497.80
684.13	25343.32
684.27	25013.31
684.41	25137.35
684.55	25394.81
684.68	25310.55
684.82	24863.51
684.96	25240.34
685.09	24788.61
685.23	24533.50
685.37	24954.79
685.50	24531.15
685.64	24446.90
685.78	24369.66
685.91	24386.04
686.05	24053.69
686.19	24259.65
686.32	24226.89
686.46	23683.88
686.60	23358.55
686.73	23098.75
686.87	23021.51
687.01	23232.16
687.14	22834.27
687.28	22885.76
687.42	23248.54
687.55	23194.71
687.69	23398.34
687.82	23075.34
687.96	22923.21
688.10	22841.29
688.23	22604.89
688.37	22590.85
688.50	22731.28
688.64	22527.66
688.78	22441.06
688.91	22401.27
689.05	22267.86
689.18	22207.00
689.32	21891.03
689.46	22487.87
689.59	22029.12
689.73	22047.85
689.86	21820.81
690.00	21788.05
690.13	21689.74
690.27	21516.54
690.41	21305.90
690.54	21214.62
690.68	21310.58
690.81	20943.11
690.95	21383.13
691.08	21163.12
691.22	21233.34
691.35	20982.90
691.49	21025.03
691.62	20950.14
691.76	20573.31
691.89	20741.83
692.03	20798.00
692.16	20662.25
692.30	20343.94
692.43	20212.87
692.57	19740.08
692.70	20016.26
692.84	20081.80
692.97	19978.81
693.11	19803.27
693.24	19807.95
693.38	19634.75
693.51	19800.93
693.65	19599.65
693.78	19393.68
693.92	19421.77
694.05	19344.53
694.19	19089.41
694.32	19302.40
694.45	19173.67
694.59	18974.72
694.72	19213.46
694.86	19061.32
694.99	18508.96
695.13	18871.74
695.26	18775.78
695.39	18368.52
695.53	18691.52
695.66	18850.67
695.80	18576.83
695.93	18422.36
696.07	18204.69
696.20	18197.67
696.33	18164.90
696.47	18118.09
696.60	18071.28
696.73	17935.53
696.87	18005.74
697.00	18061.91
697.14	17371.46
697.27	17528.27
697.40	17502.53
697.54	17163.15
697.67	17270.81
697.80	17179.53
697.94	17029.74
698.07	16954.84
698.21	17144.42
698.34	17282.52
698.47	16870.58
698.61	16650.57
698.74	16762.92
698.87	17001.65
699.01	16772.28
699.14	16299.49
699.27	16374.39
699.40	16397.79
699.54	16339.28
699.67	16173.10
699.80	16119.27
699.94	15955.43
700.07	16140.33
700.20	16439.92
700.34	15812.66
700.47	15845.43
700.60	15915.64
700.73	15957.77
700.87	15702.65
701.00	15770.53
701.13	15576.27
701.26	15508.39
701.40	15599.67
701.53	15171.35
701.66	15297.74
701.79	15302.42
701.93	15082.41
702.06	14846.02
702.19	14752.40
702.32	14719.63
702.46	14860.06
702.59	15091.77
702.72	14871.76
702.85	14881.13
702.99	14471.53
703.12	14413.02
703.25	14534.73
703.38	14148.54
703.51	14506.64
703.65	14312.38
703.78	14169.60
703.91	13898.10
704.04	13837.25
704.17	14146.20
704.31	14092.37
704.44	13909.80
704.57	13586.81
704.70	13769.37
704.83	13776.39
704.96	13502.55
705.10	13598.51
705.23	13509.57
>>>>>End Processed Spectral Data<<<<<
