SpectraSuite Data File
++++++++++++++++++++++++++++++++++++
Date: Fri Oct 25 10:44:47 EDT 2013
User: price-jones
Dark Spectrum Present: No
Reference Spectrum Present: No
Number of Sampled Component Spectra: 1
Spectrometers: USB2+H05261
Integration Time (usec): 100000 (USB2+H05261)
Spectra Averaged: 1 (USB2+H05261)
Boxcar Smoothing: 0 (USB2+H05261)
Correct for Electrical Dark: No (USB2+H05261)
Strobe/Lamp Enabled: No (USB2+H05261)
Correct for Detector Non-linearity: No (USB2+H05261)
Correct for Stray Light: No (USB2+H05261)
Number of Pixels in Processed Spectrum: 2048
>>>>>Begin Processed Spectral Data<<<<<
365.73	126.39
365.92	126.39
366.12	126.39
366.32	53.83
366.52	25.75
366.72	0.00
366.91	0.00
367.11	28.09
367.31	0.00
367.51	46.81
367.70	0.00
367.90	42.13
368.10	4.68
368.30	28.09
368.49	95.96
368.69	18.72
368.89	11.70
369.09	30.43
369.28	95.96
369.48	91.28
369.68	35.11
369.87	95.96
370.07	98.30
370.27	170.86
370.47	243.42
370.66	348.74
370.86	430.66
371.06	433.00
371.25	472.79
371.45	353.42
371.65	489.17
371.84	376.83
372.04	418.96
372.24	545.34
372.44	414.27
372.63	451.72
372.83	486.83
373.03	442.36
373.22	458.74
373.42	514.92
373.62	540.66
373.81	524.28
374.01	538.32
374.21	550.03
374.40	575.77
374.60	496.19
374.79	533.64
374.99	500.87
375.19	568.75
375.38	601.52
375.58	510.24
375.78	547.69
375.97	547.69
376.17	500.87
376.37	552.37
376.56	667.05
376.76	547.69
376.95	613.22
377.15	592.16
377.35	655.35
377.54	669.39
377.74	540.66
377.93	587.47
378.13	550.03
378.33	606.20
378.52	608.54
378.72	699.82
378.91	704.50
379.11	631.94
379.31	655.35
379.50	592.16
379.70	669.39
379.89	653.01
380.09	620.24
380.28	578.11
380.48	594.50
380.68	657.69
380.87	540.66
381.07	674.07
381.26	690.46
381.46	692.80
381.65	624.92
381.85	629.60
382.04	692.80
382.24	571.09
382.43	671.73
382.63	699.82
382.83	753.65
383.02	718.54
383.22	674.07
383.41	613.22
383.61	711.52
383.80	791.10
384.00	734.93
384.19	744.29
384.39	697.48
384.58	730.25
384.78	737.27
384.97	664.71
385.17	709.18
385.36	767.70
385.56	711.52
385.75	690.46
385.95	746.63
386.14	821.53
386.34	800.46
386.53	809.83
386.72	730.25
386.92	781.74
387.11	809.83
387.31	844.93
387.50	791.10
387.70	816.85
387.89	812.17
388.09	952.60
388.28	748.97
388.48	847.27
388.67	842.59
388.86	922.17
389.06	807.48
389.25	919.83
389.45	915.15
389.64	870.68
389.84	971.32
390.03	966.64
390.22	802.80
390.42	919.83
390.61	903.45
390.81	880.04
391.00	938.55
391.19	1022.81
391.39	961.96
391.58	994.73
391.78	985.37
391.97	997.07
392.16	999.41
392.36	950.26
392.55	973.66
392.75	992.39
392.94	976.00
393.13	952.60
393.33	994.73
393.52	1020.47
393.71	968.98
393.91	983.02
394.10	1039.20
394.29	992.39
394.49	1088.35
394.68	1104.73
394.88	1097.71
395.07	1142.18
395.26	1109.41
395.46	1167.93
395.65	1149.20
395.84	1153.88
396.04	1273.25
396.23	1151.54
396.42	1149.20
396.62	1139.84
396.81	1132.82
397.00	1249.85
397.19	1177.29
397.39	1179.63
397.58	1310.70
397.77	1291.98
397.97	1184.31
398.16	1242.82
398.35	1282.61
398.55	1355.17
398.74	1308.36
398.93	1261.55
399.12	1338.79
399.32	1320.06
399.51	1336.45
399.70	1413.68
399.90	1338.79
400.09	1458.15
400.28	1387.94
400.47	1411.34
400.67	1392.62
400.86	1563.48
401.05	1385.60
401.24	1528.37
401.44	1458.15
401.63	1542.41
401.82	1521.35
402.01	1387.94
402.21	1497.94
402.40	1556.46
402.59	1591.56
402.78	1511.99
402.97	1481.56
403.17	1645.40
403.36	1453.47
403.55	1605.61
403.74	1717.95
403.93	1621.99
404.13	1633.69
404.32	1680.50
404.51	1736.68
404.70	1687.53
404.89	1650.08
405.09	1783.49
405.28	1743.70
405.47	1792.85
405.66	1874.77
405.85	1776.47
406.05	1710.93
406.24	1799.87
406.43	1856.04
406.62	1867.75
406.81	1872.43
407.00	1771.79
407.20	1877.11
407.39	1891.15
407.58	1858.39
407.77	1973.07
407.96	1954.35
408.15	2045.63
408.34	2017.54
408.54	2033.93
408.73	2026.90
408.92	2083.08
409.11	2143.93
409.30	2153.29
409.49	2033.93
409.68	2118.18
409.87	2012.86
410.07	2108.82
410.26	1975.41
410.45	2080.74
410.64	2118.18
410.83	2188.40
411.02	2136.91
411.21	2122.87
411.40	2195.42
411.59	2275.00
411.78	2300.75
411.98	2331.17
412.17	2399.05
412.36	2403.73
412.55	2286.70
412.74	2429.48
412.93	2448.20
413.12	2392.03
413.31	2487.99
413.50	2509.05
413.69	2492.67
413.88	2581.61
414.07	2560.55
414.26	2637.78
414.45	2635.44
414.64	2654.17
414.83	2668.21
415.02	2708.00
415.22	2820.35
415.41	2740.77
415.60	2750.13
415.79	2733.75
415.98	2928.01
416.17	2818.00
416.36	2939.71
416.55	2862.48
416.74	2963.12
416.93	2850.77
417.12	2904.60
417.31	2942.05
417.50	3026.31
417.69	3002.91
417.88	3038.02
418.07	3101.21
418.26	3040.36
418.45	3155.04
418.64	3279.09
418.83	3365.69
419.02	3103.55
419.21	3136.32
419.39	3236.96
419.58	3117.59
419.77	3171.43
419.96	3258.03
420.15	3318.88
420.34	3199.51
420.53	3349.31
420.72	3435.91
420.91	3471.01
421.10	3478.04
421.29	3384.41
421.48	3332.92
421.67	3440.59
421.86	3346.97
422.05	3456.97
422.24	3524.85
422.43	3393.78
422.61	3368.03
422.80	3499.10
422.99	3527.19
423.18	3557.61
423.37	3761.24
423.56	3473.36
423.75	3475.70
423.94	3468.67
424.13	3353.99
424.32	3538.89
424.50	3588.04
424.69	3604.42
424.88	3492.08
425.07	3466.33
425.26	3562.30
425.45	3398.46
425.64	3541.23
425.83	3672.30
426.01	3646.55
426.20	3735.50
426.39	3644.21
426.58	3644.21
426.77	3609.11
426.96	3684.00
427.15	3599.74
427.33	3693.37
427.52	3658.26
427.71	3749.54
427.90	3850.18
428.09	3709.75
428.28	3796.35
428.46	3782.31
428.65	3836.14
428.84	3861.88
429.03	4046.79
429.22	3705.07
429.40	3672.30
429.59	3875.93
429.78	3559.95
429.97	3510.80
430.16	3632.51
430.34	3695.71
430.53	3927.42
430.72	3857.20
430.91	3925.08
431.10	3948.48
431.28	4238.71
431.47	4184.88
431.66	4238.71
431.85	4063.17
432.03	4280.84
432.22	4271.48
432.41	4203.60
432.60	4051.47
432.79	4166.15
432.97	4287.86
433.16	4376.80
433.35	4271.48
433.54	4264.46
433.72	4365.10
433.91	4140.41
434.10	4173.18
434.28	4329.99
434.47	4425.95
434.66	4491.49
434.85	4461.06
435.03	4437.66
435.22	4477.44
435.41	4542.98
435.59	4521.92
435.78	4421.27
435.97	4704.48
436.16	4652.98
436.34	4699.80
436.53	4709.16
436.72	4779.37
436.90	4627.24
437.09	4765.33
437.28	4697.46
437.46	4582.77
437.65	4706.82
437.84	4732.56
438.02	4601.49
438.21	4739.58
438.40	4638.94
438.58	4798.10
438.77	4978.32
438.96	4961.94
439.14	4863.63
439.33	4983.00
439.52	4992.36
439.70	5055.56
439.89	5097.69
440.08	5172.58
440.26	5184.29
440.45	5114.07
440.63	5338.76
440.82	5383.23
441.01	5350.46
441.19	5270.89
441.38	5523.66
441.57	5575.16
441.75	5540.05
441.94	5764.74
442.12	5600.90
442.31	5652.39
442.50	5748.36
442.68	5628.99
442.87	5659.42
443.05	5638.35
443.24	5865.38
443.43	5858.36
443.61	5872.40
443.80	6057.31
443.98	5781.12
444.17	5434.72
444.35	5949.64
444.54	6073.69
444.73	5884.11
444.91	5895.81
445.10	5856.02
445.28	5839.64
445.47	5668.78
445.65	5701.54
445.84	5933.26
446.02	6043.26
446.21	5844.32
446.39	6012.84
446.58	6061.99
446.77	5823.25
446.95	5844.32
447.14	5954.32
447.32	6047.94
447.51	6010.50
447.69	6012.84
447.88	6069.01
448.06	6195.40
448.25	5956.66
448.43	6050.28
448.62	6015.18
448.80	6195.40
448.99	6242.21
449.17	6218.80
449.36	6019.86
449.54	6239.87
449.73	6230.51
449.91	6420.09
450.10	6513.71
450.28	6282.00
450.46	6244.55
450.65	6331.15
450.83	6483.28
451.02	6392.00
451.20	6392.00
451.39	6377.96
451.57	6511.37
451.76	6457.54
451.94	6546.48
452.13	6586.27
452.31	6509.03
452.49	6267.95
452.68	6427.11
452.86	6487.96
453.05	6581.59
453.23	6640.10
453.42	6534.78
453.60	6722.02
453.78	6733.72
453.97	6567.54
454.15	6607.33
454.34	6541.80
454.52	6794.58
454.70	6876.49
454.89	6923.30
455.07	6794.58
455.26	6813.30
455.44	6906.92
455.62	6937.35
455.81	6909.26
455.99	7152.68
456.17	7012.24
456.36	7204.17
456.54	7133.95
456.73	7166.72
456.91	7262.68
457.09	7110.55
457.28	7335.24
457.46	7379.71
457.64	7410.14
457.83	7309.49
458.01	7159.70
458.19	7445.24
458.38	7220.55
458.56	7543.55
458.74	7368.01
458.93	7634.83
459.11	7667.60
459.29	7503.76
459.48	7686.32
459.66	7548.23
459.84	7524.82
460.03	7789.30
460.21	7637.17
460.39	7850.16
460.57	7836.11
460.76	7749.51
460.94	7861.86
461.12	7812.71
461.31	7878.24
461.49	7815.05
461.67	7829.09
461.85	7894.63
462.04	7908.67
462.22	8028.04
462.40	8044.42
462.59	8093.57
462.77	8037.40
462.95	8138.04
463.13	8133.36
463.32	8091.23
463.50	8402.52
463.68	8163.79
463.86	8023.36
464.05	8053.78
464.23	8257.41
464.41	8175.49
464.59	8100.59
464.78	8224.64
464.96	8336.99
465.14	8367.42
465.32	8346.35
465.50	8482.10
465.69	8545.30
465.87	8276.13
466.05	8561.68
466.23	8236.35
466.41	8435.29
466.60	8446.99
466.78	8205.92
466.96	8273.79
467.14	8545.30
467.32	8519.55
467.51	8634.24
467.69	8353.37
467.87	8505.51
468.05	8678.71
468.23	8549.98
468.41	8762.97
468.60	8842.54
468.78	8690.41
468.96	8711.47
469.14	8791.05
469.32	8781.69
469.50	8697.43
469.69	8800.41
469.87	8830.84
470.05	8917.44
470.23	8877.65
470.41	8947.87
470.59	9057.87
470.77	9050.85
470.95	8947.87
471.14	9116.39
471.32	9156.18
471.50	9305.97
471.68	9322.35
471.86	9219.37
472.04	9352.78
472.22	9577.47
472.40	9455.76
472.58	9509.60
472.77	9521.30
472.95	9540.02
473.13	9984.73
473.31	9507.26
473.49	9753.01
473.67	9537.68
473.85	9764.72
474.03	10066.64
474.21	10150.90
474.39	10043.24
474.57	9982.38
474.75	9963.66
474.93	10277.29
475.12	10352.19
475.30	10401.34
475.48	10169.63
475.66	10289.00
475.84	10186.01
476.02	10286.65
476.20	10520.71
476.38	10647.10
476.56	10822.64
476.74	10782.85
476.92	10670.50
477.10	10918.60
477.28	10911.58
477.46	10867.11
477.64	11052.01
477.82	11248.61
478.00	11421.81
478.18	11487.35
478.36	11433.52
478.54	11538.84
478.72	11672.25
478.90	11674.59
479.08	11754.17
479.26	12013.97
479.44	12121.63
479.62	11882.90
479.80	12163.76
479.98	12060.78
480.16	12365.05
480.34	12566.34
480.52	12844.86
480.70	12606.13
480.88	12453.99
481.06	12802.73
481.24	12638.89
481.41	12917.42
481.59	12945.50
481.77	13263.82
481.95	13296.58
482.13	13130.41
482.31	13458.08
482.49	13837.25
482.67	13724.90
482.85	13729.58
483.03	13729.58
483.21	13928.53
483.39	13984.70
483.57	13991.72
483.74	14188.33
483.92	14441.11
484.10	13848.95
484.28	14406.00
484.46	14771.12
484.64	14876.44
484.82	14490.26
485.00	14869.42
485.18	15166.67
485.35	15323.49
485.53	14888.15
485.71	15272.00
485.89	15414.77
486.07	15164.33
486.25	15597.33
486.43	15494.35
486.61	15676.91
486.78	16065.44
486.96	15812.66
487.14	16152.04
487.32	16339.28
487.50	16458.65
487.68	16477.37
487.85	16767.60
488.03	16936.12
488.21	17085.91
488.39	17013.35
488.57	17179.53
488.75	17282.52
488.92	17413.59
489.10	17745.94
489.28	17926.16
489.46	17965.95
489.64	17961.27
489.81	18438.74
489.99	18312.35
490.17	18480.87
490.35	18918.55
490.53	18565.13
490.70	18934.93
490.88	18679.82
491.06	19105.79
491.24	19173.67
491.41	19129.20
491.59	19316.44
491.77	19545.81
491.95	19534.11
492.13	19461.55
492.30	19871.15
492.48	19655.82
492.66	20100.52
492.84	19917.96
493.01	20381.38
493.19	20262.02
493.37	20734.81
493.54	20526.50
493.72	20996.95
493.90	20734.81
494.08	21071.84
494.25	21214.62
494.43	21226.32
494.61	21261.43
494.79	21231.00
494.96	21460.37
495.14	21682.72
495.32	22031.46
495.49	21628.89
495.67	21731.87
495.85	22207.00
496.02	22017.42
496.20	22553.40
496.38	22312.33
496.55	22665.75
496.73	23082.36
496.91	22824.90
497.09	23145.56
497.26	23353.87
497.44	22991.08
497.62	23166.62
497.79	23491.96
497.97	23222.80
498.14	23590.26
498.32	23503.66
498.50	23611.32
498.67	24030.28
498.85	23964.75
499.03	24266.67
499.20	24271.36
499.38	24086.45
499.56	24400.08
499.73	24786.27
499.91	24329.87
500.08	24446.90
500.26	24482.00
500.44	24662.22
500.61	24559.24
500.79	24830.74
500.97	24978.20
501.14	25223.95
501.32	25542.27
501.49	25333.96
501.67	25163.10
501.84	25425.24
502.02	25289.49
502.20	25493.12
502.37	25865.26
502.55	26125.06
502.72	25769.30
502.90	26005.69
503.07	25930.80
503.25	26015.05
503.43	25989.31
503.60	26127.40
503.78	26281.88
503.95	26375.50
504.13	27082.34
504.30	26192.94
504.48	26536.99
504.65	26675.09
504.83	26941.91
505.01	27199.37
505.18	26766.37
505.36	27274.26
505.53	27255.54
505.71	27711.94
505.88	27154.90
506.06	26775.73
506.23	27454.48
506.41	27433.42
506.58	27552.79
506.76	27997.49
506.93	28121.54
507.11	27835.99
507.28	27985.79
507.46	27723.65
507.63	27828.97
507.81	28170.69
507.98	28416.44
508.16	28472.62
508.33	28627.09
508.50	29006.26
508.68	28741.78
508.85	28425.81
509.03	28746.46
509.20	29125.63
509.38	29132.65
509.55	29331.59
509.73	29289.46
509.90	29308.19
510.08	29137.33
510.25	29317.55
510.42	29621.82
510.60	29572.67
510.77	29521.18
510.95	29521.18
511.12	29872.26
511.30	30181.21
511.47	30253.76
511.64	30419.94
511.82	29935.45
511.99	30211.64
512.17	30319.30
512.34	30377.81
512.51	30136.74
512.69	30558.03
512.86	30501.86
513.04	30707.83
513.21	30792.09
513.38	30866.98
513.56	31005.08
513.73	30340.36
513.90	30934.86
514.08	30740.60
514.25	30920.82
514.43	31197.00
514.60	31012.10
514.77	31578.51
514.95	31262.54
515.12	31463.82
515.29	31529.36
515.47	31807.88
515.64	31889.80
515.81	31597.23
515.99	31793.84
516.16	31831.29
516.33	31620.64
516.51	31632.34
516.68	31508.29
516.85	31299.98
517.03	31992.78
517.20	31976.40
517.37	32130.87
517.54	32467.91
517.72	32215.13
517.89	32194.07
518.06	31770.43
518.24	32039.59
518.41	32591.96
518.58	32627.07
518.75	32357.91
518.93	33212.20
519.10	32793.25
519.27	32404.72
519.45	33116.24
519.62	32921.98
519.79	32961.76
519.96	33479.02
520.14	33214.54
520.31	33006.23
520.48	33453.28
520.65	33198.16
520.83	33553.92
521.00	33888.62
521.17	33823.08
521.34	33998.62
521.52	33654.56
521.69	34078.20
521.86	33853.51
522.03	34328.64
522.20	34216.29
522.38	33923.72
522.55	34108.63
522.72	34031.39
522.89	34363.75
523.07	34284.17
523.24	34459.71
523.41	34920.79
523.58	34087.56
523.75	35075.27
523.92	34754.61
524.10	34817.81
524.27	35321.02
524.44	35232.08
524.61	35070.59
524.78	35218.04
524.96	34995.69
525.13	34918.45
525.30	35646.36
525.47	35744.66
525.64	35508.27
525.81	35379.54
525.98	35559.76
526.16	35498.91
526.33	35487.20
526.50	35641.68
526.67	35346.77
526.84	35384.22
527.01	35204.00
527.18	35934.24
527.36	35749.34
527.53	35910.84
527.70	36247.88
527.87	36388.31
528.04	36027.87
528.21	36268.94
528.38	35772.75
528.55	36671.51
528.72	36610.66
528.89	36421.08
529.07	36652.79
529.24	36659.81
529.41	36535.76
529.58	35882.75
529.75	36432.78
529.92	36704.28
530.09	36900.89
530.26	36664.49
530.43	37106.85
530.60	36753.43
530.77	37233.24
530.94	37273.03
531.11	36957.06
531.28	37076.43
531.46	37099.83
531.63	36935.99
531.80	37088.13
531.97	37172.39
532.14	36992.17
532.31	37198.13
532.48	37380.70
532.65	37794.97
532.82	37502.40
532.99	37797.31
533.16	37516.45
533.33	37930.72
533.50	38143.71
533.67	37914.34
533.84	37324.52
534.01	38232.65
534.18	37853.48
534.35	37984.55
534.52	38124.99
534.69	38242.01
534.86	38223.29
535.03	38227.97
535.20	38031.36
535.37	38703.10
535.54	38614.16
535.71	38078.18
535.88	38382.45
536.05	38366.06
536.22	38553.30
536.38	38543.94
536.55	38651.61
536.72	38824.81
536.89	38632.88
537.06	38567.35
537.23	38834.17
537.40	38284.14
537.57	38796.72
537.74	38518.20
537.91	39222.70
538.08	39302.28
538.25	38698.42
538.42	39126.74
538.59	39168.87
538.75	38518.20
538.92	39412.28
539.09	39515.26
539.26	38941.83
539.43	39435.69
539.60	39234.40
539.77	39423.98
539.94	39012.05
540.11	39192.27
540.28	39299.94
540.44	39512.92
540.61	39124.40
540.78	39402.92
540.95	39381.85
541.12	39026.09
541.29	39569.10
541.46	39428.66
541.62	40114.44
541.79	39971.67
541.96	39784.43
542.13	39583.14
542.30	39856.98
542.47	39838.26
542.63	40069.97
542.80	40081.67
542.97	40282.96
543.14	40439.78
543.31	40259.55
543.48	40224.45
543.64	41106.83
543.81	40802.56
543.98	40634.04
544.15	40165.93
544.32	40615.32
544.48	40893.84
544.65	40662.13
544.82	40414.03
544.99	40753.41
545.16	40542.76
545.32	40926.61
545.49	41310.46
545.66	41338.54
545.83	41116.19
546.00	41509.40
546.16	40758.09
546.33	40807.24
546.50	40577.87
546.67	40746.39
546.83	40776.81
547.00	41612.38
547.17	41088.10
547.34	41294.07
547.50	41291.73
547.67	41811.33
547.84	41507.06
548.00	41874.52
548.17	41605.36
548.34	41493.02
548.51	41652.17
548.67	41518.76
548.84	41820.69
549.01	41670.90
549.18	41563.23
549.34	42045.38
549.51	41860.48
549.68	41663.88
549.84	42082.83
550.01	42178.79
550.18	41694.30
550.34	41682.60
550.51	41577.28
550.68	42033.68
550.84	41691.96
551.01	42351.99
551.18	42344.97
551.34	42113.26
551.51	42134.32
551.68	42295.82
551.84	42506.47
552.01	42335.61
552.18	42129.64
552.34	42124.96
552.51	42450.30
552.68	42092.19
552.84	42766.27
553.01	42632.86
553.18	42693.71
553.34	42529.87
553.51	42293.48
553.67	42426.89
553.84	42817.76
554.01	42756.91
554.17	43131.39
554.34	42724.14
554.51	42583.71
554.67	43264.80
554.84	42522.85
555.00	42337.95
555.17	42745.20
555.33	42431.57
555.50	42789.67
555.67	42497.11
555.83	42820.10
556.00	43168.84
556.16	43208.63
556.33	43079.90
556.50	43264.80
556.66	43019.05
556.83	42574.34
556.99	42955.85
557.16	43416.94
557.32	43068.20
557.49	43262.46
557.65	42897.34
557.82	43033.09
557.98	43449.70
558.15	43122.03
558.32	43356.08
558.48	43306.93
558.65	43100.97
558.81	43203.95
558.98	43140.75
559.14	43236.72
559.31	43384.17
559.47	43459.07
559.64	43632.27
559.80	43531.62
559.97	43475.45
560.13	43288.21
560.30	43019.05
560.46	43587.80
560.63	43800.79
560.79	43798.44
560.96	43959.94
561.12	43761.00
561.29	43475.45
561.45	43690.78
561.61	43618.22
561.78	43545.67
561.94	42983.94
562.11	43232.04
562.27	43540.99
562.44	43533.96
562.60	43330.34
562.77	43966.96
562.93	43433.32
563.10	43875.68
563.26	43608.86
563.42	43718.87
563.59	43374.81
563.75	43665.03
563.92	43791.42
564.08	43594.82
564.24	43934.20
564.41	43501.20
564.57	43863.98
564.74	44203.36
564.90	43548.01
565.07	44076.97
565.23	44137.82
565.39	43665.03
565.56	43873.34
565.72	43920.15
565.88	43679.08
566.05	43866.32
566.21	44217.40
566.38	43718.87
566.54	44086.33
566.70	44116.76
566.87	44493.58
567.03	44165.91
567.19	44603.59
567.36	44212.72
567.52	43786.74
567.68	44041.86
567.85	43751.63
568.01	44067.61
568.17	43814.83
568.34	43924.83
568.50	44282.94
568.66	43615.88
568.83	44088.67
568.99	43910.79
569.15	43861.64
569.32	43978.67
569.48	43955.26
569.64	44346.13
569.81	44266.55
569.97	44137.82
570.13	44395.28
570.30	44030.16
570.46	43957.60
570.62	44140.16
570.78	43531.62
570.95	44348.47
571.11	44617.63
571.27	44509.97
571.43	43824.19
571.60	44025.48
571.76	44306.34
571.92	44357.83
572.09	43770.36
572.25	44212.72
572.41	44076.97
572.57	44479.54
572.74	44652.74
572.90	44264.21
573.06	44383.58
573.22	43976.33
573.38	44465.50
573.55	44168.25
573.71	44252.51
573.87	44201.02
574.03	44425.71
574.20	44266.55
574.36	44271.23
574.52	44643.38
574.68	44648.06
574.84	44105.06
575.01	44409.32
575.17	44189.31
575.33	44240.81
575.49	43901.43
575.65	44360.17
575.82	44582.52
575.98	44584.86
576.14	44786.15
576.30	44575.50
576.46	44311.02
576.62	44334.43
576.79	44367.20
576.95	44367.20
577.11	44421.03
577.27	44449.11
577.43	44491.24
577.59	44189.31
577.75	44659.76
577.92	44105.06
578.08	44343.79
578.24	44404.64
578.40	44409.32
578.56	44238.47
578.72	44224.42
578.88	44430.39
579.04	44797.85
579.21	44374.22
579.37	44458.48
579.53	44472.52
579.69	44086.33
579.85	44547.42
580.01	44996.80
580.17	44119.10
580.33	44877.43
580.49	44552.10
580.65	44856.37
580.82	44432.73
580.98	44315.70
581.14	44428.05
581.30	45045.95
581.46	44566.14
581.62	44641.04
581.78	44626.99
581.94	44854.03
582.10	44765.09
582.26	44664.44
582.42	44432.73
582.58	44278.25
582.74	44332.09
582.90	44933.60
583.06	44851.69
583.22	45059.99
583.38	44914.88
583.54	44444.43
583.70	44397.62
583.86	44404.64
584.02	44619.97
584.18	44907.86
584.34	44669.12
584.50	44687.85
584.66	44531.03
584.82	44088.67
584.98	44643.38
585.14	44999.14
585.30	44734.66
585.46	44931.26
585.62	44704.23
585.78	44713.59
585.94	44472.52
586.10	44250.17
586.26	44519.33
586.42	44706.57
586.58	44641.04
586.74	45045.95
586.90	44432.73
587.06	44437.41
587.22	44797.85
587.38	44418.69
587.54	44626.99
587.70	44409.32
587.86	45006.16
588.02	44708.91
588.18	44409.32
588.34	44584.86
588.49	44304.00
588.65	44273.57
588.81	44210.38
588.97	44329.75
589.13	44545.08
589.29	43976.33
589.45	44704.23
589.61	44648.06
589.77	45027.23
589.93	44884.45
590.08	44528.69
590.24	45017.86
590.40	45205.11
590.56	45085.74
590.72	44793.17
590.88	44701.89
591.04	44973.39
591.20	45254.26
591.35	45045.95
591.51	45209.79
591.67	45137.23
591.83	45074.04
591.99	44769.77
592.15	45118.51
592.31	45008.50
592.46	44622.31
592.62	44886.79
592.78	44755.72
592.94	44737.00
593.10	44465.50
593.26	44797.85
593.41	44868.07
593.57	44683.17
593.73	44381.24
593.89	44835.30
594.05	44774.45
594.20	45326.81
594.36	44949.99
594.52	44694.87
594.68	44528.69
594.84	45322.13
594.99	44952.33
595.15	44538.05
595.31	44985.10
595.47	44704.23
595.62	45155.96
595.78	44701.89
595.94	44886.79
596.10	44779.13
596.25	44900.84
596.41	44905.52
596.57	44861.05
596.73	45172.34
596.88	44521.67
597.04	45148.93
597.20	45013.18
597.36	45029.57
597.51	45408.73
597.67	45085.74
597.83	45296.39
597.99	44994.46
598.14	45298.73
598.30	44957.01
598.46	44605.93
598.61	45001.48
598.77	44954.67
598.93	44683.17
599.09	45036.59
599.24	45462.57
599.40	45287.03
599.56	45029.57
599.71	45102.12
599.87	45013.18
600.03	45205.11
600.18	44821.26
600.34	45270.64
600.50	45195.74
600.65	44765.09
600.81	45064.67
600.97	45127.87
601.12	45186.38
601.28	45200.43
601.44	45172.34
601.59	45008.50
601.75	44928.92
601.91	45195.74
602.06	44737.00
602.22	45535.12
602.37	44823.60
602.53	45022.54
602.69	45268.30
602.84	45052.97
603.00	44758.06
603.16	44619.97
603.31	44762.75
603.47	44624.65
603.62	44718.28
603.78	45223.83
603.94	45102.12
604.09	45184.04
604.25	45347.88
604.40	44966.37
604.56	44896.16
604.71	44856.37
604.87	44219.74
605.03	45139.57
605.18	44287.62
605.34	45013.18
605.49	44957.01
605.65	44830.62
605.80	44549.76
605.96	45289.37
606.12	45198.09
606.27	45382.99
606.43	44315.70
606.58	45055.31
606.74	44512.31
606.89	44779.13
607.05	45104.46
607.20	45146.59
607.36	44793.17
607.51	45010.84
607.67	44807.22
607.82	44631.68
607.98	44472.52
608.13	44767.43
608.29	44861.05
608.44	44776.79
608.60	44437.41
608.75	44692.53
608.91	44744.02
609.06	44175.27
609.22	44479.54
609.37	44514.65
609.53	44737.00
609.68	44505.29
609.84	44130.80
609.99	44128.46
610.15	44582.52
610.30	44547.42
610.46	44406.98
610.61	44444.43
610.76	44275.91
610.92	44390.60
611.07	44884.45
611.23	44584.86
611.38	44027.82
611.54	44048.88
611.69	44219.74
611.84	44378.90
612.00	44392.94
612.15	43952.92
612.31	44580.18
612.46	43995.05
612.62	44212.72
612.77	44524.01
612.92	44615.29
613.08	43807.81
613.23	44292.30
613.39	44491.24
613.54	43969.30
613.69	43793.76
613.85	44020.80
614.00	44449.11
614.15	44151.87
614.31	44163.57
614.46	43929.51
614.62	44044.20
614.77	43812.49
614.92	43714.19
615.08	44048.88
615.23	43796.10
615.38	43634.61
615.54	43517.58
615.69	44037.18
615.84	43456.73
616.00	43604.18
616.15	43328.00
616.30	44135.48
616.46	43730.57
616.61	43325.66
616.76	43658.01
616.92	43335.02
617.07	43182.88
617.22	43313.95
617.37	43342.04
617.53	43613.54
617.68	43175.86
617.83	43920.15
617.99	43618.22
618.14	43730.57
618.29	43634.61
618.45	43365.45
618.60	43438.00
618.75	43473.11
618.90	43339.70
619.06	43590.14
619.21	43421.62
619.36	43285.87
619.51	43505.88
619.67	43302.25
619.82	43316.29
619.97	43037.77
620.12	43344.38
620.28	42665.63
620.43	42883.30
620.58	43232.04
620.73	43400.55
620.89	42799.04
621.04	43154.80
621.19	42967.55
621.34	42878.61
621.49	42822.44
621.65	43030.75
621.80	42628.18
621.95	42424.55
622.10	42735.84
622.25	42253.69
622.41	42438.59
622.56	42483.06
622.71	42534.56
622.86	42396.46
623.01	42625.84
623.16	42864.57
623.32	42663.28
623.47	43138.41
623.62	42546.26
623.77	42155.39
623.92	42342.63
624.07	42642.22
624.23	42335.61
624.38	42740.52
624.53	42059.43
624.68	42384.76
624.83	42424.55
624.98	42281.78
625.13	42211.56
625.29	42646.90
625.44	41977.51
625.59	42178.79
625.74	41638.13
625.89	41441.53
626.04	41996.23
626.19	41998.57
626.34	41951.76
626.49	42586.05
626.65	42139.00
626.80	41947.08
626.95	42220.92
627.10	41429.82
627.25	41591.32
627.40	41766.86
627.55	41474.29
627.70	41067.04
627.85	41546.85
628.00	41404.08
628.15	41673.24
628.30	41682.60
628.45	41661.54
628.60	41986.87
628.76	41804.31
628.91	41677.92
629.06	41724.73
629.21	41069.38
629.36	41378.33
629.51	41095.13
629.66	41350.24
629.81	41151.30
629.96	41713.03
630.11	41537.49
630.26	41900.27
630.41	41556.21
630.56	41291.73
630.71	41116.19
630.86	41223.86
631.01	41137.26
631.16	41553.87
631.31	40992.14
631.46	40875.12
631.61	40753.41
631.76	40924.27
631.91	41268.33
632.06	41170.02
632.21	41415.78
632.36	41256.62
632.51	40823.62
632.66	41024.91
632.81	40715.96
632.96	40598.93
633.10	40898.52
633.25	40636.38
633.40	41249.60
633.55	40807.24
633.70	40903.20
633.85	40748.73
634.00	40531.06
634.15	40835.33
634.30	41123.21
634.45	40182.32
634.60	40470.20
634.75	40509.99
634.90	40596.59
635.05	40226.79
635.19	40236.15
635.34	40629.36
635.49	40360.20
635.64	40495.95
635.79	40034.86
635.94	40140.19
636.09	40608.29
636.24	40306.37
636.39	40079.33
636.53	39995.07
636.68	40119.12
636.83	40191.68
636.98	40664.47
637.13	39838.26
637.28	40336.79
637.43	40238.49
637.57	40205.72
637.72	39995.07
637.87	39962.31
638.02	40137.85
638.17	40020.82
638.32	40032.52
638.46	39948.26
638.61	39765.70
638.76	39880.39
638.91	39878.05
639.06	40346.15
639.20	40133.17
639.35	39948.26
639.50	39826.56
639.65	40116.78
639.80	39917.84
639.94	39966.99
640.09	39615.91
640.24	39601.86
640.39	39194.61
640.54	39590.16
640.68	39587.82
640.83	39658.04
640.98	39288.23
641.13	39344.41
641.27	39452.07
641.42	39669.74
641.57	39466.11
641.72	39173.55
641.86	39042.48
642.01	39061.20
642.16	39040.14
642.31	38923.11
642.45	39585.48
642.60	39227.38
642.75	38948.85
642.90	39285.89
643.04	39154.82
643.19	39058.86
643.34	39459.09
643.48	38902.04
643.63	38990.98
643.78	38717.14
643.93	38829.49
644.07	38871.62
644.22	38817.78
644.37	38565.01
644.51	38836.51
644.66	38927.79
644.81	39309.30
644.95	38995.67
645.10	39220.36
645.25	39082.27
645.39	38969.92
645.54	38815.44
645.69	39079.92
645.83	38913.75
645.98	38518.20
646.13	38696.08
646.27	38742.89
646.42	38742.89
646.57	38396.49
646.71	38829.49
646.86	38878.64
647.00	38518.20
647.15	38347.34
647.30	38916.09
647.44	38309.89
647.59	38490.11
647.74	38595.43
647.88	38017.32
648.03	38536.92
648.17	38239.67
648.32	38110.94
648.47	38188.18
648.61	38244.35
648.76	38216.27
648.90	38115.62
649.05	38459.68
649.20	38380.10
649.34	38080.52
649.49	37935.40
649.63	38005.62
649.78	38047.75
649.92	37736.46
650.07	38450.32
650.21	37839.44
650.36	38277.12
650.51	37923.70
650.65	38361.38
650.80	38284.14
650.94	38565.01
651.09	37907.32
651.23	37436.87
651.38	38010.30
651.52	37895.61
651.67	37886.25
651.81	37270.69
651.96	37820.72
652.10	37560.92
652.25	37439.21
652.39	37743.48
652.54	37610.07
652.68	37652.20
652.83	37579.64
652.97	38143.71
653.12	37036.64
653.26	37036.64
653.41	37633.47
653.55	37373.67
653.70	36835.35
653.84	37120.90
653.99	37420.48
654.13	37305.80
654.27	37104.51
654.42	37333.89
654.56	37347.93
654.71	37471.98
654.85	37551.56
655.00	37289.42
655.14	37118.56
655.29	36847.05
655.43	36945.36
655.57	36744.07
655.72	36762.79
655.86	36285.33
656.01	36751.09
656.15	36488.95
656.30	36851.73
656.44	36947.70
656.58	36868.12
656.73	36727.69
656.87	36622.36
657.01	36219.79
657.16	36776.84
657.30	36783.86
657.45	36163.62
657.59	36510.02
657.73	36306.39
657.88	36797.90
658.02	36847.05
658.16	36404.69
658.31	36631.72
658.45	36589.59
658.60	36311.07
658.74	36156.60
658.88	36470.23
659.03	36245.54
659.17	36292.35
659.31	35950.63
659.46	35562.10
659.60	36488.95
659.74	36699.60
659.89	36123.83
660.03	36208.09
660.17	35728.28
660.32	35721.26
660.46	36175.32
660.60	36020.84
660.74	36128.51
660.89	35906.16
661.03	35742.32
661.17	35505.93
661.32	35243.79
661.46	35227.40
661.60	35187.61
661.74	34955.90
661.89	35152.51
662.03	35604.23
662.17	34962.92
662.31	35168.89
662.46	35470.82
662.60	35690.83
662.74	35402.94
662.88	35049.52
663.03	34841.21
663.17	34831.85
663.31	34852.92
663.45	34838.87
663.60	34836.53
663.74	34852.92
663.88	34623.54
664.02	34546.31
664.17	34623.54
664.31	34857.60
664.45	34593.12
664.59	34672.70
664.73	34237.36
664.88	34710.14
665.02	34146.08
665.16	34469.07
665.30	34338.00
665.44	34277.15
665.59	34000.96
665.73	33905.00
665.87	34216.29
666.01	33982.24
666.15	34206.93
666.29	34110.97
666.44	33991.60
666.58	33724.78
666.72	33942.45
666.86	33930.75
667.00	33692.01
667.14	33790.31
667.28	33439.23
667.43	33256.67
667.57	33729.46
667.71	33413.49
667.85	33640.52
667.99	33392.42
668.13	33446.26
668.27	33516.47
668.41	33317.53
668.56	33113.90
668.70	33111.56
668.84	33146.67
668.98	32961.76
669.12	32533.45
669.26	32517.06
669.40	32816.65
669.54	32655.15
669.68	32718.35
669.82	32465.57
669.96	32570.90
670.10	32355.57
670.25	32706.65
670.39	32334.50
670.53	31950.65
670.67	32432.80
670.81	32449.19
670.95	32177.68
671.09	32030.23
671.23	32526.42
671.37	32142.58
671.51	32418.76
671.65	31658.09
671.79	31709.58
671.93	31332.75
672.07	31796.18
672.21	31910.86
672.35	31903.84
672.49	31552.76
672.63	31908.52
672.77	31662.77
672.91	31470.84
673.05	31412.33
673.19	31552.76
673.33	31271.90
673.47	30871.67
673.61	30998.06
673.75	30785.07
673.89	30408.24
674.03	30651.66
674.17	30738.26
674.31	30642.29
674.45	30646.97
674.59	30827.20
674.73	31000.40
674.87	30382.49
675.01	30389.52
675.15	30232.70
675.29	30441.01
675.43	30415.26
675.56	30253.76
675.70	30338.02
675.84	29839.49
675.98	29146.69
676.12	30071.20
676.26	29661.61
676.40	29600.76
676.54	29916.73
676.68	29930.77
676.82	29132.65
676.96	29530.54
677.10	29219.25
677.23	28907.96
677.37	29347.98
677.51	29331.59
677.65	28613.05
677.79	28276.01
677.93	28765.18
678.07	28856.46
678.21	28416.44
678.34	28566.24
678.48	28194.09
678.62	28128.56
678.76	27828.97
678.90	27971.74
679.04	27765.78
679.18	27733.01
679.31	27840.67
679.45	27440.44
679.59	27641.73
679.73	27229.79
679.87	27274.26
680.00	27351.50
680.14	27225.11
680.28	27218.09
680.42	27047.23
680.56	27173.62
680.70	27365.54
680.83	27381.93
680.97	27115.11
681.11	27103.40
681.25	26473.80
681.39	26642.32
681.52	26862.33
681.66	26757.00
681.80	26410.60
681.94	25958.88
682.07	26204.64
682.21	26167.19
682.35	25734.19
682.49	26396.56
682.62	25972.92
682.76	25785.68
682.90	25404.17
683.04	25724.83
683.17	25340.98
683.31	25380.77
683.45	25474.39
683.59	25453.33
683.72	25495.46
683.86	24854.15
684.00	25249.70
684.13	25434.60
684.27	24678.61
684.41	24816.70
684.55	24793.29
684.68	24727.76
684.82	24723.08
684.96	24657.54
685.09	24507.75
685.23	24348.59
685.37	24170.71
685.50	24517.11
685.64	24327.53
685.78	23934.32
685.91	23957.72
686.05	23927.30
686.19	23541.11
686.32	23749.42
686.46	23253.22
686.60	22979.38
686.73	23274.29
686.87	22960.66
687.01	23379.61
687.14	23091.73
687.28	23138.54
687.42	23103.43
687.55	22703.20
687.69	22906.82
687.82	22490.21
687.96	22789.80
688.10	22658.73
688.23	22448.08
688.37	22078.27
688.50	21858.26
688.64	22260.84
688.78	22274.88
688.91	22162.53
689.05	21994.01
689.18	22274.88
689.32	21451.01
689.46	21708.47
689.59	21994.01
689.73	22216.36
689.86	21696.77
690.00	21687.40
690.13	21776.34
690.27	21376.11
690.41	21132.70
690.54	20929.07
690.68	20650.55
690.81	20889.28
690.95	20762.89
691.08	20585.01
691.22	20798.00
691.35	21003.97
691.49	20627.14
691.62	21186.53
691.76	20535.86
691.89	20620.12
692.03	20315.85
692.16	20320.53
692.30	20203.50
692.43	19819.66
692.57	19665.18
692.70	20049.03
692.84	20081.80
692.97	19831.36
693.11	19655.82
693.24	19545.81
693.38	19468.58
693.51	19307.08
693.65	19611.35
693.78	19543.47
693.92	19365.59
694.05	19220.48
694.19	19115.16
694.32	19063.66
694.45	18895.14
694.59	18670.45
694.72	18640.03
694.86	18743.01
694.99	18757.05
695.13	18630.66
695.26	18476.19
695.39	18373.21
695.53	18225.75
695.66	18682.16
695.80	18207.03
695.93	18080.64
696.07	17844.24
696.20	18370.86
696.33	17888.71
696.47	17563.38
696.60	18033.83
696.73	17474.44
696.87	17652.32
697.00	17371.46
697.14	17572.74
697.27	17554.02
697.40	17369.12
697.54	17219.32
697.67	17170.17
697.80	16798.02
697.94	17170.17
698.07	16519.50
698.21	16657.59
698.34	16922.07
698.47	16596.74
698.61	16140.33
698.74	16262.04
698.87	16444.60
699.01	16437.58
699.14	16006.92
699.27	15889.90
699.40	15967.13
699.54	15831.38
699.67	15967.13
699.80	16060.76
699.94	15683.93
700.07	15737.76
700.20	15829.04
700.34	15768.19
700.47	15616.05
700.60	15985.86
700.73	15910.96
700.87	15482.64
701.00	15524.77
701.13	15236.89
701.26	15365.62
701.40	15117.52
701.53	15178.37
701.66	15028.58
701.79	14754.74
701.93	14965.39
702.06	14862.40
702.19	14691.54
702.32	14712.61
702.46	14698.56
702.59	14555.79
702.72	14487.92
702.85	14537.07
702.99	14274.93
703.12	14480.89
703.25	14153.22
703.38	13996.40
703.51	14108.75
703.65	14174.28
703.78	13940.23
703.91	14064.28
704.04	14008.11
704.17	14036.19
704.31	13949.59
704.44	13671.07
704.57	13771.71
704.70	13886.40
704.83	13764.69
704.96	13661.71
705.10	13879.38
705.23	13493.19
>>>>>End Processed Spectral Data<<<<<
