SpectraSuite Data File
++++++++++++++++++++++++++++++++++++
Date: Fri Oct 25 10:44:42 EDT 2013
User: price-jones
Dark Spectrum Present: No
Reference Spectrum Present: No
Number of Sampled Component Spectra: 1
Spectrometers: USB2+H05261
Integration Time (usec): 100000 (USB2+H05261)
Spectra Averaged: 1 (USB2+H05261)
Boxcar Smoothing: 0 (USB2+H05261)
Correct for Electrical Dark: No (USB2+H05261)
Strobe/Lamp Enabled: No (USB2+H05261)
Correct for Detector Non-linearity: No (USB2+H05261)
Correct for Stray Light: No (USB2+H05261)
Number of Pixels in Processed Spectrum: 2048
>>>>>Begin Processed Spectral Data<<<<<
365.73	81.92
365.92	81.92
366.12	81.92
366.32	39.79
366.52	0.00
366.72	0.00
366.91	51.49
367.11	0.00
367.31	0.00
367.51	35.11
367.70	74.90
367.90	126.39
368.10	46.81
368.30	81.92
368.49	0.00
368.69	93.62
368.89	7.02
369.09	0.00
369.28	9.36
369.48	0.00
369.68	107.66
369.87	70.22
370.07	79.58
370.27	91.28
370.47	149.79
370.66	311.29
370.86	327.68
371.06	402.57
371.25	416.62
371.45	449.38
371.65	489.17
371.84	421.30
372.04	407.25
372.24	500.87
372.44	414.27
372.63	491.51
372.83	468.11
373.03	533.64
373.22	383.85
373.42	526.62
373.62	447.04
373.81	498.53
374.01	608.54
374.21	524.28
374.40	580.45
374.60	596.84
374.79	535.98
374.99	514.92
375.19	550.03
375.38	533.64
375.58	510.24
375.78	603.86
375.97	554.71
376.17	587.47
376.37	561.73
376.56	580.45
376.76	533.64
376.95	526.62
377.15	566.41
377.35	596.84
377.54	552.37
377.74	578.11
377.93	575.77
378.13	592.16
378.33	650.67
378.52	578.11
378.72	641.31
378.91	690.46
379.11	601.52
379.31	599.18
379.50	655.35
379.70	655.35
379.89	688.12
380.09	606.20
380.28	669.39
380.48	660.03
380.68	608.54
380.87	538.32
381.07	634.29
381.26	788.76
381.46	674.07
381.65	664.71
381.85	648.33
382.04	676.41
382.24	669.39
382.43	695.14
382.63	699.82
382.83	566.41
383.02	713.86
383.22	709.18
383.41	688.12
383.61	713.86
383.80	763.01
384.00	671.73
384.19	695.14
384.39	788.76
384.58	727.91
384.78	781.74
384.97	681.10
385.17	791.10
385.36	767.70
385.56	709.18
385.75	699.82
385.95	706.84
386.14	812.17
386.34	699.82
386.53	823.87
386.72	727.91
386.92	816.85
387.11	791.10
387.31	816.85
387.50	830.89
387.70	833.23
387.89	809.83
388.09	819.19
388.28	802.80
388.48	795.78
388.67	882.38
388.86	805.14
389.06	835.57
389.25	884.72
389.45	873.02
389.64	917.49
389.84	901.11
390.03	917.49
390.22	959.62
390.42	866.00
390.61	856.64
390.81	898.77
391.00	968.98
391.19	999.41
391.39	933.87
391.58	924.51
391.78	901.11
391.97	1001.75
392.16	851.96
392.36	966.64
392.55	1025.15
392.75	1020.47
392.94	877.70
393.13	880.04
393.33	964.30
393.52	999.41
393.71	1132.82
393.91	1043.88
394.10	997.07
394.29	973.66
394.49	1086.01
394.68	1095.37
394.88	1097.71
395.07	1139.84
395.26	1172.61
395.46	1043.88
395.65	1177.29
395.84	1118.78
396.04	1107.07
396.23	1144.52
396.42	1167.93
396.62	1158.57
396.81	1118.78
397.00	1071.97
397.19	1146.86
397.39	1114.10
397.58	1226.44
397.77	1170.27
397.97	1135.16
398.16	1313.04
398.35	1327.08
398.55	1289.64
398.74	1254.53
398.93	1383.26
399.12	1301.34
399.32	1343.47
399.51	1273.25
399.70	1460.49
399.90	1432.41
400.09	1434.75
400.28	1369.21
400.47	1392.62
400.67	1500.28
400.86	1455.81
401.05	1486.24
401.24	1373.89
401.44	1563.48
401.63	1409.00
401.82	1582.20
402.01	1343.47
402.21	1500.28
402.40	1598.59
402.59	1497.94
402.78	1465.18
402.97	1479.22
403.17	1547.09
403.36	1572.84
403.55	1556.46
403.74	1647.74
403.93	1614.97
404.13	1699.23
404.32	1666.46
404.51	1645.40
404.70	1675.82
404.89	1614.97
405.09	1715.61
405.28	1607.95
405.47	1748.38
405.66	1694.55
405.85	1867.75
406.05	1750.72
406.24	1806.89
406.43	1809.23
406.62	1802.21
406.81	1895.83
407.00	1865.41
407.20	1771.79
407.39	1813.92
407.58	1867.75
407.77	1973.07
407.96	2005.84
408.15	1963.71
408.34	2010.52
408.54	2050.31
408.73	1975.41
408.92	2150.95
409.11	2052.65
409.30	2059.67
409.49	1987.11
409.68	2069.03
409.87	2026.90
410.07	2010.52
410.26	2038.61
410.45	2211.81
410.64	2129.89
410.83	2211.81
411.02	2127.55
411.21	2230.53
411.40	2169.68
411.59	2326.49
411.78	2338.20
411.98	2277.34
412.17	2307.77
412.36	2354.58
412.55	2396.71
412.74	2385.01
412.93	2392.03
413.12	2314.79
413.31	2506.71
413.50	2459.90
413.69	2466.92
413.88	2506.71
414.07	2633.10
414.26	2511.39
414.45	2651.83
414.64	2731.41
414.83	2684.59
415.02	2712.68
415.22	2796.94
415.41	2855.45
415.60	2733.75
415.79	2937.37
415.98	2843.75
416.17	2913.97
416.36	2778.22
416.55	2803.96
416.74	2977.16
416.93	2876.52
417.12	2925.67
417.31	2871.84
417.50	2916.31
417.69	2977.16
417.88	3063.76
418.07	3131.64
418.26	3023.97
418.45	3155.04
418.64	3197.17
418.83	3136.32
419.02	3124.62
419.21	3117.59
419.39	3283.77
419.58	3239.30
419.77	3265.05
419.96	3171.43
420.15	3267.39
420.34	3279.09
420.53	3260.37
420.72	3513.14
420.91	3396.12
421.10	3405.48
421.29	3433.57
421.48	3365.69
421.67	3337.60
421.86	3447.61
422.05	3346.97
422.24	3295.47
422.43	3494.42
422.61	3445.27
422.80	3466.33
422.99	3475.70
423.18	3583.36
423.37	3595.06
423.56	3510.80
423.75	3438.25
423.94	3559.95
424.13	3363.35
424.32	3435.91
424.50	3618.47
424.69	3641.87
424.88	3618.47
425.07	3534.21
425.26	3459.31
425.45	3552.93
425.64	3522.51
425.83	3534.21
426.01	3623.15
426.20	3672.30
426.39	3616.13
426.58	3588.04
426.77	3555.27
426.96	3515.48
427.15	3592.72
427.33	3581.02
427.52	3735.50
427.71	3648.90
427.90	3688.68
428.09	3796.35
428.28	3744.86
428.46	3794.01
428.65	3698.05
428.84	3782.31
429.03	3784.65
429.22	3791.67
429.40	3758.90
429.59	3871.25
429.78	3698.05
429.97	3616.13
430.16	3777.62
430.34	3808.05
430.53	3880.61
430.72	3908.69
430.91	3889.97
431.10	3936.78
431.28	4070.19
431.47	4079.55
431.66	4168.49
431.85	4086.58
432.03	4093.60
432.22	4280.84
432.41	4161.47
432.60	4053.81
432.79	4140.41
432.97	4402.55
433.16	4236.37
433.35	4163.81
433.54	4124.02
433.72	4177.86
433.91	4304.25
434.10	4327.65
434.28	4367.44
434.47	4454.04
434.66	4456.38
434.85	4318.29
435.03	4479.79
435.22	4402.55
435.41	4667.03
435.59	4631.92
435.78	4542.98
435.97	4517.23
436.16	4442.34
436.34	4421.27
436.53	4582.77
436.72	4557.02
436.90	4540.64
437.09	4564.04
437.28	4760.65
437.46	4573.41
437.65	4641.28
437.84	4929.17
438.02	4826.18
438.21	4585.11
438.40	4594.47
438.58	4936.19
438.77	4755.97
438.96	4912.78
439.14	4961.94
439.33	4992.36
439.52	5076.62
439.70	5050.88
439.89	5060.24
440.08	5116.41
440.26	5085.98
440.45	5200.67
440.63	5172.58
440.82	5235.78
441.01	5305.99
441.19	5275.57
441.38	5341.10
441.57	5418.34
441.75	5507.28
441.94	5542.39
442.12	5633.67
442.31	5652.39
442.50	5647.71
442.68	5673.46
442.87	5736.65
443.05	5689.84
443.24	5872.40
443.43	5797.51
443.61	5600.90
443.80	5893.47
443.98	5724.95
444.17	5502.60
444.35	5729.63
444.54	5825.59
444.73	5743.67
444.91	5809.21
445.10	5841.98
445.28	5809.21
445.47	5792.83
445.65	5834.96
445.84	5776.44
446.02	5746.02
446.21	5870.06
446.39	5771.76
446.58	6024.54
446.77	5900.49
446.95	5849.00
447.14	5921.56
447.32	5944.96
447.51	5874.74
447.69	5977.73
447.88	5980.07
448.06	6045.60
448.25	5975.39
448.43	5797.51
448.62	5933.26
448.80	5940.28
448.99	6087.73
449.17	6043.26
449.36	6132.20
449.54	6277.32
449.73	6340.51
449.91	6265.61
450.10	6331.15
450.28	6377.96
450.46	6457.54
450.65	6209.44
450.83	6356.90
451.02	6246.89
451.20	6417.75
451.39	6445.84
451.57	6406.05
451.76	6401.37
451.94	6464.56
452.13	6553.50
452.31	6448.18
452.49	6420.09
452.68	6558.18
452.86	6471.58
453.05	6560.52
453.23	6604.99
453.42	6534.78
453.60	6593.29
453.78	6834.36
453.97	6368.60
454.15	6483.28
454.34	6630.74
454.52	6754.79
454.70	6677.55
454.89	6782.87
455.07	6963.09
455.26	7002.88
455.44	7063.74
455.62	6801.60
455.81	7002.88
455.99	6995.86
456.17	6789.89
456.36	7089.48
456.54	6911.60
456.73	6956.07
456.91	7382.05
457.09	7241.62
457.28	7426.52
457.46	7232.26
457.64	7435.88
457.83	7365.67
458.01	7173.74
458.19	7346.94
458.38	7262.68
458.56	7454.61
458.74	7482.69
458.93	7246.30
459.11	7466.31
459.29	7328.22
459.48	7356.30
459.66	7534.18
459.84	7304.81
460.03	7702.70
460.21	7646.53
460.39	7812.71
460.57	7499.08
460.76	7625.47
460.94	7679.30
461.12	7822.07
461.31	7782.28
461.49	7758.88
461.67	7836.11
461.85	8163.79
462.04	7660.57
462.22	8032.72
462.40	7985.91
462.59	8037.40
462.77	7976.55
462.95	8116.98
463.13	7950.80
463.32	8102.93
463.50	7992.93
463.68	8222.30
463.86	8070.17
464.05	8009.31
464.23	7934.42
464.41	8194.22
464.59	7962.50
464.78	8248.05
464.96	8222.30
465.14	7985.91
465.32	8238.69
465.50	8348.69
465.69	8365.07
465.87	8409.54
466.05	8180.17
466.23	8210.60
466.41	8299.54
466.60	8659.98
466.78	8496.14
466.96	8348.69
467.14	8334.65
467.32	8542.96
467.51	8528.91
467.69	8381.46
467.87	8454.02
468.05	8416.57
468.23	8610.83
468.41	8475.08
468.60	8531.25
468.78	8730.20
468.96	8753.60
469.14	8919.78
469.32	8671.68
469.50	8631.90
469.69	8966.59
469.87	8798.07
470.05	8971.27
470.23	8861.27
470.41	8826.16
470.59	8994.68
470.77	8997.02
470.95	8961.91
471.14	9320.01
471.32	8917.44
471.50	9275.54
471.68	9188.94
471.86	9334.06
472.04	9423.00
472.22	9741.31
472.40	9322.35
472.58	9376.19
472.77	9399.59
472.95	9518.96
473.13	9757.69
473.31	9397.25
473.49	9605.56
473.67	9607.90
473.85	9554.07
474.03	9846.63
474.21	9816.21
474.39	10113.45
474.57	9825.57
474.75	10040.90
474.93	10052.60
475.12	10125.16
475.30	10321.76
475.48	10071.33
475.66	10380.28
475.84	10389.64
476.02	10218.78
476.20	10143.88
476.38	10546.45
476.56	10888.17
476.74	10747.74
476.92	10707.95
477.10	10574.54
477.28	10841.36
477.46	10904.56
477.64	11030.94
477.82	11176.06
478.00	11375.00
478.18	11197.12
478.36	11353.94
478.54	11520.12
478.72	11307.13
478.90	11604.38
479.08	11936.73
479.26	11833.75
479.44	11889.92
479.62	11920.35
479.80	11925.03
479.98	12205.89
480.16	12299.52
480.34	12107.59
480.52	12355.69
480.70	12425.90
480.88	12217.60
481.06	12608.47
481.24	12709.11
481.41	12746.56
481.59	12912.74
481.77	13179.56
481.95	13067.21
482.13	13170.19
482.31	13132.75
482.49	13479.15
482.67	13434.68
482.85	13575.11
483.03	13958.96
483.21	14052.58
483.39	14012.79
483.57	13757.67
483.74	14101.73
483.92	14209.39
484.10	14097.05
484.28	14637.71
484.46	14846.02
484.64	14904.53
484.82	14483.24
485.00	14508.98
485.18	14693.88
485.35	15077.73
485.53	14766.44
485.71	14738.35
485.89	15241.57
486.07	15185.40
486.25	15569.24
486.43	15669.89
486.61	15646.48
486.78	15681.59
486.96	16208.21
487.14	16025.65
487.32	16240.98
487.50	16493.76
487.68	16512.48
487.85	16884.62
488.03	17053.14
488.21	16798.02
488.39	16931.44
488.57	17298.90
488.75	17305.92
488.92	17722.54
489.10	17734.24
489.28	17853.61
489.46	17776.37
489.64	18010.42
489.81	18115.75
489.99	18352.14
490.17	18258.52
490.35	18651.73
490.53	18590.88
490.70	18787.48
490.88	18513.64
491.06	18775.78
491.24	18780.46
491.41	18918.55
491.59	19269.63
491.77	18806.20
491.95	19070.68
492.13	19389.00
492.30	19665.18
492.48	20126.27
492.66	19887.53
492.84	19924.98
493.01	20051.37
493.19	20074.77
493.37	20517.14
493.54	20561.61
493.72	20573.31
493.90	20823.75
494.08	20844.81
494.25	21102.27
494.43	21191.21
494.61	21469.73
494.79	21521.23
494.96	21179.51
495.14	21675.70
495.32	21905.07
495.49	21809.11
495.67	21830.18
495.85	21991.67
496.02	22153.17
496.20	21944.86
496.38	22483.19
496.55	22178.92
496.73	22946.61
496.91	22679.79
497.09	23077.68
497.26	23307.05
497.44	22455.10
497.62	23056.62
497.79	23250.88
497.97	23091.73
498.14	23405.36
498.32	23592.60
498.50	23360.89
498.67	23683.88
498.85	23978.79
499.03	23948.36
499.20	23906.23
499.38	24283.06
499.56	24332.21
499.73	24297.10
499.91	24306.46
500.08	24713.72
500.26	24119.22
500.44	24493.71
500.61	24486.68
500.79	24512.43
500.97	24608.39
501.14	24751.17
501.32	24580.31
501.49	24915.00
501.67	25235.66
501.84	25212.25
502.02	25177.14
502.20	25605.46
502.37	25806.75
502.55	25324.60
502.72	25759.94
502.90	25942.50
503.07	25750.57
503.25	26228.04
503.43	25963.56
503.60	26134.42
503.78	25991.65
503.95	25984.63
504.13	26588.49
504.30	26260.81
504.48	26684.45
504.65	26518.27
504.83	26710.19
505.01	27051.91
505.18	26796.79
505.36	27328.10
505.53	27023.83
505.71	27393.63
505.88	27646.41
506.06	27180.64
506.23	27402.99
506.41	27578.53
506.58	27482.57
506.76	27349.16
506.93	27733.01
507.11	27178.30
507.28	27882.80
507.46	28046.64
507.63	27751.73
507.81	28156.64
507.98	27737.69
508.16	28151.96
508.33	28313.46
508.50	28540.49
508.68	28264.31
508.85	28931.36
509.03	28388.36
509.20	28793.27
509.38	29097.54
509.55	28893.91
509.73	28725.39
509.90	29137.33
510.08	29266.06
510.25	28886.89
510.42	29397.13
510.60	29067.11
510.77	29511.81
510.95	29558.63
511.12	29331.59
511.30	29579.69
511.47	29991.62
511.64	30118.01
511.82	30167.16
511.99	30031.41
512.17	29612.46
512.34	29663.95
512.51	30143.76
512.69	30438.67
512.86	30422.28
513.04	30286.53
513.21	30199.93
513.38	30602.50
513.56	30047.80
513.73	30597.82
513.90	30574.42
514.08	30441.01
514.25	30658.68
514.43	30689.10
514.60	31042.53
514.77	30979.33
514.95	31304.67
515.12	31026.14
515.29	31131.47
515.47	31510.63
515.64	31508.29
515.81	31225.09
515.99	31491.91
516.16	31292.96
516.33	31569.15
516.51	32030.23
516.68	31318.71
516.85	31463.82
517.03	31496.59
517.20	31866.39
517.37	31608.93
517.54	32315.78
517.72	32219.81
517.89	32114.49
518.06	31737.66
518.24	31859.37
518.41	32217.47
518.58	32311.10
518.75	32107.47
518.93	32315.78
519.10	32191.73
519.27	32980.49
519.45	32510.04
519.62	32554.51
519.79	32971.13
519.96	32929.00
520.14	32893.89
520.31	32903.25
520.48	32964.10
520.65	32933.68
520.83	33495.41
521.00	33312.84
521.17	33413.49
521.34	33474.34
521.52	33329.23
521.69	33682.65
521.86	33890.96
522.03	33982.24
522.20	33928.41
522.38	34181.18
522.55	33937.77
522.72	33944.79
522.89	34019.69
523.07	34162.46
523.24	34412.90
523.41	34560.35
523.58	34513.54
523.75	35084.63
523.92	34850.58
524.10	35084.63
524.27	34761.64
524.44	34958.24
524.61	34684.40
524.78	35154.85
524.96	35370.18
525.13	34857.60
525.30	34787.38
525.47	35306.98
525.64	35211.02
525.81	35185.27
525.98	35358.47
526.16	35276.55
526.33	35110.38
526.50	35449.75
526.67	35157.19
526.84	35360.81
527.01	35098.67
527.18	35051.86
527.36	35599.55
527.53	35543.38
527.70	35903.82
527.87	35974.03
528.04	36217.45
528.21	36304.05
528.38	35777.43
528.55	36205.75
528.72	36233.83
528.89	36437.46
529.07	35892.12
529.24	36002.12
529.41	36444.48
529.58	36402.35
529.75	36278.30
529.92	36739.39
530.09	36608.32
530.26	36793.22
530.43	36362.56
530.60	36650.45
530.77	36690.24
530.94	37038.98
531.11	36975.78
531.28	37081.11
531.46	37242.60
531.63	37392.40
531.80	36858.76
531.97	36931.31
532.14	37352.61
532.31	36786.20
532.48	37095.15
532.65	37443.89
532.82	37109.19
532.99	37401.76
533.16	37249.63
533.33	37263.67
533.50	37731.78
533.67	37188.77
533.84	37280.05
534.01	37404.10
534.18	37500.06
534.35	37832.42
534.52	37574.96
534.69	38054.77
534.86	38019.66
535.03	37830.08
535.20	38178.82
535.37	38253.72
535.54	38480.75
535.71	38319.25
535.88	38169.46
536.05	38464.36
536.22	38476.07
536.38	38181.16
536.55	38464.36
536.72	38667.99
536.89	37993.92
537.06	38178.82
537.23	38396.49
537.40	38408.19
537.57	38712.46
537.74	38714.80
537.91	39360.79
538.08	38873.96
538.25	38721.82
538.42	38740.55
538.59	39185.25
538.75	38899.70
538.92	39000.35
539.09	39192.27
539.26	39278.87
539.43	39386.54
539.60	38763.95
539.77	38792.04
539.94	39288.23
540.11	38300.53
540.28	39140.78
540.44	39281.21
540.61	39421.64
540.78	39086.95
540.95	39119.71
541.12	39552.71
541.29	39473.13
541.46	39601.86
541.62	39313.98
541.79	39723.57
541.96	39255.46
542.13	39555.05
542.30	39594.84
542.47	39651.02
542.63	39913.16
542.80	39763.36
542.97	39913.16
543.14	40119.12
543.31	40205.72
543.48	39922.52
543.64	40577.87
543.81	40407.01
543.98	40418.71
544.15	40399.99
544.32	40643.40
544.48	40697.24
544.65	40577.87
544.82	40481.91
544.99	40130.83
545.16	40250.19
545.32	40477.22
545.49	41001.50
545.66	41172.36
545.83	40971.08
546.00	40973.42
546.16	40910.22
546.33	40713.62
546.50	40273.60
546.67	40891.50
546.83	40706.60
547.00	41006.19
547.17	41074.06
547.34	40966.40
547.50	41111.51
547.67	41518.76
547.84	41326.84
548.00	40989.80
548.17	41450.89
548.34	41567.91
548.51	41612.38
548.67	41490.68
548.84	41710.69
549.01	41060.02
549.18	41420.46
549.34	41830.05
549.51	41771.54
549.68	41783.24
549.84	41738.77
550.01	41698.98
550.18	41825.37
550.34	42101.56
550.51	41507.06
550.68	41668.56
550.84	41268.33
551.01	41769.20
551.18	41792.61
551.34	41766.86
551.51	41949.42
551.68	42148.37
551.84	42036.02
552.01	41612.38
552.18	41755.16
552.34	41717.71
552.51	41766.86
552.68	41858.14
552.84	42700.73
553.01	42227.95
553.18	42124.96
553.34	42036.02
553.51	41923.68
553.67	42122.62
553.84	42649.24
554.01	42513.49
554.17	42277.10
554.34	42707.76
554.51	42845.85
554.67	43086.92
554.84	42614.13
555.00	42653.92
555.17	42583.71
555.33	42141.35
555.50	42258.37
555.67	42550.94
555.83	42581.37
556.00	42600.09
556.16	42820.10
556.33	42567.32
556.50	42499.45
556.66	42466.68
556.83	42351.99
556.99	43494.18
557.16	42960.53
557.32	42794.36
557.49	43456.73
557.65	42424.55
557.82	42731.16
557.98	42621.16
558.15	42869.25
558.32	42941.81
558.48	43079.90
558.65	43187.56
558.81	43002.66
558.98	42866.91
559.14	43054.15
559.31	43217.99
559.47	43255.44
559.64	43388.85
559.80	43330.34
559.97	43065.86
560.13	42939.47
560.30	42815.42
560.46	42988.62
560.63	43264.80
560.79	43435.66
560.96	43536.30
561.12	43185.22
561.29	43325.66
561.45	43115.01
561.61	43328.00
561.78	43393.53
561.94	42836.48
562.11	43047.13
562.27	43154.80
562.44	43367.79
562.60	43636.95
562.77	43449.70
562.93	43145.44
563.10	43826.53
563.26	42904.36
563.42	43531.62
563.59	43512.90
563.75	42902.02
563.92	43480.13
564.08	43463.75
564.24	43786.74
564.41	43725.89
564.57	43742.27
564.74	43871.00
564.90	43566.73
565.07	43564.39
565.23	43803.13
565.39	43374.81
565.56	43985.69
565.72	43311.61
565.88	43421.62
566.05	43924.83
566.21	43749.29
566.38	43323.32
566.54	43730.57
566.70	43775.04
566.87	44062.93
567.03	43730.57
567.19	44163.57
567.36	43784.40
567.52	43875.68
567.68	43796.10
567.85	43419.28
568.01	43739.93
568.17	43718.87
568.34	43873.34
568.50	43555.03
568.66	43828.87
568.83	44018.46
568.99	43690.78
569.15	43470.77
569.32	43672.06
569.48	44009.09
569.64	44060.58
569.81	43833.55
569.97	44020.80
570.13	43943.56
570.30	43601.84
570.46	43798.44
570.62	43606.52
570.78	43543.33
570.95	44046.54
571.11	44154.21
571.27	43557.37
571.43	43927.17
571.60	43845.26
571.76	43845.26
571.92	43903.77
572.09	43632.27
572.25	44086.33
572.41	43674.40
572.57	44257.19
572.74	44133.14
572.90	44179.95
573.06	44144.84
573.22	43929.51
573.38	44147.18
573.55	44184.63
573.71	44189.31
573.87	43873.34
574.03	43723.55
574.20	43775.04
574.36	43803.13
574.52	44018.46
574.68	44126.12
574.84	44205.70
575.01	43962.28
575.17	43913.13
575.33	43908.45
575.49	43786.74
575.65	44154.21
575.82	44245.49
575.98	44233.78
576.14	44533.37
576.30	44577.84
576.46	43775.04
576.62	43896.75
576.79	44154.21
576.95	43868.66
577.11	44191.65
577.27	44051.22
577.43	44067.61
577.59	44219.74
577.75	44060.58
577.92	43952.92
578.08	43753.97
578.24	44076.97
578.40	44201.02
578.56	43882.70
578.72	44062.93
578.88	44505.29
579.04	44231.44
579.21	44318.04
579.37	44397.62
579.53	44516.99
579.69	44116.76
579.85	44201.02
580.01	44643.38
580.17	44086.33
580.33	44715.93
580.49	44364.85
580.65	44392.94
580.82	44271.23
580.98	44060.58
581.14	44278.25
581.30	44531.03
581.46	44692.53
581.62	44292.30
581.78	44067.61
581.94	44610.61
582.10	44299.32
582.26	44346.13
582.42	43964.62
582.58	43906.11
582.74	44488.90
582.90	44584.86
583.06	44676.15
583.22	44432.73
583.38	44402.30
583.54	44641.04
583.70	43873.34
583.86	44123.78
584.02	44406.98
584.18	44561.46
584.34	44240.81
584.50	44498.26
584.66	44243.15
584.82	44257.19
584.98	44453.79
585.14	44570.82
585.30	44095.69
585.46	44425.71
585.62	44334.43
585.78	44526.35
585.94	43831.21
586.10	44168.25
586.26	44130.80
586.42	44524.01
586.58	44741.68
586.74	44533.37
586.90	44261.87
587.06	44395.28
587.22	44357.83
587.38	43924.83
587.54	44479.54
587.70	44783.81
587.86	44467.84
588.02	44559.12
588.18	44474.86
588.34	44339.11
588.49	44058.24
588.65	44453.79
588.81	44697.21
588.97	43966.96
589.13	44023.14
589.29	44449.11
589.45	44205.70
589.61	44278.25
589.77	44641.04
589.93	44406.98
590.08	44561.46
590.24	44460.82
590.40	44495.92
590.56	44634.02
590.72	44404.64
590.88	44615.29
591.04	44502.95
591.20	45242.56
591.35	44952.33
591.51	44921.90
591.67	44215.06
591.83	44547.42
591.99	44708.91
592.15	44636.36
592.31	44414.01
592.46	44414.01
592.62	44577.84
592.78	44725.30
592.94	44898.50
593.10	44680.83
593.26	44343.79
593.41	44704.23
593.57	44126.12
593.73	44722.96
593.89	44734.66
594.05	44392.94
594.20	44519.33
594.36	45137.23
594.52	44416.35
594.68	44486.56
594.84	44524.01
594.99	44828.28
595.15	44060.58
595.31	45090.42
595.47	44835.30
595.62	44985.10
595.78	44552.10
595.94	45038.93
596.10	44919.56
596.25	44870.41
596.41	45069.36
596.57	45268.30
596.73	44678.49
596.88	44509.97
597.04	44596.57
597.20	44570.82
597.36	44624.65
597.51	45109.14
597.67	45095.10
597.83	45205.11
597.99	44968.71
598.14	45071.70
598.30	45188.72
598.46	44601.25
598.61	44926.58
598.77	44488.90
598.93	44362.51
599.09	44680.83
599.24	45059.99
599.40	44921.90
599.56	45251.92
599.71	45148.93
599.87	45013.18
600.03	44542.74
600.18	45006.16
600.34	44601.25
600.50	44486.56
600.65	44584.86
600.81	44935.95
600.97	45294.05
601.12	44914.88
601.28	45263.62
601.44	44980.42
601.59	44940.63
601.75	44683.17
601.91	45024.89
602.06	44722.96
602.22	44701.89
602.37	44865.73
602.53	44847.00
602.69	45275.32
602.84	44912.54
603.00	44547.42
603.16	44732.32
603.31	44533.37
603.47	44729.98
603.62	44722.96
603.78	44914.88
603.94	44879.77
604.09	45024.89
604.25	44776.79
604.40	44470.18
604.56	44666.78
604.71	44985.10
604.87	44554.44
605.03	44769.77
605.18	44435.07
605.34	44622.31
605.49	44390.60
605.65	44835.30
605.80	44435.07
605.96	45008.50
606.12	44996.80
606.27	45387.67
606.43	44636.36
606.58	44734.66
606.74	44231.44
606.89	44126.12
607.05	44622.31
607.20	44844.66
607.36	44542.74
607.51	45109.14
607.67	44505.29
607.82	44428.05
607.98	44444.43
608.13	44533.37
608.29	44147.18
608.44	44708.91
608.60	44144.84
608.75	43636.95
608.91	44526.35
609.06	44041.86
609.22	44481.88
609.37	43948.24
609.53	44332.09
609.68	44414.01
609.84	43997.39
609.99	44105.06
610.15	44161.23
610.30	44205.70
610.46	43936.54
610.61	43875.68
610.76	44130.80
610.92	44222.08
611.07	44680.83
611.23	44170.59
611.38	44261.87
611.54	44116.76
611.69	44243.15
611.84	43856.96
612.00	44030.16
612.15	43899.09
612.31	44184.63
612.46	44189.31
612.62	44154.21
612.77	43821.85
612.92	44470.18
613.08	44320.38
613.23	44088.67
613.39	44030.16
613.54	43660.35
613.69	44177.61
613.85	43756.32
614.00	43674.40
614.15	43910.79
614.31	43861.64
614.46	43936.54
614.62	43803.13
614.77	43498.86
614.92	44020.80
615.08	43969.30
615.23	43269.48
615.38	43526.94
615.54	43232.04
615.69	43505.88
615.84	43426.30
616.00	43519.92
616.15	43700.14
616.30	43672.06
616.46	43290.55
616.61	43049.47
616.76	43217.99
616.92	42934.79
617.07	43545.67
617.22	42799.04
617.37	43178.20
617.53	43412.26
617.68	43435.66
617.83	43489.49
617.99	43821.85
618.14	43276.51
618.29	43154.80
618.45	43068.20
618.60	42845.85
618.75	43100.97
618.90	43393.53
619.06	43131.39
619.21	43068.20
619.36	43590.14
619.51	42948.83
619.67	43145.44
619.82	43388.85
619.97	42939.47
620.12	43012.02
620.28	42394.12
620.43	42696.05
620.58	43019.05
620.73	42841.17
620.89	42780.31
621.04	42937.13
621.19	42586.05
621.34	42562.64
621.49	42555.62
621.65	42433.91
621.80	42705.41
621.95	42333.27
622.10	42569.66
622.25	42389.44
622.41	42066.45
622.56	42450.30
622.71	42848.19
622.86	42459.66
623.01	42333.27
623.16	42541.58
623.32	42567.32
623.47	42724.14
623.62	42691.37
623.77	42190.50
623.92	42480.72
624.07	42272.42
624.23	42429.23
624.38	42328.59
624.53	41834.74
624.68	42508.81
624.83	41823.03
624.98	42553.28
625.13	42199.86
625.29	41944.74
625.44	41876.86
625.59	41446.21
625.74	41598.34
625.89	41233.22
626.04	41696.64
626.19	41933.04
626.34	42010.28
626.49	42195.18
626.65	41907.29
626.80	42136.66
626.95	41897.93
627.10	41656.85
627.25	41385.35
627.40	41654.51
627.55	41326.84
627.70	41219.17
627.85	41462.59
628.00	41511.74
628.15	41202.79
628.30	41092.79
628.45	41970.49
628.60	41642.81
628.76	41879.21
628.91	41645.15
629.06	41312.80
629.21	41008.53
629.36	41338.54
629.51	41024.91
629.66	41132.57
629.81	41102.15
629.96	41085.76
630.11	41083.42
630.26	41715.37
630.41	41411.10
630.56	41593.66
630.71	41256.62
630.86	41137.26
631.01	40809.58
631.16	41270.67
631.31	41104.49
631.46	40947.67
631.61	40692.55
631.76	41055.34
631.91	41060.02
632.06	40849.37
632.21	41062.36
632.36	40879.80
632.51	41034.27
632.66	41031.93
632.81	40025.50
632.96	40767.45
633.10	40809.58
633.25	40666.81
633.40	40767.45
633.55	40947.67
633.70	40692.55
633.85	40374.24
634.00	40484.25
634.15	40575.53
634.30	40395.31
634.45	40655.11
634.60	40362.54
634.75	40582.55
634.90	40315.73
635.05	40416.37
635.19	40472.54
635.34	40517.01
635.49	40404.67
635.64	40114.44
635.79	40095.72
635.94	40091.04
636.09	40044.23
636.24	40346.15
636.39	39573.78
636.53	39864.00
636.68	40044.23
636.83	40067.63
636.98	40273.60
637.13	39716.55
637.28	40116.78
637.43	40231.47
637.57	40065.29
637.72	39723.57
637.87	39711.87
638.02	39873.37
638.17	40158.91
638.32	39529.31
638.46	39613.57
638.61	39803.15
638.76	39700.17
638.91	40140.19
639.06	39419.30
639.20	39332.70
639.35	39777.40
639.50	39990.39
639.65	39859.32
639.80	39501.22
639.94	39737.62
640.09	39431.01
640.24	39496.54
640.39	39007.37
640.54	39220.36
640.68	39171.21
640.83	39122.05
640.98	39070.56
641.13	39108.01
641.27	39150.14
641.42	39379.51
641.57	39620.59
641.72	39112.69
641.86	38836.51
642.01	39168.87
642.16	39009.71
642.31	38761.61
642.45	39475.48
642.60	38618.84
642.75	39108.01
642.90	38799.06
643.04	38686.71
643.19	38593.09
643.34	38911.41
643.48	38625.86
643.63	38927.79
643.78	38983.96
643.93	38679.69
644.07	38354.36
644.22	38990.98
644.37	38520.54
644.51	38635.22
644.66	39007.37
644.81	38735.87
644.95	38429.26
645.10	38698.42
645.25	39049.50
645.39	38712.46
645.54	38738.21
645.69	38677.35
645.83	38354.36
645.98	38476.07
646.13	38979.28
646.27	38497.13
646.42	38249.03
646.57	38300.53
646.71	38373.08
646.86	38607.14
647.00	38422.23
647.15	38197.54
647.30	38237.33
647.44	38380.10
647.59	38190.52
647.74	37991.58
647.88	38354.36
648.03	38242.01
648.17	37986.89
648.32	38000.94
648.47	37785.61
648.61	37972.85
648.76	38239.67
648.90	37823.06
649.05	37954.13
649.20	37977.53
649.34	37972.85
649.49	37706.03
649.63	37801.99
649.78	37727.10
649.92	38031.36
650.07	38440.96
650.21	37415.80
650.36	38003.28
650.51	37486.02
650.65	37979.87
650.80	38167.12
650.94	37720.07
651.09	37790.29
651.23	37982.21
651.38	37441.55
651.52	37469.64
651.67	38185.84
651.81	37221.54
651.96	36856.42
652.10	37050.68
652.25	37067.06
652.39	37881.57
652.54	37441.55
652.68	37373.67
652.83	37610.07
652.97	37488.36
653.12	37544.53
653.26	37352.61
653.41	37504.74
653.55	36985.15
653.70	37022.59
653.84	37586.66
653.99	37291.76
654.13	36856.42
654.27	36985.15
654.42	36994.51
654.56	37043.66
654.71	37282.39
654.85	37158.34
655.00	36964.08
655.14	36666.83
655.29	36708.96
655.43	36601.30
655.57	36601.30
655.72	36472.57
655.86	36449.16
656.01	36407.03
656.15	36531.08
656.30	36364.90
656.44	36467.89
656.58	36491.29
656.73	36133.19
656.87	36278.30
657.01	36350.86
657.16	36807.26
657.30	36341.50
657.45	36226.81
657.59	36484.27
657.73	36233.83
657.88	36905.57
658.02	36554.49
658.16	36751.09
658.31	37015.57
658.45	36273.62
658.60	36383.63
658.74	36357.88
658.88	36311.07
659.03	36041.91
659.17	36285.33
659.31	36196.38
659.46	36121.49
659.60	36297.03
659.74	35805.52
659.89	35924.88
660.03	36147.23
660.17	36002.12
660.32	35974.03
660.46	35995.10
660.60	35744.66
660.74	35641.68
660.89	36060.63
661.03	35274.21
661.17	35089.31
661.32	34939.52
661.46	35339.75
661.60	35438.05
661.74	35611.25
661.89	35295.28
662.03	35447.41
662.17	35274.21
662.31	35061.22
662.46	35138.46
662.60	34789.72
662.74	35072.93
662.88	35276.55
663.03	35061.22
663.17	34735.89
663.31	34380.13
663.45	34747.59
663.60	34649.29
663.74	34415.24
663.88	34794.40
664.02	34902.07
664.17	35037.82
664.31	34286.51
664.45	34277.15
664.59	34658.65
664.73	33921.38
664.88	34312.25
665.02	34139.05
665.16	34373.11
665.30	34052.45
665.44	33956.49
665.59	34066.50
665.73	33984.58
665.87	33586.69
666.01	34265.44
666.15	34099.26
666.29	33874.57
666.44	33703.71
666.58	33689.67
666.72	33626.48
666.86	33493.07
667.00	33296.46
667.14	33713.08
667.28	32996.87
667.43	33097.52
667.57	33298.80
667.71	33425.19
667.85	33743.50
667.99	33046.02
668.13	33467.32
668.27	33109.22
668.41	33343.27
668.56	33191.14
668.70	33392.42
668.84	32793.25
668.98	32856.44
669.12	32460.89
669.26	32610.68
669.40	32364.93
669.54	32456.21
669.68	32685.58
669.82	32552.17
669.96	32184.71
670.10	32217.47
670.25	32254.92
670.39	32175.34
670.53	32123.85
670.67	31903.84
670.81	32350.88
670.95	32168.32
671.09	32037.25
671.23	32245.56
671.37	32219.81
671.51	31850.01
671.65	31583.19
671.79	31438.08
671.93	31732.98
672.07	32084.06
672.21	31489.57
672.35	31386.58
672.49	31459.14
672.63	31878.10
672.77	31096.36
672.91	31480.21
673.05	31105.72
673.19	31250.83
673.33	30527.61
673.47	31152.53
673.61	31040.18
673.75	30728.89
673.89	30157.80
674.03	30494.84
674.17	30604.84
674.31	30668.04
674.45	30497.18
674.59	30579.10
674.73	30913.80
674.87	30595.48
675.01	30462.07
675.15	30136.74
675.29	30190.57
675.43	30206.95
675.56	30450.37
675.70	30387.18
675.84	30082.91
675.98	29003.92
676.12	29996.31
676.26	29991.62
676.40	29567.99
676.54	29703.74
676.68	29502.45
676.82	29268.40
676.96	29504.79
677.10	29223.93
677.23	29181.80
677.37	28847.10
677.51	28666.88
677.65	28987.53
677.79	28720.71
677.93	28505.38
678.07	28442.19
678.21	28364.95
678.34	28191.75
678.48	28039.62
678.62	27917.91
678.76	27936.63
678.90	28013.87
679.04	27765.78
679.18	27751.73
679.31	26958.29
679.45	27878.12
679.59	27297.67
679.73	27513.00
679.87	27028.51
680.00	27248.52
680.14	27096.38
680.28	27250.86
680.42	27253.20
680.56	26621.25
680.70	26787.43
680.83	27447.46
680.97	27307.03
681.11	26665.72
681.25	26532.31
681.39	26497.20
681.52	26291.24
681.66	26352.09
681.80	26375.50
681.94	26202.30
682.07	26445.71
682.21	26302.94
682.35	25954.20
682.49	26085.27
682.62	26050.16
682.76	25846.54
682.90	25804.41
683.04	25703.76
683.17	25406.52
683.31	25322.26
683.45	25371.41
683.59	24987.56
683.72	25092.88
683.86	25008.62
684.00	24844.79
684.13	24987.56
684.27	24753.51
684.41	24589.67
684.55	24577.97
684.68	24659.88
684.82	24198.80
684.96	24531.15
685.09	24519.45
685.23	24166.03
685.37	24386.04
685.50	24252.63
685.64	24264.33
685.78	23939.00
685.91	23529.41
686.05	23793.89
686.19	23693.24
686.32	23590.26
686.46	22918.53
686.60	23042.57
686.73	23424.08
686.87	22857.67
687.01	22911.50
687.14	22904.48
687.28	22794.48
687.42	22937.25
687.55	22958.31
687.69	22572.13
687.82	22677.45
687.96	22579.15
688.10	22544.04
688.23	22544.04
688.37	22066.57
688.50	21914.44
688.64	21752.94
688.78	22183.60
688.91	22141.47
689.05	22199.98
689.18	22078.27
689.32	21495.48
689.46	21923.80
689.59	21930.82
689.73	21689.74
689.86	21664.00
690.00	21680.38
690.13	21240.36
690.27	21406.54
690.41	21205.25
690.54	20872.90
690.68	21167.80
690.81	20896.30
690.95	20779.28
691.08	21149.08
691.22	20802.68
691.35	20762.89
691.49	20900.98
691.62	20872.90
691.76	20079.46
691.89	20400.11
692.03	20243.29
692.16	20264.36
692.30	20156.69
692.43	19934.34
692.57	19632.41
692.70	19929.66
692.84	19580.92
692.97	19346.87
693.11	19777.53
693.24	19613.69
693.38	19278.99
693.51	19154.94
693.65	19506.02
693.78	19508.37
693.92	19183.03
694.05	18895.14
694.19	19211.12
694.32	18719.60
694.45	18927.91
694.59	18485.55
694.72	18637.69
694.86	18417.68
694.99	18745.35
695.13	18834.29
695.26	18473.85
695.39	18265.54
695.53	18637.69
695.66	18267.88
695.80	17977.65
695.93	18167.24
696.07	18071.28
696.20	17989.36
696.33	18263.20
696.47	17591.47
696.60	17717.86
696.73	17680.41
696.87	17523.59
697.00	17453.37
697.14	17563.38
697.27	17453.37
697.40	17493.16
697.54	17097.61
697.67	16931.44
697.80	16987.61
697.94	16823.77
698.07	16702.06
698.21	17003.99
698.34	16877.60
698.47	16589.72
698.61	16372.05
698.74	16238.64
698.87	15995.22
699.01	15976.50
699.14	16046.71
699.27	16086.50
699.40	15953.09
699.54	16112.25
699.67	16027.99
699.80	15915.64
699.94	15927.35
700.07	15950.75
700.20	15749.46
700.34	15543.50
700.47	15496.69
700.60	15637.12
700.73	15618.39
700.87	15543.50
701.00	15599.67
701.13	15070.71
701.26	15227.53
701.40	14981.77
701.53	14965.39
701.66	15105.82
701.79	14874.10
701.93	15012.20
702.06	14736.01
702.19	14904.53
702.32	14593.24
702.46	14668.14
702.59	14438.76
702.72	14417.70
702.85	14513.66
702.99	14473.87
703.12	14396.64
703.25	14052.58
703.38	13919.17
703.51	13977.68
703.65	14160.24
703.78	14064.28
703.91	14092.37
704.04	13965.98
704.17	13685.11
704.31	13888.74
704.44	13685.11
704.57	13734.26
704.70	13572.77
704.83	13767.03
704.96	13380.84
705.10	13205.30
705.23	13441.70
>>>>>End Processed Spectral Data<<<<<
