SpectraSuite Data File
++++++++++++++++++++++++++++++++++++
Date: Fri Oct 25 10:44:10 EDT 2013
User: price-jones
Dark Spectrum Present: No
Reference Spectrum Present: No
Number of Sampled Component Spectra: 1
Spectrometers: USB2+H05261
Integration Time (usec): 100000 (USB2+H05261)
Spectra Averaged: 1 (USB2+H05261)
Boxcar Smoothing: 0 (USB2+H05261)
Correct for Electrical Dark: No (USB2+H05261)
Strobe/Lamp Enabled: No (USB2+H05261)
Correct for Detector Non-linearity: No (USB2+H05261)
Correct for Stray Light: No (USB2+H05261)
Number of Pixels in Processed Spectrum: 2048
>>>>>Begin Processed Spectral Data<<<<<
365.73	145.11
365.92	145.11
366.12	145.11
366.32	28.09
366.52	14.04
366.72	91.28
366.91	46.81
367.11	51.49
367.31	28.09
367.51	86.60
367.70	30.43
367.90	60.85
368.10	0.00
368.30	35.11
368.49	2.34
368.69	74.90
368.89	30.43
369.09	44.47
369.28	67.88
369.48	56.17
369.68	79.58
369.87	28.09
370.07	91.28
370.27	112.35
370.47	173.20
370.66	348.74
370.86	477.47
371.06	442.36
371.25	491.51
371.45	433.00
371.65	578.11
371.84	491.51
372.04	435.34
372.24	458.74
372.44	519.60
372.63	477.47
372.83	449.38
373.03	463.43
373.22	491.51
373.42	514.92
373.62	552.37
373.81	470.45
374.01	507.90
374.21	573.43
374.40	531.30
374.60	660.03
374.79	559.39
374.99	580.45
375.19	620.24
375.38	561.73
375.58	692.80
375.78	561.73
375.97	631.94
376.17	603.86
376.37	564.07
376.56	629.60
376.76	589.82
376.95	592.16
377.15	690.46
377.35	695.14
377.54	613.22
377.74	564.07
377.93	596.84
378.13	657.69
378.33	720.88
378.52	627.26
378.72	727.91
378.91	706.84
379.11	641.31
379.31	596.84
379.50	559.39
379.70	732.59
379.89	746.63
380.09	634.29
380.28	678.76
380.48	704.50
380.68	699.82
380.87	702.16
381.07	655.35
381.26	727.91
381.46	713.86
381.65	688.12
381.85	655.35
382.04	716.20
382.24	688.12
382.43	655.35
382.63	641.31
382.83	753.65
383.02	793.44
383.22	798.12
383.41	741.95
383.61	779.40
383.80	809.83
384.00	772.38
384.19	765.36
384.39	730.25
384.58	748.97
384.78	760.67
384.97	830.89
385.17	814.51
385.36	816.85
385.56	840.25
385.75	755.99
385.95	917.49
386.14	903.45
386.34	816.85
386.53	880.04
386.72	809.83
386.92	840.25
387.11	798.12
387.31	823.87
387.50	915.15
387.70	833.23
387.89	889.40
388.09	873.02
388.28	884.72
388.48	891.74
388.67	894.08
388.86	887.06
389.06	964.30
389.25	994.73
389.45	978.34
389.64	971.32
389.84	1062.60
390.03	999.41
390.22	1036.86
390.42	997.07
390.61	891.74
390.81	947.92
391.00	997.07
391.19	1060.26
391.39	1130.48
391.58	1029.84
391.78	1064.94
391.97	1025.15
392.16	1020.47
392.36	1048.56
392.55	1001.75
392.75	1015.79
392.94	1025.15
393.13	1008.77
393.33	1001.75
393.52	1011.11
393.71	978.34
393.91	1125.80
394.10	1111.75
394.29	1146.86
394.49	1137.50
394.68	1193.67
394.88	1282.61
395.07	1219.42
395.26	1238.14
395.46	1184.31
395.65	1177.29
395.84	1203.04
396.04	1221.76
396.23	1254.53
396.42	1177.29
396.62	1153.88
396.81	1198.35
397.00	1156.22
397.19	1268.57
397.39	1299.00
397.58	1383.26
397.77	1291.98
397.97	1392.62
398.16	1511.99
398.35	1446.45
398.55	1521.35
398.74	1467.52
398.93	1556.46
399.12	1476.88
399.32	1521.35
399.51	1446.45
399.70	1551.78
399.90	1565.82
400.09	1612.63
400.28	1579.86
400.47	1617.31
400.67	1603.27
400.86	1549.43
401.05	1572.84
401.24	1586.88
401.44	1687.53
401.63	1675.82
401.82	1640.72
402.01	1713.27
402.21	1694.55
402.40	1661.78
402.59	1781.15
402.78	1802.21
402.97	1764.76
403.17	1832.64
403.36	1909.88
403.55	1799.87
403.74	1792.85
403.93	1881.79
404.13	1879.45
404.32	1942.64
404.51	1785.83
404.70	1930.94
404.89	1851.36
405.09	2003.50
405.28	1970.73
405.47	1830.30
405.66	1954.35
405.85	1891.15
406.05	1998.82
406.24	2045.63
406.43	1998.82
406.62	2085.42
406.81	2113.50
407.00	1991.80
407.20	1994.14
407.39	2146.27
407.58	2003.50
407.77	2167.34
407.96	2186.06
408.15	2139.25
408.34	2141.59
408.54	2256.28
408.73	2335.85
408.92	2221.17
409.11	2251.60
409.30	2326.49
409.49	2347.56
409.68	2246.91
409.87	2232.87
410.07	2193.08
410.26	2462.24
410.45	2431.82
410.64	2466.92
410.83	2499.69
411.02	2361.60
411.21	2499.69
411.40	2537.14
411.59	2623.74
411.78	2588.63
411.98	2642.46
412.17	2658.85
412.36	2633.10
412.55	2729.06
412.74	2715.02
412.93	2700.98
413.12	2764.17
413.31	2867.16
413.50	2920.99
413.69	2815.66
413.88	2916.31
414.07	2885.88
414.26	2897.58
414.45	2991.20
414.64	2967.80
414.83	3047.38
415.02	3091.85
415.22	3077.80
415.41	3131.64
415.60	3150.36
415.79	3047.38
415.98	3201.85
416.17	3258.03
416.36	3180.79
416.55	3152.70
416.74	3372.71
416.93	3361.01
417.12	3372.71
417.31	3295.47
417.50	3290.79
417.69	3379.73
417.88	3480.38
418.07	3414.84
418.26	3382.07
418.45	3463.99
418.64	3492.08
418.83	3538.89
419.02	3592.72
419.21	3644.21
419.39	3667.62
419.58	3700.39
419.77	3421.86
419.96	3639.53
420.15	3646.55
420.34	3618.47
420.53	3847.84
420.72	3744.86
420.91	3824.44
421.10	3737.84
421.29	3836.14
421.48	3658.26
421.67	3908.69
421.86	3840.82
422.05	3728.47
422.24	3859.54
422.43	3861.88
422.61	3812.73
422.80	3777.62
422.99	3875.93
423.18	3847.84
423.37	3943.80
423.56	3953.16
423.75	3953.16
423.94	3904.01
424.13	3674.64
424.32	3765.92
424.50	3892.31
424.69	4028.06
424.88	4053.81
425.07	3887.63
425.26	3990.61
425.45	3763.58
425.64	4011.68
425.83	3878.27
426.01	4093.60
426.20	4030.40
426.39	4016.36
426.58	4074.87
426.77	3873.59
426.96	3964.87
427.15	3999.98
427.33	4023.38
427.52	3971.89
427.71	4018.70
427.90	4098.28
428.09	4086.58
428.28	4112.32
428.46	4154.45
428.65	4086.58
428.84	4329.99
429.03	4339.35
429.22	4067.85
429.40	4147.43
429.59	4236.37
429.78	3868.91
429.97	3847.84
430.16	4063.17
430.34	4131.05
430.53	4194.24
430.72	4231.69
430.91	4231.69
431.10	4360.42
431.28	4484.47
431.47	4671.71
431.66	4678.73
431.85	4402.55
432.03	4582.77
432.22	4711.50
432.41	4634.26
432.60	4648.30
432.79	4648.30
432.97	4641.28
433.16	4620.22
433.35	4667.03
433.54	4777.03
433.72	4643.62
433.91	4692.77
434.10	4660.01
434.28	4786.40
434.47	4716.18
434.66	4802.78
434.85	4861.29
435.03	4994.70
435.22	5006.41
435.41	5078.96
435.59	4999.38
435.78	5149.18
435.97	5118.75
436.16	5121.09
436.34	5104.71
436.53	5029.81
436.72	5172.58
436.90	5067.26
437.09	5020.45
437.28	4952.57
437.46	5158.54
437.65	5064.92
437.84	5160.88
438.02	5069.60
438.21	5114.07
438.40	5090.67
438.58	5343.44
438.77	5359.83
438.96	5380.89
439.14	5614.95
439.33	5572.82
439.52	5561.11
439.70	5460.47
439.89	5666.44
440.08	5607.92
440.26	5650.05
440.45	5774.10
440.63	5907.51
440.82	5902.83
441.01	5973.05
441.19	5884.11
441.38	5970.71
441.57	6083.05
441.75	6125.18
441.94	6246.89
442.12	6265.61
442.31	6335.83
442.50	6300.72
442.68	6277.32
442.87	6382.64
443.05	6118.16
443.24	6373.28
443.43	6328.81
443.61	6424.77
443.80	6506.69
443.98	6267.95
444.17	6335.83
444.35	6541.80
444.54	6494.99
444.73	6518.39
444.91	6476.26
445.10	6441.15
445.28	6368.60
445.47	6223.48
445.65	6272.64
445.84	6572.22
446.02	6707.98
446.21	6408.39
446.39	6413.07
446.58	6490.31
446.77	6677.55
446.95	6520.73
447.14	6719.68
447.32	6715.00
447.51	6473.92
447.69	6565.20
447.88	6572.22
448.06	6656.48
448.25	6483.28
448.43	6633.08
448.62	6544.14
448.80	6754.79
448.99	6736.06
449.17	6764.15
449.36	6640.10
449.54	7075.44
449.73	6925.65
449.91	7143.32
450.10	6995.86
450.28	6967.77
450.46	7049.69
450.65	7068.42
450.83	7236.94
451.02	7166.72
451.20	7173.74
451.39	7173.74
451.57	7246.30
451.76	7073.10
451.94	7323.54
452.13	7166.72
452.31	7171.40
452.49	6995.86
452.68	7187.79
452.86	6988.84
453.05	7171.40
453.23	7360.98
453.42	7288.43
453.60	7250.98
453.78	7325.88
453.97	7410.14
454.15	7194.81
454.34	7208.85
454.52	7613.76
454.70	7269.70
454.89	7674.62
455.07	7669.94
455.26	7637.17
455.44	7843.14
455.62	7669.94
455.81	7637.17
455.99	7803.35
456.17	7735.47
456.36	7826.75
456.54	7688.66
456.73	7985.91
456.91	8037.40
457.09	8086.55
457.28	8294.86
457.46	8028.04
457.64	8189.53
457.83	8194.22
458.01	8023.36
458.19	8163.79
458.38	8063.15
458.56	8285.50
458.74	8262.09
458.93	8084.21
459.11	8229.32
459.29	8294.86
459.48	8395.50
459.66	8077.19
459.84	8318.26
460.03	8287.84
460.21	8486.78
460.39	8610.83
460.57	8568.70
460.76	8395.50
460.94	8758.28
461.12	8636.58
461.31	8629.56
461.49	8510.19
461.67	8432.95
461.85	8898.72
462.04	8788.71
462.22	8896.38
462.40	9048.51
462.59	8816.80
462.77	8910.42
462.95	8915.10
463.13	8961.91
463.32	9039.15
463.50	8798.07
463.68	9015.74
463.86	8936.17
464.05	8716.16
464.23	8926.80
464.41	8997.02
464.59	8805.10
464.78	9256.82
464.96	9001.70
465.14	8945.53
465.32	9060.21
465.50	9184.26
465.69	9287.25
465.87	9090.64
466.05	9397.25
466.23	9163.20
466.41	9195.96
466.60	9341.08
466.78	9018.08
466.96	9296.61
467.14	9221.71
467.32	9355.12
467.51	9554.07
467.69	9034.47
467.87	9308.31
468.05	9432.36
468.23	9444.06
468.41	9439.38
468.60	9493.21
468.78	9415.98
468.96	9495.55
469.14	9600.88
469.32	9626.62
469.50	9507.26
469.69	9706.20
469.87	9682.80
470.05	9830.25
470.23	9490.87
470.41	9785.78
470.59	9802.16
470.77	9745.99
470.95	9998.77
471.14	10153.24
471.32	9970.68
471.50	9996.43
471.68	10459.85
471.86	10464.54
472.04	10157.92
472.22	10611.99
472.40	10026.86
472.58	10389.64
472.77	10375.59
472.95	10595.61
473.13	10693.91
473.31	10303.04
473.49	10597.95
473.67	10441.13
473.85	10665.82
474.03	10902.22
474.21	10874.13
474.39	10956.05
474.57	11115.20
474.75	11274.36
474.93	11274.36
475.12	11262.66
475.30	11382.03
475.48	11147.97
475.66	11147.97
475.84	11400.75
476.02	11307.13
476.20	11297.77
476.38	11578.63
476.56	12119.29
476.74	11639.48
476.92	11742.47
477.10	11999.93
477.28	12123.98
477.46	12011.63
477.64	12131.00
477.82	12425.90
478.00	12376.75
478.18	12315.90
478.36	12491.44
478.54	12695.07
478.72	12650.60
478.90	12613.15
479.08	12959.55
479.26	13032.10
479.44	13233.39
479.62	13226.37
479.80	13228.71
479.98	13261.48
480.16	13781.07
480.34	13476.80
480.52	13734.26
480.70	13661.71
480.88	13743.63
481.06	13914.48
481.24	14160.24
481.41	14139.18
481.59	14347.48
481.77	14218.75
481.95	14558.13
482.13	14429.40
482.31	14221.10
482.49	14829.63
482.67	15232.21
482.85	15059.01
483.03	14888.15
483.21	15119.86
483.39	15246.25
483.57	15187.74
483.74	15272.00
483.92	15431.15
484.10	15197.10
484.28	15793.94
484.46	15971.82
484.64	16224.59
484.82	16098.20
485.00	16002.24
485.18	16407.16
485.35	16250.34
485.53	16154.38
485.71	16159.06
485.89	16039.69
486.07	16336.94
486.25	16580.36
486.43	17198.26
486.61	17048.46
486.78	17275.49
486.96	17097.61
487.14	17685.09
487.32	17752.96
487.50	17811.48
487.68	17802.11
487.85	17984.68
488.03	18595.56
488.21	18188.30
488.39	18387.25
488.57	18953.66
488.75	18899.83
488.92	18958.34
489.10	19271.97
489.28	19503.68
489.46	19756.46
489.64	19283.67
489.81	19990.52
489.99	19611.35
490.17	20217.55
490.35	20292.44
490.53	20273.72
490.70	20472.67
490.88	20425.86
491.06	20542.88
491.24	20688.00
491.41	20828.43
491.59	20835.45
491.77	20964.18
491.95	21156.10
492.13	20952.48
492.30	21614.85
492.48	21350.37
492.66	21804.43
492.84	21481.44
493.01	22099.34
493.19	21942.52
493.37	22155.51
493.54	22506.59
493.72	22518.29
493.90	22773.41
494.08	22778.09
494.25	22981.72
494.43	22977.04
494.61	23037.89
494.79	23456.85
494.96	23424.08
495.14	23435.78
495.32	23489.62
495.49	23740.05
495.67	23838.36
495.85	23604.30
496.02	24180.07
496.20	24144.97
496.38	24187.10
496.55	24891.60
496.73	25282.47
496.91	24687.97
497.09	24882.24
497.26	24912.66
497.44	25034.37
497.62	25050.75
497.79	25439.28
497.97	25076.50
498.14	25310.55
498.32	25685.04
498.50	25584.40
498.67	25956.54
498.85	26073.57
499.03	26103.99
499.20	25928.45
499.38	26132.08
499.56	26520.61
499.73	26094.63
499.91	26403.58
500.08	26845.94
500.26	26529.97
500.44	26621.25
500.61	26445.71
500.79	26836.58
500.97	26689.13
501.14	27021.48
501.32	27178.30
501.49	26876.37
501.67	27138.51
501.84	27445.12
502.02	27520.02
502.20	27690.88
502.37	28025.57
502.55	27821.95
502.72	27662.79
502.90	27887.48
503.07	28229.20
503.25	27899.19
503.43	28166.01
503.60	28243.24
503.78	28013.87
503.95	28009.19
504.13	28313.46
504.30	28477.30
504.48	28655.18
504.65	29340.96
504.83	28437.51
505.01	28847.10
505.18	28978.17
505.36	29310.53
505.53	29411.17
505.71	29715.44
505.88	29776.30
506.06	29001.58
506.23	29989.28
506.41	29582.03
506.58	29273.08
506.76	29832.47
506.93	30323.98
507.11	29755.23
507.28	29851.19
507.46	29795.02
507.63	30181.21
507.81	30389.52
507.98	30260.79
508.16	30258.45
508.33	30646.97
508.50	30719.53
508.68	30742.94
508.85	30944.22
509.03	30632.93
509.20	30719.53
509.38	30649.32
509.55	31014.44
509.73	31267.22
509.90	31445.10
510.08	31487.23
510.25	31098.70
510.42	31402.97
510.60	31449.78
510.77	31690.85
510.95	32114.49
511.12	31892.14
511.30	32325.14
511.47	32542.81
511.64	32334.50
511.82	32306.41
511.99	32254.92
512.17	32318.12
512.34	32355.57
512.51	32243.22
512.69	32835.38
512.86	32481.95
513.04	32858.78
513.21	32753.46
513.38	32404.72
513.56	32737.07
513.73	32730.05
513.90	32978.15
514.08	33043.68
514.25	33364.34
514.43	33390.08
514.60	33371.36
514.77	33364.34
514.95	33888.62
515.12	33223.90
515.29	33390.08
515.47	34026.71
515.64	33944.79
515.81	33757.55
515.99	33675.63
516.16	33558.60
516.33	33668.61
516.51	33596.05
516.68	33209.86
516.85	33277.74
517.03	33495.41
517.20	34178.84
517.37	34267.78
517.54	34382.47
517.72	34267.78
517.89	34045.43
518.06	33799.68
518.24	34335.66
518.41	34146.08
518.58	34316.93
518.75	34309.91
518.93	34876.32
519.10	35086.97
519.27	35044.84
519.45	34836.53
519.62	35248.47
519.79	34965.26
519.96	35037.82
520.14	35559.76
520.31	35250.81
520.48	35519.97
520.65	35484.86
520.83	35756.36
521.00	35349.11
521.17	35871.05
521.34	35728.28
521.52	35908.50
521.69	36507.68
521.86	35924.88
522.03	36318.09
522.20	36484.27
522.38	36093.40
522.55	36573.21
522.72	36079.36
522.89	36077.02
523.07	36149.57
523.24	36526.40
523.41	36783.86
523.58	36687.90
523.75	37345.59
523.92	37448.57
524.10	37158.34
524.27	37202.82
524.44	37258.99
524.61	37371.33
524.78	37450.91
524.96	37659.22
525.13	37677.94
525.30	37612.41
525.47	37867.53
525.64	37366.65
525.81	37790.29
525.98	37340.91
526.16	37649.86
526.33	37280.05
526.50	37514.11
526.67	36971.10
526.84	37170.05
527.01	37397.08
527.18	38054.77
527.36	38267.76
527.53	38270.10
527.70	38733.53
527.87	38506.49
528.04	38333.29
528.21	38363.72
528.38	38579.05
528.55	38405.85
528.72	39126.74
528.89	38768.63
529.07	38836.51
529.24	38745.23
529.41	38831.83
529.58	38857.57
529.75	38630.54
529.92	38937.15
530.09	39061.20
530.26	38848.21
530.43	39599.52
530.60	39218.02
530.77	39370.15
530.94	39241.42
531.11	39576.12
531.28	39431.01
531.46	39435.69
531.63	39349.09
531.80	39744.64
531.97	39746.98
532.14	39063.54
532.31	39206.31
532.48	39297.59
532.65	39651.02
532.82	39543.35
532.99	39779.74
533.16	39997.41
533.33	39777.40
533.50	39763.36
533.67	40114.44
533.84	39929.54
534.01	39744.64
534.18	39995.07
534.35	40325.09
534.52	40156.57
534.69	40430.41
534.86	40201.04
535.03	40254.87
535.20	40825.96
535.37	40917.25
535.54	40884.48
535.71	40149.55
535.88	40788.52
536.05	40704.26
536.22	40816.60
536.38	40620.00
536.55	40657.45
536.72	40449.14
536.89	40734.68
537.06	41020.23
537.23	40793.20
537.40	40840.01
537.57	41172.36
537.74	41518.76
537.91	41289.39
538.08	41106.83
538.25	41036.61
538.42	41160.66
538.59	41317.48
538.75	40760.43
538.92	41457.91
539.09	41593.66
539.26	41483.66
539.43	41858.14
539.60	41263.64
539.77	41436.84
539.94	41586.64
540.11	41273.01
540.28	41476.63
540.44	41383.01
540.61	41968.15
540.78	41427.48
540.95	41406.42
541.12	41876.86
541.29	41488.34
541.46	42029.00
541.62	41975.17
541.79	42066.45
541.96	41666.22
542.13	42043.04
542.30	41687.28
542.47	42162.41
542.63	42043.04
542.80	42103.90
542.97	43075.22
543.14	42637.54
543.31	42607.11
543.48	42623.50
543.64	43267.14
543.81	42995.64
543.98	42808.40
544.15	42653.92
544.32	42794.36
544.48	43288.21
544.65	42787.33
544.82	42909.04
544.99	42773.29
545.16	42953.51
545.32	42869.25
545.49	43510.56
545.66	43171.18
545.83	43526.94
546.00	43065.86
546.16	43257.78
546.33	42653.92
546.50	42834.14
546.67	43339.70
546.83	43023.73
547.00	42890.32
547.17	43274.16
547.34	43021.39
547.50	43150.12
547.67	43487.15
547.84	43622.90
548.00	43973.98
548.17	43826.53
548.34	43639.29
548.51	43929.51
548.67	43997.39
548.84	43826.53
549.01	43662.69
549.18	43821.85
549.34	43714.19
549.51	43985.69
549.68	43569.07
549.84	44318.04
550.01	43964.62
550.18	43892.07
550.34	44004.41
550.51	44032.50
550.68	44095.69
550.84	43515.24
551.01	44093.35
551.18	44343.79
551.34	44128.46
551.51	44500.61
551.68	44619.97
551.84	44500.61
552.01	44285.28
552.18	44102.71
552.34	44179.95
552.51	44425.71
552.68	44414.01
552.84	44257.19
553.01	44463.16
553.18	44334.43
553.34	44542.74
553.51	44219.74
553.67	44587.21
553.84	44989.78
554.01	44570.82
554.17	44364.85
554.34	44856.37
554.51	44863.39
554.67	45055.31
554.84	44872.75
555.00	44432.73
555.17	44404.64
555.33	44720.62
555.50	44580.18
555.67	44304.00
555.83	44631.68
556.00	44870.41
556.16	45045.95
556.33	44835.30
556.50	45172.34
556.66	45076.38
556.83	44793.17
556.99	44928.92
557.16	45469.59
557.32	45284.68
557.49	45380.65
557.65	44737.00
557.82	44725.30
557.98	45411.07
558.15	45064.67
558.32	45287.03
558.48	44767.43
558.65	44971.05
558.81	44971.05
558.98	44964.03
559.14	45244.90
559.31	45251.92
559.47	45375.97
559.64	45132.55
559.80	45434.48
559.97	45291.71
560.13	45710.66
560.30	45200.43
560.46	45467.25
560.63	45450.86
560.79	45909.61
560.96	45900.25
561.12	45645.13
561.29	45048.29
561.45	45249.58
561.61	45549.17
561.78	45703.64
561.94	45118.51
562.11	45296.39
562.27	45610.02
562.44	45635.77
562.60	45600.66
562.77	45556.19
562.93	45904.93
563.10	45759.81
563.26	45263.62
563.42	45415.76
563.59	44968.71
563.75	45422.78
563.92	45483.63
564.08	45539.80
564.24	46138.98
564.41	46117.92
564.57	45612.36
564.74	45904.93
564.90	46005.57
565.07	45872.16
565.23	45993.87
565.39	45579.59
565.56	45656.83
565.72	45633.42
565.88	45481.29
566.05	45654.49
566.21	45811.31
566.38	45989.19
566.54	45724.71
566.70	46167.07
566.87	46068.76
567.03	45663.85
567.19	46483.04
567.36	46061.74
567.52	45624.06
567.68	45876.84
567.85	46045.36
568.01	46085.15
568.17	45624.06
568.34	45947.06
568.50	45750.45
568.66	45869.82
568.83	45961.10
568.99	45715.34
569.15	45633.42
569.32	45947.06
569.48	45373.63
569.64	46312.18
569.81	45778.54
569.97	45551.51
570.13	46211.54
570.30	45691.94
570.46	45890.88
570.62	45848.75
570.78	45734.07
570.95	45603.00
571.11	45975.14
571.27	45722.37
571.43	45776.20
571.60	45319.79
571.76	45998.55
571.92	46038.34
572.09	45839.39
572.25	46202.18
572.41	46321.54
572.57	46129.62
572.74	46454.95
572.90	46291.12
573.06	45930.67
573.22	46148.34
573.38	45900.25
573.55	45830.03
573.71	46401.12
573.87	45949.40
574.03	45677.90
574.20	46085.15
574.36	46153.02
574.52	45879.18
574.68	45977.48
574.84	46061.74
575.01	46057.06
575.17	45787.90
575.33	45659.17
575.49	45806.62
575.65	46155.36
575.82	45911.95
575.98	46412.82
576.14	46326.22
576.30	46115.58
576.46	46302.82
576.62	45827.69
576.79	45893.22
576.95	45752.79
577.11	46248.99
577.27	45860.46
577.43	46284.09
577.59	45904.93
577.75	46085.15
577.92	45556.19
578.08	45572.57
578.24	45492.99
578.40	46036.00
578.56	46026.63
578.72	46321.54
578.88	46361.33
579.04	46279.41
579.21	45869.82
579.37	46054.72
579.53	45970.46
579.69	46127.28
579.85	46026.63
580.01	46387.08
580.17	45951.74
580.33	46515.81
580.49	46436.23
580.65	46412.82
580.82	45951.74
580.98	45895.56
581.14	46134.30
581.30	46660.92
581.46	46506.44
581.62	46508.79
581.78	46368.35
581.94	46265.37
582.10	46410.48
582.26	46417.50
582.42	46256.01
582.58	46471.34
582.74	46075.79
582.90	46213.88
583.06	46197.49
583.22	46469.00
583.38	46375.37
583.54	46415.16
583.70	46216.22
583.86	46508.79
584.02	46277.07
584.18	46335.59
584.34	46000.89
584.50	46176.43
584.66	45820.67
584.82	45963.44
584.98	46480.70
585.14	46422.19
585.30	46237.28
585.46	46171.75
585.62	45975.14
585.78	46230.26
585.94	46050.04
586.10	46141.32
586.26	45750.45
586.42	46586.02
586.58	46644.54
586.74	46153.02
586.90	45867.48
587.06	46131.96
587.22	46403.46
587.38	45846.41
587.54	46209.20
587.70	46190.47
587.86	46398.78
588.02	46415.16
588.18	46628.15
588.34	46068.76
588.49	45752.79
588.65	45490.65
588.81	45858.12
588.97	45792.58
589.13	45610.02
589.29	46251.33
589.45	46696.03
589.61	46244.30
589.77	46756.88
589.93	46469.00
590.08	46841.14
590.24	46337.93
590.40	46693.69
590.56	46923.06
590.72	46618.79
590.88	46288.77
591.04	46564.96
591.20	46806.03
591.35	46838.80
591.51	46829.44
591.67	46417.50
591.83	46408.14
591.99	45993.87
592.15	46660.92
592.31	46927.74
592.46	46153.02
592.62	46677.30
592.78	46239.62
592.94	46597.73
593.10	46581.34
593.26	46890.29
593.41	46478.36
593.57	45848.75
593.73	45888.54
593.89	46630.49
594.05	46209.20
594.20	46567.30
594.36	46471.34
594.52	46536.87
594.68	46373.03
594.84	46377.72
594.99	46681.98
595.15	46356.65
595.31	46485.38
595.47	46405.80
595.62	46665.60
595.78	46312.18
595.94	46497.08
596.10	46473.68
596.25	46506.44
596.41	46562.62
596.57	46611.77
596.73	46487.72
596.88	46761.56
597.04	46328.56
597.20	46976.89
597.36	46618.79
597.51	46834.12
597.67	46199.83
597.83	46756.88
597.99	46616.45
598.14	46050.04
598.30	46356.65
598.46	45979.82
598.61	46291.12
598.77	46234.94
598.93	45986.85
599.09	46426.87
599.24	46857.52
599.40	46824.76
599.56	46492.40
599.71	46628.15
599.87	46775.61
600.03	46153.02
600.18	46536.87
600.34	46525.17
600.50	46417.50
600.65	46646.88
600.81	46419.84
600.97	46618.79
601.12	46483.04
601.28	47033.07
601.44	46136.64
601.59	46408.14
601.75	46483.04
601.91	46597.73
602.06	46188.13
602.22	46508.79
602.37	46120.26
602.53	46555.60
602.69	46686.67
602.84	46274.73
603.00	46630.49
603.16	46160.05
603.31	46501.76
603.47	46410.48
603.62	46490.06
603.78	46344.95
603.94	46677.30
604.09	46653.90
604.25	46780.29
604.40	46398.78
604.56	46328.56
604.71	46766.24
604.87	46164.73
605.03	46354.31
605.18	46445.59
605.34	46115.58
605.49	46096.85
605.65	46469.00
605.80	46403.46
605.96	46525.17
606.12	46171.75
606.27	46410.48
606.43	46291.12
606.58	46799.01
606.74	46562.62
606.89	46230.26
607.05	46494.74
607.20	46164.73
607.36	46836.46
607.51	46665.60
607.67	45879.18
607.82	45972.80
607.98	46129.62
608.13	45710.66
608.29	45750.45
608.44	45804.28
608.60	45427.46
608.75	46094.51
608.91	45965.78
609.06	46026.63
609.22	46050.04
609.37	45481.29
609.53	46340.27
609.68	45673.21
609.84	45773.86
609.99	46082.81
610.15	45558.53
610.30	45614.70
610.46	45102.12
610.61	45698.96
610.76	46106.21
610.92	45511.72
611.07	46117.92
611.23	45705.98
611.38	45570.23
611.54	46014.93
611.69	45600.66
611.84	45359.58
612.00	45518.74
612.15	45434.48
612.31	45769.18
612.46	45521.08
612.62	45125.53
612.77	45469.59
612.92	45741.09
613.08	45387.67
613.23	45497.67
613.39	45385.33
613.54	45289.37
613.69	45453.20
613.85	45296.39
614.00	45319.79
614.15	45729.39
614.31	45617.04
614.46	45418.10
614.62	45579.59
614.77	45102.12
614.92	45258.94
615.08	44804.88
615.23	44947.65
615.38	45193.40
615.54	44896.16
615.69	45102.12
615.84	45034.25
616.00	45256.60
616.15	45317.45
616.30	45155.96
616.46	44987.44
616.61	44882.11
616.76	44879.77
616.92	44594.23
617.07	44631.68
617.22	44472.52
617.37	44430.39
617.53	44804.88
617.68	45263.62
617.83	44800.19
617.99	45219.15
618.14	44942.97
618.29	44931.26
618.45	44348.47
618.60	44491.24
618.75	44521.67
618.90	44594.23
619.06	44924.24
619.21	45090.42
619.36	44701.89
619.51	44479.54
619.67	44587.21
619.82	44446.77
619.97	44610.61
620.12	44123.78
620.28	43948.24
620.43	44662.10
620.58	44339.11
620.73	44280.60
620.89	44189.31
621.04	44343.79
621.19	44271.23
621.34	44093.35
621.49	44053.56
621.65	43920.15
621.80	44271.23
621.95	43812.49
622.10	44046.54
622.25	43704.82
622.41	43798.44
622.56	43803.13
622.71	44266.55
622.86	43702.48
623.01	44004.41
623.16	43714.19
623.32	44020.80
623.47	44100.37
623.62	43966.96
623.77	44030.16
623.92	43412.26
624.07	43632.27
624.23	43880.36
624.38	43482.47
624.53	44020.80
624.68	43225.01
624.83	43662.69
624.98	43468.43
625.13	43161.82
625.29	43606.52
625.44	43342.04
625.59	43243.74
625.74	42976.92
625.89	42883.30
626.04	43257.78
626.19	43590.14
626.34	43367.79
626.49	43021.39
626.65	43248.42
626.80	43412.26
626.95	43311.61
627.10	42960.53
627.25	43187.56
627.40	42766.27
627.55	42223.26
627.70	42539.24
627.85	42777.97
628.00	42560.30
628.15	43388.85
628.30	42553.28
628.45	42927.77
628.60	43140.75
628.76	42646.90
628.91	42979.26
629.06	43037.77
629.21	42452.64
629.36	42623.50
629.51	42515.83
629.66	42546.26
629.81	42412.85
629.96	42576.69
630.11	42635.20
630.26	42169.43
630.41	42876.27
630.56	42494.77
630.71	42366.04
630.86	42553.28
631.01	42052.41
631.16	42438.59
631.31	41724.73
631.46	41757.50
631.61	42326.25
631.76	42129.64
631.91	42384.76
632.06	42909.04
632.21	42061.77
632.36	42178.79
632.51	42127.30
632.66	42321.57
632.81	41537.49
632.96	41876.86
633.10	42029.00
633.25	42094.53
633.40	42220.92
633.55	42492.43
633.70	41680.26
633.85	41998.57
634.00	42092.19
634.15	41823.03
634.30	41734.09
634.45	41713.03
634.60	41631.11
634.75	41741.11
634.90	42092.19
635.05	41837.08
635.19	41331.52
635.34	42127.30
635.49	41478.97
635.64	41745.80
635.79	41649.83
635.94	41565.57
636.09	41350.24
636.24	41715.37
636.39	41125.55
636.53	41516.42
636.68	41179.39
636.83	41553.87
636.98	41785.58
637.13	41273.01
637.28	41441.53
637.43	41411.10
637.57	41296.41
637.72	41338.54
637.87	40907.88
638.02	41270.67
638.17	41268.33
638.32	40999.16
638.46	40987.46
638.61	40889.16
638.76	40570.85
638.91	40807.24
639.06	41251.94
639.20	40928.95
639.35	41233.22
639.50	41235.56
639.65	41155.98
639.80	41113.85
639.94	40699.58
640.09	40882.14
640.24	40648.08
640.39	40559.14
640.54	40580.21
640.68	40886.82
640.83	41010.87
640.98	40477.22
641.13	40493.61
641.27	40741.71
641.42	40507.65
641.57	40528.72
641.72	40313.39
641.86	40224.45
642.01	40334.45
642.16	40147.21
642.31	40430.41
642.45	40332.11
642.60	39936.56
642.75	40151.89
642.90	40381.26
643.04	40282.96
643.19	39962.31
643.34	40205.72
643.48	39840.60
643.63	39978.69
643.78	39906.13
643.93	39800.81
644.07	40004.44
644.22	39845.28
644.37	39791.45
644.51	39580.80
644.66	39978.69
644.81	39798.47
644.95	40385.94
645.10	39796.13
645.25	40006.78
645.39	40081.67
645.54	39508.24
645.69	40147.21
645.83	39835.92
645.98	39934.22
646.13	39522.29
646.27	39643.99
646.42	39213.34
646.57	39639.31
646.71	39335.04
646.86	39323.34
647.00	39749.32
647.15	40095.72
647.30	39494.20
647.44	39433.35
647.59	39126.74
647.74	39557.39
647.88	39735.27
648.03	39789.11
648.17	39786.77
648.32	39438.03
648.47	39480.16
648.61	39524.63
648.76	39491.86
648.90	39108.01
649.05	38974.60
649.20	38946.51
649.34	39239.08
649.49	39210.99
649.63	39225.04
649.78	39203.97
649.92	38745.23
650.07	39653.36
650.21	38873.96
650.36	39370.15
650.51	39058.86
650.65	39533.99
650.80	39477.82
650.94	39218.02
651.09	39122.05
651.23	38691.40
651.38	38948.85
651.52	38660.97
651.67	38703.10
651.81	38202.22
651.96	38279.46
652.10	38490.11
652.25	38635.22
652.39	38553.30
652.54	38794.38
652.68	38583.73
652.83	38637.56
652.97	38899.70
653.12	38906.73
653.26	38359.04
653.41	38550.96
653.55	37886.25
653.70	38529.90
653.84	38492.45
653.99	38052.43
654.13	38459.68
654.27	38185.84
654.42	37553.90
654.56	38101.58
654.71	38389.47
654.85	38113.28
655.00	38660.97
655.14	38026.68
655.29	37202.82
655.43	37607.73
655.57	37696.67
655.72	37277.71
655.86	37467.30
656.01	37507.08
656.15	37235.58
656.30	37467.30
656.44	37598.37
656.58	37476.66
656.73	37315.16
656.87	37647.52
657.01	37904.98
657.16	37621.77
657.30	37287.07
657.45	37071.75
657.59	37193.45
657.73	37214.52
657.88	37479.00
658.02	37645.18
658.16	38096.90
658.31	37640.50
658.45	37972.85
658.60	36987.49
658.74	37153.66
658.88	37240.26
659.03	37179.41
659.17	36856.42
659.31	37619.43
659.46	36884.50
659.60	36928.97
659.74	37237.92
659.89	37036.64
660.03	36891.52
660.17	36996.85
660.32	36844.71
660.46	36907.91
660.60	36451.50
660.74	36858.76
660.89	37031.96
661.03	36463.21
661.17	36348.52
661.32	36292.35
661.46	36547.47
661.60	36627.04
661.74	36549.81
661.89	36528.74
662.03	36718.32
662.17	36381.29
662.31	36102.76
662.46	36346.18
662.60	36411.71
662.74	35845.30
662.88	36058.29
663.03	35861.69
663.17	35819.56
663.31	36013.82
663.45	35648.70
663.60	35754.02
663.74	35772.75
663.88	35751.68
664.02	35332.73
664.17	35959.99
664.31	35309.32
664.45	35168.89
664.59	35580.82
664.73	35302.30
664.88	35405.28
665.02	35339.75
665.16	35143.14
665.30	35082.29
665.44	35255.49
665.59	34440.98
665.73	34916.11
665.87	34974.63
666.01	35035.48
666.15	35105.70
666.29	34768.66
666.44	34904.41
666.58	35002.71
666.72	34756.96
666.86	34705.46
667.00	34948.88
667.14	34565.03
667.28	34366.09
667.43	34511.20
667.57	34803.77
667.71	34117.99
667.85	34370.77
667.99	34405.88
668.13	34117.99
668.27	34469.07
668.41	33717.76
668.56	33703.71
668.70	34150.76
668.84	34181.18
668.98	33729.46
669.12	33324.55
669.26	33766.91
669.40	33420.51
669.54	33546.90
669.68	33312.84
669.82	33022.62
669.96	33172.41
670.10	32985.17
670.25	33221.56
670.39	33289.44
670.53	33027.30
670.67	33151.35
670.81	33228.59
670.95	32858.78
671.09	33266.03
671.23	32617.71
671.37	32343.86
671.51	32290.03
671.65	32919.63
671.79	32428.12
671.93	32795.59
672.07	32856.44
672.21	32613.02
672.35	32503.02
672.49	32477.27
672.63	32596.64
672.77	32175.34
672.91	32723.03
673.05	32109.81
673.19	32058.32
673.33	32264.28
673.47	31852.35
673.61	31908.52
673.75	31796.18
673.89	31433.39
674.03	31433.39
674.17	31295.30
674.31	31594.89
674.45	31484.89
674.59	31648.72
674.73	31501.27
674.87	31314.03
675.01	31129.12
675.15	30934.86
675.29	31112.74
675.43	31159.55
675.56	30843.58
675.70	30960.61
675.84	30885.71
675.98	29472.03
676.12	30630.59
676.26	30412.92
676.40	30181.21
676.54	30712.51
676.68	30300.58
676.82	29773.95
676.96	30417.60
677.10	30073.54
677.23	29792.68
677.37	30005.67
677.51	29898.00
677.65	29469.69
677.79	29373.72
677.93	29542.24
678.07	29486.07
678.21	28807.31
678.34	28898.59
678.48	29132.65
678.62	28945.41
678.76	28819.02
678.90	28697.31
679.04	28343.89
679.18	28531.13
679.31	28283.03
679.45	28589.64
679.59	27882.80
679.73	28163.67
679.87	28058.34
680.00	28386.02
680.14	27941.32
680.28	27960.04
680.42	28308.78
680.56	27828.97
680.70	27742.37
680.83	28060.68
680.97	27594.92
681.11	27686.20
681.25	26876.37
681.39	27271.92
681.52	27398.31
681.66	27023.83
681.80	27318.73
681.94	27229.79
682.07	27157.24
682.21	26583.80
682.35	26492.52
682.49	26766.37
682.62	26602.53
682.76	26621.25
682.90	26340.39
683.04	26319.32
683.17	26096.97
683.31	25689.72
683.45	26148.46
683.59	25956.54
683.72	25769.30
683.86	25729.51
684.00	25907.39
684.13	25626.53
684.27	25656.95
684.41	25371.41
684.55	25242.68
684.68	25055.43
684.82	25584.40
684.96	25156.08
685.09	24903.30
685.23	24898.62
685.37	24945.43
685.50	24900.96
685.64	24718.40
685.78	24716.06
685.91	24168.37
686.05	24177.73
686.19	23978.79
686.32	24184.76
686.46	23632.39
686.60	23075.34
686.73	23798.57
686.87	23215.77
687.01	23754.10
687.14	23194.71
687.28	23178.33
687.42	23232.16
687.55	23178.33
687.69	23253.22
687.82	23129.17
687.96	23159.60
688.10	23168.96
688.23	22899.80
688.37	22544.04
688.50	22408.29
688.64	22354.46
688.78	22560.42
688.91	22389.56
689.05	22403.61
689.18	22153.17
689.32	22003.38
689.46	22136.79
689.59	22204.66
689.73	22195.30
689.86	22368.50
690.00	21984.65
690.13	21984.65
690.27	21701.45
690.41	21680.38
690.54	21181.85
690.68	21352.71
690.81	21090.57
690.95	21216.96
691.08	21144.40
691.22	21322.28
691.35	21287.17
691.49	21483.78
691.62	20926.73
691.76	20828.43
691.89	21095.25
692.03	20805.02
692.16	20549.90
692.30	20570.97
692.43	20556.93
692.57	20201.16
692.70	20154.35
692.84	20170.74
692.97	19948.39
693.11	20004.56
693.24	20102.86
693.38	19866.47
693.51	19878.17
693.65	19566.88
693.78	19868.81
693.92	19875.83
694.05	19604.33
694.19	19452.19
694.32	19442.83
694.45	19363.25
694.59	18953.66
694.72	19084.73
694.86	19281.33
694.99	18951.32
695.13	19068.34
695.26	18977.06
695.39	18286.61
695.53	18679.82
695.66	18677.48
695.80	18728.97
695.93	18321.71
696.07	18270.22
696.20	18340.44
696.33	18235.11
696.47	18134.47
696.60	18270.22
696.73	18195.32
696.87	17713.17
697.00	18066.60
697.14	17935.53
697.27	17572.74
697.40	17790.41
697.54	17542.32
697.67	17427.63
697.80	17238.05
697.94	17106.98
698.07	17032.08
698.21	17121.02
698.34	16741.85
698.47	16964.20
698.61	16746.53
698.74	16432.90
698.87	16524.18
699.01	16430.56
699.14	16297.15
699.27	16255.02
699.40	16294.81
699.54	16245.66
699.67	16198.85
699.80	16248.00
699.94	16145.02
700.07	16056.08
700.20	16077.14
700.34	15997.56
700.47	16044.37
700.60	16046.71
700.73	15887.56
700.87	15838.41
701.00	15726.06
701.13	15695.63
701.26	15623.08
701.40	15609.03
701.53	15386.68
701.66	15599.67
701.79	15332.85
701.93	14988.79
702.06	15169.01
702.19	14754.74
702.32	14899.85
702.46	14785.16
702.59	14883.47
702.72	14860.06
702.85	14824.95
702.99	14895.17
703.12	14448.13
703.25	14551.11
703.38	14377.91
703.51	14335.78
703.65	14321.74
703.78	14200.03
703.91	14239.82
704.04	14171.94
704.17	14057.26
704.31	14420.04
704.44	14085.34
704.57	13905.12
704.70	13998.74
704.83	13886.40
704.96	13799.80
705.10	14005.77
705.23	13603.19
>>>>>End Processed Spectral Data<<<<<
