SpectraSuite Data File
++++++++++++++++++++++++++++++++++++
Date: Fri Oct 25 11:33:12 EDT 2013
User: price-jones
Dark Spectrum Present: No
Reference Spectrum Present: No
Number of Sampled Component Spectra: 1
Spectrometers: USB2+H05261
Integration Time (usec): 100000 (USB2+H05261)
Spectra Averaged: 1 (USB2+H05261)
Boxcar Smoothing: 0 (USB2+H05261)
Correct for Electrical Dark: No (USB2+H05261)
Strobe/Lamp Enabled: No (USB2+H05261)
Correct for Detector Non-linearity: No (USB2+H05261)
Correct for Stray Light: No (USB2+H05261)
Number of Pixels in Processed Spectrum: 2048
>>>>>Begin Processed Spectral Data<<<<<
365.73	358.10
365.92	358.10
366.12	358.10
366.32	182.56
366.52	196.60
366.72	187.24
366.91	170.86
367.11	189.58
367.31	140.43
367.51	114.69
367.70	159.16
367.90	149.79
368.10	124.05
368.30	159.16
368.49	147.45
368.69	231.71
368.89	140.43
369.09	138.09
369.28	248.10
369.48	131.07
369.68	173.20
369.87	208.31
370.07	229.37
370.27	257.46
370.47	292.57
370.66	397.89
370.86	496.19
371.06	514.92
371.25	575.77
371.45	519.60
371.65	510.24
371.84	510.24
372.04	533.64
372.24	575.77
372.44	580.45
372.63	704.50
372.83	622.58
373.03	571.09
373.22	582.79
373.42	615.56
373.62	624.92
373.81	648.33
374.01	676.41
374.21	645.99
374.40	613.22
374.60	573.43
374.79	664.71
374.99	620.24
375.19	699.82
375.38	674.07
375.58	765.36
375.78	622.58
375.97	669.39
376.17	653.01
376.37	629.60
376.56	697.48
376.76	645.99
376.95	615.56
377.15	643.65
377.35	657.69
377.54	734.93
377.74	690.46
377.93	667.05
378.13	723.23
378.33	706.84
378.52	791.10
378.72	744.29
378.91	660.03
379.11	662.37
379.31	751.31
379.50	681.10
379.70	739.61
379.89	791.10
380.09	727.91
380.28	739.61
380.48	744.29
380.68	711.52
380.87	812.17
381.07	800.46
381.26	744.29
381.46	802.80
381.65	786.42
381.85	788.76
382.04	837.91
382.24	814.51
382.43	809.83
382.63	793.44
382.83	847.27
383.02	788.76
383.22	704.50
383.41	854.30
383.61	760.67
383.80	791.10
384.00	814.51
384.19	751.31
384.39	870.68
384.58	894.08
384.78	823.87
384.97	861.32
385.17	823.87
385.36	884.72
385.56	847.27
385.75	800.46
385.95	901.11
386.14	983.02
386.34	851.96
386.53	812.17
386.72	814.51
386.92	924.51
387.11	926.85
387.31	858.98
387.50	880.04
387.70	894.08
387.89	945.58
388.09	931.53
388.28	877.70
388.48	866.00
388.67	880.04
388.86	978.34
389.06	875.36
389.25	994.73
389.45	947.92
389.64	957.28
389.84	924.51
390.03	1027.50
390.22	1055.58
390.42	980.68
390.61	856.64
390.81	922.17
391.00	1041.54
391.19	1086.01
391.39	957.28
391.58	1018.13
391.78	1090.69
391.97	1013.45
392.16	1013.45
392.36	1107.07
392.55	954.94
392.75	1039.20
392.94	1046.22
393.13	1076.65
393.33	1067.28
393.52	1128.14
393.71	1095.37
393.91	1015.79
394.10	976.00
394.29	1095.37
394.49	1191.33
394.68	1156.22
394.88	1104.73
395.07	1193.67
395.26	1153.88
395.46	1116.44
395.65	1163.25
395.84	1200.69
396.04	1242.82
396.23	1181.97
396.42	1284.95
396.62	1266.23
396.81	1177.29
397.00	1252.19
397.19	1249.85
397.39	1277.93
397.58	1261.55
397.77	1163.25
397.97	1252.19
398.16	1280.27
398.35	1247.51
398.55	1261.55
398.74	1322.40
398.93	1289.64
399.12	1406.66
399.32	1196.01
399.51	1240.48
399.70	1390.28
399.90	1296.66
400.09	1287.29
400.28	1458.15
400.47	1467.52
400.67	1392.62
400.86	1331.76
401.05	1448.79
401.24	1329.42
401.44	1514.33
401.63	1446.45
401.82	1401.98
402.01	1481.56
402.21	1542.41
402.40	1500.28
402.59	1497.94
402.78	1544.75
402.97	1502.62
403.17	1577.52
403.36	1486.24
403.55	1591.56
403.74	1586.88
403.93	1600.93
404.13	1619.65
404.32	1612.63
404.51	1610.29
404.70	1687.53
404.89	1621.99
405.09	1727.32
405.28	1593.90
405.47	1654.76
405.66	1757.74
405.85	1783.49
406.05	1732.00
406.24	1659.44
406.43	1739.02
406.62	1802.21
406.81	1809.23
407.00	1825.62
407.20	1734.34
407.39	1844.34
407.58	1865.41
407.77	1858.39
407.96	1898.17
408.15	1919.24
408.34	1935.62
408.54	1844.34
408.73	1879.45
408.92	1968.39
409.11	2022.22
409.30	1984.77
409.49	2024.56
409.68	2083.08
409.87	2080.74
410.07	2118.18
410.26	2047.97
410.45	2050.31
410.64	2050.31
410.83	1996.48
411.02	2209.47
411.21	2223.51
411.40	2127.55
411.59	2197.76
411.78	2228.19
411.98	2127.55
412.17	2251.60
412.36	2143.93
412.55	2342.88
412.74	2373.30
412.93	2420.11
413.12	2352.24
413.31	2434.16
413.50	2408.41
413.69	2445.86
413.88	2490.33
414.07	2548.84
414.26	2509.05
414.45	2539.48
414.64	2509.05
414.83	2560.55
415.02	2654.17
415.22	2647.15
415.41	2686.94
415.60	2642.46
415.79	2672.89
415.98	2731.41
416.17	2775.88
416.36	2759.49
416.55	2801.62
416.74	2918.65
416.93	2813.32
417.12	2715.02
417.31	2874.18
417.50	2792.26
417.69	2888.22
417.88	3007.59
418.07	2832.05
418.26	2988.86
418.45	2888.22
418.64	2953.76
418.83	3038.02
419.02	3166.74
419.21	3059.08
419.39	3054.40
419.58	3110.57
419.77	3138.66
419.96	3248.66
420.15	3143.34
420.34	3166.74
420.53	3199.51
420.72	3166.74
420.91	3269.73
421.10	3246.32
421.29	3248.66
421.48	3297.81
421.67	3372.71
421.86	3361.01
422.05	3424.20
422.24	3370.37
422.43	3382.07
422.61	3428.88
422.80	3445.27
422.99	3468.67
423.18	3489.74
423.37	3405.48
423.56	3522.51
423.75	3506.12
423.94	3372.71
424.13	3279.09
424.32	3262.71
424.50	3499.10
424.69	3592.72
424.88	3513.14
425.07	3513.14
425.26	3407.82
425.45	3426.54
425.64	3478.04
425.83	3421.86
426.01	3531.87
426.20	3454.63
426.39	3531.87
426.58	3538.89
426.77	3405.48
426.96	3529.53
427.15	3503.78
427.33	3527.19
427.52	3618.47
427.71	3693.37
427.90	3618.47
428.09	3749.54
428.28	3576.34
428.46	3667.62
428.65	3602.08
428.84	3859.54
429.03	3702.73
429.22	3691.02
429.40	3927.42
429.59	3810.39
429.78	3726.13
429.97	3763.58
430.16	3742.52
430.34	3859.54
430.53	3740.18
430.72	3838.48
430.91	3843.16
431.10	3726.13
431.28	3934.44
431.47	4014.02
431.66	4025.72
431.85	4093.60
432.03	4088.92
432.22	4166.15
432.41	4044.45
432.60	4105.30
432.79	4093.60
432.97	4074.87
433.16	4219.99
433.35	4037.42
433.54	4065.51
433.72	4161.47
433.91	4180.20
434.10	4292.54
434.28	4159.13
434.47	4170.83
434.66	4271.48
434.85	4395.53
435.03	4283.18
435.22	4322.97
435.41	4334.67
435.59	4381.48
435.78	4341.69
435.97	4444.68
436.16	4425.95
436.34	4325.31
436.53	4517.23
436.72	4772.35
436.90	4421.27
437.09	4592.13
437.28	4421.27
437.46	4578.09
437.65	4648.30
437.84	4688.09
438.02	4636.60
438.21	4643.62
438.40	4596.81
438.58	4891.72
438.77	5004.07
438.96	4809.80
439.14	4922.15
439.33	5015.77
439.52	4954.91
439.70	4997.04
439.89	5004.07
440.08	5104.71
440.26	5034.49
440.45	4858.95
440.63	5076.62
440.82	5205.35
441.01	5238.12
441.19	5221.74
441.38	5291.95
441.57	5252.16
441.75	5490.90
441.94	5406.64
442.12	5528.35
442.31	5481.53
442.50	5533.03
442.68	5502.60
442.87	5423.02
443.05	5521.32
443.24	5544.73
443.43	5476.85
443.61	5565.79
443.80	5694.52
443.98	5495.58
444.17	5397.28
444.35	5722.61
444.54	5675.80
444.73	5748.36
444.91	5748.36
445.10	5769.42
445.28	5706.23
445.47	5661.76
445.65	5617.29
445.84	5769.42
446.02	5678.14
446.21	5694.52
446.39	5783.46
446.58	5764.74
446.77	5738.99
446.95	5584.52
447.14	5729.63
447.32	5834.96
447.51	5928.58
447.69	5661.76
447.88	5856.02
448.06	5841.98
448.25	5844.32
448.43	5980.07
448.62	5844.32
448.80	5951.98
448.99	5912.19
449.17	6031.56
449.36	5879.43
449.54	6050.28
449.73	6176.67
449.91	6312.42
450.10	6162.63
450.28	6251.57
450.46	6129.86
450.65	6284.34
450.83	6071.35
451.02	6115.82
451.20	6319.45
451.39	6289.02
451.57	6349.87
451.76	6134.54
451.94	6230.51
452.13	6434.13
452.31	6359.24
452.49	6169.65
452.68	6370.94
452.86	6221.14
453.05	6441.15
453.23	6506.69
453.42	6356.90
453.60	6413.07
453.78	6504.35
453.97	6476.26
454.15	6516.05
454.34	6389.66
454.52	6693.93
454.70	6553.50
454.89	6569.88
455.07	6551.16
455.26	6881.18
455.44	6796.92
455.62	6864.79
455.81	6782.87
455.99	6801.60
456.17	6644.78
456.36	6822.66
456.54	6820.32
456.73	7023.95
456.91	6913.94
457.09	7023.95
457.28	7162.04
457.46	7049.69
457.64	7232.26
457.83	7290.77
458.01	7265.02
458.19	7433.54
458.38	7267.36
458.56	7218.21
458.74	7269.70
458.93	7119.91
459.11	7286.09
459.29	7204.17
459.48	7286.09
459.66	7236.94
459.84	7342.26
460.03	7592.70
460.21	7522.48
460.39	7499.08
460.57	7475.67
460.76	7669.94
460.94	7667.60
461.12	7585.68
461.31	7613.76
461.49	7559.93
461.67	7613.76
461.85	7779.94
462.04	7786.96
462.22	8070.17
462.40	7686.32
462.59	7726.11
462.77	7892.29
462.95	7819.73
463.13	7798.66
463.32	7866.54
463.50	7882.92
463.68	8067.83
463.86	7999.95
464.05	7906.33
464.23	7798.66
464.41	8011.65
464.59	7864.20
464.78	8152.09
464.96	8105.28
465.14	7812.71
465.32	8105.28
465.50	7997.61
465.69	8231.66
465.87	8311.24
466.05	8182.51
466.23	8198.90
466.41	8404.86
466.60	8388.48
466.78	8173.15
466.96	8166.13
467.14	8210.60
467.32	8372.10
467.51	8393.16
467.69	8259.75
467.87	8416.57
468.05	8629.56
468.23	8531.25
468.41	8496.14
468.60	8442.31
468.78	8568.70
468.96	8435.29
469.14	8692.75
469.32	8606.15
469.50	8461.04
469.69	8676.37
469.87	8744.24
470.05	8765.31
470.23	8748.92
470.41	8898.72
470.59	8994.68
470.77	8788.71
470.95	8945.53
471.14	9114.05
471.32	8711.47
471.50	9174.90
471.68	9235.75
471.86	9167.88
472.04	9322.35
472.22	9308.31
472.40	9238.09
472.58	9217.03
472.77	9380.87
472.95	9446.40
473.13	9694.50
473.31	9558.75
473.49	9525.98
473.67	9537.68
473.85	9617.26
474.03	9799.82
474.21	9600.88
474.39	9853.66
474.57	9764.72
474.75	10183.67
474.93	9893.44
475.12	10017.49
475.30	9881.74
475.48	10272.61
475.66	10289.00
475.84	10120.48
476.02	10197.71
476.20	10345.17
476.38	10345.17
476.56	10799.23
476.74	10651.78
476.92	10609.65
477.10	10572.20
477.28	10864.77
477.46	10698.59
477.64	11110.52
477.82	11021.58
478.00	11262.66
478.18	11288.40
478.36	11213.51
478.54	11389.05
478.72	11515.44
478.90	11784.60
479.08	11681.61
479.26	12023.33
479.44	11770.55
479.62	12002.27
479.80	11925.03
479.98	12037.38
480.16	12339.30
480.34	12154.40
480.52	12397.82
480.70	12512.50
480.88	12053.76
481.06	12332.28
481.24	12512.50
481.41	12716.13
481.59	12910.40
481.77	12847.20
481.95	12908.05
482.13	13259.13
482.31	13238.07
482.49	13345.73
482.67	13446.38
482.85	13298.92
483.03	13497.87
483.21	13752.99
483.39	13965.98
483.57	13914.48
483.74	14134.50
483.92	14064.28
484.10	14195.35
484.28	14733.67
484.46	14778.14
484.64	14523.02
484.82	14530.05
485.00	14883.47
485.18	14906.87
485.35	15592.65
485.53	15307.10
485.71	15295.40
485.89	15484.98
486.07	15342.21
486.25	15534.14
486.43	15557.54
486.61	15854.79
486.78	15735.42
486.96	15950.75
487.14	16182.46
487.32	16369.71
487.50	16425.88
487.68	16842.50
487.85	16659.93
488.03	16924.41
488.21	16896.33
488.39	17156.13
488.57	17167.83
488.75	17303.58
488.92	17554.02
489.10	17460.40
489.28	17556.36
489.46	17989.36
489.64	17675.73
489.81	18155.54
489.99	18436.40
490.17	18497.25
490.35	18754.71
490.53	18677.48
490.70	18787.48
490.88	18995.79
491.06	18925.57
491.24	19033.24
491.41	19358.57
491.59	19527.09
491.77	19201.76
491.95	19531.77
492.13	19456.87
492.30	19779.87
492.48	19793.91
492.66	20095.84
492.84	19943.70
493.01	20269.04
493.19	20212.87
493.37	20603.74
493.54	20854.17
493.72	20739.49
493.90	20746.51
494.08	21275.47
494.25	21083.55
494.43	21490.80
494.61	21544.63
494.79	21263.77
494.96	21664.00
495.14	21500.16
495.32	21706.13
495.49	21961.25
495.67	22246.79
495.85	22401.27
496.02	22197.64
496.20	22347.44
496.38	22654.05
496.55	22562.76
496.73	22794.48
496.91	22780.43
497.09	23000.44
497.26	23026.19
497.44	23150.24
497.62	23229.82
497.79	23608.98
497.97	23229.82
498.14	23620.69
498.32	24034.96
498.50	24013.90
498.67	24086.45
498.85	23669.84
499.03	24116.88
499.20	24084.11
499.38	24269.01
499.56	24510.09
499.73	24301.78
499.91	24776.91
500.08	25188.85
500.26	24662.22
500.44	24959.47
500.61	24966.49
500.79	25282.47
500.97	25186.50
501.14	25935.48
501.32	25708.44
501.49	25479.07
501.67	25493.12
501.84	25797.38
502.02	25848.88
502.20	25762.28
502.37	25853.56
502.55	26061.87
502.72	26029.10
502.90	26436.35
503.07	26103.99
503.25	26452.73
503.43	26246.77
503.60	26494.86
503.78	27028.51
503.95	26721.90
504.13	26991.06
504.30	26984.04
504.48	26745.30
504.65	26838.92
504.83	27594.92
505.01	27351.50
505.18	27267.24
505.36	27639.39
505.53	27508.32
505.71	27765.78
505.88	27613.64
506.06	27999.83
506.23	27845.35
506.41	27929.61
506.58	27805.56
506.76	27953.02
506.93	28194.09
507.11	28231.54
507.28	28453.89
507.46	28273.67
507.63	28383.68
507.81	28893.91
507.98	28313.46
508.16	28760.50
508.33	28847.10
508.50	28683.27
508.68	29013.28
508.85	29362.02
509.03	29500.11
509.20	29443.94
509.38	29350.32
509.55	29762.25
509.73	29434.58
509.90	29610.12
510.08	29408.83
510.25	29947.15
510.42	30204.61
510.60	29912.05
510.77	30314.62
510.95	30146.10
511.12	30167.16
511.30	30089.93
511.47	30295.89
511.64	30293.55
511.82	30551.01
511.99	30621.23
512.17	30923.16
512.34	30595.48
512.51	31061.25
512.69	31140.83
512.86	31222.75
513.04	31215.72
513.21	31103.38
513.38	31325.73
513.56	31365.52
513.73	31395.95
513.90	31630.00
514.08	31309.35
514.25	31615.96
514.43	31644.04
514.60	31920.23
514.77	32201.09
514.95	32163.64
515.12	31976.40
515.29	32215.13
515.47	32423.44
515.64	32533.45
515.81	32444.51
515.99	32606.00
516.16	32776.86
516.33	32687.92
516.51	32898.57
516.68	32364.93
516.85	32622.39
517.03	33324.55
517.20	33151.35
517.37	32849.42
517.54	33179.43
517.72	33170.07
517.89	33345.61
518.06	33481.36
518.24	33434.55
518.41	33221.56
518.58	33560.94
518.75	33116.24
518.93	33464.98
519.10	33233.27
519.27	33923.72
519.45	33912.02
519.62	33984.58
519.79	33954.15
519.96	33993.94
520.14	34146.08
520.31	34263.10
520.48	33846.49
520.65	34471.41
520.83	34930.16
521.00	35023.78
521.17	34293.53
521.34	34632.91
521.52	35084.63
521.69	35016.75
521.86	35065.91
522.03	34572.05
522.20	35248.47
522.38	35711.89
522.55	34991.01
522.72	35262.51
522.89	35517.63
523.07	36172.98
523.24	35697.85
523.41	35831.26
523.58	35379.54
523.75	36161.28
523.92	36009.14
524.10	35550.40
524.27	35838.28
524.44	36465.55
524.61	36224.47
524.78	36224.47
524.96	36463.21
525.13	36184.68
525.30	36404.69
525.47	36664.49
525.64	36498.31
525.81	36884.50
525.98	36931.31
526.16	36786.20
526.33	36718.32
526.50	37109.19
526.67	36584.91
526.84	37017.91
527.01	37067.06
527.18	37067.06
527.36	37340.91
527.53	36964.08
527.70	37258.99
527.87	37268.35
528.04	37340.91
528.21	36685.56
528.38	37689.65
528.55	37493.04
528.72	37813.70
528.89	37603.05
529.07	37684.97
529.24	37549.21
529.41	37923.70
529.58	37535.17
529.75	37579.64
529.92	38129.67
530.09	38003.28
530.26	37996.26
530.43	37806.67
530.60	37977.53
530.77	37666.24
530.94	38202.22
531.11	38148.39
531.28	38349.68
531.46	38724.16
531.63	38101.58
531.80	38459.68
531.97	38162.43
532.14	38766.29
532.31	38417.55
532.48	38557.99
532.65	38513.52
532.82	39075.24
532.99	39042.48
533.16	38799.06
533.33	39005.03
533.50	39096.31
533.67	38672.67
533.84	38951.20
534.01	39304.62
534.18	39313.98
534.35	39718.89
534.52	39124.40
534.69	39569.10
534.86	39721.23
535.03	39384.19
535.20	39805.49
535.37	39983.37
535.54	39950.60
535.71	39810.17
535.88	39929.54
536.05	40086.36
536.22	40409.35
536.38	39878.05
536.55	40053.59
536.72	40123.80
536.89	39882.73
537.06	40236.15
537.23	40367.22
537.40	40025.50
537.57	39959.97
537.74	40201.04
537.91	40495.95
538.08	40737.02
538.25	40491.27
538.42	40840.01
538.59	40865.75
538.75	40315.73
538.92	40907.88
539.09	40425.73
539.26	41151.30
539.43	40655.11
539.60	41064.70
539.77	41364.29
539.94	41572.60
540.11	41404.08
540.28	41361.95
540.44	41132.57
540.61	40870.43
540.78	41235.56
540.95	41282.37
541.12	41113.85
541.29	41404.08
541.46	41607.70
541.62	41556.21
541.79	41563.23
541.96	41277.69
542.13	41516.42
542.30	41563.23
542.47	41755.16
542.63	41743.45
542.80	41661.54
542.97	42146.03
543.14	42073.47
543.31	42181.13
543.48	41291.73
543.64	43100.97
543.81	42546.26
543.98	42120.28
544.15	42146.03
544.32	42939.47
544.48	42726.48
544.65	42677.33
544.82	42770.95
544.99	42157.73
545.16	42593.07
545.32	42581.37
545.49	42909.04
545.66	43014.37
545.83	42806.06
546.00	42904.36
546.16	42787.33
546.33	42859.89
546.50	42635.20
546.67	43555.03
546.83	42754.57
547.00	42862.23
547.17	43028.41
547.34	42955.85
547.50	43739.93
547.67	43517.58
547.84	43540.99
548.00	43725.89
548.17	44067.61
548.34	43538.65
548.51	43887.39
548.67	43557.37
548.84	43817.17
549.01	43880.36
549.18	43643.97
549.34	43866.32
549.51	43608.86
549.68	43873.34
549.84	43812.49
550.01	44245.49
550.18	43585.46
550.34	43723.55
550.51	43915.47
550.68	44350.81
550.84	43894.41
551.01	44453.79
551.18	44435.07
551.34	44395.28
551.51	43847.60
551.68	44196.34
551.84	44271.23
552.01	44046.54
552.18	44584.86
552.34	43931.86
552.51	44502.95
552.68	43922.49
552.84	44839.98
553.01	44538.05
553.18	44465.50
553.34	44760.40
553.51	44629.34
553.67	44648.06
553.84	44669.12
554.01	44839.98
554.17	44598.91
554.34	45090.42
554.51	44781.47
554.67	44968.71
554.84	45249.58
555.00	44842.32
555.17	44844.66
555.33	45474.27
555.50	44699.55
555.67	45045.95
555.83	45390.01
556.00	45425.12
556.16	45731.73
556.33	45551.51
556.50	45251.92
556.66	45155.96
556.83	45170.00
556.99	45460.23
557.16	45563.21
557.32	45818.33
557.49	45558.53
557.65	45258.94
557.82	45542.14
557.98	45404.05
558.15	45015.52
558.32	45839.39
558.48	45420.44
558.65	45619.38
558.81	45549.17
558.98	45621.72
559.14	45607.68
559.31	45394.69
559.47	45542.14
559.64	45591.30
559.80	45851.09
559.97	45963.44
560.13	45834.71
560.30	46108.55
560.46	46085.15
560.63	46192.81
560.79	46075.79
560.96	46206.86
561.12	46192.81
561.29	45937.69
561.45	46188.13
561.61	46028.98
561.78	46181.11
561.94	46021.95
562.11	45764.49
562.27	45727.05
562.44	46064.08
562.60	46277.07
562.77	46356.65
562.93	45867.48
563.10	46143.66
563.26	45790.24
563.42	46672.62
563.59	46344.95
563.75	46195.15
563.92	46375.37
564.08	46354.31
564.24	46330.90
564.41	46237.28
564.57	46621.13
564.74	46157.70
564.90	46370.69
565.07	46740.50
565.23	46471.34
565.39	46560.28
565.56	46630.49
565.72	46574.32
565.88	46155.36
566.05	46777.95
566.21	46501.76
566.38	46611.77
566.54	47030.72
566.70	46557.94
566.87	46590.70
567.03	46351.97
567.19	46534.53
567.36	46476.02
567.52	46878.59
567.68	46972.21
567.85	47363.08
568.01	46845.82
568.17	47194.56
568.34	46951.15
568.50	46890.29
568.66	46483.04
568.83	47030.72
568.99	46866.89
569.15	46948.81
569.32	46836.46
569.48	47100.94
569.64	47227.33
569.81	47164.14
569.97	47239.03
570.13	46791.99
570.30	46518.15
570.46	46925.40
570.62	46951.15
570.78	46974.55
570.95	46679.64
571.11	47182.86
571.27	47297.55
571.43	46864.55
571.60	47178.18
571.76	46834.12
571.92	46838.80
572.09	47004.98
572.25	46967.53
572.41	47161.79
572.57	47086.90
572.74	47592.45
572.90	47196.90
573.06	47255.42
573.22	47452.02
573.38	47477.77
573.55	47143.07
573.71	47515.22
573.87	47093.92
574.03	47051.79
574.20	47592.45
574.36	47334.99
574.52	47112.64
574.68	46948.81
574.84	47529.26
575.01	47508.19
575.17	47695.44
575.33	47515.22
575.49	47054.13
575.65	47566.71
575.82	47660.33
575.98	47290.52
576.14	47461.38
576.30	47540.96
576.46	47620.54
576.62	47409.89
576.79	47356.06
576.95	47072.85
577.11	47213.29
577.27	47344.36
577.43	47629.90
577.59	47543.30
577.75	47363.08
577.92	47192.22
578.08	47290.52
578.24	47547.98
578.40	47533.94
578.56	47650.97
578.72	47180.52
578.88	47655.65
579.04	47555.00
579.21	47363.08
579.37	47508.19
579.53	47999.71
579.69	47426.28
579.85	47597.13
580.01	47948.21
580.17	47416.91
580.33	47770.33
580.49	47414.57
580.65	47477.77
580.82	47459.04
580.98	47721.18
581.14	47374.78
581.30	47835.87
581.46	47562.03
581.62	47402.87
581.78	47077.54
581.94	47545.64
582.10	47459.04
582.26	47725.86
582.42	47510.53
582.58	47093.92
582.74	47767.99
582.90	47938.85
583.06	47772.67
583.22	47334.99
583.38	47796.08
583.54	47746.93
583.70	47470.75
583.86	47817.14
584.02	47562.03
584.18	47906.08
584.34	47845.23
584.50	48350.79
584.66	47913.11
584.82	47929.49
584.98	47892.04
585.14	47632.24
585.30	47440.32
585.46	47999.71
585.62	47910.77
585.78	48189.29
585.94	47309.25
586.10	47863.96
586.26	47573.73
586.42	47674.37
586.58	47894.38
586.74	47608.84
586.90	47735.23
587.06	47929.49
587.22	48079.28
587.38	47573.73
587.54	47950.56
587.70	47716.50
587.86	47594.79
588.02	48037.16
588.18	47770.33
588.34	48013.75
588.49	47826.51
588.65	47765.65
588.81	48041.84
588.97	47887.36
589.13	47618.20
589.29	47988.00
589.45	47943.53
589.61	48428.02
589.77	48186.95
589.93	48109.71
590.08	48198.65
590.24	48151.84
590.40	48254.82
590.56	48210.35
590.72	48442.07
590.88	47924.81
591.04	47941.19
591.20	48257.17
591.35	48332.06
591.51	48465.47
591.67	48245.46
591.83	48186.95
591.99	48767.40
592.15	48144.82
592.31	47973.96
592.46	47952.90
592.62	48411.64
592.78	48421.00
592.94	48411.64
593.10	48360.15
593.26	48835.28
593.41	48463.13
593.57	48355.47
593.73	48418.66
593.89	48430.36
594.05	48755.70
594.20	47997.37
594.36	48626.97
594.52	48652.72
594.68	48643.35
594.84	48568.46
594.99	48458.45
595.15	48322.70
595.31	48570.80
595.47	48526.33
595.62	48430.36
595.78	48430.36
595.94	48769.74
596.10	48023.11
596.25	48596.54
596.41	48067.58
596.57	48390.58
596.73	49139.55
596.88	48481.86
597.04	48289.93
597.20	48835.28
597.36	48385.89
597.51	48854.00
597.67	48215.04
597.83	48582.50
597.99	48498.24
598.14	48357.81
598.30	48755.70
598.46	48273.55
598.61	48900.81
598.77	48512.28
598.93	48748.68
599.09	48559.09
599.24	49017.84
599.40	48659.74
599.56	48732.29
599.71	49244.87
599.87	49130.19
600.03	49008.48
600.18	49256.57
600.34	48762.72
600.50	48940.60
600.65	48643.35
600.81	48996.77
600.97	48903.15
601.12	48779.10
601.28	48870.39
601.44	48912.52
601.59	48685.48
601.75	48772.08
601.91	48886.77
602.06	48451.43
602.22	48832.94
602.37	48779.10
602.53	48727.61
602.69	49219.13
602.84	48865.70
603.00	48830.60
603.16	48545.05
603.31	48952.30
603.47	48711.23
603.62	48566.12
603.78	49109.12
603.94	48868.05
604.09	49048.27
604.25	48531.01
604.40	48802.51
604.56	48830.60
604.71	48657.40
604.87	48261.85
605.03	48374.19
605.18	48542.71
605.34	48907.83
605.49	48191.63
605.65	48484.20
605.80	48559.09
605.96	48229.08
606.12	48659.74
606.27	48683.14
606.43	48430.36
606.58	48903.15
606.74	48566.12
606.89	48582.50
607.05	48945.28
607.20	48535.69
607.36	48369.51
607.51	48287.59
607.67	48748.68
607.82	48367.17
607.98	48683.14
608.13	48327.38
608.29	48435.05
608.44	48676.12
608.60	48355.47
608.75	48636.33
608.91	48151.84
609.06	48648.03
609.22	48608.25
609.37	48247.80
609.53	48329.72
609.68	48863.36
609.84	48538.03
609.99	48140.14
610.15	48563.78
610.30	48172.91
610.46	48381.21
610.61	48327.38
610.76	48374.19
610.92	48140.14
611.07	48217.38
611.23	48081.63
611.38	48250.14
611.54	48669.10
611.69	48542.71
611.84	48154.18
612.00	48254.82
612.15	48409.30
612.31	48327.38
612.46	48062.90
612.62	48318.02
612.77	48137.80
612.92	48376.53
613.08	48149.50
613.23	48299.30
613.39	47667.35
613.54	47796.08
613.69	48121.41
613.85	47931.83
614.00	47934.17
614.15	48369.51
614.31	47655.65
614.46	48184.61
614.62	47564.37
614.77	48098.01
614.92	47796.08
615.08	47856.93
615.23	47978.64
615.38	47901.40
615.54	47620.54
615.69	47948.21
615.84	47758.63
616.00	48090.99
616.15	48126.10
616.30	48079.28
616.46	47784.38
616.61	47618.20
616.76	48144.82
616.92	47686.07
617.07	47969.28
617.22	48100.35
617.37	47239.03
617.53	47484.79
617.68	47358.40
617.83	47662.67
617.99	47849.91
618.14	48039.50
618.29	47632.24
618.45	47615.86
618.60	47487.13
618.75	47278.82
618.90	47679.05
619.06	47690.76
619.21	47412.23
619.36	47718.84
619.51	47316.27
619.67	47016.68
619.82	47224.99
619.97	47480.11
620.12	47084.56
620.28	47349.04
620.43	47716.50
620.58	47613.52
620.73	47657.99
620.89	47751.61
621.04	47466.06
621.19	47126.69
621.34	47540.96
621.49	47473.09
621.65	47199.24
621.80	47480.11
621.95	47012.00
622.10	47210.95
622.25	47253.08
622.41	47091.58
622.56	46899.65
622.71	46616.45
622.86	47136.05
623.01	47159.45
623.16	47061.15
623.32	46981.57
623.47	47384.15
623.62	46916.04
623.77	47213.29
623.92	47199.24
624.07	46906.68
624.23	47215.63
624.38	46843.48
624.53	46974.55
624.68	46635.17
624.83	46747.52
624.98	47009.66
625.13	46225.58
625.29	46415.16
625.44	46564.96
625.59	46583.68
625.74	46667.94
625.89	46471.34
626.04	46447.93
626.19	46677.30
626.34	46653.90
626.49	46457.29
626.65	46562.62
626.80	46394.10
626.95	46195.15
627.10	45858.12
627.25	46253.67
627.40	46520.49
627.55	46342.61
627.70	46258.35
627.85	46358.99
628.00	46438.57
628.15	46609.43
628.30	45858.12
628.45	45741.09
628.60	45654.49
628.76	46115.58
628.91	46408.14
629.06	45769.18
629.21	46026.63
629.36	45825.35
629.51	46012.59
629.66	46068.76
629.81	46192.81
629.96	46220.90
630.11	45614.70
630.26	45827.69
630.41	45827.69
630.56	46174.09
630.71	45553.85
630.86	45270.64
631.01	45422.78
631.16	45883.86
631.31	45689.60
631.46	45670.87
631.61	45909.61
631.76	45656.83
631.91	45755.13
632.06	46024.29
632.21	45727.05
632.36	45574.91
632.51	45338.52
632.66	45471.93
632.81	45523.42
632.96	45954.08
633.10	45322.13
633.25	45361.92
633.40	45532.78
633.55	45390.01
633.70	45338.52
633.85	45226.17
634.00	44697.21
634.15	44954.67
634.30	45111.49
634.45	44931.26
634.60	45345.54
634.75	45462.57
634.90	45301.07
635.05	45223.83
635.19	45523.42
635.34	45298.73
635.49	45057.65
635.64	45015.52
635.79	45275.32
635.94	45090.42
636.09	45350.22
636.24	45022.54
636.39	45027.23
636.53	45090.42
636.68	44456.14
636.83	44673.81
636.98	44809.56
637.13	44341.45
637.28	44807.22
637.43	44648.06
637.57	44678.49
637.72	44809.56
637.87	44388.26
638.02	44493.58
638.17	44533.37
638.32	44582.52
638.46	44311.02
638.61	44353.15
638.76	44414.01
638.91	44409.32
639.06	44467.84
639.20	44170.59
639.35	44182.29
639.50	43978.67
639.65	44175.27
639.80	44254.85
639.94	44624.65
640.09	44046.54
640.24	44580.18
640.39	44016.11
640.54	43821.85
640.68	44182.29
640.83	44498.26
640.98	43892.07
641.13	44245.49
641.27	43936.54
641.42	44147.18
641.57	44212.72
641.72	44102.71
641.86	43938.88
642.01	43758.66
642.16	43997.39
642.31	43688.44
642.45	43452.05
642.60	43571.41
642.75	43592.48
642.90	44205.70
643.04	43985.69
643.19	43440.34
643.34	43779.72
643.48	43222.67
643.63	43412.26
643.78	43688.44
643.93	43903.77
644.07	43634.61
644.22	43875.68
644.37	43285.87
644.51	43770.36
644.66	43695.46
644.81	43583.12
644.95	43292.89
645.10	43248.42
645.25	43353.74
645.39	43271.82
645.54	43016.71
645.69	43086.92
645.83	43107.99
645.98	43548.01
646.13	43295.23
646.27	43391.19
646.42	43035.43
646.57	43161.82
646.71	43255.44
646.86	43119.69
647.00	43023.73
647.15	43112.67
647.30	43161.82
647.44	43110.33
647.59	42689.03
647.74	43005.00
647.88	43112.67
648.03	43112.67
648.17	43463.75
648.32	43220.33
648.47	43299.91
648.61	43070.54
648.76	42862.23
648.90	42967.55
649.05	42803.72
649.20	43014.37
649.34	42710.10
649.49	42553.28
649.63	42623.50
649.78	42902.02
649.92	42906.70
650.07	43105.65
650.21	42813.08
650.36	42995.64
650.51	42827.12
650.65	42719.46
650.80	43058.84
650.94	42630.52
651.09	42216.24
651.23	42117.94
651.38	42398.80
651.52	42146.03
651.67	42452.64
651.81	42160.07
651.96	42550.94
652.10	42181.13
652.25	42319.23
652.39	42871.59
652.54	42405.83
652.68	42274.76
652.83	42387.10
652.97	42380.08
653.12	42305.18
653.26	41993.89
653.41	42162.41
653.55	41893.25
653.70	42204.54
653.84	42134.32
653.99	42340.29
654.13	41790.27
654.27	42007.94
654.42	41968.15
654.56	41811.33
654.71	41691.96
654.85	41659.20
655.00	42178.79
655.14	42094.53
655.29	42167.09
655.43	41940.06
655.57	41895.59
655.72	41420.46
655.86	41556.21
656.01	41436.84
656.15	41254.28
656.30	41476.63
656.44	41808.99
656.58	41963.46
656.73	41717.71
656.87	41572.60
657.01	41581.96
657.16	41155.98
657.30	41776.22
657.45	41319.82
657.59	41160.66
657.73	40950.01
657.88	41656.85
658.02	41270.67
658.16	41375.99
658.31	41331.52
658.45	41460.25
658.60	40690.21
658.74	41090.44
658.88	41380.67
659.03	41366.63
659.17	40631.70
659.31	40561.48
659.46	40547.44
659.60	40811.92
659.74	40547.44
659.89	40589.57
660.03	40828.30
660.17	40559.14
660.32	40760.43
660.46	40432.75
660.60	40367.22
660.74	40465.52
660.89	40446.80
661.03	40177.64
661.17	39789.11
661.32	39796.13
661.46	40250.19
661.60	40172.96
661.74	40165.93
661.89	39847.62
662.03	40212.74
662.17	39768.04
662.31	39924.86
662.46	39861.66
662.60	39597.18
662.74	39585.48
662.88	39323.34
663.03	39435.69
663.17	39328.02
663.31	39356.11
663.45	39466.11
663.60	40069.97
663.74	39531.65
663.88	39487.18
664.02	39161.84
664.17	38728.84
664.31	38941.83
664.45	39222.70
664.59	38810.76
664.73	38841.19
664.88	39098.65
665.02	38946.51
665.16	39276.53
665.30	38958.22
665.44	38801.40
665.59	38291.16
665.73	38515.86
665.87	38356.70
666.01	38565.01
666.15	38326.27
666.29	38394.15
666.44	38649.27
666.58	38646.93
666.72	38007.96
666.86	38490.11
667.00	38101.58
667.14	37804.33
667.28	38176.48
667.43	38108.60
667.57	37956.47
667.71	38321.59
667.85	37862.85
667.99	37963.49
668.13	38040.73
668.27	37137.28
668.41	37656.88
668.56	37347.93
668.70	36781.52
668.84	36655.13
668.98	37146.64
669.12	37209.84
669.26	36865.78
669.40	36861.10
669.54	37287.07
669.68	36854.08
669.82	36800.24
669.96	36842.37
670.10	36577.89
670.25	37020.25
670.39	36411.71
670.53	36568.53
670.67	36587.25
670.81	36650.45
670.95	37104.51
671.09	36407.03
671.23	36568.53
671.37	36552.15
671.51	35962.33
671.65	36128.51
671.79	36311.07
671.93	36062.97
672.07	36002.12
672.21	35653.38
672.35	35304.64
672.49	35756.36
672.63	35672.10
672.77	35241.45
672.91	35360.81
673.05	35456.78
673.19	35295.28
673.33	35164.21
673.47	34871.64
673.61	34862.28
673.75	34932.50
673.89	34845.90
674.03	34944.20
674.17	34375.45
674.31	34113.31
674.45	34576.73
674.59	34628.23
674.73	34209.27
674.87	34244.38
675.01	34164.80
675.15	33617.11
675.29	33673.29
675.43	33890.96
675.56	34096.92
675.70	33837.12
675.84	33500.09
675.98	32275.99
676.12	33446.26
676.26	33413.49
676.40	33504.77
676.54	33474.34
676.68	33125.60
676.82	32802.61
676.96	32734.73
677.10	32844.74
677.23	33099.86
677.37	32912.61
677.51	32910.27
677.65	32397.70
677.79	32538.13
677.93	32278.33
678.07	32238.54
678.21	31945.97
678.34	32247.90
678.48	31786.82
678.62	31892.14
678.76	31679.15
678.90	31721.28
679.04	31747.03
679.18	31676.81
679.31	31309.35
679.45	31232.11
679.59	30892.73
679.73	30998.06
679.87	30586.12
680.00	30909.11
680.14	30981.67
680.28	30869.33
680.42	30658.68
680.56	30623.57
680.70	30195.25
680.83	30373.13
680.97	30352.07
681.11	30239.72
681.25	30197.59
681.39	29816.08
681.52	30096.95
681.66	29497.77
681.80	29132.65
681.94	29027.32
682.07	29151.37
682.21	28931.36
682.35	29118.60
682.49	29060.09
682.62	29097.54
682.76	28954.77
682.90	28823.70
683.04	28898.59
683.17	28636.45
683.31	28835.40
683.45	28163.67
683.59	28154.30
683.72	28168.35
683.86	27976.42
684.00	28112.17
684.13	27936.63
684.27	27831.31
684.41	27541.08
684.55	27363.20
684.68	27690.88
684.82	27239.15
684.96	27353.84
685.09	27229.79
685.23	27330.44
685.37	27566.83
685.50	27419.38
685.64	27026.17
685.78	27276.60
685.91	27007.44
686.05	26242.09
686.19	26272.51
686.32	26326.35
686.46	26216.34
686.60	25783.34
686.73	25778.66
686.87	25750.57
687.01	26146.12
687.14	26008.03
687.28	25942.50
687.42	25853.56
687.55	25448.64
687.69	25186.50
687.82	25043.73
687.96	25319.92
688.10	25385.45
688.23	25034.37
688.37	25184.16
688.50	25118.63
688.64	24755.85
688.78	24755.85
688.91	24435.19
689.05	24592.01
689.18	24058.37
689.32	23969.43
689.46	23929.64
689.59	24077.09
689.73	23978.79
689.86	24086.45
690.00	23758.78
690.13	24009.22
690.27	23585.58
690.41	23590.26
690.54	23630.05
690.68	23204.07
690.81	23248.54
690.95	23105.77
691.08	23166.62
691.22	22822.56
691.35	22714.90
691.49	22993.42
691.62	23250.88
691.76	22366.16
691.89	22457.44
692.03	22225.73
692.16	21942.52
692.30	22207.00
692.43	22101.68
692.57	21965.93
692.70	21675.70
692.84	21710.81
692.97	21397.18
693.11	21752.94
693.24	21495.48
693.38	21315.26
693.51	20931.41
693.65	21359.73
693.78	21057.80
693.92	20830.77
694.05	21118.65
694.19	21142.06
694.32	21078.86
694.45	21362.07
694.59	20996.95
694.72	20762.89
694.86	20357.98
694.99	20299.47
695.13	20032.65
695.26	19796.25
695.39	20114.56
695.53	20301.81
695.66	19946.05
695.80	20067.75
695.93	19779.87
696.07	19585.60
696.20	19365.59
696.33	19405.38
696.47	19232.18
696.60	19358.57
696.73	19435.81
696.87	19194.73
697.00	19309.42
697.14	19150.26
697.27	18897.49
697.40	18827.27
697.54	18499.59
697.67	18923.23
697.80	18569.81
697.94	18298.31
698.07	18291.29
698.21	18466.83
698.34	18132.13
698.47	18127.45
698.61	17680.41
698.74	17612.53
698.87	17645.30
699.01	17638.28
699.14	17710.83
699.27	17479.12
699.40	17460.40
699.54	17287.20
699.67	17436.99
699.80	17418.27
699.94	17095.27
700.07	17092.93
700.20	16912.71
700.34	17048.46
700.47	16856.54
700.60	17008.67
700.73	16753.55
700.87	16376.73
701.00	16475.03
701.13	16510.14
701.26	16322.90
701.40	15974.16
701.53	15988.20
701.66	16432.90
701.79	16236.30
701.93	16049.05
702.06	15782.23
702.19	15833.72
702.32	15721.38
702.46	15704.99
702.59	15934.37
702.72	15847.77
702.85	15843.09
702.99	15379.66
703.12	15386.68
703.25	15316.47
703.38	15150.29
703.51	14972.41
703.65	14970.07
703.78	14888.15
703.91	14707.93
704.04	14757.08
704.17	14579.20
704.31	14555.79
704.44	14672.82
704.57	14487.92
704.70	14626.01
704.83	14574.52
704.96	14333.44
705.10	14132.15
705.23	14169.60
>>>>>End Processed Spectral Data<<<<<
