SpectraSuite Data File
++++++++++++++++++++++++++++++++++++
Date: Fri Oct 25 10:47:31 EDT 2013
User: price-jones
Dark Spectrum Present: No
Reference Spectrum Present: No
Number of Sampled Component Spectra: 1
Spectrometers: USB2+H05261
Integration Time (usec): 100000 (USB2+H05261)
Spectra Averaged: 1 (USB2+H05261)
Boxcar Smoothing: 0 (USB2+H05261)
Correct for Electrical Dark: No (USB2+H05261)
Strobe/Lamp Enabled: No (USB2+H05261)
Correct for Detector Non-linearity: No (USB2+H05261)
Correct for Stray Light: No (USB2+H05261)
Number of Pixels in Processed Spectrum: 2048
>>>>>Begin Processed Spectral Data<<<<<
365.73	74.90
365.92	74.90
366.12	74.90
366.32	91.28
366.52	0.00
366.72	77.24
366.91	0.00
367.11	51.49
367.31	0.00
367.51	70.22
367.70	56.17
367.90	60.85
368.10	46.81
368.30	63.19
368.49	2.34
368.69	37.45
368.89	56.17
369.09	23.41
369.28	51.49
369.48	65.54
369.68	95.96
369.87	133.41
370.07	112.35
370.27	220.01
370.47	276.18
370.66	388.53
370.86	489.17
371.06	500.87
371.25	489.17
371.45	365.12
371.65	468.11
371.84	458.74
372.04	416.62
372.24	447.04
372.44	468.11
372.63	512.58
372.83	507.90
373.03	475.13
373.22	486.83
373.42	451.72
373.62	489.17
373.81	582.79
374.01	582.79
374.21	524.28
374.40	543.00
374.60	524.28
374.79	543.00
374.99	524.28
375.19	589.82
375.38	524.28
375.58	543.00
375.78	608.54
375.97	599.18
376.17	585.13
376.37	566.41
376.56	580.45
376.76	559.39
376.95	589.82
377.15	578.11
377.35	573.43
377.54	538.32
377.74	540.66
377.93	554.71
378.13	538.32
378.33	660.03
378.52	578.11
378.72	550.03
378.91	601.52
379.11	610.88
379.31	634.29
379.50	664.71
379.70	669.39
379.89	587.47
380.09	573.43
380.28	613.22
380.48	664.71
380.68	655.35
380.87	627.26
381.07	688.12
381.26	667.05
381.46	645.99
381.65	645.99
381.85	653.01
382.04	688.12
382.24	727.91
382.43	765.36
382.63	753.65
382.83	772.38
383.02	697.48
383.22	816.85
383.41	660.03
383.61	620.24
383.80	671.73
384.00	763.01
384.19	758.33
384.39	697.48
384.58	744.29
384.78	671.73
384.97	702.16
385.17	685.78
385.36	763.01
385.56	706.84
385.75	674.07
385.95	732.59
386.14	727.91
386.34	734.93
386.53	734.93
386.72	739.61
386.92	805.14
387.11	795.78
387.31	812.17
387.50	814.51
387.70	800.46
387.89	795.78
388.09	861.32
388.28	807.48
388.48	844.93
388.67	763.01
388.86	720.88
389.06	884.72
389.25	889.40
389.45	861.32
389.64	924.51
389.84	887.06
390.03	961.96
390.22	950.26
390.42	847.27
390.61	873.02
390.81	910.47
391.00	882.38
391.19	915.15
391.39	926.85
391.58	1034.52
391.78	894.08
391.97	997.07
392.16	1020.47
392.36	999.41
392.55	926.85
392.75	919.83
392.94	990.05
393.13	952.60
393.33	990.05
393.52	973.66
393.71	1050.90
393.91	1071.97
394.10	954.94
394.29	1020.47
394.49	938.55
394.68	1029.84
394.88	1062.60
395.07	1142.18
395.26	1153.88
395.46	1076.65
395.65	1097.71
395.84	1114.10
396.04	1104.73
396.23	1137.50
396.42	1060.26
396.62	1217.08
396.81	1174.95
397.00	1142.18
397.19	1172.61
397.39	1205.38
397.58	1165.59
397.77	1181.97
397.97	1268.57
398.16	1238.14
398.35	1221.76
398.55	1306.02
398.74	1210.06
398.93	1284.95
399.12	1254.53
399.32	1256.87
399.51	1371.55
399.70	1343.47
399.90	1306.02
400.09	1362.19
400.28	1301.34
400.47	1387.94
400.67	1350.49
400.86	1376.24
401.05	1458.15
401.24	1423.05
401.44	1310.70
401.63	1437.09
401.82	1418.36
402.01	1516.67
402.21	1460.49
402.40	1467.52
402.59	1476.88
402.78	1465.18
402.97	1563.48
403.17	1446.45
403.36	1462.83
403.55	1521.35
403.74	1612.63
403.93	1577.52
404.13	1570.50
404.32	1533.05
404.51	1647.74
404.70	1647.74
404.89	1589.22
405.09	1760.08
405.28	1734.34
405.47	1626.67
405.66	1659.44
405.85	1846.68
406.05	1788.17
406.24	1839.66
406.43	1708.59
406.62	1802.21
406.81	1895.83
407.00	1795.19
407.20	1755.40
407.39	1813.92
407.58	1837.32
407.77	2005.84
407.96	1905.20
408.15	1839.66
408.34	1956.69
408.54	1968.39
408.73	2029.24
408.92	2005.84
409.11	1982.43
409.30	1991.80
409.49	1935.62
409.68	1947.33
409.87	1954.35
410.07	2040.95
410.26	2045.63
410.45	2160.31
410.64	2043.29
410.83	2162.66
411.02	2134.57
411.21	2270.32
411.40	2239.89
411.59	2143.93
411.78	2174.36
411.98	2214.15
412.17	2193.08
412.36	2183.72
412.55	2284.36
412.74	2310.11
412.93	2490.33
413.12	2359.26
413.31	2495.01
413.50	2389.69
413.69	2410.75
413.88	2562.89
414.07	2541.82
414.26	2626.08
414.45	2616.72
414.64	2445.86
414.83	2670.55
415.02	2621.40
415.22	2602.68
415.41	2672.89
415.60	2670.55
415.79	2654.17
415.98	2752.47
416.17	2834.39
416.36	2782.90
416.55	2743.11
416.74	2724.38
416.93	2743.11
417.12	2839.07
417.31	2829.71
417.50	2949.08
417.69	2902.26
417.88	2991.20
418.07	2972.48
418.26	3014.61
418.45	2988.86
418.64	3145.68
418.83	3208.87
419.02	3012.27
419.21	3115.25
419.39	3028.65
419.58	3091.85
419.77	3117.59
419.96	3148.02
420.15	3288.45
420.34	3187.81
420.53	3307.18
420.72	3260.37
420.91	3295.47
421.10	3229.94
421.29	3361.01
421.48	3386.76
421.67	3335.26
421.86	3183.13
422.05	3445.27
422.24	3447.61
422.43	3361.01
422.61	3332.92
422.80	3377.39
422.99	3403.14
423.18	3398.46
423.37	3482.72
423.56	3384.41
423.75	3513.14
423.94	3382.07
424.13	3225.26
424.32	3440.59
424.50	3478.04
424.69	3578.68
424.88	3492.08
425.07	3454.63
425.26	3433.57
425.45	3604.42
425.64	3538.89
425.83	3513.14
426.01	3562.30
426.20	3489.74
426.39	3541.23
426.58	3323.56
426.77	3459.31
426.96	3583.36
427.15	3674.64
427.33	3691.02
427.52	3585.70
427.71	3676.98
427.90	3489.74
428.09	3597.40
428.28	3698.05
428.46	3695.71
428.65	3747.20
428.84	3733.15
429.03	3859.54
429.22	3606.77
429.40	3634.85
429.59	3651.24
429.78	3611.45
429.97	3517.83
430.16	3691.02
430.34	3684.00
430.53	3812.73
430.72	3709.75
430.91	3583.36
431.10	3808.05
431.28	4011.68
431.47	4065.51
431.66	4067.85
431.85	3955.51
432.03	3995.29
432.22	4119.34
432.41	4056.15
432.60	4063.17
432.79	4002.32
432.97	4128.70
433.16	4149.77
433.35	3922.74
433.54	4105.30
433.72	4131.05
433.91	4100.62
434.10	4376.80
434.28	4072.53
434.47	4100.62
434.66	4297.22
434.85	4191.90
435.03	4308.93
435.22	4477.44
435.41	4362.76
435.59	4397.87
435.78	4318.29
435.97	4432.97
436.16	4374.46
436.34	4404.89
436.53	4521.92
436.72	4610.86
436.90	4514.89
437.09	4517.23
437.28	4423.61
437.46	4578.09
437.65	4507.87
437.84	4627.24
438.02	4587.45
438.21	4741.93
438.40	4594.47
438.58	4681.07
438.77	4828.53
438.96	4849.59
439.14	4926.83
439.33	4903.42
439.52	4915.12
439.70	5018.11
439.89	4983.00
440.08	4889.38
440.26	4957.25
440.45	5095.35
440.63	5064.92
440.82	5107.05
441.01	5240.46
441.19	5193.65
441.38	5261.52
441.57	5348.12
441.75	5371.53
441.94	5455.79
442.12	5502.60
442.31	5563.45
442.50	5357.49
442.68	5497.92
442.87	5462.81
443.05	5504.94
443.24	5692.18
443.43	5535.37
443.61	5633.67
443.80	5673.46
443.98	5479.19
444.17	5383.23
444.35	5537.71
444.54	5638.35
444.73	5741.33
444.91	5661.76
445.10	5757.72
445.28	5628.99
445.47	5490.90
445.65	5694.52
445.84	5596.22
446.02	5827.93
446.21	5865.38
446.39	5863.04
446.58	5898.15
446.77	5657.07
446.95	5720.27
447.14	5891.13
447.32	5930.92
447.51	5797.51
447.69	5643.03
447.88	5760.06
448.06	5790.49
448.25	5909.85
448.43	6015.18
448.62	5706.23
448.80	5621.97
448.99	5980.07
449.17	5909.85
449.36	5951.98
449.54	5984.75
449.73	5961.34
449.91	6120.50
450.10	6057.31
450.28	6080.71
450.46	6286.68
450.65	6146.25
450.83	6202.42
451.02	6258.59
451.20	6307.74
451.39	6263.27
451.57	6225.82
451.76	6244.55
451.94	6317.11
452.13	6434.13
452.31	6506.69
452.49	6300.72
452.68	6490.31
452.86	6228.17
453.05	6242.21
453.23	6382.64
453.42	6396.68
453.60	6363.92
453.78	6490.31
453.97	6520.73
454.15	6408.39
454.34	6317.11
454.52	6637.76
454.70	6576.91
454.89	6614.35
455.07	6743.08
455.26	6686.91
455.44	6677.55
455.62	6785.21
455.81	6726.70
455.99	6815.64
456.17	6806.28
456.36	6944.37
456.54	6925.65
456.73	6970.12
456.91	6998.20
457.09	7295.45
457.28	7159.70
457.46	6998.20
457.64	7178.42
457.83	7066.08
458.01	6832.02
458.19	7162.04
458.38	7094.16
458.56	7225.23
458.74	7250.98
458.93	7332.90
459.11	7382.05
459.29	7300.13
459.48	7433.54
459.66	7297.79
459.84	7351.62
460.03	7435.88
460.21	7314.17
460.39	7391.41
460.57	7461.63
460.76	7520.14
460.94	7571.63
461.12	7527.16
461.31	7548.23
461.49	7513.12
461.67	7550.57
461.85	7770.58
462.04	7831.43
462.22	8028.04
462.40	7885.26
462.59	7826.75
462.77	7885.26
462.95	7887.61
463.13	7885.26
463.32	7770.58
463.50	7822.07
463.68	7789.30
463.86	7918.03
464.05	7997.61
464.23	7817.39
464.41	7934.42
464.59	7915.69
464.78	8226.98
464.96	7995.27
465.14	7896.97
465.32	8114.64
465.50	8072.51
465.69	8243.37
465.87	8063.15
466.05	8147.40
466.23	8184.85
466.41	8348.69
466.60	8182.51
466.78	8098.25
466.96	8201.24
467.14	8187.19
467.32	8264.43
467.51	8367.42
467.69	8102.93
467.87	8255.07
468.05	8360.39
468.23	8236.35
468.41	8393.16
468.60	8463.38
468.78	8430.61
468.96	8528.91
469.14	8444.65
469.32	8587.43
469.50	8456.36
469.69	8594.45
469.87	8540.61
470.05	8809.78
470.23	8844.88
470.41	8772.33
470.59	8779.35
470.77	8720.84
470.95	8917.44
471.14	9090.64
471.32	8870.63
471.50	9102.34
471.68	9221.71
471.86	9055.53
472.04	9179.58
472.22	9357.46
472.40	9132.77
472.58	9095.32
472.77	9238.09
472.95	9298.95
473.13	9448.74
473.31	9224.05
473.49	9420.66
473.67	9245.12
473.85	9556.41
474.03	9998.77
474.21	9703.86
474.39	9767.06
474.57	9841.95
474.75	9940.26
474.93	9827.91
475.12	9928.55
475.30	9930.89
475.48	9998.77
475.66	9987.07
475.84	9930.89
476.02	10059.62
476.20	10331.12
476.38	10258.57
476.56	10649.44
476.74	10480.92
476.92	10272.61
477.10	10532.41
477.28	10824.98
477.46	10700.93
477.64	10778.17
477.82	11049.67
478.00	11255.64
478.18	10979.45
478.36	11054.35
478.54	11171.38
478.72	11367.98
478.90	11590.33
479.08	11447.56
479.26	11747.15
479.44	11590.33
479.62	11520.12
479.80	11868.86
479.98	11957.80
480.16	12039.72
480.34	12091.21
480.52	12248.02
480.70	11981.20
480.88	12135.68
481.06	12201.21
481.24	12205.89
481.41	12468.03
481.59	12657.62
481.77	12842.52
481.95	12699.75
482.13	12940.82
482.31	12865.92
482.49	13364.46
482.67	13099.98
482.85	13219.35
483.03	13364.46
483.21	13652.34
483.39	13577.45
483.57	13603.19
483.74	13792.78
483.92	13914.48
484.10	14136.84
484.28	14059.60
484.46	14272.59
484.64	14609.62
484.82	14174.28
485.00	14059.60
485.18	14778.14
485.35	15033.26
485.53	14607.28
485.71	14899.85
485.89	15293.06
486.07	14920.92
486.25	15016.88
486.43	15187.74
486.61	15545.84
486.78	15988.20
486.96	15822.02
487.14	15683.93
487.32	15871.17
487.50	16189.49
487.68	16203.53
487.85	16596.74
488.03	16542.91
488.21	16936.12
488.39	16709.08
488.57	16891.65
488.75	17109.32
488.92	17245.07
489.10	17170.17
489.28	17561.04
489.46	17532.95
489.64	17319.96
489.81	17930.84
489.99	18080.64
490.17	18045.53
490.35	18162.56
490.53	17940.21
490.70	18705.56
490.88	18609.60
491.06	19014.51
491.24	18623.64
491.41	18792.16
491.59	18857.70
491.77	19150.26
491.95	19396.02
492.13	19454.53
492.30	19278.99
492.48	19407.72
492.66	19454.53
492.84	19370.27
493.01	19756.46
493.19	19803.27
493.37	20098.18
493.54	20133.29
493.72	20336.91
493.90	20304.15
494.08	20760.55
494.25	20875.24
494.43	20893.96
494.61	20968.86
494.79	21102.27
494.96	21036.74
495.14	21357.39
495.32	21312.92
495.49	21511.86
495.67	21465.05
495.85	21460.37
496.02	22038.48
496.20	21809.11
496.38	21933.16
496.55	22001.04
496.73	22637.66
496.91	22462.12
497.09	22321.69
497.26	22808.52
497.44	22700.86
497.62	22721.92
497.79	22635.32
497.97	23061.30
498.14	23073.00
498.32	23185.35
498.50	23445.15
498.67	23386.63
498.85	23173.64
499.03	23616.01
499.20	23447.49
499.38	23847.72
499.56	23775.16
499.73	24006.87
499.91	24049.00
500.08	24379.02
500.26	23871.12
500.44	24292.42
500.61	24439.87
500.79	24116.88
500.97	24751.17
501.14	24924.36
501.32	24807.34
501.49	25158.42
501.67	24737.12
501.84	24863.51
502.02	25032.03
502.20	25223.95
502.37	25181.82
502.55	25013.31
502.72	25109.27
502.90	25170.12
503.07	25720.15
503.25	25476.73
503.43	25921.43
503.60	25687.38
503.78	25598.44
503.95	25708.44
504.13	26155.49
504.30	25879.30
504.48	25935.48
504.65	26225.70
504.83	26534.65
505.01	26546.36
505.18	26270.17
505.36	26902.12
505.53	26497.20
505.71	26974.67
505.88	27260.22
506.06	26724.24
506.23	26536.99
506.41	26850.63
506.58	26859.99
506.76	27077.66
506.93	27187.66
507.11	27302.35
507.28	27468.53
507.46	27583.21
507.63	27393.63
507.81	28135.58
507.98	27421.72
508.16	27695.56
508.33	27770.46
508.50	27885.14
508.68	28095.79
508.85	28194.09
509.03	28046.64
509.20	28290.06
509.38	28540.49
509.55	28781.57
509.73	28718.37
509.90	28514.75
510.08	28404.74
510.25	28697.31
510.42	28683.27
510.60	28638.80
510.77	28973.49
510.95	29078.82
511.12	28610.71
511.30	29198.18
511.47	29460.32
511.64	29312.87
511.82	29645.23
511.99	29535.22
512.17	29680.33
512.34	29193.50
512.51	29589.05
512.69	29961.20
512.86	29816.08
513.04	30061.84
513.21	30422.28
513.38	30307.60
513.56	30211.64
513.73	29944.81
513.90	30953.58
514.08	30565.06
514.25	30457.39
514.43	31058.91
514.60	30293.55
514.77	30459.73
514.95	30864.64
515.12	30827.20
515.29	30710.17
515.47	31281.26
515.64	31316.37
515.81	30866.98
515.99	30944.22
516.16	31360.84
516.33	31365.52
516.51	31365.52
516.68	31051.89
516.85	30866.98
517.03	31208.70
517.20	31412.33
517.37	31454.46
517.54	31496.59
517.72	31519.99
517.89	31725.96
518.06	31363.18
518.24	31721.28
518.41	31377.22
518.58	31730.64
518.75	31992.78
518.93	32254.92
519.10	31960.02
519.27	32018.53
519.45	32252.58
519.62	32545.15
519.79	32797.93
519.96	32716.01
520.14	32751.12
520.31	32538.13
520.48	33163.05
520.65	32833.04
520.83	33141.99
521.00	33427.53
521.17	32739.41
521.34	33390.08
521.52	33296.46
521.69	33450.94
521.86	33560.94
522.03	33909.68
522.20	33612.43
522.38	33703.71
522.55	33741.16
522.72	34108.63
522.89	33345.61
523.07	33993.94
523.24	33645.20
523.41	33638.18
523.58	34022.03
523.75	34590.78
523.92	34223.31
524.10	34497.16
524.27	34103.95
524.44	34731.21
524.61	34174.16
524.78	34735.89
524.96	34543.97
525.13	34831.85
525.30	35023.78
525.47	35105.70
525.64	34951.22
525.81	35005.05
525.98	35086.97
526.16	34871.64
526.33	34689.08
526.50	35077.61
526.67	35211.02
526.84	35271.87
527.01	34972.28
527.18	35077.61
527.36	35211.02
527.53	35505.93
527.70	35845.30
527.87	36044.25
528.04	35360.81
528.21	35718.92
528.38	35314.00
528.55	36191.70
528.72	35938.93
528.89	35934.24
529.07	36079.36
529.24	35943.61
529.41	36023.19
529.58	35967.01
529.75	35639.34
529.92	36135.53
530.09	36484.27
530.26	36018.50
530.43	36357.88
530.60	36215.11
530.77	36755.77
530.94	36896.20
531.11	36531.08
531.28	36837.69
531.46	36725.35
531.63	36762.79
531.80	37046.00
531.97	36723.01
532.14	37200.47
532.31	36458.52
532.48	36917.27
532.65	37308.14
532.82	36634.06
532.99	37041.32
533.16	36884.50
533.33	37024.93
533.50	37099.83
533.67	37717.73
533.84	37036.64
534.01	36856.42
534.18	37305.80
534.35	37968.17
534.52	37544.53
534.69	37207.50
534.86	37354.95
535.03	37399.42
535.20	37811.35
535.37	38033.71
535.54	37787.95
535.71	38000.94
535.88	37944.76
536.05	37954.13
536.22	37996.26
536.38	38237.33
536.55	38272.44
536.72	37949.45
536.89	37944.76
537.06	38022.00
537.23	37993.92
537.40	38466.70
537.57	37975.19
537.74	38389.47
537.91	38595.43
538.08	38782.68
538.25	38014.98
538.42	38567.35
538.59	38478.41
538.75	38328.61
538.92	38384.79
539.09	39009.71
539.26	38677.35
539.43	38990.98
539.60	38806.08
539.77	38895.02
539.94	38464.36
540.11	38927.79
540.28	39189.93
540.44	38738.21
540.61	38522.88
540.78	39189.93
540.95	38817.78
541.12	38822.47
541.29	39215.68
541.46	39192.27
541.62	38967.58
541.79	39651.02
541.96	39051.84
542.13	39110.35
542.30	39356.11
542.47	39791.45
542.63	39379.51
542.80	40210.40
542.97	40020.82
543.14	40486.59
543.31	40144.87
543.48	40226.79
543.64	40512.33
543.81	40039.54
543.98	40037.20
544.15	39845.28
544.32	40130.83
544.48	40322.75
544.65	40048.91
544.82	40105.08
544.99	39889.75
545.16	40203.38
545.32	40493.61
545.49	40545.10
545.66	40655.11
545.83	40533.40
546.00	40680.85
546.16	40947.67
546.33	40491.27
546.50	40137.85
546.67	40781.49
546.83	40519.35
547.00	40512.33
547.17	40968.74
547.34	40697.24
547.50	40753.41
547.67	40968.74
547.84	41205.13
548.00	41097.47
548.17	40989.80
548.34	40802.56
548.51	41221.52
548.67	41319.82
548.84	41413.44
549.01	41235.56
549.18	41631.11
549.34	41624.09
549.51	41282.37
549.68	41275.35
549.84	41549.19
550.01	41846.44
550.18	41572.60
550.34	41607.70
550.51	41336.20
550.68	41263.64
550.84	41057.68
551.01	41247.26
551.18	41549.19
551.34	41626.43
551.51	41511.74
551.68	41577.28
551.84	41422.80
552.01	41738.77
552.18	42127.30
552.34	41631.11
552.51	41729.41
552.68	41766.86
552.84	41865.16
553.01	41904.95
553.18	42183.48
553.34	42094.53
553.51	41783.24
553.67	41647.49
553.84	42260.71
554.01	41834.74
554.17	42492.43
554.34	42389.44
554.51	42143.69
554.67	42541.58
554.84	42541.58
555.00	42429.23
555.17	42412.85
555.33	42625.84
555.50	42529.87
555.67	42550.94
555.83	42506.47
556.00	42595.41
556.16	42511.15
556.33	42686.69
556.50	42717.12
556.66	42611.79
556.83	42483.06
556.99	42906.70
557.16	42756.91
557.32	42780.31
557.49	42754.57
557.65	42792.01
557.82	42497.11
557.98	42300.50
558.15	42885.64
558.32	43353.74
558.48	42974.58
558.65	42665.63
558.81	42845.85
558.98	42871.59
559.14	42733.50
559.31	43133.73
559.47	42979.26
559.64	43234.38
559.80	43196.93
559.97	43180.54
560.13	42803.72
560.30	42572.00
560.46	42892.66
560.63	43030.75
560.79	43082.24
560.96	43026.07
561.12	43105.65
561.29	43012.02
561.45	43246.08
561.61	43175.86
561.78	43573.75
561.94	43100.97
562.11	43021.39
562.27	42625.84
562.44	43269.48
562.60	43384.17
562.77	43543.33
562.93	43517.58
563.10	43608.86
563.26	42761.59
563.42	43290.55
563.59	43236.72
563.75	43498.86
563.92	43955.26
564.08	43491.83
564.24	43606.52
564.41	43714.19
564.57	43103.31
564.74	43040.11
564.90	43690.78
565.07	43674.40
565.23	43325.66
565.39	43639.29
565.56	43882.70
565.72	43775.04
565.88	43370.13
566.05	43723.55
566.21	43363.11
566.38	43571.41
566.54	43540.99
566.70	43798.44
566.87	43969.30
567.03	43831.21
567.19	43854.62
567.36	43433.32
567.52	43533.96
567.68	43725.89
567.85	44009.09
568.01	43929.51
568.17	43557.37
568.34	43892.07
568.50	43627.59
568.66	43882.70
568.83	43468.43
568.99	43379.49
569.15	43594.82
569.32	43749.29
569.48	43489.49
569.64	43672.06
569.81	43981.01
569.97	43807.81
570.13	43915.47
570.30	43650.99
570.46	43360.76
570.62	43473.11
570.78	43835.89
570.95	43374.81
571.11	44086.33
571.27	44030.16
571.43	43594.82
571.60	44369.54
571.76	43744.61
571.92	43840.57
572.09	43990.37
572.25	43498.86
572.41	43849.94
572.57	43873.34
572.74	44516.99
572.90	43662.69
573.06	44404.64
573.22	43438.00
573.38	43999.73
573.55	43913.13
573.71	44395.28
573.87	44093.35
574.03	44041.86
574.20	43889.73
574.36	43952.92
574.52	44219.74
574.68	44170.59
574.84	44240.81
575.01	44079.31
575.17	44025.48
575.33	44133.14
575.49	43969.30
575.65	44177.61
575.82	44399.96
575.98	44053.56
576.14	44322.72
576.30	43971.64
576.46	44219.74
576.62	43931.86
576.79	43899.09
576.95	43725.89
577.11	44226.76
577.27	43995.05
577.43	43695.46
577.59	44406.98
577.75	44135.48
577.92	43920.15
578.08	43873.34
578.24	43866.32
578.40	44098.03
578.56	44458.48
578.72	44435.07
578.88	44105.06
579.04	44376.56
579.21	43913.13
579.37	44282.94
579.53	43889.73
579.69	43936.54
579.85	44259.53
580.01	44648.06
580.17	44144.84
580.33	44664.44
580.49	44502.95
580.65	43990.37
580.82	44336.77
580.98	44479.54
581.14	43887.39
581.30	44189.31
581.46	44065.27
581.62	44236.12
581.78	44184.63
581.94	44128.46
582.10	44107.40
582.26	44315.70
582.42	44540.39
582.58	44409.32
582.74	43871.00
582.90	44453.79
583.06	44772.11
583.22	44538.05
583.38	44547.42
583.54	44198.68
583.70	44053.56
583.86	44388.26
584.02	44072.29
584.18	44252.51
584.34	44308.68
584.50	44531.03
584.66	44336.77
584.82	44280.60
584.98	44343.79
585.14	44643.38
585.30	44116.76
585.46	44446.77
585.62	43594.82
585.78	44559.12
585.94	43665.03
586.10	44404.64
586.26	44037.18
586.42	44062.93
586.58	44559.12
586.74	44208.04
586.90	44184.63
587.06	44161.23
587.22	44547.42
587.38	43971.64
587.54	44694.87
587.70	44463.16
587.86	44292.30
588.02	44458.48
588.18	44868.07
588.34	44018.46
588.49	43819.51
588.65	44053.56
588.81	43721.21
588.97	44289.96
589.13	44215.06
589.29	43866.32
589.45	44514.65
589.61	44566.14
589.77	44383.58
589.93	44655.08
590.08	44561.46
590.24	44708.91
590.40	44474.86
590.56	44683.17
590.72	44318.04
590.88	44252.51
591.04	44196.34
591.20	44790.83
591.35	44933.60
591.51	44746.36
591.67	44250.17
591.83	44315.70
591.99	44570.82
592.15	44470.18
592.31	44589.55
592.46	44385.92
592.62	44559.12
592.78	44671.46
592.94	44968.71
593.10	44914.88
593.26	44807.22
593.41	44275.91
593.57	44680.83
593.73	44741.68
593.89	44992.12
594.05	44390.60
594.20	44814.24
594.36	44769.77
594.52	44793.17
594.68	44891.48
594.84	44673.81
594.99	44987.44
595.15	44563.80
595.31	44964.03
595.47	45085.74
595.62	44690.19
595.78	44793.17
595.94	45310.43
596.10	44938.29
596.25	44980.42
596.41	44907.86
596.57	44804.88
596.73	44968.71
596.88	44114.42
597.04	44910.20
597.20	44769.77
597.36	44889.13
597.51	44713.59
597.67	44615.29
597.83	44758.06
597.99	45090.42
598.14	45059.99
598.30	44774.45
598.46	44744.02
598.61	44975.73
598.77	44631.68
598.93	44957.01
599.09	44767.43
599.24	45174.68
599.40	44706.57
599.56	45104.46
599.71	44818.92
599.87	45235.53
600.03	44989.78
600.18	45043.61
600.34	44889.13
600.50	45069.36
600.65	44877.43
600.81	44781.47
600.97	45130.21
601.12	45390.01
601.28	45048.29
601.44	44786.15
601.59	44872.75
601.75	44439.75
601.91	44786.15
602.06	44753.38
602.22	44947.65
602.37	44931.26
602.53	45305.75
602.69	44964.03
602.84	44566.14
603.00	44655.08
603.16	44711.25
603.31	44411.67
603.47	44655.08
603.62	44357.83
603.78	45177.02
603.94	44713.59
604.09	45034.25
604.25	44893.82
604.40	44975.73
604.56	44631.68
604.71	45155.96
604.87	44196.34
605.03	45067.02
605.18	44971.05
605.34	44666.78
605.49	44545.08
605.65	44884.45
605.80	44697.21
605.96	44961.69
606.12	44832.96
606.27	44608.27
606.43	44622.31
606.58	45221.49
606.74	44493.58
606.89	44306.34
607.05	44734.66
607.20	44701.89
607.36	44500.61
607.51	44933.60
607.67	44657.42
607.82	45036.59
607.98	44371.88
608.13	44273.57
608.29	44769.77
608.44	44634.02
608.60	44011.43
608.75	43824.19
608.91	44208.04
609.06	44009.09
609.22	44811.90
609.37	44392.94
609.53	44823.60
609.68	44615.29
609.84	44402.30
609.99	44439.75
610.15	44238.47
610.30	44273.57
610.46	44210.38
610.61	44098.03
610.76	44013.77
610.92	44151.87
611.07	44215.06
611.23	44013.77
611.38	44165.91
611.54	44222.08
611.69	44002.07
611.84	44315.70
612.00	44151.87
612.15	44034.84
612.31	43817.17
612.46	43880.36
612.62	44460.82
612.77	44011.43
612.92	44554.44
613.08	44306.34
613.23	43746.95
613.39	43889.73
613.54	43793.76
613.69	43966.96
613.85	43604.18
614.00	43899.09
614.15	44657.42
614.31	44245.49
614.46	44081.65
614.62	44156.55
614.77	43807.81
614.92	43306.93
615.08	43725.89
615.23	43765.68
615.38	43863.98
615.54	43690.78
615.69	43744.61
615.84	43332.68
616.00	43395.87
616.15	43489.49
616.30	43508.22
616.46	43690.78
616.61	43435.66
616.76	43405.23
616.92	43660.35
617.07	43412.26
617.22	43304.59
617.37	43669.72
617.53	43730.57
617.68	43175.86
617.83	43393.53
617.99	43599.50
618.14	43777.38
618.29	43466.09
618.45	43014.37
618.60	42820.10
618.75	43690.78
618.90	43594.82
619.06	43143.09
619.21	43505.88
619.36	43540.99
619.51	43435.66
619.67	42674.99
619.82	43234.38
619.97	42836.48
620.12	42909.04
620.28	43239.06
620.43	43243.74
620.58	42642.22
620.73	42754.57
620.89	43065.86
621.04	43267.14
621.19	43115.01
621.34	43196.93
621.49	43089.26
621.65	42878.61
621.80	42934.79
621.95	42705.41
622.10	42934.79
622.25	42043.04
622.41	42541.58
622.56	42459.66
622.71	42981.60
622.86	42541.58
623.01	42543.92
623.16	43002.66
623.32	42494.77
623.47	43103.31
623.62	42630.52
623.77	42258.37
623.92	43065.86
624.07	42033.68
624.23	42422.21
624.38	42464.34
624.53	42466.68
624.68	42763.93
624.83	42593.07
624.98	42653.92
625.13	42326.25
625.29	42021.98
625.44	42099.22
625.59	41914.31
625.74	41715.37
625.89	42047.72
626.04	41579.62
626.19	41808.99
626.34	42216.24
626.49	42143.69
626.65	41986.87
626.80	42478.38
626.95	42082.83
627.10	41989.21
627.25	41647.49
627.40	41890.91
627.55	41570.25
627.70	41223.86
627.85	41450.89
628.00	41745.80
628.15	42066.45
628.30	41970.49
628.45	41432.16
628.60	41752.82
628.76	42054.75
628.91	41909.63
629.06	41497.70
629.21	41563.23
629.36	41284.71
629.51	41174.70
629.66	41371.31
629.81	41184.07
629.96	41532.81
630.11	41418.12
630.26	41282.37
630.41	41675.58
630.56	41481.31
630.71	41237.90
630.86	41514.08
631.01	41450.89
631.16	41202.79
631.31	40802.56
631.46	40708.94
631.61	41060.02
631.76	41256.62
631.91	41462.59
632.06	40978.10
632.21	40884.48
632.36	41265.99
632.51	41024.91
632.66	41427.48
632.81	40610.64
632.96	41099.81
633.10	40706.60
633.25	40676.17
633.40	40905.54
633.55	41361.95
633.70	41050.66
633.85	40416.37
634.00	40837.67
634.15	40959.38
634.30	40741.71
634.45	40678.51
634.60	40825.96
634.75	40605.95
634.90	40694.89
635.05	40453.82
635.19	41038.95
635.34	40584.89
635.49	40690.21
635.64	40374.24
635.79	40247.85
635.94	40308.71
636.09	40289.98
636.24	40285.30
636.39	39936.56
636.53	40240.83
636.68	40069.97
636.83	40215.08
636.98	40439.78
637.13	39625.27
637.28	40287.64
637.43	40357.86
637.57	40245.51
637.72	40315.73
637.87	40432.75
638.02	40407.01
638.17	39789.11
638.32	39826.56
638.46	39639.31
638.61	39772.72
638.76	39358.45
638.91	39526.97
639.06	39751.66
639.20	39831.24
639.35	39627.61
639.50	39440.37
639.65	39782.09
639.80	39756.34
639.94	39683.78
640.09	39438.03
640.24	39351.43
640.39	39562.08
640.54	39896.77
640.68	39428.66
640.83	39571.44
640.98	39566.76
641.13	39323.34
641.27	39653.36
641.42	39690.80
641.57	39693.15
641.72	39714.21
641.86	39463.77
642.01	39262.49
642.16	39812.51
642.31	38836.51
642.45	39508.24
642.60	38745.23
642.75	39278.87
642.90	39538.67
643.04	39175.89
643.19	38974.60
643.34	39468.45
643.48	38998.01
643.63	39131.42
643.78	38525.22
643.93	38897.36
644.07	38536.92
644.22	38628.20
644.37	38780.34
644.51	38515.86
644.66	38855.23
644.81	38923.11
644.95	39042.48
645.10	38752.25
645.25	38871.62
645.39	39257.81
645.54	38979.28
645.69	38665.65
645.83	38408.19
645.98	38714.80
646.13	38792.04
646.27	38672.67
646.42	38665.65
646.57	38920.77
646.71	38555.64
646.86	38567.35
647.00	38572.03
647.15	38565.01
647.30	38518.20
647.44	38440.96
647.59	38359.04
647.74	38117.96
647.88	38572.03
648.03	38429.26
648.17	38213.93
648.32	38827.15
648.47	38213.93
648.61	38277.12
648.76	38611.82
648.90	37862.85
649.05	38312.23
649.20	38455.00
649.34	38487.77
649.49	37820.72
649.63	38050.09
649.78	38024.34
649.92	38057.11
650.07	38181.16
650.21	37750.50
650.36	37904.98
650.51	37888.59
650.65	38288.82
650.80	38293.50
650.94	37926.04
651.09	37991.58
651.23	37699.01
651.38	37977.53
651.52	37701.35
651.67	37610.07
651.81	37984.55
651.96	37750.50
652.10	37368.99
652.25	37598.37
652.39	37668.58
652.54	37368.99
652.68	37876.89
652.83	37834.76
652.97	37507.08
653.12	37523.47
653.26	37951.79
653.41	37701.35
653.55	37048.34
653.70	37530.49
653.84	37532.83
653.99	37652.20
654.13	37816.04
654.27	37549.21
654.42	36917.27
654.56	37333.89
654.71	37249.63
654.85	37090.47
655.00	37067.06
655.14	36975.78
655.29	36802.58
655.43	36926.63
655.57	36767.48
655.72	36142.55
655.86	37057.70
656.01	36802.58
656.15	36877.48
656.30	36856.42
656.44	36692.58
656.58	36687.90
656.73	36505.34
656.87	36348.52
657.01	36435.12
657.16	36463.21
657.30	36458.52
657.45	36299.37
657.59	36505.34
657.73	36591.94
657.88	36678.54
658.02	36680.88
658.16	36708.96
658.31	36685.56
658.45	36591.94
658.60	36392.99
658.74	36486.61
658.88	36444.48
659.03	36371.92
659.17	35945.95
659.31	36140.21
659.46	35765.73
659.60	36016.16
659.74	36044.25
659.89	36128.51
660.03	35885.09
660.17	36299.37
660.32	35959.99
660.46	36273.62
660.60	36329.80
660.74	35999.78
660.89	36311.07
661.03	35077.61
661.17	35655.72
661.32	35550.40
661.46	35438.05
661.60	35346.77
661.74	35101.01
661.89	35571.46
662.03	35297.62
662.17	35161.87
662.31	35189.95
662.46	35222.72
662.60	35395.92
662.74	35241.45
662.88	35283.58
663.03	35047.18
663.17	35393.58
663.31	34735.89
663.45	35150.17
663.60	35461.46
663.74	34841.21
663.88	34848.24
664.02	34609.50
664.17	34728.87
664.31	34546.31
664.45	34539.29
664.59	34909.09
664.73	34939.52
664.88	34356.72
665.02	33942.45
665.16	34300.55
665.30	34408.22
665.44	34572.05
665.59	33745.84
665.73	34298.21
665.87	33954.15
666.01	34059.48
666.15	34073.52
666.29	33865.21
666.44	33787.97
666.58	33823.08
666.72	34183.52
666.86	34499.50
667.00	33998.62
667.14	33486.04
667.28	33713.08
667.43	33287.10
667.57	33266.03
667.71	33315.19
667.85	33277.74
667.99	33523.49
668.13	33338.59
668.27	33277.74
668.41	33483.70
668.56	32978.15
668.70	33493.07
668.84	33031.98
668.98	32795.59
669.12	32903.25
669.26	33291.78
669.40	32809.63
669.54	32704.31
669.68	32563.87
669.82	32652.81
669.96	32748.78
670.10	32737.07
670.25	32830.69
670.39	32219.81
670.53	32655.15
670.67	32205.77
670.81	32301.73
670.95	32751.12
671.09	31985.76
671.23	32561.53
671.37	32266.63
671.51	32156.62
671.65	31981.08
671.79	31758.73
671.93	32051.30
672.07	31814.90
672.21	31892.14
672.35	31798.52
672.49	31711.92
672.63	31688.51
672.77	31777.45
672.91	31725.96
673.05	31253.17
673.19	31449.78
673.33	31140.83
673.47	31091.68
673.61	31023.80
673.75	31110.40
673.89	30841.24
674.03	30916.14
674.17	30569.74
674.31	30754.64
674.45	30574.42
674.59	30749.96
674.73	30955.93
674.87	30960.61
675.01	30522.93
675.15	30604.84
675.29	30672.72
675.43	30909.11
675.56	30115.67
675.70	30174.19
675.84	30113.33
675.98	29186.48
676.12	30092.27
676.26	29862.90
676.40	29631.18
676.54	29530.54
676.68	30040.78
676.82	29036.69
676.96	29703.74
677.10	29406.49
677.23	29102.22
677.37	29331.59
677.51	29130.31
677.65	28699.65
677.79	28671.56
677.93	29071.79
678.07	28884.55
678.21	28446.87
678.34	28421.13
678.48	28423.47
678.62	28128.56
678.76	27983.44
678.90	28250.27
679.04	28116.86
679.18	28320.48
679.31	27824.29
679.45	27718.96
679.59	27660.45
679.73	27784.50
679.87	27524.70
680.00	27395.97
680.14	27747.05
680.28	27566.83
680.42	27042.55
680.56	27477.89
680.70	27047.23
680.83	27271.92
680.97	26733.60
681.11	26803.82
681.25	26604.87
681.39	26506.57
681.52	26815.52
681.66	26764.03
681.80	26637.64
681.94	26576.78
682.07	26541.68
682.21	26321.66
682.35	26387.20
682.49	26642.32
682.62	26099.31
682.76	25462.69
682.90	25572.69
683.04	25944.84
683.17	25724.83
683.31	25682.70
683.45	25577.37
683.59	25975.27
683.72	25240.34
683.86	25149.06
684.00	25013.31
684.13	25322.26
684.27	25083.52
684.41	25050.75
684.55	24886.92
684.68	24596.69
684.82	24311.14
684.96	24484.34
685.09	24423.49
685.23	24418.81
685.37	24329.87
685.50	24414.13
685.64	24034.96
685.78	24140.29
685.91	24259.65
686.05	23704.95
686.19	23405.36
686.32	23653.45
686.46	23555.15
686.60	23346.84
686.73	23632.39
686.87	23646.43
687.01	23419.40
687.14	23262.58
687.28	22862.35
687.42	23311.74
687.55	22932.57
687.69	22757.03
687.82	22623.62
687.96	22721.92
688.10	22707.88
688.23	22214.02
688.37	22419.99
688.50	22253.81
688.64	22277.22
688.78	22469.14
688.91	21984.65
689.05	21874.65
689.18	21781.03
689.32	21715.49
689.46	21886.35
689.59	21610.17
689.73	21984.65
689.86	21598.46
690.00	21509.52
690.13	21511.86
690.27	20971.20
690.41	21462.71
690.54	21092.91
690.68	20847.15
690.81	20912.69
690.95	20798.00
691.08	20603.74
691.22	20566.29
691.35	20718.42
691.49	20919.71
691.62	20706.72
691.76	20992.26
691.89	20802.68
692.03	20526.50
692.16	20297.13
692.30	20318.19
692.43	20105.20
692.57	19800.93
692.70	20149.67
692.84	19885.19
692.97	19777.53
693.11	19646.46
693.24	20233.93
693.38	19702.63
693.51	19379.64
693.65	19456.87
693.78	19307.08
693.92	19538.79
694.05	19232.18
694.19	18923.23
694.32	19108.13
694.45	19009.83
694.59	19016.85
694.72	19023.87
694.86	18799.18
694.99	18773.44
695.13	18771.10
695.26	18443.42
695.39	18113.41
695.53	18403.63
695.66	18412.99
695.80	18174.26
695.93	18155.54
696.07	18047.87
696.20	18094.68
696.33	18082.98
696.47	17678.07
696.60	17661.68
696.73	17860.63
696.87	17256.77
697.00	17645.30
697.14	17680.41
697.27	17647.64
697.40	17418.27
697.54	17446.35
697.67	17165.49
697.80	17083.57
697.94	17214.64
698.07	16973.56
698.21	17097.61
698.34	17085.91
698.47	16961.86
698.61	16662.27
698.74	16528.86
698.87	16673.98
699.01	16112.25
699.14	16320.56
699.27	16355.66
699.40	16116.93
699.54	16264.38
699.67	16013.95
699.80	15697.97
699.94	16173.10
700.07	16074.80
700.20	15777.55
700.34	15634.78
700.47	16058.42
700.60	15712.02
700.73	15854.79
700.87	15435.83
701.00	15246.25
701.13	15447.54
701.26	15272.00
701.40	15606.69
701.53	15325.83
701.66	15297.74
701.79	14920.92
701.93	14920.92
702.06	14726.65
702.19	14864.74
702.32	14614.30
702.46	14726.65
702.59	14602.60
702.72	14719.63
702.85	14464.51
702.99	14480.89
703.12	14642.39
703.25	14759.42
703.38	14389.61
703.51	14398.98
703.65	14324.08
703.78	14099.39
703.91	13965.98
704.04	14155.56
704.17	13872.36
704.31	14106.41
704.44	13760.01
704.57	13434.68
704.70	13509.57
704.83	13420.63
704.96	13853.63
705.10	13685.11
705.23	13647.66
>>>>>End Processed Spectral Data<<<<<
