SpectraSuite Data File
++++++++++++++++++++++++++++++++++++
Date: Fri Oct 25 11:33:52 EDT 2013
User: price-jones
Dark Spectrum Present: No
Reference Spectrum Present: No
Number of Sampled Component Spectra: 1
Spectrometers: USB2+H05261
Integration Time (usec): 100000 (USB2+H05261)
Spectra Averaged: 1 (USB2+H05261)
Boxcar Smoothing: 0 (USB2+H05261)
Correct for Electrical Dark: No (USB2+H05261)
Strobe/Lamp Enabled: No (USB2+H05261)
Correct for Detector Non-linearity: No (USB2+H05261)
Correct for Stray Light: No (USB2+H05261)
Number of Pixels in Processed Spectrum: 2048
>>>>>Begin Processed Spectral Data<<<<<
365.73	252.78
365.92	252.78
366.12	252.78
366.32	161.50
366.52	262.14
366.72	198.95
366.91	121.71
367.11	168.52
367.31	229.37
367.51	177.88
367.70	166.18
367.90	175.54
368.10	142.77
368.30	142.77
368.49	166.18
368.69	173.20
368.89	152.13
369.09	170.86
369.28	177.88
369.48	166.18
369.68	229.37
369.87	273.84
370.07	217.67
370.27	269.16
370.47	367.46
370.66	465.77
370.86	479.81
371.06	484.49
371.25	540.66
371.45	575.77
371.65	594.50
371.84	582.79
372.04	608.54
372.24	573.43
372.44	622.58
372.63	599.18
372.83	629.60
373.03	585.13
373.22	620.24
373.42	653.01
373.62	643.65
373.81	653.01
374.01	702.16
374.21	720.88
374.40	655.35
374.60	627.26
374.79	690.46
374.99	622.58
375.19	631.94
375.38	688.12
375.58	702.16
375.78	655.35
375.97	655.35
376.17	716.20
376.37	596.84
376.56	760.67
376.76	596.84
376.95	676.41
377.15	706.84
377.35	631.94
377.54	711.52
377.74	660.03
377.93	704.50
378.13	727.91
378.33	741.95
378.52	718.54
378.72	727.91
378.91	674.07
379.11	702.16
379.31	716.20
379.50	629.60
379.70	727.91
379.89	737.27
380.09	711.52
380.28	718.54
380.48	737.27
380.68	720.88
380.87	755.99
381.07	784.08
381.26	779.40
381.46	866.00
381.65	704.50
381.85	793.44
382.04	795.78
382.24	800.46
382.43	725.57
382.63	685.78
382.83	760.67
383.02	851.96
383.22	791.10
383.41	828.55
383.61	816.85
383.80	823.87
384.00	814.51
384.19	861.32
384.39	884.72
384.58	844.93
384.78	828.55
384.97	826.21
385.17	905.79
385.36	830.89
385.56	830.89
385.75	894.08
385.95	851.96
386.14	781.74
386.34	807.48
386.53	791.10
386.72	821.53
386.92	954.94
387.11	858.98
387.31	912.81
387.50	847.27
387.70	858.98
387.89	826.21
388.09	851.96
388.28	877.70
388.48	835.57
388.67	891.74
388.86	957.28
389.06	947.92
389.25	915.15
389.45	980.68
389.64	994.73
389.84	1071.97
390.03	999.41
390.22	1015.79
390.42	1018.13
390.61	926.85
390.81	903.45
391.00	961.96
391.19	978.34
391.39	950.26
391.58	1043.88
391.78	1029.84
391.97	1018.13
392.16	990.05
392.36	1093.03
392.55	1015.79
392.75	1006.43
392.94	1025.15
393.13	1060.26
393.33	961.96
393.52	1022.81
393.71	1137.50
393.91	1036.86
394.10	1036.86
394.29	1093.03
394.49	1132.82
394.68	1116.44
394.88	1015.79
395.07	1109.41
395.26	1181.97
395.46	1245.16
395.65	1170.27
395.84	1172.61
396.04	1259.21
396.23	1184.31
396.42	1167.93
396.62	1196.01
396.81	1228.78
397.00	1235.80
397.19	1273.25
397.39	1254.53
397.58	1303.68
397.77	1226.44
397.97	1247.51
398.16	1247.51
398.35	1238.14
398.55	1214.74
398.74	1261.55
398.93	1277.93
399.12	1317.72
399.32	1348.15
399.51	1338.79
399.70	1345.81
399.90	1310.70
400.09	1345.81
400.28	1390.28
400.47	1439.43
400.67	1439.43
400.86	1383.26
401.05	1430.07
401.24	1299.00
401.44	1394.96
401.63	1439.43
401.82	1458.15
402.01	1390.28
402.21	1437.09
402.40	1495.60
402.59	1486.24
402.78	1493.26
402.97	1432.41
403.17	1530.71
403.36	1621.99
403.55	1579.86
403.74	1652.42
403.93	1607.95
404.13	1701.57
404.32	1593.90
404.51	1600.93
404.70	1643.06
404.89	1603.27
405.09	1537.73
405.28	1706.25
405.47	1591.56
405.66	1732.00
405.85	1584.54
406.05	1729.66
406.24	1701.57
406.43	1760.08
406.62	1746.04
406.81	1802.21
407.00	1776.47
407.20	1699.23
407.39	1727.32
407.58	1806.89
407.77	1849.02
407.96	1830.30
408.15	1937.96
408.34	1825.62
408.54	1942.64
408.73	2010.52
408.92	1891.15
409.11	1923.92
409.30	1933.28
409.49	1982.43
409.68	1956.69
409.87	1968.39
410.07	2143.93
410.26	2127.55
410.45	2111.16
410.64	2113.50
410.83	2040.95
411.02	2064.35
411.21	2223.51
411.40	2157.97
411.59	2193.08
411.78	2298.41
411.98	2186.06
412.17	2272.66
412.36	2167.34
412.55	2246.91
412.74	2300.75
412.93	2307.77
413.12	2345.22
413.31	2415.43
413.50	2483.31
413.69	2370.96
413.88	2532.46
414.07	2516.08
414.26	2595.65
414.45	2565.23
414.64	2588.63
414.83	2527.78
415.02	2658.85
415.22	2668.21
415.41	2614.38
415.60	2644.81
415.79	2677.57
415.98	2813.32
416.17	2782.90
416.36	2715.02
416.55	2717.36
416.74	2693.96
416.93	2803.96
417.12	2778.22
417.31	2801.62
417.50	2909.29
417.69	3009.93
417.88	2918.65
418.07	3068.44
418.26	3023.97
418.45	2986.52
418.64	3143.34
418.83	3002.91
419.02	2958.44
419.21	3105.89
419.39	3105.89
419.58	3040.36
419.77	2956.10
419.96	3176.11
420.15	3091.85
420.34	3208.87
420.53	3232.28
420.72	3229.94
420.91	3208.87
421.10	3246.32
421.29	3346.97
421.48	3241.64
421.67	3293.13
421.86	3148.02
422.05	3267.39
422.24	3255.69
422.43	3342.28
422.61	3372.71
422.80	3468.67
422.99	3307.18
423.18	3463.99
423.37	3384.41
423.56	3279.09
423.75	3304.84
423.94	3199.51
424.13	3204.19
424.32	3389.10
424.50	3398.46
424.69	3403.14
424.88	3489.74
425.07	3368.03
425.26	3382.07
425.45	3323.56
425.64	3396.12
425.83	3445.27
426.01	3585.70
426.20	3492.08
426.39	3571.66
426.58	3459.31
426.77	3466.33
426.96	3517.83
427.15	3456.97
427.33	3482.72
427.52	3522.51
427.71	3510.80
427.90	3534.21
428.09	3524.85
428.28	3648.90
428.46	3590.38
428.65	3639.53
428.84	3623.15
429.03	3791.67
429.22	3592.72
429.40	3639.53
429.59	3763.58
429.78	3756.56
429.97	3667.62
430.16	3754.22
430.34	3882.95
430.53	3978.91
430.72	3922.74
430.91	3861.88
431.10	3819.75
431.28	3932.10
431.47	3955.51
431.66	4009.34
431.85	3843.16
432.03	4053.81
432.22	3985.93
432.41	4121.68
432.60	4086.58
432.79	3880.61
432.97	3978.91
433.16	4154.45
433.35	4126.36
433.54	4109.98
433.72	4159.13
433.91	4231.69
434.10	4243.39
434.28	4138.07
434.47	4264.46
434.66	4400.21
434.85	4327.65
435.03	4379.14
435.22	4308.93
435.41	4407.23
435.59	4489.15
435.78	4287.86
435.97	4479.79
436.16	4409.57
436.34	4306.59
436.53	4542.98
436.72	4470.42
436.90	4479.79
437.09	4365.10
437.28	4411.91
437.46	4521.92
437.65	4482.13
437.84	4685.75
438.02	4681.07
438.21	4547.66
438.40	4624.90
438.58	4758.31
438.77	4760.65
438.96	4725.54
439.14	4720.86
439.33	4865.97
439.52	4842.57
439.70	4940.87
439.89	4943.21
440.08	5083.64
440.26	5069.60
440.45	4915.12
440.63	5256.84
440.82	5247.48
441.01	5039.17
441.19	5210.03
441.38	5057.90
441.57	5128.11
441.75	5242.80
441.94	5343.44
442.12	5329.40
442.31	5451.11
442.50	5401.96
442.68	5446.43
442.87	5207.69
443.05	5638.35
443.24	5565.79
443.43	5486.22
443.61	5558.77
443.80	5652.39
443.98	5397.28
444.17	5294.29
444.35	5582.18
444.54	5666.44
444.73	5558.77
444.91	5526.00
445.10	5643.03
445.28	5600.90
445.47	5614.95
445.65	5612.60
445.84	5675.80
446.02	5755.38
446.21	5612.60
446.39	5500.26
446.58	5818.57
446.77	5659.42
446.95	5614.95
447.14	5734.31
447.32	5802.19
447.51	5750.70
447.69	5771.76
447.88	5795.17
448.06	5675.80
448.25	5813.89
448.43	5921.56
448.62	5816.23
448.80	5865.38
448.99	5937.94
449.17	5813.89
449.36	5750.70
449.54	5832.62
449.73	6099.44
449.91	5900.49
450.10	5951.98
450.28	6195.40
450.46	6104.12
450.65	6160.29
450.83	6183.70
451.02	6073.69
451.20	6113.48
451.39	6122.84
451.57	6085.39
451.76	6012.84
451.94	6164.97
452.13	6207.10
452.31	6143.91
452.49	6064.33
452.68	6197.74
452.86	6497.33
453.05	6349.87
453.23	6401.37
453.42	6169.65
453.60	6303.06
453.78	6450.52
453.97	6375.62
454.15	6338.17
454.34	6373.28
454.52	6246.89
454.70	6583.93
454.89	6630.74
455.07	6464.56
455.26	6794.58
455.44	6736.06
455.62	6607.33
455.81	6555.84
455.99	6731.38
456.17	6712.66
456.36	6677.55
456.54	6710.32
456.73	6810.96
456.91	7014.59
457.09	6913.94
457.28	7199.49
457.46	6885.86
457.64	7014.59
457.83	7061.40
458.01	7063.74
458.19	7063.74
458.38	7103.53
458.56	7190.13
458.74	7059.06
458.93	7140.97
459.11	7157.36
459.29	7171.40
459.48	7108.21
459.66	7346.94
459.84	7229.91
460.03	7499.08
460.21	7470.99
460.39	7391.41
460.57	7468.65
460.76	7255.66
460.94	7452.27
461.12	7487.37
461.31	7581.00
461.49	7571.63
461.67	7499.08
461.85	7637.17
462.04	7534.18
462.22	8107.62
462.40	7646.53
462.59	7714.41
462.77	7683.98
462.95	7779.94
463.13	7627.81
463.32	7665.25
463.50	7791.64
463.68	7756.54
463.86	8058.46
464.05	7969.52
464.23	7770.58
464.41	8070.17
464.59	7880.58
464.78	8222.30
464.96	7878.24
465.14	7812.71
465.32	7896.97
465.50	8173.15
465.69	8156.77
465.87	8121.66
466.05	8037.40
466.23	7941.44
466.41	8116.98
466.60	8306.56
466.78	8081.87
466.96	8086.55
467.14	8294.86
467.32	8402.52
467.51	8266.77
467.69	8177.83
467.87	8266.77
468.05	8512.53
468.23	8222.30
468.41	8449.33
468.60	8517.21
468.78	8498.49
468.96	8454.02
469.14	8519.55
469.32	8645.94
469.50	8540.61
469.69	8760.63
469.87	8709.13
470.05	8585.08
470.23	8828.50
470.41	8702.11
470.59	8973.61
470.77	8781.69
470.95	8915.10
471.14	8861.27
471.32	8840.20
471.50	9043.83
471.68	8973.61
471.86	9004.04
472.04	9270.86
472.22	9500.23
472.40	9163.20
472.58	9205.33
472.77	9479.17
472.95	9277.88
473.13	9453.42
473.31	9298.95
473.49	9425.34
473.67	9465.13
473.85	9619.60
474.03	9764.72
474.21	9687.48
474.39	9589.17
474.57	9617.26
474.75	9760.03
474.93	10005.79
475.12	9790.46
475.30	9909.83
475.48	10085.37
475.66	9963.66
475.84	10001.11
476.02	10242.18
476.20	10193.03
476.38	10471.56
476.56	10635.39
476.74	10504.32
476.92	10532.41
477.10	10464.54
477.28	10551.14
477.46	10693.91
477.64	10829.66
477.82	10862.43
478.00	11330.53
478.18	11054.35
478.36	10991.16
478.54	11323.51
478.72	11501.39
478.90	11494.37
479.08	11665.23
479.26	11578.63
479.44	11595.01
479.62	11763.53
479.80	11932.05
479.98	11939.07
480.16	12362.71
480.34	12086.53
480.52	12334.62
480.70	12449.31
480.88	12039.72
481.06	12472.71
481.24	12435.27
481.41	12547.61
481.59	12453.99
481.77	12671.66
481.95	12685.70
482.13	13011.04
482.31	12879.97
482.49	13383.18
482.67	13273.18
482.85	13380.84
483.03	13577.45
483.21	13858.31
483.39	13720.22
483.57	13434.68
483.74	13937.89
483.92	13994.06
484.10	13921.51
484.28	14221.10
484.46	14354.51
484.64	14714.95
484.82	14218.75
485.00	14370.89
485.18	14883.47
485.35	15077.73
485.53	14932.62
485.71	15091.77
485.89	15431.15
486.07	15154.97
486.25	15410.09
486.43	15316.47
486.61	15463.92
486.78	15747.12
486.96	15854.79
487.14	16088.84
487.32	16285.45
487.50	15936.71
487.68	16203.53
487.85	16451.63
488.03	16566.31
488.21	16882.28
488.39	16980.59
488.57	17104.64
488.75	16966.54
488.92	17282.52
489.10	17331.67
489.28	17507.21
489.46	17378.48
489.64	17858.29
489.81	18192.98
489.99	18331.08
490.17	18237.45
490.35	18640.03
490.53	18317.03
490.70	18789.82
490.88	18272.56
491.06	18745.35
491.24	18630.66
491.41	19115.16
491.59	19096.43
491.77	19281.33
491.95	19447.51
492.13	19356.23
492.30	19426.45
492.48	19665.18
492.66	20030.30
492.84	19721.35
493.01	20034.99
493.19	19990.52
493.37	20299.47
493.54	20423.51
493.72	20365.00
493.90	20685.65
494.08	20629.48
494.25	20912.69
494.43	21003.97
494.61	20999.29
494.79	21125.68
494.96	21064.82
495.14	21268.45
495.32	21785.71
495.49	21626.55
495.67	21553.99
495.85	21947.20
496.02	22045.51
496.20	22157.85
496.38	22387.22
496.55	22384.88
496.73	22611.92
496.91	22654.05
497.09	22773.41
497.26	22888.10
497.44	22691.49
497.62	23005.13
497.79	22958.31
497.97	23276.63
498.14	23447.49
498.32	23597.28
498.50	23646.43
498.67	23882.83
498.85	23768.14
499.03	23941.34
499.20	24119.22
499.38	24215.18
499.56	24116.88
499.73	24367.32
499.91	24582.65
500.08	24545.20
500.26	24240.93
500.44	24582.65
500.61	24821.38
500.79	24535.84
500.97	24882.24
501.14	25308.21
501.32	25530.56
501.49	25106.93
501.67	25308.21
501.84	25263.74
502.02	25521.20
502.20	25516.52
502.37	25696.74
502.55	25692.06
502.72	25736.53
502.90	25900.37
503.07	25919.09
503.25	25956.54
503.43	26082.93
503.60	26438.69
503.78	26494.86
503.95	26155.49
504.13	26429.33
504.30	26665.72
504.48	26757.00
504.65	26792.11
504.83	26761.69
505.01	27033.19
505.18	26703.17
505.36	26909.14
505.53	26977.01
505.71	27339.80
505.88	27545.76
506.06	27131.49
506.23	27798.54
506.41	27356.18
506.58	27541.08
506.76	27517.68
506.93	27992.81
507.11	27821.95
507.28	28051.32
507.46	28130.90
507.63	28346.23
507.81	28283.03
507.98	28173.03
508.16	28030.26
508.33	28481.98
508.50	28493.68
508.68	28706.67
508.85	28903.28
509.03	28470.28
509.20	28875.19
509.38	29254.36
509.55	29076.48
509.73	29612.46
509.90	29198.18
510.08	29455.64
510.25	29497.77
510.42	29603.10
510.60	29703.74
510.77	29947.15
510.95	30040.78
511.12	29893.32
511.30	29785.66
511.47	30122.69
511.64	29818.42
511.82	30157.80
511.99	30078.22
512.17	30319.30
512.34	30443.35
512.51	30803.79
512.69	30836.56
512.86	30455.05
513.04	30888.05
513.21	30934.86
513.38	30855.28
513.56	31164.23
513.73	31122.10
513.90	31344.45
514.08	30955.93
514.25	31274.24
514.43	31557.44
514.60	31644.04
514.77	31307.01
514.95	31606.59
515.12	31651.06
515.29	31576.17
515.47	31868.73
515.64	31812.56
515.81	31899.16
515.99	32240.88
516.16	32191.73
516.33	32442.17
516.51	32194.07
516.68	32004.49
516.85	32116.83
517.03	32657.49
517.20	32629.41
517.37	32577.92
517.54	32718.35
517.72	32542.81
517.89	32634.09
518.06	32624.73
518.24	32783.88
518.41	32662.18
518.58	32877.51
518.75	33099.86
518.93	32959.42
519.10	32872.82
519.27	33062.41
519.45	33574.98
519.62	33315.19
519.79	33247.31
519.96	33617.11
520.14	33528.17
520.31	33251.99
520.48	33804.36
520.65	33647.54
520.83	34162.46
521.00	34153.10
521.17	34401.19
521.34	34415.24
521.52	34419.92
521.69	34581.42
521.86	34431.62
522.03	34574.39
522.20	34328.64
522.38	34717.17
522.55	34742.91
522.72	34712.49
522.89	34656.31
523.07	35412.31
523.24	35260.17
523.41	35370.18
523.58	34836.53
523.75	35470.82
523.92	35622.95
524.10	35400.60
524.27	35061.22
524.44	35325.71
524.61	35566.78
524.78	35768.07
524.96	36013.82
525.13	35852.33
525.30	36165.96
525.47	36109.78
525.64	35824.24
525.81	36313.41
525.98	36144.89
526.16	36282.98
526.33	35981.06
526.50	36423.42
526.67	36238.51
526.84	36556.83
527.01	36198.73
527.18	36470.23
527.36	36615.34
527.53	37043.66
527.70	37542.19
527.87	36811.95
528.04	37053.02
528.21	37165.37
528.38	36921.95
528.55	37181.75
528.72	37010.89
528.89	37195.79
529.07	37209.84
529.24	37235.58
529.41	37853.48
529.58	37359.63
529.75	37570.28
529.92	37727.10
530.09	37427.51
530.26	37109.19
530.43	37675.60
530.60	37631.13
530.77	37483.68
530.94	37617.09
531.11	37839.44
531.28	37869.87
531.46	38094.56
531.63	38082.86
531.80	37904.98
531.97	38134.35
532.14	37645.18
532.31	37937.74
532.48	38211.59
532.65	38026.68
532.82	37844.12
532.99	38513.52
533.16	38082.86
533.33	38478.41
533.50	39143.12
533.67	38426.92
533.84	38574.37
534.01	38820.13
534.18	38211.59
534.35	39459.09
534.52	38962.90
534.69	39398.24
534.86	38778.00
535.03	38698.42
535.20	39573.78
535.37	38916.09
535.54	39143.12
535.71	39529.31
535.88	38820.13
536.05	39391.22
536.22	39728.25
536.38	39934.22
536.55	39234.40
536.72	39480.16
536.89	39693.15
537.06	39903.79
537.23	39938.90
537.40	39601.86
537.57	39702.51
537.74	39175.89
537.91	39641.65
538.08	40135.51
538.25	39311.64
538.42	40004.44
538.59	40140.19
538.75	39964.65
538.92	40353.18
539.09	40582.55
539.26	40034.86
539.43	40250.19
539.60	40119.12
539.77	39955.29
539.94	40711.28
540.11	40676.17
540.28	41022.57
540.44	40676.17
540.61	40636.38
540.78	40542.76
540.95	40720.64
541.12	40568.51
541.29	40680.85
541.46	40622.34
541.62	40744.05
541.79	41172.36
541.96	40807.24
542.13	40889.16
542.30	40882.14
542.47	41179.39
542.63	41116.19
542.80	41109.17
542.97	41801.97
543.14	41364.29
543.31	41528.13
543.48	41677.92
543.64	42099.22
543.81	41930.70
543.98	41748.14
544.15	41823.03
544.32	42265.39
544.48	42436.25
544.65	41954.10
544.82	42052.41
544.99	41567.91
545.16	42426.89
545.32	41963.46
545.49	42478.38
545.66	42485.40
545.83	42536.90
546.00	42401.14
546.16	42539.24
546.33	42277.10
546.50	42075.81
546.67	43070.54
546.83	42244.33
547.00	42696.05
547.17	42387.10
547.34	42784.99
547.50	42892.66
547.67	42923.08
547.84	42766.27
548.00	42693.71
548.17	43056.50
548.34	42646.90
548.51	42997.98
548.67	42721.80
548.84	43381.83
549.01	43016.71
549.18	43068.20
549.34	42930.11
549.51	43255.44
549.68	43428.64
549.84	43489.49
550.01	43695.46
550.18	43316.29
550.34	43491.83
550.51	43271.82
550.68	43718.87
550.84	43133.73
551.01	43721.21
551.18	43473.11
551.34	43540.99
551.51	43381.83
551.68	43543.33
551.84	43786.74
552.01	43512.90
552.18	43716.53
552.34	43559.71
552.51	43856.96
552.68	43634.61
552.84	43587.80
553.01	43929.51
553.18	43882.70
553.34	44259.53
553.51	43779.72
553.67	44018.46
553.84	44027.82
554.01	44144.84
554.17	44245.49
554.34	44336.77
554.51	44205.70
554.67	44868.07
554.84	44491.24
555.00	44538.05
555.17	44198.68
555.33	44311.02
555.50	44516.99
555.67	44350.81
555.83	44502.95
556.00	44645.72
556.16	44797.85
556.33	44486.56
556.50	44383.58
556.66	44425.71
556.83	44591.89
556.99	44732.32
557.16	45242.56
557.32	44619.97
557.49	44589.55
557.65	44573.16
557.82	45214.47
557.98	45078.72
558.15	44762.75
558.32	45036.59
558.48	44662.10
558.65	45280.00
558.81	44961.69
558.98	45085.74
559.14	45132.55
559.31	44727.64
559.47	45249.58
559.64	45111.49
559.80	45162.98
559.97	45067.02
560.13	44942.97
560.30	45294.05
560.46	45717.68
560.63	45422.78
560.79	45989.19
560.96	45654.49
561.12	45317.45
561.29	45048.29
561.45	45696.62
561.61	45010.84
561.78	45483.63
561.94	45427.46
562.11	44961.69
562.27	45949.40
562.44	45825.35
562.60	45883.86
562.77	45572.57
562.93	45488.31
563.10	45673.21
563.26	45647.47
563.42	45799.60
563.59	45593.64
563.75	45607.68
563.92	45752.79
564.08	45558.53
564.24	45902.59
564.41	45656.83
564.57	45855.78
564.74	46387.08
564.90	45593.64
565.07	45991.53
565.23	45277.66
565.39	45911.95
565.56	46281.75
565.72	45848.75
565.88	45851.09
566.05	45546.82
566.21	46050.04
566.38	45783.22
566.54	46199.83
566.70	46323.88
566.87	45830.03
567.03	45834.71
567.19	46436.23
567.36	46136.64
567.52	45979.82
567.68	45951.74
567.85	46457.29
568.01	46574.32
568.17	46176.43
568.34	46153.02
568.50	46263.03
568.66	46007.91
568.83	46078.13
568.99	46646.88
569.15	46351.97
569.32	46326.22
569.48	46298.14
569.64	46986.25
569.81	46469.00
569.97	46202.18
570.13	46543.89
570.30	46220.90
570.46	46532.19
570.62	46679.64
570.78	46211.54
570.95	46417.50
571.11	46480.70
571.27	46398.78
571.43	46504.10
571.60	46321.54
571.76	46333.24
571.92	46508.79
572.09	46136.64
572.25	46220.90
572.41	46698.37
572.57	47037.75
572.74	46782.63
572.90	46494.74
573.06	46927.74
573.22	46871.57
573.38	46534.53
573.55	46731.14
573.71	47079.88
573.87	46855.18
574.03	47283.50
574.20	47386.49
574.36	46539.21
574.52	46773.27
574.68	46848.16
574.84	46646.88
575.01	46646.88
575.17	46761.56
575.33	46892.63
575.49	46649.22
575.65	46820.08
575.82	46941.78
575.98	46597.73
576.14	46890.29
576.30	47049.45
576.46	46995.62
576.62	46560.28
576.79	46848.16
576.95	46284.09
577.11	46698.37
577.27	47138.39
577.43	46815.40
577.59	46691.35
577.75	46796.67
577.92	46635.17
578.08	46955.83
578.24	46885.61
578.40	46838.80
578.56	47152.43
578.72	46997.96
578.88	46869.23
579.04	46920.72
579.21	46913.70
579.37	46763.90
579.53	47276.48
579.69	46930.08
579.85	46719.43
580.01	46747.52
580.17	46777.95
580.33	47461.38
580.49	46827.10
580.65	47023.70
580.82	47192.22
580.98	47215.63
581.14	46607.09
581.30	47009.66
581.46	46728.80
581.62	47016.68
581.78	46763.90
581.94	47124.35
582.10	46937.10
582.26	47281.16
582.42	47313.93
582.58	47381.80
582.74	46923.06
582.90	46944.12
583.06	47110.30
583.22	46838.80
583.38	47360.74
583.54	47093.92
583.70	46925.40
583.86	47264.78
584.02	47173.50
584.18	47260.10
584.34	47021.36
584.50	47449.68
584.66	47538.62
584.82	47047.11
584.98	47571.39
585.14	47454.36
585.30	46876.25
585.46	47290.52
585.62	47126.69
585.78	47096.26
585.94	47119.66
586.10	47426.28
586.26	47206.26
586.42	46988.60
586.58	47208.61
586.74	47136.05
586.90	47063.49
587.06	47332.65
587.22	47297.55
587.38	46817.74
587.54	47079.88
587.70	47351.38
587.86	47292.86
588.02	47173.50
588.18	47320.95
588.34	47339.68
588.49	47164.14
588.65	46951.15
588.81	47075.19
588.97	47592.45
589.13	47592.45
589.29	47381.80
589.45	47365.42
589.61	47426.28
589.77	47325.63
589.93	47086.90
590.08	47657.99
590.24	47707.14
590.40	48200.99
590.56	47470.75
590.72	47437.98
590.88	47456.70
591.04	47405.21
591.20	47510.53
591.35	48058.22
591.51	47828.85
591.67	47632.24
591.83	47714.16
591.99	47653.31
592.15	47489.47
592.31	47786.72
592.46	47264.78
592.62	47356.06
592.78	47913.11
592.94	47922.47
593.10	47896.72
593.26	47856.93
593.41	47861.61
593.57	47770.33
593.73	47742.25
593.89	47798.42
594.05	47735.23
594.20	47735.23
594.36	48034.81
594.52	47758.63
594.68	47695.44
594.84	47552.66
594.99	48142.48
595.15	47920.13
595.31	48156.52
595.47	47929.49
595.62	48205.67
595.78	48163.54
595.94	48081.63
596.10	47543.30
596.25	47952.90
596.41	48055.88
596.57	47374.78
596.73	48163.54
596.88	48397.60
597.04	48308.66
597.20	48240.78
597.36	48137.80
597.51	48224.40
597.67	47709.48
597.83	48163.54
597.99	48151.84
598.14	47983.32
598.30	48046.52
598.46	47988.00
598.61	48046.52
598.77	48037.16
598.93	48093.33
599.09	48186.95
599.24	48130.78
599.40	47807.78
599.56	48186.95
599.71	48479.52
599.87	48580.16
600.03	48533.35
600.18	48257.17
600.34	48205.67
600.50	47852.25
600.65	47917.79
600.81	48788.47
600.97	48128.44
601.12	48006.73
601.28	47913.11
601.44	48385.89
601.59	48016.09
601.75	47920.13
601.91	48516.96
602.06	48259.51
602.22	47622.88
602.37	47910.77
602.53	48229.08
602.69	47955.24
602.84	47807.78
603.00	47878.00
603.16	47908.43
603.31	47885.02
603.47	47772.67
603.62	48502.92
603.78	48465.47
603.94	47739.91
604.09	47852.25
604.25	47959.92
604.40	48282.91
604.56	48311.00
604.71	48519.31
604.87	47667.35
605.03	47239.03
605.18	48191.63
605.34	47725.86
605.49	47903.74
605.65	48318.02
605.80	47679.05
605.96	47817.14
606.12	47936.51
606.27	48184.61
606.43	47777.36
606.58	48032.47
606.74	47763.31
606.89	47868.64
607.05	48076.94
607.20	48189.29
607.36	47634.58
607.51	47936.51
607.67	47730.54
607.82	47814.80
607.98	48170.57
608.13	47674.37
608.29	48133.12
608.44	48175.25
608.60	47398.19
608.75	47648.63
608.91	47709.48
609.06	47498.83
609.22	48069.92
609.37	47718.84
609.53	47861.61
609.68	48231.42
609.84	47889.70
609.99	47868.64
610.15	47421.59
610.30	47681.39
610.46	47690.76
610.61	47870.98
610.76	48149.50
610.92	47489.47
611.07	47433.30
611.23	47313.93
611.38	47466.06
611.54	47746.93
611.69	47875.66
611.84	47854.59
612.00	47669.69
612.15	47344.36
612.31	47653.31
612.46	47323.29
612.62	47566.71
612.77	47679.05
612.92	47714.16
613.08	47487.13
613.23	47749.27
613.39	47299.89
613.54	47445.00
613.69	47896.72
613.85	47236.69
614.00	47220.31
614.15	47627.56
614.31	47386.49
614.46	47599.47
614.62	46703.05
614.77	47407.55
614.92	47370.10
615.08	47416.91
615.23	47573.73
615.38	47957.58
615.54	47393.51
615.69	47229.67
615.84	47290.52
616.00	47129.03
616.15	47194.56
616.30	47459.04
616.46	47086.90
616.61	47189.88
616.76	46710.07
616.92	46897.31
617.07	47260.10
617.22	46787.31
617.37	47019.02
617.53	46979.23
617.68	46728.80
617.83	47042.43
617.99	47131.37
618.14	47496.49
618.29	46843.48
618.45	46777.95
618.60	46899.65
618.75	46665.60
618.90	46586.02
619.06	46866.89
619.21	46546.23
619.36	46946.47
619.51	46817.74
619.67	46852.84
619.82	46663.26
619.97	47056.47
620.12	46831.78
620.28	46892.63
620.43	46827.10
620.58	47105.62
620.73	46873.91
620.89	47040.09
621.04	46864.55
621.19	46447.93
621.34	46459.63
621.49	46600.07
621.65	46426.87
621.80	46873.91
621.95	46801.35
622.10	46768.58
622.25	46321.54
622.41	46368.35
622.56	46375.37
622.71	46852.84
622.86	46342.61
623.01	46506.44
623.16	46560.28
623.32	46211.54
623.47	46740.50
623.62	45933.01
623.77	46192.81
623.92	46504.10
624.07	46593.04
624.23	46579.00
624.38	46550.91
624.53	46438.57
624.68	45895.56
624.83	45942.38
624.98	46316.86
625.13	45745.77
625.29	45797.26
625.44	46129.62
625.59	45783.22
625.74	45825.35
625.89	45652.15
626.04	46291.12
626.19	45797.26
626.34	46005.57
626.49	45598.32
626.65	45738.75
626.80	45649.81
626.95	45387.67
627.10	45467.25
627.25	45680.24
627.40	45890.88
627.55	45563.21
627.70	45944.72
627.85	45979.82
628.00	45476.61
628.15	45394.69
628.30	45591.30
628.45	45331.50
628.60	45287.03
628.76	44947.65
628.91	45635.77
629.06	44954.67
629.21	45069.36
629.36	44989.78
629.51	45174.68
629.66	45588.95
629.81	45336.18
629.96	45518.74
630.11	45118.51
630.26	45289.37
630.41	45310.43
630.56	45244.90
630.71	45392.35
630.86	44900.84
631.01	44996.80
631.16	44924.24
631.31	44825.94
631.46	44533.37
631.61	45546.82
631.76	45158.30
631.91	45085.74
632.06	45436.82
632.21	45422.78
632.36	44973.39
632.51	44376.56
632.66	44935.95
632.81	44982.76
632.96	44952.33
633.10	44755.72
633.25	44858.71
633.40	44959.35
633.55	44685.51
633.70	44882.11
633.85	44425.71
634.00	44509.97
634.15	44542.74
634.30	44505.29
634.45	44657.42
634.60	44259.53
634.75	44669.12
634.90	44549.76
635.05	44428.05
635.19	44889.13
635.34	44545.08
635.49	43936.54
635.64	44804.88
635.79	44612.95
635.94	44435.07
636.09	44486.56
636.24	44196.34
636.39	44212.72
636.53	44495.92
636.68	44289.96
636.83	43920.15
636.98	43618.22
637.13	43959.94
637.28	43920.15
637.43	44161.23
637.57	44076.97
637.72	43929.51
637.87	44067.61
638.02	44346.13
638.17	44004.41
638.32	43756.32
638.46	43557.37
638.61	43697.80
638.76	43854.62
638.91	43405.23
639.06	43536.30
639.20	43320.98
639.35	43468.43
639.50	43798.44
639.65	43643.97
639.80	44002.07
639.94	43981.01
640.09	44140.16
640.24	43491.83
640.39	43412.26
640.54	43044.79
640.68	43475.45
640.83	44105.06
640.98	43269.48
641.13	43683.76
641.27	43636.95
641.42	43566.73
641.57	43456.73
641.72	43192.25
641.86	43208.63
642.01	42937.13
642.16	43185.22
642.31	43140.75
642.45	43068.20
642.60	42974.58
642.75	42962.87
642.90	43423.96
643.04	43201.61
643.19	42880.95
643.34	42990.96
643.48	42934.79
643.63	42712.44
643.78	43311.61
643.93	43372.47
644.07	43103.31
644.22	43185.22
644.37	42810.74
644.51	43131.39
644.66	43014.37
644.81	42616.47
644.95	43117.35
645.10	42829.46
645.25	43082.24
645.39	42831.80
645.54	42689.03
645.69	42148.37
645.83	42710.10
645.98	42588.39
646.13	42471.36
646.27	42869.25
646.42	42359.02
646.57	42485.40
646.71	42359.02
646.86	42445.62
647.00	43007.34
647.15	42616.47
647.30	42679.67
647.44	42265.39
647.59	42204.54
647.74	42012.62
647.88	42436.25
648.03	42513.49
648.17	42632.86
648.32	42653.92
648.47	42686.69
648.61	42422.21
648.76	41603.02
648.90	42211.56
649.05	42351.99
649.20	42249.01
649.34	42387.10
649.49	42014.96
649.63	42588.39
649.78	42429.23
649.92	42164.75
650.07	42529.87
650.21	42447.96
650.36	42349.65
650.51	42291.14
650.65	42183.48
650.80	42277.10
650.94	41591.32
651.09	42277.10
651.23	41408.76
651.38	41902.61
651.52	41425.14
651.67	41668.56
651.81	42139.00
651.96	41675.58
652.10	41549.19
652.25	41277.69
652.39	41008.53
652.54	41591.32
652.68	41684.94
652.83	41706.01
652.97	41661.54
653.12	41551.53
653.26	41565.57
653.41	41663.88
653.55	41177.04
653.70	41450.89
653.84	41645.15
653.99	41764.52
654.13	41722.39
654.27	41097.47
654.42	41170.02
654.56	41153.64
654.71	41411.10
654.85	41359.61
655.00	41071.72
655.14	41268.33
655.29	41394.71
655.43	41546.85
655.57	40921.93
655.72	40811.92
655.86	41277.69
656.01	40898.52
656.15	41048.32
656.30	40996.82
656.44	41097.47
656.58	41146.62
656.73	40978.10
656.87	41055.34
657.01	40708.94
657.16	41118.53
657.30	40924.27
657.45	40261.90
657.59	40493.61
657.73	40722.98
657.88	40725.32
658.02	40994.48
658.16	40758.09
658.31	40751.07
658.45	40807.24
658.60	40573.19
658.74	41141.94
658.88	40788.52
659.03	40163.59
659.17	40294.66
659.31	39878.05
659.46	40198.70
659.60	39861.66
659.74	39959.97
659.89	40114.44
660.03	39730.59
660.17	40315.73
660.32	39882.73
660.46	40067.63
660.60	39622.93
660.74	39749.32
660.89	40051.25
661.03	39271.85
661.17	39454.41
661.32	39503.56
661.46	39746.98
661.60	39573.78
661.74	39166.52
661.89	39271.85
662.03	39662.72
662.17	39288.23
662.31	39409.94
662.46	39147.80
662.60	39089.29
662.74	38614.16
662.88	38679.69
663.03	38658.63
663.17	38836.51
663.31	38815.44
663.45	38586.07
663.60	38522.88
663.74	38834.17
663.88	38787.36
664.02	38440.96
664.17	38780.34
664.31	38202.22
664.45	38623.52
664.59	38888.00
664.73	38176.48
664.88	38639.90
665.02	38368.40
665.16	38153.07
665.30	38101.58
665.44	38433.94
665.59	37787.95
665.73	38209.25
665.87	37614.75
666.01	38185.84
666.15	38078.18
666.29	37804.33
666.44	37357.29
666.58	38017.32
666.72	37516.45
666.86	37464.96
667.00	37170.05
667.14	37476.66
667.28	37464.96
667.43	37333.89
667.57	37216.86
667.71	37446.23
667.85	37359.63
667.99	37069.40
668.13	37207.50
668.27	36781.52
668.41	36669.17
668.56	36589.59
668.70	36549.81
668.84	36273.62
668.98	36084.04
669.12	36680.88
669.26	36514.70
669.40	36381.29
669.54	36620.02
669.68	36507.68
669.82	36259.58
669.96	35959.99
670.10	36149.57
670.25	36161.28
670.39	36205.75
670.53	35924.88
670.67	35721.26
670.81	36149.57
670.95	36091.06
671.09	35625.29
671.23	35637.00
671.37	35875.73
671.51	35250.81
671.65	35526.99
671.79	35365.49
671.93	35061.22
672.07	35086.97
672.21	35363.15
672.35	35171.23
672.49	35189.95
672.63	35084.63
672.77	34389.49
672.91	35110.38
673.05	34747.59
673.19	34401.19
673.33	34595.46
673.47	34368.43
673.61	34560.35
673.75	34504.18
673.89	34227.99
674.03	33912.02
674.17	33975.22
674.31	33633.50
674.45	33787.97
674.59	33813.72
674.73	33832.44
674.87	33530.51
675.01	33378.38
675.15	33099.86
675.29	33303.48
675.43	33376.04
675.56	33668.61
675.70	33207.52
675.84	33177.09
675.98	32334.50
676.12	33287.10
676.26	33158.37
676.40	32666.86
676.54	32350.88
676.68	32900.91
676.82	32081.72
676.96	32687.92
677.10	32533.45
677.23	32287.69
677.37	32636.43
677.51	31971.72
677.65	32121.51
677.79	31908.52
677.93	31700.22
678.07	31400.63
678.21	31711.92
678.34	31358.50
678.48	31079.97
678.62	31615.96
678.76	31007.42
678.90	31215.72
679.04	31204.02
679.18	31328.07
679.31	30389.52
679.45	30354.41
679.59	30541.65
679.73	30529.95
679.87	30749.96
680.00	29940.13
680.14	30548.67
680.28	30174.19
680.42	30300.58
680.56	29937.79
680.70	29516.50
680.83	29685.01
680.97	29699.06
681.11	29589.05
681.25	29521.18
681.39	29209.89
681.52	29191.16
681.66	28989.88
681.80	28519.43
681.94	28315.80
682.07	28732.42
682.21	28634.11
682.35	28568.58
682.49	28472.62
682.62	28608.37
682.76	29039.03
682.90	28088.77
683.04	28362.61
683.17	28084.09
683.31	27868.76
683.45	27938.97
683.59	27592.58
683.72	27412.35
683.86	27660.45
684.00	27583.21
684.13	27513.00
684.27	27175.96
684.41	27424.06
684.55	27110.43
684.68	26998.08
684.82	26740.62
684.96	26757.00
685.09	26965.31
685.23	26939.57
685.37	26686.79
685.50	26916.16
685.64	26703.17
685.78	26693.81
685.91	26176.55
686.05	25898.03
686.19	25488.43
686.32	25462.69
686.46	25549.29
686.60	25397.15
686.73	25549.29
686.87	25326.94
687.01	25869.94
687.14	25642.91
687.28	25343.32
687.42	25303.53
687.55	24933.73
687.69	25245.02
687.82	24947.77
687.96	24823.72
688.10	25184.16
688.23	24776.91
688.37	24912.66
688.50	24781.59
688.64	24379.02
688.78	24496.05
688.91	24060.71
689.05	24414.13
689.18	23583.24
689.32	23288.33
689.46	23545.79
689.59	23552.81
689.73	23997.51
689.86	23744.73
690.00	23833.68
690.13	23358.55
690.27	23445.15
690.41	23398.34
690.54	23054.28
690.68	22904.48
690.81	22838.95
690.95	22581.49
691.08	22775.75
691.22	22623.62
691.35	22455.10
691.49	22654.05
691.62	22410.63
691.76	22043.17
691.89	21682.72
692.03	21841.88
692.16	21708.47
692.30	21844.22
692.43	21825.50
692.57	21628.89
692.70	21383.13
692.84	21500.16
692.97	21261.43
693.11	21256.75
693.24	21064.82
693.38	21214.62
693.51	20964.18
693.65	20812.04
693.78	20643.52
693.92	20482.03
694.05	20594.37
694.19	20695.02
694.32	20271.38
694.45	20936.09
694.59	20491.39
694.72	20304.15
694.86	19896.89
694.99	19763.48
695.13	19819.66
695.26	19957.75
695.39	19655.82
695.53	19829.02
695.66	19566.88
695.80	19609.01
695.93	19297.72
696.07	19489.64
696.20	19136.22
696.33	18998.13
696.47	18867.06
696.60	19159.63
696.73	19126.86
696.87	18862.38
697.00	18799.18
697.14	18682.16
697.27	18544.06
697.40	18504.28
697.54	18356.82
697.67	18324.05
697.80	18221.07
697.94	18305.33
698.07	17816.16
698.21	17994.04
698.34	18221.07
698.47	17605.51
698.61	17593.81
698.74	17303.58
698.87	17294.22
699.01	17205.28
699.14	17401.88
699.27	17348.05
699.40	17369.12
699.54	16982.93
699.67	17123.36
699.80	16908.03
699.94	16968.88
700.07	16805.05
700.20	16940.80
700.34	16659.93
700.47	16510.14
700.60	17074.21
700.73	16512.48
700.87	16617.80
701.00	15976.50
701.13	16081.82
701.26	16051.39
701.40	16011.60
701.53	15744.78
701.66	15784.57
701.79	15971.82
701.93	15583.29
702.06	15606.69
702.19	15426.47
702.32	15496.69
702.46	15543.50
702.59	15342.21
702.72	15538.82
702.85	15374.98
702.99	15119.86
703.12	15154.97
703.25	15171.35
703.38	14829.63
703.51	15021.56
703.65	14773.46
703.78	14754.74
703.91	14532.39
704.04	14600.26
704.17	14450.47
704.31	14380.25
704.44	14471.53
704.57	14398.98
704.70	14059.60
704.83	14228.12
704.96	13888.74
705.10	13743.63
705.23	14047.90
>>>>>End Processed Spectral Data<<<<<
