SpectraSuite Data File
++++++++++++++++++++++++++++++++++++
Date: Fri Oct 25 10:48:33 EDT 2013
User: price-jones
Dark Spectrum Present: No
Reference Spectrum Present: No
Number of Sampled Component Spectra: 1
Spectrometers: USB2+H05261
Integration Time (usec): 100000 (USB2+H05261)
Spectra Averaged: 1 (USB2+H05261)
Boxcar Smoothing: 0 (USB2+H05261)
Correct for Electrical Dark: No (USB2+H05261)
Strobe/Lamp Enabled: No (USB2+H05261)
Correct for Detector Non-linearity: No (USB2+H05261)
Correct for Stray Light: No (USB2+H05261)
Number of Pixels in Processed Spectrum: 2048
>>>>>Begin Processed Spectral Data<<<<<
365.73	114.69
365.92	114.69
366.12	114.69
366.32	131.07
366.52	51.49
366.72	51.49
366.91	0.00
367.11	63.19
367.31	0.00
367.51	49.15
367.70	42.13
367.90	30.43
368.10	32.77
368.30	37.45
368.49	23.41
368.69	154.48
368.89	84.26
369.09	100.64
369.28	145.11
369.48	53.83
369.68	56.17
369.87	112.35
370.07	77.24
370.27	114.69
370.47	264.48
370.66	397.89
370.86	454.06
371.06	554.71
371.25	477.47
371.45	526.62
371.65	535.98
371.84	437.68
372.04	489.17
372.24	524.28
372.44	533.64
372.63	564.07
372.83	566.41
373.03	545.34
373.22	608.54
373.42	535.98
373.62	559.39
373.81	627.26
374.01	571.09
374.21	615.56
374.40	585.13
374.60	559.39
374.79	601.52
374.99	547.69
375.19	610.88
375.38	622.58
375.58	571.09
375.78	758.33
375.97	643.65
376.17	702.16
376.37	634.29
376.56	641.31
376.76	664.71
376.95	657.69
377.15	692.80
377.35	695.14
377.54	774.72
377.74	603.86
377.93	706.84
378.13	746.63
378.33	718.54
378.52	683.44
378.72	657.69
378.91	697.48
379.11	667.05
379.31	587.47
379.50	671.73
379.70	725.57
379.89	685.78
380.09	674.07
380.28	674.07
380.48	774.72
380.68	727.91
380.87	779.40
381.07	748.97
381.26	720.88
381.46	758.33
381.65	821.53
381.85	809.83
382.04	814.51
382.24	877.70
382.43	695.14
382.63	683.44
382.83	809.83
383.02	840.25
383.22	786.42
383.41	732.59
383.61	753.65
383.80	833.23
384.00	812.17
384.19	866.00
384.39	791.10
384.58	901.11
384.78	805.14
384.97	894.08
385.17	814.51
385.36	828.55
385.56	739.61
385.75	791.10
385.95	861.32
386.14	905.79
386.34	866.00
386.53	891.74
386.72	983.02
386.92	875.36
387.11	814.51
387.31	891.74
387.50	933.87
387.70	912.81
387.89	987.71
388.09	919.83
388.28	919.83
388.48	940.90
388.67	931.53
388.86	929.19
389.06	961.96
389.25	999.41
389.45	1011.11
389.64	971.32
389.84	1008.77
390.03	1069.62
390.22	1006.43
390.42	1057.92
390.61	1074.31
390.81	1027.50
391.00	1123.46
391.19	1055.58
391.39	1081.33
391.58	1088.35
391.78	1123.46
391.97	1107.07
392.16	1111.75
392.36	1078.99
392.55	1142.18
392.75	1027.50
392.94	1006.43
393.13	1043.88
393.33	1029.84
393.52	1048.56
393.71	1149.20
393.91	1214.74
394.10	1041.54
394.29	1210.06
394.49	1179.63
394.68	1362.19
394.88	1266.23
395.07	1348.15
395.26	1296.66
395.46	1308.36
395.65	1359.85
395.84	1306.02
396.04	1266.23
396.23	1221.76
396.42	1186.65
396.62	1277.93
396.81	1273.25
397.00	1238.14
397.19	1411.34
397.39	1371.55
397.58	1453.47
397.77	1430.07
397.97	1493.26
398.16	1511.99
398.35	1465.18
398.55	1488.58
398.74	1514.33
398.93	1638.38
399.12	1570.50
399.32	1549.43
399.51	1509.65
399.70	1626.67
399.90	1619.65
400.09	1659.44
400.28	1664.12
400.47	1680.50
400.67	1743.70
400.86	1657.10
401.05	1703.91
401.24	1788.17
401.44	1736.68
401.63	1797.53
401.82	1727.32
402.01	1753.06
402.21	1912.22
402.40	1863.07
402.59	1820.94
402.78	1748.38
402.97	1856.04
403.17	1877.11
403.36	1874.77
403.55	1930.94
403.74	2019.88
403.93	1975.41
404.13	1919.24
404.32	1935.62
404.51	1956.69
404.70	2038.61
404.89	1944.99
405.09	2129.89
405.28	2022.22
405.47	2050.31
405.66	1952.01
405.85	2026.90
406.05	2026.90
406.24	2087.76
406.43	2127.55
406.62	2153.29
406.81	2263.30
407.00	2230.53
407.20	2172.02
407.39	2129.89
407.58	2251.60
407.77	2286.70
407.96	2445.86
408.15	2279.68
408.34	2331.17
408.54	2368.62
408.73	2291.38
408.92	2380.32
409.11	2373.30
409.30	2417.77
409.49	2242.23
409.68	2300.75
409.87	2352.24
410.07	2417.77
410.26	2483.31
410.45	2523.10
410.64	2616.72
410.83	2640.12
411.02	2677.57
411.21	2754.81
411.40	2715.02
411.59	2525.44
411.78	2745.45
411.98	2668.21
412.17	2665.87
412.36	2839.07
412.55	2864.82
412.74	2949.08
412.93	2972.48
413.12	2785.24
413.31	3005.25
413.50	2890.56
413.69	3000.57
413.88	2988.86
414.07	2977.16
414.26	2991.20
414.45	3098.87
414.64	2935.03
414.83	3038.02
415.02	3138.66
415.22	3204.19
415.41	3176.11
415.60	3152.70
415.79	3204.19
415.98	3316.54
416.17	3314.20
416.36	3290.79
416.55	3232.28
416.74	3356.33
416.93	3309.52
417.12	3421.86
417.31	3442.93
417.50	3529.53
417.69	3639.53
417.88	3499.10
418.07	3550.59
418.26	3562.30
418.45	3534.21
418.64	3648.90
418.83	3679.32
419.02	3548.25
419.21	3653.58
419.39	3686.34
419.58	3679.32
419.77	3637.19
419.96	3698.05
420.15	3929.76
420.34	3728.47
420.53	3838.48
420.72	3936.78
420.91	4081.89
421.10	3831.46
421.29	3929.76
421.48	3915.72
421.67	3911.04
421.86	3904.01
422.05	3922.74
422.24	3801.03
422.43	3950.82
422.61	4049.13
422.80	4023.38
422.99	4049.13
423.18	4189.56
423.37	4191.90
423.56	3997.64
423.75	4166.15
423.94	4131.05
424.13	3852.52
424.32	3950.82
424.50	4128.70
424.69	4189.56
424.88	4142.75
425.07	4187.22
425.26	3885.29
425.45	4074.87
425.64	4081.89
425.83	3983.59
426.01	4250.41
426.20	4259.78
426.39	4208.28
426.58	4086.58
426.77	4175.52
426.96	4086.58
427.15	4105.30
427.33	4109.98
427.52	4154.45
427.71	4255.09
427.90	4269.14
428.09	4369.78
428.28	4304.25
428.46	4100.62
428.65	4329.99
428.84	4351.06
429.03	4262.12
429.22	4210.62
429.40	4381.48
429.59	4227.01
429.78	4077.21
429.97	4056.15
430.16	4131.05
430.34	4250.41
430.53	4395.53
430.72	4341.69
430.91	4430.63
431.10	4386.16
431.28	4610.86
431.47	4751.29
431.66	4877.68
431.85	4690.43
432.03	4713.84
432.22	4777.03
432.41	4781.71
432.60	4748.95
432.79	4802.78
432.97	4978.32
433.16	4985.34
433.35	4826.18
433.54	4954.91
433.72	4791.08
433.91	4863.63
434.10	4912.78
434.28	4947.89
434.47	5027.47
434.66	5240.46
434.85	5121.09
435.03	5214.71
435.22	5032.15
435.41	5210.03
435.59	5132.79
435.78	5219.39
435.97	5320.04
436.16	5320.04
436.34	5371.53
436.53	5193.65
436.72	5462.81
436.90	5252.16
437.09	5418.34
437.28	5378.55
437.46	5343.44
437.65	5390.25
437.84	5401.96
438.02	5179.61
438.21	5329.40
438.40	5397.28
438.58	5568.13
438.77	5493.24
438.96	5497.92
439.14	5584.52
439.33	5668.78
439.52	5884.11
439.70	5757.72
439.89	5731.97
440.08	5839.64
440.26	5727.29
440.45	5926.24
440.63	5966.03
440.82	6099.44
441.01	6071.35
441.19	6195.40
441.38	6164.97
441.57	6333.49
441.75	6328.81
441.94	6478.60
442.12	6366.26
442.31	6516.05
442.50	6513.71
442.68	6427.11
442.87	6490.31
443.05	6523.07
443.24	6848.41
443.43	6558.18
443.61	6583.93
443.80	6792.23
443.98	6539.46
444.17	6567.54
444.35	6572.22
444.54	6846.07
444.73	6700.95
444.91	6628.40
445.10	6789.89
445.28	6614.35
445.47	6576.91
445.65	6600.31
445.84	6832.02
446.02	6806.28
446.21	6729.04
446.39	6750.10
446.58	6935.01
446.77	6916.28
446.95	6576.91
447.14	6913.94
447.32	6782.87
447.51	6970.12
447.69	6846.07
447.88	6967.77
448.06	7009.90
448.25	6977.14
448.43	7178.42
448.62	6874.15
448.80	7016.93
448.99	6864.79
449.17	7098.84
449.36	7012.24
449.54	7215.87
449.73	7272.04
449.91	7316.51
450.10	7351.62
450.28	7461.63
450.46	7382.05
450.65	7562.27
450.83	7454.61
451.02	7475.67
451.20	7581.00
451.39	7449.93
451.57	7384.39
451.76	7419.50
451.94	7295.45
452.13	7494.40
452.31	7272.04
452.49	7358.64
452.68	7548.23
452.86	7403.11
453.05	7496.74
453.23	7665.25
453.42	7426.52
453.60	7339.92
453.78	7559.93
453.97	7475.67
454.15	7611.42
454.34	7770.58
454.52	7707.38
454.70	7728.45
454.89	7836.11
455.07	7875.90
455.26	7777.60
455.44	7770.58
455.62	7793.98
455.81	8046.76
455.99	8161.45
456.17	8297.20
456.36	8018.68
456.54	8290.18
456.73	8444.65
456.91	8432.95
457.09	8234.00
457.28	8470.40
457.46	8280.82
457.64	8287.84
457.83	8332.31
458.01	8248.05
458.19	8566.36
458.38	8369.76
458.56	8458.70
458.74	8376.78
458.93	8634.24
459.11	8601.47
459.29	8559.34
459.48	8533.59
459.66	8730.20
459.84	8578.06
460.03	8767.65
460.21	8922.12
460.39	8819.14
460.57	8854.25
460.76	8830.84
460.94	9060.21
461.12	8905.74
461.31	8999.36
461.49	8994.68
461.67	8968.93
461.85	9151.49
462.04	9067.24
462.22	9516.62
462.40	9327.03
462.59	9064.89
462.77	9191.28
462.95	9462.79
463.13	9275.54
463.32	9455.76
463.50	9404.27
463.68	9336.40
463.86	9369.16
464.05	9249.80
464.23	9132.77
464.41	9458.10
464.59	9163.20
464.78	9383.21
464.96	9348.10
465.14	9242.78
465.32	9504.92
465.50	9659.39
465.69	9577.47
465.87	9607.90
466.05	9530.66
466.23	9261.50
466.41	9514.28
466.60	9886.42
466.78	9284.91
466.96	9813.87
467.14	9493.21
467.32	9753.01
467.51	9626.62
467.69	9305.97
467.87	9926.21
468.05	9741.31
468.23	9673.43
468.41	9701.52
468.60	9680.46
468.78	9919.19
468.96	9783.44
469.14	10113.45
469.32	10094.73
469.50	9881.74
469.69	10277.29
469.87	10015.15
470.05	10181.33
470.23	9881.74
470.41	10155.58
470.59	10307.72
470.77	10087.71
470.95	10167.29
471.14	10445.81
471.32	10490.28
471.50	10644.76
471.68	10675.18
471.86	10759.44
472.04	10586.24
472.22	10972.43
472.40	10628.37
472.58	10609.65
472.77	10703.27
472.95	10623.69
473.13	11098.82
473.31	10775.83
473.49	10761.78
473.67	10993.50
473.85	10927.96
474.03	11459.26
474.21	11325.85
474.39	11178.40
474.57	11192.44
474.75	11435.86
474.93	11454.58
475.12	11417.13
475.30	11576.29
475.48	11473.31
475.66	11903.96
475.84	11461.60
476.02	11852.47
476.20	11925.03
476.38	12051.42
476.56	12404.84
476.74	12161.42
476.92	12035.03
477.10	12264.41
477.28	12322.92
477.46	12308.88
477.64	12917.42
477.82	12580.38
478.00	13032.10
478.18	12821.45
478.36	12793.37
478.54	13177.22
478.72	13048.49
478.90	13420.63
479.08	13535.32
479.26	13867.67
479.44	13568.09
479.62	13579.79
479.80	13921.51
479.98	13563.40
480.16	14185.99
480.34	14129.81
480.52	14106.41
480.70	13933.21
480.88	13975.34
481.06	14455.15
481.24	14424.72
481.41	14548.77
481.59	15005.17
481.77	14665.80
481.95	14848.36
482.13	15061.35
482.31	15208.80
482.49	15529.45
482.67	15173.69
482.85	15604.35
483.03	15522.43
483.21	15744.78
483.39	15917.98
483.57	15882.88
483.74	16177.78
483.92	15957.77
484.10	15843.09
484.28	16713.77
484.46	16379.07
484.64	16992.29
484.82	16477.37
485.00	16741.85
485.18	16776.96
485.35	17046.12
485.53	16627.17
485.71	16760.58
485.89	16891.65
486.07	17158.47
486.25	17008.67
486.43	17399.54
486.61	17617.21
486.78	17792.75
486.96	18043.19
487.14	18347.46
487.32	18317.03
487.50	18499.59
487.68	18555.77
487.85	18932.59
488.03	19283.67
488.21	19166.65
488.39	19058.98
488.57	19330.48
488.75	19267.29
488.92	19592.62
489.10	19798.59
489.28	19929.66
489.46	20301.81
489.64	20255.00
489.81	20491.39
489.99	20926.73
490.17	21001.63
490.35	20751.19
490.53	20856.51
490.70	20774.60
490.88	21076.52
491.06	21525.91
491.24	21139.72
491.41	21490.80
491.59	21624.21
491.77	21174.83
491.95	21788.05
492.13	21970.61
492.30	22207.00
492.48	22366.16
492.66	22295.94
492.84	22338.07
493.01	22333.39
493.19	22867.03
493.37	22871.72
493.54	22841.29
493.72	23126.83
493.90	23213.43
494.08	23447.49
494.25	23637.07
494.43	23906.23
494.61	24283.06
494.79	24276.04
494.96	23915.59
495.14	24346.25
495.32	24144.97
495.49	24283.06
495.67	24636.48
495.85	24587.33
496.02	24730.10
496.20	25109.27
496.38	24875.21
496.55	25188.85
496.73	25914.41
496.91	25568.01
497.09	25773.98
497.26	25933.14
497.44	25736.53
497.62	26038.46
497.79	26529.97
497.97	25954.20
498.14	26237.41
498.32	26300.60
498.50	26356.77
498.67	26679.77
498.85	26848.29
499.03	27124.47
499.20	27087.02
499.38	27063.61
499.56	27166.60
499.73	27445.12
499.91	27316.39
500.08	27365.54
500.26	27178.30
500.44	27618.32
500.61	27484.91
500.79	27669.81
500.97	27583.21
501.14	27517.68
501.32	28093.45
501.49	27852.38
501.67	27718.96
501.84	28329.84
502.02	28158.99
502.20	28591.98
502.37	28547.51
502.55	28999.24
502.72	28577.94
502.90	28982.85
503.07	28783.91
503.25	29146.69
503.43	28650.50
503.60	29022.64
503.78	29291.80
503.95	29142.01
504.13	29230.95
504.30	29570.33
504.48	29532.88
504.65	29560.97
504.83	29989.28
505.01	29872.26
505.18	30150.78
505.36	30199.93
505.53	30415.26
505.71	30581.44
505.88	30815.49
506.06	30342.70
506.23	30663.36
506.41	30888.05
506.58	30522.93
506.76	30859.96
506.93	31152.53
507.11	31000.40
507.28	31028.48
507.46	30897.41
507.63	31283.60
507.81	30972.31
507.98	31026.14
508.16	31175.94
508.33	31438.08
508.50	31824.26
508.68	32067.68
508.85	31817.24
509.03	31906.18
509.20	31976.40
509.38	31985.76
509.55	32070.02
509.73	32095.77
509.90	32093.43
510.08	32301.73
510.25	32236.20
510.42	32570.90
510.60	32367.27
510.77	32830.69
510.95	33067.09
511.12	32652.81
511.30	33151.35
511.47	33495.41
511.64	33366.68
511.82	33076.45
511.99	33212.20
512.17	33312.84
512.34	33322.21
512.51	33350.29
512.69	33652.22
512.86	33668.61
513.04	34075.86
513.21	33528.17
513.38	33713.08
513.56	33380.72
513.73	33722.44
513.90	33680.31
514.08	34195.23
514.25	34206.93
514.43	33905.00
514.60	34230.33
514.77	34244.38
514.95	34672.70
515.12	34721.85
515.29	34602.48
515.47	34923.13
515.64	35115.06
515.81	34656.31
515.99	34848.24
516.16	34747.59
516.33	34637.59
516.51	34513.54
516.68	34078.20
516.85	33986.92
517.03	34361.40
517.20	35215.70
517.37	34983.99
517.54	35161.87
517.72	35339.75
517.89	35241.45
518.06	34951.22
518.24	35255.49
518.41	35419.33
518.58	35482.52
518.75	35365.49
518.93	35597.21
519.10	36039.57
519.27	36180.00
519.45	36311.07
519.62	36339.16
519.79	36474.91
519.96	36610.66
520.14	36779.18
520.31	36341.50
520.48	36437.46
520.65	36694.92
520.83	36605.98
521.00	36575.55
521.17	36952.38
521.34	36989.83
521.52	37085.79
521.69	37158.34
521.86	37607.73
522.03	37523.47
522.20	37684.97
522.38	37172.39
522.55	37350.27
522.72	37038.98
522.89	37174.73
523.07	37572.62
523.24	37429.85
523.41	37780.93
523.58	38080.52
523.75	38504.15
523.92	38295.85
524.10	38122.65
524.27	38239.67
524.44	38134.35
524.61	38520.54
524.78	38354.36
524.96	38651.61
525.13	38775.66
525.30	38813.10
525.47	38689.06
525.64	38763.95
525.81	38684.37
525.98	38686.71
526.16	38326.27
526.33	38354.36
526.50	38810.76
526.67	37837.10
526.84	38366.06
527.01	38169.46
527.18	38855.23
527.36	39234.40
527.53	39154.82
527.70	39632.29
527.87	39672.08
528.04	39302.28
528.21	39526.97
528.38	39215.68
528.55	39711.87
528.72	39796.13
528.89	40121.46
529.07	39915.50
529.24	39667.40
529.41	40119.12
529.58	39761.02
529.75	40140.19
529.92	39777.40
530.09	40388.28
530.26	40591.91
530.43	40804.90
530.60	40247.85
530.77	39906.13
530.94	40355.52
531.11	40353.18
531.28	40837.67
531.46	40381.26
531.63	40538.08
531.80	40779.15
531.97	40259.55
532.14	40399.99
532.31	40334.45
532.48	40563.82
532.65	41013.21
532.82	40989.80
532.99	40652.76
533.16	40402.33
533.33	40664.47
533.50	41654.51
533.67	40973.42
533.84	40755.75
534.01	41483.66
534.18	41247.26
534.35	41443.87
534.52	41378.33
534.69	41420.46
534.86	41841.76
535.03	41383.01
535.20	42071.13
535.37	42139.00
535.54	42216.24
535.71	41603.02
535.88	42038.36
536.05	41670.90
536.22	42012.62
536.38	42017.30
536.55	41783.24
536.72	41675.58
536.89	41446.21
537.06	41654.51
537.23	42103.90
537.40	42162.41
537.57	42213.90
537.74	41979.85
537.91	42529.87
538.08	42373.06
538.25	41958.78
538.42	42380.08
538.59	42403.49
538.75	42064.11
538.92	42639.88
539.09	42251.35
539.26	42394.12
539.43	42693.71
539.60	42401.14
539.77	42234.97
539.94	43079.90
540.11	42679.67
540.28	42150.71
540.44	42555.62
540.61	42909.04
540.78	42281.78
540.95	42433.91
541.12	42923.08
541.29	42806.06
541.46	42593.07
541.62	43115.01
541.79	43384.17
541.96	42569.66
542.13	43222.67
542.30	43105.65
542.47	43377.15
542.63	42848.19
542.80	43452.05
542.97	43702.48
543.14	43955.26
543.31	43358.42
543.48	43735.25
543.64	44147.18
543.81	43842.92
543.98	43775.04
544.15	43629.93
544.32	43922.49
544.48	44327.41
544.65	43775.04
544.82	44013.77
544.99	43845.26
545.16	44226.76
545.32	43878.02
545.49	44126.12
545.66	43945.90
545.83	44364.85
546.00	44552.10
546.16	44615.29
546.33	44194.00
546.50	43756.32
546.67	44463.16
546.83	44112.08
547.00	44357.83
547.17	44488.90
547.34	44257.19
547.50	44608.27
547.67	44800.19
547.84	44538.05
548.00	45036.59
548.17	44758.06
548.34	44484.22
548.51	44535.71
548.67	45287.03
548.84	45244.90
549.01	44961.69
549.18	44814.24
549.34	44697.21
549.51	45193.40
549.68	45064.67
549.84	45064.67
550.01	45359.58
550.18	44912.54
550.34	45319.79
550.51	45055.31
550.68	45029.57
550.84	44776.79
551.01	44842.32
551.18	45242.56
551.34	44926.58
551.51	44896.16
551.68	45556.19
551.84	45495.33
552.01	45172.34
552.18	45207.45
552.34	44992.12
552.51	45504.70
552.68	45581.93
552.84	45612.36
553.01	45783.22
553.18	45734.07
553.34	45703.64
553.51	45317.45
553.67	46103.87
553.84	45801.94
554.01	45759.81
554.17	45848.75
554.34	46279.41
554.51	46337.93
554.67	46148.34
554.84	46026.63
555.00	45860.46
555.17	45820.67
555.33	46305.16
555.50	46045.36
555.67	45961.10
555.83	46101.53
556.00	46192.81
556.16	46115.58
556.33	46181.11
556.50	46073.45
556.66	46195.15
556.83	46148.34
556.99	46014.93
557.16	45897.91
557.32	46190.47
557.49	45769.18
557.65	46223.24
557.82	45986.85
557.98	46024.29
558.15	46665.60
558.32	46391.76
558.48	45830.03
558.65	46431.55
558.81	46253.67
558.98	46337.93
559.14	45855.78
559.31	46328.56
559.47	46141.32
559.64	46520.49
559.80	46707.73
559.97	46557.94
560.13	46307.50
560.30	46555.60
560.46	46550.91
560.63	46520.49
560.79	47033.07
560.96	46773.27
561.12	46799.01
561.29	46883.27
561.45	46518.15
561.61	46241.96
561.78	46651.56
561.94	46286.43
562.11	46625.81
562.27	46649.22
562.44	46593.04
562.60	46822.42
562.77	47096.26
562.93	46387.08
563.10	46887.95
563.26	46284.09
563.42	46499.42
563.59	46279.41
563.75	46632.83
563.92	47100.94
564.08	47154.77
564.24	47079.88
564.41	46323.88
564.57	46927.74
564.74	47173.50
564.90	46749.86
565.07	47180.52
565.23	46522.83
565.39	46368.35
565.56	46740.50
565.72	46834.12
565.88	46883.27
566.05	46820.08
566.21	46850.50
566.38	47110.30
566.54	46923.06
566.70	47051.79
566.87	47236.69
567.03	46862.21
567.19	47327.97
567.36	47353.72
567.52	47117.32
567.68	46813.05
567.85	46667.94
568.01	46424.53
568.17	47138.39
568.34	47075.19
568.50	47377.12
568.66	46862.21
568.83	46845.82
568.99	46796.67
569.15	46845.82
569.32	47098.60
569.48	46775.61
569.64	47334.99
569.81	46719.43
569.97	46848.16
570.13	47313.93
570.30	46663.26
570.46	47058.81
570.62	46469.00
570.78	47236.69
570.95	46962.85
571.11	46958.17
571.27	46831.78
571.43	46981.57
571.60	47009.66
571.76	46894.97
571.92	46667.94
572.09	47503.51
572.25	47250.74
572.41	46955.83
572.57	47601.82
572.74	47585.43
572.90	47416.91
573.06	47260.10
573.22	47131.37
573.38	47175.84
573.55	46909.02
573.71	47257.76
573.87	47220.31
574.03	46808.37
574.20	47351.38
574.36	47316.27
574.52	47292.86
574.68	47243.71
574.84	46958.17
575.01	47215.63
575.17	46824.76
575.33	47334.99
575.49	47030.72
575.65	47311.59
575.82	47538.62
575.98	47192.22
576.14	47428.62
576.30	46990.94
576.46	47323.29
576.62	46857.52
576.79	47117.32
576.95	46876.25
577.11	47103.28
577.27	47072.85
577.43	47227.33
577.59	47091.58
577.75	46862.21
577.92	47086.90
578.08	46789.65
578.24	46546.23
578.40	47035.41
578.56	47124.35
578.72	47288.18
578.88	47159.45
579.04	47550.32
579.21	46852.84
579.37	47367.76
579.53	47557.35
579.69	47086.90
579.85	47274.14
580.01	47342.02
580.17	47381.80
580.33	47569.05
580.49	46892.63
580.65	47442.66
580.82	47711.82
580.98	47114.98
581.14	47243.71
581.30	47821.83
581.46	46852.84
581.62	47662.67
581.78	47510.53
581.94	47683.73
582.10	47524.58
582.26	47660.33
582.42	47393.51
582.58	47082.22
582.74	47250.74
582.90	47107.96
583.06	47484.79
583.22	47412.23
583.38	47435.64
583.54	47480.11
583.70	47065.83
583.86	47224.99
584.02	47531.60
584.18	47290.52
584.34	47243.71
584.50	47702.46
584.66	46990.94
584.82	47178.18
584.98	47756.29
585.14	47405.21
585.30	47138.39
585.46	47512.88
585.62	47049.45
585.78	47459.04
585.94	47075.19
586.10	46911.36
586.26	46972.21
586.42	47100.94
586.58	47243.71
586.74	47604.16
586.90	47114.98
587.06	47126.69
587.22	47674.37
587.38	47229.67
587.54	47723.52
587.70	47381.80
587.86	47269.46
588.02	47349.04
588.18	47559.69
588.34	46707.73
588.49	47004.98
588.65	46787.31
588.81	46600.07
588.97	46937.10
589.13	47114.98
589.29	46967.53
589.45	46946.47
589.61	47543.30
589.77	47262.44
589.93	47718.84
590.08	47547.98
590.24	47416.91
590.40	47358.40
590.56	47885.02
590.72	47086.90
590.88	47412.23
591.04	47250.74
591.20	47346.70
591.35	47508.19
591.51	48107.37
591.67	47463.72
591.83	47192.22
591.99	47283.50
592.15	47508.19
592.31	47173.50
592.46	47400.53
592.62	47515.22
592.78	47185.20
592.94	47459.04
593.10	47339.68
593.26	47379.46
593.41	47070.51
593.57	47388.83
593.73	47082.22
593.89	47662.67
594.05	47185.20
594.20	47264.78
594.36	47463.72
594.52	47391.17
594.68	47327.97
594.84	47557.35
594.99	47751.61
595.15	47714.16
595.31	47543.30
595.47	47393.51
595.62	47360.74
595.78	48051.20
595.94	47657.99
596.10	47831.19
596.25	47686.07
596.41	47688.42
596.57	47494.15
596.73	47442.66
596.88	47213.29
597.04	47491.81
597.20	47395.85
597.36	47311.59
597.51	47753.95
597.67	47662.67
597.83	47601.82
597.99	47697.78
598.14	47150.09
598.30	47466.06
598.46	47693.10
598.61	47393.51
598.77	47477.77
598.93	47152.43
599.09	47423.93
599.24	48205.67
599.40	47075.19
599.56	47868.64
599.71	47342.02
599.87	47608.84
600.03	47599.47
600.18	47742.25
600.34	47194.56
600.50	47166.48
600.65	46948.81
600.81	47821.83
600.97	47676.71
601.12	47810.12
601.28	47578.41
601.44	47463.72
601.59	47459.04
601.75	47349.04
601.91	47657.99
602.06	47416.91
602.22	47433.30
602.37	47442.66
602.53	47482.45
602.69	47547.98
602.84	47564.37
603.00	47873.32
603.16	47239.03
603.31	47363.08
603.47	47351.38
603.62	47316.27
603.78	47908.43
603.94	47253.08
604.09	47732.89
604.25	47798.42
604.40	47285.84
604.56	47419.25
604.71	47585.43
604.87	47168.82
605.03	47487.13
605.18	47555.00
605.34	47679.05
605.49	47035.41
605.65	47196.90
605.80	47339.68
605.96	47636.92
606.12	47388.83
606.27	47267.12
606.43	47082.22
606.58	47243.71
606.74	47224.99
606.89	47239.03
607.05	47112.64
607.20	47585.43
607.36	47187.54
607.51	47770.33
607.67	47543.30
607.82	47086.90
607.98	47072.85
608.13	47475.43
608.29	47257.76
608.44	47358.40
608.60	46784.97
608.75	46969.87
608.91	46986.25
609.06	46855.18
609.22	47040.09
609.37	46780.29
609.53	47072.85
609.68	47019.02
609.84	46967.53
609.99	46588.36
610.15	47122.01
610.30	46885.61
610.46	46557.94
610.61	46511.13
610.76	47098.60
610.92	46789.65
611.07	46635.17
611.23	46707.73
611.38	47016.68
611.54	46499.42
611.69	46714.75
611.84	46803.69
612.00	46597.73
612.15	46749.86
612.31	46693.69
612.46	46614.11
612.62	46836.46
612.77	46387.08
612.92	46930.08
613.08	46337.93
613.23	46302.82
613.39	46300.48
613.54	46071.10
613.69	46574.32
613.85	46199.83
614.00	46707.73
614.15	46948.81
614.31	46679.64
614.46	46452.61
614.62	46209.20
614.77	46335.59
614.92	46377.72
615.08	46492.40
615.23	46597.73
615.38	46279.41
615.54	46071.10
615.69	46176.43
615.84	45771.52
616.00	46040.68
616.15	45942.38
616.30	45874.50
616.46	45724.71
616.61	45813.65
616.76	45883.86
616.92	45783.22
617.07	45710.66
617.22	45970.46
617.37	45780.88
617.53	46153.02
617.68	46047.70
617.83	46103.87
617.99	46021.95
618.14	45851.09
618.29	46115.58
618.45	45481.29
618.60	45743.43
618.75	45546.82
618.90	45743.43
619.06	45841.73
619.21	45539.80
619.36	45890.88
619.51	45691.94
619.67	45612.36
619.82	45925.99
619.97	46136.64
620.12	45329.16
620.28	45057.65
620.43	45661.51
620.58	45415.76
620.73	45212.13
620.89	45191.06
621.04	45240.21
621.19	45261.28
621.34	45064.67
621.49	44966.37
621.65	44861.05
621.80	45434.48
621.95	45052.97
622.10	45205.11
622.25	45380.65
622.41	45102.12
622.56	44942.97
622.71	45284.68
622.86	45249.58
623.01	44912.54
623.16	44994.46
623.32	45549.17
623.47	45221.49
623.62	44947.65
623.77	44671.46
623.92	44495.92
624.07	44898.50
624.23	44516.99
624.38	44769.77
624.53	44587.21
624.68	44727.64
624.83	44971.05
624.98	44854.03
625.13	44493.58
625.29	44814.24
625.44	44554.44
625.59	44210.38
625.74	44257.19
625.89	43714.19
626.04	44224.42
626.19	44278.25
626.34	44404.64
626.49	44320.38
626.65	44280.60
626.80	44451.45
626.95	44421.03
627.10	44069.95
627.25	44053.56
627.40	43700.14
627.55	43756.32
627.70	43220.33
627.85	43798.44
628.00	43793.76
628.15	44149.53
628.30	44067.61
628.45	44399.96
628.60	44034.84
628.76	44107.40
628.91	44189.31
629.06	43871.00
629.21	43648.65
629.36	43494.18
629.51	43351.40
629.66	43615.88
629.81	43264.80
629.96	43665.03
630.11	43501.20
630.26	43665.03
630.41	43772.70
630.56	43672.06
630.71	43695.46
630.86	43367.79
631.01	43185.22
631.16	43473.11
631.31	42845.85
631.46	42944.15
631.61	43363.11
631.76	43166.50
631.91	43732.91
632.06	43189.91
632.21	43166.50
632.36	43419.28
632.51	43433.32
632.66	43250.76
632.81	43309.27
632.96	43328.00
633.10	42511.15
633.25	42696.05
633.40	43356.08
633.55	43093.94
633.70	43016.71
633.85	42567.32
634.00	43152.46
634.15	42834.14
634.30	42710.10
634.45	42916.06
634.60	43002.66
634.75	42902.02
634.90	42761.59
635.05	42852.87
635.19	42483.06
635.34	43049.47
635.49	42696.05
635.64	42389.44
635.79	42550.94
635.94	42656.26
636.09	42387.10
636.24	42494.77
636.39	42029.00
636.53	42555.62
636.68	42052.41
636.83	42251.35
636.98	42642.22
637.13	42178.79
637.28	42272.42
637.43	42595.41
637.57	42426.89
637.72	42422.21
637.87	42614.13
638.02	42218.58
638.17	42059.43
638.32	42017.30
638.46	41750.48
638.61	42117.94
638.76	41940.06
638.91	41979.85
639.06	41375.99
639.20	41790.27
639.35	42333.27
639.50	41876.86
639.65	42103.90
639.80	42230.29
639.94	41488.34
640.09	41738.77
640.24	41736.43
640.39	41851.12
640.54	41766.86
640.68	41493.02
640.83	41853.46
640.98	41343.22
641.13	41804.31
641.27	41778.56
641.42	41528.13
641.57	41610.04
641.72	41914.31
641.86	41261.30
642.01	41198.11
642.16	41111.51
642.31	40865.75
642.45	41338.54
642.60	40725.32
642.75	40985.12
642.90	41111.51
643.04	40868.09
643.19	41041.29
643.34	41095.13
643.48	41127.89
643.63	41223.86
643.78	41017.89
643.93	40931.29
644.07	40992.14
644.22	41001.50
644.37	40760.43
644.51	41013.21
644.66	41055.34
644.81	41060.02
644.95	40926.61
645.10	41057.68
645.25	40732.34
645.39	41298.75
645.54	40919.59
645.69	41111.51
645.83	40669.15
645.98	40837.67
646.13	40964.06
646.27	40589.57
646.42	40690.21
646.57	40645.74
646.71	40762.77
646.86	40275.94
647.00	40526.38
647.15	40446.80
647.30	40793.20
647.44	40367.22
647.59	40453.82
647.74	40467.86
647.88	40346.15
648.03	40409.35
648.17	40339.13
648.32	39974.01
648.47	40320.41
648.61	40086.36
648.76	40238.49
648.90	40332.11
649.05	40149.55
649.20	40519.35
649.34	40472.54
649.49	39906.13
649.63	40121.46
649.78	39845.28
649.92	39718.89
650.07	40067.63
650.21	39615.91
650.36	40205.72
650.51	39948.26
650.65	40385.94
650.80	40357.86
650.94	39985.71
651.09	40020.82
651.23	40095.72
651.38	40179.98
651.52	39875.71
651.67	39714.21
651.81	39761.02
651.96	39723.57
652.10	39751.66
652.25	39735.27
652.39	39697.83
652.54	39627.61
652.68	39772.72
652.83	39339.72
652.97	39824.22
653.12	39690.80
653.26	39384.19
653.41	39658.04
653.55	39416.96
653.70	39304.62
653.84	39590.16
653.99	39040.14
654.13	39517.60
654.27	39398.24
654.42	39590.16
654.56	38899.70
654.71	39508.24
654.85	38864.60
655.00	39278.87
655.14	38778.00
655.29	38600.12
655.43	38447.98
655.57	38394.15
655.72	38480.75
655.86	38665.65
656.01	38260.74
656.15	37991.58
656.30	38213.93
656.44	38476.07
656.58	38326.27
656.73	38057.11
656.87	37851.14
657.01	37923.70
657.16	38209.25
657.30	38487.77
657.45	37954.13
657.59	38401.17
657.73	37998.60
657.88	38483.09
658.02	38298.19
658.16	38403.51
658.31	38632.88
658.45	38433.94
658.60	38813.10
658.74	38543.94
658.88	38487.77
659.03	37968.17
659.17	37991.58
659.31	37757.52
659.46	37912.00
659.60	38141.37
659.74	37757.52
659.89	37963.49
660.03	37701.35
660.17	38068.81
660.32	37860.51
660.46	37890.93
660.60	37387.72
660.74	37984.55
660.89	37893.27
661.03	37525.81
661.17	37275.37
661.32	36910.25
661.46	37450.91
661.60	37338.57
661.74	36945.36
661.89	37521.13
662.03	37326.86
662.17	37034.30
662.31	36931.31
662.46	37289.42
662.60	37219.20
662.74	36968.76
662.88	36767.48
663.03	37207.50
663.17	36945.36
663.31	36409.37
663.45	36959.40
663.60	36816.63
663.74	36189.36
663.88	36514.70
664.02	36252.56
664.17	36297.03
664.31	36407.03
664.45	36154.26
664.59	36299.37
664.73	36360.22
664.88	36182.34
665.02	36119.15
665.16	36357.88
665.30	36648.11
665.44	36100.42
665.59	35487.20
665.73	35545.72
665.87	35833.60
666.01	35718.92
666.15	35739.98
666.29	35641.68
666.44	35957.65
666.58	35665.08
666.72	35702.53
666.86	35786.79
667.00	35648.70
667.14	35288.26
667.28	35091.65
667.43	35379.54
667.57	35115.06
667.71	35218.04
667.85	34965.26
667.99	35049.52
668.13	34401.19
668.27	34607.16
668.41	35129.10
668.56	34569.71
668.70	34930.16
668.84	35072.93
668.98	34756.96
669.12	34682.06
669.26	34689.08
669.40	34401.19
669.54	34335.66
669.68	34536.94
669.82	34115.65
669.96	34375.45
670.10	33914.36
670.25	34293.53
670.39	33993.94
670.53	33926.07
670.67	34096.92
670.81	33907.34
670.95	33996.28
671.09	33677.97
671.23	33680.31
671.37	34300.55
671.51	33621.80
671.65	33427.53
671.79	33326.89
671.93	33336.25
672.07	33472.00
672.21	33062.41
672.35	33418.17
672.49	33174.75
672.63	33570.30
672.77	32992.19
672.91	33144.33
673.05	32716.01
673.19	33146.67
673.33	32339.18
673.47	33046.02
673.61	32828.35
673.75	32622.39
673.89	32334.50
674.03	31737.66
674.17	32128.53
674.31	32191.73
674.45	32079.38
674.59	32203.43
674.73	32144.92
674.87	32250.24
675.01	31854.69
675.15	32378.97
675.29	32084.06
675.43	32046.62
675.56	31697.88
675.70	31679.15
675.84	31386.58
675.98	30745.28
676.12	31236.79
676.26	31424.03
676.40	31288.28
676.54	30972.31
676.68	30700.81
676.82	30431.65
676.96	30967.63
677.10	30686.76
677.23	30979.33
677.37	30073.54
677.51	30305.26
677.65	30389.52
677.79	30155.46
677.93	30036.09
678.07	29958.86
678.21	29989.28
678.34	30015.03
678.48	29727.14
678.62	30256.11
678.76	29301.17
678.90	29570.33
679.04	29647.57
679.18	29874.60
679.31	29230.95
679.45	29291.80
679.59	29057.75
679.73	29074.13
679.87	29069.45
680.00	29095.20
680.14	29017.96
680.28	28650.50
680.42	28517.09
680.56	28545.17
680.70	28149.62
680.83	28402.40
680.97	27978.76
681.11	28158.99
681.25	28041.96
681.39	27971.74
681.52	27847.69
681.66	27772.80
681.80	28107.49
681.94	27744.71
682.07	27777.48
682.21	27620.66
682.35	27297.67
682.49	27426.40
682.62	27487.25
682.76	27035.53
682.90	26913.82
683.04	27473.21
683.17	26838.92
683.31	26773.39
683.45	26539.33
683.59	26422.31
683.72	26515.93
683.86	26508.91
684.00	25986.97
684.13	26497.20
684.27	26321.66
684.41	26169.53
684.55	25759.94
684.68	25818.45
684.82	25593.76
684.96	25298.85
685.09	25909.73
685.23	25233.32
685.37	25317.57
685.50	25493.12
685.64	25390.13
685.78	25259.06
685.91	25219.27
686.05	25041.39
686.19	24769.89
686.32	24418.81
686.46	24648.18
686.60	24240.93
686.73	24224.54
686.87	23948.36
687.01	23648.77
687.14	24140.29
687.28	23683.88
687.42	23761.12
687.55	23449.83
687.69	23473.23
687.82	23604.30
687.96	23566.85
688.10	23150.24
688.23	23826.65
688.37	23232.16
688.50	23058.96
688.64	23058.96
688.78	23229.82
688.91	22937.25
689.05	22707.88
689.18	22759.37
689.32	22562.76
689.46	22897.46
689.59	22764.05
689.73	22817.88
689.86	22464.46
690.00	22590.85
690.13	22740.64
690.27	22422.33
690.41	22441.06
690.54	22059.55
690.68	21762.30
690.81	21876.99
690.95	21900.39
691.08	21678.04
691.22	21912.10
691.35	21701.45
691.49	21652.30
691.62	21715.49
691.76	21734.21
691.89	21406.54
692.03	21184.19
692.16	21010.99
692.30	21305.90
692.43	20903.32
692.57	20645.87
692.70	20872.90
692.84	20575.65
692.97	20753.53
693.11	20533.52
693.24	20449.26
693.38	20130.95
693.51	20372.02
693.65	20278.40
693.78	20252.66
693.92	19981.15
694.05	19744.76
694.19	19850.08
694.32	19796.25
694.45	20243.29
694.59	19585.60
694.72	19716.67
694.86	19690.93
694.99	19501.34
695.13	19005.15
695.26	19030.90
695.39	18930.25
695.53	19166.65
695.66	19119.84
695.80	18932.59
695.93	18918.55
696.07	18714.92
696.20	18738.33
696.33	18829.61
696.47	18841.31
696.60	18530.02
696.73	18663.43
696.87	18464.49
697.00	18541.72
697.14	18597.90
697.27	18106.38
697.40	18036.17
697.54	17970.63
697.67	17736.58
697.80	17884.03
697.94	17748.28
698.07	17610.19
698.21	17781.05
698.34	17659.34
698.47	17436.99
698.61	17277.83
698.74	17067.19
698.87	17741.26
699.01	16739.51
699.14	16793.34
699.27	17036.76
699.40	17099.95
699.54	16753.55
699.67	16917.39
699.80	16673.98
699.94	16673.98
700.07	16999.31
700.20	16290.13
700.34	16339.28
700.47	16451.63
700.60	16334.60
700.73	16713.77
700.87	16376.73
701.00	15960.11
701.13	16154.38
701.26	16049.05
701.40	15873.51
701.53	15648.82
701.66	16002.24
701.79	15489.67
701.93	15854.79
702.06	15314.13
702.19	15583.29
702.32	15468.60
702.46	15597.33
702.59	15400.72
702.72	15534.14
702.85	15089.43
702.99	15297.74
703.12	15157.31
703.25	15232.21
703.38	15115.18
703.51	15119.86
703.65	14771.12
703.78	14904.53
703.91	14906.87
704.04	14623.67
704.17	14569.83
704.31	14424.72
704.44	14174.28
704.57	14319.40
704.70	13933.21
704.83	14185.99
704.96	14185.99
705.10	14181.31
705.23	14258.54
>>>>>End Processed Spectral Data<<<<<
