SpectraSuite Data File
++++++++++++++++++++++++++++++++++++
Date: Fri Oct 25 10:47:25 EDT 2013
User: price-jones
Dark Spectrum Present: No
Reference Spectrum Present: No
Number of Sampled Component Spectra: 1
Spectrometers: USB2+H05261
Integration Time (usec): 100000 (USB2+H05261)
Spectra Averaged: 1 (USB2+H05261)
Boxcar Smoothing: 0 (USB2+H05261)
Correct for Electrical Dark: No (USB2+H05261)
Strobe/Lamp Enabled: No (USB2+H05261)
Correct for Detector Non-linearity: No (USB2+H05261)
Correct for Stray Light: No (USB2+H05261)
Number of Pixels in Processed Spectrum: 2048
>>>>>Begin Processed Spectral Data<<<<<
365.73	194.26
365.92	194.26
366.12	194.26
366.32	65.54
366.52	77.24
366.72	42.13
366.91	21.06
367.11	53.83
367.31	0.00
367.51	0.00
367.70	35.11
367.90	16.38
368.10	18.72
368.30	60.85
368.49	9.36
368.69	0.00
368.89	102.98
369.09	79.58
369.28	42.13
369.48	14.04
369.68	95.96
369.87	135.75
370.07	88.94
370.27	84.26
370.47	189.58
370.66	369.80
370.86	351.08
371.06	489.17
371.25	451.72
371.45	362.78
371.65	444.70
371.84	428.32
372.04	400.23
372.24	449.38
372.44	411.93
372.63	472.79
372.83	503.22
373.03	475.13
373.22	468.11
373.42	451.72
373.62	559.39
373.81	526.62
374.01	468.11
374.21	545.34
374.40	559.39
374.60	559.39
374.79	507.90
374.99	552.37
375.19	561.73
375.38	561.73
375.58	519.60
375.78	648.33
375.97	545.34
376.17	624.92
376.37	636.63
376.56	559.39
376.76	528.96
376.95	585.13
377.15	599.18
377.35	615.56
377.54	648.33
377.74	624.92
377.93	655.35
378.13	669.39
378.33	655.35
378.52	624.92
378.72	664.71
378.91	678.76
379.11	643.65
379.31	650.67
379.50	575.77
379.70	671.73
379.89	655.35
380.09	608.54
380.28	653.01
380.48	681.10
380.68	648.33
380.87	674.07
381.07	603.86
381.26	660.03
381.46	627.26
381.65	620.24
381.85	519.60
382.04	655.35
382.24	653.01
382.43	718.54
382.63	660.03
382.83	695.14
383.02	688.12
383.22	732.59
383.41	667.05
383.61	746.63
383.80	765.36
384.00	760.67
384.19	702.16
384.39	734.93
384.58	718.54
384.78	716.20
384.97	770.04
385.17	732.59
385.36	767.70
385.56	809.83
385.75	777.06
385.95	713.86
386.14	725.57
386.34	812.17
386.53	779.40
386.72	856.64
386.92	819.19
387.11	753.65
387.31	866.00
387.50	851.96
387.70	791.10
387.89	805.14
388.09	753.65
388.28	889.40
388.48	718.54
388.67	880.04
388.86	926.85
389.06	880.04
389.25	863.66
389.45	896.43
389.64	908.13
389.84	877.70
390.03	919.83
390.22	968.98
390.42	894.08
390.61	926.85
390.81	926.85
391.00	919.83
391.19	922.17
391.39	959.62
391.58	1053.24
391.78	1064.94
391.97	1020.47
392.16	931.53
392.36	992.39
392.55	929.19
392.75	980.68
392.94	1027.50
393.13	1015.79
393.33	873.02
393.52	1006.43
393.71	1102.39
393.91	1057.92
394.10	1032.18
394.29	1020.47
394.49	1060.26
394.68	1050.90
394.88	1011.11
395.07	1118.78
395.26	1071.97
395.46	1158.57
395.65	1170.27
395.84	1214.74
396.04	1184.31
396.23	1125.80
396.42	1069.62
396.62	1149.20
396.81	1078.99
397.00	1221.76
397.19	1121.12
397.39	1137.50
397.58	1217.08
397.77	1256.87
397.97	1336.45
398.16	1231.12
398.35	1287.29
398.55	1277.93
398.74	1418.36
398.93	1291.98
399.12	1320.06
399.32	1359.85
399.51	1369.21
399.70	1423.05
399.90	1348.15
400.09	1406.66
400.28	1411.34
400.47	1465.18
400.67	1479.22
400.86	1432.41
401.05	1500.28
401.24	1479.22
401.44	1472.20
401.63	1495.60
401.82	1451.13
402.01	1528.37
402.21	1563.48
402.40	1523.69
402.59	1446.45
402.78	1544.75
402.97	1490.92
403.17	1610.29
403.36	1535.39
403.55	1671.14
403.74	1570.50
403.93	1549.43
404.13	1732.00
404.32	1643.06
404.51	1689.87
404.70	1727.32
404.89	1650.08
405.09	1748.38
405.28	1661.78
405.47	1703.91
405.66	1834.98
405.85	1818.60
406.05	1743.70
406.24	1717.95
406.43	1734.34
406.62	1788.17
406.81	1916.90
407.00	1783.49
407.20	1825.62
407.39	1734.34
407.58	1877.11
407.77	1867.75
407.96	2022.22
408.15	1834.98
408.34	1930.94
408.54	2029.24
408.73	1947.33
408.92	1944.99
409.11	2010.52
409.30	2001.16
409.49	2031.58
409.68	2033.93
409.87	2162.66
410.07	2148.61
410.26	1994.14
410.45	2111.16
410.64	2125.21
410.83	2200.10
411.02	2204.78
411.21	2256.28
411.40	2253.94
411.59	2319.47
411.78	2359.26
411.98	2251.60
412.17	2263.30
412.36	2401.39
412.55	2354.58
412.74	2452.88
412.93	2354.58
413.12	2417.77
413.31	2619.06
413.50	2417.77
413.69	2485.65
413.88	2551.18
414.07	2567.57
414.26	2675.23
414.45	2581.61
414.64	2590.97
414.83	2745.45
415.02	2773.53
415.22	2764.17
415.41	2686.94
415.60	2766.51
415.79	2829.71
415.98	2935.03
416.17	2806.30
416.36	2841.41
416.55	2895.24
416.74	2860.13
416.93	2953.76
417.12	2899.92
417.31	2953.76
417.50	2925.67
417.69	3000.57
417.88	3070.78
418.07	3045.04
418.26	3023.97
418.45	3164.40
418.64	3152.70
418.83	3070.78
419.02	3218.24
419.21	3194.83
419.39	3176.11
419.58	3105.89
419.77	3105.89
419.96	3157.38
420.15	3234.62
420.34	3281.43
420.53	3267.39
420.72	3349.31
420.91	3400.80
421.10	3309.52
421.29	3440.59
421.48	3400.80
421.67	3480.38
421.86	3421.86
422.05	3426.54
422.24	3440.59
422.43	3393.78
422.61	3424.20
422.80	3559.95
422.99	3524.85
423.18	3550.59
423.37	3566.98
423.56	3574.00
423.75	3501.44
423.94	3435.91
424.13	3241.64
424.32	3349.31
424.50	3576.34
424.69	3604.42
424.88	3578.68
425.07	3515.48
425.26	3555.27
425.45	3471.01
425.64	3702.73
425.83	3506.12
426.01	3674.64
426.20	3562.30
426.39	3590.38
426.58	3471.01
426.77	3597.40
426.96	3726.13
427.15	3616.13
427.33	3623.15
427.52	3705.07
427.71	3604.42
427.90	3644.21
428.09	3761.24
428.28	3789.33
428.46	3735.50
428.65	3730.81
428.84	4023.38
429.03	3918.06
429.22	3726.13
429.40	3744.86
429.59	3852.52
429.78	3679.32
429.97	3590.38
430.16	3707.41
430.34	3749.54
430.53	3871.25
430.72	3798.69
430.91	3798.69
431.10	3953.16
431.28	4124.02
431.47	4131.05
431.66	4070.19
431.85	4091.26
432.03	4166.15
432.22	4250.41
432.41	4311.27
432.60	4180.20
432.79	4229.35
432.97	4269.14
433.16	4234.03
433.35	4191.90
433.54	4238.71
433.72	4126.36
433.91	4245.73
434.10	4112.32
434.28	4257.43
434.47	4196.58
434.66	4299.56
434.85	4311.27
435.03	4376.80
435.22	4503.19
435.41	4723.20
435.59	4554.68
435.78	4587.45
435.97	4435.32
436.16	4468.08
436.34	4643.62
436.53	4667.03
436.72	4856.61
436.90	4514.89
437.09	4732.56
437.28	4470.42
437.46	4662.35
437.65	4760.65
437.84	4671.71
438.02	4662.35
438.21	4716.18
438.40	4662.35
438.58	4922.15
438.77	4954.91
438.96	4973.64
439.14	4943.21
439.33	4973.64
439.52	4901.08
439.70	4999.38
439.89	5062.58
440.08	5259.18
440.26	5069.60
440.45	5301.31
440.63	5294.29
440.82	5458.13
441.01	5179.61
441.19	5366.85
441.38	5469.83
441.57	5493.24
441.75	5462.81
441.94	5727.29
442.12	5652.39
442.31	5692.18
442.50	5591.54
442.68	5621.97
442.87	5685.16
443.05	5617.29
443.24	5757.72
443.43	5753.04
443.61	5874.74
443.80	5806.87
443.98	5650.05
444.17	5582.18
444.35	5891.13
444.54	6008.16
444.73	5849.00
444.91	5785.80
445.10	5647.71
445.28	5834.96
445.47	5685.16
445.65	5893.47
445.84	5891.13
446.02	5954.32
446.21	5959.00
446.39	5956.66
446.58	6052.63
446.77	5975.39
446.95	5804.53
447.14	6026.88
447.32	6054.97
447.51	5884.11
447.69	6047.94
447.88	5916.87
448.06	5827.93
448.25	6066.67
448.43	6092.41
448.62	6017.52
448.80	5898.15
448.99	6134.54
449.17	6064.33
449.36	6132.20
449.54	6160.29
449.73	6235.19
449.91	6399.02
450.10	6181.35
450.28	6349.87
450.46	6314.77
450.65	6296.04
450.83	6457.54
451.02	6417.75
451.20	6560.52
451.39	6443.49
451.57	6384.98
451.76	6530.09
451.94	6403.71
452.13	6544.14
452.31	6431.79
452.49	6321.79
452.68	6541.80
452.86	6612.01
453.05	6614.35
453.23	6951.39
453.42	6607.33
453.60	6518.39
453.78	6658.82
453.97	6677.55
454.15	6658.82
454.34	6417.75
454.52	6637.76
454.70	6722.02
454.89	6806.28
455.07	6750.10
455.26	6923.30
455.44	6960.75
455.62	6967.77
455.81	6984.16
455.99	7059.06
456.17	7061.40
456.36	7108.21
456.54	6967.77
456.73	7272.04
456.91	7155.02
457.09	7262.68
457.28	7304.81
457.46	7255.66
457.64	7442.90
457.83	7180.76
458.01	7042.67
458.19	7463.97
458.38	7265.02
458.56	7520.14
458.74	7384.39
458.93	7393.75
459.11	7485.03
459.29	7557.59
459.48	7655.89
459.66	7258.00
459.84	7602.06
460.03	7751.85
460.21	7716.75
460.39	7683.98
460.57	7517.80
460.76	7662.91
460.94	7868.88
461.12	7763.56
461.31	7747.17
461.49	7768.24
461.67	7845.48
461.85	7943.78
462.04	7833.77
462.22	8348.69
462.40	7927.39
462.59	7887.61
462.77	8161.45
462.95	8142.72
463.13	7903.99
463.32	8098.25
463.50	8154.43
463.68	8140.38
463.86	8100.59
464.05	7873.56
464.23	7962.50
464.41	8177.83
464.59	8030.38
464.78	8423.59
464.96	8327.63
465.14	8229.32
465.32	8362.73
465.50	8372.10
465.69	8432.95
465.87	8294.86
466.05	8365.07
466.23	8236.35
466.41	8351.03
466.60	8521.89
466.78	8271.45
466.96	8442.31
467.14	8517.21
467.32	8538.27
467.51	8402.52
467.69	8369.76
467.87	8418.91
468.05	8737.22
468.23	8489.12
468.41	8568.70
468.60	8664.66
468.78	8753.60
468.96	8617.85
469.14	8837.86
469.32	8599.13
469.50	8557.00
469.69	8854.25
469.87	9132.77
470.05	8901.06
470.23	9083.62
470.41	9029.79
470.59	9060.21
470.77	8891.70
470.95	9111.71
471.14	9221.71
471.32	9036.81
471.50	9188.94
471.68	9493.21
471.86	9282.56
472.04	9282.56
472.22	9682.80
472.40	9369.16
472.58	9607.90
472.77	9558.75
472.95	9647.69
473.13	9891.10
473.31	9514.28
473.49	9544.70
473.67	9591.52
473.85	9645.35
474.03	9811.53
474.21	9909.83
474.39	10008.13
474.57	9853.66
474.75	10064.30
474.93	10403.68
475.12	10029.20
475.30	10057.28
475.48	10094.73
475.66	10186.01
475.84	10186.01
476.02	10476.24
476.20	10452.83
476.38	10352.19
476.56	10822.64
476.74	10843.70
476.92	10757.10
477.10	10836.68
477.28	11119.89
477.46	10956.05
477.64	11068.39
477.82	11248.61
478.00	11405.43
478.18	11267.34
478.36	11290.74
478.54	11527.14
478.72	11585.65
478.90	11669.91
479.08	11737.79
479.26	11978.86
479.44	12121.63
479.62	11953.12
479.80	12149.72
479.98	12322.92
480.16	12294.83
480.34	12142.70
480.52	12624.85
480.70	12339.30
480.88	12521.87
481.06	12819.11
481.24	12442.29
481.41	12847.20
481.59	13057.85
481.77	12947.84
481.95	13219.35
482.13	13362.12
482.31	13280.20
482.49	13738.94
482.67	13486.17
482.85	13855.97
483.03	13825.54
483.21	13947.25
483.39	14066.62
483.57	13898.10
483.74	13928.53
483.92	14450.47
484.10	14090.02
484.28	14384.93
484.46	14576.86
484.64	15094.11
484.82	14637.71
485.00	14771.12
485.18	15110.50
485.35	15222.84
485.53	15073.05
485.71	15161.99
485.89	15161.99
486.07	15325.83
486.25	15730.74
486.43	15585.63
486.61	16020.97
486.78	16002.24
486.96	16093.52
487.14	16374.39
487.32	16226.93
487.50	16435.24
487.68	16568.65
487.85	16755.90
488.03	17039.10
488.21	17165.49
488.39	17167.83
488.57	16957.18
488.75	17083.57
488.92	17535.29
489.10	17848.93
489.28	17996.38
489.46	17963.61
489.64	17816.16
489.81	18338.10
489.99	18635.35
490.17	18298.31
490.35	18860.04
490.53	18717.26
490.70	18824.93
490.88	18602.58
491.06	18881.10
491.24	19318.78
491.41	18918.55
491.59	19005.15
491.77	18995.79
491.95	19723.69
492.13	19396.02
492.30	19594.96
492.48	20142.65
492.66	20018.60
492.84	20161.37
493.01	20011.58
493.19	20037.33
493.37	20664.59
493.54	20613.10
493.72	20545.22
493.90	20893.96
494.08	21235.68
494.25	21303.56
494.43	20954.82
494.61	21544.63
494.79	21493.14
494.96	21507.18
495.14	21591.44
495.32	21888.69
495.49	22015.08
495.67	21909.75
495.85	21912.10
496.02	22436.38
496.20	22302.96
496.38	22532.34
496.55	22616.60
496.73	22963.00
496.91	22843.63
497.09	22572.13
497.26	23194.71
497.44	23211.09
497.62	23110.45
497.79	23410.04
497.97	23332.80
498.14	23873.46
498.32	23611.32
498.50	23541.11
498.67	23742.39
498.85	23686.22
499.03	24341.57
499.20	23988.15
499.38	24184.76
499.56	24304.12
499.73	24287.74
499.91	24765.21
500.08	24711.38
500.26	24563.92
500.44	24807.34
500.61	24467.96
500.79	24379.02
500.97	25125.65
501.14	25647.59
501.32	25252.04
501.49	25242.68
501.67	25142.03
501.84	25249.70
502.02	25481.41
502.20	25450.99
502.37	26015.05
502.55	26059.52
502.72	25790.36
502.90	26118.04
503.07	25907.39
503.25	26211.66
503.43	26096.97
503.60	26181.23
503.78	26108.68
503.95	26363.79
504.13	26129.74
504.30	26998.08
504.48	26754.66
504.65	27094.04
504.83	26761.69
505.01	27339.80
505.18	27379.59
505.36	27197.02
505.53	27077.66
505.71	27372.57
505.88	27576.19
506.06	27498.95
506.23	27613.64
506.41	27154.90
506.58	27594.92
506.76	27398.31
506.93	28116.86
507.11	27747.05
507.28	27885.14
507.46	27782.16
507.63	27810.25
507.81	28280.69
507.98	28170.69
508.16	28397.72
508.33	28545.17
508.50	28580.28
508.68	28477.30
508.85	28746.46
509.03	28950.09
509.20	28561.56
509.38	29191.16
509.55	29158.39
509.73	29036.69
509.90	29418.19
510.08	29523.52
510.25	29118.60
510.42	29507.13
510.60	29170.10
510.77	29390.11
510.95	29642.88
511.12	29734.17
511.30	29556.28
511.47	30089.93
511.64	30129.72
511.82	30436.33
511.99	29687.36
512.17	30043.12
512.34	30038.44
512.51	30356.75
512.69	30377.81
512.86	30487.82
513.04	30869.33
513.21	30693.79
513.38	30609.53
513.56	30808.47
513.73	30363.77
513.90	30866.98
514.08	30492.50
514.25	31002.74
514.43	31049.55
514.60	31508.29
514.77	31332.75
514.95	31749.37
515.12	31353.82
515.29	31197.00
515.47	31740.00
515.64	31857.03
515.81	31789.16
515.99	31517.65
516.16	32070.02
516.33	31833.63
516.51	31524.68
516.68	31786.82
516.85	31379.56
517.03	31803.20
517.20	31864.05
517.37	31924.91
517.54	32231.52
517.72	32407.06
517.89	32257.26
518.06	32339.18
518.24	32374.29
518.41	32039.59
518.58	32811.97
518.75	32594.30
518.93	32425.78
519.10	32456.21
519.27	32807.29
519.45	32863.46
519.62	32818.99
519.79	33020.28
519.96	32985.17
520.14	33610.09
520.31	33298.80
520.48	33450.94
520.65	33362.00
520.83	33551.58
521.00	33764.57
521.17	33841.81
521.34	34246.72
521.52	34181.18
521.69	33963.51
521.86	33942.45
522.03	34080.54
522.20	33968.19
522.38	33968.19
522.55	34499.50
522.72	34274.80
522.89	34054.79
523.07	34490.13
523.24	34263.10
523.41	34499.50
523.58	34459.71
523.75	35075.27
523.92	34838.87
524.10	35330.39
524.27	35000.37
524.44	34859.94
524.61	35269.53
524.78	34871.64
524.96	35508.27
525.13	35246.13
525.30	35791.47
525.47	35400.60
525.64	35768.07
525.81	35604.23
525.98	35864.03
526.16	35648.70
526.33	35056.54
526.50	35637.00
526.67	35686.15
526.84	35571.46
527.01	35208.68
527.18	35852.33
527.36	35889.77
527.53	36175.32
527.70	36758.11
527.87	36081.70
528.04	35988.08
528.21	36580.23
528.38	36392.99
528.55	36903.23
528.72	36575.55
528.89	36643.43
529.07	36854.08
529.24	36507.68
529.41	36828.33
529.58	36669.17
529.75	36346.18
529.92	36634.06
530.09	36940.68
530.26	36772.16
530.43	37017.91
530.60	36968.76
530.77	37053.02
530.94	36994.51
531.11	37408.78
531.28	36835.35
531.46	37205.16
531.63	37102.17
531.80	37219.20
531.97	37434.53
532.14	37186.43
532.31	37273.03
532.48	37785.61
532.65	37741.14
532.82	37483.68
532.99	37790.29
533.16	37598.37
533.33	37427.51
533.50	37914.34
533.67	37923.70
533.84	37797.31
534.01	37713.05
534.18	37947.11
534.35	38410.53
534.52	38267.76
534.69	38293.50
534.86	38141.37
535.03	38447.98
535.20	38314.57
535.37	38686.71
535.54	38848.21
535.71	38342.66
535.88	38569.69
536.05	38604.80
536.22	38438.62
536.38	38913.75
536.55	38485.43
536.72	38738.21
536.89	38359.04
537.06	38527.56
537.23	38733.53
537.40	38417.55
537.57	38862.26
537.74	39248.44
537.91	39526.97
538.08	39260.15
538.25	38565.01
538.42	38852.89
538.59	39243.76
538.75	39016.73
538.92	39370.15
539.09	39536.33
539.26	39416.96
539.43	39311.64
539.60	39674.42
539.77	39419.30
539.94	39386.54
540.11	39655.70
540.28	39496.54
540.44	39648.68
540.61	39590.16
540.78	39009.71
540.95	39770.38
541.12	39456.75
541.29	39393.56
541.46	39477.82
541.62	39812.51
541.79	40076.99
541.96	39484.84
542.13	39817.19
542.30	39723.57
542.47	39852.30
542.63	39899.11
542.80	40048.91
542.97	40765.11
543.14	40517.01
543.31	40725.32
543.48	40385.94
543.64	40776.81
543.81	40989.80
543.98	40608.29
544.15	40692.55
544.32	40715.96
544.48	41106.83
544.65	41010.87
544.82	41163.00
544.99	40128.48
545.16	40840.01
545.32	40912.56
545.49	40905.54
545.66	40959.38
545.83	40734.68
546.00	41331.52
546.16	41469.61
546.33	41230.88
546.50	40926.61
546.67	41111.51
546.83	40854.05
547.00	41148.96
547.17	40980.44
547.34	40924.27
547.50	41249.60
547.67	41567.91
547.84	41340.88
548.00	41965.81
548.17	41890.91
548.34	41500.04
548.51	41607.70
548.67	41478.97
548.84	42337.95
549.01	41745.80
549.18	41443.87
549.34	41820.69
549.51	42108.58
549.68	42052.41
549.84	41766.86
550.01	42122.62
550.18	41715.37
550.34	41904.95
550.51	41996.23
550.68	41867.50
550.84	41862.82
551.01	42316.89
551.18	42366.04
551.34	42012.62
551.51	42457.32
551.68	42429.23
551.84	42396.46
552.01	41968.15
552.18	42443.27
552.34	41818.35
552.51	42057.09
552.68	42218.58
552.84	42562.64
553.01	42466.68
553.18	42616.47
553.34	42536.90
553.51	42288.80
553.67	42476.04
553.84	42864.57
554.01	42773.29
554.17	42616.47
554.34	43044.79
554.51	42628.18
554.67	43253.10
554.84	42906.70
555.00	42696.05
555.17	42277.10
555.33	43051.81
555.50	42644.56
555.67	42892.66
555.83	42997.98
556.00	42632.86
556.16	43571.41
556.33	43337.36
556.50	42969.90
556.66	43222.67
556.83	43276.51
556.99	43475.45
557.16	43206.29
557.32	43475.45
557.49	43042.45
557.65	43196.93
557.82	43112.67
557.98	43363.11
558.15	43351.40
558.32	43428.64
558.48	43667.37
558.65	43475.45
558.81	43278.85
558.98	43255.44
559.14	43372.47
559.31	43641.63
559.47	43489.49
559.64	43636.95
559.80	43372.47
559.97	43917.81
560.13	43138.41
560.30	43328.00
560.46	44018.46
560.63	43524.60
560.79	43880.36
560.96	43786.74
561.12	43533.96
561.29	43552.69
561.45	43512.90
561.61	44165.91
561.78	43889.73
561.94	43929.51
562.11	43643.97
562.27	43489.49
562.44	43564.39
562.60	43875.68
562.77	44212.72
562.93	43618.22
563.10	43868.66
563.26	43456.73
563.42	43840.57
563.59	43849.94
563.75	44105.06
563.92	43648.65
564.08	43833.55
564.24	44030.16
564.41	44315.70
564.57	44315.70
564.74	44034.84
564.90	44107.40
565.07	43868.66
565.23	43887.39
565.39	43765.68
565.56	44210.38
565.72	44222.08
565.88	44060.58
566.05	43828.87
566.21	44240.81
566.38	43889.73
566.54	44016.11
566.70	44114.42
566.87	44376.56
567.03	44231.44
567.19	44458.48
567.36	44109.74
567.52	44287.62
567.68	44465.50
567.85	44259.53
568.01	44531.03
568.17	44100.37
568.34	44231.44
568.50	44484.22
568.66	44034.84
568.83	44231.44
568.99	44292.30
569.15	44048.88
569.32	44332.09
569.48	43913.13
569.64	44308.68
569.81	44601.25
569.97	44341.45
570.13	44507.63
570.30	44493.58
570.46	44060.58
570.62	44053.56
570.78	44198.68
570.95	44596.57
571.11	44540.39
571.27	44184.63
571.43	44411.67
571.60	44444.43
571.76	44350.81
571.92	44336.77
572.09	44399.96
572.25	44233.78
572.41	44189.31
572.57	44652.74
572.74	44980.42
572.90	44275.91
573.06	44311.02
573.22	44140.16
573.38	44601.25
573.55	44161.23
573.71	44477.20
573.87	44376.56
574.03	44278.25
574.20	44264.21
574.36	44514.65
574.52	44474.86
574.68	44339.11
574.84	44858.71
575.01	44294.64
575.17	44814.24
575.33	44055.90
575.49	44727.64
575.65	44641.04
575.82	45155.96
575.98	44533.37
576.14	44631.68
576.30	44935.95
576.46	44341.45
576.62	44713.59
576.79	44559.12
576.95	44542.74
577.11	45001.48
577.27	45118.51
577.43	44364.85
577.59	44484.22
577.75	44212.72
577.92	44446.77
578.08	44465.50
578.24	43981.01
578.40	44493.58
578.56	44765.09
578.72	44491.24
578.88	45078.72
579.04	44566.14
579.21	44622.31
579.37	44411.67
579.53	44545.08
579.69	44793.17
579.85	44982.76
580.01	44669.12
580.17	44715.93
580.33	45127.87
580.49	45038.93
580.65	44505.29
580.82	44720.62
580.98	44839.98
581.14	44346.13
581.30	44526.35
581.46	44758.06
581.62	44959.35
581.78	44395.28
581.94	45144.25
582.10	44779.13
582.26	44870.41
582.42	44612.95
582.58	45064.67
582.74	44683.17
582.90	44809.56
583.06	45006.16
583.22	44910.20
583.38	45226.17
583.54	44905.52
583.70	44339.11
583.86	44514.65
584.02	44142.50
584.18	44533.37
584.34	44793.17
584.50	44491.24
584.66	44687.85
584.82	44626.99
584.98	44865.73
585.14	45160.64
585.30	44992.12
585.46	44727.64
585.62	44444.43
585.78	44896.16
585.94	43896.75
586.10	44346.13
586.26	44919.56
586.42	44664.44
586.58	44809.56
586.74	44755.72
586.90	45034.25
587.06	44734.66
587.22	44652.74
587.38	44477.20
587.54	45305.75
587.70	44928.92
587.86	44769.77
588.02	44755.72
588.18	44879.77
588.34	44807.22
588.49	44680.83
588.65	44533.37
588.81	44786.15
588.97	44669.12
589.13	44706.57
589.29	44584.86
589.45	44624.65
589.61	44999.14
589.77	45635.77
589.93	44910.20
590.08	45137.23
590.24	45170.00
590.40	44945.31
590.56	45495.33
590.72	45015.52
590.88	44802.53
591.04	44795.51
591.20	45380.65
591.35	44999.14
591.51	45394.69
591.67	45237.87
591.83	45048.29
591.99	44767.43
592.15	44854.03
592.31	44816.58
592.46	45352.56
592.62	44903.18
592.78	45092.76
592.94	45280.00
593.10	44837.64
593.26	44978.07
593.41	44961.69
593.57	45303.41
593.73	44814.24
593.89	45280.00
594.05	44966.37
594.20	45277.66
594.36	45130.21
594.52	44877.43
594.68	45172.34
594.84	44634.02
594.99	45502.35
595.15	44987.44
595.31	45530.44
595.47	44816.58
595.62	45022.54
595.78	45167.66
595.94	45109.14
596.10	45233.19
596.25	45457.88
596.41	45420.44
596.57	44933.60
596.73	45226.17
596.88	44755.72
597.04	45315.11
597.20	45525.76
597.36	45469.59
597.51	45212.13
597.67	45317.45
597.83	45263.62
597.99	45804.28
598.14	45258.94
598.30	45514.06
598.46	45265.96
598.61	45394.69
598.77	45017.86
598.93	45057.65
599.09	44980.42
599.24	45979.82
599.40	45621.72
599.56	45319.79
599.71	45123.19
599.87	45689.60
600.03	45399.37
600.18	44669.12
600.34	45277.66
600.50	45338.52
600.65	45502.35
600.81	45624.06
600.97	45404.05
601.12	45895.56
601.28	45399.37
601.44	45102.12
601.59	45443.84
601.75	45160.64
601.91	45291.71
602.06	45036.59
602.22	44861.05
602.37	45277.66
602.53	45067.02
602.69	45364.26
602.84	44947.65
603.00	45198.09
603.16	44781.47
603.31	45029.57
603.47	45179.36
603.62	44872.75
603.78	45617.04
603.94	45233.19
604.09	45256.60
604.25	45415.76
604.40	45308.09
604.56	45521.08
604.71	45275.32
604.87	45380.65
605.03	45539.80
605.18	44746.36
605.34	44989.78
605.49	44697.21
605.65	45212.13
605.80	45450.86
605.96	45329.16
606.12	45244.90
606.27	45214.47
606.43	44919.56
606.58	45333.84
606.74	44437.41
606.89	44540.39
607.05	44912.54
607.20	45404.05
607.36	45158.30
607.51	45301.07
607.67	45076.38
607.82	45167.66
607.98	44636.36
608.13	45155.96
608.29	44481.88
608.44	44994.46
608.60	44755.72
608.75	44968.71
608.91	44821.26
609.06	44542.74
609.22	44985.10
609.37	44493.58
609.53	45001.48
609.68	44961.69
609.84	44484.22
609.99	44598.91
610.15	44598.91
610.30	44498.26
610.46	44570.82
610.61	44655.08
610.76	44954.67
610.92	44755.72
611.07	44811.90
611.23	44498.26
611.38	44748.70
611.54	44432.73
611.69	44414.01
611.84	44467.84
612.00	44495.92
612.15	44069.95
612.31	44385.92
612.46	44182.29
612.62	44332.09
612.77	44821.26
612.92	44739.34
613.08	44538.05
613.23	44081.65
613.39	43910.79
613.54	44404.64
613.69	44406.98
613.85	44348.47
614.00	44360.17
614.15	44662.10
614.31	44428.05
614.46	44381.24
614.62	44442.09
614.77	44231.44
614.92	44336.77
615.08	44619.97
615.23	43868.66
615.38	44072.29
615.54	43686.10
615.69	43969.30
615.84	43618.22
616.00	43538.65
616.15	43756.32
616.30	44051.22
616.46	43934.20
616.61	43852.28
616.76	43475.45
616.92	43571.41
617.07	43899.09
617.22	43634.61
617.37	43433.32
617.53	43826.53
617.68	44020.80
617.83	44025.48
617.99	44039.52
618.14	43915.47
618.29	43501.20
618.45	43154.80
618.60	43484.81
618.75	43660.35
618.90	43807.81
619.06	43880.36
619.21	43646.31
619.36	43662.69
619.51	43096.28
619.67	43381.83
619.82	43625.25
619.97	43761.00
620.12	43543.33
620.28	43166.50
620.43	43115.01
620.58	43199.27
620.73	43414.60
620.89	43384.17
621.04	43690.78
621.19	43461.41
621.34	43302.25
621.49	43257.78
621.65	43220.33
621.80	43012.02
621.95	42859.89
622.10	43145.44
622.25	42934.79
622.41	42398.80
622.56	42885.64
622.71	43304.59
622.86	42714.78
623.01	42976.92
623.16	43150.12
623.32	43122.03
623.47	43192.25
623.62	42904.36
623.77	42600.09
623.92	43159.48
624.07	42562.64
624.23	42672.65
624.38	42698.39
624.53	42967.55
624.68	42403.49
624.83	42808.40
624.98	42511.15
625.13	42724.14
625.29	42623.50
625.44	42756.91
625.59	42162.41
625.74	42071.13
625.89	42298.16
626.04	41916.65
626.19	42129.64
626.34	42740.52
626.49	42335.61
626.65	42471.36
626.80	42469.02
626.95	42220.92
627.10	41970.49
627.25	41893.25
627.40	42220.92
627.55	41621.75
627.70	41584.30
627.85	42195.18
628.00	42181.13
628.15	42295.82
628.30	42036.02
628.45	42487.74
628.60	41993.89
628.76	41748.14
628.91	42036.02
629.06	41750.48
629.21	41439.18
629.36	41556.21
629.51	41797.29
629.66	41706.01
629.81	41481.31
629.96	41837.08
630.11	41696.64
630.26	41710.69
630.41	41764.52
630.56	41457.91
630.71	41645.15
630.86	42017.30
631.01	41258.96
631.16	41940.06
631.31	40994.48
631.46	41067.04
631.61	41684.94
631.76	41652.17
631.91	41415.78
632.06	41221.52
632.21	41455.57
632.36	41813.67
632.51	41371.31
632.66	41399.40
632.81	41134.92
632.96	41249.60
633.10	41153.64
633.25	40706.60
633.40	41277.69
633.55	41125.55
633.70	41226.20
633.85	41277.69
634.00	41153.64
634.15	40917.25
634.30	40509.99
634.45	40638.72
634.60	41235.56
634.75	40940.65
634.90	40786.18
635.05	40577.87
635.19	41144.28
635.34	41247.26
635.49	40999.16
635.64	40720.64
635.79	40896.18
635.94	40608.29
636.09	40842.35
636.24	40208.06
636.39	40055.93
636.53	40678.51
636.68	40395.31
636.83	40222.11
636.98	40341.47
637.13	40453.82
637.28	40479.57
637.43	40891.50
637.57	40825.96
637.72	40692.55
637.87	40161.25
638.02	40074.65
638.17	39995.07
638.32	40009.12
638.46	39772.72
638.61	40205.72
638.76	40376.58
638.91	39896.77
639.06	40601.27
639.20	40100.40
639.35	39845.28
639.50	40053.59
639.65	40320.41
639.80	40914.90
639.94	40055.93
640.09	40074.65
640.24	39641.65
640.39	39861.66
640.54	39892.09
640.68	39889.75
640.83	39957.63
640.98	39856.98
641.13	39608.89
641.27	39529.31
641.42	39730.59
641.57	39990.39
641.72	39864.00
641.86	39416.96
642.01	39683.78
642.16	39510.58
642.31	39363.13
642.45	39480.16
642.60	39185.25
642.75	39370.15
642.90	39468.45
643.04	39178.23
643.19	39512.92
643.34	39995.07
643.48	39501.22
643.63	39459.09
643.78	39210.99
643.93	38747.57
644.07	39353.77
644.22	39033.11
644.37	39349.09
644.51	39068.22
644.66	39124.40
644.81	39234.40
644.95	39477.82
645.10	39159.50
645.25	39370.15
645.39	39150.14
645.54	39384.19
645.69	38990.98
645.83	38876.30
645.98	39215.68
646.13	39203.97
646.27	39108.01
646.42	38888.00
646.57	38981.62
646.71	38857.57
646.86	39220.36
647.00	39332.70
647.15	38824.81
647.30	39372.49
647.44	38841.19
647.59	38932.47
647.74	38527.56
647.88	38153.07
648.03	38550.96
648.17	38761.61
648.32	38218.61
648.47	38452.66
648.61	38272.44
648.76	38993.32
648.90	38878.64
649.05	38555.64
649.20	38944.17
649.34	38953.54
649.49	38445.64
649.63	38656.29
649.78	38450.32
649.92	38665.65
650.07	38583.73
650.21	38340.32
650.36	38595.43
650.51	38319.25
650.65	38953.54
650.80	38600.12
650.94	38572.03
651.09	38302.87
651.23	38548.62
651.38	38146.05
651.52	37816.04
651.67	37902.64
651.81	38206.90
651.96	37827.74
652.10	38326.27
652.25	37221.54
652.39	37879.23
652.54	37790.29
652.68	38031.36
652.83	38127.33
652.97	38209.25
653.12	37954.13
653.26	37703.69
653.41	38284.14
653.55	37972.85
653.70	37837.10
653.84	37680.28
653.99	37954.13
654.13	37638.15
654.27	37507.08
654.42	37699.01
654.56	37771.57
654.71	37624.11
654.85	37404.10
655.00	37567.94
655.14	37057.70
655.29	37284.73
655.43	37120.90
655.57	36898.55
655.72	36950.04
655.86	36783.86
656.01	36975.78
656.15	37001.53
656.30	36940.68
656.44	37298.78
656.58	36968.76
656.73	36634.06
656.87	37078.77
657.01	36814.29
657.16	37074.09
657.30	37069.40
657.45	36627.04
657.59	36645.77
657.73	36921.95
657.88	37249.63
658.02	37130.26
658.16	36800.24
658.31	36650.45
658.45	37167.71
658.60	37022.59
658.74	37020.25
658.88	36498.31
659.03	36493.63
659.17	36423.42
659.31	36198.73
659.46	36184.68
659.60	36070.00
659.74	36177.66
659.89	36088.72
660.03	36521.72
660.17	36208.09
660.32	36428.10
660.46	36275.96
660.60	36112.13
660.74	36135.53
660.89	36285.33
661.03	35908.50
661.17	36114.47
661.32	35761.05
661.46	35503.59
661.60	35480.18
661.74	35346.77
661.89	35826.58
662.03	35805.52
662.17	35484.86
662.31	35576.14
662.46	35686.15
662.60	35564.44
662.74	35681.47
662.88	35463.80
663.03	34981.65
663.17	35505.93
663.31	35243.79
663.45	35627.63
663.60	35384.22
663.74	34810.79
663.88	35129.10
664.02	35000.37
664.17	35124.42
664.31	34813.13
664.45	35138.46
664.59	34876.32
664.73	34677.38
664.88	34991.01
665.02	34363.75
665.16	34497.16
665.30	34843.56
665.44	34183.52
665.59	34506.52
665.73	34398.85
665.87	33975.22
666.01	34330.98
666.15	34096.92
666.29	34181.18
666.44	34417.58
666.58	33979.90
666.72	34326.30
666.86	34330.98
667.00	34726.53
667.14	33909.68
667.28	34237.36
667.43	33684.99
667.57	33605.41
667.71	33535.20
667.85	33769.25
667.99	33514.13
668.13	33366.68
668.27	33345.61
668.41	33486.04
668.56	33369.02
668.70	33600.73
668.84	33064.75
668.98	33392.42
669.12	33254.33
669.26	33439.23
669.40	32821.33
669.54	33104.54
669.68	33034.32
669.82	32943.04
669.96	33329.23
670.10	32828.35
670.25	32732.39
670.39	33350.29
670.53	32779.20
670.67	32418.76
670.81	32123.85
670.95	32814.31
671.09	32718.35
671.23	32624.73
671.37	32975.81
671.51	32435.14
671.65	32430.46
671.79	31988.10
671.93	32318.12
672.07	32545.15
672.21	32355.57
672.35	31999.80
672.49	32233.86
672.63	32212.79
672.77	31686.17
672.91	31400.63
673.05	31622.98
673.19	31487.23
673.33	31732.98
673.47	31159.55
673.61	31269.56
673.75	31175.94
673.89	30843.58
674.03	31019.12
674.17	31136.15
674.31	31051.89
674.45	31035.50
674.59	30941.88
674.73	31311.69
674.87	31175.94
675.01	30932.52
675.15	30775.70
675.29	30796.77
675.43	30689.10
675.56	30382.49
675.70	30621.23
675.84	30375.47
675.98	29340.96
676.12	30071.20
676.26	30064.18
676.40	29825.45
676.54	30230.36
676.68	29935.45
676.82	29579.69
676.96	29912.05
677.10	29465.00
677.23	29528.20
677.37	29429.90
677.51	29455.64
677.65	29343.30
677.79	29008.60
677.93	28809.65
678.07	28819.02
678.21	28755.82
678.34	28924.34
678.48	28360.27
678.62	28552.20
678.76	28900.94
678.90	28154.30
679.04	28217.50
679.18	28371.97
679.31	28100.47
679.45	28020.89
679.59	28065.36
679.73	27646.41
679.87	27791.52
680.00	27447.46
680.14	27402.99
680.28	27564.49
680.42	27101.06
680.56	27674.49
680.70	27246.18
680.83	27531.72
680.97	26962.97
681.11	27304.69
681.25	26899.78
681.39	26785.09
681.52	26775.73
681.66	26899.78
681.80	26504.23
681.94	26628.27
682.07	26218.68
682.21	26661.04
682.35	26270.17
682.49	26300.60
682.62	26281.88
682.76	25830.15
682.90	26108.68
683.04	26312.30
683.17	26120.38
683.31	26136.76
683.45	25862.92
683.59	25605.46
683.72	25319.92
683.86	25144.38
684.00	24795.64
684.13	25275.45
684.27	25612.48
684.41	24961.81
684.55	25273.10
684.68	25088.20
684.82	25104.59
684.96	24744.14
685.09	24568.60
685.23	24783.93
685.37	25081.18
685.50	24484.34
685.64	24102.84
685.78	24500.73
685.91	24201.14
686.05	24119.22
686.19	23747.08
686.32	23915.59
686.46	23751.76
686.60	23641.75
686.73	23899.21
686.87	23604.30
687.01	23503.66
687.14	23009.81
687.28	23211.09
687.42	23243.86
687.55	22740.64
687.69	22895.12
687.82	22845.97
687.96	23096.41
688.10	22644.68
688.23	22569.79
688.37	22469.14
688.50	22309.99
688.64	21984.65
688.78	22125.08
688.91	22050.19
689.05	22160.19
689.18	22057.21
689.32	21919.12
689.46	22150.83
689.59	21893.37
689.73	21785.71
689.86	22038.48
690.00	21872.31
690.13	21888.69
690.27	21647.61
690.41	21432.29
690.54	21324.62
690.68	21385.47
690.81	21193.55
690.95	21064.82
691.08	21106.95
691.22	20903.32
691.35	20673.95
691.49	20865.88
691.62	21022.69
691.76	20758.21
691.89	20943.11
692.03	20475.01
692.16	20191.80
692.30	20545.22
692.43	20247.97
692.57	20018.60
692.70	20170.74
692.84	19955.41
692.97	19812.63
693.11	19665.18
693.24	19524.75
693.38	19342.19
693.51	19697.95
693.65	19779.87
693.78	19594.96
693.92	19634.75
694.05	19316.44
694.19	19529.43
694.32	19417.08
694.45	19211.12
694.59	18876.42
694.72	18780.46
694.86	18803.86
694.99	18707.90
695.13	18590.88
695.26	18504.28
695.39	18298.31
695.53	18090.00
695.66	18321.71
695.80	18359.16
695.93	18075.96
696.07	17954.25
696.20	18045.53
696.33	17872.33
696.47	17837.22
696.60	17900.42
696.73	17619.55
696.87	17699.13
697.00	17745.94
697.14	17642.96
697.27	17785.73
697.40	17516.57
697.54	17460.40
697.67	17343.37
697.80	17207.62
697.94	17034.42
698.07	16982.93
698.21	16905.69
698.34	17226.34
698.47	16903.35
698.61	16606.10
698.74	16669.30
698.87	16528.86
699.01	16320.56
699.14	16463.33
699.27	16472.69
699.40	16231.62
699.54	16248.00
699.67	16130.97
699.80	15866.49
699.94	15988.20
700.07	16002.24
700.20	16018.63
700.34	15880.53
700.47	15761.17
700.60	15817.34
700.73	15845.43
700.87	15660.52
701.00	15534.14
701.13	15644.14
701.26	15199.44
701.40	15534.14
701.53	15426.47
701.66	15173.69
701.79	15225.18
701.93	15150.29
702.06	14553.45
702.19	14979.43
702.32	15087.09
702.46	14850.70
702.59	14789.85
702.72	14846.02
702.85	14764.10
702.99	14754.74
703.12	14810.91
703.25	14476.21
703.38	14539.41
703.51	14211.73
703.65	14340.46
703.78	14197.69
703.91	14024.49
704.04	14073.64
704.17	14024.49
704.31	13827.88
704.44	13654.69
704.57	13495.53
704.70	13593.83
704.83	13432.33
704.96	13745.97
705.10	13671.07
705.23	14033.85
>>>>>End Processed Spectral Data<<<<<
