SpectraSuite Data File
++++++++++++++++++++++++++++++++++++
Date: Fri Oct 25 11:33:50 EDT 2013
User: price-jones
Dark Spectrum Present: No
Reference Spectrum Present: No
Number of Sampled Component Spectra: 1
Spectrometers: USB2+H05261
Integration Time (usec): 100000 (USB2+H05261)
Spectra Averaged: 1 (USB2+H05261)
Boxcar Smoothing: 0 (USB2+H05261)
Correct for Electrical Dark: No (USB2+H05261)
Strobe/Lamp Enabled: No (USB2+H05261)
Correct for Detector Non-linearity: No (USB2+H05261)
Correct for Stray Light: No (USB2+H05261)
Number of Pixels in Processed Spectrum: 2048
>>>>>Begin Processed Spectral Data<<<<<
365.73	348.74
365.92	348.74
366.12	348.74
366.32	241.08
366.52	161.50
366.72	245.76
366.91	205.97
367.11	119.37
367.31	124.05
367.51	142.77
367.70	124.05
367.90	166.18
368.10	201.29
368.30	294.91
368.49	149.79
368.69	198.95
368.89	154.48
369.09	147.45
369.28	215.33
369.48	227.03
369.68	217.67
369.87	224.69
370.07	294.91
370.27	287.89
370.47	327.68
370.66	489.17
370.86	545.34
371.06	631.94
371.25	564.07
371.45	559.39
371.65	554.71
371.84	543.00
372.04	599.18
372.24	585.13
372.44	589.82
372.63	554.71
372.83	615.56
373.03	610.88
373.22	636.63
373.42	664.71
373.62	629.60
373.81	587.47
374.01	664.71
374.21	606.20
374.40	655.35
374.60	653.01
374.79	603.86
374.99	545.34
375.19	664.71
375.38	713.86
375.58	648.33
375.78	676.41
375.97	678.76
376.17	692.80
376.37	660.03
376.56	753.65
376.76	688.12
376.95	636.63
377.15	753.65
377.35	706.84
377.54	678.76
377.74	753.65
377.93	732.59
378.13	732.59
378.33	638.97
378.52	681.10
378.72	702.16
378.91	746.63
379.11	706.84
379.31	723.23
379.50	746.63
379.70	730.25
379.89	751.31
380.09	697.48
380.28	660.03
380.48	753.65
380.68	774.72
380.87	753.65
381.07	765.36
381.26	777.06
381.46	786.42
381.65	744.29
381.85	718.54
382.04	781.74
382.24	734.93
382.43	770.04
382.63	739.61
382.83	765.36
383.02	819.19
383.22	807.48
383.41	725.57
383.61	828.55
383.80	814.51
384.00	791.10
384.19	844.93
384.39	854.30
384.58	807.48
384.78	748.97
384.97	842.59
385.17	809.83
385.36	863.66
385.56	837.91
385.75	795.78
385.95	894.08
386.14	828.55
386.34	903.45
386.53	875.36
386.72	847.27
386.92	980.68
387.11	922.17
387.31	868.34
387.50	837.91
387.70	889.40
387.89	917.49
388.09	891.74
388.28	861.32
388.48	875.36
388.67	938.55
388.86	894.08
389.06	915.15
389.25	926.85
389.45	910.47
389.64	896.43
389.84	966.64
390.03	978.34
390.22	1018.13
390.42	983.02
390.61	903.45
390.81	959.62
391.00	1013.45
391.19	1004.09
391.39	1006.43
391.58	1036.86
391.78	1043.88
391.97	1006.43
392.16	1081.33
392.36	1032.18
392.55	1076.65
392.75	1041.54
392.94	1015.79
393.13	1081.33
393.33	1006.43
393.52	1020.47
393.71	1057.92
393.91	1118.78
394.10	1132.82
394.29	1071.97
394.49	1111.75
394.68	1149.20
394.88	1144.52
395.07	1233.46
395.26	1144.52
395.46	1144.52
395.65	1149.20
395.84	1196.01
396.04	1172.61
396.23	1200.69
396.42	1137.50
396.62	1235.80
396.81	1240.48
397.00	1224.10
397.19	1226.44
397.39	1341.13
397.58	1364.53
397.77	1174.95
397.97	1327.08
398.16	1179.63
398.35	1263.89
398.55	1320.06
398.74	1310.70
398.93	1327.08
399.12	1469.86
399.32	1287.29
399.51	1359.85
399.70	1420.71
399.90	1387.94
400.09	1341.13
400.28	1420.71
400.47	1411.34
400.67	1416.02
400.86	1409.00
401.05	1472.20
401.24	1451.13
401.44	1495.60
401.63	1476.88
401.82	1497.94
402.01	1387.94
402.21	1502.62
402.40	1507.30
402.59	1458.15
402.78	1514.33
402.97	1483.90
403.17	1521.35
403.36	1521.35
403.55	1544.75
403.74	1621.99
403.93	1612.63
404.13	1673.48
404.32	1596.25
404.51	1516.67
404.70	1614.97
404.89	1640.72
405.09	1724.97
405.28	1643.06
405.47	1605.61
405.66	1713.27
405.85	1760.08
406.05	1732.00
406.24	1734.34
406.43	1750.72
406.62	1811.57
406.81	1842.00
407.00	1708.59
407.20	1795.19
407.39	1827.96
407.58	1767.10
407.77	1895.83
407.96	1884.13
408.15	1830.30
408.34	1935.62
408.54	1966.05
408.73	1949.67
408.92	1952.01
409.11	2019.88
409.30	1928.60
409.49	2008.18
409.68	2017.54
409.87	2001.16
410.07	2176.70
410.26	2024.56
410.45	2001.16
410.64	2099.46
410.83	2214.15
411.02	2134.57
411.21	2132.23
411.40	2083.08
411.59	2256.28
411.78	2202.44
411.98	2249.25
412.17	2221.17
412.36	2291.38
412.55	2277.34
412.74	2303.09
412.93	2298.41
413.12	2214.15
413.31	2253.94
413.50	2314.79
413.69	2368.62
413.88	2424.80
414.07	2539.48
414.26	2602.68
414.45	2520.76
414.64	2420.11
414.83	2539.48
415.02	2614.38
415.22	2686.94
415.41	2637.78
415.60	2670.55
415.79	2705.66
415.98	2803.96
416.17	2785.24
416.36	2635.44
416.55	2724.38
416.74	2827.37
416.93	2712.68
417.12	2757.15
417.31	2883.54
417.50	2867.16
417.69	2822.69
417.88	2839.07
418.07	2857.79
418.26	3038.02
418.45	3061.42
418.64	3075.46
418.83	2911.63
419.02	3054.40
419.21	3190.15
419.39	3075.46
419.58	3070.78
419.77	3059.08
419.96	3042.70
420.15	3204.19
420.34	3164.40
420.53	3136.32
420.72	3225.26
420.91	3262.71
421.10	3269.73
421.29	3194.83
421.48	3183.13
421.67	3260.37
421.86	3335.26
422.05	3386.76
422.24	3337.60
422.43	3365.69
422.61	3351.65
422.80	3377.39
422.99	3463.99
423.18	3503.78
423.37	3562.30
423.56	3417.18
423.75	3487.40
423.94	3414.84
424.13	3204.19
424.32	3375.05
424.50	3349.31
424.69	3452.29
424.88	3379.73
425.07	3440.59
425.26	3356.33
425.45	3475.70
425.64	3435.91
425.83	3431.23
426.01	3541.23
426.20	3478.04
426.39	3431.23
426.58	3363.35
426.77	3510.80
426.96	3543.57
427.15	3492.08
427.33	3534.21
427.52	3503.78
427.71	3604.42
427.90	3651.24
428.09	3571.66
428.28	3669.96
428.46	3672.30
428.65	3674.64
428.84	3801.03
429.03	3719.11
429.22	3824.44
429.40	3735.50
429.59	3829.12
429.78	3644.21
429.97	3669.96
430.16	3852.52
430.34	3747.20
430.53	3922.74
430.72	3922.74
430.91	3962.53
431.10	3779.97
431.28	4049.13
431.47	3932.10
431.66	4079.55
431.85	3969.55
432.03	3976.57
432.22	4154.45
432.41	4049.13
432.60	4084.23
432.79	3943.80
432.97	4095.94
433.16	4142.75
433.35	4039.76
433.54	4304.25
433.72	4196.58
433.91	4234.03
434.10	4079.55
434.28	4224.67
434.47	4236.37
434.66	4212.96
434.85	4304.25
435.03	4308.93
435.22	4245.73
435.41	4346.37
435.59	4454.04
435.78	4423.61
435.97	4437.66
436.16	4496.17
436.34	4449.36
436.53	4327.65
436.72	4500.85
436.90	4372.12
437.09	4484.47
437.28	4386.16
437.46	4517.23
437.65	4643.62
437.84	4652.98
438.02	4540.64
438.21	4688.09
438.40	4512.55
438.58	4695.11
438.77	4805.12
438.96	4791.08
439.14	4751.29
439.33	4830.87
439.52	4809.80
439.70	4854.27
439.89	4971.30
440.08	5093.01
440.26	4919.81
440.45	4896.40
440.63	5186.63
440.82	5067.26
441.01	5146.84
441.19	5011.09
441.38	5247.48
441.57	5214.71
441.75	5430.04
441.94	5338.76
442.12	5217.05
442.31	5603.24
442.50	5453.45
442.68	5186.63
442.87	5334.08
443.05	5495.58
443.24	5556.43
443.43	5497.92
443.61	5607.92
443.80	5703.89
443.98	5336.42
444.17	5301.31
444.35	5507.28
444.54	5563.45
444.73	5561.11
444.91	5703.89
445.10	5607.92
445.28	5624.31
445.47	5500.26
445.65	5699.20
445.84	5664.10
446.02	5874.74
446.21	5715.59
446.39	5755.38
446.58	5825.59
446.77	5790.49
446.95	5528.35
447.14	5643.03
447.32	5841.98
447.51	5769.42
447.69	5645.37
447.88	5748.36
448.06	5827.93
448.25	5841.98
448.43	5893.47
448.62	5846.66
448.80	5933.26
448.99	5937.94
449.17	5879.43
449.36	5898.15
449.54	5954.32
449.73	6087.73
449.91	6099.44
450.10	5956.66
450.28	6092.41
450.46	6239.87
450.65	6132.20
450.83	6066.67
451.02	6169.65
451.20	6188.38
451.39	6174.33
451.57	6237.53
451.76	6015.18
451.94	6251.57
452.13	6427.11
452.31	6340.51
452.49	6113.48
452.68	6249.23
452.86	6305.40
453.05	6328.81
453.23	6310.08
453.42	6338.17
453.60	6239.87
453.78	6366.26
453.97	6487.96
454.15	6394.34
454.34	6399.02
454.52	6523.07
454.70	6494.99
454.89	6523.07
455.07	6623.72
455.26	6754.79
455.44	6773.51
455.62	6689.25
455.81	6654.14
455.99	6822.66
456.17	6733.72
456.36	6904.58
456.54	6906.92
456.73	6839.05
456.91	7105.87
457.09	7023.95
457.28	7063.74
457.46	7007.56
457.64	7145.66
457.83	6998.20
458.01	7070.76
458.19	7204.17
458.38	7080.12
458.56	7215.87
458.74	7269.70
458.93	7185.44
459.11	7054.37
459.29	7206.51
459.48	7356.30
459.66	7199.49
459.84	7225.23
460.03	7454.61
460.21	7316.51
460.39	7332.90
460.57	7496.74
460.76	7375.03
460.94	7501.42
461.12	7445.24
461.31	7499.08
461.49	7527.16
461.67	7522.48
461.85	7672.28
462.04	7534.18
462.22	8006.97
462.40	7716.75
462.59	7786.96
462.77	7737.81
462.95	7833.77
463.13	7688.66
463.32	7719.09
463.50	7906.33
463.68	8021.02
463.86	7971.86
464.05	7840.79
464.23	7929.74
464.41	7962.50
464.59	7768.24
464.78	7985.91
464.96	8072.51
465.14	7918.03
465.32	8063.15
465.50	7934.42
465.69	8112.30
465.87	8149.75
466.05	8105.28
466.23	8013.99
466.41	8189.53
466.60	8187.19
466.78	8224.64
466.96	8222.30
467.14	8198.90
467.32	8222.30
467.51	8402.52
467.69	8105.28
467.87	8430.61
468.05	8566.36
468.23	8217.62
468.41	8477.42
468.60	8482.10
468.78	8468.06
468.96	8482.10
469.14	8678.71
469.32	8638.92
469.50	8458.70
469.69	8498.49
469.87	8795.73
470.05	8629.56
470.23	8819.14
470.41	8861.27
470.59	9114.05
470.77	8692.75
470.95	8753.60
471.14	8973.61
471.32	8664.66
471.50	8922.12
471.68	8938.51
471.86	9015.74
472.04	9085.96
472.22	9331.72
472.40	9071.92
472.58	9387.89
472.77	9312.99
472.95	9430.02
473.13	9682.80
473.31	9369.16
473.49	9355.12
473.67	9481.51
473.85	9682.80
474.03	9762.37
474.21	9832.59
474.39	9909.83
474.57	9930.89
474.75	9966.00
474.93	9886.42
475.12	10045.58
475.30	9830.25
475.48	9961.32
475.66	10193.03
475.84	10003.45
476.02	10352.19
476.20	10209.42
476.38	10391.98
476.56	10548.79
476.74	10642.42
476.92	10511.35
477.10	10693.91
477.28	10787.53
477.46	10623.69
477.64	10902.22
477.82	10848.38
478.00	11349.26
478.18	11194.78
478.36	10979.45
478.54	11297.77
478.72	11644.17
478.90	11412.45
479.08	11580.97
479.26	11765.87
479.44	11707.36
479.62	11707.36
479.80	11871.20
479.98	11913.33
480.16	12362.71
480.34	11784.60
480.52	12278.45
480.70	12198.87
480.88	12154.40
481.06	12313.56
481.24	12603.78
481.41	12692.73
481.59	12727.83
481.77	12919.76
481.95	12961.89
482.13	13008.70
482.31	13137.43
482.49	13270.84
482.67	13474.46
482.85	13392.55
483.03	13635.96
483.21	13500.21
483.39	13951.93
483.57	13921.51
483.74	14253.86
483.92	14169.60
484.10	13837.25
484.28	14094.71
484.46	14523.02
484.64	14560.47
484.82	14314.72
485.00	14824.95
485.18	14822.61
485.35	14972.41
485.53	14906.87
485.71	15302.42
485.89	15307.10
486.07	15143.27
486.25	15599.67
486.43	15351.57
486.61	15742.44
486.78	16016.29
486.96	15882.88
487.14	16060.76
487.32	16020.97
487.50	16339.28
487.68	16269.06
487.85	16615.46
488.03	16748.87
488.21	17301.24
488.39	16947.82
488.57	17275.49
488.75	17289.54
488.92	17132.72
489.10	17605.51
489.28	17467.42
489.46	17851.27
489.64	17451.03
489.81	17853.61
489.99	18185.96
490.17	18427.04
490.35	18707.90
490.53	18204.69
490.70	18714.92
490.88	18466.83
491.06	18948.98
491.24	18845.99
491.41	19035.58
491.59	19147.92
491.77	19501.34
491.95	19433.47
492.13	19552.84
492.30	19550.49
492.48	19789.23
492.66	19756.46
492.84	19981.15
493.01	19999.88
493.19	20161.37
493.37	20568.63
493.54	20678.63
493.72	20575.65
493.90	20828.43
494.08	21015.67
494.25	21067.16
494.43	20980.56
494.61	21060.14
494.79	21678.04
494.96	21441.65
495.14	21532.93
495.32	21748.26
495.49	21561.02
495.67	21771.66
495.85	22249.13
496.02	21944.86
496.20	22405.95
496.38	22375.52
496.55	22368.50
496.73	22883.42
496.91	22260.84
497.09	22845.97
497.26	22932.57
497.44	22757.03
497.62	23126.83
497.79	23386.63
497.97	23108.11
498.14	23454.51
498.32	23756.44
498.50	23840.70
498.67	23939.00
498.85	23772.82
499.03	23798.57
499.20	23660.48
499.38	24224.54
499.56	24187.10
499.73	24107.52
499.91	24388.38
500.08	24854.15
500.26	24442.21
500.44	24570.94
500.61	24844.79
500.79	24753.51
500.97	25064.80
501.14	25727.17
501.32	25488.43
501.49	25284.81
501.67	25446.30
501.84	25635.89
502.02	25678.02
502.20	25769.30
502.37	25340.98
502.55	25647.59
502.72	25771.64
502.90	26125.06
503.07	26127.40
503.25	25926.11
503.43	25928.45
503.60	26445.71
503.78	26675.09
503.95	26302.94
504.13	26562.74
504.30	27136.17
504.48	26675.09
504.65	27087.02
504.83	27061.27
505.01	27262.56
505.18	26895.10
505.36	27360.86
505.53	27227.45
505.71	27627.68
505.88	27421.72
506.06	27152.55
506.23	27681.52
506.41	27585.55
506.58	27454.48
506.76	28037.28
506.93	28027.92
507.11	27817.27
507.28	28158.99
507.46	28229.20
507.63	28528.79
507.81	28599.01
507.98	28371.97
508.16	28580.28
508.33	28503.04
508.50	28858.81
508.68	28437.51
508.85	28999.24
509.03	28755.82
509.20	29057.75
509.38	29289.46
509.55	29090.52
509.73	29259.04
509.90	29670.97
510.08	29521.18
510.25	29387.77
510.42	29682.67
510.60	29949.50
510.77	29666.29
510.95	30108.65
511.12	30019.71
511.30	29813.74
511.47	30284.19
511.64	29692.04
511.82	30258.45
511.99	30232.70
512.17	30122.69
512.34	30230.36
512.51	30679.74
512.69	31054.23
512.86	31002.74
513.04	30937.20
513.21	30801.45
513.38	31398.29
513.56	30859.96
513.73	31091.68
513.90	31194.66
514.08	30866.98
514.25	31615.96
514.43	31257.85
514.60	31871.07
514.77	31622.98
514.95	31693.19
515.12	31653.40
515.29	31515.31
515.47	31878.10
515.64	32189.39
515.81	31473.18
515.99	32013.85
516.16	32245.56
516.33	32247.90
516.51	32589.62
516.68	32180.03
516.85	32538.13
517.03	32584.94
517.20	32650.47
517.37	32657.49
517.54	32950.06
517.72	32718.35
517.89	32683.24
518.06	32634.09
518.24	33116.24
518.41	32907.93
518.58	33104.54
518.75	32826.01
518.93	33617.11
519.10	32929.00
519.27	33827.76
519.45	33912.02
519.62	34082.88
519.79	33771.59
519.96	33291.78
520.14	33682.65
520.31	33481.36
520.48	34129.69
520.65	33996.28
520.83	34328.64
521.00	34263.10
521.17	34218.63
521.34	34096.92
521.52	34366.09
521.69	34476.09
521.86	34614.18
522.03	34728.87
522.20	34836.53
522.38	35037.82
522.55	35072.93
522.72	34920.79
522.89	34962.92
523.07	34911.43
523.24	35283.58
523.41	35318.68
523.58	35255.49
523.75	35580.82
523.92	35110.38
524.10	36062.97
524.27	35641.68
524.44	35735.30
524.61	35229.74
524.78	35831.26
524.96	35906.16
525.13	36201.07
525.30	36189.36
525.47	36285.33
525.64	35810.20
525.81	36198.73
525.98	36304.05
526.16	36212.77
526.33	36334.48
526.50	36591.94
526.67	36484.27
526.84	36346.18
527.01	36416.40
527.18	36601.30
527.36	37109.19
527.53	36634.06
527.70	37193.45
527.87	37734.12
528.04	37088.13
528.21	36933.65
528.38	37074.09
528.55	37397.08
528.72	37146.64
528.89	37687.31
529.07	37097.49
529.24	37186.43
529.41	36957.06
529.58	37202.82
529.75	37425.17
529.92	37572.62
530.09	37523.47
530.26	37249.63
530.43	37837.10
530.60	37743.48
530.77	37689.65
530.94	37900.29
531.11	37790.29
531.28	37659.22
531.46	37904.98
531.63	38253.72
531.80	37968.17
531.97	37996.26
532.14	38562.67
532.31	38183.50
532.48	38740.55
532.65	38796.72
532.82	38394.15
532.99	38515.86
533.16	38466.70
533.33	38445.64
533.50	38735.87
533.67	38939.49
533.84	38522.88
534.01	38913.75
534.18	38941.83
534.35	38990.98
534.52	39173.55
534.69	39236.74
534.86	39592.50
535.03	38829.49
535.20	39236.74
535.37	39494.20
535.54	39419.30
535.71	39508.24
535.88	39035.45
536.05	39215.68
536.22	40013.80
536.38	39655.70
536.55	39641.65
536.72	39337.38
536.89	39849.96
537.06	39981.03
537.23	40205.72
537.40	39585.48
537.57	39793.79
537.74	39831.24
537.91	40222.11
538.08	40086.36
538.25	39845.28
538.42	40346.15
538.59	40301.68
538.75	39768.04
538.92	40346.15
539.09	40603.61
539.26	40285.30
539.43	40638.72
539.60	40587.23
539.77	40439.78
539.94	40856.39
540.11	40491.27
540.28	40655.11
540.44	40877.46
540.61	40739.36
540.78	40919.59
540.95	40830.65
541.12	40800.22
541.29	40591.91
541.46	40730.00
541.62	40840.01
541.79	41202.79
541.96	41219.17
542.13	40811.92
542.30	41167.68
542.47	41720.05
542.63	41399.40
542.80	41284.71
542.97	41563.23
543.14	42059.43
543.31	41773.88
543.48	41411.10
543.64	42284.12
543.81	42139.00
543.98	42047.72
544.15	41993.89
544.32	41916.65
544.48	42108.58
544.65	42211.56
544.82	42483.06
544.99	42398.80
545.16	42183.48
545.32	41986.87
545.49	42157.73
545.66	42515.83
545.83	42738.18
546.00	42424.55
546.16	42424.55
546.33	42621.16
546.50	42368.38
546.67	42363.70
546.83	42237.31
547.00	42958.19
547.17	42370.72
547.34	42588.39
547.50	42768.61
547.67	43487.15
547.84	42658.60
548.00	42621.16
548.17	43260.12
548.34	43044.79
548.51	43709.50
548.67	43323.32
548.84	43161.82
549.01	43192.25
549.18	43000.32
549.34	43328.00
549.51	43646.31
549.68	43337.36
549.84	43414.60
550.01	43339.70
550.18	43105.65
550.34	43538.65
550.51	43847.60
550.68	43751.63
550.84	43709.50
551.01	43866.32
551.18	43583.12
551.34	43821.85
551.51	43959.94
551.68	43833.55
551.84	43798.44
552.01	43737.59
552.18	43931.86
552.34	43819.51
552.51	43613.54
552.68	43622.90
552.84	43620.56
553.01	44004.41
553.18	44130.80
553.34	44332.09
553.51	44034.84
553.67	44142.50
553.84	44212.72
554.01	44357.83
554.17	44327.41
554.34	44442.09
554.51	44631.68
554.67	44605.93
554.84	44711.25
555.00	44629.34
555.17	44898.50
555.33	44423.37
555.50	44341.45
555.67	44830.62
555.83	44294.64
556.00	45123.19
556.16	45083.40
556.33	45013.18
556.50	44594.23
556.66	44779.13
556.83	44582.52
556.99	45254.26
557.16	44678.49
557.32	45280.00
557.49	45109.14
557.65	44903.18
557.82	44708.91
557.98	45113.83
558.15	44641.04
558.32	45013.18
558.48	44994.46
558.65	45116.17
558.81	44648.06
558.98	44657.42
559.14	45371.28
559.31	45111.49
559.47	45137.23
559.64	45600.66
559.80	45390.01
559.97	45415.76
560.13	45460.23
560.30	45645.13
560.46	45610.02
560.63	45579.59
560.79	45717.68
560.96	45762.15
561.12	45797.26
561.29	45649.81
561.45	45478.95
561.61	45794.92
561.78	45408.73
561.94	45977.48
562.11	45249.58
562.27	45600.66
562.44	45694.28
562.60	45902.59
562.77	45764.49
562.93	46110.89
563.10	45984.51
563.26	45792.58
563.42	46354.31
563.59	46127.28
563.75	45893.22
563.92	45713.00
564.08	45778.54
564.24	45951.74
564.41	45968.12
564.57	46113.23
564.74	46155.36
564.90	45961.10
565.07	45476.61
565.23	45993.87
565.39	45654.49
565.56	46363.67
565.72	46064.08
565.88	45916.63
566.05	45914.29
566.21	46064.08
566.38	46031.32
566.54	46340.27
566.70	46150.68
566.87	46192.81
567.03	46232.60
567.19	46497.08
567.36	46333.24
567.52	45900.25
567.68	46354.31
567.85	46518.15
568.01	46646.88
568.17	46525.17
568.34	46534.53
568.50	46232.60
568.66	46534.53
568.83	46368.35
568.99	46459.63
569.15	46501.76
569.32	46330.90
569.48	46106.21
569.64	46754.54
569.81	46607.09
569.97	46607.09
570.13	46431.55
570.30	46667.94
570.46	46597.73
570.62	46667.94
570.78	46766.24
570.95	46876.25
571.11	46541.55
571.27	46237.28
571.43	46871.57
571.60	46766.24
571.76	46476.02
571.92	46403.46
572.09	46546.23
572.25	46745.18
572.41	46609.43
572.57	46899.65
572.74	47206.26
572.90	46660.92
573.06	46850.50
573.22	47131.37
573.38	47175.84
573.55	46997.96
573.71	47224.99
573.87	47054.13
574.03	46763.90
574.20	47409.89
574.36	46960.51
574.52	46719.43
574.68	46939.44
574.84	47365.42
575.01	47246.05
575.17	46614.11
575.33	47051.79
575.49	46768.58
575.65	46916.04
575.82	46719.43
575.98	46740.50
576.14	47145.41
576.30	47302.23
576.46	46639.86
576.62	47051.79
576.79	46850.50
576.95	46387.08
577.11	46665.60
577.27	46944.12
577.43	47159.45
577.59	46899.65
577.75	47154.77
577.92	46433.89
578.08	46941.78
578.24	46925.40
578.40	47255.42
578.56	47299.89
578.72	46965.19
578.88	47019.02
579.04	47150.09
579.21	46834.12
579.37	47400.53
579.53	47037.75
579.69	46747.52
579.85	46965.19
580.01	46962.85
580.17	47196.90
580.33	47234.35
580.49	47264.78
580.65	47709.48
580.82	47016.68
580.98	46892.63
581.14	46934.76
581.30	47058.81
581.46	46904.34
581.62	47112.64
581.78	46775.61
581.94	47285.84
582.10	47271.80
582.26	47306.91
582.42	47260.10
582.58	47391.17
582.74	47107.96
582.90	47569.05
583.06	47019.02
583.22	47342.02
583.38	47217.97
583.54	47306.91
583.70	47201.58
583.86	47124.35
584.02	47398.19
584.18	47732.89
584.34	47592.45
584.50	47405.21
584.66	47346.70
584.82	47742.25
584.98	47555.00
585.14	47599.47
585.30	46820.08
585.46	47452.02
585.62	47199.24
585.78	47342.02
585.94	47288.18
586.10	47445.00
586.26	47217.97
586.42	47239.03
586.58	47842.89
586.74	47311.59
586.90	47243.71
587.06	47210.95
587.22	47463.72
587.38	47180.52
587.54	47601.82
587.70	47753.95
587.86	47625.22
588.02	47299.89
588.18	47262.44
588.34	47269.46
588.49	47384.15
588.65	47318.61
588.81	47363.08
588.97	47466.06
589.13	47192.22
589.29	47442.66
589.45	47648.63
589.61	47868.64
589.77	47426.28
589.93	47557.35
590.08	47590.11
590.24	47632.24
590.40	47856.93
590.56	47868.64
590.72	47498.83
590.88	47800.76
591.04	47725.86
591.20	48128.44
591.35	47730.54
591.51	48126.10
591.67	47845.23
591.83	48329.72
591.99	47131.37
592.15	47798.42
592.31	47545.64
592.46	47662.67
592.62	47620.54
592.78	47763.31
592.94	47990.34
593.10	47903.74
593.26	48444.41
593.41	48093.33
593.57	47880.34
593.73	47777.36
593.89	48137.80
594.05	48179.93
594.20	48062.90
594.36	48357.81
594.52	48271.21
594.68	47838.21
594.84	47707.14
594.99	48154.18
595.15	48133.12
595.31	47870.98
595.47	47716.50
595.62	48189.29
595.78	47732.89
595.94	48030.13
596.10	47807.78
596.25	47906.08
596.41	47856.93
596.57	47599.47
596.73	48102.69
596.88	48233.76
597.04	47955.24
597.20	47988.00
597.36	47887.36
597.51	48140.14
597.67	47896.72
597.83	48016.09
597.99	47964.60
598.14	47997.37
598.30	48088.65
598.46	48128.44
598.61	48622.29
598.77	47882.68
598.93	48032.47
599.09	48311.00
599.24	48451.43
599.40	47880.34
599.56	48470.15
599.71	48463.13
599.87	48692.50
600.03	48282.91
600.18	48105.03
600.34	48184.61
600.50	48488.88
600.65	48189.29
600.81	48474.84
600.97	48313.34
601.12	48198.65
601.28	48130.78
601.44	48488.88
601.59	48109.71
601.75	48341.42
601.91	48112.05
602.06	47999.71
602.22	48058.22
602.37	47655.65
602.53	48172.91
602.69	48474.84
602.84	48013.75
603.00	48409.30
603.16	48048.86
603.31	48161.20
603.47	48708.89
603.62	48271.21
603.78	48184.61
603.94	48217.38
604.09	48236.10
604.25	48282.91
604.40	48303.98
604.56	48278.23
604.71	48648.03
604.87	48032.47
605.03	47955.24
605.18	47988.00
605.34	48287.59
605.49	48151.84
605.65	48325.04
605.80	47973.96
605.96	47885.02
606.12	48044.18
606.27	48540.37
606.43	47941.19
606.58	47988.00
606.74	48184.61
606.89	48215.04
607.05	48088.65
607.20	47899.06
607.36	47915.45
607.51	48088.65
607.67	47992.68
607.82	47859.27
607.98	48212.70
608.13	47817.14
608.29	48177.59
608.44	48130.78
608.60	47758.63
608.75	47938.85
608.91	48027.79
609.06	47571.39
609.22	48526.33
609.37	47840.55
609.53	48264.19
609.68	48126.10
609.84	48128.44
609.99	47936.51
610.15	48189.29
610.30	47669.69
610.46	47707.14
610.61	48123.75
610.76	47744.59
610.92	47859.27
611.07	47496.49
611.23	47456.70
611.38	47999.71
611.54	47980.98
611.69	47735.23
611.84	48081.63
612.00	47852.25
612.15	47611.18
612.31	48243.12
612.46	47248.39
612.62	47501.17
612.77	47550.32
612.92	47838.21
613.08	47327.97
613.23	47627.56
613.39	47915.45
613.54	47377.12
613.69	47842.89
613.85	47229.67
614.00	47667.35
614.15	47672.03
614.31	47449.68
614.46	47419.25
614.62	47220.31
614.77	47466.06
614.92	47498.83
615.08	47688.42
615.23	47948.21
615.38	47540.96
615.54	47131.37
615.69	47386.49
615.84	47206.26
616.00	47917.79
616.15	47515.22
616.30	47510.53
616.46	47185.20
616.61	47049.45
616.76	47510.53
616.92	47021.36
617.07	47278.82
617.22	47463.72
617.37	46864.55
617.53	47393.51
617.68	47267.12
617.83	47339.68
617.99	47229.67
618.14	47763.31
618.29	47309.25
618.45	47206.26
618.60	46625.81
618.75	47164.14
618.90	47103.28
619.06	47157.11
619.21	46618.79
619.36	46958.17
619.51	46897.31
619.67	46944.12
619.82	46639.86
619.97	47065.83
620.12	46944.12
620.28	46717.09
620.43	46887.95
620.58	47217.97
620.73	46927.74
620.89	47178.18
621.04	47044.77
621.19	46902.00
621.34	46384.74
621.49	46298.14
621.65	46831.78
621.80	46859.87
621.95	46763.90
622.10	46834.12
622.25	46410.48
622.41	46129.62
622.56	46745.18
622.71	46703.05
622.86	46866.89
623.01	46799.01
623.16	46309.84
623.32	46569.64
623.47	46855.18
623.62	46415.16
623.77	46904.34
623.92	46330.90
624.07	46579.00
624.23	46588.36
624.38	46429.21
624.53	46595.38
624.68	45823.01
624.83	46253.67
624.98	46272.39
625.13	46164.73
625.29	45853.44
625.44	46237.28
625.59	46344.95
625.74	46466.66
625.89	45982.16
626.04	46602.41
626.19	46014.93
626.34	45944.72
626.49	45837.05
626.65	45628.74
626.80	45825.35
626.95	45647.47
627.10	45380.65
627.25	45970.46
627.40	45818.33
627.55	45586.61
627.70	45830.03
627.85	45956.42
628.00	45591.30
628.15	45656.83
628.30	45364.26
628.45	45413.41
628.60	45460.23
628.76	45738.75
628.91	45546.82
629.06	44931.26
629.21	45118.51
629.36	45209.79
629.51	45366.60
629.66	45853.44
629.81	45441.50
629.96	45282.34
630.11	45450.86
630.26	44968.71
630.41	45261.28
630.56	45429.80
630.71	45560.87
630.86	45284.68
631.01	45167.66
631.16	45029.57
631.31	45184.04
631.46	45352.56
631.61	45591.30
631.76	45205.11
631.91	44804.88
632.06	45724.71
632.21	45272.98
632.36	45577.25
632.51	44713.59
632.66	45102.12
632.81	44779.13
632.96	44949.99
633.10	44945.31
633.25	45289.37
633.40	44875.09
633.55	45333.84
633.70	44755.72
633.85	44456.14
634.00	44664.44
634.15	44727.64
634.30	44910.20
634.45	44636.36
634.60	44484.22
634.75	44854.03
634.90	44680.83
635.05	44835.30
635.19	44715.93
635.34	44690.19
635.49	44289.96
635.64	44456.14
635.79	44746.36
635.94	44514.65
636.09	44978.07
636.24	44474.86
636.39	44638.70
636.53	44678.49
636.68	44233.78
636.83	44264.21
636.98	43796.10
637.13	43950.58
637.28	44149.53
637.43	44114.42
637.57	44034.84
637.72	43695.46
637.87	43796.10
638.02	43920.15
638.17	43854.62
638.32	43957.60
638.46	44184.63
638.61	43751.63
638.76	43920.15
638.91	43840.57
639.06	43770.36
639.20	43540.99
639.35	43545.67
639.50	43625.25
639.65	44133.14
639.80	44034.84
639.94	43821.85
640.09	43903.77
640.24	44231.44
640.39	42993.30
640.54	43234.38
640.68	43718.87
640.83	43550.35
640.98	43732.91
641.13	43295.23
641.27	44091.01
641.42	43789.08
641.57	43477.79
641.72	43985.69
641.86	43569.07
642.01	43136.07
642.16	43643.97
642.31	42951.17
642.45	43246.08
642.60	43564.39
642.75	43297.57
642.90	43566.73
643.04	43665.03
643.19	43208.63
643.34	42754.57
643.48	43171.18
643.63	43136.07
643.78	43278.85
643.93	43686.10
644.07	43058.84
644.22	43358.42
644.37	43049.47
644.51	43222.67
644.66	43180.54
644.81	43152.46
644.95	43210.97
645.10	43243.74
645.25	42726.48
645.39	42459.66
645.54	42799.04
645.69	42394.12
645.83	42340.29
645.98	42667.97
646.13	42387.10
646.27	42417.53
646.42	42295.82
646.57	42794.36
646.71	42670.31
646.86	42887.98
647.00	42845.85
647.15	42436.25
647.30	42646.90
647.44	42513.49
647.59	42527.53
647.74	42761.59
647.88	42990.96
648.03	42543.92
648.17	43229.69
648.32	42773.29
648.47	42909.04
648.61	42410.51
648.76	42176.45
648.90	42487.74
649.05	41956.44
649.20	42251.35
649.34	42506.47
649.49	42328.59
649.63	42586.05
649.78	42796.70
649.92	42003.25
650.07	42932.45
650.21	42679.67
650.36	42557.96
650.51	42092.19
650.65	42504.13
650.80	42007.94
650.94	42438.59
651.09	42183.48
651.23	41787.92
651.38	41663.88
651.52	41837.08
651.67	41656.85
651.81	41921.34
651.96	41881.55
652.10	41579.62
652.25	41518.76
652.39	41738.77
652.54	41738.77
652.68	41537.49
652.83	41715.37
652.97	41364.29
653.12	41567.91
653.26	41457.91
653.41	41659.20
653.55	41560.89
653.70	41780.90
653.84	41734.09
653.99	42197.52
654.13	41448.55
654.27	41254.28
654.42	41668.56
654.56	41502.38
654.71	41645.15
654.85	41481.31
655.00	41439.18
655.14	41600.68
655.29	41989.21
655.43	41603.02
655.57	41134.92
655.72	40940.65
655.86	41305.77
656.01	40905.54
656.15	40577.87
656.30	40914.90
656.44	41090.44
656.58	41361.95
656.73	41020.23
656.87	40776.81
657.01	40627.02
657.16	40940.65
657.30	41001.50
657.45	40931.29
657.59	40519.35
657.73	40463.18
657.88	40598.93
658.02	41015.55
658.16	41111.51
658.31	40854.05
658.45	41116.19
658.60	40531.06
658.74	40456.16
658.88	40502.97
659.03	40266.58
659.17	40006.78
659.31	40374.24
659.46	40194.02
659.60	40442.12
659.74	39634.63
659.89	40177.64
660.03	39838.26
660.17	40055.93
660.32	39999.76
660.46	39995.07
660.60	39840.60
660.74	39704.85
660.89	40339.13
661.03	39328.02
661.17	39332.70
661.32	39658.04
661.46	39812.51
661.60	39536.33
661.74	39494.20
661.89	39557.39
662.03	39503.56
662.17	39585.48
662.31	39126.74
662.46	39522.29
662.60	39241.42
662.74	38930.13
662.88	38937.15
663.03	38672.67
663.17	38822.47
663.31	38829.49
663.45	38845.87
663.60	39262.49
663.74	38747.57
663.88	38962.90
664.02	38941.83
664.17	39084.61
664.31	38696.08
664.45	38480.75
664.59	38471.39
664.73	38384.79
664.88	38253.72
665.02	38127.33
665.16	38651.61
665.30	38520.54
665.44	38438.62
665.59	37759.86
665.73	38155.41
665.87	37673.26
666.01	38052.43
666.15	38075.84
666.29	37956.47
666.44	38075.84
666.58	37689.65
666.72	37249.63
666.86	37921.36
667.00	37886.25
667.14	37460.27
667.28	37837.10
667.43	37401.76
667.57	37621.77
667.71	37509.43
667.85	37837.10
667.99	37581.98
668.13	37104.51
668.27	36713.64
668.41	36943.02
668.56	36231.49
668.70	36605.98
668.84	36545.12
668.98	36622.36
669.12	36769.82
669.26	36711.30
669.40	36893.86
669.54	36676.19
669.68	36231.49
669.82	36610.66
669.96	36449.16
670.10	35974.03
670.25	36151.91
670.39	35983.40
670.53	36034.89
670.67	36051.27
670.81	36315.75
670.95	35849.99
671.09	35756.36
671.23	35632.32
671.37	35810.20
671.51	35777.43
671.65	35468.48
671.79	35798.49
671.93	35887.43
672.07	36053.61
672.21	35807.86
672.35	34962.92
672.49	35070.59
672.63	35667.42
672.77	35009.73
672.91	35047.18
673.05	35072.93
673.19	34658.65
673.33	34658.65
673.47	34724.19
673.61	34370.77
673.75	34501.84
673.89	34422.26
674.03	34291.19
674.17	34153.10
674.31	33778.61
674.45	34022.03
674.59	34061.82
674.73	34005.64
674.87	33553.92
675.01	33539.88
675.15	33310.50
675.29	33228.59
675.43	33212.20
675.56	33757.55
675.70	33404.13
675.84	33048.36
675.98	31864.05
676.12	33069.43
676.26	33249.65
676.40	32804.95
676.54	32788.56
676.68	32807.29
676.82	32381.31
676.96	32268.97
677.10	32257.26
677.23	32416.42
677.37	32503.02
677.51	32135.56
677.65	32135.56
677.79	31882.78
677.93	31498.93
678.07	31817.24
678.21	32065.34
678.34	31702.56
678.48	31475.52
678.62	30993.37
678.76	31288.28
678.90	31372.54
679.04	31325.73
679.18	31452.12
679.31	30775.70
679.45	30623.57
679.59	30473.78
679.73	31009.76
679.87	30689.10
680.00	30705.49
680.14	30433.99
680.28	30609.53
680.42	30047.80
680.56	29977.58
680.70	30228.02
680.83	29710.76
680.97	29610.12
681.11	29773.95
681.25	29624.16
681.39	29172.44
681.52	29495.43
681.66	29104.56
681.80	28683.27
681.94	28856.46
682.07	28699.65
682.21	28561.56
682.35	28685.61
682.49	28716.03
682.62	28573.26
682.76	28657.52
682.90	28467.94
683.04	28198.77
683.17	28432.83
683.31	28236.22
683.45	27845.35
683.59	27658.11
683.72	27522.36
683.86	27875.78
684.00	27637.05
684.13	27363.20
684.27	27234.47
684.41	27276.60
684.55	27246.18
684.68	27168.94
684.82	26815.52
684.96	26536.99
685.09	27307.03
685.23	26932.54
685.37	27349.16
685.50	27056.59
685.64	26806.16
685.78	26487.84
685.91	26101.65
686.05	25979.95
686.19	25853.56
686.32	25743.55
686.46	25500.14
686.60	25582.06
686.73	25628.87
686.87	25310.55
687.01	25823.13
687.14	25773.98
687.28	25366.73
687.42	25493.12
687.55	25235.66
687.69	24957.13
687.82	24968.84
687.96	24613.07
688.10	24964.15
688.23	24957.13
688.37	25120.97
688.50	25106.93
688.64	24601.37
688.78	24526.47
688.91	24299.44
689.05	24343.91
689.18	24126.24
689.32	23358.55
689.46	23714.31
689.59	23751.76
689.73	23709.63
689.86	24027.94
690.00	23517.70
690.13	23484.94
690.27	23283.65
690.41	23606.64
690.54	23009.81
690.68	22965.34
690.81	22930.23
690.95	22689.15
691.08	22855.33
691.22	22789.80
691.35	22647.02
691.49	22827.24
691.62	22408.29
691.76	22314.67
691.89	22125.08
692.03	21895.71
692.16	21942.52
692.30	21881.67
692.43	21792.73
692.57	21436.97
692.70	21546.97
692.84	21165.46
692.97	21177.17
693.11	21394.84
693.24	21039.08
693.38	21209.93
693.51	21092.91
693.65	21041.42
693.78	20793.32
693.92	20830.77
694.05	20615.44
694.19	20713.74
694.32	20704.38
694.45	20695.02
694.59	20365.00
694.72	20594.37
694.86	20163.72
694.99	20126.27
695.13	19924.98
695.26	19899.23
695.39	19833.70
695.53	19845.40
695.66	19571.56
695.80	19571.56
695.93	19733.06
696.07	19147.92
696.20	19176.01
696.33	19028.56
696.47	19002.81
696.60	18946.64
696.73	19255.59
696.87	19225.16
697.00	18927.91
697.14	18450.44
697.27	18300.65
697.40	18747.69
697.54	18342.78
697.67	18253.84
697.80	18012.76
697.94	18331.08
698.07	18307.67
698.21	18059.57
698.34	18164.90
698.47	18050.21
698.61	17575.08
698.74	17528.27
698.87	17813.82
699.01	17577.42
699.14	17509.55
699.27	17462.74
699.40	17291.88
699.54	17069.53
699.67	17350.39
699.80	17149.11
699.94	16877.60
700.07	16982.93
700.20	16882.28
700.34	16856.54
700.47	16725.47
700.60	16929.09
700.73	16538.23
700.87	16798.02
701.00	16369.71
701.13	16285.45
701.26	16311.19
701.40	16350.98
701.53	16114.59
701.66	15826.70
701.79	15613.71
701.93	15548.18
702.06	15438.17
702.19	15667.55
702.32	15620.74
702.46	15325.83
702.59	15658.18
702.72	15641.80
702.85	15328.17
702.99	15257.95
703.12	15185.40
703.25	15063.69
703.38	14899.85
703.51	14883.47
703.65	14855.38
703.78	14534.73
703.91	14747.72
704.04	14380.25
704.17	14487.92
704.31	14497.28
704.44	14452.81
704.57	14195.35
704.70	14193.01
704.83	13994.06
704.96	14129.81
705.10	14162.58
705.23	13991.72
>>>>>End Processed Spectral Data<<<<<
