SpectraSuite Data File
++++++++++++++++++++++++++++++++++++
Date: Fri Oct 25 10:47:09 EDT 2013
User: price-jones
Dark Spectrum Present: No
Reference Spectrum Present: No
Number of Sampled Component Spectra: 1
Spectrometers: USB2+H05261
Integration Time (usec): 100000 (USB2+H05261)
Spectra Averaged: 1 (USB2+H05261)
Boxcar Smoothing: 0 (USB2+H05261)
Correct for Electrical Dark: No (USB2+H05261)
Strobe/Lamp Enabled: No (USB2+H05261)
Correct for Detector Non-linearity: No (USB2+H05261)
Correct for Stray Light: No (USB2+H05261)
Number of Pixels in Processed Spectrum: 2048
>>>>>Begin Processed Spectral Data<<<<<
365.73	128.73
365.92	128.73
366.12	128.73
366.32	53.83
366.52	18.72
366.72	84.26
366.91	44.47
367.11	42.13
367.31	77.24
367.51	51.49
367.70	28.09
367.90	11.70
368.10	51.49
368.30	18.72
368.49	107.66
368.69	110.01
368.89	0.00
369.09	37.45
369.28	88.94
369.48	58.51
369.68	32.77
369.87	14.04
370.07	163.84
370.27	189.58
370.47	287.89
370.66	393.21
370.86	365.12
371.06	475.13
371.25	479.81
371.45	388.53
371.65	470.45
371.84	423.64
372.04	463.43
372.24	465.77
372.44	430.66
372.63	493.85
372.83	510.24
373.03	528.96
373.22	496.19
373.42	521.94
373.62	437.68
373.81	519.60
374.01	442.36
374.21	573.43
374.40	587.47
374.60	589.82
374.79	547.69
374.99	510.24
375.19	533.64
375.38	575.77
375.58	505.56
375.78	514.92
375.97	599.18
376.17	594.50
376.37	575.77
376.56	594.50
376.76	596.84
376.95	498.53
377.15	554.71
377.35	657.69
377.54	599.18
377.74	608.54
377.93	608.54
378.13	585.13
378.33	634.29
378.52	622.58
378.72	704.50
378.91	601.52
379.11	571.09
379.31	674.07
379.50	674.07
379.70	702.16
379.89	674.07
380.09	596.84
380.28	636.63
380.48	650.67
380.68	690.46
380.87	711.52
381.07	692.80
381.26	667.05
381.46	575.77
381.65	650.67
381.85	695.14
382.04	610.88
382.24	697.48
382.43	641.31
382.63	683.44
382.83	650.67
383.02	704.50
383.22	744.29
383.41	650.67
383.61	784.08
383.80	755.99
384.00	760.67
384.19	737.27
384.39	727.91
384.58	765.36
384.78	755.99
384.97	748.97
385.17	751.31
385.36	671.73
385.56	713.86
385.75	734.93
385.95	772.38
386.14	863.66
386.34	678.76
386.53	777.06
386.72	681.10
386.92	793.44
387.11	798.12
387.31	802.80
387.50	840.25
387.70	826.21
387.89	741.95
388.09	849.61
388.28	784.08
388.48	812.17
388.67	856.64
388.86	882.38
389.06	791.10
389.25	933.87
389.45	950.26
389.64	887.06
389.84	861.32
390.03	891.74
390.22	875.36
390.42	933.87
390.61	835.57
390.81	945.58
391.00	973.66
391.19	882.38
391.39	987.71
391.58	870.68
391.78	931.53
391.97	997.07
392.16	999.41
392.36	978.34
392.55	875.36
392.75	952.60
392.94	924.51
393.13	896.43
393.33	933.87
393.52	976.00
393.71	1020.47
393.91	1088.35
394.10	987.71
394.29	1011.11
394.49	1004.09
394.68	1114.10
394.88	1053.24
395.07	1156.22
395.26	1097.71
395.46	1109.41
395.65	1093.03
395.84	1109.41
396.04	1149.20
396.23	1088.35
396.42	1165.59
396.62	1156.22
396.81	1198.35
397.00	1188.99
397.19	1224.10
397.39	1240.48
397.58	1210.06
397.77	1193.67
397.97	1277.93
398.16	1289.64
398.35	1261.55
398.55	1263.89
398.74	1282.61
398.93	1313.04
399.12	1219.42
399.32	1254.53
399.51	1240.48
399.70	1317.72
399.90	1242.82
400.09	1390.28
400.28	1397.30
400.47	1362.19
400.67	1451.13
400.86	1434.75
401.05	1366.87
401.24	1392.62
401.44	1434.75
401.63	1497.94
401.82	1453.47
402.01	1453.47
402.21	1387.94
402.40	1495.60
402.59	1516.67
402.78	1444.11
402.97	1507.30
403.17	1568.16
403.36	1561.14
403.55	1575.18
403.74	1631.35
403.93	1586.88
404.13	1596.25
404.32	1570.50
404.51	1584.54
404.70	1694.55
404.89	1633.69
405.09	1643.06
405.28	1668.80
405.47	1675.82
405.66	1685.19
405.85	1743.70
406.05	1661.78
406.24	1701.57
406.43	1825.62
406.62	1827.96
406.81	1905.20
407.00	1750.72
407.20	1799.87
407.39	1720.29
407.58	1891.15
407.77	1900.52
407.96	1944.99
408.15	1916.90
408.34	1900.52
408.54	1895.83
408.73	1940.30
408.92	2026.90
409.11	2003.50
409.30	2003.50
409.49	2045.63
409.68	2057.33
409.87	1975.41
410.07	2069.03
410.26	2085.42
410.45	2136.91
410.64	2153.29
410.83	2132.23
411.02	2127.55
411.21	2249.25
411.40	2127.55
411.59	2291.38
411.78	2193.08
411.98	2228.19
412.17	2197.76
412.36	2232.87
412.55	2382.67
412.74	2375.64
412.93	2415.43
413.12	2370.96
413.31	2392.03
413.50	2413.09
413.69	2490.33
413.88	2569.91
414.07	2434.16
414.26	2619.06
414.45	2600.34
414.64	2553.52
414.83	2612.04
415.02	2600.34
415.22	2729.06
415.41	2717.36
415.60	2729.06
415.79	2686.94
415.98	2803.96
416.17	2883.54
416.36	2736.09
416.55	2705.66
416.74	2787.58
416.93	2675.23
417.12	2885.88
417.31	2925.67
417.50	2878.86
417.69	3108.23
417.88	3014.61
418.07	2993.55
418.26	2974.82
418.45	2958.44
418.64	3112.91
418.83	3082.49
419.02	3103.55
419.21	3070.78
419.39	3178.45
419.58	3084.83
419.77	3119.93
419.96	3225.26
420.15	3103.55
420.34	3344.63
420.53	3307.18
420.72	3393.78
420.91	3332.92
421.10	3368.03
421.29	3358.67
421.48	3370.37
421.67	3487.40
421.86	3309.52
422.05	3372.71
422.24	3435.91
422.43	3290.79
422.61	3433.57
422.80	3473.36
422.99	3447.61
423.18	3440.59
423.37	3468.67
423.56	3473.36
423.75	3445.27
423.94	3482.72
424.13	3248.66
424.32	3307.18
424.50	3480.38
424.69	3452.29
424.88	3597.40
425.07	3522.51
425.26	3346.97
425.45	3386.76
425.64	3459.31
425.83	3403.14
426.01	3555.27
426.20	3585.70
426.39	3578.68
426.58	3609.11
426.77	3576.34
426.96	3548.25
427.15	3550.59
427.33	3644.21
427.52	3503.78
427.71	3721.45
427.90	3775.28
428.09	3742.52
428.28	3695.71
428.46	3613.79
428.65	3658.26
428.84	3808.05
429.03	3754.22
429.22	3721.45
429.40	3852.52
429.59	3684.00
429.78	3620.81
429.97	3424.20
430.16	3641.87
430.34	3662.94
430.53	3817.41
430.72	3765.92
430.91	3831.46
431.10	3782.31
431.28	3957.85
431.47	4124.02
431.66	4149.77
431.85	4098.28
432.03	4145.09
432.22	4128.70
432.41	4217.65
432.60	4161.47
432.79	4098.28
432.97	4147.43
433.16	4208.28
433.35	4154.45
433.54	4198.92
433.72	4234.03
433.91	4140.41
434.10	4191.90
434.28	4248.07
434.47	4372.12
434.66	4386.16
434.85	4252.75
435.03	4212.96
435.22	4318.29
435.41	4449.36
435.59	4477.44
435.78	4472.76
435.97	4650.64
436.16	4444.68
436.34	4440.00
436.53	4442.34
436.72	4674.05
436.90	4397.87
437.09	4620.22
437.28	4526.60
437.46	4557.02
437.65	4507.87
437.84	4500.85
438.02	4585.11
438.21	4528.94
438.40	4498.51
438.58	4912.78
438.77	4842.57
438.96	4725.54
439.14	4880.02
439.33	5139.82
439.52	4924.49
439.70	5020.45
439.89	5057.90
440.08	5118.75
440.26	5053.22
440.45	4884.70
440.63	5132.79
440.82	5137.48
441.01	5184.29
441.19	5324.72
441.38	5453.45
441.57	5446.43
441.75	5392.59
441.94	5446.43
442.12	5495.58
442.31	5687.50
442.50	5472.17
442.68	5605.58
442.87	5537.71
443.05	5551.75
443.24	5731.97
443.43	5731.97
443.61	5771.76
443.80	5809.21
443.98	5612.60
444.17	5598.56
444.35	5715.59
444.54	5809.21
444.73	5638.35
444.91	5802.19
445.10	5619.63
445.28	5664.10
445.47	5694.52
445.65	5783.46
445.84	5844.32
446.02	5994.11
446.21	5675.80
446.39	5666.44
446.58	5858.36
446.77	5811.55
446.95	5820.91
447.14	5776.44
447.32	5809.21
447.51	5767.08
447.69	5790.49
447.88	5912.19
448.06	5891.13
448.25	5975.39
448.43	5879.43
448.62	5802.19
448.80	5874.74
448.99	6050.28
449.17	6038.58
449.36	5919.21
449.54	6143.91
449.73	6267.95
449.91	6265.61
450.10	6204.76
450.28	6300.72
450.46	6118.16
450.65	6258.59
450.83	6317.11
451.02	6223.48
451.20	6298.38
451.39	6162.63
451.57	6406.05
451.76	6244.55
451.94	6354.55
452.13	6478.60
452.31	6408.39
452.49	6427.11
452.68	6282.00
452.86	6370.94
453.05	6654.14
453.23	6410.73
453.42	6342.85
453.60	6441.15
453.78	6593.29
453.97	6544.14
454.15	6401.37
454.34	6509.03
454.52	6558.18
454.70	6698.61
454.89	6775.85
455.07	6527.75
455.26	6684.57
455.44	6829.68
455.62	6820.32
455.81	6792.23
455.99	6841.39
456.17	6836.70
456.36	6839.05
456.54	7047.35
456.73	7052.03
456.91	7208.85
457.09	7087.14
457.28	7084.80
457.46	7105.87
457.64	7155.02
457.83	7117.57
458.01	7077.78
458.19	7236.94
458.38	7218.21
458.56	7342.26
458.74	7159.70
458.93	7283.75
459.11	7218.21
459.29	7365.67
459.48	7545.89
459.66	7342.26
459.84	7431.20
460.03	7520.14
460.21	7419.50
460.39	7463.97
460.57	7548.23
460.76	7676.96
460.94	7632.49
461.12	7531.84
461.31	7503.76
461.49	7529.50
461.67	7667.60
461.85	7819.73
462.04	7808.03
462.22	8112.30
462.40	7763.56
462.59	7721.43
462.77	7922.71
462.95	8006.97
463.13	7646.53
463.32	7894.63
463.50	7978.89
463.68	8018.68
463.86	7903.99
464.05	7873.56
464.23	7857.18
464.41	7885.26
464.59	8006.97
464.78	8180.17
464.96	8058.46
465.14	8060.80
465.32	8149.75
465.50	8383.80
465.69	8105.28
465.87	8086.55
466.05	8159.11
466.23	8339.33
466.41	8266.77
466.60	8299.54
466.78	8147.40
466.96	8374.44
467.14	8219.96
467.32	8180.17
467.51	8545.30
467.69	7971.86
467.87	8390.82
468.05	8587.43
468.23	8451.67
468.41	8414.23
468.60	8294.86
468.78	8664.66
468.96	8465.72
469.14	8784.03
469.32	8620.19
469.50	8379.12
469.69	8772.33
469.87	8610.83
470.05	8779.35
470.23	8634.24
470.41	8711.47
470.59	8903.40
470.77	8938.51
470.95	8849.57
471.14	9090.64
471.32	8807.44
471.50	9151.49
471.68	9336.40
471.86	9289.59
472.04	9207.67
472.22	9280.22
472.40	9226.39
472.58	9212.35
472.77	9451.08
472.95	9303.63
473.13	9771.74
473.31	9277.88
473.49	9373.85
473.67	9408.95
473.85	9486.19
474.03	9753.01
474.21	9853.66
474.39	9476.83
474.57	9621.94
474.75	9980.04
474.93	10221.12
475.12	9916.85
475.30	10059.62
475.48	9998.77
475.66	10155.58
475.84	10125.16
476.02	10239.84
476.20	10200.05
476.38	10450.49
476.56	10541.77
476.74	10321.76
476.92	10541.77
477.10	10523.05
477.28	10478.58
477.46	10672.84
477.64	10892.85
477.82	11075.42
478.00	11143.29
478.18	11054.35
478.36	11321.17
478.54	11262.66
478.72	11384.37
478.90	11569.27
479.08	11604.38
479.26	11669.91
479.44	11873.54
479.62	11810.34
479.80	11850.13
479.98	11955.46
480.16	12292.49
480.34	12233.98
480.52	12163.76
480.70	12343.99
480.88	12145.04
481.06	12549.95
481.24	12336.96
481.41	12666.98
481.59	12968.91
481.77	12901.03
481.95	12896.35
482.13	13008.70
482.31	12826.14
482.49	13434.68
482.67	13338.71
482.85	13462.76
483.03	13441.70
483.21	13965.98
483.39	13942.57
483.57	13600.85
483.74	13734.26
483.92	14235.14
484.10	14022.15
484.28	14036.19
484.46	14588.56
484.64	14621.33
484.82	14232.80
485.00	14499.62
485.18	14754.74
485.35	14995.81
485.53	14738.35
485.71	14871.76
485.89	15211.14
486.07	15239.23
486.25	15112.84
486.43	15323.49
486.61	15503.71
486.78	15513.07
486.96	15538.82
487.14	15878.19
487.32	15913.30
487.50	16049.05
487.68	16329.92
487.85	16589.72
488.03	16851.86
488.21	16809.73
488.39	16798.02
488.57	16779.30
488.75	17334.01
488.92	17326.99
489.10	17266.13
489.28	17687.43
489.46	17661.68
489.64	17769.35
489.81	17975.31
489.99	18286.61
490.17	18111.07
490.35	18501.93
490.53	17989.36
490.70	18892.80
490.88	18710.24
491.06	19061.32
491.24	18677.48
491.41	18728.97
491.59	18991.11
491.77	18728.97
491.95	19269.63
492.13	19250.91
492.30	19634.75
492.48	19737.74
492.66	19826.68
492.84	19594.96
493.01	20013.92
493.19	19697.95
493.37	20102.86
493.54	20212.87
493.72	20369.68
493.90	20411.81
494.08	20428.20
494.25	21170.15
494.43	20931.41
494.61	20919.71
494.79	21034.39
494.96	21149.08
495.14	21128.02
495.32	21465.05
495.49	21465.05
495.67	21460.37
495.85	21935.50
496.02	21867.63
496.20	22008.06
496.38	22026.78
496.55	22300.62
496.73	22494.89
496.91	22490.21
497.09	22492.55
497.26	22717.24
497.44	22640.00
497.62	23285.99
497.79	22628.30
497.97	23157.26
498.14	23274.29
498.32	23316.42
498.50	22995.76
498.67	23800.91
498.85	23726.01
499.03	24081.77
499.20	23735.37
499.38	24091.13
499.56	24100.50
499.73	24451.58
499.91	24018.58
500.08	24259.65
500.26	24032.62
500.44	24400.08
500.61	24414.13
500.79	24449.24
500.97	24837.76
501.14	24938.41
501.32	25256.72
501.49	24964.15
501.67	24950.11
501.84	24879.89
502.02	25214.59
502.20	25097.56
502.37	25727.17
502.55	25301.19
502.72	25460.35
502.90	25706.10
503.07	25490.77
503.25	25673.34
503.43	25495.46
503.60	26008.03
503.78	26075.91
503.95	26012.71
504.13	25839.51
504.30	26167.19
504.48	25965.90
504.65	26441.03
504.83	26656.36
505.01	26560.40
505.18	26670.40
505.36	26686.79
505.53	27009.78
505.71	27108.08
505.88	27019.14
506.06	26757.00
506.23	27119.79
506.41	27101.06
506.58	27222.77
506.76	27192.34
506.93	27658.11
507.11	27625.34
507.28	27496.61
507.46	27246.18
507.63	27667.47
507.81	27843.01
507.98	27772.80
508.16	27969.40
508.33	28063.02
508.50	28037.28
508.68	27913.23
508.85	28374.31
509.03	28329.84
509.20	28184.73
509.38	28716.03
509.55	28730.08
509.73	28744.12
509.90	29015.62
510.08	28570.92
510.25	28896.25
510.42	28912.64
510.60	28931.36
510.77	29352.66
510.95	29186.48
511.12	29401.81
511.30	29486.07
511.47	29675.65
511.64	29912.05
511.82	29809.06
511.99	29205.20
512.17	29530.54
512.34	30094.61
512.51	30134.40
512.69	30221.00
512.86	30209.29
513.04	30288.87
513.21	30457.39
513.38	30298.23
513.56	30045.46
513.73	30022.05
513.90	30541.65
514.08	30848.26
514.25	30878.69
514.43	30632.93
514.60	30511.22
514.77	30698.47
514.95	31087.00
515.12	30937.20
515.29	31119.76
515.47	31016.78
515.64	30820.17
515.81	31140.83
515.99	31519.99
516.16	31356.16
516.33	31290.62
516.51	31152.53
516.68	31108.06
516.85	31171.25
517.03	31407.65
517.20	31288.28
517.37	31969.38
517.54	31997.46
517.72	32051.30
517.89	31941.29
518.06	31800.86
518.24	31873.42
518.41	32018.53
518.58	31702.56
518.75	31864.05
518.93	32563.87
519.10	32638.77
519.27	32587.28
519.45	32907.93
519.62	32727.71
519.79	32313.44
519.96	32737.07
520.14	32994.53
520.31	32486.64
520.48	32854.10
520.65	33095.18
520.83	33366.68
521.00	33287.10
521.17	33504.77
521.34	33106.88
521.52	33228.59
521.69	33553.92
521.86	33336.25
522.03	33394.76
522.20	33708.40
522.38	33666.27
522.55	33993.94
522.72	33975.22
522.89	34265.44
523.07	34302.89
523.24	33811.38
523.41	34316.93
523.58	33715.42
523.75	34438.64
523.92	34330.98
524.10	34220.97
524.27	34693.76
524.44	34527.58
524.61	34724.19
524.78	34651.63
524.96	35040.16
525.13	35225.06
525.30	35091.65
525.47	34873.98
525.64	35108.04
525.81	35236.77
525.98	35473.16
526.16	35016.75
526.33	35101.01
526.50	35381.88
526.67	34836.53
526.84	35236.77
527.01	34998.03
527.18	35517.63
527.36	35634.66
527.53	35761.05
527.70	35871.05
527.87	35908.50
528.04	35814.88
528.21	35948.29
528.38	35613.59
528.55	36362.56
528.72	35955.31
528.89	35964.67
529.07	36027.87
529.24	35917.86
529.41	36224.47
529.58	36156.60
529.75	36350.86
529.92	36439.80
530.09	36264.26
530.26	36737.05
530.43	36444.48
530.60	36362.56
530.77	36631.72
530.94	36966.42
531.11	36514.70
531.28	37090.47
531.46	36554.49
531.63	37109.19
531.80	36795.56
531.97	36975.78
532.14	37006.21
532.31	36718.32
532.48	37109.19
532.65	36914.93
532.82	36961.74
532.99	37387.72
533.16	36994.51
533.33	36921.95
533.50	37441.55
533.67	37755.18
533.84	37116.22
534.01	37710.71
534.18	37691.99
534.35	37872.21
534.52	37359.63
534.69	37329.20
534.86	37574.96
535.03	37998.60
535.20	37736.46
535.37	38330.95
535.54	38234.99
535.71	37635.81
535.88	38333.29
536.05	38279.46
536.22	38286.48
536.38	37897.95
536.55	38220.95
536.72	38466.70
536.89	38459.68
537.06	38206.90
537.23	38270.10
537.40	38274.78
537.57	38368.40
537.74	38623.52
537.91	38911.41
538.08	38588.41
538.25	38672.67
538.42	38546.28
538.59	38583.73
538.75	38127.33
538.92	38799.06
539.09	39419.30
539.26	39093.97
539.43	38644.59
539.60	39049.50
539.77	39185.25
539.94	39056.52
540.11	38892.68
540.28	39372.49
540.44	39082.27
540.61	39014.39
540.78	39021.41
540.95	39056.52
541.12	38597.77
541.29	39222.70
541.46	39330.36
541.62	39264.83
541.79	39374.83
541.96	39344.41
542.13	39447.39
542.30	39459.09
542.47	39943.58
542.63	39440.37
542.80	39831.24
542.97	40320.41
543.14	39695.49
543.31	39880.39
543.48	39917.84
543.64	40587.23
543.81	40154.23
543.98	40388.28
544.15	40168.27
544.32	40652.76
544.48	40816.60
544.65	40521.69
544.82	40282.96
544.99	40140.19
545.16	40568.51
545.32	40318.07
545.49	40547.44
545.66	40722.98
545.83	40535.74
546.00	41029.59
546.16	41188.75
546.33	40385.94
546.50	40519.35
546.67	40580.21
546.83	40112.10
547.00	40762.77
547.17	40919.59
547.34	40818.94
547.50	41125.55
547.67	41151.30
547.84	40975.76
548.00	41198.11
548.17	41574.94
548.34	41249.60
548.51	41560.89
548.67	41516.42
548.84	41591.32
549.01	41329.18
549.18	41464.93
549.34	41633.45
549.51	41507.06
549.68	41715.37
549.84	41724.73
550.01	41813.67
550.18	41106.83
550.34	41808.99
550.51	40947.67
550.68	41284.71
550.84	41284.71
551.01	41947.08
551.18	41703.67
551.34	41584.30
551.51	41874.52
551.68	41701.32
551.84	41982.19
552.01	41970.49
552.18	42171.77
552.34	41525.78
552.51	42218.58
552.68	41886.23
552.84	41853.46
553.01	42087.51
553.18	41914.31
553.34	41996.23
553.51	41731.75
553.67	42253.69
553.84	42387.10
554.01	42574.34
554.17	42534.56
554.34	42607.11
554.51	42883.30
554.67	42499.45
554.84	42389.44
555.00	42321.57
555.17	42494.77
555.33	42337.95
555.50	42473.70
555.67	42501.79
555.83	42583.71
556.00	42759.25
556.16	42876.27
556.33	42756.91
556.50	42780.31
556.66	42979.26
556.83	42635.20
556.99	42696.05
557.16	43000.32
557.32	42899.68
557.49	43098.62
557.65	42698.39
557.82	42354.33
557.98	42391.78
558.15	43089.26
558.32	42906.70
558.48	43346.72
558.65	42850.53
558.81	42726.48
558.98	42974.58
559.14	42887.98
559.31	42941.81
559.47	42852.87
559.64	43248.42
559.80	43199.27
559.97	43255.44
560.13	43112.67
560.30	43037.77
560.46	43016.71
560.63	43152.46
560.79	43501.20
560.96	43590.14
561.12	43363.11
561.29	43798.44
561.45	43346.72
561.61	43276.51
561.78	43297.57
561.94	43208.63
562.11	43480.13
562.27	43346.72
562.44	43349.06
562.60	43629.93
562.77	43498.86
562.93	43360.76
563.10	43297.57
563.26	42801.38
563.42	43887.39
563.59	43665.03
563.75	43716.53
563.92	43913.13
564.08	43945.90
564.24	43887.39
564.41	43838.23
564.57	43328.00
564.74	43625.25
564.90	44062.93
565.07	43569.07
565.23	43861.64
565.39	43276.51
565.56	43779.72
565.72	43435.66
565.88	44039.52
566.05	43487.15
566.21	43648.65
566.38	43707.16
566.54	43789.08
566.70	44327.41
566.87	43938.88
567.03	43871.00
567.19	44203.36
567.36	43929.51
567.52	43604.18
567.68	44156.55
567.85	43653.33
568.01	44231.44
568.17	43892.07
568.34	44123.78
568.50	44074.63
568.66	43775.04
568.83	44175.27
568.99	43828.87
569.15	43517.58
569.32	43555.03
569.48	43669.72
569.64	43955.26
569.81	44374.22
569.97	44074.63
570.13	44264.21
570.30	43693.12
570.46	43407.58
570.62	43669.72
570.78	43786.74
570.95	43885.04
571.11	43842.92
571.27	43833.55
571.43	43943.56
571.60	44236.12
571.76	44126.12
571.92	43412.26
572.09	44233.78
572.25	43821.85
572.41	44114.42
572.57	43978.67
572.74	44868.07
572.90	43828.87
573.06	44079.31
573.22	44165.91
573.38	43959.94
573.55	43777.38
573.71	44250.17
573.87	44315.70
574.03	43964.62
574.20	43805.47
574.36	43473.11
574.52	44299.32
574.68	43938.88
574.84	44367.20
575.01	44264.21
575.17	44381.24
575.33	44079.31
575.49	43962.28
575.65	44631.68
575.82	44526.35
575.98	43992.71
576.14	44238.47
576.30	44140.16
576.46	44168.25
576.62	44023.14
576.79	44336.77
576.95	43800.79
577.11	44034.84
577.27	44032.50
577.43	44294.64
577.59	44477.20
577.75	44201.02
577.92	43859.30
578.08	44205.70
578.24	44013.77
578.40	43856.96
578.56	44009.09
578.72	44287.62
578.88	44451.45
579.04	44296.98
579.21	44289.96
579.37	44381.24
579.53	44294.64
579.69	44224.42
579.85	44425.71
580.01	44444.43
580.17	44526.35
580.33	44559.12
580.49	44524.01
580.65	44641.04
580.82	44364.85
580.98	44538.05
581.14	44055.90
581.30	44414.01
581.46	44161.23
581.62	44346.13
581.78	44329.75
581.94	44622.31
582.10	44589.55
582.26	44657.42
582.42	44149.53
582.58	44112.08
582.74	44367.20
582.90	44612.95
583.06	44201.02
583.22	44598.91
583.38	44624.65
583.54	44542.74
583.70	44177.61
583.86	44079.31
584.02	44350.81
584.18	44004.41
584.34	44133.14
584.50	44797.85
584.66	44486.56
584.82	44547.42
584.98	44512.31
585.14	44678.49
585.30	44402.30
585.46	44119.10
585.62	44348.47
585.78	44154.21
585.94	44011.43
586.10	44493.58
586.26	44254.85
586.42	44296.98
586.58	44584.86
586.74	44421.03
586.90	44414.01
587.06	43899.09
587.22	44699.55
587.38	44383.58
587.54	44734.66
587.70	44788.49
587.86	44603.59
588.02	45153.62
588.18	44414.01
588.34	44285.28
588.49	44306.34
588.65	43854.62
588.81	44465.50
588.97	44615.29
589.13	44381.24
589.29	44493.58
589.45	44509.97
589.61	44772.11
589.77	44973.39
589.93	45048.29
590.08	44720.62
590.24	44837.64
590.40	44875.09
590.56	44996.80
590.72	44657.42
590.88	44575.50
591.04	45045.95
591.20	44851.69
591.35	44741.68
591.51	45085.74
591.67	44982.76
591.83	44655.08
591.99	44406.98
592.15	44655.08
592.31	44114.42
592.46	44500.61
592.62	44732.32
592.78	45132.55
592.94	45001.48
593.10	44938.29
593.26	45031.91
593.41	44727.64
593.57	44619.97
593.73	44734.66
593.89	45109.14
594.05	44758.06
594.20	44596.57
594.36	44893.82
594.52	44641.04
594.68	44896.16
594.84	44458.48
594.99	45099.78
595.15	44683.17
595.31	44931.26
595.47	45160.64
595.62	45144.25
595.78	45272.98
595.94	44807.22
596.10	44823.60
596.25	45057.65
596.41	45268.30
596.57	44769.77
596.73	44994.46
596.88	44566.14
597.04	44704.23
597.20	44727.64
597.36	44807.22
597.51	45312.77
597.67	45174.68
597.83	45074.04
597.99	45380.65
598.14	44957.01
598.30	44818.92
598.46	45076.38
598.61	44486.56
598.77	44648.06
598.93	44968.71
599.09	44898.50
599.24	45165.32
599.40	45209.79
599.56	45216.81
599.71	44928.92
599.87	45062.33
600.03	45027.23
600.18	45113.83
600.34	45050.63
600.50	45284.68
600.65	44942.97
600.81	45434.48
600.97	45858.12
601.12	45275.32
601.28	44844.66
601.44	44949.99
601.59	45102.12
601.75	44811.90
601.91	44877.43
602.06	44563.80
602.22	45319.79
602.37	44917.22
602.53	44886.79
602.69	44673.81
602.84	45071.70
603.00	45216.81
603.16	44921.90
603.31	44744.02
603.47	44940.63
603.62	44451.45
603.78	45052.97
603.94	44900.84
604.09	45345.54
604.25	45139.57
604.40	44751.04
604.56	44842.32
604.71	45261.28
604.87	44753.38
605.03	44896.16
605.18	45069.36
605.34	45193.40
605.49	44488.90
605.65	44739.34
605.80	44912.54
605.96	44910.20
606.12	44907.86
606.27	45209.79
606.43	44741.68
606.58	44870.41
606.74	44722.96
606.89	44832.96
607.05	44690.19
607.20	44348.47
607.36	44463.16
607.51	44938.29
607.67	44830.62
607.82	45043.61
607.98	45045.95
608.13	44280.60
608.29	44437.41
608.44	44081.65
608.60	44308.68
608.75	44364.85
608.91	44502.95
609.06	44318.04
609.22	44975.73
609.37	44477.20
609.53	44280.60
609.68	44657.42
609.84	45003.82
609.99	44671.46
610.15	44371.88
610.30	44315.70
610.46	44252.51
610.61	44229.10
610.76	44156.55
610.92	44449.11
611.07	44421.03
611.23	43915.47
611.38	44594.23
611.54	44402.30
611.69	44194.00
611.84	44196.34
612.00	44189.31
612.15	44535.71
612.31	44062.93
612.46	44212.72
612.62	43849.94
612.77	44252.51
612.92	44121.44
613.08	44149.53
613.23	44280.60
613.39	44123.78
613.54	43927.17
613.69	43749.29
613.85	43742.27
614.00	44196.34
614.15	44348.47
614.31	44229.10
614.46	44327.41
614.62	44009.09
614.77	44076.97
614.92	44074.63
615.08	43973.98
615.23	44151.87
615.38	44224.42
615.54	43512.90
615.69	43613.54
615.84	43735.25
616.00	43711.84
616.15	43833.55
616.30	43976.33
616.46	43213.31
616.61	43519.92
616.76	43285.87
616.92	43288.21
617.07	43456.73
617.22	43295.23
617.37	43430.98
617.53	43489.49
617.68	43618.22
617.83	43737.59
617.99	44444.43
618.14	43391.19
618.29	43517.58
618.45	43243.74
618.60	43482.47
618.75	43173.52
618.90	43007.34
619.06	43728.23
619.21	43316.29
619.36	43306.93
619.51	43285.87
619.67	43386.51
619.82	43100.97
619.97	43660.35
620.12	43086.92
620.28	42906.70
620.43	43175.86
620.58	43480.13
620.73	43356.08
620.89	42534.56
621.04	43262.46
621.19	43145.44
621.34	42887.98
621.49	42504.13
621.65	42958.19
621.80	43159.48
621.95	42466.68
622.10	42857.55
622.25	42602.43
622.41	42602.43
622.56	42913.72
622.71	42880.95
622.86	43007.34
623.01	43079.90
623.16	42806.06
623.32	42529.87
623.47	42969.90
623.62	43058.84
623.77	42637.54
623.92	42405.83
624.07	42539.24
624.23	42408.17
624.38	42464.34
624.53	42082.83
624.68	42162.41
624.83	42703.07
624.98	42375.40
625.13	42347.31
625.29	42777.97
625.44	42181.13
625.59	41937.72
625.74	42050.06
625.89	41848.78
626.04	42244.33
626.19	42532.22
626.34	42288.80
626.49	42209.22
626.65	42061.77
626.80	42630.52
626.95	42010.28
627.10	41734.09
627.25	41474.29
627.40	41729.41
627.55	41490.68
627.70	41558.55
627.85	41633.45
628.00	41703.67
628.15	41841.76
628.30	42293.48
628.45	41993.89
628.60	42127.30
628.76	41893.25
628.91	41984.53
629.06	41916.65
629.21	41773.88
629.36	41289.39
629.51	41450.89
629.66	41745.80
629.81	41015.55
629.96	41420.46
630.11	41626.43
630.26	41790.27
630.41	41577.28
630.56	41326.84
630.71	41359.61
630.86	41656.85
631.01	41172.36
631.16	41359.61
631.31	41429.82
631.46	41195.77
631.61	41443.87
631.76	41188.75
631.91	41116.19
632.06	41130.23
632.21	40952.35
632.36	41273.01
632.51	40821.28
632.66	41172.36
632.81	40718.30
632.96	40830.65
633.10	40659.79
633.25	40727.66
633.40	40954.69
633.55	41174.70
633.70	40942.99
633.85	40535.74
634.00	40858.73
634.15	40713.62
634.30	40879.80
634.45	40645.74
634.60	40378.92
634.75	40568.51
634.90	40542.76
635.05	40737.02
635.19	40584.89
635.34	41127.89
635.49	40231.47
635.64	40313.39
635.79	40245.51
635.94	40491.27
636.09	40339.13
636.24	40350.84
636.39	40119.12
636.53	40161.25
636.68	39606.55
636.83	40065.29
636.98	40514.67
637.13	40240.83
637.28	40451.48
637.43	40257.21
637.57	40299.34
637.72	40706.60
637.87	40374.24
638.02	40016.14
638.17	39861.66
638.32	39660.38
638.46	39821.87
638.61	39955.29
638.76	39880.39
638.91	39732.93
639.06	39976.35
639.20	40179.98
639.35	40191.68
639.50	40112.10
639.65	39908.47
639.80	40301.68
639.94	39885.07
640.09	39931.88
640.24	39576.12
640.39	39819.53
640.54	39910.82
640.68	39878.05
640.83	39667.40
640.98	39349.09
641.13	39311.64
641.27	39735.27
641.42	39330.36
641.57	39667.40
641.72	39847.62
641.86	39477.82
642.01	39054.18
642.16	39847.62
642.31	38703.10
642.45	39236.74
642.60	39028.43
642.75	38775.66
642.90	39416.96
643.04	39182.91
643.19	39040.14
643.34	39622.93
643.48	39555.05
643.63	39255.46
643.78	38923.11
643.93	38841.19
644.07	38756.93
644.22	38930.13
644.37	38838.85
644.51	39110.35
644.66	38892.68
644.81	39475.48
644.95	39241.42
645.10	39096.31
645.25	39054.18
645.39	38834.17
645.54	38756.93
645.69	38836.51
645.83	38953.54
645.98	39000.35
646.13	38930.13
646.27	38691.40
646.42	38855.23
646.57	38899.70
646.71	38998.01
646.86	38843.53
647.00	38607.14
647.15	38806.08
647.30	39133.76
647.44	38457.34
647.59	38899.70
647.74	38466.70
647.88	38473.73
648.03	38328.61
648.17	38595.43
648.32	38022.00
648.47	38305.21
648.61	38478.41
648.76	38658.63
648.90	37752.84
649.05	38054.77
649.20	38363.72
649.34	38237.33
649.49	38244.35
649.63	38457.34
649.78	38167.12
649.92	38443.30
650.07	38464.36
650.21	37631.13
650.36	38167.12
650.51	38113.28
650.65	38323.93
650.80	38742.89
650.94	38298.19
651.09	38092.22
651.23	38426.92
651.38	38045.41
651.52	37626.45
651.67	38045.41
651.81	37799.65
651.96	37549.21
652.10	37596.03
652.25	37649.86
652.39	37652.20
652.54	37855.82
652.68	37574.96
652.83	37722.41
652.97	38122.65
653.12	38047.75
653.26	37624.11
653.41	37378.36
653.55	37207.50
653.70	37502.40
653.84	37631.13
653.99	37689.65
654.13	37738.80
654.27	37235.58
654.42	37404.10
654.56	37244.94
654.71	37684.97
654.85	37347.93
655.00	37144.30
655.14	37153.66
655.29	37081.11
655.43	36978.12
655.57	36669.17
655.72	37270.69
655.86	37109.19
656.01	37376.01
656.15	36996.85
656.30	37350.27
656.44	36762.79
656.58	36624.70
656.73	36470.23
656.87	36959.40
657.01	36601.30
657.16	36905.57
657.30	36535.76
657.45	36751.09
657.59	36706.62
657.73	36432.78
657.88	36950.04
658.02	36402.35
658.16	36591.94
658.31	36566.19
658.45	36910.25
658.60	35777.43
658.74	36624.70
658.88	36737.05
659.03	36189.36
659.17	36671.51
659.31	36123.83
659.46	35929.56
659.60	36086.38
659.74	36254.90
659.89	35929.56
660.03	35828.92
660.17	36217.45
660.32	36100.42
660.46	36362.56
660.60	36439.80
660.74	36306.39
660.89	35917.86
661.03	35852.33
661.17	36062.97
661.32	35566.78
661.46	35452.09
661.60	35281.24
661.74	35491.88
661.89	35798.49
662.03	35737.64
662.17	35030.80
662.31	35332.73
662.46	35541.03
662.60	35590.19
662.74	35299.96
662.88	35669.76
663.03	34909.09
663.17	34958.24
663.31	34738.23
663.45	34911.43
663.60	34747.59
663.74	34719.51
663.88	34878.66
664.02	35030.80
664.17	34803.77
664.31	34733.55
664.45	35108.04
664.59	34759.30
664.73	34815.47
664.88	34440.98
665.02	34323.96
665.16	34684.40
665.30	34424.60
665.44	34611.84
665.59	34164.80
665.73	34150.76
665.87	33755.21
666.01	34043.09
666.15	34181.18
666.29	33914.36
666.44	33958.83
666.58	34225.65
666.72	33844.15
666.86	33933.09
667.00	34078.20
667.14	33961.17
667.28	33855.85
667.43	33338.59
667.57	33820.74
667.71	33507.11
667.85	33722.44
667.99	33497.75
668.13	33764.57
668.27	33085.81
668.41	33902.66
668.56	33429.87
668.70	33448.60
668.84	33305.82
668.98	33046.02
669.12	32797.93
669.26	32849.42
669.40	32865.80
669.54	32624.73
669.68	33067.09
669.82	32945.38
669.96	32748.78
670.10	32617.71
670.25	32884.53
670.39	32645.79
670.53	32601.32
670.67	32229.18
670.81	32573.24
670.95	32446.85
671.09	32545.15
671.23	32641.11
671.37	32266.63
671.51	32339.18
671.65	31648.72
671.79	32336.84
671.93	32121.51
672.07	32280.67
672.21	31784.48
672.35	31667.45
672.49	31817.24
672.63	31838.31
672.77	31730.64
672.91	31316.37
673.05	31615.96
673.19	30958.27
673.33	31206.36
673.47	31264.88
673.61	31000.40
673.75	31215.72
673.89	30827.20
674.03	30937.20
674.17	30998.06
674.31	30808.47
674.45	30462.07
674.59	30646.97
674.73	30911.46
674.87	30621.23
675.01	30661.02
675.15	30588.46
675.29	31012.10
675.43	30389.52
675.56	30864.64
675.70	30665.70
675.84	29682.67
675.98	29149.03
676.12	29916.73
676.26	29832.47
676.40	29652.25
676.54	29839.49
676.68	30008.01
676.82	29195.84
676.96	29205.20
677.10	29357.34
677.23	29717.78
677.37	29783.32
677.51	29467.34
677.65	29067.11
677.79	28847.10
677.93	28875.19
678.07	29069.45
678.21	28704.33
678.34	28151.96
678.48	28542.83
678.62	28364.95
678.76	28425.81
678.90	28343.89
679.04	28170.69
679.18	28589.64
679.31	27796.20
679.45	28070.04
679.59	28158.99
679.73	27623.00
679.87	27442.78
680.00	27599.60
680.14	27733.01
680.28	27552.79
680.42	27449.80
680.56	27351.50
680.70	27192.34
680.83	27311.71
680.97	26951.27
681.11	27159.58
681.25	26813.18
681.39	26338.05
681.52	26712.53
681.66	27063.61
681.80	26780.41
681.94	26333.37
682.07	26600.19
682.21	26293.58
682.35	26118.04
682.49	25958.88
682.62	26171.87
682.76	25823.13
682.90	25872.28
683.04	25879.30
683.17	25909.73
683.31	25656.95
683.45	25659.29
683.59	25745.89
683.72	25172.46
683.86	25252.04
684.00	25022.67
684.13	25268.42
684.27	25357.36
684.41	25235.66
684.55	24877.55
684.68	24545.20
684.82	24826.06
684.96	24814.36
685.09	24460.94
685.23	24608.39
685.37	24161.35
685.50	24383.70
685.64	24304.12
685.78	24168.37
685.91	24013.90
686.05	23868.78
686.19	23557.49
686.32	23934.32
686.46	23580.90
686.60	23569.19
686.73	23459.19
686.87	23304.71
687.01	23339.82
687.14	22932.57
687.28	23147.90
687.42	22897.46
687.55	23061.30
687.69	22988.74
687.82	22735.96
687.96	22562.76
688.10	22405.95
688.23	22534.68
688.37	22394.25
688.50	22221.05
688.64	22368.50
688.78	22277.22
688.91	22258.49
689.05	22136.79
689.18	22258.49
689.32	21654.64
689.46	21638.25
689.59	22129.77
689.73	22441.06
689.86	21507.18
690.00	21425.26
690.13	21853.58
690.27	21362.07
690.41	21743.58
690.54	21020.35
690.68	20903.32
690.81	21156.10
690.95	21015.67
691.08	20762.89
691.22	20676.29
691.35	20765.23
691.49	20980.56
691.62	20676.29
691.76	20556.93
691.89	20545.22
692.03	20215.21
692.16	20329.89
692.30	20044.35
692.43	20002.22
692.57	19913.28
692.70	19948.39
692.84	19786.89
692.97	19517.73
693.11	19433.47
693.24	19711.99
693.38	19564.54
693.51	19445.17
693.65	19346.87
693.78	19363.25
693.92	19623.05
694.05	19412.40
694.19	19173.67
694.32	19105.79
694.45	18977.06
694.59	18696.20
694.72	18523.00
694.86	19002.81
694.99	18728.97
695.13	18576.83
695.26	18565.13
695.39	18052.55
695.53	18403.63
695.66	18087.66
695.80	18181.28
695.93	18129.79
696.07	17825.52
696.20	18059.57
696.33	17975.31
696.47	17741.26
696.60	17834.88
696.73	17385.50
696.87	17507.21
697.00	17759.98
697.14	17275.49
697.27	17523.59
697.40	17582.10
697.54	17341.03
697.67	17359.75
697.80	17106.98
697.94	17081.23
698.07	17060.16
698.21	17057.82
698.34	16875.26
698.47	17095.27
698.61	16842.50
698.74	16578.01
698.87	16521.84
699.01	16175.44
699.14	16439.92
699.27	16140.33
699.40	16201.19
699.54	16133.31
699.67	15744.78
699.80	15981.18
699.94	16056.08
700.07	16072.46
700.20	15653.50
700.34	15777.55
700.47	16065.44
700.60	16023.31
700.73	15791.59
700.87	15391.36
701.00	15583.29
701.13	15419.45
701.26	15307.10
701.40	15501.37
701.53	15295.40
701.66	14937.30
701.79	14932.62
701.93	15183.06
702.06	14881.13
702.19	14644.73
702.32	14911.55
702.46	14707.93
702.59	14401.32
702.72	14796.87
702.85	14553.45
702.99	14583.88
703.12	14452.81
703.25	14796.87
703.38	14499.62
703.51	14094.71
703.65	14225.78
703.78	13905.12
703.91	14061.94
704.04	14087.68
704.17	14265.57
704.31	13734.26
704.44	13764.69
704.57	13673.41
704.70	13284.88
704.83	13516.59
704.96	13666.39
705.10	13525.96
705.23	13561.06
>>>>>End Processed Spectral Data<<<<<
