SpectraSuite Data File
++++++++++++++++++++++++++++++++++++
Date: Fri Oct 25 10:43:25 EDT 2013
User: price-jones
Dark Spectrum Present: No
Reference Spectrum Present: No
Number of Sampled Component Spectra: 1
Spectrometers: USB2+H05261
Integration Time (usec): 100000 (USB2+H05261)
Spectra Averaged: 1 (USB2+H05261)
Boxcar Smoothing: 0 (USB2+H05261)
Correct for Electrical Dark: No (USB2+H05261)
Strobe/Lamp Enabled: No (USB2+H05261)
Correct for Detector Non-linearity: No (USB2+H05261)
Correct for Stray Light: No (USB2+H05261)
Number of Pixels in Processed Spectrum: 2048
>>>>>Begin Processed Spectral Data<<<<<
365.73	184.90
365.92	184.90
366.12	184.90
366.32	72.56
366.52	44.47
366.72	46.81
366.91	14.04
367.11	7.02
367.31	65.54
367.51	0.00
367.70	30.43
367.90	63.19
368.10	9.36
368.30	42.13
368.49	0.00
368.69	70.22
368.89	49.15
369.09	46.81
369.28	70.22
369.48	25.75
369.68	35.11
369.87	42.13
370.07	81.92
370.27	147.45
370.47	259.80
370.66	315.97
370.86	421.30
371.06	428.32
371.25	543.00
371.45	430.66
371.65	465.77
371.84	475.13
372.04	482.15
372.24	505.56
372.44	547.69
372.63	491.51
372.83	491.51
373.03	491.51
373.22	582.79
373.42	507.90
373.62	571.09
373.81	554.71
374.01	575.77
374.21	486.83
374.40	517.26
374.60	610.88
374.79	571.09
374.99	528.96
375.19	610.88
375.38	564.07
375.58	582.79
375.78	571.09
375.97	587.47
376.17	594.50
376.37	636.63
376.56	601.52
376.76	603.86
376.95	533.64
377.15	620.24
377.35	629.60
377.54	613.22
377.74	613.22
377.93	695.14
378.13	636.63
378.33	669.39
378.52	641.31
378.72	741.95
378.91	692.80
379.11	566.41
379.31	535.98
379.50	695.14
379.70	629.60
379.89	664.71
380.09	685.78
380.28	622.58
380.48	746.63
380.68	702.16
380.87	777.06
381.07	695.14
381.26	856.64
381.46	746.63
381.65	720.88
381.85	716.20
382.04	709.18
382.24	606.20
382.43	699.82
382.63	648.33
382.83	704.50
383.02	720.88
383.22	734.93
383.41	702.16
383.61	674.07
383.80	720.88
384.00	758.33
384.19	737.27
384.39	760.67
384.58	826.21
384.78	739.61
384.97	746.63
385.17	755.99
385.36	741.95
385.56	800.46
385.75	711.52
385.95	814.51
386.14	786.42
386.34	840.25
386.53	854.30
386.72	774.72
386.92	779.40
387.11	840.25
387.31	802.80
387.50	884.72
387.70	828.55
387.89	814.51
388.09	901.11
388.28	917.49
388.48	884.72
388.67	945.58
388.86	901.11
389.06	894.08
389.25	896.43
389.45	1011.11
389.64	950.26
389.84	959.62
390.03	959.62
390.22	945.58
390.42	992.39
390.61	990.05
390.81	1020.47
391.00	1043.88
391.19	950.26
391.39	1011.11
391.58	1048.56
391.78	1039.20
391.97	1050.90
392.16	1006.43
392.36	1064.94
392.55	987.71
392.75	968.98
392.94	940.90
393.13	961.96
393.33	978.34
393.52	1025.15
393.71	1086.01
393.91	1107.07
394.10	1135.16
394.29	1177.29
394.49	1090.69
394.68	1158.57
394.88	1224.10
395.07	1217.08
395.26	1205.38
395.46	1104.73
395.65	1273.25
395.84	1233.46
396.04	1240.48
396.23	1207.72
396.42	1102.39
396.62	1184.31
396.81	1170.27
397.00	1205.38
397.19	1303.68
397.39	1334.11
397.58	1376.24
397.77	1359.85
397.97	1380.92
398.16	1401.98
398.35	1394.96
398.55	1383.26
398.74	1420.71
398.93	1409.00
399.12	1467.52
399.32	1420.71
399.51	1409.00
399.70	1556.46
399.90	1495.60
400.09	1584.54
400.28	1528.37
400.47	1565.82
400.67	1633.69
400.86	1638.38
401.05	1575.18
401.24	1624.33
401.44	1696.89
401.63	1600.93
401.82	1673.48
402.01	1694.55
402.21	1685.19
402.40	1689.87
402.59	1708.59
402.78	1706.25
402.97	1687.53
403.17	1795.19
403.36	1734.34
403.55	1804.55
403.74	1851.36
403.93	1820.94
404.13	1895.83
404.32	1732.00
404.51	1806.89
404.70	1872.43
404.89	1865.41
405.09	1865.41
405.28	1846.68
405.47	2017.54
405.66	1968.39
405.85	1907.54
406.05	1952.01
406.24	2019.88
406.43	1907.54
406.62	2012.86
406.81	1982.43
407.00	2031.58
407.20	1928.60
407.39	1898.17
407.58	2122.87
407.77	2069.03
407.96	2150.95
408.15	2228.19
408.34	2284.36
408.54	2258.62
408.73	2160.31
408.92	2223.51
409.11	2338.20
409.30	2181.38
409.49	2303.09
409.68	2342.88
409.87	2218.83
410.07	2326.49
410.26	2352.24
410.45	2300.75
410.64	2363.94
410.83	2504.37
411.02	2415.43
411.21	2434.16
411.40	2502.03
411.59	2562.89
411.78	2490.33
411.98	2539.48
412.17	2558.21
412.36	2520.76
412.55	2555.86
412.74	2553.52
412.93	2708.00
413.12	2593.31
413.31	2960.78
413.50	2700.98
413.69	2853.11
413.88	2808.64
414.07	2920.99
414.26	2794.60
414.45	2869.50
414.64	2888.22
414.83	3033.33
415.02	2916.31
415.22	2988.86
415.41	3176.11
415.60	3059.08
415.79	3157.38
415.98	3227.60
416.17	3258.03
416.36	3190.15
416.55	3084.83
416.74	3194.83
416.93	3129.30
417.12	3183.13
417.31	3267.39
417.50	3215.90
417.69	3391.44
417.88	3485.06
418.07	3386.76
418.26	3295.47
418.45	3311.86
418.64	3452.29
418.83	3375.05
419.02	3475.70
419.21	3590.38
419.39	3382.07
419.58	3513.14
419.77	3442.93
419.96	3456.97
420.15	3648.90
420.34	3639.53
420.53	3681.66
420.72	3665.28
420.91	3751.88
421.10	3768.26
421.29	3770.60
421.48	3749.54
421.67	3782.31
421.86	3655.92
422.05	3665.28
422.24	3641.87
422.43	3705.07
422.61	3768.26
422.80	3878.27
422.99	3974.23
423.18	3812.73
423.37	3824.44
423.56	3822.09
423.75	3772.94
423.94	3712.09
424.13	3555.27
424.32	3550.59
424.50	3775.28
424.69	3878.27
424.88	3964.87
425.07	3744.86
425.26	3754.22
425.45	3836.14
425.64	3782.31
425.83	3740.18
426.01	3983.59
426.20	3948.48
426.39	4011.68
426.58	3882.95
426.77	3843.16
426.96	3831.46
427.15	3911.04
427.33	3974.23
427.52	3981.25
427.71	4023.38
427.90	4086.58
428.09	4126.36
428.28	4196.58
428.46	4250.41
428.65	4124.02
428.84	4243.39
429.03	4227.01
429.22	4126.36
429.40	4016.36
429.59	3906.35
429.78	3803.37
429.97	3819.75
430.16	3974.23
430.34	3939.12
430.53	3913.38
430.72	4168.49
430.91	4126.36
431.10	4306.59
431.28	4390.84
431.47	4550.00
431.66	4650.64
431.85	4379.14
432.03	4524.26
432.22	4505.53
432.41	4716.18
432.60	4622.56
432.79	4624.90
432.97	4657.67
433.16	4578.09
433.35	4545.32
433.54	4360.42
433.72	4454.04
433.91	4444.68
434.10	4648.30
434.28	4550.00
434.47	4601.49
434.66	4830.87
434.85	4858.95
435.03	4936.19
435.22	4861.29
435.41	5069.60
435.59	4938.53
435.78	5046.20
435.97	4994.70
436.16	5015.77
436.34	4973.64
436.53	5050.88
436.72	5163.22
436.90	4980.66
437.09	4975.98
437.28	4915.12
437.46	5181.95
437.65	4966.62
437.84	5008.75
438.02	4936.19
438.21	5029.81
438.40	5207.69
438.58	5186.63
438.77	5338.76
438.96	5210.03
439.14	5385.57
439.33	5343.44
439.52	5537.71
439.70	5483.88
439.89	5643.03
440.08	5469.83
440.26	5514.30
440.45	5582.18
440.63	5774.10
440.82	5940.28
441.01	5626.65
441.19	5746.02
441.38	6005.81
441.57	5851.34
441.75	6052.63
441.94	6050.28
442.12	6061.99
442.31	6349.87
442.50	6356.90
442.68	6132.20
442.87	6169.65
443.05	6167.31
443.24	6314.77
443.43	6249.23
443.61	6389.66
443.80	6399.02
443.98	6452.86
444.17	6169.65
444.35	6335.83
444.54	6551.16
444.73	6483.28
444.91	6291.36
445.10	6471.58
445.28	6300.72
445.47	6136.88
445.65	6265.61
445.84	6307.74
446.02	6464.56
446.21	6427.11
446.39	6595.63
446.58	6546.48
446.77	6359.24
446.95	6445.84
447.14	6607.33
447.32	6581.59
447.51	6452.86
447.69	6546.48
447.88	6424.77
448.06	6668.19
448.25	6602.65
448.43	6609.67
448.62	6602.65
448.80	6621.38
448.99	6801.60
449.17	6476.26
449.36	6705.63
449.54	6782.87
449.73	6759.47
449.91	6920.96
450.10	6813.30
450.28	7037.99
450.46	7035.65
450.65	7040.33
450.83	7023.95
451.02	6909.26
451.20	7255.66
451.39	7148.00
451.57	7047.35
451.76	7037.99
451.94	6986.50
452.13	7229.91
452.31	7187.79
452.49	7007.56
452.68	7117.57
452.86	6956.07
453.05	7007.56
453.23	7250.98
453.42	7012.24
453.60	7239.28
453.78	7353.96
453.97	7239.28
454.15	7265.02
454.34	7042.67
454.52	7461.63
454.70	7323.54
454.89	7389.07
455.07	7424.18
455.26	7520.14
455.44	7604.40
455.62	7588.02
455.81	7662.91
455.99	7590.36
456.17	7660.57
456.36	7765.90
456.54	7878.24
456.73	7815.05
456.91	8035.06
457.09	7875.90
457.28	7992.93
457.46	7939.10
457.64	8063.15
457.83	7829.09
458.01	7698.02
458.19	8067.83
458.38	7906.33
458.56	8032.72
458.74	7929.74
458.93	7903.99
459.11	7948.46
459.29	8112.30
459.48	8063.15
459.66	8102.93
459.84	8196.56
460.03	8294.86
460.21	8224.64
460.39	8416.57
460.57	8290.18
460.76	8217.62
460.94	8535.93
461.12	8510.19
461.31	8442.31
461.49	8498.49
461.67	8489.12
461.85	8610.83
462.04	8545.30
462.22	9233.41
462.40	8767.65
462.59	8580.40
462.77	8617.85
462.95	8610.83
463.13	8720.84
463.32	8723.18
463.50	8751.26
463.68	8781.69
463.86	8762.97
464.05	8730.20
464.23	8713.81
464.41	8861.27
464.59	8664.66
464.78	8952.55
464.96	8926.80
465.14	8919.78
465.32	8924.46
465.50	9163.20
465.69	9022.77
465.87	8926.80
466.05	9067.24
466.23	8959.57
466.41	8882.33
466.60	9092.98
466.78	8884.67
466.96	8943.19
467.14	9167.88
467.32	9207.67
467.51	9411.29
467.69	9284.91
467.87	9200.65
468.05	9261.50
468.23	9235.75
468.41	9235.75
468.60	9308.31
468.78	9406.61
468.96	9369.16
469.14	9345.76
469.32	9509.60
469.50	9198.31
469.69	9486.19
469.87	9703.86
470.05	9401.93
470.23	9708.54
470.41	9586.83
470.59	9624.28
470.77	9551.73
470.95	9673.43
471.14	10066.64
471.32	9956.64
471.50	9928.55
471.68	10080.69
471.86	10001.11
472.04	10162.61
472.22	10429.43
472.40	9856.00
472.58	10207.08
472.77	10052.60
472.95	10354.53
473.13	10366.23
473.31	10352.19
473.49	10436.45
473.67	10354.53
473.85	10415.38
474.03	10754.76
474.21	10600.29
474.39	10843.70
474.57	10916.26
474.75	10899.87
474.93	10892.85
475.12	10869.45
475.30	10998.18
475.48	11028.60
475.66	10949.03
475.84	11157.33
476.02	11150.31
476.20	11281.38
476.38	11466.28
476.56	11602.04
476.74	11552.88
476.92	11346.92
477.10	11562.25
477.28	11845.45
477.46	11936.73
477.64	12233.98
477.82	12088.87
478.00	12217.60
478.18	12079.50
478.36	12259.73
478.54	12634.21
478.72	12489.10
478.90	12599.10
479.08	12765.28
479.26	12769.96
479.44	12828.48
479.62	13209.98
479.80	12896.35
479.98	13153.81
480.16	13275.52
480.34	13493.19
480.52	13446.38
480.70	13324.67
480.88	13315.31
481.06	13563.40
481.24	13642.98
481.41	13982.36
481.59	13884.06
481.77	14242.16
481.95	14246.84
482.13	14209.39
482.31	14506.64
482.49	14469.19
482.67	14546.43
482.85	14869.42
483.03	14586.22
483.21	14656.43
483.39	15133.90
483.57	14913.89
483.74	15279.02
483.92	15119.86
484.10	15056.67
484.28	15765.85
484.46	15798.62
484.64	15990.54
484.82	15927.35
485.00	15843.09
485.18	15770.53
485.35	16163.74
485.53	16009.26
485.71	15840.75
485.89	16444.60
486.07	16257.36
486.25	16444.60
486.43	16535.88
486.61	16500.78
486.78	17121.02
486.96	16856.54
487.14	17406.56
487.32	17439.33
487.50	17720.20
487.68	17703.81
487.85	17940.21
488.03	18111.07
488.21	18218.73
488.39	18050.21
488.57	18270.22
488.75	18630.66
488.92	18707.90
489.10	18831.95
489.28	18967.70
489.46	19133.88
489.64	18972.38
489.81	19702.63
489.99	19707.31
490.17	19814.98
490.35	19693.27
490.53	19962.43
490.70	20173.08
490.88	20121.59
491.06	20226.91
491.24	20283.08
491.41	20184.78
491.59	20673.95
491.77	20336.91
491.95	20966.52
492.13	20666.93
492.30	21156.10
492.48	21338.66
492.66	21439.31
492.84	21516.54
493.01	21652.30
493.19	21551.65
493.37	21713.15
493.54	22033.80
493.72	21675.70
493.90	22202.32
494.08	22324.03
494.25	22511.27
494.43	22567.45
494.61	22897.46
494.79	22714.90
494.96	22902.14
495.14	22902.14
495.32	23152.58
495.49	22974.70
495.67	23403.02
495.85	23618.35
496.02	23793.89
496.20	23917.93
496.38	23534.09
496.55	24198.80
496.73	24084.11
496.91	24332.21
497.09	24463.28
497.26	24809.68
497.44	24170.71
497.62	24577.97
497.79	24968.84
497.97	24439.87
498.14	25111.61
498.32	25050.75
498.50	25340.98
498.67	25476.73
498.85	25340.98
499.03	25481.41
499.20	25729.51
499.38	25872.28
499.56	25855.90
499.73	25902.71
499.91	26169.53
500.08	25972.92
500.26	25759.94
500.44	26324.01
500.61	26160.17
500.79	25785.68
500.97	26326.35
501.14	26572.10
501.32	26888.07
501.49	26583.80
501.67	26237.41
501.84	27143.19
502.02	27007.44
502.20	27414.69
502.37	27440.44
502.55	27339.80
502.72	27417.04
502.90	27431.08
503.07	27360.86
503.25	27580.87
503.43	27803.22
503.60	27580.87
503.78	27496.61
503.95	27559.81
504.13	28268.99
504.30	27950.68
504.48	28292.40
504.65	28252.61
504.83	28290.06
505.01	28533.47
505.18	28500.70
505.36	29301.17
505.53	28828.38
505.71	28943.06
505.88	28943.06
506.06	28744.12
506.23	28851.78
506.41	29205.20
506.58	29362.02
506.76	29352.66
506.93	29488.41
507.11	29298.83
507.28	29551.60
507.46	29565.65
507.63	29567.99
507.81	29668.63
507.98	29661.61
508.16	29956.52
508.33	30160.14
508.50	29773.95
508.68	30375.47
508.85	30778.04
509.03	30232.70
509.20	30480.80
509.38	30848.26
509.55	30487.82
509.73	30939.54
509.90	31021.46
510.08	30998.06
510.25	30913.80
510.42	31168.91
510.60	31028.48
510.77	31433.39
510.95	31644.04
511.12	31391.26
511.30	31323.39
511.47	31922.57
511.64	31503.61
511.82	31716.60
511.99	31625.32
512.17	31545.74
512.34	31793.84
512.51	31791.50
512.69	32011.51
512.86	32044.27
513.04	32488.98
513.21	32648.13
513.38	32325.14
513.56	32606.00
513.73	32411.74
513.90	32416.42
514.08	32631.75
514.25	32762.82
514.43	32355.57
514.60	33048.36
514.77	32657.49
514.95	33411.15
515.12	33116.24
515.29	33221.56
515.47	33195.82
515.64	33376.04
515.81	33001.55
515.99	33326.89
516.16	33141.99
516.33	33057.73
516.51	33556.26
516.68	33134.96
516.85	33214.54
517.03	33406.47
517.20	33624.14
517.37	34031.39
517.54	33897.98
517.72	33722.44
517.89	33352.63
518.06	33359.66
518.24	33600.73
518.41	33914.36
518.58	33993.94
518.75	34012.66
518.93	34115.65
519.10	33968.19
519.27	34455.03
519.45	34227.99
519.62	35009.73
519.79	35014.41
519.96	35098.67
520.14	34761.64
520.31	34576.73
520.48	35051.86
520.65	34878.66
520.83	35152.51
521.00	35473.16
521.17	35267.19
521.34	35466.14
521.52	35625.29
521.69	35386.56
521.86	35655.72
522.03	35683.81
522.20	35798.49
522.38	35882.75
522.55	35887.43
522.72	35952.97
522.89	35756.36
523.07	36271.28
523.24	35974.03
523.41	36505.34
523.58	36287.67
523.75	36758.11
523.92	36411.71
524.10	36493.63
524.27	36706.62
524.44	36453.84
524.61	36624.70
524.78	36811.95
524.96	37046.00
525.13	37392.40
525.30	36940.68
525.47	37399.42
525.64	37153.66
525.81	36493.63
525.98	37109.19
526.16	36549.81
526.33	37280.05
526.50	36446.82
526.67	36498.31
526.84	36659.81
527.01	36561.51
527.18	37106.85
527.36	36987.49
527.53	37844.12
527.70	37787.95
527.87	37799.65
528.04	37710.71
528.21	37996.26
528.38	38026.68
528.55	38239.67
528.72	38141.37
528.89	38848.21
529.07	38113.28
529.24	38309.89
529.41	37937.74
529.58	38349.68
529.75	38473.73
529.92	38649.27
530.09	38735.87
530.26	38225.63
530.43	38810.76
530.60	38234.99
530.77	38656.29
530.94	38890.34
531.11	38588.41
531.28	38841.19
531.46	38883.32
531.63	38930.13
531.80	38932.47
531.97	38845.87
532.14	39117.37
532.31	38337.98
532.48	38958.22
532.65	39229.72
532.82	38913.75
532.99	39210.99
533.16	38976.94
533.33	39180.57
533.50	39281.21
533.67	39072.90
533.84	39473.13
534.01	39147.80
534.18	39405.26
534.35	39871.03
534.52	39175.89
534.69	39665.06
534.86	39866.34
535.03	39887.41
535.20	40318.07
535.37	40662.13
535.54	40832.99
535.71	40027.84
535.88	39971.67
536.05	39917.84
536.22	40016.14
536.38	40137.85
536.55	40098.06
536.72	39641.65
536.89	40039.54
537.06	40119.12
537.23	40191.68
537.40	40676.17
537.57	40474.88
537.74	40769.79
537.91	40793.20
538.08	40676.17
538.25	40669.15
538.42	40409.35
538.59	41071.72
538.75	40210.40
538.92	40521.69
539.09	40528.72
539.26	40940.65
539.43	41146.62
539.60	41006.19
539.77	40491.27
539.94	41020.23
540.11	40996.82
540.28	41209.81
540.44	41240.24
540.61	41326.84
540.78	40683.19
540.95	41261.30
541.12	40629.36
541.29	40669.15
541.46	41270.67
541.62	41380.67
541.79	41539.83
541.96	41455.57
542.13	40903.20
542.30	41481.31
542.47	41551.53
542.63	41364.29
542.80	41294.07
542.97	42003.25
543.14	41900.27
543.31	41680.26
543.48	42014.96
543.64	42183.48
543.81	42160.07
543.98	42223.26
544.15	41670.90
544.32	42403.49
544.48	42841.17
544.65	42349.65
544.82	42361.36
544.99	41893.25
545.16	42239.65
545.32	42052.41
545.49	42871.59
545.66	43227.35
545.83	42953.51
546.00	42939.47
546.16	42513.49
546.33	42518.17
546.50	42375.40
546.67	42557.96
546.83	42447.96
547.00	42471.36
547.17	42557.96
547.34	42600.09
547.50	42515.83
547.67	42855.21
547.84	42550.94
548.00	42777.97
548.17	43388.85
548.34	42852.87
548.51	43452.05
548.67	43173.52
548.84	42892.66
549.01	42902.02
549.18	43192.25
549.34	43459.07
549.51	43110.33
549.68	43597.16
549.84	43470.77
550.01	43601.84
550.18	43292.89
550.34	43636.95
550.51	42946.49
550.68	43086.92
550.84	42768.61
551.01	43789.08
551.18	43248.42
551.34	43318.64
551.51	43484.81
551.68	43445.02
551.84	44062.93
552.01	43302.25
552.18	43658.01
552.34	43281.19
552.51	43824.19
552.68	43833.55
552.84	43723.55
553.01	44048.88
553.18	43840.57
553.34	43852.28
553.51	43054.15
553.67	44011.43
553.84	44240.81
554.01	44161.23
554.17	44236.12
554.34	43971.64
554.51	44428.05
554.67	44163.57
554.84	44201.02
555.00	44086.33
555.17	43952.92
555.33	44250.17
555.50	44102.71
555.67	44292.30
555.83	44224.42
556.00	44325.07
556.16	44666.78
556.33	44526.35
556.50	44470.18
556.66	44339.11
556.83	44233.78
556.99	43842.92
557.16	44254.85
557.32	44472.52
557.49	44591.89
557.65	44563.80
557.82	44292.30
557.98	44760.40
558.15	44545.08
558.32	44903.18
558.48	44301.66
558.65	44259.53
558.81	44406.98
558.98	44212.72
559.14	44865.73
559.31	44692.53
559.47	44722.96
559.64	44528.69
559.80	44568.48
559.97	44624.65
560.13	44392.94
560.30	44905.52
560.46	45034.25
560.63	44612.95
560.79	45118.51
560.96	45195.74
561.12	44832.96
561.29	45092.76
561.45	44446.77
561.61	44498.26
561.78	45113.83
561.94	44542.74
562.11	44657.42
562.27	44849.35
562.44	44999.14
562.60	45043.61
562.77	45085.74
562.93	44851.69
563.10	44479.54
563.26	44821.26
563.42	45177.02
563.59	45031.91
563.75	44697.21
563.92	45612.36
564.08	45350.22
564.24	45139.57
564.41	45069.36
564.57	45198.09
564.74	45069.36
564.90	45130.21
565.07	45270.64
565.23	45167.66
565.39	44957.01
565.56	44985.10
565.72	44554.44
565.88	45013.18
566.05	44776.79
566.21	44945.31
566.38	45045.95
566.54	45090.42
566.70	45308.09
566.87	45270.64
567.03	45530.44
567.19	45682.58
567.36	45546.82
567.52	45441.50
567.68	45464.91
567.85	45338.52
568.01	45380.65
568.17	45284.68
568.34	45027.23
568.50	45317.45
568.66	44985.10
568.83	45420.44
568.99	44966.37
569.15	45003.82
569.32	45006.16
569.48	45471.93
569.64	45317.45
569.81	45509.38
569.97	45415.76
570.13	45492.99
570.30	44973.39
570.46	44912.54
570.62	44924.24
570.78	45322.13
570.95	44910.20
571.11	45263.62
571.27	44933.60
571.43	45013.18
571.60	45558.53
571.76	45216.81
571.92	45677.90
572.09	45254.26
572.25	45387.67
572.41	45422.78
572.57	45872.16
572.74	46092.17
572.90	45371.28
573.06	45492.99
573.22	45418.10
573.38	45654.49
573.55	45483.63
573.71	45626.40
573.87	45455.54
574.03	44971.05
574.20	45507.04
574.36	45308.09
574.52	45539.80
574.68	44926.58
574.84	45481.29
575.01	45221.49
575.17	45483.63
575.33	45485.97
575.49	45242.56
575.65	45872.16
575.82	45745.77
575.98	45497.67
576.14	45563.21
576.30	45507.04
576.46	45368.94
576.62	45219.15
576.79	45490.65
576.95	44954.67
577.11	45607.68
577.27	45528.10
577.43	45504.70
577.59	45265.96
577.75	45593.64
577.92	45052.97
578.08	45034.25
578.24	45469.59
578.40	45193.40
578.56	45593.64
578.72	45315.11
578.88	45443.84
579.04	45572.57
579.21	45600.66
579.37	45460.23
579.53	45635.77
579.69	45223.83
579.85	45497.67
580.01	45724.71
580.17	45134.89
580.33	45603.00
580.49	45893.22
580.65	45392.35
580.82	45322.13
580.98	45347.88
581.14	45315.11
581.30	45897.91
581.46	45649.81
581.62	45626.40
581.78	45284.68
581.94	46253.67
582.10	45928.33
582.26	45514.06
582.42	45485.97
582.58	45818.33
582.74	45741.09
582.90	45682.58
583.06	45965.78
583.22	45736.41
583.38	45619.38
583.54	46064.08
583.70	45467.25
583.86	45507.04
584.02	45659.17
584.18	45998.55
584.34	45586.61
584.50	45471.93
584.66	45687.26
584.82	45130.21
584.98	45895.56
585.14	45633.42
585.30	45560.87
585.46	45436.82
585.62	45111.49
585.78	45560.87
585.94	45478.95
586.10	45427.46
586.26	44980.42
586.42	45595.98
586.58	45947.06
586.74	45752.79
586.90	45298.73
587.06	45336.18
587.22	45350.22
587.38	45579.59
587.54	45738.75
587.70	45965.78
587.86	45729.39
588.02	45741.09
588.18	45642.79
588.34	45336.18
588.49	45359.58
588.65	45333.84
588.81	45397.03
588.97	45511.72
589.13	45478.95
589.29	45436.82
589.45	45441.50
589.61	45399.37
589.77	46054.72
589.93	45677.90
590.08	45762.15
590.24	45579.59
590.40	45827.69
590.56	46354.31
590.72	45844.07
590.88	45656.83
591.04	45680.24
591.20	45961.10
591.35	46363.67
591.51	46288.77
591.67	45453.20
591.83	45759.81
591.99	45656.83
592.15	45516.40
592.31	45907.27
592.46	45588.95
592.62	46202.18
592.78	46174.09
592.94	46106.21
593.10	45720.02
593.26	45940.04
593.41	46000.89
593.57	45635.77
593.73	45759.81
593.89	45516.40
594.05	45855.78
594.20	45853.44
594.36	45518.74
594.52	45830.03
594.68	45914.29
594.84	45673.21
594.99	46028.98
595.15	45485.97
595.31	46220.90
595.47	45900.25
595.62	45516.40
595.78	45654.49
595.94	45703.64
596.10	45968.12
596.25	45715.34
596.41	45844.07
596.57	45560.87
596.73	46031.32
596.88	45567.89
597.04	45649.81
597.20	46007.91
597.36	45532.78
597.51	45954.08
597.67	45748.11
597.83	45628.74
597.99	45757.47
598.14	45855.78
598.30	45928.33
598.46	45574.91
598.61	46251.33
598.77	45799.60
598.93	45827.69
599.09	46050.04
599.24	46597.73
599.40	46183.45
599.56	45773.86
599.71	45773.86
599.87	46047.70
600.03	46232.60
600.18	46323.88
600.34	45916.63
600.50	45399.37
600.65	45724.71
600.81	45745.77
600.97	45970.46
601.12	46071.10
601.28	45977.48
601.44	45565.55
601.59	45673.21
601.75	45492.99
601.91	45612.36
602.06	45478.95
602.22	46274.73
602.37	46033.66
602.53	45647.47
602.69	46440.91
602.84	45474.27
603.00	45748.11
603.16	45736.41
603.31	46153.02
603.47	45841.73
603.62	45560.87
603.78	45572.57
603.94	45598.32
604.09	46096.85
604.25	45865.14
604.40	45724.71
604.56	45532.78
604.71	45780.88
604.87	45701.30
605.03	45598.32
605.18	45633.42
605.34	45619.38
605.49	45481.29
605.65	45516.40
605.80	45748.11
605.96	45790.24
606.12	45441.50
606.27	45734.07
606.43	45282.34
606.58	46033.66
606.74	45448.52
606.89	45535.12
607.05	45420.44
607.20	45588.95
607.36	45818.33
607.51	45705.98
607.67	45366.60
607.82	45432.14
607.98	45677.90
608.13	45549.17
608.29	45984.51
608.44	45078.72
608.60	45378.31
608.75	45425.12
608.91	45521.08
609.06	45212.13
609.22	45661.51
609.37	45301.07
609.53	45497.67
609.68	45652.15
609.84	45394.69
609.99	45605.34
610.15	44889.13
610.30	45132.55
610.46	45291.71
610.61	45181.70
610.76	45680.24
610.92	45167.66
611.07	45085.74
611.23	45373.63
611.38	45319.79
611.54	44737.00
611.69	44828.28
611.84	44666.78
612.00	44648.06
612.15	45027.23
612.31	45170.00
612.46	45076.38
612.62	45219.15
612.77	45205.11
612.92	45420.44
613.08	45088.08
613.23	44924.24
613.39	44690.19
613.54	44406.98
613.69	44762.75
613.85	44746.36
614.00	44615.29
614.15	44690.19
614.31	45104.46
614.46	44945.31
614.62	44889.13
614.77	44486.56
614.92	44737.00
615.08	44404.64
615.23	44320.38
615.38	44912.54
615.54	44376.56
615.69	44619.97
615.84	44491.24
616.00	44371.88
616.15	44467.84
616.30	44645.72
616.46	43992.71
616.61	44095.69
616.76	44144.84
616.92	44294.64
617.07	44465.50
617.22	44023.14
617.37	44519.33
617.53	44598.91
617.68	44409.32
617.83	44388.26
617.99	44149.53
618.14	43964.62
618.29	44025.48
618.45	43948.24
618.60	43938.88
618.75	43854.62
618.90	43580.78
619.06	44151.87
619.21	43772.70
619.36	44268.89
619.51	43981.01
619.67	43873.34
619.82	43892.07
619.97	44034.84
620.12	43299.91
620.28	43566.73
620.43	43484.81
620.58	43583.12
620.73	44236.12
620.89	43662.69
621.04	43866.32
621.19	44004.41
621.34	43716.53
621.49	43473.11
621.65	43281.19
621.80	43758.66
621.95	43529.28
622.10	44046.54
622.25	43522.26
622.41	43133.73
622.56	43281.19
622.71	43208.63
622.86	43578.43
623.01	43580.78
623.16	43402.89
623.32	43342.04
623.47	43274.16
623.62	43005.00
623.77	42969.90
623.92	43143.09
624.07	42696.05
624.23	42843.51
624.38	43082.24
624.53	43182.88
624.68	43138.41
624.83	43065.86
624.98	43306.93
625.13	42808.40
625.29	42672.65
625.44	42852.87
625.59	42803.72
625.74	43077.56
625.89	42422.21
626.04	42417.53
626.19	42199.86
626.34	42920.74
626.49	42742.86
626.65	42759.25
626.80	42962.87
626.95	42366.04
627.10	42660.94
627.25	42799.04
627.40	42265.39
627.55	42078.15
627.70	42244.33
627.85	42497.11
628.00	42630.52
628.15	42429.23
628.30	42082.83
628.45	42281.78
628.60	42529.87
628.76	42469.02
628.91	42508.81
629.06	42066.45
629.21	42738.18
629.36	42202.20
629.51	41991.55
629.66	41628.77
629.81	41928.36
629.96	41956.44
630.11	41666.22
630.26	42539.24
630.41	41860.48
630.56	41935.38
630.71	42050.06
630.86	41486.00
631.01	41773.88
631.16	41764.52
631.31	41354.93
631.46	41593.66
631.61	41846.44
631.76	41251.94
631.91	41886.23
632.06	42190.50
632.21	41834.74
632.36	41911.97
632.51	41235.56
632.66	41394.71
632.81	41228.54
632.96	41703.67
633.10	41738.77
633.25	41600.68
633.40	41486.00
633.55	41493.02
633.70	41502.38
633.85	41521.10
634.00	41691.96
634.15	41778.56
634.30	41158.32
634.45	41067.04
634.60	40762.77
634.75	41315.14
634.90	41017.89
635.05	41280.03
635.19	41118.53
635.34	41050.66
635.49	41144.28
635.64	40870.43
635.79	40608.29
635.94	40891.50
636.09	40849.37
636.24	40299.34
636.39	40018.48
636.53	40893.84
636.68	40250.19
636.83	40311.05
636.98	40622.34
637.13	40280.62
637.28	40964.06
637.43	41045.97
637.57	41223.86
637.72	40189.34
637.87	40800.22
638.02	40844.69
638.17	40966.40
638.32	40360.20
638.46	40376.58
638.61	39920.18
638.76	40362.54
638.91	40126.14
639.06	40390.62
639.20	40587.23
639.35	40711.28
639.50	40076.99
639.65	40491.27
639.80	40362.54
639.94	40275.94
640.09	40411.69
640.24	40039.54
640.39	40039.54
640.54	40470.20
640.68	40133.17
640.83	40327.43
640.98	40058.27
641.13	39957.63
641.27	39746.98
641.42	39573.78
641.57	40025.50
641.72	39428.66
641.86	39700.17
642.01	39426.32
642.16	39793.79
642.31	39777.40
642.45	39838.26
642.60	39498.88
642.75	40079.33
642.90	39997.41
643.04	39718.89
643.19	39421.64
643.34	39716.55
643.48	39262.49
643.63	39646.33
643.78	39377.17
643.93	39761.02
644.07	39159.50
644.22	39374.83
644.37	39007.37
644.51	39178.23
644.66	39686.12
644.81	39477.82
644.95	39379.51
645.10	39311.64
645.25	39246.10
645.39	39243.76
645.54	39435.69
645.69	39372.49
645.83	38995.67
645.98	39147.80
646.13	39091.63
646.27	39096.31
646.42	39070.56
646.57	39150.14
646.71	39037.80
646.86	39077.58
647.00	39000.35
647.15	38932.47
647.30	39063.54
647.44	38827.15
647.59	38714.80
647.74	38417.55
647.88	38377.76
648.03	38962.90
648.17	38803.74
648.32	38190.52
648.47	38892.68
648.61	38452.66
648.76	38663.31
648.90	38382.45
649.05	38483.09
649.20	38644.59
649.34	38946.51
649.49	38370.74
649.63	38824.81
649.78	38693.74
649.92	38148.39
650.07	38555.64
650.21	38361.38
650.36	38309.89
650.51	38178.82
650.65	38829.49
650.80	38712.46
650.94	38850.55
651.09	38366.06
651.23	38368.40
651.38	38387.13
651.52	38134.35
651.67	37867.53
651.81	38246.69
651.96	37926.04
652.10	37996.26
652.25	37909.66
652.39	38092.22
652.54	38068.81
652.68	37741.14
652.83	38136.69
652.97	38478.41
653.12	38216.27
653.26	37745.82
653.41	37703.69
653.55	37687.31
653.70	38003.28
653.84	37937.74
653.99	37689.65
654.13	37596.03
654.27	37745.82
654.42	37944.76
654.56	37631.13
654.71	37841.78
654.85	37095.15
655.00	38000.94
655.14	37345.59
655.29	36685.56
655.43	37324.52
655.57	37347.93
655.72	36769.82
655.86	37141.96
656.01	36748.75
656.15	36725.35
656.30	36924.29
656.44	36926.63
656.58	37310.48
656.73	36844.71
656.87	36966.42
657.01	36467.89
657.16	36973.44
657.30	36797.90
657.45	36643.43
657.59	37067.06
657.73	36945.36
657.88	36886.84
658.02	36989.83
658.16	36954.72
658.31	36992.17
658.45	37120.90
658.60	36662.15
658.74	36840.03
658.88	36790.88
659.03	36634.06
659.17	36346.18
659.31	36570.87
659.46	36392.99
659.60	36353.20
659.74	36332.14
659.89	36191.70
660.03	36411.71
660.17	36385.97
660.32	36425.76
660.46	36488.95
660.60	36025.53
660.74	35857.01
660.89	36231.49
661.03	35880.41
661.17	35878.07
661.32	36027.87
661.46	35655.72
661.60	35578.48
661.74	35737.64
661.89	36121.49
662.03	35629.98
662.17	35681.47
662.31	35814.88
662.46	36107.44
662.60	35805.52
662.74	35435.71
662.88	35655.72
663.03	35173.57
663.17	35215.70
663.31	34934.84
663.45	35215.70
663.60	35241.45
663.74	34890.37
663.88	35559.76
664.02	35000.37
664.17	35180.59
664.31	34991.01
664.45	34787.38
664.59	35243.79
664.73	35187.61
664.88	35033.14
665.02	34506.52
665.16	34506.52
665.30	34134.37
665.44	34506.52
665.59	34410.56
665.73	34543.97
665.87	34052.45
666.01	34092.24
666.15	34157.78
666.29	33867.55
666.44	34045.43
666.58	34394.17
666.72	34052.45
666.86	34295.87
667.00	33832.44
667.14	33928.41
667.28	33986.92
667.43	33979.90
667.57	33818.40
667.71	33825.42
667.85	33649.88
667.99	33865.21
668.13	33890.96
668.27	33249.65
668.41	33888.62
668.56	33626.48
668.70	33362.00
668.84	32818.99
668.98	33441.57
669.12	33139.65
669.26	33071.77
669.40	32982.83
669.54	33015.60
669.68	33092.83
669.82	32648.13
669.96	32952.40
670.10	32971.13
670.25	32788.56
670.39	32395.35
670.53	32673.88
670.67	32563.87
670.81	32793.25
670.95	32393.01
671.09	32568.55
671.23	32055.98
671.37	32151.94
671.51	32507.70
671.65	32140.24
671.79	31644.04
671.93	31922.57
672.07	32329.82
672.21	31749.37
672.35	31967.04
672.49	31845.33
672.63	31896.82
672.77	31491.91
672.91	31707.24
673.05	31620.64
673.19	31440.42
673.33	31330.41
673.47	31569.15
673.61	31512.97
673.75	30920.82
673.89	31133.81
674.03	31152.53
674.17	31318.71
674.31	30862.30
674.45	31309.35
674.59	31019.12
674.73	31218.07
674.87	31096.36
675.01	30534.63
675.15	30658.68
675.29	30429.30
675.43	30230.36
675.56	30532.29
675.70	30211.64
675.84	30258.45
675.98	29111.58
676.12	30202.27
676.26	30068.86
676.40	30167.16
676.54	30218.66
676.68	29881.62
676.82	29460.32
676.96	29392.45
677.10	29923.75
677.23	29399.47
677.37	29385.43
677.51	28992.22
677.65	28978.17
677.79	28755.82
677.93	28957.11
678.07	28657.52
678.21	28425.81
678.34	28538.15
678.48	28229.20
678.62	28386.02
678.76	28292.40
678.90	28030.26
679.04	27913.23
679.18	28278.35
679.31	27611.30
679.45	27562.15
679.59	27875.78
679.73	27803.22
679.87	27608.96
680.00	27557.47
680.14	27489.59
680.28	27592.58
680.42	27463.85
680.56	27157.24
680.70	27187.66
680.83	27246.18
680.97	26892.76
681.11	27124.47
681.25	26977.01
681.39	26998.08
681.52	26604.87
681.66	26822.54
681.80	26913.82
681.94	26293.58
682.07	26349.75
682.21	26216.34
682.35	26263.15
682.49	25965.90
682.62	26001.01
682.76	25834.83
682.90	25743.55
683.04	25820.79
683.17	25553.97
683.31	25614.82
683.45	25600.78
683.59	25542.27
683.72	25462.69
683.86	25097.56
684.00	24898.62
684.13	24933.73
684.27	24589.67
684.41	24723.08
684.55	24912.66
684.68	24685.63
684.82	24889.26
684.96	24400.08
685.09	24706.70
685.23	24386.04
685.37	24311.14
685.50	24517.11
685.64	24467.96
685.78	24533.50
685.91	24002.19
686.05	23726.01
686.19	23672.18
686.32	23449.83
686.46	23211.09
686.60	23150.24
686.73	22876.40
686.87	23421.74
687.01	23285.99
687.14	22712.56
687.28	22817.88
687.42	22885.76
687.55	22485.53
687.69	22794.48
687.82	22686.81
687.96	22775.75
688.10	22640.00
688.23	22356.80
688.37	22366.16
688.50	21989.33
688.64	22366.16
688.78	22480.85
688.91	21858.26
689.05	21759.96
689.18	21759.96
689.32	21378.45
689.46	21895.71
689.59	22113.38
689.73	21881.67
689.86	21551.65
690.00	21579.74
690.13	21631.23
690.27	21249.72
690.41	21223.98
690.54	21083.55
690.68	21249.72
690.81	21188.87
690.95	21003.97
691.08	20835.45
691.22	21151.42
691.35	20954.82
691.49	20589.69
691.62	20737.15
691.76	20809.70
691.89	20592.03
692.03	20294.79
692.16	20449.26
692.30	19976.47
692.43	20325.21
692.57	20240.95
692.70	19754.12
692.84	19711.99
692.97	20018.60
693.11	19508.37
693.24	19562.20
693.38	19611.35
693.51	19716.67
693.65	19213.46
693.78	19300.06
693.92	19487.30
694.05	19253.25
694.19	19297.72
694.32	19206.44
694.45	18972.38
694.59	19150.26
694.72	18534.70
694.86	18822.59
694.99	18450.44
695.13	18803.86
695.26	18551.09
695.39	18326.39
695.53	18370.86
695.66	18525.34
695.80	18209.37
695.93	18438.74
696.07	18155.54
696.20	18361.50
696.33	17975.31
696.47	17837.22
696.60	17823.18
696.73	17582.10
696.87	17598.49
697.00	17509.55
697.14	17315.28
697.27	17179.53
697.40	17317.62
697.54	17434.65
697.67	17076.55
697.80	17315.28
697.94	16666.95
698.07	17158.47
698.21	16952.50
698.34	16933.78
698.47	16978.25
698.61	16601.42
698.74	16943.14
698.87	16592.06
699.01	16379.07
699.14	16414.18
699.27	16362.69
699.40	16339.28
699.54	16191.83
699.67	15927.35
699.80	15906.28
699.94	15969.48
700.07	15779.89
700.20	16016.29
700.34	15845.43
700.47	15901.60
700.60	15896.92
700.73	15676.91
700.87	15363.28
701.00	15559.88
701.13	15454.56
701.26	15108.16
701.40	15283.70
701.53	15161.99
701.66	15140.93
701.79	15154.97
701.93	15033.26
702.06	14970.07
702.19	14590.90
702.32	14792.19
702.46	14745.38
702.59	14698.56
702.72	14471.53
702.85	14895.17
702.99	14637.71
703.12	14150.88
703.25	14382.59
703.38	14499.62
703.51	14312.38
703.65	14080.66
703.78	13898.10
703.91	13879.38
704.04	13877.04
704.17	14066.62
704.31	13603.19
704.44	13797.46
704.57	13645.32
704.70	13507.23
704.83	13472.12
704.96	13469.78
705.10	13324.67
705.23	13579.79
>>>>>End Processed Spectral Data<<<<<
