SpectraSuite Data File
++++++++++++++++++++++++++++++++++++
Date: Fri Oct 25 11:34:39 EDT 2013
User: price-jones
Dark Spectrum Present: No
Reference Spectrum Present: No
Number of Sampled Component Spectra: 1
Spectrometers: USB2+H05261
Integration Time (usec): 100000 (USB2+H05261)
Spectra Averaged: 1 (USB2+H05261)
Boxcar Smoothing: 0 (USB2+H05261)
Correct for Electrical Dark: No (USB2+H05261)
Strobe/Lamp Enabled: No (USB2+H05261)
Correct for Detector Non-linearity: No (USB2+H05261)
Correct for Stray Light: No (USB2+H05261)
Number of Pixels in Processed Spectrum: 2048
>>>>>Begin Processed Spectral Data<<<<<
365.73	301.93
365.92	301.93
366.12	301.93
366.32	196.60
366.52	205.97
366.72	168.52
366.91	198.95
367.11	212.99
367.31	159.16
367.51	84.26
367.70	191.92
367.90	210.65
368.10	187.24
368.30	196.60
368.49	187.24
368.69	287.89
368.89	229.37
369.09	248.10
369.28	227.03
369.48	220.01
369.68	220.01
369.87	220.01
370.07	201.29
370.27	238.73
370.47	327.68
370.66	512.58
370.86	510.24
371.06	528.96
371.25	528.96
371.45	521.94
371.65	566.41
371.84	463.43
372.04	638.97
372.24	575.77
372.44	559.39
372.63	533.64
372.83	615.56
373.03	587.47
373.22	566.41
373.42	571.09
373.62	613.22
373.81	587.47
374.01	657.69
374.21	667.05
374.40	601.52
374.60	643.65
374.79	685.78
374.99	627.26
375.19	643.65
375.38	601.52
375.58	559.39
375.78	720.88
375.97	622.58
376.17	732.59
376.37	683.44
376.56	587.47
376.76	582.79
376.95	653.01
377.15	596.84
377.35	634.29
377.54	697.48
377.74	667.05
377.93	610.88
378.13	734.93
378.33	655.35
378.52	653.01
378.72	676.41
378.91	685.78
379.11	660.03
379.31	645.99
379.50	725.57
379.70	744.29
379.89	664.71
380.09	734.93
380.28	702.16
380.48	770.04
380.68	699.82
380.87	671.73
381.07	744.29
381.26	753.65
381.46	725.57
381.65	734.93
381.85	746.63
382.04	763.01
382.24	791.10
382.43	720.88
382.63	805.14
382.83	774.72
383.02	812.17
383.22	753.65
383.41	734.93
383.61	795.78
383.80	891.74
384.00	781.74
384.19	779.40
384.39	819.19
384.58	856.64
384.78	873.02
384.97	751.31
385.17	767.70
385.36	800.46
385.56	828.55
385.75	805.14
385.95	828.55
386.14	873.02
386.34	741.95
386.53	793.44
386.72	891.74
386.92	891.74
387.11	912.81
387.31	795.78
387.50	833.23
387.70	983.02
387.89	959.62
388.09	898.77
388.28	793.44
388.48	887.06
388.67	915.15
388.86	1013.45
389.06	917.49
389.25	976.00
389.45	915.15
389.64	894.08
389.84	961.96
390.03	1006.43
390.22	1053.24
390.42	1043.88
390.61	866.00
390.81	938.55
391.00	908.13
391.19	985.37
391.39	945.58
391.58	1027.50
391.78	1057.92
391.97	952.60
392.16	957.28
392.36	1062.60
392.55	1015.79
392.75	1015.79
392.94	971.32
393.13	976.00
393.33	938.55
393.52	1048.56
393.71	1088.35
393.91	1036.86
394.10	957.28
394.29	1069.62
394.49	1036.86
394.68	1128.14
394.88	1034.52
395.07	1156.22
395.26	1062.60
395.46	1102.39
395.65	1086.01
395.84	1158.57
396.04	1221.76
396.23	1139.84
396.42	1156.22
396.62	1111.75
396.81	1118.78
397.00	1242.82
397.19	1128.14
397.39	1102.39
397.58	1217.08
397.77	1256.87
397.97	1158.57
398.16	1240.48
398.35	1214.74
398.55	1228.78
398.74	1219.42
398.93	1341.13
399.12	1263.89
399.32	1291.98
399.51	1296.66
399.70	1427.73
399.90	1322.40
400.09	1238.14
400.28	1376.24
400.47	1359.85
400.67	1413.68
400.86	1376.24
401.05	1343.47
401.24	1315.38
401.44	1434.75
401.63	1420.71
401.82	1413.68
402.01	1345.81
402.21	1371.55
402.40	1432.41
402.59	1458.15
402.78	1385.60
402.97	1455.81
403.17	1519.01
403.36	1460.49
403.55	1453.47
403.74	1430.07
403.93	1572.84
404.13	1540.07
404.32	1540.07
404.51	1591.56
404.70	1645.40
404.89	1629.01
405.09	1680.50
405.28	1661.78
405.47	1570.50
405.66	1703.91
405.85	1598.59
406.05	1514.33
406.24	1675.82
406.43	1643.06
406.62	1750.72
406.81	1788.17
407.00	1703.91
407.20	1645.40
407.39	1659.44
407.58	1706.25
407.77	1823.28
407.96	1858.39
408.15	1879.45
408.34	1870.09
408.54	1849.02
408.73	1839.66
408.92	1863.07
409.11	1870.09
409.30	1905.20
409.49	1874.77
409.68	1879.45
409.87	1893.49
410.07	1842.00
410.26	1877.11
410.45	2005.84
410.64	2012.86
410.83	1954.35
411.02	1963.71
411.21	2015.20
411.40	2038.61
411.59	2202.44
411.78	2155.63
411.98	2122.87
412.17	2197.76
412.36	2073.71
412.55	2120.53
412.74	2260.96
412.93	2228.19
413.12	2279.68
413.31	2340.54
413.50	2291.38
413.69	2328.83
413.88	2298.41
414.07	2326.49
414.26	2359.26
414.45	2375.64
414.64	2359.26
414.83	2413.09
415.02	2478.63
415.22	2380.32
415.41	2473.95
415.60	2469.27
415.79	2562.89
415.98	2560.55
416.17	2656.51
416.36	2623.74
416.55	2686.94
416.74	2729.06
416.93	2651.83
417.12	2630.76
417.31	2708.00
417.50	2747.79
417.69	2841.41
417.88	2827.37
418.07	2778.22
418.26	2724.38
418.45	2768.85
418.64	2834.39
418.83	2932.69
419.02	2939.71
419.21	2897.58
419.39	3038.02
419.58	2892.90
419.77	2836.73
419.96	2995.89
420.15	3000.57
420.34	3070.78
420.53	3038.02
420.72	3080.14
420.91	3068.44
421.10	3009.93
421.29	3162.06
421.48	3047.38
421.67	3038.02
421.86	3094.19
422.05	3103.55
422.24	3126.96
422.43	3267.39
422.61	3318.88
422.80	3222.92
422.99	3232.28
423.18	3332.92
423.37	3307.18
423.56	3262.71
423.75	3290.79
423.94	3253.34
424.13	2918.65
424.32	3126.96
424.50	3339.94
424.69	3398.46
424.88	3307.18
425.07	3241.64
425.26	3372.71
425.45	3197.17
425.64	3208.87
425.83	3255.69
426.01	3330.58
426.20	3253.34
426.39	3288.45
426.58	3370.37
426.77	3290.79
426.96	3330.58
427.15	3400.80
427.33	3468.67
427.52	3361.01
427.71	3393.78
427.90	3485.06
428.09	3562.30
428.28	3541.23
428.46	3452.29
428.65	3506.12
428.84	3569.32
429.03	3541.23
429.22	3566.98
429.40	3557.61
429.59	3627.83
429.78	3562.30
429.97	3499.10
430.16	3623.15
430.34	3772.94
430.53	3899.33
430.72	3826.78
430.91	3688.68
431.10	3784.65
431.28	3805.71
431.47	3796.35
431.66	3770.60
431.85	3733.15
432.03	3737.84
432.22	3801.03
432.41	3798.69
432.60	3922.74
432.79	3845.50
432.97	3894.65
433.16	3906.35
433.35	3946.14
433.54	3943.80
433.72	4063.17
433.91	3974.23
434.10	3969.55
434.28	3934.44
434.47	4095.94
434.66	4166.15
434.85	4053.81
435.03	4161.47
435.22	4065.51
435.41	4163.81
435.59	4088.92
435.78	4065.51
435.97	4304.25
436.16	4135.73
436.34	4170.83
436.53	4194.24
436.72	4388.50
436.90	4369.78
437.09	4311.27
437.28	4189.56
437.46	4372.12
437.65	4276.16
437.84	4376.80
438.02	4383.82
438.21	4315.95
438.40	4395.53
438.58	4561.70
438.77	4557.02
438.96	4418.93
439.14	4571.07
439.33	4746.61
439.52	4667.03
439.70	4695.11
439.89	4720.86
440.08	4746.61
440.26	4760.65
440.45	4610.86
440.63	4788.74
440.82	4987.68
441.01	4870.65
441.19	4940.87
441.38	4947.89
441.57	5093.01
441.75	5074.28
441.94	5238.12
442.12	5064.92
442.31	5139.82
442.50	5139.82
442.68	5135.14
442.87	5315.36
443.05	5263.86
443.24	5446.43
443.43	5324.72
443.61	5322.38
443.80	5610.26
443.98	5193.65
444.17	5013.43
444.35	5369.19
444.54	5509.62
444.73	5273.23
444.91	5352.81
445.10	5207.69
445.28	5390.25
445.47	5289.61
445.65	5453.45
445.84	5542.39
446.02	5322.38
446.21	5338.76
446.39	5425.36
446.58	5441.75
446.77	5507.28
446.95	5247.48
447.14	5320.04
447.32	5610.26
447.51	5556.43
447.69	5399.62
447.88	5430.04
448.06	5507.28
448.25	5511.96
448.43	5397.28
448.62	5668.78
448.80	5565.79
448.99	5551.75
449.17	5633.67
449.36	5486.22
449.54	5834.96
449.73	5753.04
449.91	5701.54
450.10	5806.87
450.28	5753.04
450.46	5865.38
450.65	5851.34
450.83	5713.25
451.02	5738.99
451.20	5820.91
451.39	5865.38
451.57	5776.44
451.76	5891.13
451.94	6015.18
452.13	5998.79
452.31	5886.45
452.49	5898.15
452.68	5951.98
452.86	6033.90
453.05	6029.22
453.23	6010.50
453.42	5942.62
453.60	6038.58
453.78	6080.71
453.97	6036.24
454.15	6040.92
454.34	6069.01
454.52	6310.08
454.70	6211.78
454.89	6429.45
455.07	6307.74
455.26	6251.57
455.44	6375.62
455.62	6207.10
455.81	6387.32
455.99	6443.49
456.17	6462.22
456.36	6399.02
456.54	6312.42
456.73	6410.73
456.91	6717.34
457.09	6764.15
457.28	6778.19
457.46	6656.48
457.64	6675.21
457.83	6630.74
458.01	6621.38
458.19	6825.00
458.38	6686.91
458.56	6682.23
458.74	6822.66
458.93	6885.86
459.11	6792.23
459.29	6778.19
459.48	7005.22
459.66	6920.96
459.84	6956.07
460.03	6892.88
460.21	6780.53
460.39	6862.45
460.57	6949.05
460.76	7021.61
460.94	7122.25
461.12	7131.61
461.31	7290.77
461.49	7140.97
461.67	6953.73
461.85	7171.40
462.04	7220.55
462.22	7620.78
462.40	7398.43
462.59	7222.89
462.77	7356.30
462.95	7438.22
463.13	7424.18
463.32	7323.54
463.50	7297.79
463.68	7419.50
463.86	7456.95
464.05	7400.77
464.23	7335.24
464.41	7627.81
464.59	7466.31
464.78	7592.70
464.96	7573.97
465.14	7421.84
465.32	7581.00
465.50	7714.41
465.69	7728.45
465.87	7747.17
466.05	7691.00
466.23	7730.79
466.41	7833.77
466.60	7754.19
466.78	7751.85
466.96	7709.72
467.14	7744.83
467.32	7866.54
467.51	7887.61
467.69	7646.53
467.87	7997.61
468.05	8060.80
468.23	8063.15
468.41	7805.69
468.60	7957.82
468.78	8154.43
468.96	7906.33
469.14	8084.21
469.32	8163.79
469.50	7981.23
469.69	8173.15
469.87	8276.13
470.05	8273.79
470.23	8271.45
470.41	8421.25
470.59	8407.20
470.77	8315.92
470.95	8404.86
471.14	8538.27
471.32	8374.44
471.50	8528.91
471.68	8655.30
471.86	8755.94
472.04	8678.71
472.22	9025.11
472.40	8561.68
472.58	8734.88
472.77	8744.24
472.95	9011.06
473.13	9039.15
473.31	8674.03
473.49	8828.50
473.67	8884.67
473.85	9029.79
474.03	9202.99
474.21	9174.90
474.39	9102.34
474.57	9240.44
474.75	9378.53
474.93	9303.63
475.12	9486.19
475.30	9591.52
475.48	9537.68
475.66	9596.20
475.84	9694.50
476.02	9561.09
476.20	9535.34
476.38	9909.83
476.56	10115.80
476.74	10113.45
476.92	9958.98
477.10	10087.71
477.28	10036.22
477.46	10047.92
477.64	10003.45
477.82	10333.47
478.00	10509.01
478.18	10675.18
478.36	10532.41
478.54	10789.87
478.72	10668.16
478.90	10853.06
479.08	10930.30
479.26	10956.05
479.44	10822.64
479.62	11124.57
479.80	11087.12
479.98	11342.24
480.16	11648.85
480.34	11503.73
480.52	11517.78
480.70	11595.01
480.88	11403.09
481.06	11702.68
481.24	11967.16
481.41	12018.65
481.59	12025.67
481.77	11936.73
481.95	12393.14
482.13	12152.06
482.31	12528.89
482.49	12638.89
482.67	12479.74
482.85	12631.87
483.03	12837.84
483.21	12889.33
483.39	13116.36
483.57	12826.14
483.74	13149.13
483.92	13053.17
484.10	13109.34
484.28	13558.72
484.46	13699.16
484.64	13949.59
484.82	13521.27
485.00	14026.83
485.18	14167.26
485.35	14354.51
485.53	14200.03
485.71	14340.46
485.89	14532.39
486.07	14546.43
486.25	14705.59
486.43	14707.93
486.61	14916.23
486.78	14925.60
486.96	15002.83
487.14	15087.09
487.32	15351.57
487.50	15360.94
487.68	15578.61
487.85	15550.52
488.03	15899.26
488.21	16133.31
488.39	15920.32
488.57	16299.49
488.75	16226.93
488.92	16343.96
489.10	16805.05
489.28	16659.93
489.46	16589.72
489.64	16760.58
489.81	17198.26
489.99	16999.31
490.17	17011.01
490.35	17532.95
490.53	17741.26
490.70	17490.82
490.88	17603.17
491.06	17769.35
491.24	17701.47
491.41	18043.19
491.59	18099.36
491.77	18223.41
491.95	18265.54
492.13	18511.30
492.30	18469.17
492.48	18604.92
492.66	18698.54
492.84	18939.62
493.01	18864.72
493.19	18684.50
493.37	19124.52
493.54	19164.31
493.72	19316.44
493.90	19367.93
494.08	19878.17
494.25	19751.78
494.43	19585.60
494.61	20119.24
494.79	20292.44
494.96	20262.02
495.14	20215.21
495.32	20470.33
495.49	20486.71
495.67	20641.18
495.85	20704.38
496.02	20945.45
496.20	21010.99
496.38	21195.89
496.55	20954.82
496.73	21518.89
496.91	21413.56
497.09	21490.80
497.26	21472.07
497.44	21635.91
497.62	21649.96
497.79	22267.86
497.97	21891.03
498.14	22419.99
498.32	22265.52
498.50	22104.02
498.67	22759.37
498.85	22742.99
499.03	22668.09
499.20	22885.76
499.38	23115.13
499.56	22845.97
499.73	22906.82
499.91	23304.71
500.08	23307.05
500.26	23351.52
500.44	23044.91
500.61	23573.88
500.79	23325.78
500.97	23426.42
501.14	23847.72
501.32	23852.40
501.49	23992.83
501.67	23798.57
501.84	24400.08
502.02	24194.12
502.20	24041.98
502.37	24592.01
502.55	24379.02
502.72	24601.37
502.90	24496.05
503.07	24570.94
503.25	24657.54
503.43	24299.44
503.60	24882.24
503.78	24641.16
503.95	24753.51
504.13	25027.35
504.30	25118.63
504.48	25338.64
504.65	25436.94
504.83	25549.29
505.01	25392.47
505.18	25720.15
505.36	25757.60
505.53	25708.44
505.71	26071.23
505.88	25813.77
506.06	25696.74
506.23	26256.13
506.41	26150.81
506.58	25972.92
506.76	26359.11
506.93	26101.65
507.11	26054.84
507.28	26331.03
507.46	26721.90
507.63	26508.91
507.81	26815.52
507.98	26937.23
508.16	26808.50
508.33	26787.43
508.50	27222.77
508.68	27171.28
508.85	27543.42
509.03	27248.52
509.20	27274.26
509.38	27370.22
509.55	27864.08
509.73	27587.89
509.90	27709.60
510.08	27503.64
510.25	27171.28
510.42	28140.26
510.60	28257.29
510.77	28503.04
510.95	28257.29
511.12	28271.33
511.30	28149.62
511.47	28184.73
511.64	28638.80
511.82	28627.09
511.99	28240.90
512.17	28940.72
512.34	28563.90
512.51	29017.96
512.69	29280.10
512.86	29022.64
513.04	28772.21
513.21	29008.60
513.38	29455.64
513.56	29465.00
513.73	29448.62
513.90	29439.26
514.08	29591.39
514.25	29642.88
514.43	29722.46
514.60	29982.26
514.77	29965.88
514.95	30342.70
515.12	29663.95
515.29	29619.48
515.47	29954.18
515.64	30621.23
515.81	29984.60
515.99	30572.08
516.16	30298.23
516.33	30527.61
516.51	30771.02
516.68	30785.07
516.85	30759.32
517.03	31065.93
517.20	30918.48
517.37	30946.56
517.54	30995.71
517.72	30934.86
517.89	31140.83
518.06	31234.45
518.24	31498.93
518.41	31182.96
518.58	31182.96
518.75	31122.10
518.93	31417.01
519.10	31508.29
519.27	31393.61
519.45	31974.06
519.62	31608.93
519.79	32182.37
519.96	31463.82
520.14	32196.41
520.31	31812.56
520.48	32306.41
520.65	32154.28
520.83	32299.39
521.00	32247.90
521.17	32432.80
521.34	32217.47
521.52	32758.14
521.69	32114.49
521.86	32687.92
522.03	32786.22
522.20	33167.73
522.38	32858.78
522.55	32814.31
522.72	32851.76
522.89	33017.94
523.07	33322.21
523.24	33118.58
523.41	33675.63
523.58	32704.31
523.75	33790.31
523.92	33392.42
524.10	33584.35
524.27	33720.10
524.44	33586.69
524.61	34108.63
524.78	33890.96
524.96	33696.69
525.13	33975.22
525.30	34024.37
525.47	34190.55
525.64	34239.70
525.81	34204.59
525.98	34471.41
526.16	34115.65
526.33	34508.86
526.50	34513.54
526.67	34316.93
526.84	34913.77
527.01	34213.95
527.18	34691.42
527.36	34820.15
527.53	34888.03
527.70	34866.96
527.87	35206.34
528.04	34775.68
528.21	34735.89
528.38	34782.70
528.55	35201.66
528.72	35103.35
528.89	35108.04
529.07	35185.27
529.24	35082.29
529.41	35702.53
529.58	35323.36
529.75	35339.75
529.92	35590.19
530.09	35243.79
530.26	35885.09
530.43	35782.11
530.60	35147.82
530.77	35695.51
530.94	35826.58
531.11	35386.56
531.28	35606.57
531.46	35754.02
531.63	36259.58
531.80	36088.72
531.97	36409.37
532.14	36123.83
532.31	36343.84
532.48	36573.21
532.65	36271.28
532.82	36318.09
532.99	36503.00
533.16	36435.12
533.33	36620.02
533.50	36701.94
533.67	36177.66
533.84	36371.92
534.01	36615.34
534.18	36669.17
534.35	37177.07
534.52	36692.58
534.69	36975.78
534.86	37544.53
535.03	37109.19
535.20	37427.51
535.37	37170.05
535.54	37156.00
535.71	37170.05
535.88	37577.30
536.05	37493.04
536.22	37411.12
536.38	37558.58
536.55	37001.53
536.72	37589.00
536.89	37523.47
537.06	37535.17
537.23	37989.24
537.40	37811.35
537.57	37593.68
537.74	37949.45
537.91	37734.12
538.08	38117.96
538.25	37860.51
538.42	37933.06
538.59	38014.98
538.75	37867.53
538.92	38422.23
539.09	38335.63
539.26	38440.96
539.43	38330.95
539.60	38450.32
539.77	38387.13
539.94	38892.68
540.11	38504.15
540.28	38480.75
540.44	38333.29
540.61	38213.93
540.78	38679.69
540.95	38422.23
541.12	38534.58
541.29	38712.46
541.46	38740.55
541.62	38813.10
541.79	39140.78
541.96	38576.71
542.13	38869.28
542.30	38953.54
542.47	39166.52
542.63	39290.57
542.80	39405.26
542.97	39529.31
543.14	39377.17
543.31	39524.63
543.48	39210.99
543.64	39721.23
543.81	39264.83
543.98	39758.68
544.15	39604.20
544.32	40135.51
544.48	40051.25
544.65	40048.91
544.82	40184.66
544.99	39634.63
545.16	39599.52
545.32	39775.06
545.49	40069.97
545.66	40282.96
545.83	40666.81
546.00	40467.86
546.16	40247.85
546.33	40369.56
546.50	39557.39
546.67	40411.69
546.83	40034.86
547.00	40259.55
547.17	40226.79
547.34	40638.72
547.50	40531.06
547.67	40847.03
547.84	40741.71
548.00	40795.54
548.17	40528.72
548.34	40912.56
548.51	41120.87
548.67	41258.96
548.84	40367.22
549.01	40832.99
549.18	40603.61
549.34	41106.83
549.51	41408.76
549.68	41097.47
549.84	40987.46
550.01	40996.82
550.18	40931.29
550.34	41509.40
550.51	41329.18
550.68	41734.09
550.84	41170.02
551.01	41443.87
551.18	41060.02
551.34	41067.04
551.51	41502.38
551.68	41282.37
551.84	41486.00
552.01	41331.52
552.18	41628.77
552.34	41102.15
552.51	41998.57
552.68	41408.76
552.84	41785.58
553.01	42141.35
553.18	41387.69
553.34	41420.46
553.51	42122.62
553.67	41635.79
553.84	42206.88
554.01	42045.38
554.17	41581.96
554.34	42052.41
554.51	42050.06
554.67	42632.86
554.84	42344.97
555.00	42014.96
555.17	41855.80
555.33	42087.51
555.50	42543.92
555.67	42293.48
555.83	42396.46
556.00	42536.90
556.16	42588.39
556.33	42316.89
556.50	42209.22
556.66	42405.83
556.83	42124.96
556.99	42260.71
557.16	42789.67
557.32	42412.85
557.49	42759.25
557.65	42717.12
557.82	42609.45
557.98	42763.93
558.15	42637.54
558.32	42993.30
558.48	42761.59
558.65	42703.07
558.81	42953.51
558.98	42689.03
559.14	42363.70
559.31	42775.63
559.47	42773.29
559.64	42890.32
559.80	42745.20
559.97	42902.02
560.13	43000.32
560.30	42663.28
560.46	43077.56
560.63	43213.31
560.79	43143.09
560.96	43267.14
561.12	43449.70
561.29	43269.48
561.45	43267.14
561.61	43618.22
561.78	43517.58
561.94	42953.51
562.11	43557.37
562.27	43091.60
562.44	43351.40
562.60	43330.34
562.77	42920.74
562.93	43075.22
563.10	43753.97
563.26	43459.07
563.42	43894.41
563.59	43489.49
563.75	43363.11
563.92	43435.66
564.08	43524.60
564.24	43693.12
564.41	43306.93
564.57	43702.48
564.74	43810.15
564.90	43632.27
565.07	43405.23
565.23	43709.50
565.39	43641.63
565.56	43768.02
565.72	43959.94
565.88	43716.53
566.05	43552.69
566.21	44013.77
566.38	43716.53
566.54	44004.41
566.70	43892.07
566.87	44076.97
567.03	43695.46
567.19	44514.65
567.36	43697.80
567.52	43700.14
567.68	44126.12
567.85	44037.18
568.01	44416.35
568.17	43810.15
568.34	44072.29
568.50	43735.25
568.66	44353.15
568.83	44334.43
568.99	43849.94
569.15	44217.40
569.32	43915.47
569.48	43910.79
569.64	44257.19
569.81	44266.55
569.97	44507.63
570.13	44177.61
570.30	43873.34
570.46	44369.54
570.62	44046.54
570.78	44360.17
570.95	43878.02
571.11	44533.37
571.27	44175.27
571.43	44414.01
571.60	44552.10
571.76	44465.50
571.92	44334.43
572.09	44196.34
572.25	44421.03
572.41	44306.34
572.57	44367.20
572.74	44605.93
572.90	44336.77
573.06	44608.27
573.22	44563.80
573.38	44493.58
573.55	44811.90
573.71	45013.18
573.87	44201.02
574.03	44182.29
574.20	44751.04
574.36	44271.23
574.52	44554.44
574.68	44369.54
574.84	44587.21
575.01	44823.60
575.17	44608.27
575.33	44467.84
575.49	44577.84
575.65	44397.62
575.82	44114.42
575.98	44032.50
576.14	44697.21
576.30	44870.41
576.46	44381.24
576.62	44821.26
576.79	44451.45
576.95	44732.32
577.11	44395.28
577.27	44816.58
577.43	44591.89
577.59	44353.15
577.75	44414.01
577.92	44865.73
578.08	44870.41
578.24	44758.06
578.40	44861.05
578.56	44505.29
578.72	44912.54
578.88	44877.43
579.04	44542.74
579.21	44254.85
579.37	44650.40
579.53	44594.23
579.69	44603.59
579.85	44428.05
580.01	44830.62
580.17	44624.65
580.33	44662.10
580.49	44697.21
580.65	44917.22
580.82	44755.72
580.98	44807.22
581.14	44512.31
581.30	44638.70
581.46	44692.53
581.62	44605.93
581.78	44711.25
581.94	44811.90
582.10	45219.15
582.26	44793.17
582.42	44797.85
582.58	44828.28
582.74	44729.98
582.90	45219.15
583.06	44954.67
583.22	44481.88
583.38	45209.79
583.54	44765.09
583.70	44554.44
583.86	45141.91
584.02	44935.95
584.18	44884.45
584.34	44964.03
584.50	44980.42
584.66	45134.89
584.82	44992.12
584.98	45006.16
585.14	44837.64
585.30	44783.81
585.46	45170.00
585.62	44652.74
585.78	44701.89
585.94	44360.17
586.10	44865.73
586.26	45170.00
586.42	44765.09
586.58	44875.09
586.74	44643.38
586.90	45071.70
587.06	44926.58
587.22	44837.64
587.38	44921.90
587.54	45392.35
587.70	45397.03
587.86	44884.45
588.02	44839.98
588.18	45277.66
588.34	44957.01
588.49	45078.72
588.65	45095.10
588.81	45099.78
588.97	45301.07
589.13	45294.05
589.29	44868.07
589.45	45118.51
589.61	45265.96
589.77	45280.00
589.93	45240.21
590.08	44945.31
590.24	45551.51
590.40	45783.22
590.56	45600.66
590.72	45528.10
590.88	45141.91
591.04	45284.68
591.20	45553.85
591.35	45331.50
591.51	45752.79
591.67	44891.48
591.83	45296.39
591.99	45265.96
592.15	45436.82
592.31	45237.87
592.46	45064.67
592.62	45401.71
592.78	45918.97
592.94	45904.93
593.10	45698.96
593.26	45748.11
593.41	45984.51
593.57	45488.31
593.73	45322.13
593.89	46050.04
594.05	45975.14
594.20	45825.35
594.36	46487.72
594.52	45874.50
594.68	45399.37
594.84	45577.25
594.99	45572.57
595.15	45420.44
595.31	45455.54
595.47	45354.90
595.62	45710.66
595.78	45565.55
595.94	45769.18
596.10	45429.80
596.25	45907.27
596.41	45659.17
596.57	45567.89
596.73	45984.51
596.88	45404.05
597.04	45373.63
597.20	45825.35
597.36	45123.19
597.51	45492.99
597.67	45654.49
597.83	45551.51
597.99	45787.90
598.14	45420.44
598.30	45954.08
598.46	46103.87
598.61	45677.90
598.77	46012.59
598.93	46000.89
599.09	45787.90
599.24	46342.61
599.40	46052.38
599.56	46021.95
599.71	46281.75
599.87	46057.06
600.03	45965.78
600.18	45631.08
600.34	45855.78
600.50	45764.49
600.65	45701.30
600.81	45855.78
600.97	46508.79
601.12	45689.60
601.28	46082.81
601.44	45504.70
601.59	45638.11
601.75	45572.57
601.91	46169.41
602.06	45911.95
602.22	46096.85
602.37	45827.69
602.53	45734.07
602.69	46054.72
602.84	45713.00
603.00	46047.70
603.16	46389.42
603.31	46031.32
603.47	45942.38
603.62	45911.95
603.78	46026.63
603.94	45544.48
604.09	45577.25
604.25	45698.96
604.40	45586.61
604.56	45701.30
604.71	46059.40
604.87	45785.56
605.03	45830.03
605.18	45785.56
605.34	46267.71
605.49	45240.21
605.65	45649.81
605.80	45663.85
605.96	45886.20
606.12	45525.76
606.27	45769.18
606.43	45483.63
606.58	45940.04
606.74	45448.52
606.89	45345.54
607.05	45759.81
607.20	45268.30
607.36	45979.82
607.51	45415.76
607.67	45687.26
607.82	45610.02
607.98	45689.60
608.13	45797.26
608.29	45764.49
608.44	45408.73
608.60	44828.28
608.75	45511.72
608.91	45317.45
609.06	45354.90
609.22	45933.01
609.37	45366.60
609.53	45593.64
609.68	45579.59
609.84	45364.26
609.99	45834.71
610.15	45633.42
610.30	45340.86
610.46	45069.36
610.61	45687.26
610.76	45811.31
610.92	45172.34
611.07	45291.71
611.23	45287.03
611.38	45265.96
611.54	45607.68
611.69	45666.19
611.84	45689.60
612.00	45390.01
612.15	45509.38
612.31	45338.52
612.46	45099.78
612.62	45516.40
612.77	45558.53
612.92	45265.96
613.08	45139.57
613.23	45495.33
613.39	44811.90
613.54	44877.43
613.69	45216.81
613.85	44882.11
614.00	45020.20
614.15	45422.78
614.31	45088.08
614.46	45272.98
614.62	44945.31
614.77	44879.77
614.92	45319.79
615.08	44999.14
615.23	44863.39
615.38	45436.82
615.54	45064.67
615.69	44940.63
615.84	45191.06
616.00	45441.50
616.15	45148.93
616.30	45270.64
616.46	45158.30
616.61	44685.51
616.76	44692.53
616.92	44706.57
617.07	44776.79
617.22	44924.24
617.37	44516.99
617.53	44769.77
617.68	45277.66
617.83	44624.65
617.99	45272.98
618.14	45085.74
618.29	44479.54
618.45	44205.70
618.60	44535.71
618.75	44547.42
618.90	44477.20
619.06	44397.62
619.21	44751.04
619.36	44383.58
619.51	44669.12
619.67	44343.79
619.82	44533.37
619.97	44706.57
620.12	44442.09
620.28	44194.00
620.43	44465.50
620.58	44397.62
620.73	44673.81
620.89	44694.87
621.04	44629.34
621.19	44481.88
621.34	44435.07
621.49	43955.26
621.65	44299.32
621.80	44416.35
621.95	44596.57
622.10	44486.56
622.25	44495.92
622.41	44191.65
622.56	44165.91
622.71	44196.34
622.86	44329.75
623.01	44371.88
623.16	43805.47
623.32	43742.27
623.47	44212.72
623.62	43983.35
623.77	43728.23
623.92	43868.66
624.07	43992.71
624.23	44376.56
624.38	44121.44
624.53	43866.32
624.68	43948.24
624.83	43934.20
624.98	43728.23
625.13	43622.90
625.29	43693.12
625.44	43854.62
625.59	43821.85
625.74	43526.94
625.89	43459.07
626.04	43283.53
626.19	43552.69
626.34	43475.45
626.49	43239.06
626.65	43477.79
626.80	43559.71
626.95	43335.02
627.10	43604.18
627.25	43283.53
627.40	43325.66
627.55	43129.05
627.70	43297.57
627.85	43786.74
628.00	43562.05
628.15	43466.09
628.30	43061.18
628.45	42651.58
628.60	42768.61
628.76	43173.52
628.91	42906.70
629.06	43056.50
629.21	42682.01
629.36	42838.83
629.51	42698.39
629.66	43384.17
629.81	43033.09
629.96	43159.48
630.11	42770.95
630.26	42600.09
630.41	42728.82
630.56	43044.79
630.71	42462.00
630.86	42717.12
631.01	42670.31
631.16	42674.99
631.31	42848.19
631.46	42284.12
631.61	43042.45
631.76	42518.17
631.91	43072.88
632.06	42944.15
632.21	42930.11
632.36	43019.05
632.51	42410.51
632.66	42691.37
632.81	42714.78
632.96	42738.18
633.10	42239.65
633.25	42454.98
633.40	42569.66
633.55	42717.12
633.70	42298.16
633.85	42167.09
634.00	42272.42
634.15	42005.59
634.30	42155.39
634.45	42569.66
634.60	42522.85
634.75	41858.14
634.90	42061.77
635.05	42527.53
635.19	42234.97
635.34	42164.75
635.49	41888.57
635.64	41900.27
635.79	42253.69
635.94	41951.76
636.09	42117.94
636.24	42038.36
636.39	42302.84
636.53	42150.71
636.68	42349.65
636.83	41525.78
636.98	41617.07
637.13	41682.60
637.28	41736.43
637.43	41462.59
637.57	41923.68
637.72	41624.09
637.87	41813.67
638.02	41656.85
638.17	41371.31
638.32	41750.48
638.46	41240.24
638.61	41677.92
638.76	41528.13
638.91	41743.45
639.06	41296.41
639.20	41022.57
639.35	41167.68
639.50	41069.38
639.65	41687.28
639.80	41455.57
639.94	41383.01
640.09	42043.04
640.24	41628.77
640.39	40959.38
640.54	41006.19
640.68	41420.46
640.83	41584.30
640.98	40964.06
641.13	40966.40
641.27	41813.67
641.42	41247.26
641.57	40762.77
641.72	41413.44
641.86	40910.22
642.01	40945.33
642.16	40942.99
642.31	40734.68
642.45	41074.06
642.60	40678.51
642.75	41060.02
642.90	40968.74
643.04	40767.45
643.19	40622.34
643.34	40680.85
643.48	40245.51
643.63	40519.35
643.78	40935.97
643.93	41127.89
644.07	40942.99
644.22	41322.16
644.37	40893.84
644.51	40807.24
644.66	40629.36
644.81	40634.04
644.95	41010.87
645.10	40734.68
645.25	40336.79
645.39	40561.48
645.54	40187.00
645.69	40224.45
645.83	40112.10
645.98	39938.90
646.13	40304.02
646.27	40350.84
646.42	39688.46
646.57	40297.00
646.71	40236.15
646.86	40341.47
647.00	40165.93
647.15	40711.28
647.30	40189.34
647.44	40163.59
647.59	40060.61
647.74	40325.09
647.88	39945.92
648.03	40208.06
648.17	40587.23
648.32	40392.97
648.47	40397.65
648.61	40156.57
648.76	40144.87
648.90	39995.07
649.05	39316.32
649.20	40109.76
649.34	39969.33
649.49	40088.70
649.63	40198.70
649.78	39971.67
649.92	39871.03
650.07	40112.10
650.21	40091.04
650.36	40023.16
650.51	39707.19
650.65	40006.78
650.80	39849.96
650.94	39323.34
651.09	39786.77
651.23	39068.22
651.38	39833.58
651.52	39215.68
651.67	39576.12
651.81	39297.59
651.96	39388.88
652.10	39608.89
652.25	39164.18
652.39	39290.57
652.54	39585.48
652.68	39384.19
652.83	39529.31
652.97	40142.53
653.12	39105.67
653.26	39489.52
653.41	39274.19
653.55	39402.92
653.70	39159.50
653.84	39686.12
653.99	39248.44
654.13	39379.51
654.27	38988.64
654.42	39037.80
654.56	38857.57
654.71	39379.51
654.85	38897.36
655.00	38937.15
655.14	39175.89
655.29	38768.63
655.43	39189.93
655.57	38375.42
655.72	38466.70
655.86	38462.02
656.01	38447.98
656.15	38274.78
656.30	38323.93
656.44	38740.55
656.58	38721.82
656.73	38712.46
656.87	38679.69
657.01	38651.61
657.16	38501.81
657.30	38607.14
657.45	38487.77
657.59	38209.25
657.73	38295.85
657.88	38335.63
658.02	38384.79
658.16	38820.13
658.31	38543.94
658.45	38146.05
658.60	38031.36
658.74	38330.95
658.88	38607.14
659.03	38230.31
659.17	37743.48
659.31	37720.07
659.46	38003.28
659.60	38014.98
659.74	38211.59
659.89	37883.91
660.03	37689.65
660.17	38209.25
660.32	37727.10
660.46	37804.33
660.60	37766.88
660.74	37642.84
660.89	37317.50
661.03	37766.88
661.17	37450.91
661.32	36781.52
661.46	37280.05
661.60	37392.40
661.74	37237.92
661.89	37436.87
662.03	37322.18
662.17	36910.25
662.31	37038.98
662.46	37514.11
662.60	36659.81
662.74	36465.55
662.88	36423.42
663.03	36552.15
663.17	36683.22
663.31	36407.03
663.45	36760.45
663.60	37055.36
663.74	36739.39
663.88	36800.24
664.02	36573.21
664.17	36582.57
664.31	36257.24
664.45	36336.82
664.59	36500.65
664.73	36172.98
664.88	36528.74
665.02	35782.11
665.16	36182.34
665.30	36493.63
665.44	36357.88
665.59	35943.61
665.73	36002.12
665.87	35393.58
666.01	35615.93
666.15	35931.90
666.29	35473.16
666.44	35901.48
666.58	35402.94
666.72	35803.17
666.86	35459.12
667.00	35517.63
667.14	35508.27
667.28	35590.19
667.43	35503.59
667.57	35384.22
667.71	35395.92
667.85	35332.73
667.99	35538.69
668.13	34721.85
668.27	34836.53
668.41	34787.38
668.56	34749.93
668.70	34108.63
668.84	34436.30
668.98	34515.88
669.12	34986.33
669.26	34155.44
669.40	34527.58
669.54	34525.24
669.68	34129.69
669.82	33923.72
669.96	34242.04
670.10	33968.19
670.25	33895.64
670.39	34019.69
670.53	34082.88
670.67	34120.33
670.81	34183.52
670.95	34078.20
671.09	33806.70
671.23	33539.88
671.37	34316.93
671.51	33420.51
671.65	33387.74
671.79	33383.06
671.93	33289.44
672.07	33785.63
672.21	33605.41
672.35	32535.79
672.49	33240.29
672.63	33483.70
672.77	33198.16
672.91	33031.98
673.05	32940.70
673.19	32699.62
673.33	32914.95
673.47	32606.00
673.61	32240.88
673.75	32446.85
673.89	32051.30
674.03	31950.65
674.17	32250.24
674.31	32084.06
674.45	32114.49
674.59	32350.88
674.73	32009.17
674.87	31723.62
675.01	31597.23
675.15	31522.34
675.29	31576.17
675.43	31770.43
675.56	31740.00
675.70	31267.22
675.84	31044.87
675.98	30422.28
676.12	31337.43
676.26	31000.40
676.40	30859.96
676.54	30602.50
676.68	30728.89
676.82	30129.72
676.96	30850.60
677.10	30618.89
677.23	30213.98
677.37	30068.86
677.51	30249.08
677.65	30405.90
677.79	30000.99
677.93	29699.06
678.07	29776.30
678.21	29722.46
678.34	29699.06
678.48	29474.37
678.62	29717.78
678.76	29364.36
678.90	29687.36
679.04	29502.45
679.18	29209.89
679.31	28966.47
679.45	29343.30
679.59	28774.55
679.73	29003.92
679.87	28786.25
680.00	28528.79
680.14	28500.70
680.28	28638.80
680.42	27981.10
680.56	28283.03
680.70	28093.45
680.83	28077.07
680.97	28016.21
681.11	28107.49
681.25	27414.69
681.39	27470.87
681.52	27826.63
681.66	27386.61
681.80	26817.86
681.94	26913.82
682.07	26937.23
682.21	26965.31
682.35	26672.74
682.49	27227.45
682.62	26906.80
682.76	27026.17
682.90	26726.58
683.04	26897.44
683.17	26651.68
683.31	26539.33
683.45	26141.44
683.59	25811.43
683.72	25982.29
683.86	25975.27
684.00	25876.96
684.13	26073.57
684.27	25832.49
684.41	25727.17
684.55	25799.73
684.68	25329.28
684.82	24982.88
684.96	25081.18
685.09	24971.18
685.23	25357.36
685.37	25249.70
685.50	25429.92
685.64	25177.14
685.78	24889.26
685.91	24744.14
686.05	24360.30
686.19	24163.69
686.32	24046.66
686.46	23679.20
686.60	24034.96
686.73	24196.46
686.87	24100.50
687.01	24056.03
687.14	23988.15
687.28	23576.22
687.42	23627.71
687.55	23976.45
687.69	23695.58
687.82	23494.30
687.96	23342.16
688.10	23262.58
688.23	23433.44
688.37	23466.21
688.50	23351.52
688.64	23309.40
688.78	22981.72
688.91	23075.34
689.05	22644.68
689.18	22625.96
689.32	22176.58
689.46	22183.60
689.59	22195.30
689.73	22174.24
689.86	22506.59
690.00	22403.61
690.13	22534.68
690.27	21879.33
690.41	22120.40
690.54	21743.58
690.68	21535.27
690.81	21329.30
690.95	21411.22
691.08	21539.95
691.22	21179.51
691.35	20877.58
691.49	21312.92
691.62	21181.85
691.76	21036.74
691.89	20631.82
692.03	20475.01
692.16	20182.44
692.30	20793.32
692.43	20446.92
692.57	19995.20
692.70	19873.49
692.84	20460.96
692.97	20032.65
693.11	19789.23
693.24	19697.95
693.38	19726.04
693.51	19917.96
693.65	19499.00
693.78	19646.46
693.92	19641.78
694.05	19447.51
694.19	19632.41
694.32	19234.52
694.45	19695.61
694.59	19618.37
694.72	19314.10
694.86	19005.15
694.99	18829.61
695.13	18541.72
695.26	18714.92
695.39	18209.37
695.53	18455.12
695.66	18714.92
695.80	18651.73
695.93	18417.68
696.07	18111.07
696.20	18022.12
696.33	17767.01
696.47	17767.01
696.60	17972.97
696.73	17895.74
696.87	18066.60
697.00	17855.95
697.14	17518.91
697.27	17310.60
697.40	17334.01
697.54	17378.48
697.67	17057.82
697.80	17256.77
697.94	16947.82
698.07	16666.95
698.21	16835.47
698.34	16919.73
698.47	16816.75
698.61	16421.20
698.74	16217.57
698.87	16273.74
699.01	16358.00
699.14	16678.66
699.27	16147.36
699.40	16201.19
699.54	16198.85
699.67	16329.92
699.80	16325.24
699.94	16002.24
700.07	16037.35
700.20	15714.36
700.34	15679.25
700.47	15543.50
700.60	15964.79
700.73	15632.44
700.87	15428.81
701.00	15344.55
701.13	14984.11
701.26	14998.15
701.40	15147.95
701.53	15007.52
701.66	15084.75
701.79	15161.99
701.93	14508.98
702.06	14303.01
702.19	14696.22
702.32	14661.12
702.46	14817.93
702.59	14417.70
702.72	14492.60
702.85	14686.86
702.99	14431.74
703.12	14078.32
703.25	14111.09
703.38	14195.35
703.51	13965.98
703.65	14115.77
703.78	14036.19
703.91	13598.51
704.04	13689.79
704.17	13668.73
704.31	13591.49
704.44	13556.38
704.57	13504.89
704.70	13469.78
704.83	13308.29
704.96	13200.62
705.10	13067.21
705.23	13170.19
>>>>>End Processed Spectral Data<<<<<
