SpectraSuite Data File
++++++++++++++++++++++++++++++++++++
Date: Fri Oct 25 11:33:25 EDT 2013
User: price-jones
Dark Spectrum Present: No
Reference Spectrum Present: No
Number of Sampled Component Spectra: 1
Spectrometers: USB2+H05261
Integration Time (usec): 100000 (USB2+H05261)
Spectra Averaged: 1 (USB2+H05261)
Boxcar Smoothing: 0 (USB2+H05261)
Correct for Electrical Dark: No (USB2+H05261)
Strobe/Lamp Enabled: No (USB2+H05261)
Correct for Detector Non-linearity: No (USB2+H05261)
Correct for Stray Light: No (USB2+H05261)
Number of Pixels in Processed Spectrum: 2048
>>>>>Begin Processed Spectral Data<<<<<
365.73	280.86
365.92	280.86
366.12	280.86
366.32	194.26
366.52	149.79
366.72	147.45
366.91	117.03
367.11	168.52
367.31	112.35
367.51	135.75
367.70	189.58
367.90	173.20
368.10	210.65
368.30	259.80
368.49	173.20
368.69	229.37
368.89	266.82
369.09	189.58
369.28	189.58
369.48	210.65
369.68	264.48
369.87	273.84
370.07	285.55
370.27	280.86
370.47	294.91
370.66	468.11
370.86	521.94
371.06	550.03
371.25	528.96
371.45	489.17
371.65	531.30
371.84	561.73
372.04	543.00
372.24	580.45
372.44	538.32
372.63	617.90
372.83	582.79
373.03	601.52
373.22	507.90
373.42	592.16
373.62	575.77
373.81	709.18
374.01	697.48
374.21	741.95
374.40	552.37
374.60	645.99
374.79	660.03
374.99	575.77
375.19	667.05
375.38	657.69
375.58	676.41
375.78	699.82
375.97	636.63
376.17	688.12
376.37	648.33
376.56	638.97
376.76	585.13
376.95	669.39
377.15	655.35
377.35	699.82
377.54	674.07
377.74	730.25
377.93	744.29
378.13	755.99
378.33	760.67
378.52	695.14
378.72	692.80
378.91	697.48
379.11	711.52
379.31	636.63
379.50	739.61
379.70	723.23
379.89	772.38
380.09	690.46
380.28	751.31
380.48	734.93
380.68	744.29
380.87	702.16
381.07	770.04
381.26	741.95
381.46	823.87
381.65	772.38
381.85	760.67
382.04	770.04
382.24	828.55
382.43	837.91
382.63	788.76
382.83	720.88
383.02	809.83
383.22	798.12
383.41	765.36
383.61	727.91
383.80	734.93
384.00	821.53
384.19	786.42
384.39	823.87
384.58	830.89
384.78	826.21
384.97	802.80
385.17	819.19
385.36	828.55
385.56	741.95
385.75	870.68
385.95	805.14
386.14	868.34
386.34	828.55
386.53	816.85
386.72	765.36
386.92	950.26
387.11	894.08
387.31	917.49
387.50	882.38
387.70	854.30
387.89	924.51
388.09	837.91
388.28	936.21
388.48	908.13
388.67	903.45
388.86	854.30
389.06	987.71
389.25	908.13
389.45	833.23
389.64	929.19
389.84	959.62
390.03	1004.09
390.22	1057.92
390.42	954.94
390.61	933.87
390.81	985.37
391.00	940.90
391.19	1011.11
391.39	933.87
391.58	1083.67
391.78	992.39
391.97	957.28
392.16	938.55
392.36	1034.52
392.55	1006.43
392.75	990.05
392.94	1025.15
393.13	1128.14
393.33	1069.62
393.52	1078.99
393.71	1093.03
393.91	1151.54
394.10	1093.03
394.29	1069.62
394.49	1219.42
394.68	1158.57
394.88	1144.52
395.07	1177.29
395.26	1121.12
395.46	1156.22
395.65	1242.82
395.84	1242.82
396.04	1163.25
396.23	1174.95
396.42	1254.53
396.62	1252.19
396.81	1320.06
397.00	1165.59
397.19	1144.52
397.39	1212.40
397.58	1254.53
397.77	1294.32
397.97	1364.53
398.16	1177.29
398.35	1303.68
398.55	1240.48
398.74	1289.64
398.93	1404.32
399.12	1268.57
399.32	1270.91
399.51	1245.16
399.70	1345.81
399.90	1306.02
400.09	1376.24
400.28	1427.73
400.47	1404.32
400.67	1418.36
400.86	1460.49
401.05	1411.34
401.24	1430.07
401.44	1409.00
401.63	1558.80
401.82	1540.07
402.01	1331.76
402.21	1479.22
402.40	1488.58
402.59	1551.78
402.78	1565.82
402.97	1614.97
403.17	1528.37
403.36	1533.05
403.55	1570.50
403.74	1558.80
403.93	1598.59
404.13	1561.14
404.32	1575.18
404.51	1659.44
404.70	1600.93
404.89	1535.39
405.09	1781.15
405.28	1631.35
405.47	1645.40
405.66	1647.74
405.85	1755.40
406.05	1816.26
406.24	1729.66
406.43	1795.19
406.62	1867.75
406.81	1865.41
407.00	1825.62
407.20	1748.38
407.39	1851.36
407.58	1834.98
407.77	1909.88
407.96	1818.60
408.15	1865.41
408.34	1928.60
408.54	1879.45
408.73	1846.68
408.92	1837.32
409.11	1856.04
409.30	1994.14
409.49	1961.37
409.68	1991.80
409.87	2059.67
410.07	2092.44
410.26	2136.91
410.45	2045.63
410.64	2022.22
410.83	2225.85
411.02	2062.01
411.21	2263.30
411.40	2085.42
411.59	2312.45
411.78	2186.06
411.98	2179.04
412.17	2324.15
412.36	2188.40
412.55	2377.98
412.74	2459.90
412.93	2347.56
413.12	2298.41
413.31	2513.74
413.50	2441.18
413.69	2410.75
413.88	2495.01
414.07	2415.43
414.26	2487.99
414.45	2495.01
414.64	2581.61
414.83	2654.17
415.02	2644.81
415.22	2544.16
415.41	2745.45
415.60	2682.25
415.79	2698.64
415.98	2731.41
416.17	2888.22
416.36	2761.83
416.55	2703.32
416.74	2796.94
416.93	2813.32
417.12	2871.84
417.31	2911.63
417.50	2895.24
417.69	2984.18
417.88	3007.59
418.07	2956.10
418.26	3019.29
418.45	3054.40
418.64	3089.51
418.83	3096.53
419.02	3033.33
419.21	3101.21
419.39	3045.04
419.58	2988.86
419.77	3070.78
419.96	3225.26
420.15	3248.66
420.34	3222.92
420.53	3166.74
420.72	3234.62
420.91	3222.92
421.10	3218.24
421.29	3311.86
421.48	3330.58
421.67	3361.01
421.86	3276.75
422.05	3358.67
422.24	3358.67
422.43	3351.65
422.61	3368.03
422.80	3398.46
422.99	3515.48
423.18	3424.20
423.37	3389.10
423.56	3489.74
423.75	3531.87
423.94	3449.95
424.13	3192.49
424.32	3318.88
424.50	3566.98
424.69	3674.64
424.88	3543.57
425.07	3510.80
425.26	3468.67
425.45	3433.57
425.64	3353.99
425.83	3466.33
426.01	3442.93
426.20	3534.21
426.39	3630.17
426.58	3653.58
426.77	3634.85
426.96	3445.27
427.15	3463.99
427.33	3618.47
427.52	3468.67
427.71	3552.93
427.90	3684.00
428.09	3639.53
428.28	3676.98
428.46	3688.68
428.65	3726.13
428.84	3934.44
429.03	3763.58
429.22	3779.97
429.40	3779.97
429.59	3904.01
429.78	3641.87
429.97	3566.98
430.16	3782.31
430.34	3880.61
430.53	3850.18
430.72	3871.25
430.91	3894.65
431.10	3798.69
431.28	4009.34
431.47	3992.95
431.66	4114.66
431.85	4081.89
432.03	4077.21
432.22	4046.79
432.41	4007.00
432.60	4021.04
432.79	4032.74
432.97	4156.79
433.16	4189.56
433.35	4224.67
433.54	4138.07
433.72	4283.18
433.91	4180.20
434.10	4362.76
434.28	4147.43
434.47	4402.55
434.66	4372.12
434.85	4360.42
435.03	4259.78
435.22	4205.94
435.41	4486.81
435.59	4339.35
435.78	4376.80
435.97	4374.46
436.16	4367.44
436.34	4393.19
436.53	4447.02
436.72	4671.71
436.90	4437.66
437.09	4442.34
437.28	4507.87
437.46	4447.02
437.65	4538.30
437.84	4695.11
438.02	4624.90
438.21	4648.30
438.40	4568.73
438.58	4753.63
438.77	4863.63
438.96	4777.03
439.14	4882.36
439.33	5104.71
439.52	4957.25
439.70	4978.32
439.89	5142.16
440.08	5046.20
440.26	5078.96
440.45	4964.28
440.63	5128.11
440.82	5207.69
441.01	5060.24
441.19	5366.85
441.38	5207.69
441.57	5364.51
441.75	5357.49
441.94	5533.03
442.12	5336.42
442.31	5387.91
442.50	5556.43
442.68	5298.97
442.87	5420.68
443.05	5481.53
443.24	5561.11
443.43	5640.69
443.61	5628.99
443.80	5849.00
443.98	5509.62
444.17	5266.21
444.35	5696.86
444.54	5640.69
444.73	5572.82
444.91	5846.66
445.10	5664.10
445.28	5664.10
445.47	5701.54
445.65	5717.93
445.84	5895.81
446.02	5980.07
446.21	5844.32
446.39	5703.89
446.58	5722.61
446.77	5853.68
446.95	5741.33
447.14	5778.78
447.32	5926.24
447.51	5806.87
447.69	5830.27
447.88	5715.59
448.06	5717.93
448.25	5799.85
448.43	5944.96
448.62	5921.56
448.80	5841.98
448.99	5846.66
449.17	5802.19
449.36	5905.17
449.54	6083.05
449.73	6115.82
449.91	6331.15
450.10	6090.07
450.28	6050.28
450.46	6076.03
450.65	6181.35
450.83	6258.59
451.02	6296.04
451.20	6303.06
451.39	6214.12
451.57	6209.44
451.76	6209.44
451.94	6277.32
452.13	6270.30
452.31	6389.66
452.49	6274.98
452.68	6380.30
452.86	6317.11
453.05	6305.40
453.23	6359.24
453.42	6427.11
453.60	6211.78
453.78	6485.62
453.97	6410.73
454.15	6473.92
454.34	6590.95
454.52	6588.61
454.70	6635.42
454.89	6558.18
455.07	6651.80
455.26	6707.98
455.44	6885.86
455.62	6663.51
455.81	6750.10
455.99	6806.28
456.17	6810.96
456.36	6789.89
456.54	6822.66
456.73	6885.86
456.91	7098.84
457.09	7082.46
457.28	7178.42
457.46	7030.97
457.64	7180.76
457.83	7049.69
458.01	7162.04
458.19	7201.83
458.38	7096.50
458.56	7288.43
458.74	7248.64
458.93	7274.38
459.11	7300.13
459.29	7290.77
459.48	7187.79
459.66	7428.86
459.84	7227.57
460.03	7485.03
460.21	7480.35
460.39	7410.14
460.57	7492.05
460.76	7468.65
460.94	7548.23
461.12	7597.38
461.31	7527.16
461.49	7473.33
461.67	7538.87
461.85	7667.60
462.04	7625.47
462.22	8154.43
462.40	7861.86
462.59	7831.43
462.77	7918.03
462.95	7826.75
463.13	7920.37
463.32	7796.32
463.50	7943.78
463.68	8013.99
463.86	8077.19
464.05	7948.46
464.23	7985.91
464.41	8028.04
464.59	7889.95
464.78	8198.90
464.96	7974.21
465.14	7960.16
465.32	8196.56
465.50	8196.56
465.69	8168.47
465.87	8180.17
466.05	8215.28
466.23	8231.66
466.41	8229.32
466.60	8482.10
466.78	8210.60
466.96	8173.15
467.14	8016.33
467.32	8287.84
467.51	8290.18
467.69	8367.42
467.87	8308.90
468.05	8425.93
468.23	8458.70
468.41	8301.88
468.60	8414.23
468.78	8594.45
468.96	8341.67
469.14	8669.34
469.32	8821.48
469.50	8535.93
469.69	8727.86
469.87	8870.63
470.05	8744.24
470.23	8737.22
470.41	8725.52
470.59	9111.71
470.77	8861.27
470.95	9011.06
471.14	9060.21
471.32	8884.67
471.50	9111.71
471.68	9144.47
471.86	9092.98
472.04	9270.86
472.22	9266.18
472.40	9284.91
472.58	9504.92
472.77	9415.98
472.95	9502.58
473.13	9788.12
473.31	9530.66
473.49	9427.68
473.67	9490.87
473.85	9575.13
474.03	9760.03
474.21	9738.97
474.39	9977.70
474.57	10036.22
474.75	9942.60
474.93	9818.55
475.12	10129.84
475.30	10001.11
475.48	10143.88
475.66	10216.44
475.84	10169.63
476.02	10345.17
476.20	10209.42
476.38	10684.55
476.56	10565.18
476.74	10370.91
476.92	10581.56
477.10	10410.70
477.28	10698.59
477.46	10611.99
477.64	10888.17
477.82	11084.78
478.00	11293.08
478.18	11112.86
478.36	11218.19
478.54	11419.47
478.72	11246.27
478.90	11506.07
479.08	11735.45
479.26	11625.44
479.44	11679.27
479.62	11887.58
479.80	11908.65
479.98	11950.78
480.16	12451.65
480.34	12255.04
480.52	12250.36
480.70	12400.16
480.88	12271.43
481.06	12297.17
481.24	12351.01
481.41	12720.81
481.59	12849.54
481.77	12676.34
481.95	12924.44
482.13	13125.72
482.31	13137.43
482.49	13488.51
482.67	13275.52
482.85	13338.71
483.03	13841.93
483.21	13563.40
483.39	13982.36
483.57	13769.37
483.74	14146.20
483.92	14122.79
484.10	14015.13
484.28	14314.72
484.46	14555.79
484.64	15049.64
484.82	14342.80
485.00	14558.13
485.18	15147.95
485.35	14979.43
485.53	15040.28
485.71	15363.28
485.89	15520.09
486.07	15405.41
486.25	15527.11
486.43	15768.19
486.61	15564.56
486.78	16006.92
486.96	15744.78
487.14	16140.33
487.32	16208.21
487.50	16711.42
487.68	16475.03
487.85	16575.67
488.03	16898.67
488.21	16964.20
488.39	17216.98
488.57	17013.35
488.75	17451.03
488.92	17472.10
489.10	17675.73
489.28	17610.19
489.46	17846.58
489.64	17928.50
489.81	18497.25
489.99	18162.56
490.17	18450.44
490.35	18609.60
490.53	18958.34
490.70	18878.76
490.88	18689.18
491.06	19063.66
491.24	18895.14
491.41	18904.51
491.59	19349.21
491.77	19152.60
491.95	19576.24
492.13	19433.47
492.30	19857.10
492.48	19943.70
492.66	19924.98
492.84	19983.49
493.01	20414.15
493.19	20144.99
493.37	20414.15
493.54	20463.30
493.72	20727.78
493.90	20753.53
494.08	21090.57
494.25	21116.31
494.43	20919.71
494.61	21249.72
494.79	21446.33
494.96	21317.60
495.14	21766.98
495.32	21923.80
495.49	22022.10
495.67	21825.50
495.85	22244.45
496.02	22462.12
496.20	22761.71
496.38	22611.92
496.55	22637.66
496.73	23140.88
496.91	22937.25
497.09	23166.62
497.26	23042.57
497.44	23028.53
497.62	23094.07
497.79	23740.05
497.97	23667.50
498.14	23616.01
498.32	23939.00
498.50	23878.15
498.67	24006.87
498.85	23915.59
499.03	24116.88
499.20	24496.05
499.38	24577.97
499.56	24486.68
499.73	24374.34
499.91	24603.71
500.08	25174.80
500.26	24994.58
500.44	24828.40
500.61	24980.54
500.79	24833.08
500.97	25331.62
501.14	25647.59
501.32	25467.37
501.49	25177.14
501.67	25888.67
501.84	25748.23
502.02	25532.90
502.20	25860.58
502.37	25682.70
502.55	25900.37
502.72	25944.84
502.90	26529.97
503.07	26101.65
503.25	26309.96
503.43	26295.92
503.60	26625.93
503.78	27054.25
503.95	26553.38
504.13	26604.87
504.30	26820.20
504.48	27225.11
504.65	27042.55
504.83	26841.26
505.01	27344.48
505.18	27318.73
505.36	27454.48
505.53	27262.56
505.71	27143.19
505.88	27810.25
506.06	27747.05
506.23	27878.12
506.41	27768.12
506.58	28219.84
506.76	28006.85
506.93	27978.76
507.11	28051.32
507.28	28453.89
507.46	28219.84
507.63	28528.79
507.81	28645.82
507.98	28542.83
508.16	28779.23
508.33	28819.02
508.50	28884.55
508.68	28765.18
508.85	29055.41
509.03	29167.76
509.20	29193.50
509.38	29340.96
509.55	29722.46
509.73	29383.09
509.90	29413.51
510.08	29481.39
510.25	29305.85
510.42	29783.32
510.60	29883.96
510.77	30008.01
510.95	30726.55
511.12	30305.26
511.30	30263.13
511.47	30441.01
511.64	30389.52
511.82	30541.65
511.99	30019.71
512.17	31297.64
512.34	30438.67
512.51	31218.07
512.69	30946.56
512.86	31278.92
513.04	31288.28
513.21	31215.72
513.38	31510.63
513.56	31328.07
513.73	31103.38
513.90	31318.71
514.08	31379.56
514.25	31658.09
514.43	31967.04
514.60	32119.17
514.77	31711.92
514.95	32107.47
515.12	31938.95
515.29	31828.95
515.47	32292.37
515.64	32137.90
515.81	32259.60
515.99	32072.36
516.16	32870.48
516.33	32591.96
516.51	33020.28
516.68	32760.48
516.85	32699.62
517.03	32882.19
517.20	33191.14
517.37	32980.49
517.54	33352.63
517.72	33048.36
517.89	33350.29
518.06	33357.32
518.24	33130.28
518.41	33394.76
518.58	33247.31
518.75	33067.09
518.93	33940.11
519.10	33394.76
519.27	33500.09
519.45	33567.96
519.62	34054.79
519.79	33979.90
519.96	34043.09
520.14	33780.95
520.31	33692.01
520.48	33923.72
520.65	33968.19
520.83	34382.47
521.00	34771.00
521.17	34539.29
521.34	34529.92
521.52	34382.47
521.69	34705.46
521.86	35124.42
522.03	35005.05
522.20	34951.22
522.38	35491.88
522.55	35171.23
522.72	35615.93
522.89	35192.30
523.07	35873.39
523.24	35452.09
523.41	35159.53
523.58	35227.40
523.75	35847.64
523.92	35597.21
524.10	35835.94
524.27	35814.88
524.44	35910.84
524.61	35803.17
524.78	35995.10
524.96	36481.93
525.13	36280.64
525.30	36294.69
525.47	36533.42
525.64	36177.66
525.81	36552.15
525.98	36690.24
526.16	36584.91
526.33	36903.23
526.50	36669.17
526.67	36706.62
526.84	36898.55
527.01	36704.28
527.18	36882.16
527.36	36952.38
527.53	37256.65
527.70	37376.01
527.87	37425.17
528.04	37544.53
528.21	37490.70
528.38	37060.04
528.55	37507.08
528.72	37556.24
528.89	37193.45
529.07	37633.47
529.24	37333.89
529.41	38029.02
529.58	37951.79
529.75	37308.14
529.92	37752.84
530.09	37675.60
530.26	37872.21
530.43	38080.52
530.60	37830.08
530.77	37947.11
530.94	37963.49
531.11	38218.61
531.28	38192.86
531.46	38337.98
531.63	38522.88
531.80	38656.29
531.97	38642.24
532.14	38520.54
532.31	38333.29
532.48	38785.02
532.65	39005.03
532.82	39028.43
532.99	39037.80
533.16	38686.71
533.33	39063.54
533.50	39196.95
533.67	39012.05
533.84	38948.85
534.01	39700.17
534.18	38646.93
534.35	39487.18
534.52	39969.33
534.69	39243.76
534.86	39725.91
535.03	39503.56
535.20	39496.54
535.37	39824.22
535.54	40116.78
535.71	39576.12
535.88	39742.30
536.05	40069.97
536.22	39651.02
536.38	39704.85
536.55	40137.85
536.72	40074.65
536.89	39700.17
537.06	39920.18
537.23	40989.80
537.40	39697.83
537.57	40259.55
537.74	40243.17
537.91	40921.93
538.08	40163.59
538.25	40194.02
538.42	40690.21
538.59	40905.54
538.75	40095.72
538.92	40720.64
539.09	40835.33
539.26	41008.53
539.43	40456.16
539.60	40910.22
539.77	41045.97
539.94	41085.76
540.11	41401.74
540.28	41123.21
540.44	41186.41
540.61	40725.32
540.78	40947.67
540.95	40992.14
541.12	40961.72
541.29	41373.65
541.46	41354.93
541.62	41207.47
541.79	41549.19
541.96	40900.86
542.13	40964.06
542.30	41090.44
542.47	41846.44
542.63	41429.82
542.80	42263.05
542.97	42227.95
543.14	42370.72
543.31	42078.15
543.48	42094.53
543.64	42492.43
543.81	42389.44
543.98	42146.03
544.15	42319.23
544.32	42368.38
544.48	42485.40
544.65	42749.88
544.82	42588.39
544.99	42501.79
545.16	42670.31
545.32	42621.16
545.49	42993.30
545.66	42773.29
545.83	42899.68
546.00	43501.20
546.16	42674.99
546.33	42405.83
546.50	42490.09
546.67	42857.55
546.83	42557.96
547.00	43093.94
547.17	42796.70
547.34	43107.99
547.50	43091.60
547.67	43526.94
547.84	43339.70
548.00	43201.61
548.17	43676.74
548.34	43264.80
548.51	43871.00
548.67	43374.81
548.84	43908.45
549.01	43136.07
549.18	43285.87
549.34	43665.03
549.51	43538.65
549.68	43929.51
549.84	43929.51
550.01	43847.60
550.18	43796.10
550.34	43810.15
550.51	43955.26
550.68	44121.44
550.84	43697.80
551.01	44023.14
551.18	43969.30
551.34	44062.93
551.51	44172.93
551.68	44299.32
551.84	44875.09
552.01	44203.36
552.18	44552.10
552.34	43985.69
552.51	44252.51
552.68	44027.82
552.84	44280.60
553.01	44458.48
553.18	44179.95
553.34	44662.10
553.51	44395.28
553.67	44624.65
553.84	44685.51
554.01	44914.88
554.17	44650.40
554.34	44341.45
554.51	44727.64
554.67	45165.32
554.84	44790.83
555.00	44793.17
555.17	44584.86
555.33	44657.42
555.50	44849.35
555.67	44952.33
555.83	45184.04
556.00	45099.78
556.16	45291.71
556.33	44959.35
556.50	44968.71
556.66	45500.01
556.83	45045.95
556.99	45549.17
557.16	45453.20
557.32	45366.60
557.49	45385.33
557.65	45408.73
557.82	45298.73
557.98	45801.94
558.15	45453.20
558.32	45586.61
558.48	45322.13
558.65	45710.66
558.81	45478.95
558.98	45507.04
559.14	45535.12
559.31	45375.97
559.47	45570.23
559.64	45792.58
559.80	45883.86
559.97	45820.67
560.13	45687.26
560.30	46031.32
560.46	45734.07
560.63	45808.96
560.79	45883.86
560.96	45640.45
561.12	45949.40
561.29	46099.19
561.45	46209.20
561.61	46012.59
561.78	45867.48
561.94	46387.08
562.11	45631.08
562.27	45928.33
562.44	46073.45
562.60	45886.20
562.77	46211.54
562.93	45940.04
563.10	46459.63
563.26	46026.63
563.42	46511.13
563.59	46480.70
563.75	46054.72
563.92	46560.28
564.08	46464.32
564.24	46134.30
564.41	46265.37
564.57	46597.73
564.74	46358.99
564.90	46263.03
565.07	46380.06
565.23	46419.84
565.39	46328.56
565.56	46223.24
565.72	46382.40
565.88	46536.87
566.05	46546.23
566.21	46483.04
566.38	46417.50
566.54	46665.60
566.70	46536.87
566.87	46663.26
567.03	46256.01
567.19	46902.00
567.36	46457.29
567.52	46389.42
567.68	47269.46
567.85	46607.09
568.01	46925.40
568.17	46698.37
568.34	46897.31
568.50	47112.64
568.66	46969.87
568.83	46539.21
568.99	46754.54
569.15	46658.58
569.32	46766.24
569.48	46593.04
569.64	46869.23
569.81	46885.61
569.97	46981.57
570.13	47428.62
570.30	46862.21
570.46	47267.12
570.62	47409.89
570.78	47068.17
570.95	46969.87
571.11	47419.25
571.27	47007.32
571.43	46777.95
571.60	47026.04
571.76	47124.35
571.92	47082.22
572.09	47098.60
572.25	47112.64
572.41	46595.38
572.57	47014.34
572.74	47573.73
572.90	46822.42
573.06	47393.51
573.22	47430.96
573.38	47175.84
573.55	47030.72
573.71	47709.48
573.87	47377.12
574.03	47004.98
574.20	47613.52
574.36	47157.11
574.52	47419.25
574.68	47086.90
574.84	47288.18
575.01	47112.64
575.17	47515.22
575.33	47042.43
575.49	47206.26
575.65	47117.32
575.82	47342.02
575.98	46969.87
576.14	47091.58
576.30	47515.22
576.46	47192.22
576.62	47564.37
576.79	47339.68
576.95	46920.72
577.11	47398.19
577.27	46843.48
577.43	47466.06
577.59	47250.74
577.75	47220.31
577.92	47384.15
578.08	47470.75
578.24	47388.83
578.40	47693.10
578.56	47555.00
578.72	48032.47
578.88	47388.83
579.04	47648.63
579.21	47105.62
579.37	47547.98
579.53	47522.24
579.69	47384.15
579.85	47445.00
580.01	47290.52
580.17	47316.27
580.33	47585.43
580.49	47405.21
580.65	47629.90
580.82	47709.48
580.98	47662.67
581.14	47426.28
581.30	47597.13
581.46	47194.56
581.62	47393.51
581.78	47124.35
581.94	47470.75
582.10	47285.84
582.26	47746.93
582.42	47356.06
582.58	47744.59
582.74	47655.65
582.90	47667.35
583.06	47480.11
583.22	47765.65
583.38	47475.43
583.54	47786.72
583.70	47690.76
583.86	47765.65
584.02	47452.02
584.18	48044.18
584.34	47489.47
584.50	47899.06
584.66	47508.19
584.82	47842.89
584.98	48133.12
585.14	48116.73
585.30	47290.52
585.46	47723.52
585.62	47693.10
585.78	47999.71
585.94	47615.86
586.10	47606.50
586.26	47622.88
586.42	47501.17
586.58	47725.86
586.74	47550.32
586.90	47826.51
587.06	47971.62
587.22	47870.98
587.38	47615.86
587.54	48048.86
587.70	47842.89
587.86	48158.86
588.02	47367.76
588.18	47805.44
588.34	47746.93
588.49	48055.88
588.65	47777.36
588.81	47859.27
588.97	47901.40
589.13	47646.29
589.29	47681.39
589.45	48233.76
589.61	47826.51
589.77	47742.25
589.93	47831.19
590.08	48273.55
590.24	48107.37
590.40	48439.73
590.56	48547.39
590.72	48074.60
590.88	48041.84
591.04	48102.69
591.20	48470.15
591.35	47772.67
591.51	48514.62
591.67	48362.49
591.83	48563.78
591.99	48282.91
592.15	48081.63
592.31	48512.28
592.46	47519.90
592.62	47707.14
592.78	48392.92
592.94	48301.64
593.10	48425.68
593.26	48306.32
593.41	48289.93
593.57	48512.28
593.73	48142.48
593.89	48704.21
594.05	48715.91
594.20	48545.05
594.36	48924.22
594.52	48779.10
594.68	48367.17
594.84	48502.92
594.99	48706.55
595.15	48488.88
595.31	48573.14
595.47	48051.20
595.62	48294.61
595.78	48413.98
595.94	48821.23
596.10	48488.88
596.25	48648.03
596.41	48498.24
596.57	48428.02
596.73	48582.50
596.88	48533.35
597.04	48154.18
597.20	48332.06
597.36	48210.35
597.51	48315.68
597.67	47957.58
597.83	48715.91
597.99	48591.86
598.14	48133.12
598.30	48336.74
598.46	48491.22
598.61	48978.05
598.77	48158.86
598.93	48552.07
599.09	48545.05
599.24	48987.41
599.40	48463.13
599.56	48687.82
599.71	48931.24
599.87	48980.39
600.03	48598.88
600.18	48285.25
600.34	48612.93
600.50	48800.17
600.65	48561.44
600.81	49230.83
600.97	48898.47
601.12	48786.13
601.28	48177.59
601.44	48521.65
601.59	48725.27
601.75	48430.36
601.91	49354.88
602.06	48299.30
602.22	48664.42
602.37	48549.73
602.53	48751.02
602.69	48531.01
602.84	48931.24
603.00	48531.01
603.16	48657.40
603.31	48388.24
603.47	48854.00
603.62	48652.72
603.78	48816.55
603.94	48835.28
604.09	48591.86
604.25	48919.54
604.40	47948.21
604.56	48432.71
604.71	49092.74
604.87	48428.02
605.03	48556.75
605.18	48411.64
605.34	48273.55
605.49	48275.89
605.65	48456.11
605.80	48198.65
605.96	48222.06
606.12	48205.67
606.27	48736.98
606.43	48566.12
606.58	48622.29
606.74	48289.93
606.89	48315.68
607.05	48800.17
607.20	48697.19
607.36	48343.77
607.51	48596.54
607.67	48032.47
607.82	48292.27
607.98	48505.26
608.13	48421.00
608.29	48144.82
608.44	48472.49
608.60	48685.48
608.75	48025.45
608.91	48311.00
609.06	47920.13
609.22	48481.86
609.37	48629.31
609.53	48673.78
609.68	48329.72
609.84	48123.75
609.99	48409.30
610.15	48456.11
610.30	48329.72
610.46	48657.40
610.61	48559.09
610.76	48624.63
610.92	47913.11
611.07	48320.36
611.23	48016.09
611.38	48362.49
611.54	48217.38
611.69	48247.80
611.84	48189.29
612.00	48177.59
612.15	48168.22
612.31	48371.85
612.46	48051.20
612.62	48088.65
612.77	48034.81
612.92	48350.79
613.08	47945.87
613.23	48259.51
613.39	48062.90
613.54	47676.71
613.69	48385.89
613.85	47428.62
614.00	48039.50
614.15	48252.48
614.31	47990.34
614.46	47927.15
614.62	47468.40
614.77	47686.07
614.92	47803.10
615.08	47938.85
615.23	48076.94
615.38	47796.08
615.54	47906.08
615.69	47889.70
615.84	47962.26
616.00	47948.21
616.15	47988.00
616.30	47620.54
616.46	48067.58
616.61	47772.67
616.76	47552.66
616.92	48055.88
617.07	47880.34
617.22	47585.43
617.37	47395.85
617.53	47494.15
617.68	47657.99
617.83	47601.82
617.99	47536.28
618.14	47325.63
618.29	48025.45
618.45	47182.86
618.60	47367.76
618.75	47105.62
618.90	47262.44
619.06	47292.86
619.21	47313.93
619.36	47288.18
619.51	47327.97
619.67	46974.55
619.82	47072.85
619.97	47412.23
620.12	47091.58
620.28	47297.55
620.43	47370.10
620.58	47452.02
620.73	47473.09
620.89	47686.07
621.04	47295.21
621.19	47072.85
621.34	47079.88
621.49	46990.94
621.65	47281.16
621.80	47484.79
621.95	47346.70
622.10	47611.18
622.25	46754.54
622.41	46995.62
622.56	47112.64
622.71	46803.69
622.86	47033.07
623.01	46988.60
623.16	46972.21
623.32	46843.48
623.47	46990.94
623.62	46653.90
623.77	47096.26
623.92	46754.54
624.07	46871.57
624.23	46763.90
624.38	47007.32
624.53	47049.45
624.68	46419.84
624.83	46710.07
624.98	46490.06
625.13	46220.90
625.29	46658.58
625.44	46513.47
625.59	46499.42
625.74	46230.26
625.89	46487.72
626.04	46288.77
626.19	46710.07
626.34	46319.20
626.49	46260.69
626.65	45930.67
626.80	46777.95
626.95	45944.72
627.10	45851.09
627.25	46344.95
627.40	46326.22
627.55	46417.50
627.70	46204.52
627.85	46557.94
628.00	46431.55
628.15	46536.87
628.30	45258.94
628.45	45397.03
628.60	45455.54
628.76	45745.77
628.91	45961.10
629.06	45743.43
629.21	46176.43
629.36	45787.90
629.51	45677.90
629.66	46623.47
629.81	46028.98
629.96	45823.01
630.11	45862.80
630.26	45759.81
630.41	45942.38
630.56	45626.40
630.71	45628.74
630.86	45860.46
631.01	45312.77
631.16	45701.30
631.31	45415.76
631.46	45684.92
631.61	45792.58
631.76	45741.09
631.91	45535.12
632.06	45778.54
632.21	45612.36
632.36	46066.42
632.51	45207.45
632.66	45738.75
632.81	45680.24
632.96	45731.73
633.10	45083.40
633.25	45387.67
633.40	45588.95
633.55	45591.30
633.70	45301.07
633.85	44811.90
634.00	44928.92
634.15	45027.23
634.30	44835.30
634.45	44952.33
634.60	44856.37
634.75	45270.64
634.90	44807.22
635.05	44999.14
635.19	45167.66
635.34	44514.65
635.49	45055.31
635.64	45172.34
635.79	45155.96
635.94	44839.98
636.09	45443.84
636.24	45165.32
636.39	45109.14
636.53	45284.68
636.68	44488.90
636.83	44275.91
636.98	44561.46
637.13	44596.57
637.28	44643.38
637.43	44130.80
637.57	44938.29
637.72	44498.26
637.87	44229.10
638.02	44900.84
638.17	44687.85
638.32	44381.24
638.46	43775.04
638.61	44701.89
638.76	44388.26
638.91	44526.35
639.06	44437.41
639.20	44037.18
639.35	44308.68
639.50	44238.47
639.65	44708.91
639.80	44126.12
639.94	44552.10
640.09	44659.76
640.24	44449.11
640.39	44158.89
640.54	43922.49
640.68	43978.67
640.83	44208.04
640.98	43742.27
641.13	43587.80
641.27	43882.70
641.42	44009.09
641.57	44196.34
641.72	44327.41
641.86	44102.71
642.01	44179.95
642.16	43768.02
642.31	43325.66
642.45	43868.66
642.60	43782.06
642.75	43868.66
642.90	43819.51
643.04	44002.07
643.19	43915.47
643.34	43494.18
643.48	43484.81
643.63	43459.07
643.78	43985.69
643.93	43866.32
644.07	43543.33
644.22	43505.88
644.37	43381.83
644.51	43674.40
644.66	43213.31
644.81	43604.18
644.95	43751.63
645.10	43739.93
645.25	43271.82
645.39	43019.05
645.54	43494.18
645.69	43028.41
645.83	42876.27
645.98	42866.91
646.13	42953.51
646.27	43281.19
646.42	42857.55
646.57	43147.78
646.71	43281.19
646.86	43374.81
647.00	43246.08
647.15	43243.74
647.30	43161.82
647.44	43021.39
647.59	42749.88
647.74	42740.52
647.88	42958.19
648.03	43065.86
648.17	43313.95
648.32	43136.07
648.47	43012.02
648.61	42990.96
648.76	43126.71
648.90	42801.38
649.05	42344.97
649.20	42817.76
649.34	42707.76
649.49	42801.38
649.63	42700.73
649.78	42672.65
649.92	42969.90
650.07	43325.66
650.21	43035.43
650.36	42958.19
650.51	42527.53
650.65	42621.16
650.80	42946.49
650.94	42520.51
651.09	42815.42
651.23	42021.98
651.38	42141.35
651.52	42005.59
651.67	42021.98
651.81	42211.56
651.96	42403.49
652.10	42309.86
652.25	41827.71
652.39	42232.63
652.54	42347.31
652.68	41855.80
652.83	42216.24
652.97	42073.47
653.12	42342.63
653.26	42174.11
653.41	42057.09
653.55	42010.28
653.70	42054.75
653.84	42134.32
653.99	41996.23
654.13	41790.27
654.27	41991.55
654.42	41979.85
654.56	42122.62
654.71	42146.03
654.85	42047.72
655.00	41890.91
655.14	41928.36
655.29	42052.41
655.43	42471.36
655.57	41900.27
655.72	41366.63
655.86	41844.10
656.01	41546.85
656.15	41294.07
656.30	41277.69
656.44	41553.87
656.58	41268.33
656.73	41895.59
656.87	40669.15
657.01	40917.25
657.16	41275.35
657.30	41603.02
657.45	41399.40
657.59	41202.79
657.73	40865.75
657.88	41031.93
658.02	40964.06
658.16	41663.88
658.31	41277.69
658.45	41277.69
658.60	40779.15
658.74	41020.23
658.88	41139.60
659.03	40816.60
659.17	41163.00
659.31	40863.41
659.46	40893.84
659.60	40847.03
659.74	40311.05
659.89	40657.45
660.03	40154.23
660.17	40297.00
660.32	40568.51
660.46	40577.87
660.60	39873.37
660.74	39999.76
660.89	40226.79
661.03	39889.75
661.17	40119.12
661.32	40369.56
661.46	40091.04
661.60	39676.76
661.74	39786.77
661.89	39901.45
662.03	39686.12
662.17	39849.96
662.31	39779.74
662.46	39632.29
662.60	39201.63
662.74	39215.68
662.88	39241.42
663.03	39351.43
663.17	39110.35
663.31	39335.04
663.45	39225.04
663.60	39709.53
663.74	38937.15
663.88	39508.24
664.02	39363.13
664.17	39482.50
664.31	39342.06
664.45	38838.85
664.59	38829.49
664.73	38728.84
664.88	38682.03
665.02	38824.81
665.16	38415.21
665.30	38979.28
665.44	38862.26
665.59	38607.14
665.73	38447.98
665.87	38157.75
666.01	38246.69
666.15	38375.42
666.29	38370.74
666.44	38335.63
666.58	38370.74
666.72	38157.75
666.86	37855.82
667.00	37916.68
667.14	38188.18
667.28	37851.14
667.43	37914.34
667.57	38178.82
667.71	38447.98
667.85	37809.01
667.99	37801.99
668.13	37666.24
668.27	37493.04
668.41	37221.54
668.56	36669.17
668.70	37050.68
668.84	37017.91
668.98	36968.76
669.12	37343.25
669.26	36893.86
669.40	36961.74
669.54	37308.14
669.68	37031.96
669.82	36706.62
669.96	36706.62
670.10	36605.98
670.25	36940.68
670.39	36575.55
670.53	36598.96
670.67	36524.06
670.81	36868.12
670.95	36268.94
671.09	36435.12
671.23	35917.86
671.37	36266.60
671.51	35997.44
671.65	35906.16
671.79	35915.52
671.93	36084.04
672.07	36004.46
672.21	35817.22
672.35	35955.31
672.49	35723.60
672.63	35564.44
672.77	35105.70
672.91	35793.81
673.05	35192.30
673.19	35257.83
673.33	35091.65
673.47	35299.96
673.61	35110.38
673.75	34782.70
673.89	34850.58
674.03	34497.16
674.17	34019.69
674.31	34117.99
674.45	34284.17
674.59	34782.70
674.73	34125.01
674.87	34225.65
675.01	34246.72
675.15	33574.98
675.29	33900.32
675.43	33696.69
675.56	33893.30
675.70	33706.05
675.84	33268.37
675.98	32430.46
676.12	33467.32
676.26	33362.00
676.40	33666.27
676.54	33186.46
676.68	33160.71
676.82	32603.66
676.96	32767.50
677.10	32950.06
677.23	32982.83
677.37	32435.14
677.51	32708.99
677.65	32128.53
677.79	32128.53
677.93	31990.44
678.07	32144.92
678.21	32095.77
678.34	31555.10
678.48	31658.09
678.62	31718.94
678.76	31468.50
678.90	31129.12
679.04	31379.56
679.18	31686.17
679.31	31592.55
679.45	31337.43
679.59	30745.28
679.73	31192.32
679.87	30703.15
680.00	30829.54
680.14	30913.80
680.28	30794.43
680.42	30520.59
680.56	30565.06
680.70	30251.42
680.83	30246.74
680.97	29965.88
681.11	30206.95
681.25	29741.19
681.39	29432.24
681.52	29851.19
681.66	29237.97
681.80	29027.32
681.94	29013.28
682.07	28996.90
682.21	28905.62
682.35	29055.41
682.49	29195.84
682.62	28814.34
682.76	29132.65
682.90	28704.33
683.04	28582.62
683.17	28751.14
683.31	28079.41
683.45	28039.62
683.59	27967.06
683.72	28318.14
683.86	28261.97
684.00	28107.49
684.13	28292.40
684.27	27676.83
684.41	27370.22
684.55	27351.50
684.68	27344.48
684.82	27475.55
684.96	27292.99
685.09	27044.89
685.23	26948.93
685.37	27676.83
685.50	27428.74
685.64	27147.87
685.78	26979.36
685.91	26623.59
686.05	26438.69
686.19	26164.85
686.32	26150.81
686.46	25860.58
686.60	25764.62
686.73	25958.88
686.87	26059.52
687.01	25975.27
687.14	25975.27
687.28	25703.76
687.42	25699.08
687.55	25399.49
687.69	25577.37
687.82	24959.47
687.96	25127.99
688.10	25127.99
688.23	25273.10
688.37	25291.83
688.50	25097.56
688.64	24940.75
688.78	24587.33
688.91	24884.58
689.05	24587.33
689.18	24084.11
689.32	24009.22
689.46	23852.40
689.59	23847.72
689.73	24231.57
689.86	24077.09
690.00	24271.36
690.13	23915.59
690.27	23381.95
690.41	23681.54
690.54	23068.32
690.68	23068.32
690.81	23274.29
690.95	23171.30
691.08	22970.02
691.22	22820.22
691.35	22595.53
691.49	22841.29
691.62	22728.94
691.76	22698.52
691.89	22471.48
692.03	22033.80
692.16	22232.75
692.30	22160.19
692.43	21961.25
692.57	22080.61
692.70	21909.75
692.84	21638.25
692.97	21715.49
693.11	21261.43
693.24	21439.31
693.38	21418.24
693.51	21132.70
693.65	21060.14
693.78	21376.11
693.92	20833.11
694.05	20835.45
694.19	20795.66
694.32	20702.04
694.45	21041.42
694.59	20863.54
694.72	20755.87
694.86	20795.66
694.99	20346.28
695.13	20039.67
695.26	19988.18
695.39	20121.59
695.53	19653.48
695.66	19704.97
695.80	19852.42
695.93	19658.16
696.07	19829.02
696.20	19091.75
696.33	18801.52
696.47	19030.90
696.60	19304.74
696.73	19091.75
696.87	18932.59
697.00	18977.06
697.14	18810.89
697.27	18890.46
697.40	18712.58
697.54	18691.52
697.67	18778.12
697.80	18649.39
697.94	18553.43
698.07	18361.50
698.21	18244.48
698.34	18068.94
698.47	18099.36
698.61	17802.11
698.74	17390.18
698.87	17778.71
699.01	17493.16
699.14	17682.75
699.27	17549.34
699.40	17324.65
699.54	17326.99
699.67	17364.43
699.80	17170.17
699.94	17114.00
700.07	17249.75
700.20	17034.42
700.34	16922.07
700.47	16629.51
700.60	16992.29
700.73	16542.91
700.87	16643.55
701.00	16563.97
701.13	16362.69
701.26	16121.61
701.40	16269.06
701.53	16098.20
701.66	16367.37
701.79	16030.33
701.93	15704.99
702.06	15988.20
702.19	15723.72
702.32	15826.70
702.46	15545.84
702.59	16020.97
702.72	15744.78
702.85	15686.27
702.99	15768.19
703.12	15253.27
703.25	15236.89
703.38	15044.96
703.51	15131.56
703.65	15257.95
703.78	14993.47
703.91	14661.12
704.04	14747.72
704.17	14394.29
704.31	14712.61
704.44	14888.15
704.57	14607.28
704.70	14237.48
704.83	14377.91
704.96	14207.05
705.10	14057.26
705.23	14115.77
>>>>>End Processed Spectral Data<<<<<
