SpectraSuite Data File
++++++++++++++++++++++++++++++++++++
Date: Fri Oct 25 11:33:48 EDT 2013
User: price-jones
Dark Spectrum Present: No
Reference Spectrum Present: No
Number of Sampled Component Spectra: 1
Spectrometers: USB2+H05261
Integration Time (usec): 100000 (USB2+H05261)
Spectra Averaged: 1 (USB2+H05261)
Boxcar Smoothing: 0 (USB2+H05261)
Correct for Electrical Dark: No (USB2+H05261)
Strobe/Lamp Enabled: No (USB2+H05261)
Correct for Detector Non-linearity: No (USB2+H05261)
Correct for Stray Light: No (USB2+H05261)
Number of Pixels in Processed Spectrum: 2048
>>>>>Begin Processed Spectral Data<<<<<
365.73	290.23
365.92	290.23
366.12	290.23
366.32	173.20
366.52	170.86
366.72	201.29
366.91	154.48
367.11	119.37
367.31	236.39
367.51	198.95
367.70	152.13
367.90	208.31
368.10	173.20
368.30	159.16
368.49	208.31
368.69	184.90
368.89	224.69
369.09	262.14
369.28	248.10
369.48	135.75
369.68	201.29
369.87	208.31
370.07	266.82
370.27	252.78
370.47	334.70
370.66	440.02
370.86	517.26
371.06	510.24
371.25	587.47
371.45	482.15
371.65	592.16
371.84	564.07
372.04	573.43
372.24	526.62
372.44	561.73
372.63	592.16
372.83	601.52
373.03	627.26
373.22	550.03
373.42	575.77
373.62	613.22
373.81	655.35
374.01	578.11
374.21	645.99
374.40	653.01
374.60	723.23
374.79	615.56
374.99	704.50
375.19	716.20
375.38	582.79
375.58	678.76
375.78	692.80
375.97	695.14
376.17	697.48
376.37	678.76
376.56	624.92
376.76	624.92
376.95	645.99
377.15	711.52
377.35	697.48
377.54	704.50
377.74	631.94
377.93	702.16
378.13	772.38
378.33	725.57
378.52	739.61
378.72	741.95
378.91	737.27
379.11	627.26
379.31	755.99
379.50	627.26
379.70	716.20
379.89	711.52
380.09	676.41
380.28	751.31
380.48	732.59
380.68	788.76
380.87	725.57
381.07	786.42
381.26	802.80
381.46	821.53
381.65	727.91
381.85	781.74
382.04	699.82
382.24	730.25
382.43	823.87
382.63	753.65
382.83	793.44
383.02	770.04
383.22	781.74
383.41	751.31
383.61	835.57
383.80	833.23
384.00	758.33
384.19	835.57
384.39	866.00
384.58	821.53
384.78	847.27
384.97	819.19
385.17	877.70
385.36	884.72
385.56	793.44
385.75	800.46
385.95	812.17
386.14	877.70
386.34	739.61
386.53	774.72
386.72	812.17
386.92	898.77
387.11	915.15
387.31	830.89
387.50	866.00
387.70	826.21
387.89	929.19
388.09	896.43
388.28	884.72
388.48	898.77
388.67	936.21
388.86	943.24
389.06	908.13
389.25	901.11
389.45	952.60
389.64	959.62
389.84	938.55
390.03	1006.43
390.22	922.17
390.42	973.66
390.61	1008.77
390.81	933.87
391.00	978.34
391.19	1013.45
391.39	1006.43
391.58	1036.86
391.78	987.71
391.97	978.34
392.16	961.96
392.36	1093.03
392.55	1097.71
392.75	1083.67
392.94	1001.75
393.13	1078.99
393.33	1032.18
393.52	1156.22
393.71	1064.94
393.91	1057.92
394.10	1039.20
394.29	1027.50
394.49	1130.48
394.68	1057.92
394.88	1118.78
395.07	1097.71
395.26	1135.16
395.46	1214.74
395.65	1193.67
395.84	1163.25
396.04	1270.91
396.23	1210.06
396.42	1184.31
396.62	1153.88
396.81	1270.91
397.00	1217.08
397.19	1196.01
397.39	1142.18
397.58	1345.81
397.77	1270.91
397.97	1308.36
398.16	1212.40
398.35	1270.91
398.55	1317.72
398.74	1277.93
398.93	1315.38
399.12	1310.70
399.32	1306.02
399.51	1327.08
399.70	1263.89
399.90	1327.08
400.09	1310.70
400.28	1462.83
400.47	1299.00
400.67	1458.15
400.86	1420.71
401.05	1444.11
401.24	1432.41
401.44	1437.09
401.63	1472.20
401.82	1409.00
402.01	1383.26
402.21	1427.73
402.40	1474.54
402.59	1495.60
402.78	1535.39
402.97	1481.56
403.17	1572.84
403.36	1558.80
403.55	1521.35
403.74	1647.74
403.93	1614.97
404.13	1605.61
404.32	1621.99
404.51	1607.95
404.70	1589.22
404.89	1694.55
405.09	1689.87
405.28	1626.67
405.47	1715.61
405.66	1680.50
405.85	1736.68
406.05	1734.34
406.24	1732.00
406.43	1760.08
406.62	1902.86
406.81	1863.07
407.00	1820.94
407.20	1804.55
407.39	1778.81
407.58	1795.19
407.77	1916.90
407.96	1884.13
408.15	1916.90
408.34	1809.23
408.54	1947.33
408.73	1909.88
408.92	2003.50
409.11	1937.96
409.30	1947.33
409.49	2066.69
409.68	1975.41
409.87	1994.14
410.07	2005.84
410.26	1994.14
410.45	2001.16
410.64	2097.12
410.83	2223.51
411.02	2106.48
411.21	2214.15
411.40	2232.87
411.59	2244.57
411.78	2078.40
411.98	2195.42
412.17	2211.81
412.36	2312.45
412.55	2214.15
412.74	2375.64
412.93	2305.43
413.12	2338.20
413.31	2490.33
413.50	2392.03
413.69	2459.90
413.88	2506.71
414.07	2354.58
414.26	2399.05
414.45	2445.86
414.64	2530.12
414.83	2534.80
415.02	2698.64
415.22	2708.00
415.41	2733.75
415.60	2649.49
415.79	2668.21
415.98	2684.59
416.17	2719.70
416.36	2656.51
416.55	2754.81
416.74	2883.54
416.93	2743.11
417.12	2841.41
417.31	2803.96
417.50	2794.60
417.69	2998.23
417.88	3075.46
418.07	2946.73
418.26	3030.99
418.45	2935.03
418.64	3117.59
418.83	3000.57
419.02	2848.43
419.21	3091.85
419.39	3019.29
419.58	3091.85
419.77	3070.78
419.96	3197.17
420.15	3169.09
420.34	3115.25
420.53	3192.49
420.72	3246.32
420.91	3220.58
421.10	3400.80
421.29	3440.59
421.48	3279.09
421.67	3295.47
421.86	3325.90
422.05	3283.77
422.24	3274.41
422.43	3433.57
422.61	3410.16
422.80	3473.36
422.99	3372.71
423.18	3424.20
423.37	3419.52
423.56	3335.26
423.75	3478.04
423.94	3279.09
424.13	3218.24
424.32	3236.96
424.50	3419.52
424.69	3468.67
424.88	3536.55
425.07	3368.03
425.26	3344.63
425.45	3279.09
425.64	3468.67
425.83	3442.93
426.01	3478.04
426.20	3400.80
426.39	3428.88
426.58	3524.85
426.77	3377.39
426.96	3578.68
427.15	3545.91
427.33	3534.21
427.52	3611.45
427.71	3709.75
427.90	3686.34
428.09	3662.94
428.28	3723.79
428.46	3644.21
428.65	3674.64
428.84	3826.78
429.03	3761.24
429.22	3658.26
429.40	3698.05
429.59	3763.58
429.78	3648.90
429.97	3737.84
430.16	3756.56
430.34	3899.33
430.53	3772.94
430.72	3840.82
430.91	3808.05
431.10	3784.65
431.28	4016.36
431.47	3981.25
431.66	3971.89
431.85	3934.44
432.03	4046.79
432.22	4140.41
432.41	4039.76
432.60	4133.39
432.79	4077.21
432.97	4168.49
433.16	4081.89
433.35	4077.21
433.54	4081.89
433.72	4100.62
433.91	4257.43
434.10	4243.39
434.28	4163.81
434.47	4229.35
434.66	4322.97
434.85	4255.09
435.03	4250.41
435.22	4304.25
435.41	4540.64
435.59	4259.78
435.78	4355.74
435.97	4491.49
436.16	4432.97
436.34	4393.19
436.53	4491.49
436.72	4552.34
436.90	4470.42
437.09	4620.22
437.28	4561.70
437.46	4578.09
437.65	4498.51
437.84	4582.77
438.02	4645.96
438.21	4500.85
438.40	4535.96
438.58	4812.14
438.77	4777.03
438.96	4660.01
439.14	4765.33
439.33	4894.06
439.52	4830.87
439.70	4901.08
439.89	4997.04
440.08	4971.30
440.26	5027.47
440.45	5011.09
440.63	4940.87
440.82	5111.73
441.01	5069.60
441.19	5217.05
441.38	5495.58
441.57	5327.06
441.75	5437.06
441.94	5334.08
442.12	5413.66
442.31	5526.00
442.50	5448.77
442.68	5270.89
442.87	5479.19
443.05	5486.22
443.24	5547.07
443.43	5537.71
443.61	5598.56
443.80	5628.99
443.98	5423.02
444.17	5205.35
444.35	5558.77
444.54	5687.50
444.73	5706.23
444.91	5547.07
445.10	5750.70
445.28	5790.49
445.47	5530.69
445.65	5708.57
445.84	5699.20
446.02	5722.61
446.21	5764.74
446.39	5666.44
446.58	5771.76
446.77	5827.93
446.95	5612.60
447.14	5753.04
447.32	5802.19
447.51	5675.80
447.69	5731.97
447.88	5776.44
448.06	5722.61
448.25	5790.49
448.43	5741.33
448.62	5853.68
448.80	5788.14
448.99	5893.47
449.17	5797.51
449.36	5944.96
449.54	6083.05
449.73	6005.81
449.91	6122.84
450.10	6298.38
450.28	5991.77
450.46	6080.71
450.65	6122.84
450.83	6071.35
451.02	6076.03
451.20	6387.32
451.39	6256.25
451.57	6125.18
451.76	6258.59
451.94	6073.69
452.13	6392.00
452.31	6207.10
452.49	6160.29
452.68	6272.64
452.86	6188.38
453.05	6282.00
453.23	6277.32
453.42	6314.77
453.60	6286.68
453.78	6387.32
453.97	6436.47
454.15	6539.46
454.34	6532.44
454.52	6672.87
454.70	6588.61
454.89	6562.86
455.07	6693.93
455.26	6441.15
455.44	6867.13
455.62	6825.00
455.81	6602.65
455.99	6684.57
456.17	6705.63
456.36	6949.05
456.54	6869.47
456.73	6885.86
456.91	7075.44
457.09	6970.12
457.28	7136.29
457.46	7016.93
457.64	7105.87
457.83	7068.42
458.01	7070.76
458.19	7206.51
458.38	7035.65
458.56	7157.36
458.74	7279.07
458.93	7335.24
459.11	7155.02
459.29	7185.44
459.48	7211.19
459.66	7386.73
459.84	7283.75
460.03	7559.93
460.21	7377.37
460.39	7194.81
460.57	7473.33
460.76	7452.27
460.94	7630.15
461.12	7527.16
461.31	7538.87
461.49	7557.59
461.67	7531.84
461.85	7632.49
462.04	7569.29
462.22	8224.64
462.40	7936.76
462.59	7644.19
462.77	7695.68
462.95	7901.65
463.13	7749.51
463.32	7644.19
463.50	7747.17
463.68	8002.29
463.86	8030.38
464.05	7854.84
464.23	7756.54
464.41	8016.33
464.59	7688.66
464.78	8180.17
464.96	7934.42
465.14	7901.65
465.32	8063.15
465.50	8138.04
465.69	8203.58
465.87	8126.34
466.05	8128.68
466.23	8224.64
466.41	8119.32
466.60	8379.12
466.78	8212.94
466.96	8294.86
467.14	8121.66
467.32	8222.30
467.51	8411.89
467.69	8269.11
467.87	8269.11
468.05	8381.46
468.23	8362.73
468.41	8177.83
468.60	8542.96
468.78	8449.33
468.96	8599.13
469.14	8538.27
469.32	8578.06
469.50	8645.94
469.69	8638.92
469.87	8758.28
470.05	8784.03
470.23	8769.99
470.41	8875.31
470.59	8802.75
470.77	8919.78
470.95	8842.54
471.14	9153.84
471.32	8697.43
471.50	9041.49
471.68	9008.72
471.86	9020.42
472.04	9177.24
472.22	9172.56
472.40	9221.71
472.58	9109.36
472.77	9217.03
472.95	9357.46
473.13	9631.30
473.31	9558.75
473.49	9266.18
473.67	9511.94
473.85	9371.50
474.03	9694.50
474.21	9729.61
474.39	9820.89
474.57	9851.31
474.75	10012.81
474.93	10003.45
475.12	9848.97
475.30	10019.83
475.48	9907.49
475.66	9935.57
475.84	9848.97
476.02	10310.06
476.20	10101.75
476.38	10363.89
476.56	10717.31
476.74	10541.77
476.92	10581.56
477.10	10434.11
477.28	10619.01
477.46	10689.23
477.64	10890.51
477.82	11000.52
478.00	11028.60
478.18	11075.42
478.36	10944.34
478.54	11152.65
478.72	11225.21
478.90	11517.78
479.08	11756.51
479.26	11576.29
479.44	11606.72
479.62	11686.29
479.80	12051.42
479.98	11962.48
480.16	12126.32
480.34	11967.16
480.52	12250.36
480.70	12231.64
480.88	12222.28
481.06	12299.52
481.24	12355.69
481.41	12697.41
481.59	12849.54
481.77	12713.79
481.95	13055.51
482.13	13013.38
482.31	13078.91
482.49	13502.55
482.67	13327.01
482.85	13509.57
483.03	13659.37
483.21	13497.87
483.39	13547.02
483.57	13902.78
483.74	13982.36
483.92	13820.86
484.10	13984.70
484.28	14178.97
484.46	14288.97
484.64	14614.30
484.82	14190.67
485.00	14724.31
485.18	14789.85
485.35	15136.24
485.53	15110.50
485.71	15131.56
485.89	15297.74
486.07	15164.33
486.25	15372.64
486.43	15676.91
486.61	15690.95
486.78	16226.93
486.96	16009.26
487.14	16056.08
487.32	16170.76
487.50	16538.23
487.68	16507.80
487.85	16585.04
488.03	16835.47
488.21	16929.09
488.39	16828.45
488.57	17266.13
488.75	17221.66
488.92	17282.52
489.10	17418.27
489.28	17268.47
489.46	17757.64
489.64	17877.01
489.81	18087.66
489.99	18073.62
490.17	17970.63
490.35	18553.43
490.53	18647.05
490.70	18487.89
490.88	18391.93
491.06	18909.19
491.24	19241.54
491.41	19077.71
491.59	19166.65
491.77	19283.67
491.95	19482.62
492.13	19625.39
492.30	19798.59
492.48	19693.27
492.66	20016.26
492.84	19545.81
493.01	20128.61
493.19	20194.14
493.37	20390.75
493.54	20299.47
493.72	20498.41
493.90	20519.48
494.08	21008.65
494.25	20912.69
494.43	20985.24
494.61	21135.04
494.79	21071.84
494.96	21308.24
495.14	21216.96
495.32	21612.51
495.49	22099.34
495.67	21666.34
495.85	22176.58
496.02	22066.57
496.20	22167.21
496.38	22593.19
496.55	22436.38
496.73	22792.14
496.91	22565.10
497.09	22611.92
497.26	22885.76
497.44	23026.19
497.62	22878.74
497.79	23227.48
497.97	23311.74
498.14	23662.82
498.32	23730.69
498.50	23770.48
498.67	23941.34
498.85	23859.42
499.03	23906.23
499.20	24123.90
499.38	24297.10
499.56	24018.58
499.73	24570.94
499.91	24498.39
500.08	24730.10
500.26	24453.92
500.44	24821.38
500.61	24816.70
500.79	24933.73
500.97	25055.43
501.14	25041.39
501.32	25312.89
501.49	25263.74
501.67	25516.52
501.84	25497.80
502.02	25546.95
502.20	25748.23
502.37	25839.51
502.55	25589.08
502.72	25947.18
502.90	25930.80
503.07	26026.76
503.25	26136.76
503.43	25961.22
503.60	26520.61
503.78	26544.02
503.95	26202.30
504.13	26506.57
504.30	26796.79
504.48	26478.48
504.65	26717.22
504.83	27080.00
505.01	27171.28
505.18	27234.47
505.36	27180.64
505.53	27112.77
505.71	27367.88
505.88	27475.55
506.06	27686.20
506.23	27393.63
506.41	27405.33
506.58	27798.54
506.76	27704.92
506.93	27953.02
507.11	27779.82
507.28	28027.92
507.46	28276.01
507.63	28187.07
507.81	28451.55
507.98	28175.37
508.16	28568.58
508.33	28535.81
508.50	28575.60
508.68	29060.09
508.85	28819.02
509.03	28671.56
509.20	29174.78
509.38	29565.65
509.55	29235.63
509.73	29624.16
509.90	29273.08
510.08	29490.75
510.25	29474.37
510.42	30096.95
510.60	29656.93
510.77	30141.42
510.95	30450.37
511.12	29837.15
511.30	29738.85
511.47	29982.26
511.64	30188.23
511.82	29926.09
511.99	30352.07
512.17	30443.35
512.34	30632.93
512.51	30916.14
512.69	30696.13
512.86	30782.73
513.04	30998.06
513.21	30661.02
513.38	31000.40
513.56	31208.70
513.73	31243.81
513.90	31194.66
514.08	31199.34
514.25	31716.60
514.43	31468.50
514.60	31920.23
514.77	31639.36
514.95	31882.78
515.12	31634.68
515.29	31482.55
515.47	31791.50
515.64	31873.42
515.81	32051.30
515.99	32240.88
516.16	32290.03
516.33	32074.70
516.51	32334.50
516.68	32247.90
516.85	32400.04
517.03	32816.65
517.20	32737.07
517.37	32545.15
517.54	32877.51
517.72	33151.35
517.89	32786.22
518.06	33067.09
518.24	33214.54
518.41	32648.13
518.58	33003.89
518.75	33123.26
518.93	33184.12
519.10	33596.05
519.27	33696.69
519.45	33041.34
519.62	34061.82
519.79	33722.44
519.96	34155.44
520.14	33872.23
520.31	33586.69
520.48	33893.30
520.65	33853.51
520.83	34455.03
521.00	34462.05
521.17	34019.69
521.34	34359.06
521.52	34429.28
521.69	34698.44
521.86	34682.06
522.03	34960.58
522.20	34653.97
522.38	35002.71
522.55	34738.23
522.72	34696.10
522.89	35096.33
523.07	35625.29
523.24	35342.09
523.41	35620.61
523.58	35257.83
523.75	35349.11
523.92	35318.68
524.10	35442.73
524.27	35779.77
524.44	35620.61
524.61	35543.38
524.78	36055.95
524.96	36062.97
525.13	35658.06
525.30	35955.31
525.47	36130.85
525.64	36149.57
525.81	36189.36
525.98	36226.81
526.16	36381.29
526.33	36418.74
526.50	36811.95
526.67	36491.29
526.84	36432.78
527.01	36451.50
527.18	36996.85
527.36	36875.14
527.53	37020.25
527.70	37153.66
527.87	37251.97
528.04	36933.65
528.21	37144.30
528.38	36898.55
528.55	37539.85
528.72	36924.29
528.89	37516.45
529.07	37268.35
529.24	37027.28
529.41	37488.36
529.58	37500.06
529.75	37291.76
529.92	37244.94
530.09	37720.07
530.26	37708.37
530.43	37904.98
530.60	37394.74
530.77	37717.73
530.94	37790.29
531.11	37338.57
531.28	38059.45
531.46	37738.80
531.63	38082.86
531.80	37919.02
531.97	38195.20
532.14	38433.94
532.31	37940.08
532.48	38520.54
532.65	38614.16
532.82	38227.97
532.99	38565.01
533.16	38649.27
533.33	38623.52
533.50	38567.35
533.67	38520.54
533.84	38412.87
534.01	39140.78
534.18	38607.14
534.35	39288.23
534.52	38941.83
534.69	39384.19
534.86	39007.37
535.03	39173.55
535.20	39372.49
535.37	39438.03
535.54	39379.51
535.71	39576.12
535.88	39948.26
536.05	39552.71
536.22	39793.79
536.38	39903.79
536.55	39854.64
536.72	39938.90
536.89	39557.39
537.06	39615.91
537.23	39910.82
537.40	39814.85
537.57	39810.17
537.74	39459.09
537.91	40243.17
538.08	39871.03
538.25	40041.88
538.42	40172.96
538.59	40491.27
538.75	40072.31
538.92	40877.46
539.09	40392.97
539.26	40430.41
539.43	40299.34
539.60	40692.55
539.77	40818.94
539.94	40746.39
540.11	40622.34
540.28	40715.96
540.44	40912.56
540.61	40556.80
540.78	40790.86
540.95	41097.47
541.12	40992.14
541.29	40629.36
541.46	40954.69
541.62	40612.98
541.79	41170.02
541.96	40498.29
542.13	41003.85
542.30	41076.40
542.47	41235.56
542.63	40996.82
542.80	41982.19
542.97	41907.29
543.14	41670.90
543.31	42099.22
543.48	41811.33
543.64	42272.42
543.81	41846.44
543.98	41928.36
544.15	41813.67
544.32	41933.04
544.48	42043.04
544.65	42024.32
544.82	42260.71
544.99	42225.60
545.16	42377.74
545.32	42103.90
545.49	42670.31
545.66	42895.00
545.83	42251.35
546.00	42710.10
546.16	42469.02
546.33	42391.78
546.50	42230.29
546.67	42792.01
546.83	42183.48
547.00	42628.18
547.17	42836.48
547.34	43168.84
547.50	42462.00
547.67	43005.00
547.84	42988.62
548.00	42969.90
548.17	43306.93
548.34	43189.91
548.51	43283.53
548.67	43143.09
548.84	43267.14
549.01	43517.58
549.18	42756.91
549.34	43564.39
549.51	43414.60
549.68	43889.73
549.84	43344.38
550.01	43768.02
550.18	43206.29
550.34	43445.02
550.51	43576.09
550.68	43676.74
550.84	43112.67
551.01	43908.45
551.18	43601.84
551.34	43217.99
551.51	43690.78
551.68	44147.18
551.84	43889.73
552.01	43943.56
552.18	44039.52
552.34	43683.76
552.51	44289.96
552.68	43749.29
552.84	43922.49
553.01	44011.43
553.18	44046.54
553.34	44041.86
553.51	44081.65
553.67	44088.67
553.84	44612.95
554.01	44421.03
554.17	43784.40
554.34	43838.23
554.51	44804.88
554.67	44980.42
554.84	44477.20
555.00	44175.27
555.17	44282.94
555.33	44191.65
555.50	44804.88
555.67	44612.95
555.83	44655.08
556.00	44744.02
556.16	45263.62
556.33	45106.80
556.50	44877.43
556.66	44402.30
556.83	44582.52
556.99	45193.40
557.16	44861.05
557.32	45081.06
557.49	45034.25
557.65	45134.89
557.82	44704.23
557.98	45001.48
558.15	45155.96
558.32	45340.86
558.48	45045.95
558.65	45331.50
558.81	45404.05
558.98	45148.93
559.14	45174.68
559.31	45212.13
559.47	45223.83
559.64	45544.48
559.80	45429.80
559.97	45642.79
560.13	45282.34
560.30	45464.91
560.46	45310.43
560.63	45177.02
560.79	45940.04
560.96	46061.74
561.12	45654.49
561.29	45656.83
561.45	45593.64
561.61	45874.50
561.78	45689.60
561.94	45624.06
562.11	45460.23
562.27	45581.93
562.44	45537.46
562.60	45570.23
562.77	45380.65
562.93	45614.70
563.10	45916.63
563.26	46099.19
563.42	46344.95
563.59	45617.04
563.75	46216.22
563.92	45914.29
564.08	45705.98
564.24	45918.97
564.41	45808.96
564.57	46211.54
564.74	46099.19
564.90	45443.84
565.07	46094.51
565.23	46361.33
565.39	46272.39
565.56	46295.80
565.72	45762.15
565.88	46106.21
566.05	46204.52
566.21	46124.94
566.38	46176.43
566.54	46532.19
566.70	46190.47
566.87	46494.74
567.03	46033.66
567.19	46529.85
567.36	46265.37
567.52	46433.89
567.68	46712.41
567.85	46480.70
568.01	47110.30
568.17	46387.08
568.34	46471.34
568.50	46344.95
568.66	46447.93
568.83	46937.10
568.99	46476.02
569.15	46218.56
569.32	46012.59
569.48	46127.28
569.64	46562.62
569.81	46209.20
569.97	46859.87
570.13	46724.11
570.30	46326.22
570.46	46408.14
570.62	46569.64
570.78	46447.93
570.95	46124.94
571.11	47103.28
571.27	46731.14
571.43	46307.50
571.60	46602.41
571.76	46263.03
571.92	46424.53
572.09	46485.38
572.25	46567.30
572.41	46326.22
572.57	46728.80
572.74	47056.47
572.90	46920.72
573.06	46806.03
573.22	46693.69
573.38	46990.94
573.55	46485.38
573.71	47000.30
573.87	46773.27
574.03	46906.68
574.20	46986.25
574.36	46705.39
574.52	46639.86
574.68	46651.56
574.84	47021.36
575.01	47299.89
575.17	46981.57
575.33	47157.11
575.49	46887.95
575.65	46761.56
575.82	47234.35
575.98	46696.03
576.14	46965.19
576.30	47194.56
576.46	47077.54
576.62	46845.82
576.79	46990.94
576.95	46740.50
577.11	46595.38
577.27	46838.80
577.43	47033.07
577.59	47072.85
577.75	46614.11
577.92	46696.03
578.08	47154.77
578.24	47035.41
578.40	46979.23
578.56	47079.88
578.72	46871.57
578.88	47103.28
579.04	47054.13
579.21	47278.82
579.37	47093.92
579.53	47400.53
579.69	47002.64
579.85	46864.55
580.01	46986.25
580.17	46979.23
580.33	46726.46
580.49	47166.48
580.65	46997.96
580.82	47365.42
580.98	46892.63
581.14	47047.11
581.30	47224.99
581.46	47093.92
581.62	46946.47
581.78	46628.15
581.94	47334.99
582.10	46967.53
582.26	47505.85
582.42	47302.23
582.58	47428.62
582.74	47086.90
582.90	47217.97
583.06	47405.21
583.22	46967.53
583.38	47344.36
583.54	47482.45
583.70	47215.63
583.86	47519.90
584.02	47077.54
584.18	47742.25
584.34	47503.51
584.50	47384.15
584.66	47508.19
584.82	47388.83
584.98	47657.99
585.14	47269.46
585.30	46983.91
585.46	47203.92
585.62	47168.82
585.78	47367.76
585.94	47440.32
586.10	47028.38
586.26	47096.26
586.42	47224.99
586.58	47547.98
586.74	47117.32
586.90	47445.00
587.06	47030.72
587.22	47505.85
587.38	46941.78
587.54	47482.45
587.70	47695.44
587.86	47058.81
588.02	47332.65
588.18	47262.44
588.34	47129.03
588.49	47264.78
588.65	46993.28
588.81	47044.77
588.97	47428.62
589.13	47512.88
589.29	47423.93
589.45	48046.52
589.61	47295.21
589.77	47395.85
589.93	46960.51
590.08	47690.76
590.24	47922.47
590.40	47695.44
590.56	47929.49
590.72	48280.57
590.88	47332.65
591.04	47075.19
591.20	47845.23
591.35	48280.57
591.51	48025.45
591.67	47657.99
591.83	48006.73
591.99	47889.70
592.15	47517.56
592.31	47980.98
592.46	47686.07
592.62	47896.72
592.78	47826.51
592.94	48032.47
593.10	47992.68
593.26	47990.34
593.41	48032.47
593.57	47997.37
593.73	47831.19
593.89	48348.45
594.05	48196.31
594.20	47777.36
594.36	48193.97
594.52	48175.25
594.68	48376.53
594.84	47728.20
594.99	48193.97
595.15	47922.47
595.31	47980.98
595.47	48226.74
595.62	47962.26
595.78	47875.66
595.94	47894.38
596.10	47889.70
596.25	48172.91
596.41	48109.71
596.57	47798.42
596.73	48247.80
596.88	48093.33
597.04	48318.02
597.20	48027.79
597.36	48011.41
597.51	48119.07
597.67	47934.17
597.83	48451.43
597.99	48090.99
598.14	47793.74
598.30	48226.74
598.46	47782.04
598.61	48481.86
598.77	47782.04
598.93	48266.53
599.09	48088.65
599.24	48744.00
599.40	48200.99
599.56	48470.15
599.71	48364.83
599.87	48746.34
600.03	48435.05
600.18	48268.87
600.34	48032.47
600.50	48402.28
600.65	47800.76
600.81	48308.66
600.97	48418.66
601.12	48367.17
601.28	48542.71
601.44	48229.08
601.59	48170.57
601.75	48107.37
601.91	48205.67
602.06	48093.33
602.22	48568.46
602.37	48086.31
602.53	48060.56
602.69	48655.06
602.84	47978.64
603.00	47580.75
603.16	48481.86
603.31	48039.50
603.47	48474.84
603.62	48023.11
603.78	48371.85
603.94	48322.70
604.09	48311.00
604.25	48053.54
604.40	47964.60
604.56	48348.45
604.71	48451.43
604.87	48182.27
605.03	48027.79
605.18	47821.83
605.34	48374.19
605.49	48123.75
605.65	48603.56
605.80	48378.87
605.96	48016.09
606.12	47957.58
606.27	48121.41
606.43	47538.62
606.58	48044.18
606.74	48346.11
606.89	48034.81
607.05	48378.87
607.20	48416.32
607.36	48135.46
607.51	47835.87
607.67	47831.19
607.82	47786.72
607.98	47995.03
608.13	47845.23
608.29	47854.59
608.44	48273.55
608.60	48006.73
608.75	48233.76
608.91	47601.82
609.06	47786.72
609.22	48006.73
609.37	47618.20
609.53	47894.38
609.68	47686.07
609.84	47786.72
609.99	47980.98
610.15	47882.68
610.30	48011.41
610.46	47723.52
610.61	47845.23
610.76	47931.83
610.92	47550.32
611.07	47985.66
611.23	47770.33
611.38	47702.46
611.54	48114.39
611.69	47805.44
611.84	47817.14
612.00	47344.36
612.15	47742.25
612.31	47779.70
612.46	47508.19
612.62	47992.68
612.77	47744.59
612.92	48409.30
613.08	47580.75
613.23	47760.97
613.39	47688.42
613.54	47278.82
613.69	47496.49
613.85	47576.07
614.00	47182.86
614.15	47498.83
614.31	47423.93
614.46	47838.21
614.62	47566.71
614.77	47688.42
614.92	47508.19
615.08	47313.93
615.23	47320.95
615.38	47634.58
615.54	47297.55
615.69	47672.03
615.84	47327.97
616.00	47718.84
616.15	47437.98
616.30	47913.11
616.46	47309.25
616.61	47044.77
616.76	47452.02
616.92	47264.78
617.07	47239.03
617.22	47246.05
617.37	46791.99
617.53	46876.25
617.68	46923.06
617.83	47173.50
617.99	47501.17
618.14	47260.10
618.29	46969.87
618.45	46873.91
618.60	46775.61
618.75	46506.44
618.90	46962.85
619.06	46976.89
619.21	47189.88
619.36	47241.37
619.51	46920.72
619.67	46918.38
619.82	46635.17
619.97	47037.75
620.12	46703.05
620.28	47077.54
620.43	47150.09
620.58	47040.09
620.73	47267.12
620.89	47185.20
621.04	46972.21
621.19	47004.98
621.34	46714.75
621.49	46920.72
621.65	46789.65
621.80	47143.07
621.95	46831.78
622.10	47070.51
622.25	46562.62
622.41	46944.12
622.56	46377.72
622.71	47030.72
622.86	46532.19
623.01	46866.89
623.16	46714.75
623.32	46387.08
623.47	46553.26
623.62	46398.78
623.77	46787.31
623.92	46782.63
624.07	46335.59
624.23	46948.81
624.38	46745.18
624.53	46279.41
624.68	46288.77
624.83	46059.40
624.98	46557.94
625.13	45982.16
625.29	45787.90
625.44	46546.23
625.59	46153.02
625.74	46375.37
625.89	46073.45
626.04	46050.04
626.19	46117.92
626.34	46234.94
626.49	45928.33
626.65	45567.89
626.80	45902.59
626.95	45656.83
627.10	45584.27
627.25	45532.78
627.40	45577.25
627.55	45998.55
627.70	45951.74
627.85	45837.05
628.00	45895.56
628.15	46382.40
628.30	45523.42
628.45	45317.45
628.60	45411.07
628.76	45483.63
628.91	45546.82
629.06	45673.21
629.21	45464.91
629.36	45769.18
629.51	45619.38
629.66	45904.93
629.81	45647.47
629.96	45755.13
630.11	45546.82
630.26	45017.86
630.41	45617.04
630.56	45179.36
630.71	45574.91
630.86	45336.18
631.01	45191.06
631.16	45427.46
631.31	45207.45
631.46	44924.24
631.61	45432.14
631.76	45205.11
631.91	45263.62
632.06	45394.69
632.21	45408.73
632.36	45661.51
632.51	44830.62
632.66	45242.56
632.81	44807.22
632.96	45099.78
633.10	45118.51
633.25	44978.07
633.40	45132.55
633.55	45036.59
633.70	44786.15
633.85	45031.91
634.00	44872.75
634.15	44776.79
634.30	44971.05
634.45	44706.57
634.60	44739.34
634.75	44870.41
634.90	44603.59
635.05	45050.63
635.19	44605.93
635.34	44542.74
635.49	44629.34
635.64	44655.08
635.79	44519.33
635.94	44538.05
636.09	44945.31
636.24	44521.67
636.39	44673.81
636.53	44994.46
636.68	44495.92
636.83	44264.21
636.98	44325.07
637.13	44212.72
637.28	43789.08
637.43	44116.76
637.57	44236.12
637.72	44367.20
637.87	43812.49
638.02	44444.43
638.17	44275.91
638.32	43761.00
638.46	43531.62
638.61	44006.75
638.76	43786.74
638.91	44091.01
639.06	43749.29
639.20	43737.59
639.35	43697.80
639.50	43555.03
639.65	44098.03
639.80	44304.00
639.94	43768.02
640.09	44203.36
640.24	43941.22
640.39	43585.46
640.54	43463.75
640.68	43463.75
640.83	43828.87
640.98	43613.54
641.13	43171.18
641.27	44039.52
641.42	43845.26
641.57	43489.49
641.72	44163.57
641.86	43260.12
642.01	43107.99
642.16	43297.57
642.31	43196.93
642.45	43365.45
642.60	43143.09
642.75	43438.00
642.90	43058.84
643.04	43023.73
643.19	43536.30
643.34	42794.36
643.48	43110.33
643.63	43079.90
643.78	43349.06
643.93	43178.20
644.07	43019.05
644.22	43107.99
644.37	42946.49
644.51	43433.32
644.66	43070.54
644.81	43473.11
644.95	43070.54
645.10	42913.72
645.25	42925.42
645.39	43112.67
645.54	42932.45
645.69	42656.26
645.83	42801.38
645.98	42852.87
646.13	42480.72
646.27	42616.47
646.42	42768.61
646.57	42583.71
646.71	42796.70
646.86	42724.14
647.00	42909.04
647.15	43007.34
647.30	42906.70
647.44	42576.69
647.59	42501.79
647.74	42574.34
647.88	42773.29
648.03	42866.91
648.17	42822.44
648.32	42487.74
648.47	42876.27
648.61	42106.24
648.76	42382.42
648.90	42122.62
649.05	42183.48
649.20	42454.98
649.34	42263.05
649.49	42263.05
649.63	42705.41
649.78	42691.37
649.92	42492.43
650.07	42859.89
650.21	42387.10
650.36	42522.85
650.51	42234.97
650.65	42665.63
650.80	42148.37
650.94	42007.94
651.09	42019.64
651.23	41591.32
651.38	41904.95
651.52	41298.75
651.67	41867.50
651.81	41748.14
651.96	41457.91
652.10	41500.04
652.25	41663.88
652.39	41888.57
652.54	41530.47
652.68	41696.64
652.83	41832.39
652.97	41846.44
653.12	41577.28
653.26	41682.60
653.41	41902.61
653.55	41820.69
653.70	42183.48
653.84	41673.24
653.99	41909.63
654.13	41605.36
654.27	41626.43
654.42	41635.79
654.56	41373.65
654.71	41434.50
654.85	41617.07
655.00	41614.72
655.14	41153.64
655.29	41521.10
655.43	41441.53
655.57	41177.04
655.72	40842.35
655.86	41326.84
656.01	41088.10
656.15	40945.33
656.30	41214.49
656.44	41174.70
656.58	41067.04
656.73	40868.09
656.87	41024.91
657.01	40914.90
657.16	41090.44
657.30	41120.87
657.45	40952.35
657.59	41048.32
657.73	40549.78
657.88	40854.05
658.02	40734.68
658.16	40837.67
658.31	40678.51
658.45	40744.05
658.60	40610.64
658.74	40666.81
658.88	40369.56
659.03	40582.55
659.17	40517.01
659.31	40582.55
659.46	40217.43
659.60	40451.48
659.74	40084.01
659.89	40027.84
660.03	39564.42
660.17	40039.54
660.32	40201.04
660.46	39854.64
660.60	39351.43
660.74	39777.40
660.89	40093.38
661.03	39611.23
661.17	39154.82
661.32	39716.55
661.46	39711.87
661.60	39557.39
661.74	39746.98
661.89	39428.66
662.03	39299.94
662.17	38904.38
662.31	39377.17
662.46	39098.65
662.60	38752.25
662.74	39026.09
662.88	38983.96
663.03	39068.22
663.17	39093.97
663.31	38419.89
663.45	38955.88
663.60	39419.30
663.74	39098.65
663.88	38684.37
664.02	38834.17
664.17	38974.60
664.31	38618.84
664.45	38628.20
664.59	38560.33
664.73	38602.46
664.88	38529.90
665.02	38375.42
665.16	38349.68
665.30	38501.81
665.44	38323.93
665.59	37867.53
665.73	37926.04
665.87	37780.93
666.01	38162.43
666.15	37876.89
666.29	38003.28
666.44	38244.35
666.58	38143.71
666.72	37635.81
666.86	38169.46
667.00	37825.40
667.14	37659.22
667.28	37865.19
667.43	37883.91
667.57	37869.87
667.71	37649.86
667.85	37666.24
667.99	37581.98
668.13	37373.67
668.27	37027.28
668.41	36987.49
668.56	36657.47
668.70	36519.38
668.84	36769.82
668.98	36531.08
669.12	37074.09
669.26	36430.44
669.40	36374.27
669.54	36659.81
669.68	36807.26
669.82	36561.51
669.96	36278.30
670.10	36114.47
670.25	35959.99
670.39	36184.68
670.53	36065.31
670.67	36158.94
670.81	36257.24
670.95	36311.07
671.09	35531.67
671.23	35791.47
671.37	35739.98
671.51	35672.10
671.65	35243.79
671.79	35428.69
671.93	35501.25
672.07	35637.00
672.21	35494.22
672.35	35016.75
672.49	35187.61
672.63	35660.40
672.77	34609.50
672.91	35435.71
673.05	35115.06
673.19	34483.11
673.33	34433.96
673.47	34810.79
673.61	34352.04
673.75	34377.79
673.89	34361.40
674.03	34260.76
674.17	33897.98
674.31	33961.17
674.45	33811.38
674.59	34265.44
674.73	33853.51
674.87	33827.76
675.01	33535.20
675.15	33792.65
675.29	33394.76
675.43	33390.08
675.56	33408.81
675.70	33219.22
675.84	33464.98
675.98	32388.33
676.12	33291.78
676.26	33181.77
676.40	32741.75
676.54	32776.86
676.68	32751.12
676.82	32397.70
676.96	32809.63
677.10	32837.72
677.23	32463.23
677.37	32769.84
677.51	32170.66
677.65	32063.00
677.79	31957.67
677.93	31840.65
678.07	31964.70
678.21	31660.43
678.34	31227.43
678.48	31075.29
678.62	31232.11
678.76	30815.49
678.90	30857.62
679.04	31140.83
679.18	31051.89
679.31	31122.10
679.45	30946.56
679.59	31047.21
679.73	30827.20
679.87	30480.80
680.00	30176.53
680.14	31087.00
680.28	30291.21
680.42	30218.66
680.56	30338.02
680.70	29940.13
680.83	29757.57
680.97	29455.64
681.11	29591.39
681.25	29457.98
681.39	29551.60
681.52	29790.34
681.66	29406.49
681.80	28613.05
681.94	29034.35
682.07	28858.81
682.21	29013.28
682.35	28849.44
682.49	28561.56
682.62	28849.44
682.76	28627.09
682.90	28985.19
683.04	28510.07
683.17	28687.95
683.31	27896.85
683.45	28261.97
683.59	27513.00
683.72	27580.87
683.86	27791.52
684.00	27548.11
684.13	27489.59
684.27	26981.70
684.41	27316.39
684.55	27157.24
684.68	27267.24
684.82	27056.59
684.96	27072.98
685.09	27168.94
685.23	26948.93
685.37	27171.28
685.50	27028.51
685.64	26574.44
685.78	26398.90
685.91	26324.01
686.05	26335.71
686.19	25504.82
686.32	26103.99
686.46	26115.70
686.60	25394.81
686.73	25710.78
686.87	25455.67
687.01	25589.08
687.14	25539.93
687.28	25261.40
687.42	25282.47
687.55	25294.17
687.69	25242.68
687.82	24961.81
687.96	24919.68
688.10	24989.90
688.23	24748.82
688.37	25039.05
688.50	24861.17
688.64	24662.22
688.78	24439.87
688.91	24599.03
689.05	24444.56
689.18	24046.66
689.32	23262.58
689.46	23782.18
689.59	23721.33
689.73	24049.00
689.86	23789.20
690.00	23672.18
690.13	23466.21
690.27	23686.22
690.41	23613.66
690.54	23112.79
690.68	23115.13
690.81	22738.30
690.95	22838.95
691.08	22806.18
691.22	22913.84
691.35	22270.20
691.49	22801.50
691.62	22508.93
691.76	22244.45
691.89	22141.47
692.03	21846.56
692.16	21696.77
692.30	21645.27
692.43	21827.84
692.57	21895.71
692.70	21614.85
692.84	21715.49
692.97	21247.38
693.11	21231.00
693.24	20980.56
693.38	20753.53
693.51	20854.17
693.65	20959.50
693.78	20788.64
693.92	20741.83
694.05	20875.24
694.19	20512.46
694.32	20240.95
694.45	20659.91
694.59	20599.05
694.72	20411.81
694.86	19981.15
694.99	20144.99
695.13	20072.43
695.26	19969.45
695.39	19606.67
695.53	19522.41
695.66	19922.64
695.80	19545.81
695.93	19576.24
696.07	19257.93
696.20	19154.94
696.33	19014.51
696.47	19089.41
696.60	18853.02
696.73	19110.47
696.87	18806.20
697.00	18981.74
697.14	18635.35
697.27	18508.96
697.40	18633.00
697.54	18604.92
697.67	18424.70
697.80	18347.46
697.94	18169.58
698.07	18361.50
698.21	17940.21
698.34	17991.70
698.47	17731.90
698.61	17378.48
698.74	17680.41
698.87	17790.41
699.01	17411.25
699.14	17511.89
699.27	17186.55
699.40	17135.06
699.54	17177.19
699.67	17114.00
699.80	17240.39
699.94	17146.76
700.07	17053.14
700.20	16826.11
700.34	16624.83
700.47	17020.38
700.60	16950.16
700.73	16589.72
700.87	16381.41
701.00	16320.56
701.13	16379.07
701.26	16112.25
701.40	16030.33
701.53	15990.54
701.66	15913.30
701.79	15896.92
701.93	15393.70
702.06	15431.15
702.19	15538.82
702.32	15644.14
702.46	15541.16
702.59	15669.89
702.72	15761.17
702.85	15524.77
702.99	15293.06
703.12	15431.15
703.25	14913.89
703.38	15005.17
703.51	15007.52
703.65	14761.76
703.78	14656.43
703.91	14544.09
704.04	14719.63
704.17	14410.68
704.31	14490.26
704.44	14272.59
704.57	14321.74
704.70	14328.76
704.83	14185.99
704.96	13877.04
705.10	14059.60
705.23	13844.27
>>>>>End Processed Spectral Data<<<<<
