SpectraSuite Data File
++++++++++++++++++++++++++++++++++++
Date: Fri Oct 25 11:34:23 EDT 2013
User: price-jones
Dark Spectrum Present: No
Reference Spectrum Present: No
Number of Sampled Component Spectra: 1
Spectrometers: USB2+H05261
Integration Time (usec): 100000 (USB2+H05261)
Spectra Averaged: 1 (USB2+H05261)
Boxcar Smoothing: 0 (USB2+H05261)
Correct for Electrical Dark: No (USB2+H05261)
Strobe/Lamp Enabled: No (USB2+H05261)
Correct for Detector Non-linearity: No (USB2+H05261)
Correct for Stray Light: No (USB2+H05261)
Number of Pixels in Processed Spectrum: 2048
>>>>>Begin Processed Spectral Data<<<<<
365.73	322.99
365.92	322.99
366.12	322.99
366.32	198.95
366.52	184.90
366.72	215.33
366.91	159.16
367.11	166.18
367.31	154.48
367.51	236.39
367.70	107.66
367.90	203.63
368.10	145.11
368.30	266.82
368.49	173.20
368.69	243.42
368.89	198.95
369.09	159.16
369.28	264.48
369.48	201.29
369.68	222.35
369.87	287.89
370.07	140.43
370.27	283.20
370.47	297.25
370.66	433.00
370.86	491.51
371.06	554.71
371.25	564.07
371.45	519.60
371.65	517.26
371.84	486.83
372.04	571.09
372.24	603.86
372.44	589.82
372.63	587.47
372.83	620.24
373.03	564.07
373.22	634.29
373.42	664.71
373.62	667.05
373.81	613.22
374.01	650.67
374.21	657.69
374.40	624.92
374.60	631.94
374.79	674.07
374.99	599.18
375.19	578.11
375.38	725.57
375.58	664.71
375.78	681.10
375.97	615.56
376.17	732.59
376.37	676.41
376.56	699.82
376.76	706.84
376.95	653.01
377.15	638.97
377.35	683.44
377.54	713.86
377.74	690.46
377.93	636.63
378.13	763.01
378.33	653.01
378.52	734.93
378.72	779.40
378.91	667.05
379.11	704.50
379.31	636.63
379.50	709.18
379.70	835.57
379.89	748.97
380.09	718.54
380.28	716.20
380.48	732.59
380.68	655.35
380.87	767.70
381.07	709.18
381.26	695.14
381.46	758.33
381.65	695.14
381.85	664.71
382.04	737.27
382.24	753.65
382.43	755.99
382.63	748.97
382.83	716.20
383.02	737.27
383.22	709.18
383.41	819.19
383.61	692.80
383.80	842.59
384.00	800.46
384.19	690.46
384.39	835.57
384.58	737.27
384.78	847.27
384.97	791.10
385.17	777.06
385.36	793.44
385.56	821.53
385.75	777.06
385.95	807.48
386.14	812.17
386.34	814.51
386.53	821.53
386.72	807.48
386.92	866.00
387.11	940.90
387.31	894.08
387.50	887.06
387.70	901.11
387.89	819.19
388.09	830.89
388.28	856.64
388.48	917.49
388.67	950.26
388.86	880.04
389.06	1013.45
389.25	987.71
389.45	905.79
389.64	917.49
389.84	987.71
390.03	936.21
390.22	945.58
390.42	938.55
390.61	915.15
390.81	903.45
391.00	1025.15
391.19	1036.86
391.39	997.07
391.58	929.19
391.78	978.34
391.97	961.96
392.16	964.30
392.36	959.62
392.55	1020.47
392.75	1013.45
392.94	1036.86
393.13	1071.97
393.33	1008.77
393.52	1090.69
393.71	1083.67
393.91	1118.78
394.10	1046.22
394.29	1055.58
394.49	1064.94
394.68	1027.50
394.88	1146.86
395.07	1139.84
395.26	1144.52
395.46	1139.84
395.65	1179.63
395.84	1142.18
396.04	1121.12
396.23	1041.54
396.42	1060.26
396.62	1188.99
396.81	1214.74
397.00	1196.01
397.19	1177.29
397.39	1156.22
397.58	1146.86
397.77	1144.52
397.97	1118.78
398.16	1273.25
398.35	1177.29
398.55	1212.40
398.74	1320.06
398.93	1359.85
399.12	1158.57
399.32	1268.57
399.51	1226.44
399.70	1348.15
399.90	1355.17
400.09	1397.30
400.28	1343.47
400.47	1350.49
400.67	1373.89
400.86	1444.11
401.05	1394.96
401.24	1357.51
401.44	1334.11
401.63	1432.41
401.82	1362.19
402.01	1446.45
402.21	1357.51
402.40	1392.62
402.59	1390.28
402.78	1380.92
402.97	1502.62
403.17	1387.94
403.36	1575.18
403.55	1465.18
403.74	1589.22
403.93	1467.52
404.13	1544.75
404.32	1540.07
404.51	1397.30
404.70	1732.00
404.89	1575.18
405.09	1636.03
405.28	1593.90
405.47	1680.50
405.66	1624.33
405.85	1694.55
406.05	1743.70
406.24	1685.19
406.43	1687.53
406.62	1762.42
406.81	1682.85
407.00	1661.78
407.20	1760.08
407.39	1732.00
407.58	1867.75
407.77	1739.02
407.96	1839.66
408.15	1813.92
408.34	1734.34
408.54	1832.64
408.73	1806.89
408.92	1872.43
409.11	1952.01
409.30	1893.49
409.49	1928.60
409.68	1844.34
409.87	1916.90
410.07	2062.01
410.26	1994.14
410.45	2008.18
410.64	2069.03
410.83	2071.37
411.02	2143.93
411.21	1987.11
411.40	2069.03
411.59	2237.55
411.78	2160.31
411.98	2101.80
412.17	2125.21
412.36	2209.47
412.55	2267.98
412.74	2181.38
412.93	2445.86
413.12	2202.44
413.31	2289.04
413.50	2246.91
413.69	2410.75
413.88	2459.90
414.07	2431.82
414.26	2445.86
414.45	2455.22
414.64	2621.40
414.83	2565.23
415.02	2567.57
415.22	2574.59
415.41	2595.65
415.60	2621.40
415.79	2614.38
415.98	2719.70
416.17	2710.34
416.36	2558.21
416.55	2633.10
416.74	2729.06
416.93	2775.88
417.12	2733.75
417.31	2806.30
417.50	2792.26
417.69	2850.77
417.88	2925.67
418.07	2937.37
418.26	2853.11
418.45	2904.60
418.64	2920.99
418.83	2963.12
419.02	2846.09
419.21	2991.20
419.39	3009.93
419.58	3070.78
419.77	2965.46
419.96	2953.76
420.15	3094.19
420.34	2993.55
420.53	3091.85
420.72	3211.22
420.91	3206.53
421.10	3173.77
421.29	3145.68
421.48	3063.76
421.67	3361.01
421.86	3063.76
422.05	3133.98
422.24	3201.85
422.43	3272.07
422.61	3220.58
422.80	3241.64
422.99	3325.90
423.18	3281.43
423.37	3239.30
423.56	3346.97
423.75	3276.75
423.94	3293.13
424.13	3059.08
424.32	3141.00
424.50	3330.58
424.69	3391.44
424.88	3379.73
425.07	3379.73
425.26	3236.96
425.45	3227.60
425.64	3337.60
425.83	3365.69
426.01	3260.37
426.20	3382.07
426.39	3323.56
426.58	3501.44
426.77	3297.81
426.96	3492.08
427.15	3463.99
427.33	3515.48
427.52	3466.33
427.71	3576.34
427.90	3480.38
428.09	3543.57
428.28	3508.46
428.46	3552.93
428.65	3559.95
428.84	3606.77
429.03	3660.60
429.22	3581.02
429.40	3613.79
429.59	3569.32
429.78	3492.08
429.97	3463.99
430.16	3669.96
430.34	3768.26
430.53	3712.09
430.72	3712.09
430.91	3763.58
431.10	3791.67
431.28	3843.16
431.47	3920.40
431.66	3791.67
431.85	3693.37
432.03	3875.93
432.22	4042.11
432.41	3925.08
432.60	3880.61
432.79	3904.01
432.97	3964.87
433.16	4044.45
433.35	3955.51
433.54	4060.83
433.72	4021.04
433.91	4070.19
434.10	4018.70
434.28	4002.32
434.47	4074.87
434.66	4161.47
434.85	4285.52
435.03	4236.37
435.22	4117.00
435.41	4259.78
435.59	4280.84
435.78	4259.78
435.97	4236.37
436.16	4252.75
436.34	4332.33
436.53	4308.93
436.72	4404.89
436.90	4304.25
437.09	4458.72
437.28	4294.88
437.46	4191.90
437.65	4540.64
437.84	4444.68
438.02	4379.14
438.21	4573.41
438.40	4395.53
438.58	4507.87
438.77	4624.90
438.96	4594.47
439.14	4662.35
439.33	4690.43
439.52	4741.93
439.70	4678.73
439.89	4770.01
440.08	4847.25
440.26	5015.77
440.45	4823.84
440.63	4826.18
440.82	5036.83
441.01	4816.82
441.19	4887.04
441.38	5039.17
441.57	5118.75
441.75	4975.98
441.94	5254.50
442.12	5195.99
442.31	5263.86
442.50	5249.82
442.68	5100.03
442.87	5418.34
443.05	5242.80
443.24	5437.06
443.43	5406.64
443.61	5418.34
443.80	5685.16
443.98	5394.93
444.17	5085.98
444.35	5261.52
444.54	5394.93
444.73	5401.96
444.91	5467.49
445.10	5483.88
445.28	5462.81
445.47	5305.99
445.65	5418.34
445.84	5544.73
446.02	5600.90
446.21	5387.91
446.39	5416.00
446.58	5490.90
446.77	5568.13
446.95	5322.38
447.14	5467.49
447.32	5516.64
447.51	5542.39
447.69	5535.37
447.88	5628.99
448.06	5586.86
448.25	5399.62
448.43	5558.77
448.62	5668.78
448.80	5547.07
448.99	5846.66
449.17	5788.14
449.36	5708.57
449.54	5795.17
449.73	5863.04
449.91	5851.34
450.10	5966.03
450.28	5823.25
450.46	5963.68
450.65	5893.47
450.83	5823.25
451.02	5865.38
451.20	5966.03
451.39	5914.53
451.57	6024.54
451.76	5813.89
451.94	5980.07
452.13	6218.80
452.31	6083.05
452.49	6008.16
452.68	6134.54
452.86	5963.68
453.05	6246.89
453.23	6141.57
453.42	6078.37
453.60	6141.57
453.78	6076.03
453.97	6113.48
454.15	6270.30
454.34	6228.17
454.52	6179.01
454.70	6120.50
454.89	6314.77
455.07	6392.00
455.26	6497.33
455.44	6377.96
455.62	6420.09
455.81	6349.87
455.99	6417.75
456.17	6590.95
456.36	6523.07
456.54	6558.18
456.73	6712.66
456.91	6853.09
457.09	6698.61
457.28	6733.72
457.46	6668.19
457.64	6885.86
457.83	6719.68
458.01	6771.17
458.19	7152.68
458.38	6906.92
458.56	7091.82
458.74	7026.29
458.93	7133.95
459.11	6972.46
459.29	6974.80
459.48	6965.43
459.66	7040.33
459.84	7023.95
460.03	7332.90
460.21	7234.60
460.39	7185.44
460.57	7157.36
460.76	7281.41
460.94	7173.74
461.12	7262.68
461.31	7213.53
461.49	7232.26
461.67	7213.53
461.85	7496.74
462.04	7176.08
462.22	7707.38
462.40	7449.93
462.59	7407.80
462.77	7400.77
462.95	7597.38
463.13	7365.67
463.32	7644.19
463.50	7510.78
463.68	7679.30
463.86	7630.15
464.05	7520.14
464.23	7679.30
464.41	7616.10
464.59	7634.83
464.78	7756.54
464.96	7681.64
465.14	7871.22
465.32	7749.51
465.50	7786.96
465.69	7768.24
465.87	7798.66
466.05	7892.29
466.23	7953.14
466.41	7784.62
466.60	8079.53
466.78	7915.69
466.96	7941.44
467.14	7875.90
467.32	8067.83
467.51	8198.90
467.69	7962.50
467.87	7946.12
468.05	8292.52
468.23	8046.76
468.41	8278.47
468.60	8025.70
468.78	8152.09
468.96	8009.31
469.14	8238.69
469.32	8175.49
469.50	8224.64
469.69	8198.90
469.87	8470.40
470.05	8430.61
470.23	8622.53
470.41	8313.58
470.59	8650.62
470.77	8589.77
470.95	8568.70
471.14	8826.16
471.32	8477.42
471.50	8807.44
471.68	8716.16
471.86	8816.80
472.04	8830.84
472.22	8760.63
472.40	8840.20
472.58	8849.57
472.77	8863.61
472.95	8947.87
473.13	9238.09
473.31	8931.48
473.49	9149.15
473.67	8999.36
473.85	9324.69
474.03	9228.73
474.21	9486.19
474.39	9423.00
474.57	9544.70
474.75	9383.21
474.93	9713.22
475.12	9575.13
475.30	9671.09
475.48	9612.58
475.66	9844.29
475.84	9525.98
476.02	9724.93
476.20	9886.42
476.38	9895.78
476.56	10422.41
476.74	10195.37
476.92	10370.91
477.10	10216.44
477.28	10340.49
477.46	9984.73
477.64	10555.82
477.82	10347.51
478.00	10569.86
478.18	10630.71
478.36	10710.29
478.54	10956.05
478.72	10939.66
478.90	11082.44
479.08	11075.42
479.26	11265.00
479.44	11290.74
479.62	11316.49
479.80	11655.87
479.98	11452.24
480.16	11964.82
480.34	11604.38
480.52	11705.02
480.70	11744.81
480.88	11407.77
481.06	11730.76
481.24	11819.71
481.41	11964.82
481.59	12470.37
481.77	12526.55
481.95	12278.45
482.13	12638.89
482.31	12395.48
482.49	12898.69
482.67	12456.33
482.85	12999.34
483.03	12912.74
483.21	12940.82
483.39	13390.20
483.57	13291.90
483.74	13483.83
483.92	13214.66
484.10	13650.00
484.28	13893.42
484.46	13792.78
484.64	14017.47
484.82	13781.07
485.00	14083.00
485.18	14338.12
485.35	14590.90
485.53	14516.00
485.71	14558.13
485.89	14977.09
486.07	14661.12
486.25	14675.16
486.43	14850.70
486.61	15061.35
486.78	15473.28
486.96	15386.68
487.14	15538.82
487.32	15419.45
487.50	15751.81
487.68	15892.24
487.85	15950.75
488.03	16219.91
488.21	16383.75
488.39	16449.28
488.57	16744.19
488.75	16449.28
488.92	16812.07
489.10	17069.53
489.28	16816.75
489.46	17177.19
489.64	17083.57
489.81	17511.89
489.99	17458.06
490.17	17397.20
490.35	17696.79
490.53	17785.73
490.70	17977.65
490.88	17713.17
491.06	17977.65
491.24	18064.25
491.41	18513.64
491.59	18675.13
491.77	18249.16
491.95	18459.81
492.13	18911.53
492.30	18897.49
492.48	18766.42
492.66	18930.25
492.84	19213.46
493.01	19171.33
493.19	19204.10
493.37	19690.93
493.54	19777.53
493.72	19805.61
493.90	19798.59
494.08	19988.18
494.25	20152.01
494.43	20346.28
494.61	20166.06
494.79	20329.89
494.96	20531.18
495.14	20493.73
495.32	20917.37
495.49	20812.04
495.67	20823.75
495.85	21284.83
496.02	21317.60
496.20	21523.57
496.38	21528.25
496.55	21429.94
496.73	21975.29
496.91	21900.39
497.09	21783.37
497.26	21972.95
497.44	22104.02
497.62	22490.21
497.79	22401.27
497.97	22548.72
498.14	22506.59
498.32	22717.24
498.50	22834.27
498.67	22541.70
498.85	22871.72
499.03	23005.13
499.20	23241.52
499.38	23197.05
499.56	23201.73
499.73	23641.75
499.91	23859.42
500.08	23910.91
500.26	23637.07
500.44	23779.84
500.61	23683.88
500.79	23775.16
500.97	24086.45
501.14	24355.61
501.32	24102.84
501.49	24208.16
501.67	24683.29
501.84	24528.81
502.02	24505.41
502.20	24362.64
502.37	25003.94
502.55	24758.19
502.72	24828.40
502.90	24854.15
503.07	24659.88
503.25	25235.66
503.43	24936.07
503.60	25312.89
503.78	25195.87
503.95	25153.74
504.13	25841.85
504.30	25628.87
504.48	25998.67
504.65	25825.47
504.83	25458.01
505.01	25865.26
505.18	25745.89
505.36	26314.64
505.53	25862.92
505.71	26527.63
505.88	26307.62
506.06	26195.28
506.23	26822.54
506.41	26518.27
506.58	26162.51
506.76	26689.13
506.93	27056.59
507.11	26932.54
507.28	27180.64
507.46	26745.30
507.63	27239.15
507.81	27126.81
507.98	26803.82
508.16	27356.18
508.33	27683.86
508.50	27538.74
508.68	27868.76
508.85	27999.83
509.03	27679.18
509.20	27992.81
509.38	28046.64
509.55	28041.96
509.73	28439.85
509.90	28297.08
510.08	28154.30
510.25	28226.86
510.42	28278.35
510.60	28261.97
510.77	28603.69
510.95	28898.59
511.12	28414.10
511.30	28788.59
511.47	28959.45
511.64	29062.43
511.82	28924.34
511.99	29310.53
512.17	29474.37
512.34	29041.37
512.51	29727.14
512.69	29874.60
512.86	29535.22
513.04	29883.96
513.21	29502.45
513.38	29757.57
513.56	29944.81
513.73	29673.31
513.90	30075.88
514.08	29937.79
514.25	30284.19
514.43	30155.46
514.60	30494.84
514.77	30347.39
514.95	30789.75
515.12	30347.39
515.29	30345.05
515.47	30820.17
515.64	30785.07
515.81	30649.32
515.99	30843.58
516.16	31353.82
516.33	30878.69
516.51	31391.26
516.68	30939.54
516.85	31424.03
517.03	31606.59
517.20	31208.70
517.37	31241.47
517.54	31363.18
517.72	31709.58
517.89	31653.40
518.06	31711.92
518.24	31828.95
518.41	31789.16
518.58	31831.29
518.75	31828.95
518.93	31814.90
519.10	31826.60
519.27	32273.65
519.45	32301.73
519.62	32577.92
519.79	32313.44
519.96	32161.30
520.14	32343.86
520.31	32561.53
520.48	32694.94
520.65	32507.70
520.83	32779.20
521.00	32903.25
521.17	33319.87
521.34	33186.46
521.52	33191.14
521.69	33048.36
521.86	33099.86
522.03	33357.32
522.20	33134.96
522.38	33692.01
522.55	33684.99
522.72	33584.35
522.89	33654.56
523.07	34115.65
523.24	33820.74
523.41	34211.61
523.58	34204.59
523.75	34160.12
523.92	33708.40
524.10	34206.93
524.27	34309.91
524.44	34457.37
524.61	34391.83
524.78	34003.30
524.96	34693.76
525.13	34457.37
525.30	34532.26
525.47	34689.08
525.64	34476.09
525.81	35016.75
525.98	34717.17
526.16	35199.32
526.33	34895.05
526.50	35161.87
526.67	34572.05
526.84	35115.06
527.01	35189.95
527.18	35281.24
527.36	35377.20
527.53	35566.78
527.70	35796.15
527.87	35592.53
528.04	35990.42
528.21	35578.48
528.38	35309.32
528.55	35931.90
528.72	35594.87
528.89	36077.02
529.07	35644.02
529.24	35651.04
529.41	36521.72
529.58	35840.62
529.75	35875.73
529.92	35969.35
530.09	36388.31
530.26	36025.53
530.43	36500.65
530.60	35751.68
530.77	36123.83
530.94	36648.11
531.11	36392.99
531.28	36350.86
531.46	36795.56
531.63	36652.79
531.80	36627.04
531.97	36601.30
532.14	36870.46
532.31	36683.22
532.48	37371.33
532.65	36893.86
532.82	37350.27
532.99	36982.80
533.16	37120.90
533.33	37544.53
533.50	37553.90
533.67	37399.42
533.84	37067.06
534.01	37551.56
534.18	36961.74
534.35	37706.03
534.52	37530.49
534.69	37853.48
534.86	37696.67
535.03	37589.00
535.20	37635.81
535.37	37787.95
535.54	38103.92
535.71	37872.21
535.88	38050.09
536.05	37755.18
536.22	38036.05
536.38	38199.88
536.55	38216.27
536.72	38323.93
536.89	38141.37
537.06	38148.39
537.23	38410.53
537.40	38094.56
537.57	38436.28
537.74	38450.32
537.91	38983.96
538.08	38440.96
538.25	38227.97
538.42	38918.43
538.59	38576.71
538.75	38373.08
538.92	38775.66
539.09	39091.63
539.26	38527.56
539.43	39208.65
539.60	39012.05
539.77	39157.16
539.94	39316.32
540.11	39124.40
540.28	39070.56
540.44	38953.54
540.61	39269.51
540.78	38778.00
540.95	39491.86
541.12	39250.78
541.29	39288.23
541.46	39505.90
541.62	39428.66
541.79	39409.94
541.96	39161.84
542.13	39697.83
542.30	39754.00
542.47	39763.36
542.63	39758.68
542.80	39997.41
542.97	40395.31
543.14	40488.93
543.31	40004.44
543.48	40240.83
543.64	40657.45
543.81	40421.05
543.98	40383.60
544.15	40123.80
544.32	40664.47
544.48	41034.27
544.65	40687.87
544.82	40404.67
544.99	40191.68
545.16	40484.25
545.32	41050.66
545.49	40940.65
545.66	41191.09
545.83	40814.26
546.00	41116.19
546.16	41127.89
546.33	40877.46
546.50	40493.61
546.67	41165.34
546.83	40751.07
547.00	41053.00
547.17	40931.29
547.34	41099.81
547.50	41116.19
547.67	41776.22
547.84	40982.78
548.00	41736.43
548.17	41916.65
548.34	41102.15
548.51	41326.84
548.67	41294.07
548.84	41436.84
549.01	41745.80
549.18	41467.27
549.34	41853.46
549.51	41645.15
549.68	42192.84
549.84	41923.68
550.01	41977.51
550.18	41558.55
550.34	41731.75
550.51	41935.38
550.68	42000.91
550.84	41619.41
551.01	41926.02
551.18	41446.21
551.34	41951.76
551.51	42162.41
551.68	42096.88
551.84	42251.35
552.01	42277.10
552.18	42459.66
552.34	42085.17
552.51	42122.62
552.68	42302.84
552.84	42174.11
553.01	42431.57
553.18	42326.25
553.34	42600.09
553.51	42106.24
553.67	42464.34
553.84	43126.71
554.01	42932.45
554.17	42717.12
554.34	42927.77
554.51	42827.12
554.67	43091.60
554.84	43129.05
555.00	43005.00
555.17	42920.74
555.33	42979.26
555.50	42777.97
555.67	43047.13
555.83	43332.68
556.00	42906.70
556.16	43594.82
556.33	43248.42
556.50	42962.87
556.66	43196.93
556.83	42986.28
556.99	43526.94
557.16	43058.84
557.32	43381.83
557.49	43632.27
557.65	43185.22
557.82	43550.35
557.98	43438.00
558.15	43468.43
558.32	43145.44
558.48	43416.94
558.65	43761.00
558.81	43704.82
558.98	43351.40
559.14	43145.44
559.31	43292.89
559.47	43690.78
559.64	43863.98
559.80	43873.34
559.97	43709.50
560.13	43562.05
560.30	43742.27
560.46	43777.38
560.63	44114.42
560.79	43889.73
560.96	43962.28
561.12	44280.60
561.29	44062.93
561.45	44158.89
561.61	44053.56
561.78	44048.88
561.94	43988.03
562.11	43749.29
562.27	43632.27
562.44	43721.21
562.60	44524.01
562.77	44121.44
562.93	44158.89
563.10	44746.36
563.26	44217.40
563.42	44552.10
563.59	44119.10
563.75	43985.69
563.92	44177.61
564.08	43789.08
564.24	44168.25
564.41	43917.81
564.57	44205.70
564.74	44493.58
564.90	44397.62
565.07	44432.73
565.23	44605.93
565.39	44273.57
565.56	44615.29
565.72	44456.14
565.88	44301.66
566.05	44563.80
566.21	44566.14
566.38	44507.63
566.54	44657.42
566.70	44807.22
566.87	44636.36
567.03	44399.96
567.19	44793.17
567.36	44399.96
567.52	44552.10
567.68	44828.28
567.85	44872.75
568.01	44938.29
568.17	44753.38
568.34	44807.22
568.50	44591.89
568.66	44886.79
568.83	44655.08
568.99	44947.65
569.15	45315.11
569.32	44760.40
569.48	44451.45
569.64	45118.51
569.81	44811.90
569.97	44751.04
570.13	45226.17
570.30	45024.89
570.46	44516.99
570.62	44762.75
570.78	44856.37
570.95	45010.84
571.11	45280.00
571.27	44566.14
571.43	44697.21
571.60	44964.03
571.76	44636.36
571.92	44872.75
572.09	44947.65
572.25	44722.96
572.41	44837.64
572.57	44851.69
572.74	45256.60
572.90	45282.34
573.06	45048.29
573.22	45123.19
573.38	45214.47
573.55	45743.43
573.71	45762.15
573.87	45516.40
574.03	45071.70
574.20	45216.81
574.36	44978.07
574.52	45432.14
574.68	45193.40
574.84	45090.42
575.01	45418.10
575.17	45387.67
575.33	45663.85
575.49	44949.99
575.65	45443.84
575.82	45432.14
575.98	45090.42
576.14	45514.06
576.30	45420.44
576.46	45031.91
576.62	45261.28
576.79	45460.23
576.95	45099.78
577.11	45223.83
577.27	45277.66
577.43	45132.55
577.59	45572.57
577.75	45387.67
577.92	44737.00
578.08	45291.71
578.24	45357.24
578.40	45846.41
578.56	45759.81
578.72	45497.67
578.88	45715.34
579.04	45595.98
579.21	45106.80
579.37	45755.13
579.53	45925.99
579.69	45382.99
579.85	45088.08
580.01	45682.58
580.17	45382.99
580.33	45551.51
580.49	45361.92
580.65	45605.34
580.82	45755.13
580.98	45425.12
581.14	45373.63
581.30	45457.88
581.46	45340.86
581.62	45633.42
581.78	45188.72
581.94	45556.19
582.10	45464.91
582.26	45628.74
582.42	45116.17
582.58	45521.08
582.74	45698.96
582.90	45813.65
583.06	45715.34
583.22	45212.13
583.38	45937.69
583.54	45691.94
583.70	45591.30
583.86	45888.54
584.02	45558.53
584.18	46026.63
584.34	46197.49
584.50	45631.08
584.66	45787.90
584.82	46106.21
584.98	46263.03
585.14	45614.70
585.30	45689.60
585.46	45558.53
585.62	45628.74
585.78	45727.05
585.94	45434.48
586.10	45705.98
586.26	45233.19
586.42	45310.43
586.58	45371.28
586.74	45549.17
586.90	45837.05
587.06	45727.05
587.22	45518.74
587.38	45886.20
587.54	46052.38
587.70	45862.80
587.86	45825.35
588.02	45502.35
588.18	45598.32
588.34	45619.38
588.49	45949.40
588.65	45347.88
588.81	45715.34
588.97	45476.61
589.13	45652.15
589.29	45755.13
589.45	46103.87
589.61	45792.58
589.77	45881.52
589.93	45797.26
590.08	46167.07
590.24	45928.33
590.40	46347.29
590.56	46227.92
590.72	45806.62
590.88	45928.33
591.04	45764.49
591.20	45979.82
591.35	46347.29
591.51	46593.04
591.67	46401.12
591.83	46485.38
591.99	46094.51
592.15	46227.92
592.31	45764.49
592.46	45965.78
592.62	45825.35
592.78	46347.29
592.94	46710.07
593.10	46651.56
593.26	46337.93
593.41	46658.58
593.57	46698.37
593.73	46244.30
593.89	46473.68
594.05	46810.71
594.20	46321.54
594.36	46569.64
594.52	46553.26
594.68	46113.23
594.84	46115.58
594.99	46564.96
595.15	46518.15
595.31	46515.81
595.47	46192.81
595.62	46450.27
595.78	45949.40
595.94	47119.66
596.10	46122.60
596.25	46817.74
596.41	46838.80
596.57	46597.73
596.73	46731.14
596.88	46581.34
597.04	46571.98
597.20	46555.60
597.36	46415.16
597.51	46057.06
597.67	46300.48
597.83	46637.51
597.99	46380.06
598.14	46309.84
598.30	46586.02
598.46	46459.63
598.61	46766.24
598.77	46518.15
598.93	46169.41
599.09	46181.11
599.24	46920.72
599.40	46295.80
599.56	46707.73
599.71	46892.63
599.87	47311.59
600.03	47173.50
600.18	46590.70
600.34	46511.13
600.50	46511.13
600.65	46216.22
600.81	46586.02
600.97	46843.48
601.12	46548.57
601.28	47004.98
601.44	46497.08
601.59	46724.11
601.75	46522.83
601.91	46567.30
602.06	46653.90
602.22	46616.45
602.37	46595.38
602.53	46440.91
602.69	46686.67
602.84	46665.60
603.00	46859.87
603.16	46639.86
603.31	46667.94
603.47	47047.11
603.62	46658.58
603.78	46843.48
603.94	46429.21
604.09	46719.43
604.25	46258.35
604.40	46522.83
604.56	46717.09
604.71	46665.60
604.87	46476.02
605.03	46562.62
605.18	46431.55
605.34	46574.32
605.49	46316.86
605.65	46415.16
605.80	46291.12
605.96	46192.81
606.12	46160.05
606.27	46543.89
606.43	46272.39
606.58	46696.03
606.74	46398.78
606.89	46361.33
607.05	46621.13
607.20	46351.97
607.36	46689.01
607.51	46447.93
607.67	46078.13
607.82	46248.99
607.98	46377.72
608.13	46848.16
608.29	46501.76
608.44	46539.21
608.60	46185.79
608.75	46305.16
608.91	46241.96
609.06	46405.80
609.22	46707.73
609.37	46141.32
609.53	46370.69
609.68	45834.71
609.84	46176.43
609.99	46768.58
610.15	46106.21
610.30	46206.86
610.46	46209.20
610.61	46047.70
610.76	46017.27
610.92	45886.20
611.07	45427.46
611.23	45977.48
611.38	46122.60
611.54	46099.19
611.69	46476.02
611.84	46054.72
612.00	46057.06
612.15	46401.12
612.31	45846.41
612.46	45785.56
612.62	45806.62
612.77	45853.44
612.92	46246.65
613.08	46440.91
613.23	46146.00
613.39	46092.17
613.54	45942.38
613.69	46239.62
613.85	46085.15
614.00	45888.54
614.15	45991.53
614.31	45741.09
614.46	46108.55
614.62	45736.41
614.77	45890.88
614.92	45759.81
615.08	45406.39
615.23	45722.37
615.38	46195.15
615.54	45907.27
615.69	45900.25
615.84	45656.83
616.00	46031.32
616.15	46129.62
616.30	46068.76
616.46	46073.45
616.61	45415.76
616.76	45724.71
616.92	45738.75
617.07	46227.92
617.22	45525.76
617.37	45710.66
617.53	45408.73
617.68	45511.72
617.83	45787.90
617.99	45715.34
618.14	45757.47
618.29	45588.95
618.45	45191.06
618.60	45109.14
618.75	45294.05
618.90	45113.83
619.06	45343.20
619.21	45610.02
619.36	45848.75
619.51	45603.00
619.67	44816.58
619.82	45429.80
619.97	45439.16
620.12	45530.44
620.28	45181.70
620.43	45455.54
620.58	45324.47
620.73	45270.64
620.89	45464.91
621.04	44994.46
621.19	45102.12
621.34	45057.65
621.49	44903.18
621.65	44893.82
621.80	45394.69
621.95	45195.74
622.10	44959.35
622.25	44935.95
622.41	45127.87
622.56	45174.68
622.71	44545.08
622.86	44949.99
623.01	45464.91
623.16	44961.69
623.32	44538.05
623.47	44935.95
623.62	44818.92
623.77	44655.08
623.92	44928.92
624.07	45137.23
624.23	45219.15
624.38	44809.56
624.53	45027.23
624.68	44402.30
624.83	44320.38
624.98	44884.45
625.13	44231.44
625.29	44252.51
625.44	44421.03
625.59	44304.00
625.74	44177.61
625.89	44385.92
626.04	43999.73
626.19	44257.19
626.34	44481.88
626.49	44025.48
626.65	43976.33
626.80	44538.05
626.95	43770.36
627.10	43887.39
627.25	43885.04
627.40	44500.61
627.55	44474.86
627.70	44006.75
627.85	44009.09
628.00	44278.25
628.15	43854.62
628.30	43686.10
628.45	43667.37
628.60	43669.72
628.76	44385.92
628.91	43938.88
629.06	43187.56
629.21	43529.28
629.36	43735.25
629.51	43700.14
629.66	43917.81
629.81	43529.28
629.96	43892.07
630.11	43686.10
630.26	43655.67
630.41	43875.68
630.56	43761.00
630.71	43903.77
630.86	43316.29
631.01	43480.13
631.16	43325.66
631.31	43723.55
631.46	43236.72
631.61	44191.65
631.76	43529.28
631.91	43686.10
632.06	43430.98
632.21	43564.39
632.36	43973.98
632.51	43306.93
632.66	43452.05
632.81	42806.06
632.96	43093.94
633.10	43330.34
633.25	43283.53
633.40	43290.55
633.55	43246.08
633.70	43250.76
633.85	42850.53
634.00	42939.47
634.15	42815.42
634.30	43117.35
634.45	43129.05
634.60	42913.72
634.75	43119.69
634.90	42775.63
635.05	43419.28
635.19	42909.04
635.34	42960.53
635.49	42810.74
635.64	42653.92
635.79	42843.51
635.94	42813.08
636.09	43281.19
636.24	42770.95
636.39	42740.52
636.53	42806.06
636.68	42628.18
636.83	42686.69
636.98	42670.31
637.13	42646.90
637.28	42382.42
637.43	42316.89
637.57	42789.67
637.72	42597.75
637.87	42012.62
638.02	42307.52
638.17	42265.39
638.32	42110.92
638.46	41986.87
638.61	41879.21
638.76	42040.70
638.91	42094.53
639.06	42000.91
639.20	41916.65
639.35	42099.22
639.50	42021.98
639.65	42146.03
639.80	42153.05
639.94	42342.63
640.09	42188.16
640.24	42087.51
640.39	41687.28
640.54	41837.08
640.68	41654.51
640.83	42080.49
640.98	41872.18
641.13	41626.43
641.27	42029.00
641.42	41862.82
641.57	41853.46
641.72	42202.20
641.86	41617.07
642.01	41750.48
642.16	41380.67
642.31	41298.75
642.45	41893.25
642.60	41418.12
642.75	41633.45
642.90	41860.48
643.04	41626.43
643.19	41539.83
643.34	41535.15
643.48	41174.70
643.63	41280.03
643.78	41579.62
643.93	41698.98
644.07	41710.69
644.22	41558.55
644.37	41509.40
644.51	41579.62
644.66	41544.51
644.81	41647.49
644.95	41350.24
645.10	41652.17
645.25	40982.78
645.39	40987.46
645.54	41291.73
645.69	40708.94
645.83	40587.23
645.98	40980.44
646.13	40905.54
646.27	41144.28
646.42	40788.52
646.57	41226.20
646.71	40875.12
646.86	41024.91
647.00	41460.25
647.15	41024.91
647.30	40919.59
647.44	40842.35
647.59	40832.99
647.74	40449.14
647.88	41214.49
648.03	41244.92
648.17	40966.40
648.32	40942.99
648.47	41406.42
648.61	40650.42
648.76	40825.96
648.90	40580.21
649.05	40629.36
649.20	40795.54
649.34	40509.99
649.49	40980.44
649.63	40744.05
649.78	40390.62
649.92	40224.45
650.07	40940.65
650.21	41031.93
650.36	41158.32
650.51	40950.01
650.65	40575.53
650.80	40568.51
650.94	40418.71
651.09	40271.26
651.23	40297.00
651.38	40203.38
651.52	40381.26
651.67	40498.29
651.81	39941.24
651.96	40385.94
652.10	39896.77
652.25	39901.45
652.39	40350.84
652.54	40023.16
652.68	39695.49
652.83	40034.86
652.97	39700.17
653.12	40081.67
653.26	39945.92
653.41	40247.85
653.55	39756.34
653.70	40250.19
653.84	40114.44
653.99	40095.72
654.13	40027.84
654.27	39400.58
654.42	39754.00
654.56	39686.12
654.71	39732.93
654.85	39969.33
655.00	39667.40
655.14	40172.96
655.29	40315.73
655.43	40240.83
655.57	39651.02
655.72	39290.57
655.86	39269.51
656.01	39519.95
656.15	39143.12
656.30	39665.06
656.44	39592.50
656.58	39519.95
656.73	39250.78
656.87	38990.98
657.01	38946.51
657.16	39435.69
657.30	39374.83
657.45	39562.08
657.59	38892.68
657.73	38761.61
657.88	39005.03
658.02	39435.69
658.16	38983.96
658.31	39030.77
658.45	39208.65
658.60	38888.00
658.74	39026.09
658.88	38761.61
659.03	38822.47
659.17	38780.34
659.31	38396.49
659.46	38607.14
659.60	39016.73
659.74	38630.54
659.89	38398.83
660.03	37984.55
660.17	38490.11
660.32	38497.13
660.46	38279.46
660.60	37816.04
660.74	37909.66
660.89	38284.14
661.03	38319.25
661.17	37902.64
661.32	37736.46
661.46	38036.05
661.60	37935.40
661.74	38157.75
661.89	37965.83
662.03	38078.18
662.17	37916.68
662.31	37408.78
662.46	37479.00
662.60	37567.94
662.74	37233.24
662.88	37720.07
663.03	37249.63
663.17	37455.59
663.31	37069.40
663.45	37560.92
663.60	37469.64
663.74	37514.11
663.88	37270.69
664.02	37256.65
664.17	37132.60
664.31	37233.24
664.45	36938.33
664.59	37071.75
664.73	36900.89
664.88	36884.50
665.02	36203.41
665.16	36741.73
665.30	36795.56
665.44	37083.45
665.59	36325.11
665.73	36629.38
665.87	35763.39
666.01	36402.35
666.15	36402.35
666.29	36402.35
666.44	36538.10
666.58	36037.23
666.72	35882.75
666.86	36177.66
667.00	36332.14
667.14	36023.19
667.28	36142.55
667.43	36067.66
667.57	36264.26
667.71	36212.77
667.85	36065.31
667.99	35803.17
668.13	35686.15
668.27	35536.35
668.41	35599.55
668.56	34925.47
668.70	35129.10
668.84	35091.65
668.98	34899.73
669.12	35306.98
669.26	35246.13
669.40	35248.47
669.54	35548.06
669.68	35042.50
669.82	35201.66
669.96	34972.28
670.10	34436.30
670.25	34813.13
670.39	35044.84
670.53	34794.40
670.67	34527.58
670.81	34756.96
670.95	34616.52
671.09	34684.40
671.23	34932.50
671.37	34220.97
671.51	34445.66
671.65	33673.29
671.79	33883.94
671.93	33858.19
672.07	34710.14
672.21	33647.54
672.35	33762.23
672.49	33839.47
672.63	33996.28
672.77	33315.19
672.91	33776.27
673.05	33610.09
673.19	33352.63
673.33	33324.55
673.47	33041.34
673.61	32947.72
673.75	32938.36
673.89	32699.62
674.03	32961.76
674.17	32678.56
674.31	32587.28
674.45	32287.69
674.59	32858.78
674.73	32786.22
674.87	32177.68
675.01	32306.41
675.15	31974.06
675.29	32334.50
675.43	32081.72
675.56	31833.63
675.70	31707.24
675.84	31845.33
675.98	31096.36
676.12	31456.80
676.26	31763.41
676.40	31351.48
676.54	31634.68
676.68	31292.96
676.82	30916.14
676.96	31435.74
677.10	31295.30
677.23	31180.62
677.37	31051.89
677.51	30803.79
677.65	30654.00
677.79	31030.82
677.93	31274.24
678.07	30590.80
678.21	30485.48
678.34	29970.56
678.48	30216.32
678.62	30316.96
678.76	29881.62
678.90	30026.73
679.04	29886.30
679.18	30153.12
679.31	29795.02
679.45	29479.05
679.59	29598.41
679.73	29640.54
679.87	29516.50
680.00	29223.93
680.14	29116.26
680.28	29420.53
680.42	28982.85
680.56	28622.41
680.70	28603.69
680.83	28477.30
680.97	28081.75
681.11	28669.22
681.25	28208.14
681.39	27775.14
681.52	28081.75
681.66	28194.09
681.80	27903.87
681.94	27606.62
682.07	27505.98
682.21	27484.91
682.35	27290.65
682.49	27569.17
682.62	27424.06
682.76	27452.14
682.90	27126.81
683.04	27601.94
683.17	26958.29
683.31	26848.29
683.45	26808.50
683.59	26448.05
683.72	26679.77
683.86	26305.28
684.00	26492.52
684.13	26478.48
684.27	26066.55
684.41	25951.86
684.55	26019.74
684.68	25771.64
684.82	25675.68
684.96	25614.82
685.09	25867.60
685.23	25979.95
685.37	25876.96
685.50	25778.66
685.64	25483.75
685.78	25364.39
685.91	25385.45
686.05	25067.14
686.19	24622.44
686.32	24730.10
686.46	24528.81
686.60	24638.82
686.73	24491.37
686.87	24666.91
687.01	24966.49
687.14	24577.97
687.28	24432.85
687.42	24353.27
687.55	24100.50
687.69	24343.91
687.82	23625.37
687.96	23709.63
688.10	23545.79
688.23	23751.76
688.37	23585.58
688.50	24058.37
688.64	23374.93
688.78	23164.28
688.91	23709.63
689.05	23311.74
689.18	23136.20
689.32	22373.18
689.46	22878.74
689.59	23009.81
689.73	22895.12
689.86	22913.84
690.00	22841.29
690.13	22974.70
690.27	22342.75
690.41	22651.70
690.54	22155.51
690.68	22001.04
690.81	22101.68
690.95	21781.03
691.08	21685.06
691.22	21874.65
691.35	21614.85
691.49	21802.09
691.62	21514.20
691.76	21275.47
691.89	20896.30
692.03	21008.65
692.16	20908.01
692.30	20875.24
692.43	21160.78
692.57	20854.17
692.70	20559.27
692.84	20662.25
692.97	20294.79
693.11	20428.20
693.24	20545.22
693.38	20308.83
693.51	20372.02
693.65	20400.11
693.78	19803.27
693.92	20121.59
694.05	19604.33
694.19	19747.10
694.32	19686.25
694.45	19957.75
694.59	19847.74
694.72	19632.41
694.86	19428.79
694.99	19124.52
695.13	19243.88
695.26	19030.90
695.39	19051.96
695.53	18834.29
695.66	18527.68
695.80	18637.69
695.93	18813.23
696.07	18537.04
696.20	18443.42
696.33	18059.57
696.47	18218.73
696.60	18068.94
696.73	18209.37
696.87	18302.99
697.00	18228.09
697.14	17895.74
697.27	17678.07
697.40	17743.60
697.54	17687.43
697.67	17577.42
697.80	17752.96
697.94	17483.80
698.07	17439.33
698.21	17263.79
698.34	17172.51
698.47	17036.76
698.61	16615.46
698.74	16992.29
698.87	16840.15
699.01	16507.80
699.14	16622.48
699.27	16659.93
699.40	16592.06
699.54	16451.63
699.67	16444.60
699.80	16552.27
699.94	16191.83
700.07	16149.70
700.20	16133.31
700.34	16088.84
700.47	16219.91
700.60	15990.54
700.73	15969.48
700.87	15688.61
701.00	15510.73
701.13	15665.21
701.26	15545.84
701.40	15253.27
701.53	15267.31
701.66	15396.04
701.79	15166.67
701.93	15115.18
702.06	15009.86
702.19	14970.07
702.32	14970.07
702.46	15098.80
702.59	14836.66
702.72	14991.13
702.85	14902.19
702.99	14658.78
703.12	14534.73
703.25	14389.61
703.38	14249.18
703.51	14345.14
703.65	14118.11
703.78	14115.77
703.91	14026.83
704.04	14090.02
704.17	13767.03
704.31	13736.60
704.44	13685.11
704.57	13867.67
704.70	13687.45
704.83	13722.56
704.96	13432.33
705.10	13458.08
705.23	13558.72
>>>>>End Processed Spectral Data<<<<<
