SpectraSuite Data File
++++++++++++++++++++++++++++++++++++
Date: Fri Oct 25 10:48:10 EDT 2013
User: price-jones
Dark Spectrum Present: No
Reference Spectrum Present: No
Number of Sampled Component Spectra: 1
Spectrometers: USB2+H05261
Integration Time (usec): 100000 (USB2+H05261)
Spectra Averaged: 1 (USB2+H05261)
Boxcar Smoothing: 0 (USB2+H05261)
Correct for Electrical Dark: No (USB2+H05261)
Strobe/Lamp Enabled: No (USB2+H05261)
Correct for Detector Non-linearity: No (USB2+H05261)
Correct for Stray Light: No (USB2+H05261)
Number of Pixels in Processed Spectrum: 2048
>>>>>Begin Processed Spectral Data<<<<<
365.73	142.77
365.92	142.77
366.12	142.77
366.32	42.13
366.52	37.45
366.72	9.36
366.91	30.43
367.11	0.00
367.31	0.00
367.51	30.43
367.70	11.70
367.90	44.47
368.10	46.81
368.30	124.05
368.49	7.02
368.69	77.24
368.89	0.00
369.09	11.70
369.28	142.77
369.48	11.70
369.68	88.94
369.87	117.03
370.07	25.75
370.27	177.88
370.47	252.78
370.66	379.17
370.86	451.72
371.06	461.09
371.25	440.02
371.45	449.38
371.65	472.79
371.84	500.87
372.04	435.34
372.24	454.06
372.44	507.90
372.63	449.38
372.83	435.34
373.03	543.00
373.22	535.98
373.42	517.26
373.62	547.69
373.81	507.90
374.01	554.71
374.21	526.62
374.40	547.69
374.60	578.11
374.79	636.63
374.99	552.37
375.19	650.67
375.38	517.26
375.58	582.79
375.78	564.07
375.97	634.29
376.17	681.10
376.37	547.69
376.56	484.49
376.76	552.37
376.95	491.51
377.15	645.99
377.35	638.97
377.54	688.12
377.74	606.20
377.93	631.94
378.13	631.94
378.33	706.84
378.52	582.79
378.72	589.82
378.91	578.11
379.11	657.69
379.31	610.88
379.50	622.58
379.70	636.63
379.89	685.78
380.09	608.54
380.28	699.82
380.48	624.92
380.68	620.24
380.87	753.65
381.07	599.18
381.26	758.33
381.46	629.60
381.65	627.26
381.85	681.10
382.04	669.39
382.24	758.33
382.43	662.37
382.63	671.73
382.83	683.44
383.02	746.63
383.22	716.20
383.41	730.25
383.61	669.39
383.80	765.36
384.00	767.70
384.19	660.03
384.39	690.46
384.58	741.95
384.78	699.82
384.97	744.29
385.17	674.07
385.36	763.01
385.56	737.27
385.75	690.46
385.95	791.10
386.14	877.70
386.34	739.61
386.53	793.44
386.72	681.10
386.92	814.51
387.11	720.88
387.31	798.12
387.50	805.14
387.70	748.97
387.89	774.72
388.09	809.83
388.28	779.40
388.48	901.11
388.67	816.85
388.86	873.02
389.06	840.25
389.25	882.38
389.45	823.87
389.64	905.79
389.84	905.79
390.03	884.72
390.22	861.32
390.42	957.28
390.61	929.19
390.81	992.39
391.00	1029.84
391.19	954.94
391.39	992.39
391.58	990.05
391.78	896.43
391.97	1025.15
392.16	976.00
392.36	950.26
392.55	966.64
392.75	882.38
392.94	933.87
393.13	1006.43
393.33	985.37
393.52	994.73
393.71	1043.88
393.91	1081.33
394.10	1041.54
394.29	1118.78
394.49	961.96
394.68	1050.90
394.88	1158.57
395.07	1053.24
395.26	1123.46
395.46	1188.99
395.65	1205.38
395.84	1146.86
396.04	1191.33
396.23	1048.56
396.42	1062.60
396.62	1118.78
396.81	1172.61
397.00	1086.01
397.19	1151.54
397.39	1205.38
397.58	1226.44
397.77	1247.51
397.97	1254.53
398.16	1172.61
398.35	1308.36
398.55	1242.82
398.74	1299.00
398.93	1390.28
399.12	1343.47
399.32	1306.02
399.51	1355.17
399.70	1341.13
399.90	1303.68
400.09	1315.38
400.28	1364.53
400.47	1448.79
400.67	1458.15
400.86	1427.73
401.05	1458.15
401.24	1416.02
401.44	1453.47
401.63	1603.27
401.82	1472.20
402.01	1511.99
402.21	1521.35
402.40	1502.62
402.59	1476.88
402.78	1462.83
402.97	1561.14
403.17	1621.99
403.36	1612.63
403.55	1668.80
403.74	1664.12
403.93	1563.48
404.13	1568.16
404.32	1636.03
404.51	1673.48
404.70	1647.74
404.89	1678.16
405.09	1710.93
405.28	1710.93
405.47	1771.79
405.66	1743.70
405.85	1743.70
406.05	1827.96
406.24	1767.10
406.43	1736.68
406.62	1879.45
406.81	1813.92
407.00	1853.70
407.20	1746.04
407.39	1774.13
407.58	1853.70
407.77	1989.46
407.96	1930.94
408.15	2033.93
408.34	1987.11
408.54	2008.18
408.73	2015.20
408.92	1944.99
409.11	1944.99
409.30	2026.90
409.49	1991.80
409.68	2038.61
409.87	2043.29
410.07	2015.20
410.26	2155.63
410.45	2200.10
410.64	2120.53
410.83	2165.00
411.02	2232.87
411.21	2305.43
411.40	2190.74
411.59	2293.72
411.78	2246.91
411.98	2260.96
412.17	2324.15
412.36	2202.44
412.55	2368.62
412.74	2359.26
412.93	2399.05
413.12	2366.28
413.31	2509.05
413.50	2502.03
413.69	2527.78
413.88	2513.74
414.07	2607.36
414.26	2495.01
414.45	2612.04
414.64	2614.38
414.83	2616.72
415.02	2586.29
415.22	2703.32
415.41	2712.68
415.60	2785.24
415.79	2836.73
415.98	2843.75
416.17	2841.41
416.36	2752.47
416.55	2832.05
416.74	2963.12
416.93	2761.83
417.12	2979.50
417.31	2967.80
417.50	3012.27
417.69	2920.99
417.88	2988.86
418.07	3016.95
418.26	3141.00
418.45	3180.79
418.64	3318.88
418.83	3173.77
419.02	3019.29
419.21	3178.45
419.39	3173.77
419.58	3197.17
419.77	3178.45
419.96	3225.26
420.15	3180.79
420.34	3281.43
420.53	3300.16
420.72	3323.56
420.91	3276.75
421.10	3323.56
421.29	3375.05
421.48	3363.35
421.67	3557.61
421.86	3356.33
422.05	3564.64
422.24	3356.33
422.43	3194.83
422.61	3335.26
422.80	3433.57
422.99	3550.59
423.18	3485.06
423.37	3492.08
423.56	3492.08
423.75	3555.27
423.94	3485.06
424.13	3351.65
424.32	3330.58
424.50	3506.12
424.69	3482.72
424.88	3585.70
425.07	3337.60
425.26	3473.36
425.45	3581.02
425.64	3515.48
425.83	3426.54
426.01	3559.95
426.20	3543.57
426.39	3538.89
426.58	3452.29
426.77	3552.93
426.96	3660.60
427.15	3616.13
427.33	3559.95
427.52	3623.15
427.71	3667.62
427.90	3637.19
428.09	3826.78
428.28	3618.47
428.46	3684.00
428.65	3742.52
428.84	3810.39
429.03	3786.99
429.22	3700.39
429.40	3892.31
429.59	3824.44
429.78	3623.15
429.97	3585.70
430.16	3653.58
430.34	3702.73
430.53	3868.91
430.72	3864.22
430.91	3929.76
431.10	4021.04
431.28	3974.23
431.47	4023.38
431.66	4191.90
431.85	4058.49
432.03	4095.94
432.22	4248.07
432.41	4133.39
432.60	4180.20
432.79	4212.96
432.97	4234.03
433.16	4306.59
433.35	4152.11
433.54	4180.20
433.72	4173.18
433.91	4248.07
434.10	4285.52
434.28	4332.33
434.47	4472.76
434.66	4395.53
434.85	4411.91
435.03	4189.56
435.22	4425.95
435.41	4498.51
435.59	4395.53
435.78	4547.66
435.97	4407.23
436.16	4519.57
436.34	4505.53
436.53	4498.51
436.72	4638.94
436.90	4512.55
437.09	4599.15
437.28	4561.70
437.46	4645.96
437.65	4732.56
437.84	4533.62
438.02	4664.69
438.21	4652.98
438.40	4674.05
438.58	4877.68
438.77	4889.38
438.96	4748.95
439.14	4973.64
439.33	4933.85
439.52	4880.02
439.70	4952.57
439.89	5093.01
440.08	5104.71
440.26	5181.95
440.45	5121.09
440.63	5313.02
440.82	5329.40
441.01	5313.02
441.19	5231.10
441.38	5242.80
441.57	5331.74
441.75	5357.49
441.94	5591.54
442.12	5479.19
442.31	5593.88
442.50	5544.73
442.68	5453.45
442.87	5596.22
443.05	5535.37
443.24	5675.80
443.43	5570.48
443.61	5734.31
443.80	5813.89
443.98	5650.05
444.17	5575.16
444.35	5614.95
444.54	5858.36
444.73	5792.83
444.91	5626.65
445.10	5806.87
445.28	5671.12
445.47	5624.31
445.65	5795.17
445.84	5809.21
446.02	5966.03
446.21	5863.04
446.39	5659.42
446.58	5947.30
446.77	6031.56
446.95	5741.33
447.14	6005.81
447.32	6005.81
447.51	5834.96
447.69	5813.89
447.88	5980.07
448.06	5956.66
448.25	5961.34
448.43	5928.58
448.62	5984.75
448.80	5954.32
448.99	6066.67
449.17	6179.01
449.36	5928.58
449.54	6256.25
449.73	6242.21
449.91	6282.00
450.10	6209.44
450.28	6462.22
450.46	6406.05
450.65	6445.84
450.83	6244.55
451.02	6354.55
451.20	6513.71
451.39	6469.24
451.57	6445.84
451.76	6445.84
451.94	6375.62
452.13	6455.20
452.31	6427.11
452.49	6265.61
452.68	6392.00
452.86	6438.81
453.05	6551.16
453.23	6581.59
453.42	6408.39
453.60	6553.50
453.78	6616.69
453.97	6492.65
454.15	6736.06
454.34	6555.84
454.52	6658.82
454.70	6752.45
454.89	6803.94
455.07	6715.00
455.26	6733.72
455.44	6822.66
455.62	6904.58
455.81	6871.81
455.99	7279.07
456.17	7155.02
456.36	6832.02
456.54	7026.29
456.73	7045.01
456.91	7248.64
457.09	7229.91
457.28	7403.11
457.46	7140.97
457.64	7332.90
457.83	7213.53
458.01	7213.53
458.19	7384.39
458.38	7279.07
458.56	7328.22
458.74	7410.14
458.93	7335.24
459.11	7358.64
459.29	7377.37
459.48	7360.98
459.66	7475.67
459.84	7623.12
460.03	7683.98
460.21	7597.38
460.39	7555.25
460.57	7571.63
460.76	7585.68
460.94	7695.68
461.12	7705.04
461.31	7655.89
461.49	7520.14
461.67	7646.53
461.85	7943.78
462.04	7688.66
462.22	8407.20
462.40	7999.95
462.59	7903.99
462.77	7892.29
462.95	7906.33
463.13	7922.71
463.32	7983.57
463.50	7967.18
463.68	7929.74
463.86	8159.11
464.05	7985.91
464.23	7915.69
464.41	8124.00
464.59	7941.44
464.78	8184.85
464.96	8102.93
465.14	8191.88
465.32	8458.70
465.50	8285.50
465.69	8280.82
465.87	8182.51
466.05	8280.82
466.23	8145.06
466.41	8070.17
466.60	8423.59
466.78	8238.69
466.96	8409.54
467.14	8379.12
467.32	8290.18
467.51	8601.47
467.69	8311.24
467.87	8224.64
468.05	8650.62
468.23	8566.36
468.41	8475.08
468.60	8643.60
468.78	8762.97
468.96	8458.70
469.14	8767.65
469.32	8812.12
469.50	8631.90
469.69	8800.41
469.87	8734.88
470.05	8872.97
470.23	8870.63
470.41	8936.17
470.59	9074.26
470.77	9020.42
470.95	8966.59
471.14	9301.29
471.32	9078.94
471.50	9212.35
471.68	9371.50
471.86	9092.98
472.04	9121.07
472.22	9568.11
472.40	9064.89
472.58	9439.38
472.77	9528.32
472.95	9425.34
473.13	9848.97
473.31	9418.32
473.49	9460.45
473.67	9453.42
473.85	9591.52
474.03	9837.27
474.21	9605.56
474.39	9851.31
474.57	9958.98
474.75	9905.15
474.93	10090.05
475.12	10026.86
475.30	10033.88
475.48	10216.44
475.66	10251.55
475.84	10225.80
476.02	10235.16
476.20	10562.84
476.38	10366.23
476.56	10600.29
476.74	10558.16
476.92	10675.18
477.10	10693.91
477.28	10934.98
477.46	10944.34
477.64	10918.60
477.82	11208.83
478.00	11281.38
478.18	11325.85
478.36	11431.18
478.54	11552.88
478.72	11461.60
478.90	11616.08
479.08	11662.89
479.26	11950.78
479.44	12011.63
479.62	11983.54
479.80	11969.50
479.98	12032.69
480.16	12109.93
480.34	12159.08
480.52	12163.76
480.70	12336.96
480.88	12402.50
481.06	12524.21
481.24	12482.08
481.41	12615.49
481.59	13046.15
481.77	13062.53
481.95	12877.63
482.13	13132.75
482.31	13217.01
482.49	13305.95
482.67	13343.39
482.85	13701.50
483.03	13650.00
483.21	14029.17
483.39	14075.98
483.57	13741.29
483.74	13937.89
483.92	14239.82
484.10	14157.90
484.28	14209.39
484.46	14595.58
484.64	14787.50
484.82	14251.52
485.00	14661.12
485.18	15147.95
485.35	14878.79
485.53	14867.08
485.71	15171.35
485.89	15138.58
486.07	15248.59
486.25	15246.25
486.43	15353.91
486.61	15772.87
486.78	15967.13
486.96	15763.51
487.14	16257.36
487.32	16079.48
487.50	16404.81
487.68	16369.71
487.85	16711.42
488.03	16931.44
488.21	16898.67
488.39	16877.60
488.57	16975.91
488.75	17198.26
488.92	17556.36
489.10	17455.72
489.28	17694.45
489.46	17745.94
489.64	17846.58
489.81	18052.55
489.99	18090.00
490.17	18307.67
490.35	18738.33
490.53	18267.88
490.70	18665.77
490.88	18541.72
491.06	18874.08
491.24	18799.18
491.41	19176.01
491.59	19143.24
491.77	18771.10
491.95	19133.88
492.13	19445.17
492.30	19700.29
492.48	19686.25
492.66	19887.53
492.84	19742.42
493.01	20058.39
493.19	19995.20
493.37	20053.71
493.54	20386.07
493.72	20587.35
493.90	20673.95
494.08	20788.64
494.25	20947.79
494.43	20905.66
494.61	21039.08
494.79	20919.71
494.96	21209.93
495.14	21160.78
495.32	21853.58
495.49	21699.11
495.67	21781.03
495.85	21907.41
496.02	22284.24
496.20	22024.44
496.38	22171.89
496.55	22188.28
496.73	23080.02
496.91	22700.86
497.09	22738.30
497.26	22480.85
497.44	22843.63
497.62	22981.72
497.79	23098.75
497.97	23194.71
498.14	23328.12
498.32	23435.78
498.50	23379.61
498.67	23641.75
498.85	23730.69
499.03	23939.00
499.20	23922.62
499.38	24077.09
499.56	24308.80
499.73	24734.78
499.91	24650.52
500.08	24472.64
500.26	24149.65
500.44	24479.66
500.61	24472.64
500.79	24486.68
500.97	24676.27
501.14	25027.35
501.32	25158.42
501.49	25184.16
501.67	25263.74
501.84	25486.09
502.02	25205.23
502.20	25345.66
502.37	25839.51
502.55	25525.88
502.72	25844.20
502.90	25535.24
503.07	25853.56
503.25	26022.08
503.43	25776.32
503.60	25956.54
503.78	26019.74
503.95	25921.43
504.13	26164.85
504.30	26235.06
504.48	26686.79
504.65	26661.04
504.83	26707.85
505.01	26843.60
505.18	26672.74
505.36	27438.10
505.53	26974.67
505.71	27159.58
505.88	27185.32
506.06	27304.69
506.23	27290.65
506.41	26799.13
506.58	27384.27
506.76	27454.48
506.93	27946.00
507.11	27239.15
507.28	27742.37
507.46	27737.69
507.63	27793.86
507.81	28336.87
507.98	27438.10
508.16	27936.63
508.33	27906.21
508.50	28458.57
508.68	28400.06
508.85	28535.81
509.03	28268.99
509.20	28479.64
509.38	28870.51
509.55	29425.22
509.73	29207.55
509.90	29083.50
510.08	28877.53
510.25	28917.32
510.42	29160.73
510.60	29425.22
510.77	29376.06
510.95	29572.67
511.12	29500.11
511.30	29563.31
511.47	29708.42
511.64	30225.68
511.82	30087.59
511.99	29692.04
512.17	30054.82
512.34	29876.94
512.51	30146.10
512.69	30443.35
512.86	30866.98
513.04	29989.28
513.21	30242.06
513.38	30382.49
513.56	30593.14
513.73	30654.00
513.90	31124.44
514.08	30855.28
514.25	30859.96
514.43	31026.14
514.60	30937.20
514.77	31030.82
514.95	31131.47
515.12	31129.12
515.29	31346.79
515.47	31522.34
515.64	31393.61
515.81	31576.17
515.99	31255.51
516.16	31388.92
516.33	31606.59
516.51	31772.77
516.68	31599.57
516.85	31653.40
517.03	31468.50
517.20	31583.19
517.37	31779.79
517.54	31952.99
517.72	32222.16
517.89	32194.07
518.06	31920.23
518.24	32070.02
518.41	32250.24
518.58	32189.39
518.75	32292.37
518.93	32423.44
519.10	32430.46
519.27	32589.62
519.45	32786.22
519.62	32884.53
519.79	32886.87
519.96	33092.83
520.14	33450.94
520.31	33109.22
520.48	33294.12
520.65	33614.77
520.83	33504.77
521.00	33825.42
521.17	33509.45
521.34	34036.07
521.52	33544.56
521.69	33570.30
521.86	34066.50
522.03	33890.96
522.20	33778.61
522.38	34181.18
522.55	34038.41
522.72	33876.91
522.89	34265.44
523.07	33975.22
523.24	34059.48
523.41	34162.46
523.58	33804.36
523.75	34623.54
523.92	34536.94
524.10	34918.45
524.27	34698.44
524.44	34637.59
524.61	34834.19
524.78	34628.23
524.96	34752.27
525.13	35077.61
525.30	35381.88
525.47	35306.98
525.64	35480.18
525.81	35227.40
525.98	35353.79
526.16	35009.73
526.33	34649.29
526.50	35629.98
526.67	34888.03
526.84	35314.00
527.01	35157.19
527.18	35573.80
527.36	36058.29
527.53	36039.57
527.70	36123.83
527.87	36142.55
528.04	36367.24
528.21	35777.43
528.38	35845.30
528.55	36215.11
528.72	36226.81
528.89	36610.66
529.07	36332.14
529.24	36126.17
529.41	36477.25
529.58	35892.12
529.75	36091.06
529.92	36704.28
530.09	36545.12
530.26	36659.81
530.43	36837.69
530.60	36306.39
530.77	37294.10
530.94	36903.23
531.11	36856.42
531.28	37797.31
531.46	37036.64
531.63	37247.29
531.80	37228.56
531.97	37474.32
532.14	37251.97
532.31	37207.50
532.48	37022.59
532.65	37266.01
532.82	37275.37
532.99	37046.00
533.16	37303.46
533.33	37502.40
533.50	37530.49
533.67	37701.35
533.84	37167.71
534.01	37659.22
534.18	37493.04
534.35	38054.77
534.52	37806.67
534.69	37926.04
534.86	37895.61
535.03	37806.67
535.20	38293.50
535.37	38309.89
535.54	38700.76
535.71	38139.03
535.88	38330.95
536.05	38279.46
536.22	38623.52
536.38	38518.20
536.55	38426.92
536.72	38625.86
536.89	38014.98
537.06	38433.94
537.23	38728.84
537.40	38450.32
537.57	38775.66
537.74	38555.64
537.91	39000.35
538.08	39016.73
538.25	38590.75
538.42	39056.52
538.59	39407.60
538.75	38452.66
538.92	39133.76
539.09	39110.35
539.26	39426.32
539.43	39608.89
539.60	39117.37
539.77	39021.41
539.94	39407.60
540.11	39012.05
540.28	39203.97
540.44	39096.31
540.61	39409.94
540.78	39388.88
540.95	39431.01
541.12	39267.17
541.29	39306.96
541.46	39342.06
541.62	39459.09
541.79	39889.75
541.96	39562.08
542.13	39761.02
542.30	39508.24
542.47	39941.24
542.63	40018.48
542.80	40119.12
542.97	40456.16
543.14	40320.41
543.31	40315.73
543.48	40385.94
543.64	40938.31
543.81	40673.83
543.98	40828.30
544.15	40666.81
544.32	40746.39
544.48	40727.66
544.65	40524.04
544.82	40987.46
544.99	40287.64
545.16	40816.60
545.32	40587.23
545.49	40411.69
545.66	41160.66
545.83	40678.51
546.00	40648.08
546.16	40769.79
546.33	40985.12
546.50	40671.49
546.67	41085.76
546.83	40730.00
547.00	41549.19
547.17	40814.26
547.34	41284.71
547.50	41214.49
547.67	41404.08
547.84	41670.90
548.00	41596.00
548.17	41596.00
548.34	41240.24
548.51	41324.50
548.67	41794.95
548.84	41516.42
549.01	41556.21
549.18	41235.56
549.34	41591.32
549.51	41670.90
549.68	41661.54
549.84	41663.88
550.01	42298.16
550.18	41460.25
550.34	41584.30
550.51	42089.85
550.68	41816.01
550.84	41750.48
551.01	42340.29
551.18	41909.63
551.34	42057.09
551.51	42040.70
551.68	41958.78
551.84	42237.31
552.01	41769.20
552.18	41930.70
552.34	41752.82
552.51	42218.58
552.68	42384.76
552.84	42096.88
553.01	42682.01
553.18	42017.30
553.34	42279.44
553.51	42190.50
553.67	42604.77
553.84	42740.52
554.01	42588.39
554.17	42569.66
554.34	42852.87
554.51	42780.31
554.67	42784.99
554.84	42770.95
555.00	42487.74
555.17	42525.19
555.33	42726.48
555.50	42841.17
555.67	42487.74
555.83	42642.22
556.00	42466.68
556.16	42997.98
556.33	43409.92
556.50	42829.46
556.66	42988.62
556.83	42784.99
556.99	43414.60
557.16	42965.21
557.32	43225.01
557.49	43295.23
557.65	42876.27
557.82	42745.20
557.98	42997.98
558.15	42672.65
558.32	43124.37
558.48	42682.01
558.65	42815.42
558.81	43075.22
558.98	43276.51
559.14	43016.71
559.31	43210.97
559.47	43388.85
559.64	43658.01
559.80	43784.40
559.97	43487.15
560.13	43222.67
560.30	43178.20
560.46	43344.38
560.63	43459.07
560.79	43213.31
560.96	43749.29
561.12	43515.24
561.29	43470.77
561.45	43540.99
561.61	43461.41
561.78	43728.23
561.94	43189.91
562.11	43545.67
562.27	43168.84
562.44	43505.88
562.60	43636.95
562.77	43992.71
562.93	43290.55
563.10	43276.51
563.26	43782.06
563.42	43686.10
563.59	43821.85
563.75	43480.13
563.92	43803.13
564.08	43332.68
564.24	43807.81
564.41	44123.78
564.57	44013.77
564.74	43924.83
564.90	43810.15
565.07	43833.55
565.23	43627.59
565.39	43683.76
565.56	44201.02
565.72	43526.94
565.88	44018.46
566.05	44168.25
566.21	44306.34
566.38	44016.11
566.54	43798.44
566.70	44292.30
566.87	44357.83
567.03	43831.21
567.19	44587.21
567.36	43962.28
567.52	43973.98
567.68	44348.47
567.85	43997.39
568.01	44411.67
568.17	43922.49
568.34	44048.88
568.50	44332.09
568.66	43887.39
568.83	44369.54
568.99	43356.08
569.15	44137.82
569.32	43866.32
569.48	43969.30
569.64	44266.55
569.81	44107.40
569.97	43901.43
570.13	44294.64
570.30	43618.22
570.46	43817.17
570.62	44109.74
570.78	44201.02
570.95	44442.09
571.11	44229.10
571.27	44095.69
571.43	43978.67
571.60	44470.18
571.76	44296.98
571.92	43482.47
572.09	44294.64
572.25	44032.50
572.41	44072.29
572.57	44135.48
572.74	44975.73
572.90	44254.85
573.06	44385.92
573.22	44596.57
573.38	44343.79
573.55	44275.91
573.71	44959.35
573.87	44165.91
574.03	44091.01
574.20	44549.76
574.36	44046.54
574.52	44376.56
574.68	44500.61
574.84	44554.44
575.01	44140.16
575.17	44425.71
575.33	44753.38
575.49	44222.08
575.65	44280.60
575.82	44762.75
575.98	44486.56
576.14	44814.24
576.30	44406.98
576.46	44299.32
576.62	44055.90
576.79	44474.86
576.95	44259.53
577.11	44453.79
577.27	44713.59
577.43	44491.24
577.59	44133.14
577.75	44404.64
577.92	43978.67
578.08	44388.26
578.24	44215.06
578.40	44446.77
578.56	44509.97
578.72	44540.39
578.88	44907.86
579.04	44872.75
579.21	43997.39
579.37	44418.69
579.53	44086.33
579.69	44442.09
579.85	44292.30
580.01	44591.89
580.17	44226.76
580.33	44825.94
580.49	44395.28
580.65	44678.49
580.82	44746.36
580.98	44542.74
581.14	44430.39
581.30	44652.74
581.46	44271.23
581.62	44746.36
581.78	44837.64
581.94	44666.78
582.10	44711.25
582.26	44863.39
582.42	44662.10
582.58	44582.52
582.74	43945.90
582.90	44484.22
583.06	44582.52
583.22	44556.78
583.38	44832.96
583.54	44409.32
583.70	44797.85
583.86	44552.10
584.02	45008.50
584.18	44790.83
584.34	44418.69
584.50	44605.93
584.66	44631.68
584.82	44538.05
584.98	44729.98
585.14	45092.76
585.30	44463.16
585.46	44512.31
585.62	44149.53
585.78	44418.69
585.94	44524.01
586.10	44921.90
586.26	44252.51
586.42	44556.78
586.58	44788.49
586.74	44542.74
586.90	44767.43
587.06	44811.90
587.22	44889.13
587.38	44582.52
587.54	45008.50
587.70	44725.30
587.86	44847.00
588.02	45055.31
588.18	45074.04
588.34	44968.71
588.49	44559.12
588.65	44332.09
588.81	44039.52
588.97	44603.59
589.13	44346.13
589.29	44898.50
589.45	44877.43
589.61	44524.01
589.77	45364.26
589.93	44842.32
590.08	44753.38
590.24	45092.76
590.40	45280.00
590.56	45317.45
590.72	45013.18
590.88	45027.23
591.04	44748.70
591.20	45357.24
591.35	45001.48
591.51	45724.71
591.67	44788.49
591.83	44912.54
591.99	44811.90
592.15	44751.04
592.31	45088.08
592.46	44978.07
592.62	44402.30
592.78	45074.04
592.94	44947.65
593.10	45027.23
593.26	45202.77
593.41	44638.70
593.57	44870.41
593.73	44591.89
593.89	44928.92
594.05	44774.45
594.20	44678.49
594.36	44814.24
594.52	44851.69
594.68	45188.72
594.84	44994.46
594.99	45467.25
595.15	45050.63
595.31	45595.98
595.47	44715.93
595.62	45404.05
595.78	44641.04
595.94	45228.51
596.10	45111.49
596.25	45230.85
596.41	45081.06
596.57	45017.86
596.73	45317.45
596.88	44722.96
597.04	45043.61
597.20	45099.78
597.36	44996.80
597.51	45628.74
597.67	45209.79
597.83	45233.19
597.99	45174.68
598.14	45420.44
598.30	44856.37
598.46	45069.36
598.61	44790.83
598.77	45038.93
598.93	45202.77
599.09	45242.56
599.24	44877.43
599.40	45113.83
599.56	45237.87
599.71	45031.91
599.87	45277.66
600.03	44985.10
600.18	45469.59
600.34	45022.54
600.50	45492.99
600.65	45181.70
600.81	45436.82
600.97	45741.09
601.12	45364.26
601.28	45212.13
601.44	45289.37
601.59	45202.77
601.75	44624.65
601.91	45059.99
602.06	44863.39
602.22	45085.74
602.37	45090.42
602.53	45394.69
602.69	45191.06
602.84	45109.14
603.00	45202.77
603.16	45170.00
603.31	44933.60
603.47	44933.60
603.62	44945.31
603.78	45193.40
603.94	44999.14
604.09	45106.80
604.25	45230.85
604.40	45137.23
604.56	45485.97
604.71	45366.60
604.87	44907.86
605.03	45015.52
605.18	44959.35
605.34	44954.67
605.49	44465.50
605.65	44985.10
605.80	44706.57
605.96	45106.80
606.12	45118.51
606.27	45315.11
606.43	44638.70
606.58	44994.46
606.74	44814.24
606.89	44729.98
607.05	44877.43
607.20	44708.91
607.36	45284.68
607.51	45195.74
607.67	45350.22
607.82	45034.25
607.98	45137.23
608.13	45162.98
608.29	44821.26
608.44	44514.65
608.60	44346.13
608.75	44662.10
608.91	44617.63
609.06	44439.75
609.22	44821.26
609.37	44362.51
609.53	45162.98
609.68	44659.76
609.84	44727.64
609.99	44978.07
610.15	44856.37
610.30	44746.36
610.46	44224.42
610.61	44634.02
610.76	44692.53
610.92	44484.22
611.07	44509.97
611.23	44404.64
611.38	44563.80
611.54	44800.19
611.69	44339.11
611.84	44540.39
612.00	44491.24
612.15	44266.55
612.31	44140.16
612.46	44641.04
612.62	44587.21
612.77	44404.64
612.92	44414.01
613.08	44362.51
613.23	44147.18
613.39	44587.21
613.54	43927.17
613.69	44184.63
613.85	44458.48
614.00	44561.46
614.15	44421.03
614.31	44044.20
614.46	44348.47
614.62	44304.00
614.77	44175.27
614.92	43943.56
615.08	43723.55
615.23	44002.07
615.38	44397.62
615.54	43566.73
615.69	43817.17
615.84	43690.78
616.00	43791.42
616.15	44114.42
616.30	43899.09
616.46	43529.28
616.61	43463.75
616.76	43847.60
616.92	43611.20
617.07	43430.98
617.22	43672.06
617.37	43297.57
617.53	43973.98
617.68	44175.27
617.83	43817.17
617.99	43908.45
618.14	43791.42
618.29	43283.53
618.45	43316.29
618.60	43367.79
618.75	43402.89
618.90	43646.31
619.06	43477.79
619.21	43409.92
619.36	44067.61
619.51	43634.61
619.67	43597.16
619.82	43508.22
619.97	43452.05
620.12	43328.00
620.28	42679.67
620.43	43477.79
620.58	43243.74
620.73	43147.78
620.89	43182.88
621.04	43257.78
621.19	43119.69
621.34	42953.51
621.49	43009.68
621.65	43129.05
621.80	43236.72
621.95	42653.92
622.10	43175.86
622.25	42628.18
622.41	42731.16
622.56	42607.11
622.71	43311.61
622.86	42836.48
623.01	43093.94
623.16	43262.46
623.32	42838.83
623.47	43147.78
623.62	42918.40
623.77	42663.28
623.92	43182.88
624.07	42464.34
624.23	42735.84
624.38	42328.59
624.53	42511.15
624.68	42857.55
624.83	42733.50
624.98	42684.35
625.13	42202.20
625.29	42597.75
625.44	42679.67
625.59	42190.50
625.74	41874.52
625.89	42239.65
626.04	42356.67
626.19	42579.03
626.34	42600.09
626.49	42281.78
626.65	42188.16
626.80	42244.33
626.95	42274.76
627.10	42344.97
627.25	41989.21
627.40	41558.55
627.55	42010.28
627.70	41982.19
627.85	41624.09
628.00	42213.90
628.15	41895.59
628.30	41640.47
628.45	41799.63
628.60	41783.24
628.76	42099.22
628.91	42000.91
629.06	41844.10
629.21	41986.87
629.36	41429.82
629.51	41853.46
629.66	41696.64
629.81	41734.09
629.96	41633.45
630.11	41970.49
630.26	41574.94
630.41	41652.17
630.56	41170.02
630.71	41673.24
630.86	41481.31
631.01	41359.61
631.16	41701.32
631.31	41436.84
631.46	40835.33
631.61	41226.20
631.76	41209.81
631.91	41490.68
632.06	41263.64
632.21	41830.05
632.36	41476.63
632.51	40582.55
632.66	41408.76
632.81	41083.42
632.96	41151.30
633.10	41034.27
633.25	40692.55
633.40	41268.33
633.55	41448.55
633.70	40858.73
633.85	40713.62
634.00	41172.36
634.15	40612.98
634.30	41088.10
634.45	41041.29
634.60	40692.55
634.75	40950.01
634.90	40870.43
635.05	40886.82
635.19	41233.22
635.34	40861.07
635.49	40624.68
635.64	40928.95
635.79	40194.02
635.94	40346.15
636.09	41104.49
636.24	40746.39
636.39	40126.14
636.53	40233.81
636.68	40292.32
636.83	40531.06
636.98	40357.86
637.13	40121.46
637.28	41109.17
637.43	40596.59
637.57	40643.40
637.72	40140.19
637.87	40329.77
638.02	40524.04
638.17	40151.89
638.32	40446.80
638.46	39814.85
638.61	40140.19
638.76	40135.51
638.91	40048.91
639.06	40205.72
639.20	40161.25
639.35	40652.76
639.50	40425.73
639.65	40086.36
639.80	40095.72
639.94	39592.50
640.09	39812.51
640.24	39814.85
640.39	39924.86
640.54	39838.26
640.68	39756.34
640.83	39931.88
640.98	39435.69
641.13	39412.28
641.27	39871.03
641.42	39878.05
641.57	39672.08
641.72	39744.64
641.86	39306.96
642.01	39335.04
642.16	39606.55
642.31	39157.16
642.45	39667.40
642.60	38724.16
642.75	39112.69
642.90	39192.27
643.04	39826.56
643.19	39285.89
643.34	39550.37
643.48	39407.60
643.63	39363.13
643.78	39274.19
643.93	39168.87
644.07	39143.12
644.22	38824.81
644.37	38719.48
644.51	39356.11
644.66	39227.38
644.81	39501.22
644.95	38754.59
645.10	39124.40
645.25	39232.06
645.39	39012.05
645.54	39264.83
645.69	39133.76
645.83	39360.79
645.98	38808.42
646.13	38909.07
646.27	39337.38
646.42	38986.30
646.57	38705.44
646.71	38820.13
646.86	38459.68
647.00	39005.03
647.15	39047.16
647.30	38955.88
647.44	38895.02
647.59	39084.61
647.74	38286.48
647.88	38646.93
648.03	38532.24
648.17	38909.07
648.32	38635.22
648.47	38403.51
648.61	38422.23
648.76	39037.80
648.90	38515.86
649.05	38504.15
649.20	38483.09
649.34	38396.49
649.49	38155.41
649.63	38347.34
649.78	38447.98
649.92	37958.81
650.07	38625.86
650.21	38029.02
650.36	38309.89
650.51	38012.64
650.65	38405.85
650.80	38651.61
650.94	38511.17
651.09	38305.21
651.23	37801.99
651.38	38199.88
651.52	38007.96
651.67	38181.16
651.81	37801.99
651.96	37696.67
652.10	37682.62
652.25	37792.63
652.39	38518.20
652.54	37867.53
652.68	38061.79
652.83	38134.35
652.97	38202.22
653.12	37572.62
653.26	37525.81
653.41	37984.55
653.55	37488.36
653.70	37310.48
653.84	37689.65
653.99	37434.53
654.13	37638.15
654.27	37666.24
654.42	37453.25
654.56	37603.05
654.71	37776.25
654.85	37757.52
655.00	37476.66
655.14	37184.09
655.29	36959.40
655.43	37193.45
655.57	37064.72
655.72	37392.40
655.86	37006.21
656.01	37258.99
656.15	36760.45
656.30	36856.42
656.44	37275.37
656.58	36847.05
656.73	36442.14
656.87	37432.19
657.01	36643.43
657.16	36715.98
657.30	36765.14
657.45	36514.70
657.59	36734.71
657.73	36898.55
657.88	36818.97
658.02	36760.45
658.16	36762.79
658.31	37003.87
658.45	36889.18
658.60	36797.90
658.74	36816.63
658.88	36605.98
659.03	36573.21
659.17	36318.09
659.31	36334.48
659.46	36549.81
659.60	36786.20
659.74	35938.93
659.89	36189.36
660.03	36121.49
660.17	36219.79
660.32	36037.23
660.46	36521.72
660.60	36168.30
660.74	36638.75
660.89	36460.87
661.03	35566.78
661.17	35306.98
661.32	35618.27
661.46	35747.00
661.60	35786.79
661.74	35674.45
661.89	36048.93
662.03	35700.19
662.17	35253.15
662.31	35566.78
662.46	35522.31
662.60	35775.09
662.74	35363.15
662.88	35494.22
663.03	35405.28
663.17	35117.40
663.31	35222.72
663.45	35637.00
663.60	34993.35
663.74	34883.34
663.88	34948.88
664.02	34965.26
664.17	34705.46
664.31	34946.54
664.45	34820.15
664.59	35391.24
664.73	34611.84
664.88	34682.06
665.02	34546.31
665.16	34590.78
665.30	34799.08
665.44	34433.96
665.59	34251.40
665.73	34740.57
665.87	34359.06
666.01	34572.05
666.15	34604.82
666.29	34700.78
666.44	34452.69
666.58	34328.64
666.72	34424.60
666.86	34342.68
667.00	34305.23
667.14	34015.01
667.28	33968.19
667.43	33907.34
667.57	33811.38
667.71	33867.55
667.85	33827.76
667.99	33354.97
668.13	33420.51
668.27	33441.57
668.41	33589.03
668.56	33216.88
668.70	33436.89
668.84	33261.35
668.98	33170.07
669.12	33294.12
669.26	33104.54
669.40	33022.62
669.54	33177.09
669.68	33099.86
669.82	33064.75
669.96	32606.00
670.10	32598.98
670.25	33003.89
670.39	32629.41
670.53	32383.65
670.67	32641.11
670.81	32779.20
670.95	32861.12
671.09	32821.33
671.23	32961.76
671.37	32910.27
671.51	31962.36
671.65	32074.70
671.79	31952.99
671.93	31950.65
672.07	32339.18
672.21	31660.43
672.35	31770.43
672.49	32114.49
672.63	32006.83
672.77	31786.82
672.91	31484.89
673.05	31480.21
673.19	31665.11
673.33	31660.43
673.47	31447.44
673.61	31358.50
673.75	31267.22
673.89	30810.81
674.03	31185.30
674.17	30806.13
674.31	30377.81
674.45	30625.91
674.59	31026.14
674.73	31229.77
674.87	30817.83
675.01	30682.08
675.15	31026.14
675.29	30794.43
675.43	30670.38
675.56	30883.37
675.70	30253.76
675.84	30586.12
675.98	29537.56
676.12	29673.31
676.26	30106.31
676.40	29748.21
676.54	29834.81
676.68	29989.28
676.82	29420.53
676.96	29256.70
677.10	29689.70
677.23	29752.89
677.37	29268.40
677.51	29399.47
677.65	29797.36
677.79	28893.91
677.93	28992.22
678.07	28716.03
678.21	28964.13
678.34	28542.83
678.48	28811.99
678.62	28367.29
678.76	28790.93
678.90	28503.04
679.04	28622.41
679.18	28470.28
679.31	27936.63
679.45	27709.60
679.59	27569.17
679.73	27831.31
679.87	27882.80
680.00	27723.65
680.14	27426.40
680.28	27674.49
680.42	27704.92
680.56	27414.69
680.70	27192.34
680.83	27035.53
680.97	27227.45
681.11	26953.61
681.25	26682.11
681.39	26780.41
681.52	27089.36
681.66	26642.32
681.80	26541.68
681.94	26513.59
682.07	26661.04
682.21	26412.95
682.35	26228.04
682.49	26302.94
682.62	26319.32
682.76	26139.10
682.90	26066.55
683.04	25837.17
683.17	25965.90
683.31	25792.70
683.45	26036.12
683.59	25340.98
683.72	25624.18
683.86	25303.53
684.00	24982.88
684.13	25221.61
684.27	25188.85
684.41	24957.13
684.55	24837.76
684.68	25022.67
684.82	24805.00
684.96	24793.29
685.09	24830.74
685.23	24891.60
685.37	24430.51
685.50	24552.22
685.64	24802.66
685.78	24416.47
685.91	24411.79
686.05	24360.30
686.19	23922.62
686.32	24189.44
686.46	23880.49
686.60	23658.14
686.73	23487.28
686.87	23236.84
687.01	23194.71
687.14	23426.42
687.28	23042.57
687.42	23023.85
687.55	22923.21
687.69	23119.81
687.82	23129.17
687.96	22970.02
688.10	22621.28
688.23	22672.77
688.37	22532.34
688.50	22284.24
688.64	22183.60
688.78	22326.37
688.91	21876.99
689.05	22148.49
689.18	21907.41
689.32	21752.94
689.46	22026.78
689.59	22157.85
689.73	21848.90
689.86	21532.93
690.00	21759.96
690.13	21820.81
690.27	21656.98
690.41	21565.70
690.54	21184.19
690.68	21420.58
690.81	21289.51
690.95	21041.42
691.08	21118.65
691.22	21135.04
691.35	20950.14
691.49	20779.28
691.62	20971.20
691.76	21041.42
691.89	20631.82
692.03	20365.00
692.16	20271.38
692.30	20229.25
692.43	20395.43
692.57	20013.92
692.70	19892.21
692.84	20140.31
692.97	19513.05
693.11	19669.86
693.24	19775.19
693.38	19499.00
693.51	19400.70
693.65	19751.78
693.78	19669.86
693.92	19398.36
694.05	19239.20
694.19	19403.04
694.32	18927.91
694.45	19115.16
694.59	19002.81
694.72	19084.73
694.86	18604.92
694.99	18567.47
695.13	18836.63
695.26	18197.67
695.39	18319.37
695.53	18478.53
695.66	18038.51
695.80	18120.43
695.93	18082.98
696.07	17900.42
696.20	18349.80
696.33	18120.43
696.47	18150.85
696.60	17935.53
696.73	17994.04
696.87	17872.33
697.00	17727.22
697.14	17745.94
697.27	17427.63
697.40	17277.83
697.54	17343.37
697.67	17090.59
697.80	17170.17
697.94	17277.83
698.07	16924.41
698.21	16863.56
698.34	17076.55
698.47	16933.78
698.61	16762.92
698.74	16615.46
698.87	16418.86
699.01	16458.65
699.14	16299.49
699.27	16556.95
699.40	16418.86
699.54	16318.22
699.67	16056.08
699.80	16149.70
699.94	15824.36
700.07	16049.05
700.20	15847.77
700.34	15796.28
700.47	15861.81
700.60	15908.62
700.73	15939.05
700.87	15674.57
701.00	15274.34
701.13	15372.64
701.26	15637.12
701.40	15702.65
701.53	15178.37
701.66	15527.11
701.79	15094.11
701.93	14918.57
702.06	14958.36
702.19	14670.48
702.32	14963.04
702.46	14757.08
702.59	14970.07
702.72	14675.16
702.85	14541.75
702.99	14904.53
703.12	14745.38
703.25	14553.45
703.38	14553.45
703.51	14384.93
703.65	14494.94
703.78	14445.79
703.91	14122.79
704.04	14059.60
704.17	14122.79
704.31	13921.51
704.44	13675.75
704.57	13619.58
704.70	13549.36
704.83	13708.52
704.96	13458.08
705.10	13652.34
705.23	13781.07
>>>>>End Processed Spectral Data<<<<<
