SpectraSuite Data File
++++++++++++++++++++++++++++++++++++
Date: Fri Oct 25 10:43:44 EDT 2013
User: price-jones
Dark Spectrum Present: No
Reference Spectrum Present: No
Number of Sampled Component Spectra: 1
Spectrometers: USB2+H05261
Integration Time (usec): 100000 (USB2+H05261)
Spectra Averaged: 1 (USB2+H05261)
Boxcar Smoothing: 0 (USB2+H05261)
Correct for Electrical Dark: No (USB2+H05261)
Strobe/Lamp Enabled: No (USB2+H05261)
Correct for Detector Non-linearity: No (USB2+H05261)
Correct for Stray Light: No (USB2+H05261)
Number of Pixels in Processed Spectrum: 2048
>>>>>Begin Processed Spectral Data<<<<<
365.73	133.41
365.92	133.41
366.12	133.41
366.32	23.41
366.52	0.00
366.72	63.19
366.91	2.34
367.11	35.11
367.31	74.90
367.51	0.00
367.70	79.58
367.90	0.00
368.10	16.38
368.30	9.36
368.49	21.06
368.69	25.75
368.89	30.43
369.09	44.47
369.28	100.64
369.48	112.35
369.68	58.51
369.87	121.71
370.07	88.94
370.27	100.64
370.47	262.14
370.66	451.72
370.86	418.96
371.06	538.32
371.25	491.51
371.45	496.19
371.65	475.13
371.84	416.62
372.04	353.42
372.24	561.73
372.44	433.00
372.63	503.22
372.83	554.71
373.03	447.04
373.22	447.04
373.42	505.56
373.62	454.06
373.81	606.20
374.01	496.19
374.21	564.07
374.40	528.96
374.60	573.43
374.79	554.71
374.99	585.13
375.19	617.90
375.38	566.41
375.58	550.03
375.78	615.56
375.97	610.88
376.17	603.86
376.37	615.56
376.56	575.77
376.76	531.30
376.95	589.82
377.15	650.67
377.35	662.37
377.54	645.99
377.74	631.94
377.93	664.71
378.13	643.65
378.33	645.99
378.52	559.39
378.72	676.41
378.91	730.25
379.11	636.63
379.31	667.05
379.50	582.79
379.70	767.70
379.89	667.05
380.09	627.26
380.28	695.14
380.48	629.60
380.68	650.67
380.87	596.84
381.07	648.33
381.26	690.46
381.46	713.86
381.65	737.27
381.85	596.84
382.04	695.14
382.24	645.99
382.43	678.76
382.63	669.39
382.83	711.52
383.02	725.57
383.22	697.48
383.41	702.16
383.61	751.31
383.80	837.91
384.00	744.29
384.19	678.76
384.39	814.51
384.58	807.48
384.78	784.08
384.97	777.06
385.17	807.48
385.36	713.86
385.56	779.40
385.75	861.32
385.95	837.91
386.14	842.59
386.34	805.14
386.53	725.57
386.72	851.96
386.92	812.17
387.11	903.45
387.31	795.78
387.50	830.89
387.70	844.93
387.89	891.74
388.09	917.49
388.28	835.57
388.48	847.27
388.67	866.00
388.86	861.32
389.06	950.26
389.25	936.21
389.45	1025.15
389.64	950.26
389.84	1048.56
390.03	1008.77
390.22	1015.79
390.42	1043.88
390.61	1015.79
390.81	1041.54
391.00	1111.75
391.19	1015.79
391.39	997.07
391.58	1048.56
391.78	1074.31
391.97	1086.01
392.16	983.02
392.36	1128.14
392.55	1011.11
392.75	1013.45
392.94	966.64
393.13	1062.60
393.33	957.28
393.52	1015.79
393.71	1170.27
393.91	1088.35
394.10	1022.81
394.29	1231.12
394.49	1193.67
394.68	1231.12
394.88	1186.65
395.07	1212.40
395.26	1149.20
395.46	1172.61
395.65	1275.59
395.84	1317.72
396.04	1174.95
396.23	1149.20
396.42	1123.46
396.62	1214.74
396.81	1247.51
397.00	1245.16
397.19	1165.59
397.39	1308.36
397.58	1315.38
397.77	1345.81
397.97	1399.64
398.16	1490.92
398.35	1579.86
398.55	1413.68
398.74	1427.73
398.93	1472.20
399.12	1519.01
399.32	1458.15
399.51	1455.81
399.70	1549.43
399.90	1544.75
400.09	1582.20
400.28	1568.16
400.47	1593.90
400.67	1661.78
400.86	1654.76
401.05	1607.95
401.24	1629.01
401.44	1577.52
401.63	1645.40
401.82	1617.31
402.01	1675.82
402.21	1710.93
402.40	1769.44
402.59	1799.87
402.78	1755.40
402.97	1631.35
403.17	1741.36
403.36	1753.06
403.55	1881.79
403.74	1813.92
403.93	1811.57
404.13	1916.90
404.32	1736.68
404.51	1863.07
404.70	1870.09
404.89	1858.39
405.09	1888.81
405.28	1966.05
405.47	1930.94
405.66	1975.41
405.85	1956.69
406.05	1984.77
406.24	2073.71
406.43	1940.30
406.62	2069.03
406.81	2115.84
407.00	2062.01
407.20	1961.37
407.39	1991.80
407.58	2153.29
407.77	2186.06
407.96	2094.78
408.15	2256.28
408.34	2174.36
408.54	2272.66
408.73	2183.72
408.92	2326.49
409.11	2270.32
409.30	2237.55
409.49	2169.68
409.68	2153.29
409.87	2279.68
410.07	2347.56
410.26	2335.85
410.45	2394.37
410.64	2286.70
410.83	2445.86
411.02	2506.71
411.21	2597.99
411.40	2588.63
411.59	2602.68
411.78	2567.57
411.98	2715.02
412.17	2698.64
412.36	2710.34
412.55	2703.32
412.74	2661.19
412.93	2628.42
413.12	2586.29
413.31	2794.60
413.50	2757.15
413.69	2909.29
413.88	2829.71
414.07	2928.01
414.26	2920.99
414.45	2946.73
414.64	2981.84
414.83	2855.45
415.02	3129.30
415.22	3033.33
415.41	3059.08
415.60	3082.49
415.79	3112.91
415.98	3234.62
416.17	3246.32
416.36	3225.26
416.55	3251.00
416.74	3185.47
416.93	3253.34
417.12	3325.90
417.31	3241.64
417.50	3229.94
417.69	3396.12
417.88	3361.01
418.07	3297.81
418.26	3417.18
418.45	3541.23
418.64	3543.57
418.83	3627.83
419.02	3496.76
419.21	3684.00
419.39	3566.98
419.58	3548.25
419.77	3569.32
419.96	3527.19
420.15	3742.52
420.34	3700.39
420.53	3592.72
420.72	3754.22
420.91	3859.54
421.10	3775.28
421.29	3866.56
421.48	3831.46
421.67	3730.81
421.86	3737.84
422.05	3810.39
422.24	3761.24
422.43	3646.55
422.61	3716.77
422.80	3775.28
422.99	3789.33
423.18	3901.67
423.37	3974.23
423.56	3845.50
423.75	3878.27
423.94	3691.02
424.13	3611.45
424.32	3775.28
424.50	3899.33
424.69	3978.91
424.88	3960.19
425.07	3873.59
425.26	3665.28
425.45	3880.61
425.64	3962.53
425.83	3971.89
426.01	3906.35
426.20	3997.64
426.39	3990.61
426.58	3953.16
426.77	3801.03
426.96	3974.23
427.15	3962.53
427.33	3943.80
427.52	3978.91
427.71	4070.19
427.90	4081.89
428.09	4140.41
428.28	4046.79
428.46	4119.34
428.65	4051.47
428.84	4194.24
429.03	4257.43
429.22	4102.96
429.40	4177.86
429.59	4056.15
429.78	3918.06
429.97	3967.21
430.16	3941.46
430.34	4084.23
430.53	4126.36
430.72	4126.36
430.91	4077.21
431.10	4292.54
431.28	4451.70
431.47	4404.89
431.66	4521.92
431.85	4447.02
432.03	4533.62
432.22	4643.62
432.41	4699.80
432.60	4533.62
432.79	4674.05
432.97	4739.58
433.16	4746.61
433.35	4657.67
433.54	4573.41
433.72	4704.48
433.91	4734.90
434.10	4709.16
434.28	4568.73
434.47	4772.35
434.66	4966.62
434.85	4840.23
435.03	4849.59
435.22	4870.65
435.41	5067.26
435.59	5055.56
435.78	4926.83
435.97	5055.56
436.16	5036.83
436.34	5149.18
436.53	5224.08
436.72	5064.92
436.90	4938.53
437.09	5088.32
437.28	4933.85
437.46	5088.32
437.65	5228.76
437.84	5242.80
438.02	5109.39
438.21	5163.22
438.40	5151.52
438.58	5371.53
438.77	5336.42
438.96	5259.18
439.14	5511.96
439.33	5448.77
439.52	5643.03
439.70	5600.90
439.89	5748.36
440.08	5720.27
440.26	5743.67
440.45	5645.37
440.63	5746.02
440.82	5914.53
441.01	5806.87
441.19	5923.90
441.38	6104.12
441.57	6010.50
441.75	5980.07
441.94	6169.65
442.12	6368.60
442.31	6195.40
442.50	6258.59
442.68	6153.27
442.87	6270.30
443.05	6352.21
443.24	6303.06
443.43	6317.11
443.61	6504.35
443.80	6438.81
443.98	6253.91
444.17	5954.32
444.35	6466.90
444.54	6616.69
444.73	6548.82
444.91	6424.77
445.10	6408.39
445.28	6181.35
445.47	6377.96
445.65	6265.61
445.84	6389.66
446.02	6572.22
446.21	6441.15
446.39	6478.60
446.58	6532.44
446.77	6551.16
446.95	6555.84
447.14	6408.39
447.32	6679.89
447.51	6530.09
447.69	6569.88
447.88	6576.91
448.06	6710.32
448.25	6520.73
448.43	6579.25
448.62	6703.29
448.80	6569.88
448.99	6747.76
449.17	6822.66
449.36	6745.42
449.54	6977.14
449.73	6853.09
449.91	6906.92
450.10	7129.27
450.28	7304.81
450.46	6972.46
450.65	7283.75
450.83	6944.37
451.02	7157.36
451.20	7122.25
451.39	7286.09
451.57	7066.08
451.76	7005.22
451.94	7105.87
452.13	7162.04
452.31	7028.63
452.49	7110.55
452.68	7169.06
452.86	7094.16
453.05	7218.21
453.23	7105.87
453.42	7211.19
453.60	7424.18
453.78	7297.79
453.97	7332.90
454.15	7379.71
454.34	7386.73
454.52	7295.45
454.70	7426.52
454.89	7260.34
455.07	7503.76
455.26	7400.77
455.44	7758.88
455.62	7637.17
455.81	7606.74
455.99	7716.75
456.17	7698.02
456.36	7768.24
456.54	7896.97
456.73	7943.78
456.91	8030.38
457.09	8060.80
457.28	8236.35
457.46	7826.75
457.64	8124.00
457.83	7969.52
458.01	7918.03
458.19	8226.98
458.38	7953.14
458.56	8035.06
458.74	8116.98
458.93	8023.36
459.11	8388.48
459.29	8159.11
459.48	8320.60
459.66	8194.22
459.84	8355.71
460.03	8507.85
460.21	8409.54
460.39	8411.89
460.57	8549.98
460.76	8435.29
460.94	8496.14
461.12	8418.91
461.31	8475.08
461.49	8652.96
461.67	8362.73
461.85	8620.19
462.04	8805.10
462.22	9273.20
462.40	8861.27
462.59	8704.45
462.77	8805.10
462.95	8877.65
463.13	8718.50
463.32	8697.43
463.50	8847.22
463.68	8901.06
463.86	8847.22
464.05	9029.79
464.23	8844.88
464.41	9095.32
464.59	8734.88
464.78	9207.67
464.96	9289.59
465.14	8872.97
465.32	9181.92
465.50	8980.64
465.69	8950.21
465.87	9104.68
466.05	9034.47
466.23	9055.53
466.41	9011.06
466.60	9245.12
466.78	8980.64
466.96	8994.68
467.14	9048.51
467.32	9245.12
467.51	9408.95
467.69	9144.47
467.87	9397.25
468.05	9268.52
468.23	9221.71
468.41	9327.03
468.60	9394.91
468.78	9476.83
468.96	9455.76
469.14	9654.71
469.32	9666.41
469.50	9376.19
469.69	9647.69
469.87	9572.79
470.05	9694.50
470.23	9816.21
470.41	9755.35
470.59	9841.95
470.77	9689.82
470.95	9722.59
471.14	10157.92
471.32	9933.23
471.50	10202.40
471.68	10029.20
471.86	10188.35
472.04	10246.87
472.22	10527.73
472.40	9930.89
472.58	10342.83
472.77	10366.23
472.95	10457.51
473.13	10867.11
473.31	10083.03
473.49	10200.05
473.67	10473.90
473.85	10363.89
474.03	10850.72
474.21	10876.47
474.39	10799.23
474.57	10937.32
474.75	11009.88
474.93	11178.40
475.12	10930.30
475.30	11143.29
475.48	10916.26
475.66	11009.88
475.84	11234.57
476.02	11169.04
476.20	11300.11
476.38	11793.96
476.56	11683.95
476.74	11527.14
476.92	11545.86
477.10	11800.98
477.28	11651.19
477.46	12100.57
477.64	11789.28
477.82	12107.59
478.00	12388.46
478.18	12446.97
478.36	12435.27
478.54	12908.05
478.72	12690.38
478.90	12861.24
479.08	12837.84
479.26	12879.97
479.44	12943.16
479.62	12917.42
479.80	13053.17
479.98	13380.84
480.16	13530.64
480.34	13064.87
480.52	13678.09
480.70	13399.57
480.88	13408.93
481.06	13530.64
481.24	13886.40
481.41	14183.65
481.59	14188.33
481.77	14312.38
481.95	14403.66
482.13	14352.16
482.31	14408.34
482.49	14761.76
482.67	15014.54
482.85	14813.25
483.03	15110.50
483.21	15091.77
483.39	15421.79
483.57	15061.35
483.74	15440.51
483.92	15103.48
484.10	15276.68
484.28	15695.63
484.46	16035.01
484.64	16224.59
484.82	15880.53
485.00	15960.11
485.18	16105.23
485.35	16437.58
485.53	16013.95
485.71	16306.51
485.89	16217.57
486.07	16184.80
486.25	16449.28
486.43	16606.10
486.61	16898.67
486.78	16891.65
486.96	17144.42
487.14	17261.45
487.32	17767.01
487.50	17912.12
487.68	17865.31
487.85	18473.85
488.03	18059.57
488.21	18438.74
488.39	18417.68
488.57	18459.81
488.75	18590.88
488.92	18944.30
489.10	19171.33
489.28	19295.38
489.46	19557.52
489.64	19166.65
489.81	20013.92
489.99	19768.16
490.17	20196.48
490.35	20266.70
490.53	20266.70
490.70	20346.28
490.88	20264.36
491.06	20570.97
491.24	20526.50
491.41	20734.81
491.59	20624.80
491.77	20521.82
491.95	20886.94
492.13	21010.99
492.30	21315.26
492.48	21408.88
492.66	21682.72
492.84	21633.57
493.01	22073.59
493.19	21811.45
493.37	22249.13
493.54	22169.55
493.72	22373.18
493.90	22237.43
494.08	22721.92
494.25	22728.94
494.43	23040.23
494.61	23433.44
494.79	23381.95
494.96	23250.88
495.14	23229.82
495.32	23403.02
495.49	23520.04
495.67	23398.34
495.85	23941.34
496.02	23943.68
496.20	23988.15
496.38	24189.44
496.55	24430.51
496.73	24966.49
496.91	24528.81
497.09	24645.84
497.26	24531.15
497.44	24676.27
497.62	25177.14
497.79	24952.45
497.97	25125.65
498.14	25048.41
498.32	25319.92
498.50	25355.02
498.67	25902.71
498.85	25572.69
499.03	26291.24
499.20	26096.97
499.38	26333.37
499.56	26017.40
499.73	26387.20
499.91	26216.34
500.08	26176.55
500.26	26148.46
500.44	26525.29
500.61	26359.11
500.79	26443.37
500.97	26642.32
501.14	26625.93
501.32	26642.32
501.49	26967.65
501.67	26944.25
501.84	27161.92
502.02	27482.57
502.20	27323.41
502.37	27758.75
502.55	27695.56
502.72	27463.85
502.90	27878.12
503.07	27590.24
503.25	27810.25
503.43	27831.31
503.60	27800.88
503.78	28243.24
503.95	27943.66
504.13	28208.14
504.30	28215.16
504.48	28379.00
504.65	28982.85
504.83	28755.82
505.01	29020.30
505.18	28779.23
505.36	29104.56
505.53	29118.60
505.71	29289.46
505.88	29380.74
506.06	29050.73
506.23	29757.57
506.41	29502.45
506.58	29294.14
506.76	29764.59
506.93	30127.38
507.11	29825.45
507.28	29848.85
507.46	29811.40
507.63	29497.77
507.81	30005.67
507.98	29874.60
508.16	30115.67
508.33	30370.79
508.50	30562.72
508.68	30831.88
508.85	30806.13
509.03	30574.42
509.20	31028.48
509.38	30794.43
509.55	31498.93
509.73	31026.14
509.90	31360.84
510.08	31110.40
510.25	30953.58
510.42	31168.91
510.60	31426.37
510.77	31253.17
510.95	31667.45
511.12	31377.22
511.30	31311.69
511.47	32273.65
511.64	32268.97
511.82	32350.88
511.99	31983.42
512.17	31894.48
512.34	31576.17
512.51	32093.43
512.69	32570.90
512.86	32297.05
513.04	32512.38
513.21	32474.93
513.38	32664.52
513.56	32163.64
513.73	32444.51
513.90	33041.34
514.08	32542.81
514.25	33106.88
514.43	32793.25
514.60	32807.29
514.77	33317.53
514.95	33401.79
515.12	33399.44
515.29	33275.40
515.47	33228.59
515.64	33605.41
515.81	33839.47
515.99	33638.18
516.16	33553.92
516.33	33490.73
516.51	33699.03
516.68	32936.02
516.85	33003.89
517.03	33191.14
517.20	33556.26
517.37	34167.14
517.54	34169.48
517.72	33982.24
517.89	33586.69
518.06	33883.94
518.24	33844.15
518.41	34054.79
518.58	34892.71
518.75	34511.20
518.93	34398.85
519.10	34471.41
519.27	34983.99
519.45	34485.45
519.62	34710.14
519.79	34693.76
519.96	35295.28
520.14	35173.57
520.31	34965.26
520.48	35164.21
520.65	34869.30
520.83	35395.92
521.00	35346.77
521.17	35569.12
521.34	35641.68
521.52	35590.19
521.69	35955.31
521.86	35789.13
522.03	36137.87
522.20	36243.20
522.38	35885.09
522.55	36151.91
522.72	35901.48
522.89	36172.98
523.07	36388.31
523.24	36390.65
523.41	36327.45
523.58	36367.24
523.75	36861.10
523.92	37015.57
524.10	36804.92
524.27	36840.03
524.44	37219.20
524.61	37031.96
524.78	36849.39
524.96	37118.56
525.13	37422.83
525.30	37130.26
525.47	37450.91
525.64	37060.04
525.81	37455.59
525.98	37319.84
526.16	37254.31
526.33	37127.92
526.50	36879.82
526.67	37057.70
526.84	37083.45
527.01	36971.10
527.18	37471.98
527.36	38223.29
527.53	38195.20
527.70	38174.14
527.87	38005.62
528.04	38190.52
528.21	37940.08
528.38	38059.45
528.55	38550.96
528.72	38686.71
528.89	38555.64
529.07	38632.88
529.24	38436.28
529.41	38293.50
529.58	38511.17
529.75	38623.52
529.92	38714.80
530.09	38920.77
530.26	38663.31
530.43	38852.89
530.60	38834.17
530.77	38843.53
530.94	39400.58
531.11	39274.19
531.28	39159.50
531.46	39161.84
531.63	39218.02
531.80	39536.33
531.97	39395.90
532.14	39164.18
532.31	39332.70
532.48	39253.12
532.65	39564.42
532.82	39267.17
532.99	39339.72
533.16	39477.82
533.33	39955.29
533.50	39636.97
533.67	40095.72
533.84	39358.45
534.01	39716.55
534.18	39852.30
534.35	39597.18
534.52	40135.51
534.69	40275.94
534.86	40374.24
535.03	40067.63
535.20	40191.68
535.37	40772.13
535.54	40875.12
535.71	40432.75
535.88	40734.68
536.05	40458.50
536.22	40535.74
536.38	40168.27
536.55	40353.18
536.72	40425.73
536.89	40605.95
537.06	40535.74
537.23	40985.12
537.40	40952.35
537.57	40802.56
537.74	40861.07
537.91	41006.19
538.08	41076.40
538.25	40945.33
538.42	40917.25
538.59	41350.24
538.75	40505.31
538.92	40900.86
539.09	41411.10
539.26	40847.03
539.43	41179.39
539.60	41015.55
539.77	40788.52
539.94	41027.25
540.11	40886.82
540.28	41165.34
540.44	41460.25
540.61	41282.37
540.78	41113.85
540.95	41177.04
541.12	41352.58
541.29	41436.84
541.46	41392.37
541.62	41319.82
541.79	41539.83
541.96	41069.38
542.13	41813.67
542.30	41652.17
542.47	41572.60
542.63	41504.72
542.80	41757.50
542.97	42457.32
543.14	42281.78
543.31	42527.53
543.48	41813.67
543.64	42518.17
543.81	42658.60
543.98	42738.18
544.15	42274.76
544.32	42644.56
544.48	42644.56
544.65	42597.75
544.82	42717.12
544.99	42401.14
545.16	42792.01
545.32	42712.44
545.49	43140.75
545.66	43112.67
545.83	43246.08
546.00	43194.59
546.16	42918.40
546.33	42801.38
546.50	42471.36
546.67	42780.31
546.83	42820.10
547.00	43012.02
547.17	43342.04
547.34	42838.83
547.50	43250.76
547.67	42974.58
547.84	43126.71
548.00	43042.45
548.17	43700.14
548.34	43746.95
548.51	43438.00
548.67	43463.75
548.84	43035.43
549.01	43430.98
549.18	43274.16
549.34	43470.77
549.51	43374.81
549.68	43562.05
549.84	43328.00
550.01	43817.17
550.18	43634.61
550.34	43924.83
550.51	43559.71
550.68	43648.65
550.84	43487.15
551.01	43744.61
551.18	43707.16
551.34	43601.84
551.51	43997.39
551.68	43950.58
551.84	43800.79
552.01	43683.76
552.18	43250.76
552.34	43414.60
552.51	44051.22
552.68	43894.41
552.84	44254.85
553.01	44329.75
553.18	44275.91
553.34	44336.77
553.51	43786.74
553.67	44194.00
553.84	44655.08
554.01	44383.58
554.17	44634.02
554.34	44795.51
554.51	44594.23
554.67	44552.10
554.84	44350.81
555.00	44308.68
555.17	44325.07
555.33	44596.57
555.50	44793.17
555.67	44680.83
555.83	44666.78
556.00	44278.25
556.16	44837.64
556.33	44774.45
556.50	44577.84
556.66	44900.84
556.83	44612.95
556.99	44884.45
557.16	44577.84
557.32	44776.79
557.49	45062.33
557.65	44509.97
557.82	44781.47
557.98	44872.75
558.15	44809.56
558.32	45436.82
558.48	44315.70
558.65	44634.02
558.81	44669.12
558.98	44369.54
559.14	44229.10
559.31	44879.77
559.47	45141.91
559.64	45322.13
559.80	44947.65
559.97	45160.64
560.13	44664.44
560.30	44718.28
560.46	45188.72
560.63	45095.10
560.79	45226.17
560.96	45397.03
561.12	45083.40
561.29	44961.69
561.45	45078.72
561.61	45221.49
561.78	45001.48
561.94	45235.53
562.11	44978.07
562.27	45036.59
562.44	45247.24
562.60	45375.97
562.77	45476.61
562.93	45165.32
563.10	45436.82
563.26	45315.11
563.42	45682.58
563.59	44800.19
563.75	45563.21
563.92	45413.41
564.08	45633.42
564.24	45680.24
564.41	45090.42
564.57	45347.88
564.74	45284.68
564.90	45031.91
565.07	45471.93
565.23	45408.73
565.39	45242.56
565.56	45333.84
565.72	45144.25
565.88	44978.07
566.05	45443.84
566.21	45453.20
566.38	45347.88
566.54	45502.35
566.70	45874.50
566.87	46021.95
567.03	45500.01
567.19	45675.55
567.36	45656.83
567.52	45619.38
567.68	45462.57
567.85	45743.43
568.01	45853.44
568.17	45497.67
568.34	45570.23
568.50	44671.46
568.66	45509.38
568.83	45752.79
568.99	45223.83
569.15	45591.30
569.32	45705.98
569.48	45380.65
569.64	45916.63
569.81	45558.53
569.97	45467.25
570.13	45469.59
570.30	45186.38
570.46	45357.24
570.62	45310.43
570.78	45146.59
570.95	45280.00
571.11	45668.53
571.27	45373.63
571.43	45600.66
571.60	45900.25
571.76	45832.37
571.92	45708.32
572.09	45528.10
572.25	46045.36
572.41	45766.84
572.57	45958.76
572.74	46073.45
572.90	45876.84
573.06	45837.05
573.22	45675.55
573.38	45422.78
573.55	45649.81
573.71	45825.35
573.87	45418.10
574.03	45397.03
574.20	46047.70
574.36	45691.94
574.52	45844.07
574.68	45834.71
574.84	45979.82
575.01	45385.33
575.17	45787.90
575.33	45825.35
575.49	45588.95
575.65	45759.81
575.82	45963.44
575.98	45783.22
576.14	46382.40
576.30	45804.28
576.46	45591.30
576.62	45876.84
576.79	45600.66
576.95	45619.38
577.11	45687.26
577.27	45942.38
577.43	45647.47
577.59	45593.64
577.75	45223.83
577.92	45090.42
578.08	45380.65
578.24	45815.99
578.40	46021.95
578.56	46012.59
578.72	45687.26
578.88	45879.18
579.04	46232.60
579.21	45457.88
579.37	45593.64
579.53	45619.38
579.69	45603.00
579.85	45603.00
580.01	45947.06
580.17	45839.39
580.33	45748.11
580.49	45698.96
580.65	46447.93
580.82	45673.21
580.98	45783.22
581.14	45855.78
581.30	45989.19
581.46	45860.46
581.62	45844.07
581.78	46358.99
581.94	46330.90
582.10	45869.82
582.26	45778.54
582.42	45951.74
582.58	46033.66
582.74	45588.95
582.90	46096.85
583.06	45895.56
583.22	46295.80
583.38	46356.65
583.54	46138.98
583.70	45968.12
583.86	45998.55
584.02	45895.56
584.18	45815.99
584.34	45846.41
584.50	45801.94
584.66	45989.19
584.82	45804.28
584.98	45823.01
585.14	45921.31
585.30	45570.23
585.46	45918.97
585.62	45558.53
585.78	45914.29
585.94	45734.07
586.10	45984.51
586.26	46129.62
586.42	46061.74
586.58	45610.02
586.74	45729.39
586.90	45925.99
587.06	45694.28
587.22	46206.86
587.38	46045.36
587.54	46354.31
587.70	46356.65
587.86	46000.89
588.02	45743.43
588.18	45993.87
588.34	45504.70
588.49	45785.56
588.65	45469.59
588.81	45588.95
588.97	45937.69
589.13	45455.54
589.29	45804.28
589.45	45918.97
589.61	46033.66
589.77	46071.10
589.93	46202.18
590.08	45944.72
590.24	46202.18
590.40	46305.16
590.56	46253.67
590.72	46153.02
590.88	45956.42
591.04	45890.88
591.20	46644.54
591.35	46422.19
591.51	46469.00
591.67	45958.76
591.83	46321.54
591.99	46019.61
592.15	46237.28
592.31	46157.70
592.46	46188.13
592.62	46244.30
592.78	46113.23
592.94	46129.62
593.10	46007.91
593.26	45963.44
593.41	46225.58
593.57	46279.41
593.73	46342.61
593.89	46337.93
594.05	46115.58
594.20	46117.92
594.36	46024.29
594.52	45724.71
594.68	46209.20
594.84	45869.82
594.99	46204.52
595.15	45937.69
595.31	45895.56
595.47	45996.21
595.62	46115.58
595.78	45858.12
595.94	46188.13
596.10	46162.39
596.25	46405.80
596.41	46010.25
596.57	46078.13
596.73	46274.73
596.88	45827.69
597.04	46302.82
597.20	46291.12
597.36	46232.60
597.51	46487.72
597.67	46019.61
597.83	46239.62
597.99	46909.02
598.14	46323.88
598.30	46539.21
598.46	46328.56
598.61	46658.58
598.77	45780.88
598.93	45968.12
599.09	45986.85
599.24	46511.13
599.40	46497.08
599.56	46335.59
599.71	45705.98
599.87	46206.86
600.03	46305.16
600.18	45780.88
600.34	46096.85
600.50	46096.85
600.65	46150.68
600.81	46412.82
600.97	45771.52
601.12	46574.32
601.28	46169.41
601.44	45963.44
601.59	45979.82
601.75	45970.46
601.91	46045.36
602.06	45986.85
602.22	46113.23
602.37	45865.14
602.53	46473.68
602.69	46534.53
602.84	46000.89
603.00	45949.40
603.16	46270.05
603.31	46195.15
603.47	45991.53
603.62	45979.82
603.78	46251.33
603.94	46263.03
604.09	46368.35
604.25	46216.22
604.40	45897.91
604.56	46028.98
604.71	46038.34
604.87	45897.91
605.03	46017.27
605.18	45989.19
605.34	45923.65
605.49	45518.74
605.65	45925.99
605.80	45942.38
605.96	46141.32
606.12	46160.05
606.27	46162.39
606.43	45705.98
606.58	46031.32
606.74	45937.69
606.89	45331.50
607.05	45890.88
607.20	46122.60
607.36	45961.10
607.51	46209.20
607.67	46061.74
607.82	46026.63
607.98	45977.48
608.13	45652.15
608.29	45825.35
608.44	45806.62
608.60	45429.80
608.75	45666.19
608.91	45998.55
609.06	45694.28
609.22	45769.18
609.37	45532.78
609.53	45815.99
609.68	45858.12
609.84	45598.32
609.99	45720.02
610.15	45408.73
610.30	45434.48
610.46	45408.73
610.61	45640.45
610.76	45287.03
610.92	45858.12
611.07	45830.03
611.23	45656.83
611.38	45467.25
611.54	45284.68
611.69	45221.49
611.84	45029.57
612.00	44957.01
612.15	44928.92
612.31	45790.24
612.46	45284.68
612.62	45558.53
612.77	45872.16
612.92	45312.77
613.08	44940.63
613.23	45017.86
613.39	44973.39
613.54	44395.28
613.69	44947.65
613.85	44854.03
614.00	44940.63
614.15	45329.16
614.31	45113.83
614.46	45631.08
614.62	45380.65
614.77	44746.36
614.92	45228.51
615.08	44837.64
615.23	44776.79
615.38	44362.51
615.54	44650.40
615.69	44673.81
615.84	44793.17
616.00	44814.24
616.15	44919.56
616.30	44423.37
616.46	44425.71
616.61	44486.56
616.76	44737.00
616.92	44409.32
617.07	44463.16
617.22	44470.18
617.37	44467.84
617.53	44954.67
617.68	44968.71
617.83	44903.18
617.99	44659.76
618.14	44311.02
618.29	44601.25
618.45	43789.08
618.60	44320.38
618.75	43791.42
618.90	44128.46
619.06	43997.39
619.21	44212.72
619.36	44296.98
619.51	44409.32
619.67	43985.69
619.82	44320.38
619.97	44215.06
620.12	44137.82
620.28	43608.86
620.43	44388.26
620.58	44041.86
620.73	44196.34
620.89	43899.09
621.04	43828.87
621.19	44362.51
621.34	43962.28
621.49	44201.02
621.65	43632.27
621.80	44479.54
621.95	43761.00
622.10	43885.04
622.25	43512.90
622.41	43536.30
622.56	43875.68
622.71	43793.76
622.86	43723.55
623.01	43641.63
623.16	44004.41
623.32	43732.91
623.47	43922.49
623.62	43702.48
623.77	43276.51
623.92	43833.55
624.07	43768.02
624.23	43210.97
624.38	43091.60
624.53	43124.37
624.68	43484.81
624.83	43363.11
624.98	43421.62
625.13	43016.71
625.29	43257.78
625.44	43215.65
625.59	43065.86
625.74	42773.29
625.89	42745.20
626.04	42726.48
626.19	43241.40
626.34	42792.01
626.49	43330.34
626.65	42923.08
626.80	42686.69
626.95	42564.98
627.10	42808.40
627.25	43030.75
627.40	42787.33
627.55	42529.87
627.70	42431.57
627.85	42920.74
628.00	42513.49
628.15	42560.30
628.30	42850.53
628.45	42501.79
628.60	42417.53
628.76	42759.25
628.91	42742.86
629.06	42316.89
629.21	42419.87
629.36	42745.20
629.51	42368.38
629.66	42539.24
629.81	42061.77
629.96	42445.62
630.11	42440.93
630.26	42464.34
630.41	41998.57
630.56	42316.89
630.71	42101.56
630.86	42253.69
631.01	42218.58
631.16	41596.00
631.31	42174.11
631.46	41659.20
631.61	41750.48
631.76	42223.26
631.91	42117.94
632.06	42068.79
632.21	42036.02
632.36	42274.76
632.51	41911.97
632.66	41975.17
632.81	41778.56
632.96	42024.32
633.10	41530.47
633.25	41317.48
633.40	41897.93
633.55	41893.25
633.70	41567.91
633.85	41579.62
634.00	42122.62
634.15	41792.61
634.30	41626.43
634.45	41591.32
634.60	41703.67
634.75	41280.03
634.90	41425.14
635.05	41373.65
635.19	41448.55
635.34	41600.68
635.49	41755.16
635.64	40931.29
635.79	41380.67
635.94	41226.20
636.09	40781.49
636.24	40928.95
636.39	40800.22
636.53	41055.34
636.68	40931.29
636.83	40821.28
636.98	41507.06
637.13	40919.59
637.28	41265.99
637.43	41340.88
637.57	40921.93
637.72	40994.48
637.87	40776.81
638.02	41076.40
638.17	41127.89
638.32	40891.50
638.46	40472.54
638.61	40987.46
638.76	40818.94
638.91	40694.89
639.06	40999.16
639.20	41062.36
639.35	40964.06
639.50	40240.83
639.65	40861.07
639.80	40580.21
639.94	40921.93
640.09	40311.05
640.24	40254.87
640.39	40383.60
640.54	40507.65
640.68	40231.47
640.83	40088.70
640.98	40634.04
641.13	40002.10
641.27	40472.54
641.42	40189.34
641.57	40327.43
641.72	40418.71
641.86	40203.38
642.01	39608.89
642.16	39878.05
642.31	39768.04
642.45	40130.83
642.60	39583.14
642.75	39721.23
642.90	40233.81
643.04	40016.14
643.19	39681.44
643.34	39889.75
643.48	39978.69
643.63	39583.14
643.78	39990.39
643.93	39908.47
644.07	39997.41
644.22	39473.13
644.37	39667.40
644.51	39772.72
644.66	39470.79
644.81	39456.75
644.95	39459.09
645.10	39463.77
645.25	39629.95
645.39	39604.20
645.54	39878.05
645.69	39648.68
645.83	39150.14
645.98	39232.06
646.13	39255.46
646.27	39431.01
646.42	39332.70
646.57	39255.46
646.71	39239.08
646.86	39393.56
647.00	39264.83
647.15	39187.59
647.30	39129.08
647.44	38993.32
647.59	38988.64
647.74	39098.65
647.88	38967.58
648.03	39124.40
648.17	38836.51
648.32	38899.70
648.47	39150.14
648.61	38515.86
648.76	38951.20
648.90	38731.18
649.05	39002.69
649.20	39126.74
649.34	39005.03
649.49	38387.13
649.63	38815.44
649.78	39133.76
649.92	38693.74
650.07	39105.67
650.21	38696.08
650.36	38885.66
650.51	38857.57
650.65	39000.35
650.80	39180.57
650.94	38927.79
651.09	38557.99
651.23	38628.20
651.38	38408.19
651.52	38277.12
651.67	37794.97
651.81	38543.94
651.96	38169.46
652.10	38696.08
652.25	38483.09
652.39	37993.92
652.54	38560.33
652.68	38565.01
652.83	38345.00
652.97	38536.92
653.12	38960.56
653.26	38164.78
653.41	38129.67
653.55	38185.84
653.70	38602.46
653.84	38190.52
653.99	37919.02
654.13	38092.22
654.27	37940.08
654.42	38117.96
654.56	38014.98
654.71	38380.10
654.85	37731.78
655.00	37851.14
655.14	37804.33
655.29	37523.47
655.43	37455.59
655.57	37319.84
655.72	37333.89
655.86	37266.01
656.01	37188.77
656.15	37174.73
656.30	37275.37
656.44	37523.47
656.58	37418.14
656.73	37535.17
656.87	37357.29
657.01	37116.22
657.16	37422.83
657.30	36769.82
657.45	36985.15
657.59	36964.08
657.73	36828.33
657.88	37633.47
658.02	37172.39
658.16	37567.94
658.31	37532.83
658.45	37132.60
658.60	37022.59
658.74	37099.83
658.88	37144.30
659.03	37067.06
659.17	37174.73
659.31	36605.98
659.46	36610.66
659.60	36444.48
659.74	37034.30
659.89	36472.57
660.03	36577.89
660.17	36715.98
660.32	36627.04
660.46	36657.47
660.60	36390.65
660.74	36055.95
660.89	36130.85
661.03	35849.99
661.17	35765.73
661.32	36498.31
661.46	36421.08
661.60	36123.83
661.74	36208.09
661.89	35838.28
662.03	36067.66
662.17	35817.22
662.31	35739.98
662.46	36203.41
662.60	36041.91
662.74	35611.25
662.88	35800.83
663.03	35725.94
663.17	35791.47
663.31	35468.48
663.45	35695.51
663.60	35522.31
663.74	35304.64
663.88	35456.78
664.02	35250.81
664.17	35323.36
664.31	35400.60
664.45	35126.76
664.59	34775.68
664.73	35030.80
664.88	35126.76
665.02	34721.85
665.16	34731.21
665.30	34543.97
665.44	34852.92
665.59	34483.11
665.73	35030.80
665.87	34515.88
666.01	34457.37
666.15	34506.52
666.29	34689.08
666.44	34897.39
666.58	34445.66
666.72	34494.82
666.86	34183.52
667.00	34621.20
667.14	33970.54
667.28	33979.90
667.43	34443.32
667.57	34412.90
667.71	34251.40
667.85	34073.52
667.99	34284.17
668.13	34132.03
668.27	34122.67
668.41	33731.80
668.56	33874.57
668.70	33834.78
668.84	33453.28
668.98	33509.45
669.12	33556.26
669.26	33464.98
669.40	33282.42
669.54	33385.40
669.68	33532.86
669.82	33259.01
669.96	33195.82
670.10	33022.62
670.25	33048.36
670.39	32807.29
670.53	32760.48
670.67	32870.48
670.81	32549.83
670.95	32933.68
671.09	32921.98
671.23	32690.26
671.37	32414.08
671.51	32776.86
671.65	32463.23
671.79	32505.36
671.93	32271.31
672.07	32673.88
672.21	32163.64
672.35	31910.86
672.49	32203.43
672.63	32313.44
672.77	31550.42
672.91	31896.82
673.05	31716.60
673.19	31859.37
673.33	31824.26
673.47	31512.97
673.61	31646.38
673.75	31103.38
673.89	31042.53
674.03	31232.11
674.17	31400.63
674.31	31194.66
674.45	31524.68
674.59	31428.71
674.73	31332.75
674.87	30984.01
675.01	30831.88
675.15	30778.04
675.29	30927.84
675.43	30614.21
675.56	31000.40
675.70	30508.88
675.84	30885.71
675.98	30092.27
676.12	30237.38
676.26	30260.79
676.40	30457.39
676.54	30345.05
676.68	29809.06
676.82	29392.45
676.96	29771.61
677.10	29727.14
677.23	29825.45
677.37	29352.66
677.51	29736.51
677.65	29462.66
677.79	29053.07
677.93	29205.20
678.07	28973.49
678.21	28690.29
678.34	28484.32
678.48	28886.89
678.62	28577.94
678.76	28472.62
678.90	28409.42
679.04	28264.31
679.18	28533.47
679.31	28147.28
679.45	28252.61
679.59	27711.94
679.73	27674.49
679.87	27796.20
680.00	27835.99
680.14	28016.21
680.28	28048.98
680.42	27641.73
680.56	27538.74
680.70	27433.42
680.83	27627.68
680.97	27503.64
681.11	27262.56
681.25	27185.32
681.39	27023.83
681.52	26984.04
681.66	26714.87
681.80	26888.07
681.94	26773.39
682.07	26918.50
682.21	26630.62
682.35	26398.90
682.49	26103.99
682.62	26101.65
682.76	25984.63
682.90	25979.95
683.04	25738.87
683.17	26019.74
683.31	25488.43
683.45	25708.44
683.59	25514.18
683.72	25586.74
683.86	25663.97
684.00	25502.48
684.13	24982.88
684.27	25254.38
684.41	25207.57
684.55	24982.88
684.68	25053.09
684.82	24833.08
684.96	25071.82
685.09	24875.21
685.23	24325.19
685.37	24753.51
685.50	24797.98
685.64	24720.74
685.78	24402.43
685.91	24404.77
686.05	24006.87
686.19	23786.86
686.32	23978.79
686.46	23632.39
686.60	23080.02
686.73	22948.95
686.87	22778.09
687.01	23358.55
687.14	22555.74
687.28	22874.06
687.42	23133.86
687.55	23255.56
687.69	22972.36
687.82	23185.35
687.96	22815.54
688.10	22661.07
688.23	22562.76
688.37	22607.23
688.50	22640.00
688.64	22583.83
688.78	22504.25
688.91	22122.74
689.05	22295.94
689.18	22068.91
689.32	21692.08
689.46	22356.80
689.59	22101.68
689.73	22555.74
689.86	21928.48
690.00	21348.03
690.13	21579.74
690.27	21518.89
690.41	21219.30
690.54	21263.77
690.68	21287.17
690.81	21394.84
690.95	21158.44
691.08	21383.13
691.22	21216.96
691.35	21273.13
691.49	21102.27
691.62	20989.92
691.76	20893.96
691.89	20554.58
692.03	20507.77
692.16	20339.26
692.30	20311.17
692.43	20238.61
692.57	20109.88
692.70	20070.09
692.84	19880.51
692.97	19793.91
693.11	19836.04
693.24	19616.03
693.38	19524.75
693.51	19592.62
693.65	20039.67
693.78	19522.41
693.92	19566.88
694.05	19302.40
694.19	19157.28
694.32	19089.41
694.45	19267.29
694.59	18951.32
694.72	18810.89
694.86	18829.61
694.99	18675.13
695.13	18740.67
695.26	18799.18
695.39	18586.19
695.53	18789.82
695.66	18513.64
695.80	18377.89
695.93	18291.29
696.07	18471.51
696.20	18214.05
696.33	18073.62
696.47	17989.36
696.60	17771.69
696.73	17851.27
696.87	17748.28
697.00	17530.61
697.14	17359.75
697.27	17490.82
697.40	17659.34
697.54	17429.97
697.67	17572.74
697.80	17125.70
697.94	17090.59
698.07	16996.97
698.21	16802.71
698.34	16999.31
698.47	17104.64
698.61	16638.87
698.74	16505.46
698.87	16556.95
699.01	16201.19
699.14	16231.62
699.27	16460.99
699.40	16510.14
699.54	16587.38
699.67	16505.46
699.80	16013.95
699.94	15789.25
700.07	16053.73
700.20	16290.13
700.34	16004.58
700.47	15763.51
700.60	15852.45
700.73	15910.96
700.87	15630.10
701.00	15702.65
701.13	15552.86
701.26	15353.91
701.40	15339.87
701.53	15377.32
701.66	15332.85
701.79	15225.18
701.93	14995.81
702.06	14651.75
702.19	14951.34
702.32	14616.65
702.46	14806.23
702.59	14761.76
702.72	14572.18
702.85	14441.11
702.99	14747.72
703.12	14422.38
703.25	14544.09
703.38	14384.93
703.51	14459.83
703.65	14111.09
703.78	14162.58
703.91	13781.07
704.04	13834.91
704.17	14033.85
704.31	13975.34
704.44	13916.83
704.57	13867.67
704.70	13727.24
704.83	13717.88
704.96	13650.00
705.10	13699.16
705.23	13626.60
>>>>>End Processed Spectral Data<<<<<
