SpectraSuite Data File
++++++++++++++++++++++++++++++++++++
Date: Fri Oct 25 11:33:55 EDT 2013
User: price-jones
Dark Spectrum Present: No
Reference Spectrum Present: No
Number of Sampled Component Spectra: 1
Spectrometers: USB2+H05261
Integration Time (usec): 100000 (USB2+H05261)
Spectra Averaged: 1 (USB2+H05261)
Boxcar Smoothing: 0 (USB2+H05261)
Correct for Electrical Dark: No (USB2+H05261)
Strobe/Lamp Enabled: No (USB2+H05261)
Correct for Detector Non-linearity: No (USB2+H05261)
Correct for Stray Light: No (USB2+H05261)
Number of Pixels in Processed Spectrum: 2048
>>>>>Begin Processed Spectral Data<<<<<
365.73	325.33
365.92	325.33
366.12	325.33
366.32	163.84
366.52	147.45
366.72	166.18
366.91	135.75
367.11	236.39
367.31	173.20
367.51	138.09
367.70	145.11
367.90	138.09
368.10	212.99
368.30	222.35
368.49	161.50
368.69	224.69
368.89	170.86
369.09	222.35
369.28	184.90
369.48	243.42
369.68	241.08
369.87	248.10
370.07	212.99
370.27	264.48
370.47	327.68
370.66	554.71
370.86	470.45
371.06	505.56
371.25	566.41
371.45	531.30
371.65	620.24
371.84	505.56
372.04	557.05
372.24	578.11
372.44	557.05
372.63	629.60
372.83	634.29
373.03	627.26
373.22	564.07
373.42	620.24
373.62	622.58
373.81	669.39
374.01	725.57
374.21	662.37
374.40	655.35
374.60	664.71
374.79	671.73
374.99	650.67
375.19	615.56
375.38	725.57
375.58	631.94
375.78	706.84
375.97	681.10
376.17	690.46
376.37	557.05
376.56	664.71
376.76	718.54
376.95	697.48
377.15	727.91
377.35	716.20
377.54	723.23
377.74	648.33
377.93	695.14
378.13	669.39
378.33	706.84
378.52	704.50
378.72	671.73
378.91	786.42
379.11	732.59
379.31	779.40
379.50	711.52
379.70	692.80
379.89	814.51
380.09	690.46
380.28	664.71
380.48	734.93
380.68	737.27
380.87	734.93
381.07	718.54
381.26	809.83
381.46	737.27
381.65	741.95
381.85	741.95
382.04	711.52
382.24	816.85
382.43	807.48
382.63	704.50
382.83	795.78
383.02	807.48
383.22	816.85
383.41	819.19
383.61	786.42
383.80	777.06
384.00	851.96
384.19	800.46
384.39	779.40
384.58	877.70
384.78	821.53
384.97	837.91
385.17	819.19
385.36	777.06
385.56	912.81
385.75	830.89
385.95	784.08
386.14	887.06
386.34	779.40
386.53	912.81
386.72	826.21
386.92	933.87
387.11	929.19
387.31	863.66
387.50	992.39
387.70	924.51
387.89	910.47
388.09	978.34
388.28	898.77
388.48	891.74
388.67	999.41
388.86	950.26
389.06	931.53
389.25	915.15
389.45	910.47
389.64	1013.45
389.84	1018.13
390.03	1018.13
390.22	947.92
390.42	947.92
390.61	968.98
390.81	987.71
391.00	901.11
391.19	964.30
391.39	1034.52
391.58	1025.15
391.78	1006.43
391.97	976.00
392.16	1076.65
392.36	1036.86
392.55	1069.62
392.75	1060.26
392.94	1001.75
393.13	1015.79
393.33	1062.60
393.52	1062.60
393.71	1046.22
393.91	1074.31
394.10	1025.15
394.29	1001.75
394.49	1104.73
394.68	1174.95
394.88	1097.71
395.07	1071.97
395.26	1102.39
395.46	1170.27
395.65	1242.82
395.84	1205.38
396.04	1275.59
396.23	1245.16
396.42	1233.46
396.62	1188.99
396.81	1249.85
397.00	1228.78
397.19	1198.35
397.39	1268.57
397.58	1188.99
397.77	1153.88
397.97	1263.89
398.16	1306.02
398.35	1301.34
398.55	1226.44
398.74	1324.74
398.93	1322.40
399.12	1273.25
399.32	1364.53
399.51	1277.93
399.70	1313.04
399.90	1259.21
400.09	1371.55
400.28	1320.06
400.47	1310.70
400.67	1448.79
400.86	1369.21
401.05	1488.58
401.24	1324.74
401.44	1399.64
401.63	1359.85
401.82	1490.92
402.01	1479.22
402.21	1504.96
402.40	1432.41
402.59	1493.26
402.78	1509.65
402.97	1526.03
403.17	1551.78
403.36	1572.84
403.55	1652.42
403.74	1514.33
403.93	1521.35
404.13	1612.63
404.32	1502.62
404.51	1570.50
404.70	1528.37
404.89	1645.40
405.09	1685.19
405.28	1792.85
405.47	1678.16
405.66	1701.57
405.85	1781.15
406.05	1795.19
406.24	1736.68
406.43	1750.72
406.62	1776.47
406.81	1818.60
407.00	1799.87
407.20	1739.02
407.39	1750.72
407.58	1879.45
407.77	1902.86
407.96	1804.55
408.15	1952.01
408.34	1774.13
408.54	1909.88
408.73	1966.05
408.92	1980.09
409.11	1912.22
409.30	1935.62
409.49	2062.01
409.68	1919.24
409.87	1923.92
410.07	1996.48
410.26	2127.55
410.45	2031.58
410.64	2076.06
410.83	2087.76
411.02	2113.50
411.21	2136.91
411.40	2129.89
411.59	2167.34
411.78	2251.60
411.98	2207.13
412.17	2174.36
412.36	2214.15
412.55	2251.60
412.74	2282.02
412.93	2408.41
413.12	2270.32
413.31	2380.32
413.50	2321.81
413.69	2300.75
413.88	2445.86
414.07	2406.07
414.26	2539.48
414.45	2380.32
414.64	2544.16
414.83	2513.74
415.02	2537.14
415.22	2623.74
415.41	2656.51
415.60	2565.23
415.79	2686.94
415.98	2672.89
416.17	2705.66
416.36	2647.15
416.55	2705.66
416.74	2813.32
416.93	2782.90
417.12	2829.71
417.31	2754.81
417.50	2782.90
417.69	2946.73
417.88	2801.62
418.07	2925.67
418.26	2925.67
418.45	2923.33
418.64	3094.19
418.83	3117.59
419.02	3040.36
419.21	3005.25
419.39	3204.19
419.58	3084.83
419.77	3030.99
419.96	3166.74
420.15	3208.87
420.34	3169.09
420.53	3215.90
420.72	3190.15
420.91	3054.40
421.10	3101.21
421.29	3248.66
421.48	3129.30
421.67	3302.50
421.86	3258.03
422.05	3260.37
422.24	3260.37
422.43	3337.60
422.61	3435.91
422.80	3365.69
422.99	3361.01
423.18	3339.94
423.37	3503.78
423.56	3356.33
423.75	3276.75
423.94	3307.18
424.13	3155.04
424.32	3342.28
424.50	3452.29
424.69	3431.23
424.88	3391.44
425.07	3456.97
425.26	3318.88
425.45	3358.67
425.64	3473.36
425.83	3522.51
426.01	3506.12
426.20	3501.44
426.39	3442.93
426.58	3541.23
426.77	3482.72
426.96	3454.63
427.15	3513.14
427.33	3461.65
427.52	3520.17
427.71	3681.66
427.90	3545.91
428.09	3522.51
428.28	3655.92
428.46	3714.43
428.65	3562.30
428.84	3770.60
429.03	3627.83
429.22	3747.20
429.40	3700.39
429.59	3726.13
429.78	3686.34
429.97	3590.38
430.16	3777.62
430.34	3784.65
430.53	3854.86
430.72	3815.07
430.91	3775.28
431.10	3836.14
431.28	3939.12
431.47	3889.97
431.66	4063.17
431.85	3997.64
432.03	4056.15
432.22	4028.06
432.41	3962.53
432.60	4095.94
432.79	3971.89
432.97	4149.77
433.16	4184.88
433.35	4184.88
433.54	4098.28
433.72	4109.98
433.91	4248.07
434.10	4229.35
434.28	4215.30
434.47	4159.13
434.66	4208.28
434.85	4379.14
435.03	4416.59
435.22	4280.84
435.41	4458.72
435.59	4255.09
435.78	4360.42
435.97	4428.29
436.16	4346.37
436.34	4313.61
436.53	4491.49
436.72	4376.80
436.90	4386.16
437.09	4535.96
437.28	4402.55
437.46	4482.13
437.65	4437.66
437.84	4566.39
438.02	4552.34
438.21	4690.43
438.40	4552.34
438.58	4765.33
438.77	4585.11
438.96	4683.41
439.14	4741.93
439.33	4938.53
439.52	4858.95
439.70	4945.55
439.89	4882.36
440.08	4971.30
440.26	5015.77
440.45	4994.70
440.63	5107.05
440.82	5214.71
441.01	4990.02
441.19	5212.37
441.38	5160.88
441.57	5282.59
441.75	5207.69
441.94	5441.75
442.12	5303.65
442.31	5497.92
442.50	5467.49
442.68	5366.85
442.87	5320.04
443.05	5551.75
443.24	5579.84
443.43	5493.24
443.61	5511.96
443.80	5792.83
443.98	5296.63
444.17	5331.74
444.35	5558.77
444.54	5713.25
444.73	5533.03
444.91	5547.07
445.10	5614.95
445.28	5530.69
445.47	5584.52
445.65	5626.65
445.84	5668.78
446.02	5703.89
446.21	5628.99
446.39	5746.02
446.58	5778.78
446.77	5584.52
446.95	5617.29
447.14	5767.08
447.32	5771.76
447.51	5795.17
447.69	5724.95
447.88	5811.55
448.06	5806.87
448.25	5753.04
448.43	5774.10
448.62	5614.95
448.80	5680.48
448.99	5781.12
449.17	5785.80
449.36	5872.40
449.54	5970.71
449.73	5959.00
449.91	6085.39
450.10	6036.24
450.28	6066.67
450.46	6066.67
450.65	6012.84
450.83	6148.59
451.02	5921.56
451.20	6094.76
451.39	6141.57
451.57	6155.61
451.76	6069.01
451.94	6134.54
452.13	6370.94
452.31	6345.19
452.49	6300.72
452.68	6265.61
452.86	6291.36
453.05	6274.98
453.23	6345.19
453.42	6239.87
453.60	6300.72
453.78	6396.68
453.97	6399.02
454.15	6410.73
454.34	6349.87
454.52	6452.86
454.70	6457.54
454.89	6455.20
455.07	6658.82
455.26	6466.90
455.44	6752.45
455.62	6523.07
455.81	6747.76
455.99	6712.66
456.17	6656.48
456.36	6572.22
456.54	6836.70
456.73	6825.00
456.91	6939.69
457.09	6932.67
457.28	7014.59
457.46	6972.46
457.64	7098.84
457.83	6923.30
458.01	7096.50
458.19	7080.12
458.38	6951.39
458.56	7178.42
458.74	7089.48
458.93	7185.44
459.11	7157.36
459.29	7063.74
459.48	7159.70
459.66	7187.79
459.84	7236.94
460.03	7140.97
460.21	7400.77
460.39	7311.83
460.57	7433.54
460.76	7342.26
460.94	7686.32
461.12	7508.44
461.31	7555.25
461.49	7494.40
461.67	7421.84
461.85	7623.12
462.04	7487.37
462.22	8037.40
462.40	7543.55
462.59	7578.65
462.77	7714.41
462.95	8025.70
463.13	7660.57
463.32	7786.96
463.50	7730.79
463.68	7964.84
463.86	8021.02
464.05	7768.24
464.23	7939.10
464.41	7983.57
464.59	7716.75
464.78	8044.42
464.96	7833.77
465.14	7864.20
465.32	8056.12
465.50	8278.47
465.69	7983.57
465.87	7999.95
466.05	7939.10
466.23	7943.78
466.41	8126.34
466.60	8507.85
466.78	8056.12
466.96	8035.06
467.14	8053.78
467.32	8252.73
467.51	8404.86
467.69	8229.32
467.87	8318.26
468.05	8404.86
468.23	8465.72
468.41	8313.58
468.60	8395.50
468.78	8365.07
468.96	8287.84
469.14	8559.34
469.32	8491.46
469.50	8400.18
469.69	8751.26
469.87	8734.88
470.05	8795.73
470.23	8713.81
470.41	8695.09
470.59	8526.57
470.77	8751.26
470.95	8706.79
471.14	9029.79
471.32	8713.81
471.50	9034.47
471.68	8840.20
471.86	9088.30
472.04	9004.04
472.22	9345.76
472.40	9212.35
472.58	9046.17
472.77	9350.44
472.95	9228.73
473.13	9502.58
473.31	9310.65
473.49	9249.80
473.67	9336.40
473.85	9329.38
474.03	9856.00
474.21	9689.82
474.39	9600.88
474.57	9755.35
474.75	9921.53
474.93	10031.54
475.12	9820.89
475.30	10087.71
475.48	9907.49
475.66	9900.47
475.84	10064.30
476.02	10200.05
476.20	10399.00
476.38	10230.48
476.56	10518.37
476.74	10623.69
476.92	10452.83
477.10	10399.00
477.28	10504.32
477.46	10539.43
477.64	10761.78
477.82	10857.75
478.00	11066.05
478.18	11126.91
478.36	11147.97
478.54	11187.76
478.72	11293.08
478.90	11342.24
479.08	11456.92
479.26	11580.97
479.44	11815.02
479.62	11611.40
479.80	11775.24
479.98	11929.71
480.16	12283.13
480.34	11756.51
480.52	12276.11
480.70	12322.92
480.88	12088.87
481.06	12486.76
481.24	12351.01
481.41	12603.78
481.59	12674.00
481.77	12828.48
481.95	12659.96
482.13	12901.03
482.31	12821.45
482.49	13411.27
482.67	13212.32
482.85	13380.84
483.03	13465.10
483.21	13542.34
483.39	13586.81
483.57	13774.05
483.74	13970.66
483.92	13994.06
484.10	13907.46
484.28	14253.86
484.46	14284.29
484.64	14450.47
484.82	14347.48
485.00	14576.86
485.18	14623.67
485.35	14995.81
485.53	15033.26
485.71	14937.30
485.89	15374.98
486.07	15358.60
486.25	15302.42
486.43	15229.87
486.61	15592.65
486.78	15796.28
486.96	15611.37
487.14	16070.12
487.32	15939.05
487.50	16114.59
487.68	16308.85
487.85	16294.81
488.03	16767.60
488.21	16809.73
488.39	16746.53
488.57	17025.06
488.75	17027.40
488.92	17509.55
489.10	17242.73
489.28	17270.81
489.46	17813.82
489.64	17837.22
489.81	17972.97
489.99	17853.61
490.17	17752.96
490.35	18099.36
490.53	18265.54
490.70	18525.34
490.88	18597.90
491.06	18927.91
491.24	19016.85
491.41	19157.28
491.59	19012.17
491.77	19122.18
491.95	19286.01
492.13	19538.79
492.30	19489.64
492.48	19662.84
492.66	19730.72
492.84	19674.54
493.01	20166.06
493.19	20023.28
493.37	20091.16
493.54	20585.01
493.72	20489.05
493.90	20601.40
494.08	20554.58
494.25	21015.67
494.43	20725.44
494.61	20872.90
494.79	21120.99
494.96	20908.01
495.14	21425.26
495.32	21514.20
495.49	21701.45
495.67	21888.69
495.85	21610.17
496.02	22010.40
496.20	21994.01
496.38	22340.41
496.55	22071.25
496.73	22527.66
496.91	22707.88
497.09	22588.51
497.26	22672.77
497.44	22845.97
497.62	22946.61
497.79	23236.84
497.97	23009.81
498.14	23527.06
498.32	23679.20
498.50	23557.49
498.67	24056.03
498.85	23477.91
499.03	23601.96
499.20	24142.63
499.38	24243.27
499.56	24273.70
499.73	24334.55
499.91	24294.76
500.08	24650.52
500.26	24133.26
500.44	24580.31
500.61	24673.93
500.79	24601.37
500.97	24744.14
501.14	24755.85
501.32	24915.00
501.49	24879.89
501.67	25308.21
501.84	25467.37
502.02	25415.88
502.20	25682.70
502.37	25600.78
502.55	25476.73
502.72	25654.61
502.90	25638.23
503.07	25626.53
503.25	25883.98
503.43	25898.03
503.60	26340.39
503.78	26274.85
503.95	26258.47
504.13	26349.75
504.30	26286.56
504.48	26574.44
504.65	26771.05
504.83	26740.62
505.01	26981.70
505.18	26771.05
505.36	27262.56
505.53	26761.69
505.71	27019.14
505.88	27094.04
506.06	26883.39
506.23	27332.78
506.41	27211.07
506.58	27592.58
506.76	27597.26
506.93	27623.00
507.11	27620.66
507.28	27484.91
507.46	27960.04
507.63	28360.27
507.81	28383.68
507.98	28077.07
508.16	28119.20
508.33	28875.19
508.50	28526.45
508.68	28603.69
508.85	28865.83
509.03	28465.60
509.20	28744.12
509.38	28975.83
509.55	28994.56
509.73	28982.85
509.90	28896.25
510.08	29259.04
510.25	29310.53
510.42	29486.07
510.60	29446.28
510.77	29638.20
510.95	29708.42
511.12	29778.64
511.30	29560.97
511.47	29837.15
511.64	29935.45
511.82	29809.06
511.99	30036.09
512.17	30433.99
512.34	30281.85
512.51	30307.60
512.69	30771.02
512.86	30679.74
513.04	30710.17
513.21	30356.75
513.38	30651.66
513.56	30890.39
513.73	30700.81
513.90	31173.60
514.08	31136.15
514.25	31257.85
514.43	31449.78
514.60	31087.00
514.77	31325.73
514.95	31433.39
515.12	31463.82
515.29	31711.92
515.47	31552.76
515.64	32009.17
515.81	31683.83
515.99	31756.39
516.16	32311.10
516.33	32112.15
516.51	32320.46
516.68	31929.59
516.85	32374.29
517.03	32638.77
517.20	32409.40
517.37	32467.91
517.54	32503.02
517.72	32484.30
517.89	33043.68
518.06	32512.38
518.24	32818.99
518.41	32465.57
518.58	33085.81
518.75	32769.84
518.93	33345.61
519.10	32772.18
519.27	33546.90
519.45	33591.37
519.62	33614.77
519.79	33317.53
519.96	32929.00
520.14	33453.28
520.31	33415.83
520.48	33642.86
520.65	34094.58
520.83	34010.32
521.00	34525.24
521.17	33696.69
521.34	34267.78
521.52	34206.93
521.69	34286.51
521.86	34520.56
522.03	34574.39
522.20	34808.45
522.38	34796.74
522.55	34602.48
522.72	34824.83
522.89	34696.10
523.07	35047.18
523.24	35332.73
523.41	35093.99
523.58	35140.80
523.75	34995.69
523.92	35391.24
524.10	35463.80
524.27	35421.67
524.44	35328.05
524.61	35768.07
524.78	35632.32
524.96	35864.03
525.13	35583.16
525.30	35761.05
525.47	36362.56
525.64	35812.54
525.81	35662.74
525.98	36182.34
526.16	35983.40
526.33	35950.63
526.50	36121.49
526.67	36039.57
526.84	36526.40
527.01	36512.36
527.18	36495.97
527.36	36062.97
527.53	36739.39
527.70	36935.99
527.87	36847.05
528.04	36610.66
528.21	36816.63
528.38	36882.16
528.55	37141.96
528.72	37282.39
528.89	36802.58
529.07	36781.52
529.24	36772.16
529.41	37350.27
529.58	37200.47
529.75	37181.75
529.92	37345.59
530.09	37228.56
530.26	37266.01
530.43	37326.86
530.60	37336.23
530.77	37340.91
530.94	37584.32
531.11	37574.96
531.28	37888.59
531.46	38005.62
531.63	37869.87
531.80	37750.50
531.97	38106.26
532.14	37944.76
532.31	37879.23
532.48	38213.93
532.65	38408.19
532.82	37947.11
532.99	38497.13
533.16	38199.88
533.33	38398.83
533.50	38789.70
533.67	38579.05
533.84	38555.64
534.01	38082.86
534.18	38590.75
534.35	39124.40
534.52	38705.44
534.69	39140.78
534.86	39225.04
535.03	38866.94
535.20	39203.97
535.37	39321.00
535.54	39576.12
535.71	38763.95
535.88	39213.34
536.05	39100.99
536.22	39309.30
536.38	39295.25
536.55	39342.06
536.72	39452.07
536.89	39625.27
537.06	39016.73
537.23	39271.85
537.40	39377.17
537.57	39459.09
537.74	39665.06
537.91	39711.87
538.08	39686.12
538.25	39611.23
538.42	40018.48
538.59	40081.67
538.75	39966.99
538.92	40596.59
539.09	40076.99
539.26	40072.31
539.43	40474.88
539.60	40465.52
539.77	40362.54
539.94	40500.63
540.11	40460.84
540.28	40175.30
540.44	40231.47
540.61	40348.50
540.78	40231.47
540.95	40266.58
541.12	40648.08
541.29	40676.17
541.46	41116.19
541.62	40495.95
541.79	40814.26
541.96	40404.67
542.13	40662.13
542.30	41088.10
542.47	41013.21
542.63	40760.43
542.80	41481.31
542.97	41228.54
543.14	41464.93
543.31	41216.83
543.48	41481.31
543.64	41918.99
543.81	41670.90
543.98	41642.81
544.15	41666.22
544.32	41874.52
544.48	42122.62
544.65	41689.62
544.82	41846.44
544.99	41361.95
545.16	41830.05
545.32	41755.16
545.49	41888.57
545.66	42181.13
545.83	42036.02
546.00	42246.67
546.16	42237.31
546.33	42213.90
546.50	41986.87
546.67	42473.70
546.83	41605.36
547.00	42354.33
547.17	42305.18
547.34	42314.55
547.50	42293.48
547.67	43054.15
547.84	42862.23
548.00	42682.01
548.17	42958.19
548.34	43089.26
548.51	43119.69
548.67	42962.87
548.84	42862.23
549.01	42412.85
549.18	42925.42
549.34	42649.24
549.51	42838.83
549.68	42660.94
549.84	43154.80
550.01	43100.97
550.18	43065.86
550.34	43276.51
550.51	43370.13
550.68	43772.70
550.84	43044.79
551.01	43840.57
551.18	43091.60
551.34	43117.35
551.51	43531.62
551.68	43487.15
551.84	43358.42
552.01	42993.30
552.18	43742.27
552.34	43758.66
552.51	43318.64
552.68	43978.67
552.84	43791.42
553.01	43789.08
553.18	44442.09
553.34	43728.23
553.51	43641.63
553.67	43693.12
553.84	43856.96
554.01	43840.57
554.17	44264.21
554.34	44315.70
554.51	44371.88
554.67	44259.53
554.84	44591.89
555.00	43990.37
555.17	44238.47
555.33	44364.85
555.50	44282.94
555.67	44299.32
555.83	44095.69
556.00	43906.11
556.16	45256.60
556.33	44395.28
556.50	44570.82
556.66	44641.04
556.83	44603.59
556.99	45085.74
557.16	45038.93
557.32	45095.10
557.49	44699.55
557.65	44748.70
557.82	44533.37
557.98	44900.84
558.15	45050.63
558.32	44797.85
558.48	44549.76
558.65	44591.89
558.81	44835.30
558.98	44657.42
559.14	45382.99
559.31	45277.66
559.47	45237.87
559.64	45228.51
559.80	45408.73
559.97	44964.03
560.13	45020.20
560.30	45172.34
560.46	45420.44
560.63	45263.62
560.79	45064.67
560.96	45280.00
561.12	45460.23
561.29	45088.08
561.45	45532.78
561.61	45441.50
561.78	45109.14
561.94	45205.11
562.11	45312.77
562.27	45081.06
562.44	45591.30
562.60	45883.86
562.77	45862.80
562.93	45329.16
563.10	45968.12
563.26	45724.71
563.42	45591.30
563.59	45752.79
563.75	45605.34
563.92	45345.54
564.08	45439.16
564.24	45925.99
564.41	45645.13
564.57	45766.84
564.74	45862.80
564.90	45310.43
565.07	45731.73
565.23	45280.00
565.39	45614.70
565.56	46038.34
565.72	45631.08
565.88	45139.57
566.05	45708.32
566.21	45745.77
566.38	45787.90
566.54	45764.49
566.70	45968.12
566.87	46225.58
567.03	45717.68
567.19	46333.24
567.36	45860.46
567.52	45883.86
567.68	45965.78
567.85	45844.07
568.01	46216.22
568.17	46061.74
568.34	46195.15
568.50	46012.59
568.66	45834.71
568.83	46138.98
568.99	46043.02
569.15	46330.90
569.32	45972.80
569.48	45808.96
569.64	46595.38
569.81	46391.76
569.97	46169.41
570.13	46543.89
570.30	46181.11
570.46	46351.97
570.62	46600.07
570.78	46574.32
570.95	46630.49
571.11	46791.99
571.27	46401.12
571.43	46270.05
571.60	45984.51
571.76	46031.32
571.92	46017.27
572.09	46199.83
572.25	46487.72
572.41	46087.49
572.57	46164.73
572.74	46733.48
572.90	46351.97
573.06	46330.90
573.22	46600.07
573.38	46740.50
573.55	46461.97
573.71	46742.84
573.87	46644.54
574.03	46450.27
574.20	46801.35
574.36	46710.07
574.52	46653.90
574.68	46571.98
574.84	46614.11
575.01	46803.69
575.17	46955.83
575.33	46855.18
575.49	46637.51
575.65	47044.77
575.82	46660.92
575.98	46646.88
576.14	46777.95
576.30	46763.90
576.46	46796.67
576.62	46733.48
576.79	46761.56
576.95	46623.47
577.11	46672.62
577.27	46649.22
577.43	46440.91
577.59	46389.42
577.75	46885.61
577.92	46377.72
578.08	46728.80
578.24	46597.73
578.40	47126.69
578.56	46583.68
578.72	46836.46
578.88	46979.23
579.04	46672.62
579.21	46309.84
579.37	46775.61
579.53	46810.71
579.69	46733.48
579.85	47152.43
580.01	46747.52
580.17	46574.32
580.33	46841.14
580.49	46937.10
580.65	46408.14
580.82	46719.43
580.98	46909.02
581.14	46288.77
581.30	46618.79
581.46	46756.88
581.62	46927.74
581.78	46607.09
581.94	46834.12
582.10	46855.18
582.26	47449.68
582.42	46967.53
582.58	47161.79
582.74	47234.35
582.90	46700.71
583.06	46883.27
583.22	47000.30
583.38	46948.81
583.54	46787.31
583.70	47000.30
583.86	46686.67
584.02	46836.46
584.18	46747.52
584.34	47049.45
584.50	47224.99
584.66	47049.45
584.82	46923.06
584.98	47426.28
585.14	47311.59
585.30	46632.83
585.46	47093.92
585.62	46960.51
585.78	47201.58
585.94	46864.55
586.10	47166.48
586.26	46651.56
586.42	47117.32
586.58	47449.68
586.74	46965.19
586.90	46799.01
587.06	46731.14
587.22	47119.66
587.38	47019.02
587.54	47409.89
587.70	47414.57
587.86	47262.44
588.02	47199.24
588.18	46752.20
588.34	47168.82
588.49	46967.53
588.65	47171.16
588.81	47299.89
588.97	47042.43
589.13	47192.22
589.29	47007.32
589.45	47398.19
589.61	47477.77
589.77	47437.98
589.93	47302.23
590.08	47351.38
590.24	47578.41
590.40	47606.50
590.56	47477.77
590.72	47557.35
590.88	47433.30
591.04	47185.20
591.20	47653.31
591.35	47863.96
591.51	47349.04
591.67	47545.64
591.83	47660.33
591.99	47519.90
592.15	47278.82
592.31	47210.95
592.46	47255.42
592.62	47330.31
592.78	47721.18
592.94	47632.24
593.10	47880.34
593.26	48102.69
593.41	47980.98
593.57	47730.54
593.73	47793.74
593.89	48140.14
594.05	48072.26
594.20	47517.56
594.36	47966.94
594.52	47739.91
594.68	47817.14
594.84	47739.91
594.99	48261.85
595.15	47838.21
595.31	47791.40
595.47	47611.18
595.62	47924.81
595.78	47672.03
595.94	47999.71
596.10	47466.06
596.25	47962.26
596.41	48004.39
596.57	47812.46
596.73	48156.52
596.88	47988.00
597.04	47812.46
597.20	47913.11
597.36	47508.19
597.51	47863.96
597.67	47796.08
597.83	47735.23
597.99	47798.42
598.14	48006.73
598.30	47828.85
598.46	47789.06
598.61	47910.77
598.77	47866.30
598.93	47966.94
599.09	47751.61
599.24	48051.20
599.40	47796.08
599.56	48357.81
599.71	48301.64
599.87	48657.40
600.03	48296.95
600.18	48074.60
600.34	48158.86
600.50	47711.82
600.65	47906.08
600.81	48238.44
600.97	48177.59
601.12	47955.24
601.28	47709.48
601.44	47920.13
601.59	47887.36
601.75	47749.27
601.91	48151.84
602.06	48004.39
602.22	48044.18
602.37	48130.78
602.53	48102.69
602.69	48126.10
602.84	47650.97
603.00	47702.46
603.16	47398.19
603.31	48058.22
603.47	48123.75
603.62	47969.28
603.78	48472.49
603.94	47959.92
604.09	48287.59
604.25	47922.47
604.40	47700.12
604.56	47835.87
604.71	47999.71
604.87	47760.97
605.03	47309.25
605.18	47789.06
605.34	48282.91
605.49	47838.21
605.65	47906.08
605.80	47938.85
605.96	47545.64
606.12	47683.73
606.27	47695.44
606.43	47875.66
606.58	47849.91
606.74	47842.89
606.89	47952.90
607.05	48376.53
607.20	48083.97
607.36	47517.56
607.51	47779.70
607.67	47718.84
607.82	48135.46
607.98	47899.06
608.13	47519.90
608.29	48079.28
608.44	47737.57
608.60	47435.64
608.75	48252.48
608.91	47690.76
609.06	47370.10
609.22	47899.06
609.37	47508.19
609.53	47648.63
609.68	47819.49
609.84	47494.15
609.99	47817.14
610.15	47571.39
610.30	47592.45
610.46	47489.47
610.61	47643.94
610.76	47526.92
610.92	47625.22
611.07	47206.26
611.23	47173.50
611.38	47435.64
611.54	47377.12
611.69	47650.97
611.84	47437.98
612.00	47264.78
612.15	47302.23
612.31	47491.81
612.46	47274.14
612.62	47264.78
612.77	47894.38
612.92	47646.29
613.08	47409.89
613.23	47320.95
613.39	47096.26
613.54	47519.90
613.69	47391.17
613.85	47657.99
614.00	47334.99
614.15	47585.43
614.31	47159.45
614.46	47398.19
614.62	46909.02
614.77	47009.66
614.92	47007.32
615.08	46955.83
615.23	47491.81
615.38	47339.68
615.54	47372.44
615.69	47136.05
615.84	47262.44
616.00	47466.06
616.15	47143.07
616.30	47140.73
616.46	47241.37
616.61	46941.78
616.76	47072.85
616.92	47028.38
617.07	47285.84
617.22	47068.17
617.37	46843.48
617.53	47185.20
617.68	46443.25
617.83	47026.04
617.99	47377.12
618.14	47021.36
618.29	46735.82
618.45	46586.02
618.60	46391.76
618.75	46824.76
618.90	46323.88
619.06	46396.44
619.21	46450.27
619.36	47161.79
619.51	46401.12
619.67	46799.01
619.82	46621.13
619.97	46850.50
620.12	46396.44
620.28	46628.15
620.43	46506.44
620.58	46595.38
620.73	46440.91
620.89	46796.67
621.04	46548.57
621.19	46223.24
621.34	46281.75
621.49	46389.42
621.65	46450.27
621.80	46550.91
621.95	46693.69
622.10	46684.33
622.25	46239.62
622.41	46263.03
622.56	46422.19
622.71	46548.57
622.86	46735.82
623.01	46251.33
623.16	46401.12
623.32	46410.48
623.47	46307.50
623.62	46340.27
623.77	46494.74
623.92	46218.56
624.07	45883.86
624.23	46227.92
624.38	46323.88
624.53	45895.56
624.68	45947.06
624.83	45897.91
624.98	45745.77
625.13	45677.90
625.29	46075.79
625.44	45921.31
625.59	46019.61
625.74	45724.71
625.89	45741.09
626.04	45804.28
626.19	45633.42
626.34	45645.13
626.49	45537.46
626.65	45146.59
626.80	45666.19
626.95	45680.24
627.10	45081.06
627.25	45663.85
627.40	45104.46
627.55	45851.09
627.70	45507.04
627.85	45586.61
628.00	45947.06
628.15	45888.54
628.30	44996.80
628.45	45539.80
628.60	45141.91
628.76	45411.07
628.91	45340.86
629.06	44921.90
629.21	45500.01
629.36	44842.32
629.51	45052.97
629.66	45202.77
629.81	44879.77
629.96	45261.28
630.11	45153.62
630.26	44722.96
630.41	45013.18
630.56	45057.65
630.71	45336.18
630.86	45340.86
631.01	45130.21
631.16	44949.99
631.31	44823.60
631.46	44729.98
631.61	45380.65
631.76	45106.80
631.91	44964.03
632.06	45272.98
632.21	45027.23
632.36	45284.68
632.51	44535.71
632.66	45017.86
632.81	44538.05
632.96	44926.58
633.10	44535.71
633.25	44795.51
633.40	44683.17
633.55	44889.13
633.70	44584.86
633.85	44198.68
634.00	44559.12
634.15	44425.71
634.30	44231.44
634.45	44446.77
634.60	44636.36
634.75	45022.54
634.90	44374.22
635.05	44547.42
635.19	43969.30
635.34	44414.01
635.49	44076.97
635.64	44112.08
635.79	44388.26
635.94	44268.89
636.09	44519.33
636.24	44596.57
636.39	44271.23
636.53	44378.90
636.68	43938.88
636.83	43964.62
636.98	43597.16
637.13	43880.36
637.28	43821.85
637.43	43957.60
637.57	44226.76
637.72	43482.47
637.87	43555.03
638.02	43896.75
638.17	43665.03
638.32	43941.22
638.46	43536.30
638.61	44189.31
638.76	43533.96
638.91	43484.81
639.06	43505.88
639.20	42899.68
639.35	43332.68
639.50	43512.90
639.65	43470.77
639.80	43576.09
639.94	43508.22
640.09	43665.03
640.24	43318.64
640.39	43337.36
640.54	43182.88
640.68	43573.75
640.83	43409.92
640.98	43540.99
641.13	43054.15
641.27	43337.36
641.42	43255.44
641.57	42752.23
641.72	43550.35
641.86	42955.85
642.01	42969.90
642.16	43016.71
642.31	42878.61
642.45	43019.05
642.60	42927.77
642.75	42925.42
642.90	43285.87
643.04	43044.79
643.19	42869.25
643.34	43037.77
643.48	42644.56
643.63	42614.13
643.78	42986.28
643.93	43070.54
644.07	42995.64
644.22	42883.30
644.37	42902.02
644.51	42967.55
644.66	42649.24
644.81	42799.04
644.95	42611.79
645.10	42930.11
645.25	42410.51
645.39	42120.28
645.54	42202.20
645.69	41741.11
645.83	42351.99
645.98	42382.42
646.13	42445.62
646.27	42314.55
646.42	42162.41
646.57	42763.93
646.71	42136.66
646.86	42721.80
647.00	42328.59
647.15	42581.37
647.30	41759.84
647.44	42450.30
647.59	42253.69
647.74	41900.27
647.88	42309.86
648.03	42473.70
648.17	42796.70
648.32	42515.83
648.47	42541.58
648.61	41797.29
648.76	42146.03
648.90	41703.67
649.05	41991.55
649.20	42106.24
649.34	42075.81
649.49	42178.79
649.63	42150.71
649.78	42115.60
649.92	42117.94
650.07	42504.13
650.21	41811.33
650.36	42494.77
650.51	42087.51
650.65	42511.15
650.80	42150.71
650.94	41549.19
651.09	41893.25
651.23	41490.68
651.38	41593.66
651.52	41469.61
651.67	41745.80
651.81	41563.23
651.96	41755.16
652.10	41233.22
652.25	41298.75
652.39	41727.07
652.54	41338.54
652.68	41600.68
652.83	41123.21
652.97	41535.15
653.12	41385.35
653.26	41235.56
653.41	41483.66
653.55	41439.18
653.70	41860.48
653.84	41322.16
653.99	41357.27
654.13	41434.50
654.27	41333.86
654.42	41481.31
654.56	41123.21
654.71	41053.00
654.85	41680.26
655.00	41104.49
655.14	41284.71
655.29	41242.58
655.43	41490.68
655.57	40891.50
655.72	40715.96
655.86	40882.14
656.01	40847.03
656.15	40769.79
656.30	40751.07
656.44	40788.52
656.58	41305.77
656.73	41057.68
656.87	40577.87
657.01	40479.57
657.16	40987.46
657.30	40678.51
657.45	40198.70
657.59	40470.20
657.73	40399.99
657.88	40528.72
658.02	40655.11
658.16	40418.71
658.31	40697.24
658.45	40236.15
658.60	40196.36
658.74	40512.33
658.88	40236.15
659.03	40275.94
659.17	40032.52
659.31	39728.25
659.46	39805.49
659.60	40245.51
659.74	39667.40
659.89	40098.06
660.03	39971.67
660.17	40116.78
660.32	39559.73
660.46	39688.46
660.60	39498.88
660.74	39615.91
660.89	39548.03
661.03	39751.66
661.17	39047.16
661.32	39365.47
661.46	39606.55
661.60	39005.03
661.74	39384.19
661.89	39199.29
662.03	39299.94
662.17	38976.94
662.31	39452.07
662.46	39117.37
662.60	39037.80
662.74	38740.55
662.88	38768.63
663.03	38117.96
663.17	38490.11
663.31	38567.35
663.45	38782.68
663.60	38873.96
663.74	38820.13
663.88	38532.24
664.02	38349.68
664.17	38480.75
664.31	37596.03
664.45	38129.67
664.59	38183.50
664.73	37764.54
664.88	38132.01
665.02	37734.12
665.16	37804.33
665.30	37766.88
665.44	38209.25
665.59	37731.78
665.73	38267.76
665.87	37483.68
666.01	37928.38
666.15	38033.71
666.29	37663.90
666.44	37603.05
666.58	37572.62
666.72	37249.63
666.86	37240.26
667.00	37373.67
667.14	37380.70
667.28	37867.53
667.43	36985.15
667.57	37287.07
667.71	37228.56
667.85	37305.80
667.99	37223.88
668.13	36900.89
668.27	36428.10
668.41	36484.27
668.56	36191.70
668.70	36680.88
668.84	36521.72
668.98	36556.83
669.12	36327.45
669.26	36678.54
669.40	36648.11
669.54	36542.78
669.68	36741.73
669.82	36474.91
669.96	35997.44
670.10	35840.62
670.25	35983.40
670.39	35950.63
670.53	36112.13
670.67	35381.88
670.81	36011.48
670.95	35807.86
671.09	35796.15
671.23	35365.49
671.37	35997.44
671.51	35395.92
671.65	35431.03
671.79	35159.53
671.93	35363.15
672.07	35402.94
672.21	35342.09
672.35	34771.00
672.49	35098.67
672.63	34972.28
672.77	34756.96
672.91	34735.89
673.05	34705.46
673.19	34712.49
673.33	34576.73
673.47	34450.35
673.61	34368.43
673.75	33851.17
673.89	34368.43
674.03	34174.16
674.17	33574.98
674.31	33963.51
674.45	33701.37
674.59	33689.67
674.73	33759.89
674.87	33523.49
675.01	33378.38
675.15	32849.42
675.29	33333.91
675.43	33336.25
675.56	33041.34
675.70	32968.79
675.84	33013.26
675.98	31864.05
676.12	32837.72
676.26	32699.62
676.40	32811.97
676.54	32428.12
676.68	32259.60
676.82	32091.09
676.96	32280.67
677.10	32294.71
677.23	32243.22
677.37	31981.08
677.51	31929.59
677.65	31721.28
677.79	31847.67
677.93	31655.75
678.07	31948.31
678.21	31346.79
678.34	31140.83
678.48	30902.09
678.62	30960.61
678.76	31094.02
678.90	30565.06
679.04	30789.75
679.18	31063.59
679.31	30925.50
679.45	30829.54
679.59	30551.01
679.73	30593.14
679.87	30218.66
680.00	30424.62
680.14	30026.73
680.28	30513.56
680.42	29869.92
680.56	30054.82
680.70	29879.28
680.83	29544.58
680.97	30101.63
681.11	29677.99
681.25	29172.44
681.39	29195.84
681.52	29223.93
681.66	28835.40
681.80	28423.47
681.94	28491.34
682.07	28409.42
682.21	28664.54
682.35	28100.47
682.49	28383.68
682.62	28474.96
682.76	28657.52
682.90	28521.77
683.04	27962.38
683.17	27934.29
683.31	27800.88
683.45	27936.63
683.59	27571.51
683.72	27154.90
683.86	27644.07
684.00	27473.21
684.13	27702.58
684.27	27412.35
684.41	27023.83
684.55	27234.47
684.68	26677.43
684.82	27033.19
684.96	26586.15
685.09	26792.11
685.23	26600.19
685.37	26757.00
685.50	26651.68
685.64	26934.88
685.78	26405.92
685.91	26380.18
686.05	25834.83
686.19	25759.94
686.32	25682.70
686.46	25277.79
686.60	25291.83
686.73	25479.07
686.87	25345.66
687.01	25413.54
687.14	25359.70
687.28	25015.65
687.42	25312.89
687.55	24961.81
687.69	25135.01
687.82	24760.53
687.96	25111.61
688.10	24489.03
688.23	24601.37
688.37	24489.03
688.50	24594.35
688.64	24570.94
688.78	24374.34
688.91	23946.02
689.05	24088.79
689.18	23761.12
689.32	23414.72
689.46	23379.61
689.59	23484.94
689.73	23587.92
689.86	23906.23
690.00	23644.09
690.13	23271.95
690.27	23154.92
690.41	23388.97
690.54	23129.17
690.68	22881.08
690.81	22892.78
690.95	22658.73
691.08	22567.45
691.22	22333.39
691.35	22361.48
691.49	22574.47
691.62	22314.67
691.76	22066.57
691.89	21970.61
692.03	21490.80
692.16	21474.42
692.30	21762.30
692.43	21565.70
692.57	21439.31
692.70	21577.40
692.84	21242.70
692.97	21270.79
693.11	21156.10
693.24	21195.89
693.38	20786.30
693.51	20989.92
693.65	20823.75
693.78	20423.51
693.92	20706.72
694.05	20622.46
694.19	20671.61
694.32	20556.93
694.45	20283.08
694.59	20381.38
694.72	20514.80
694.86	20439.90
694.99	19803.27
695.13	19552.84
695.26	19716.67
695.39	19414.74
695.53	19639.44
695.66	19639.44
695.80	19304.74
695.93	19335.17
696.07	19176.01
696.20	19033.24
696.33	18766.42
696.47	18735.99
696.60	18941.96
696.73	18778.12
696.87	18614.28
697.00	18855.36
697.14	18817.91
697.27	18574.49
697.40	18305.33
697.54	18082.98
697.67	18223.41
697.80	18195.32
697.94	18129.79
698.07	17867.65
698.21	18249.16
698.34	17921.48
698.47	17788.07
698.61	17326.99
698.74	17530.61
698.87	17296.56
699.01	17191.23
699.14	17282.52
699.27	17343.37
699.40	17071.87
699.54	17280.18
699.67	16734.83
699.80	16943.14
699.94	16786.32
700.07	16996.97
700.20	16989.95
700.34	16730.15
700.47	16615.46
700.60	16812.07
700.73	16800.37
700.87	16332.26
701.00	16215.23
701.13	15971.82
701.26	15910.96
701.40	16013.95
701.53	15557.54
701.66	15861.81
701.79	15840.75
701.93	15428.81
702.06	15421.79
702.19	15328.17
702.32	15391.36
702.46	15250.93
702.59	15520.09
702.72	15337.53
702.85	15246.25
702.99	15342.21
703.12	15213.48
703.25	14876.44
703.38	14918.57
703.51	14815.59
703.65	14841.34
703.78	14686.86
703.91	14106.41
704.04	14291.31
704.17	14279.61
704.31	14614.30
704.44	14525.36
704.57	14534.73
704.70	14450.47
704.83	14153.22
704.96	14239.82
705.10	13860.65
705.23	13785.76
>>>>>End Processed Spectral Data<<<<<
