SpectraSuite Data File
++++++++++++++++++++++++++++++++++++
Date: Fri Oct 25 11:33:26 EDT 2013
User: price-jones
Dark Spectrum Present: No
Reference Spectrum Present: No
Number of Sampled Component Spectra: 1
Spectrometers: USB2+H05261
Integration Time (usec): 100000 (USB2+H05261)
Spectra Averaged: 1 (USB2+H05261)
Boxcar Smoothing: 0 (USB2+H05261)
Correct for Electrical Dark: No (USB2+H05261)
Strobe/Lamp Enabled: No (USB2+H05261)
Correct for Detector Non-linearity: No (USB2+H05261)
Correct for Stray Light: No (USB2+H05261)
Number of Pixels in Processed Spectrum: 2048
>>>>>Begin Processed Spectral Data<<<<<
365.73	269.16
365.92	269.16
366.12	269.16
366.32	177.88
366.52	147.45
366.72	198.95
366.91	194.26
367.11	121.71
367.31	182.56
367.51	170.86
367.70	159.16
367.90	241.08
368.10	248.10
368.30	142.77
368.49	152.13
368.69	248.10
368.89	194.26
369.09	210.65
369.28	196.60
369.48	203.63
369.68	257.46
369.87	259.80
370.07	191.92
370.27	280.86
370.47	330.02
370.66	550.03
370.86	489.17
371.06	479.81
371.25	552.37
371.45	538.32
371.65	594.50
371.84	613.22
372.04	521.94
372.24	648.33
372.44	606.20
372.63	608.54
372.83	601.52
373.03	645.99
373.22	571.09
373.42	589.82
373.62	606.20
373.81	627.26
374.01	657.69
374.21	596.84
374.40	620.24
374.60	634.29
374.79	664.71
374.99	711.52
375.19	573.43
375.38	683.44
375.58	613.22
375.78	685.78
375.97	690.46
376.17	741.95
376.37	699.82
376.56	683.44
376.76	678.76
376.95	615.56
377.15	709.18
377.35	699.82
377.54	653.01
377.74	725.57
377.93	664.71
378.13	662.37
378.33	734.93
378.52	746.63
378.72	711.52
378.91	674.07
379.11	844.93
379.31	741.95
379.50	650.67
379.70	725.57
379.89	692.80
380.09	737.27
380.28	800.46
380.48	629.60
380.68	624.92
380.87	662.37
381.07	746.63
381.26	763.01
381.46	760.67
381.65	765.36
381.85	774.72
382.04	734.93
382.24	833.23
382.43	802.80
382.63	781.74
382.83	791.10
383.02	793.44
383.22	877.70
383.41	784.08
383.61	840.25
383.80	814.51
384.00	877.70
384.19	800.46
384.39	861.32
384.58	800.46
384.78	894.08
384.97	830.89
385.17	828.55
385.36	826.21
385.56	823.87
385.75	826.21
385.95	861.32
386.14	788.76
386.34	877.70
386.53	875.36
386.72	847.27
386.92	856.64
387.11	847.27
387.31	919.83
387.50	835.57
387.70	898.77
387.89	922.17
388.09	887.06
388.28	919.83
388.48	940.90
388.67	873.02
388.86	976.00
389.06	976.00
389.25	894.08
389.45	992.39
389.64	954.94
389.84	1029.84
390.03	1062.60
390.22	943.24
390.42	901.11
390.61	947.92
390.81	966.64
391.00	952.60
391.19	980.68
391.39	1004.09
391.58	1041.54
391.78	1064.94
391.97	1083.67
392.16	1043.88
392.36	1027.50
392.55	980.68
392.75	1015.79
392.94	1050.90
393.13	1069.62
393.33	1015.79
393.52	1055.58
393.71	987.71
393.91	1095.37
394.10	1078.99
394.29	1104.73
394.49	1095.37
394.68	1123.46
394.88	1114.10
395.07	1137.50
395.26	1128.14
395.46	1090.69
395.65	1231.12
395.84	1170.27
396.04	1308.36
396.23	1198.35
396.42	1242.82
396.62	1263.89
396.81	1266.23
397.00	1224.10
397.19	1273.25
397.39	1203.04
397.58	1259.21
397.77	1238.14
397.97	1268.57
398.16	1301.34
398.35	1306.02
398.55	1256.87
398.74	1193.67
398.93	1308.36
399.12	1291.98
399.32	1287.29
399.51	1329.42
399.70	1472.20
399.90	1270.91
400.09	1266.23
400.28	1378.58
400.47	1420.71
400.67	1392.62
400.86	1385.60
401.05	1359.85
401.24	1399.64
401.44	1413.68
401.63	1504.96
401.82	1418.36
402.01	1401.98
402.21	1460.49
402.40	1416.02
402.59	1556.46
402.78	1556.46
402.97	1526.03
403.17	1570.50
403.36	1521.35
403.55	1516.67
403.74	1675.82
403.93	1462.83
404.13	1732.00
404.32	1666.46
404.51	1605.61
404.70	1708.59
404.89	1643.06
405.09	1694.55
405.28	1701.57
405.47	1596.25
405.66	1694.55
405.85	1823.28
406.05	1701.57
406.24	1792.85
406.43	1710.93
406.62	1811.57
406.81	1734.34
407.00	1797.53
407.20	1790.51
407.39	1804.55
407.58	1741.36
407.77	1858.39
407.96	1989.46
408.15	1895.83
408.34	1820.94
408.54	2036.27
408.73	1902.86
408.92	1991.80
409.11	1930.94
409.30	2029.24
409.49	1996.48
409.68	1949.67
409.87	2026.90
410.07	2052.65
410.26	2111.16
410.45	2033.93
410.64	2127.55
410.83	2122.87
411.02	2165.00
411.21	2200.10
411.40	2085.42
411.59	2253.94
411.78	2153.29
411.98	2324.15
412.17	2331.17
412.36	2286.70
412.55	2314.79
412.74	2403.73
412.93	2392.03
413.12	2310.11
413.31	2490.33
413.50	2427.14
413.69	2427.14
413.88	2499.69
414.07	2532.46
414.26	2583.95
414.45	2525.44
414.64	2551.18
414.83	2626.08
415.02	2588.63
415.22	2588.63
415.41	2616.72
415.60	2696.30
415.79	2658.85
415.98	2715.02
416.17	2722.04
416.36	2850.77
416.55	2693.96
416.74	2794.60
416.93	2792.26
417.12	2822.69
417.31	2846.09
417.50	2869.50
417.69	2970.14
417.88	2991.20
418.07	2841.41
418.26	2963.12
418.45	3077.80
418.64	3070.78
418.83	2970.14
419.02	2988.86
419.21	3126.96
419.39	3176.11
419.58	3035.67
419.77	3038.02
419.96	3126.96
420.15	3126.96
420.34	3272.07
420.53	3124.62
420.72	3286.11
420.91	3300.16
421.10	3248.66
421.29	3356.33
421.48	3218.24
421.67	3330.58
421.86	3428.88
422.05	3286.11
422.24	3377.39
422.43	3447.61
422.61	3503.78
422.80	3459.31
422.99	3309.52
423.18	3384.41
423.37	3447.61
423.56	3346.97
423.75	3384.41
423.94	3391.44
424.13	3180.79
424.32	3323.56
424.50	3510.80
424.69	3403.14
424.88	3492.08
425.07	3435.91
425.26	3407.82
425.45	3407.82
425.64	3435.91
425.83	3419.52
426.01	3478.04
426.20	3581.02
426.39	3524.85
426.58	3452.29
426.77	3597.40
426.96	3534.21
427.15	3456.97
427.33	3555.27
427.52	3623.15
427.71	3552.93
427.90	3545.91
428.09	3639.53
428.28	3730.81
428.46	3772.94
428.65	3627.83
428.84	3932.10
429.03	3871.25
429.22	3632.51
429.40	3747.20
429.59	3815.07
429.78	3648.90
429.97	3669.96
430.16	3681.66
430.34	3908.69
430.53	4011.68
430.72	3953.16
430.91	3906.35
431.10	3826.78
431.28	3997.64
431.47	4011.68
431.66	4070.19
431.85	4007.00
432.03	4147.43
432.22	4046.79
432.41	4177.86
432.60	4084.23
432.79	4170.83
432.97	4168.49
433.16	4170.83
433.35	4095.94
433.54	4065.51
433.72	4196.58
433.91	4007.00
434.10	4222.33
434.28	4198.92
434.47	4332.33
434.66	4337.01
434.85	4409.57
435.03	4285.52
435.22	4465.74
435.41	4470.42
435.59	4421.27
435.78	4505.53
435.97	4498.51
436.16	4514.89
436.34	4528.94
436.53	4458.72
436.72	4463.40
436.90	4479.79
437.09	4479.79
437.28	4486.81
437.46	4573.41
437.65	4596.81
437.84	4550.00
438.02	4566.39
438.21	4716.18
438.40	4582.77
438.58	4788.74
438.77	4840.23
438.96	4720.86
439.14	4896.40
439.33	4978.32
439.52	4959.60
439.70	4943.21
439.89	4987.68
440.08	5020.45
440.26	5022.79
440.45	5020.45
440.63	5231.10
440.82	5238.12
441.01	5317.70
441.19	5198.33
441.38	5301.31
441.57	5401.96
441.75	5242.80
441.94	5469.83
442.12	5317.70
442.31	5275.57
442.50	5612.60
442.68	5462.81
442.87	5455.79
443.05	5605.58
443.24	5565.79
443.43	5689.84
443.61	5825.59
443.80	5760.06
443.98	5427.70
444.17	5315.36
444.35	5619.63
444.54	5640.69
444.73	5584.52
444.91	5680.48
445.10	5701.54
445.28	5706.23
445.47	5680.48
445.65	5701.54
445.84	5722.61
446.02	5820.91
446.21	5708.57
446.39	5734.31
446.58	5792.83
446.77	5657.07
446.95	5746.02
447.14	5724.95
447.32	5757.72
447.51	5671.12
447.69	5736.65
447.88	5767.08
448.06	5771.76
448.25	5947.30
448.43	6038.58
448.62	5654.73
448.80	5909.85
448.99	5975.39
449.17	5895.81
449.36	5886.45
449.54	5937.94
449.73	6099.44
449.91	6181.35
450.10	6066.67
450.28	6349.87
450.46	6066.67
450.65	6282.00
450.83	6183.70
451.02	6101.78
451.20	6216.46
451.39	6094.76
451.57	6022.20
451.76	6267.95
451.94	6167.31
452.13	6246.89
452.31	6239.87
452.49	6265.61
452.68	6291.36
452.86	6361.58
453.05	6471.58
453.23	6267.95
453.42	6368.60
453.60	6497.33
453.78	6539.46
453.97	6509.03
454.15	6403.71
454.34	6502.01
454.52	6628.40
454.70	6569.88
454.89	6431.79
455.07	6546.48
455.26	6686.91
455.44	6677.55
455.62	6712.66
455.81	6724.36
455.99	6867.13
456.17	6920.96
456.36	6839.05
456.54	6808.62
456.73	7049.69
456.91	7049.69
457.09	6965.43
457.28	7126.93
457.46	6935.01
457.64	6960.75
457.83	7218.21
458.01	7250.98
458.19	7286.09
458.38	7077.78
458.56	7461.63
458.74	7236.94
458.93	6911.60
459.11	7276.73
459.29	7363.33
459.48	7208.85
459.66	7325.88
459.84	7529.50
460.03	7440.56
460.21	7513.12
460.39	7363.33
460.57	7445.24
460.76	7655.89
460.94	7625.47
461.12	7590.36
461.31	7513.12
461.49	7576.31
461.67	7726.11
461.85	7688.66
462.04	7639.51
462.22	8086.55
462.40	7981.23
462.59	7826.75
462.77	7691.00
462.95	7829.09
463.13	7878.24
463.32	8011.65
463.50	7915.69
463.68	8011.65
463.86	7946.12
464.05	7976.55
464.23	7852.50
464.41	8194.22
464.59	7819.73
464.78	8236.35
464.96	8091.23
465.14	7864.20
465.32	7985.91
465.50	7988.25
465.69	8264.43
465.87	8145.06
466.05	8201.24
466.23	8102.93
466.41	8081.87
466.60	8248.05
466.78	8231.66
466.96	8311.24
467.14	8278.47
467.32	8257.41
467.51	8381.46
467.69	8264.43
467.87	8334.65
468.05	8636.58
468.23	8477.42
468.41	8327.63
468.60	8409.54
468.78	8416.57
468.96	8395.50
469.14	8601.47
469.32	8662.32
469.50	8383.80
469.69	8704.45
469.87	8678.71
470.05	8826.16
470.23	8725.52
470.41	8765.31
470.59	8929.14
470.77	8959.57
470.95	8821.48
471.14	9202.99
471.32	9020.42
471.50	9202.99
471.68	9135.11
471.86	9200.65
472.04	9160.86
472.22	9474.49
472.40	9207.67
472.58	9181.92
472.77	9289.59
472.95	9200.65
473.13	9626.62
473.31	9444.06
473.49	9455.76
473.67	9516.62
473.85	9633.64
474.03	9811.53
474.21	9820.89
474.39	9844.29
474.57	9816.21
474.75	10068.98
474.93	10040.90
475.12	9980.04
475.30	9987.07
475.48	10349.85
475.66	10202.40
475.84	10087.71
476.02	10338.15
476.20	10373.25
476.38	10511.35
476.56	10637.73
476.74	10766.46
476.92	10487.94
477.10	10436.45
477.28	10888.17
477.46	10977.11
477.64	10836.68
477.82	11185.42
478.00	11356.28
478.18	11154.99
478.36	11318.83
478.54	11489.69
478.72	11276.70
478.90	11477.99
479.08	11784.60
479.26	11859.49
479.44	11903.96
479.62	11936.73
479.80	11915.67
479.98	12088.87
480.16	12435.27
480.34	12222.28
480.52	12386.12
480.70	12379.09
480.88	12233.98
481.06	12587.40
481.24	12416.54
481.41	12599.10
481.59	12926.78
481.77	12505.48
481.95	13252.11
482.13	13329.35
482.31	13046.15
482.49	13640.64
482.67	13476.80
482.85	13626.60
483.03	13687.45
483.21	13607.87
483.39	14071.30
483.57	13577.45
483.74	13893.42
483.92	13818.52
484.10	14146.20
484.28	14295.99
484.46	14747.72
484.64	14707.93
484.82	14726.65
485.00	14759.42
485.18	15019.22
485.35	15220.50
485.53	15098.80
485.71	15176.03
485.89	15728.40
486.07	15426.47
486.25	15445.20
486.43	15548.18
486.61	16009.26
486.78	15903.94
486.96	15957.77
487.14	16121.61
487.32	16475.03
487.50	16489.07
487.68	16636.53
487.85	16891.65
488.03	16847.18
488.21	17050.80
488.39	17125.70
488.57	17207.62
488.75	17444.01
488.92	17462.74
489.10	17769.35
489.28	17895.74
489.46	17994.04
489.64	17853.61
489.81	18331.08
489.99	18389.59
490.17	18221.07
490.35	18553.43
490.53	18349.80
490.70	18883.44
490.88	18813.23
491.06	18960.68
491.24	19328.14
491.41	18923.23
491.59	19482.62
491.77	19515.39
491.95	19433.47
492.13	19477.94
492.30	19740.08
492.48	19948.39
492.66	19775.19
492.84	20271.38
493.01	19922.64
493.19	20341.60
493.37	20680.97
493.54	20489.05
493.72	20950.14
493.90	21125.68
494.08	20863.54
494.25	21209.93
494.43	20961.84
494.61	21577.40
494.79	21387.82
494.96	21319.94
495.14	21694.43
495.32	22087.64
495.49	21940.18
495.67	21724.85
495.85	22492.55
496.02	22677.45
496.20	22459.78
496.38	22483.19
496.55	22618.94
496.73	22731.28
496.91	22925.55
497.09	22958.31
497.26	22946.61
497.44	23030.87
497.62	23386.63
497.79	23587.92
497.97	23711.97
498.14	23955.38
498.32	23821.97
498.50	23976.45
498.67	24114.54
498.85	23775.16
499.03	24610.73
499.20	24168.37
499.38	24198.80
499.56	24638.82
499.73	24680.95
499.91	24910.32
500.08	24898.62
500.26	24762.87
500.44	24840.11
500.61	25123.31
500.79	25076.50
500.97	25584.40
501.14	25589.08
501.32	25577.37
501.49	25322.26
501.67	25656.95
501.84	26134.42
502.02	25631.21
502.20	25628.87
502.37	25893.35
502.55	25912.07
502.72	26256.13
502.90	26221.02
503.07	26160.17
503.25	26389.54
503.43	26506.57
503.60	26462.10
503.78	26672.74
503.95	26604.87
504.13	26665.72
504.30	26857.65
504.48	27080.00
504.65	26876.37
504.83	27456.82
505.01	27412.35
505.18	27328.10
505.36	27634.71
505.53	27318.73
505.71	27552.79
505.88	27772.80
506.06	27510.66
506.23	28168.35
506.41	27658.11
506.58	28144.94
506.76	28032.60
506.93	28109.83
507.11	28491.34
507.28	28261.97
507.46	28240.90
507.63	28257.29
507.81	28744.12
507.98	28465.60
508.16	28486.66
508.33	28828.38
508.50	28697.31
508.68	29102.22
508.85	29149.03
509.03	28929.02
509.20	29415.85
509.38	29624.16
509.55	29345.64
509.73	29481.39
509.90	29806.72
510.08	29984.60
510.25	29935.45
510.42	29717.78
510.60	29598.41
510.77	30370.79
510.95	30333.34
511.12	29649.91
511.30	30174.19
511.47	30288.87
511.64	30625.91
511.82	30574.42
511.99	30909.11
512.17	30646.97
512.34	30394.20
512.51	30672.72
512.69	31065.93
512.86	30998.06
513.04	30834.22
513.21	31545.74
513.38	31393.61
513.56	31456.80
513.73	31218.07
513.90	31524.68
514.08	31353.82
514.25	31501.27
514.43	31864.05
514.60	31824.26
514.77	31971.72
514.95	32177.68
515.12	31751.71
515.29	32084.06
515.47	32093.43
515.64	32163.64
515.81	31758.73
515.99	32713.67
516.16	32428.12
516.33	32264.28
516.51	32957.08
516.68	32407.06
516.85	32687.92
517.03	33074.11
517.20	33060.07
517.37	32856.44
517.54	33270.72
517.72	33188.80
517.89	33511.79
518.06	33673.29
518.24	33181.77
518.41	33378.38
518.58	33841.81
518.75	33532.86
518.93	33596.05
519.10	33633.50
519.27	34036.07
519.45	34258.42
519.62	34117.99
519.79	33897.98
519.96	33823.08
520.14	34038.41
520.31	33699.03
520.48	34462.05
520.65	34560.35
520.83	34658.65
521.00	34890.37
521.17	34293.53
521.34	34574.39
521.52	34801.43
521.69	34827.17
521.86	34960.58
522.03	35138.46
522.20	35086.97
522.38	35185.27
522.55	34995.69
522.72	34960.58
522.89	35239.11
523.07	35901.48
523.24	35510.61
523.41	35938.93
523.58	35339.75
523.75	35812.54
523.92	35196.98
524.10	35866.37
524.27	36102.76
524.44	36058.29
524.61	36172.98
524.78	36037.23
524.96	36081.70
525.13	36493.63
525.30	36381.29
525.47	36362.56
525.64	36287.67
525.81	36378.95
525.98	36711.30
526.16	36552.15
526.33	36673.85
526.50	36790.88
526.67	36678.54
526.84	36751.09
527.01	37099.83
527.18	36711.30
527.36	37287.07
527.53	37074.09
527.70	37806.67
527.87	37497.72
528.04	37523.47
528.21	37069.40
528.38	37596.03
528.55	37825.40
528.72	37525.81
528.89	37151.32
529.07	37240.26
529.24	37525.81
529.41	37935.40
529.58	37502.40
529.75	37853.48
529.92	37436.87
530.09	38026.68
530.26	38176.48
530.43	38017.32
530.60	37755.18
530.77	37851.14
530.94	38192.86
531.11	37928.38
531.28	38162.43
531.46	38415.21
531.63	38120.31
531.80	38405.85
531.97	38768.63
532.14	38522.88
532.31	38485.43
532.48	38609.48
532.65	39168.87
532.82	38628.20
532.99	38916.09
533.16	38778.00
533.33	39110.35
533.50	39377.17
533.67	38679.69
533.84	39098.65
534.01	39372.49
534.18	39026.09
534.35	39306.96
534.52	39601.86
534.69	39346.75
534.86	39995.07
535.03	39459.09
535.20	39966.99
535.37	39512.92
535.54	39704.85
535.71	39859.32
535.88	39807.83
536.05	39906.13
536.22	39868.69
536.38	40025.50
536.55	40027.84
536.72	40037.20
536.89	40196.36
537.06	40802.56
537.23	40149.55
537.40	39969.33
537.57	40198.70
537.74	40404.67
537.91	40863.41
538.08	40402.33
538.25	40154.23
538.42	40582.55
538.59	40856.39
538.75	40638.72
538.92	40484.25
539.09	40734.68
539.26	40416.37
539.43	40980.44
539.60	40851.71
539.77	40828.30
539.94	41198.11
540.11	41336.20
540.28	41160.66
540.44	41083.42
540.61	40711.28
540.78	40755.75
540.95	41310.46
541.12	40882.14
541.29	40971.08
541.46	41614.72
541.62	41872.18
541.79	41778.56
541.96	41247.26
542.13	41090.44
542.30	41530.47
542.47	41858.14
542.63	41771.54
542.80	41771.54
542.97	42366.04
543.14	42356.67
543.31	42038.36
543.48	42211.56
543.64	42403.49
543.81	42532.22
543.98	42330.93
544.15	42410.51
544.32	42787.33
544.48	42850.53
544.65	42632.86
544.82	42742.86
544.99	42590.73
545.16	42625.84
545.32	42539.24
545.49	42316.89
545.66	43203.95
545.83	42845.85
546.00	43250.76
546.16	42983.94
546.33	42766.27
546.50	42635.20
546.67	43278.85
546.83	42684.35
547.00	42850.53
547.17	42827.12
547.34	43386.51
547.50	42972.24
547.67	43665.03
547.84	43028.41
548.00	43281.19
548.17	43299.91
548.34	43164.16
548.51	44044.20
548.67	43758.66
548.84	43416.94
549.01	43981.01
549.18	43459.07
549.34	43906.11
549.51	44076.97
549.68	43901.43
549.84	43587.80
550.01	44126.12
550.18	43337.36
550.34	44226.76
550.51	44105.06
550.68	44046.54
550.84	43779.72
551.01	44428.05
551.18	43957.60
551.34	43746.95
551.51	44308.68
551.68	43674.40
551.84	44355.49
552.01	44367.20
552.18	44217.40
552.34	43973.98
552.51	44458.48
552.68	43847.60
552.84	44879.77
553.01	44385.92
553.18	44383.58
553.34	44416.35
553.51	44165.91
553.67	44526.35
553.84	44807.22
554.01	44786.15
554.17	44788.49
554.34	44727.64
554.51	45106.80
554.67	44994.46
554.84	44708.91
555.00	45085.74
555.17	44664.44
555.33	45247.24
555.50	44968.71
555.67	44811.90
555.83	45158.30
556.00	44830.62
556.16	45492.99
556.33	45127.87
556.50	45242.56
556.66	45394.69
556.83	45198.09
556.99	45539.80
557.16	45663.85
557.32	45593.64
557.49	45067.02
557.65	45415.76
557.82	45631.08
557.98	45099.78
558.15	45193.40
558.32	45556.19
558.48	45661.51
558.65	45113.83
558.81	45556.19
558.98	45614.70
559.14	45516.40
559.31	45179.36
559.47	45413.41
559.64	45696.62
559.80	45439.16
559.97	45570.23
560.13	45907.27
560.30	45883.86
560.46	46555.60
560.63	45970.46
560.79	46202.18
560.96	45858.12
561.12	46050.04
561.29	45904.93
561.45	46316.86
561.61	46026.63
561.78	45918.97
561.94	45631.08
562.11	45972.80
562.27	46045.36
562.44	45734.07
562.60	46047.70
562.77	46553.26
562.93	46260.69
563.10	46241.96
563.26	46539.21
563.42	46597.73
563.59	46478.36
563.75	46115.58
563.92	46232.60
564.08	46087.49
564.24	46532.19
564.41	45904.93
564.57	46204.52
564.74	46220.90
564.90	46190.47
565.07	46817.74
565.23	46122.60
565.39	46459.63
565.56	46653.90
565.72	46340.27
565.88	46532.19
566.05	46665.60
566.21	46408.14
566.38	46155.36
566.54	46602.41
566.70	46969.87
566.87	46691.35
567.03	46330.90
567.19	46651.56
567.36	46508.79
567.52	46693.69
567.68	46728.80
567.85	46696.03
568.01	46707.73
568.17	46902.00
568.34	47004.98
568.50	46969.87
568.66	46616.45
568.83	46646.88
568.99	46529.85
569.15	46616.45
569.32	46918.38
569.48	46808.37
569.64	47468.40
569.81	46983.91
569.97	47035.41
570.13	46932.42
570.30	46824.76
570.46	46911.36
570.62	46824.76
570.78	46993.28
570.95	46892.63
571.11	47189.88
571.27	46579.00
571.43	47023.70
571.60	47028.38
571.76	46885.61
571.92	46986.25
572.09	46906.68
572.25	46567.30
572.41	46742.84
572.57	47381.80
572.74	47267.12
572.90	47033.07
573.06	47079.88
573.22	47562.03
573.38	47061.15
573.55	47119.66
573.71	47723.52
573.87	47353.72
574.03	47288.18
574.20	47473.09
574.36	47203.92
574.52	47138.39
574.68	47185.20
574.84	47798.42
575.01	47311.59
575.17	47124.35
575.33	47704.80
575.49	47028.38
575.65	47283.50
575.82	47377.12
575.98	47318.61
576.14	47068.17
576.30	47674.37
576.46	47505.85
576.62	47313.93
576.79	47302.23
576.95	46878.59
577.11	46693.69
577.27	47374.78
577.43	47173.50
577.59	47241.37
577.75	47452.02
577.92	47068.17
578.08	47681.39
578.24	47241.37
578.40	47295.21
578.56	47601.82
578.72	47049.45
578.88	47873.32
579.04	47482.45
579.21	47601.82
579.37	47662.67
579.53	47674.37
579.69	47552.66
579.85	47290.52
580.01	47388.83
580.17	47232.01
580.33	47381.80
580.49	47379.46
580.65	47653.31
580.82	47470.75
580.98	47461.38
581.14	47082.22
581.30	47714.16
581.46	47342.02
581.62	47452.02
581.78	47629.90
581.94	47597.13
582.10	47192.22
582.26	47744.59
582.42	47629.90
582.58	47838.21
582.74	47414.57
582.90	47901.40
583.06	47494.15
583.22	47442.66
583.38	47316.27
583.54	47700.12
583.70	47405.21
583.86	47957.58
584.02	47466.06
584.18	47709.48
584.34	47566.71
584.50	48083.97
584.66	47779.70
584.82	48037.16
584.98	48151.84
585.14	47913.11
585.30	47620.54
585.46	47863.96
585.62	47648.63
585.78	47950.56
585.94	47386.49
586.10	48074.60
586.26	47679.05
586.42	47686.07
586.58	47650.97
586.74	47791.40
586.90	47571.39
587.06	47555.00
587.22	47934.17
587.38	47632.24
587.54	47665.01
587.70	48231.42
587.86	47983.32
588.02	47789.06
588.18	47508.19
588.34	47246.05
588.49	47772.67
588.65	47454.36
588.81	47629.90
588.97	47969.28
589.13	47683.73
589.29	47756.29
589.45	48016.09
589.61	47885.02
589.77	48039.50
589.93	47737.57
590.08	47980.98
590.24	47775.02
590.40	48432.71
590.56	48542.71
590.72	48154.18
590.88	48109.71
591.04	47679.05
591.20	48343.77
591.35	48409.30
591.51	48491.22
591.67	48095.67
591.83	48032.47
591.99	48151.84
592.15	48076.94
592.31	47789.06
592.46	48018.43
592.62	47908.43
592.78	48231.42
592.94	48261.85
593.10	48350.79
593.26	48395.26
593.41	48603.56
593.57	48587.18
593.73	48271.21
593.89	48573.14
594.05	48610.59
594.20	48610.59
594.36	48645.69
594.52	48470.15
594.68	48116.73
594.84	48287.59
594.99	48472.49
595.15	48413.98
595.31	48409.30
595.47	48217.38
595.62	48830.60
595.78	48449.09
595.94	48673.78
596.10	48210.35
596.25	48697.19
596.41	48390.58
596.57	48177.59
596.73	48608.25
596.88	48729.95
597.04	48165.88
597.20	48603.56
597.36	48594.20
597.51	48509.94
597.67	48177.59
597.83	48465.47
597.99	48383.55
598.14	48364.83
598.30	48369.51
598.46	48315.68
598.61	48657.40
598.77	48222.06
598.93	48715.91
599.09	48488.88
599.24	49010.82
599.40	48416.32
599.56	48369.51
599.71	48809.53
599.87	48846.98
600.03	48821.23
600.18	48556.75
600.34	48615.27
600.50	48657.40
600.65	48479.52
600.81	48992.09
600.97	48645.69
601.12	48846.98
601.28	48266.53
601.44	48884.43
601.59	48942.94
601.75	48463.13
601.91	48865.70
602.06	48374.19
602.22	48683.14
602.37	48914.86
602.53	48299.30
602.69	48683.14
602.84	48156.52
603.00	48163.54
603.16	48444.41
603.31	48758.04
603.47	48924.22
603.62	48676.12
603.78	48952.30
603.94	48619.95
604.09	48912.52
604.25	48629.31
604.40	48264.19
604.56	48715.91
604.71	48662.08
604.87	48416.32
605.03	48758.04
605.18	48547.39
605.34	48432.71
605.49	48250.14
605.65	48465.47
605.80	48512.28
605.96	48472.49
606.12	48336.74
606.27	48570.80
606.43	48577.82
606.58	48456.11
606.74	48690.16
606.89	48458.45
607.05	48875.07
607.20	48570.80
607.36	48704.21
607.51	48514.62
607.67	48060.56
607.82	48336.74
607.98	48842.30
608.13	48582.50
608.29	48289.93
608.44	48538.03
608.60	48598.88
608.75	48465.47
608.91	48250.14
609.06	47955.24
609.22	48741.66
609.37	48615.27
609.53	48919.54
609.68	48678.46
609.84	48200.99
609.99	48435.05
610.15	48610.59
610.30	48390.58
610.46	48245.46
610.61	48617.61
610.76	48528.67
610.92	47920.13
611.07	47957.58
611.23	48011.41
611.38	48140.14
611.54	48018.43
611.69	48327.38
611.84	48273.55
612.00	48404.62
612.15	47941.19
612.31	48175.25
612.46	47477.77
612.62	48142.48
612.77	48182.27
612.92	48369.51
613.08	47805.44
613.23	48210.35
613.39	47920.13
613.54	47716.50
613.69	48004.39
613.85	47746.93
614.00	48353.13
614.15	48135.46
614.31	47737.57
614.46	47854.59
614.62	47852.25
614.77	48193.97
614.92	48046.52
615.08	47969.28
615.23	47952.90
615.38	48133.12
615.54	47945.87
615.69	48020.77
615.84	47606.50
616.00	48397.60
616.15	47601.82
616.30	47915.45
616.46	47435.64
616.61	47878.00
616.76	47793.74
616.92	47700.12
617.07	47821.83
617.22	47693.10
617.37	47412.23
617.53	47599.47
617.68	47594.79
617.83	47173.50
617.99	47737.57
618.14	47859.27
618.29	47330.31
618.45	47290.52
618.60	47019.02
618.75	46761.56
618.90	47557.35
619.06	47105.62
619.21	47206.26
619.36	47489.47
619.51	47625.22
619.67	47283.50
619.82	47192.22
619.97	47716.50
620.12	47437.98
620.28	47042.43
620.43	47653.31
620.58	47290.52
620.73	47089.24
620.89	47262.44
621.04	47494.15
621.19	47318.61
621.34	47049.45
621.49	47201.58
621.65	47189.88
621.80	47538.62
621.95	47756.29
622.10	47035.41
622.25	47065.83
622.41	47019.02
622.56	47049.45
622.71	46845.82
622.86	46752.20
623.01	47220.31
623.16	46803.69
623.32	46967.53
623.47	47334.99
623.62	46581.34
623.77	46674.96
623.92	47178.18
624.07	46581.34
624.23	46831.78
624.38	46902.00
624.53	46721.77
624.68	46260.69
624.83	46649.22
624.98	46522.83
625.13	46663.26
625.29	46267.71
625.44	46813.05
625.59	46667.94
625.74	46691.35
625.89	46309.84
626.04	46813.05
626.19	46656.24
626.34	46560.28
626.49	46307.50
626.65	46497.08
626.80	46454.95
626.95	46382.40
627.10	45801.94
627.25	46672.62
627.40	46096.85
627.55	46183.45
627.70	46246.65
627.85	46424.53
628.00	46555.60
628.15	46398.78
628.30	45965.78
628.45	46040.68
628.60	45345.54
628.76	46103.87
628.91	45954.08
629.06	45745.77
629.21	45935.35
629.36	45771.52
629.51	46014.93
629.66	46457.29
629.81	46146.00
629.96	45780.88
630.11	46068.76
630.26	45474.27
630.41	46206.86
630.56	45694.28
630.71	45909.61
630.86	45755.13
631.01	45312.77
631.16	45572.57
631.31	45275.32
631.46	45516.40
631.61	45624.06
631.76	45610.02
631.91	45406.39
632.06	45879.18
632.21	45860.46
632.36	45846.41
632.51	45099.78
632.66	46012.59
632.81	45226.17
632.96	45722.37
633.10	45223.83
633.25	45539.80
633.40	45687.26
633.55	45832.37
633.70	45275.32
633.85	44861.05
634.00	44706.57
634.15	45034.25
634.30	45223.83
634.45	44921.90
634.60	45553.85
634.75	45291.71
634.90	45415.76
635.05	45659.17
635.19	45191.06
635.34	45099.78
635.49	44711.25
635.64	45170.00
635.79	45179.36
635.94	44734.66
636.09	45085.74
636.24	45059.99
636.39	45228.51
636.53	44931.26
636.68	44999.14
636.83	44903.18
636.98	44332.09
637.13	44311.02
637.28	44767.43
637.43	44442.09
637.57	44767.43
637.72	44346.13
637.87	44392.94
638.02	44879.77
638.17	44467.84
638.32	44137.82
638.46	44252.51
638.61	44406.98
638.76	44346.13
638.91	44493.58
639.06	44594.23
639.20	43955.26
639.35	44172.93
639.50	44147.18
639.65	44273.57
639.80	44376.56
639.94	44418.69
640.09	44421.03
640.24	44406.98
640.39	44041.86
640.54	43936.54
640.68	44170.59
640.83	44236.12
640.98	43896.75
641.13	44069.95
641.27	44364.85
641.42	44048.88
641.57	43969.30
641.72	44009.09
641.86	43934.20
642.01	43494.18
642.16	43496.52
642.31	43562.05
642.45	43803.13
642.60	43309.27
642.75	43484.81
642.90	43686.10
643.04	43793.76
643.19	43611.20
643.34	43330.34
643.48	43622.90
643.63	43367.79
643.78	43615.88
643.93	43861.64
644.07	44011.43
644.22	43363.11
644.37	43950.58
644.51	43749.29
644.66	43585.46
644.81	43335.02
644.95	43592.48
645.10	43515.24
645.25	43374.81
645.39	43353.74
645.54	43159.48
645.69	42995.64
645.83	43075.22
645.98	43026.07
646.13	42965.21
646.27	42941.81
646.42	42684.35
646.57	42607.11
646.71	43154.80
646.86	43335.02
647.00	43398.21
647.15	43379.49
647.30	43398.21
647.44	42380.08
647.59	43388.85
647.74	42887.98
647.88	43171.18
648.03	43126.71
648.17	42972.24
648.32	42724.14
648.47	43225.01
648.61	42431.57
648.76	43138.41
648.90	42639.88
649.05	42855.21
649.20	42499.45
649.34	42775.63
649.49	42880.95
649.63	42944.15
649.78	42792.01
649.92	42836.48
650.07	43295.23
650.21	43084.58
650.36	43054.15
650.51	42562.64
650.65	42583.71
650.80	42827.12
650.94	42728.82
651.09	42302.84
651.23	42136.66
651.38	42251.35
651.52	42190.50
651.67	42256.03
651.81	42251.35
651.96	42113.26
652.10	41975.17
652.25	41776.22
652.39	42164.75
652.54	42604.77
652.68	42026.66
652.83	42094.53
652.97	42206.88
653.12	41778.56
653.26	42155.39
653.41	42373.06
653.55	41724.73
653.70	42492.43
653.84	41839.42
653.99	41949.42
654.13	41820.69
654.27	41626.43
654.42	42050.06
654.56	41883.89
654.71	41940.06
654.85	41661.54
655.00	41897.93
655.14	42043.04
655.29	41904.95
655.43	41691.96
655.57	41322.16
655.72	41619.41
655.86	41769.20
656.01	41282.37
656.15	41216.83
656.30	41715.37
656.44	41591.32
656.58	41904.95
656.73	41282.37
656.87	41310.46
657.01	41202.79
657.16	41464.93
657.30	41411.10
657.45	41291.73
657.59	41244.92
657.73	41577.28
657.88	41106.83
658.02	41493.02
658.16	40945.33
658.31	41038.95
658.45	40847.03
658.60	40893.84
658.74	41078.74
658.88	41174.70
659.03	41209.81
659.17	40381.26
659.31	40390.62
659.46	40692.55
659.60	40968.74
659.74	40638.72
659.89	40505.31
660.03	40460.84
660.17	40631.70
660.32	40671.49
660.46	40739.36
660.60	40114.44
660.74	40201.04
660.89	40079.33
661.03	39608.89
661.17	39658.04
661.32	40329.77
661.46	40196.36
661.60	39901.45
661.74	39704.85
661.89	40016.14
662.03	40706.60
662.17	40114.44
662.31	39950.60
662.46	39819.53
662.60	39943.58
662.74	39269.51
662.88	39456.75
663.03	39299.94
663.17	39365.47
663.31	39255.46
663.45	39239.08
663.60	39730.59
663.74	39274.19
663.88	39356.11
664.02	38988.64
664.17	39271.85
664.31	39019.07
664.45	39108.01
664.59	38995.67
664.73	38953.54
664.88	39267.17
665.02	38607.14
665.16	39068.22
665.30	38429.26
665.44	38588.41
665.59	38272.44
665.73	38354.36
665.87	38073.49
666.01	38862.26
666.15	38485.43
666.29	38759.27
666.44	38581.39
666.58	38267.76
666.72	38022.00
666.86	38242.01
667.00	37710.71
667.14	38064.13
667.28	38117.96
667.43	38171.80
667.57	37909.66
667.71	38036.05
667.85	38124.99
667.99	37813.70
668.13	37794.97
668.27	37380.70
668.41	37383.04
668.56	37055.36
668.70	37273.03
668.84	36875.14
668.98	36966.42
669.12	37338.57
669.26	37350.27
669.40	37057.70
669.54	37043.66
669.68	36662.15
669.82	36940.68
669.96	36495.97
670.10	36683.22
670.25	36685.56
670.39	36390.65
670.53	36463.21
670.67	36418.74
670.81	37006.21
670.95	36498.31
671.09	36133.19
671.23	35866.37
671.37	36343.84
671.51	36020.84
671.65	36163.62
671.79	35969.35
671.93	36020.84
672.07	36301.71
672.21	35786.79
672.35	35285.92
672.49	35681.47
672.63	35564.44
672.77	35407.62
672.91	35402.94
673.05	35409.96
673.19	35285.92
673.33	35208.68
673.47	35321.02
673.61	34951.22
673.75	34902.07
673.89	34672.70
674.03	34045.43
674.17	34330.98
674.31	34684.40
674.45	34469.07
674.59	34508.86
674.73	34340.34
674.87	34235.02
675.01	34361.40
675.15	33729.46
675.29	34148.42
675.43	34024.37
675.56	34356.72
675.70	33982.24
675.84	33521.15
675.98	32769.84
676.12	33661.58
676.26	33371.36
676.40	32903.25
676.54	33352.63
676.68	32746.44
676.82	32716.01
676.96	33095.18
677.10	32879.85
677.23	33172.41
677.37	32706.65
677.51	32098.11
677.65	32655.15
677.79	32077.04
677.93	32278.33
678.07	31852.35
678.21	32105.13
678.34	31943.63
678.48	31896.82
678.62	32130.87
678.76	31639.36
678.90	31711.92
679.04	31318.71
679.18	32060.66
679.31	31704.90
679.45	31255.51
679.59	31248.49
679.73	30930.18
679.87	30852.94
680.00	30789.75
680.14	30565.06
680.28	30441.01
680.42	30883.37
680.56	30445.69
680.70	30387.18
680.83	29970.56
680.97	30291.21
681.11	29825.45
681.25	29921.41
681.39	29450.96
681.52	29682.67
681.66	29418.19
681.80	29102.22
681.94	29373.72
682.07	29315.21
682.21	28809.65
682.35	28954.77
682.49	28802.63
682.62	28694.97
682.76	29214.57
682.90	28870.51
683.04	28966.47
683.17	28474.96
683.31	28362.61
683.45	28297.08
683.59	28299.42
683.72	28020.89
683.86	28027.92
684.00	28004.51
684.13	27833.65
684.27	27786.84
684.41	27562.15
684.55	27873.44
684.68	27515.34
684.82	27241.50
684.96	27248.52
685.09	27358.52
685.23	27138.51
685.37	27615.98
685.50	27175.96
685.64	27168.94
685.78	26602.53
685.91	26885.73
686.05	26401.24
686.19	26384.86
686.32	26445.71
686.46	25713.13
686.60	25811.43
686.73	26214.00
686.87	25837.17
687.01	25685.04
687.14	25551.63
687.28	25638.23
687.42	25458.01
687.55	25256.72
687.69	25373.75
687.82	24959.47
687.96	25116.29
688.10	25273.10
688.23	25020.33
688.37	25202.89
688.50	25137.35
688.64	25078.84
688.78	24931.39
688.91	24362.64
689.05	24320.51
689.18	24341.57
689.32	24116.88
689.46	23775.16
689.59	23859.42
689.73	24067.73
689.86	24261.99
690.00	23978.79
690.13	23957.72
690.27	23693.24
690.41	23831.33
690.54	23590.26
690.68	23531.75
690.81	23227.48
690.95	22845.97
691.08	22970.02
691.22	22955.97
691.35	22789.80
691.49	23180.67
691.62	22838.95
691.76	22595.53
691.89	22195.30
692.03	22157.85
692.16	22036.14
692.30	22185.94
692.43	22380.20
692.57	21795.07
692.70	22045.51
692.84	21593.78
692.97	21596.12
693.11	21502.50
693.24	21373.77
693.38	21214.62
693.51	21453.35
693.65	21179.51
693.78	21259.09
693.92	21071.84
694.05	20816.72
694.19	20634.16
694.32	20898.64
694.45	20601.40
694.59	20732.47
694.72	21006.31
694.86	20271.38
694.99	20409.47
695.13	20283.08
695.26	19889.87
695.39	20056.05
695.53	19756.46
695.66	20168.40
695.80	19976.47
695.93	19728.38
696.07	19421.77
696.20	19075.37
696.33	18934.93
696.47	19077.71
696.60	19239.20
696.73	19344.53
696.87	19295.38
697.00	19122.18
697.14	18813.23
697.27	18768.76
697.40	18649.39
697.54	18665.77
697.67	18906.85
697.80	18600.24
697.94	18295.97
698.07	18298.31
698.21	18382.57
698.34	18398.95
698.47	17862.97
698.61	17893.40
698.74	17600.83
698.87	17628.92
699.01	17701.47
699.14	17923.82
699.27	17401.88
699.40	17657.00
699.54	17509.55
699.67	17315.28
699.80	17275.49
699.94	17451.03
700.07	17212.30
700.20	17092.93
700.34	16922.07
700.47	16947.82
700.60	17092.93
700.73	17081.23
700.87	16594.40
701.00	16257.36
701.13	16348.64
701.26	16386.09
701.40	16341.62
701.53	16147.36
701.66	16273.74
701.79	15861.81
701.93	16063.10
702.06	15845.43
702.19	15864.15
702.32	15569.24
702.46	15712.02
702.59	15585.63
702.72	16042.03
702.85	15499.03
702.99	15452.22
703.12	15391.36
703.25	15180.71
703.38	15232.21
703.51	14977.09
703.65	14911.55
703.78	14927.94
703.91	14654.09
704.04	14752.40
704.17	14588.56
704.31	14623.67
704.44	14490.26
704.57	14508.98
704.70	14462.17
704.83	14256.20
704.96	14031.51
705.10	14085.34
705.23	14024.49
>>>>>End Processed Spectral Data<<<<<
