SpectraSuite Data File
++++++++++++++++++++++++++++++++++++
Date: Fri Oct 25 10:47:42 EDT 2013
User: price-jones
Dark Spectrum Present: No
Reference Spectrum Present: No
Number of Sampled Component Spectra: 1
Spectrometers: USB2+H05261
Integration Time (usec): 100000 (USB2+H05261)
Spectra Averaged: 1 (USB2+H05261)
Boxcar Smoothing: 0 (USB2+H05261)
Correct for Electrical Dark: No (USB2+H05261)
Strobe/Lamp Enabled: No (USB2+H05261)
Correct for Detector Non-linearity: No (USB2+H05261)
Correct for Stray Light: No (USB2+H05261)
Number of Pixels in Processed Spectrum: 2048
>>>>>Begin Processed Spectral Data<<<<<
365.73	32.77
365.92	32.77
366.12	32.77
366.32	14.04
366.52	70.22
366.72	56.17
366.91	77.24
367.11	100.64
367.31	0.00
367.51	7.02
367.70	18.72
367.90	39.79
368.10	105.32
368.30	117.03
368.49	0.00
368.69	30.43
368.89	32.77
369.09	145.11
369.28	60.85
369.48	51.49
369.68	25.75
369.87	107.66
370.07	51.49
370.27	117.03
370.47	208.31
370.66	280.86
370.86	390.87
371.06	486.83
371.25	472.79
371.45	383.85
371.65	463.43
371.84	390.87
372.04	404.91
372.24	507.90
372.44	550.03
372.63	491.51
372.83	479.81
373.03	505.56
373.22	564.07
373.42	503.22
373.62	514.92
373.81	510.24
374.01	634.29
374.21	568.75
374.40	491.51
374.60	486.83
374.79	559.39
374.99	550.03
375.19	540.66
375.38	681.10
375.58	554.71
375.78	643.65
375.97	601.52
376.17	540.66
376.37	547.69
376.56	613.22
376.76	540.66
376.95	636.63
377.15	594.50
377.35	662.37
377.54	688.12
377.74	561.73
377.93	603.86
378.13	627.26
378.33	699.82
378.52	610.88
378.72	578.11
378.91	624.92
379.11	634.29
379.31	566.41
379.50	613.22
379.70	692.80
379.89	690.46
380.09	585.13
380.28	613.22
380.48	655.35
380.68	561.73
380.87	554.71
381.07	716.20
381.26	648.33
381.46	657.69
381.65	718.54
381.85	603.86
382.04	627.26
382.24	718.54
382.43	620.24
382.63	660.03
382.83	667.05
383.02	664.71
383.22	678.76
383.41	660.03
383.61	746.63
383.80	765.36
384.00	739.61
384.19	727.91
384.39	737.27
384.58	751.31
384.78	741.95
384.97	760.67
385.17	697.48
385.36	765.36
385.56	751.31
385.75	802.80
385.95	770.04
386.14	760.67
386.34	809.83
386.53	816.85
386.72	858.98
386.92	727.91
387.11	791.10
387.31	802.80
387.50	861.32
387.70	821.53
387.89	744.29
388.09	791.10
388.28	760.67
388.48	847.27
388.67	868.34
388.86	823.87
389.06	901.11
389.25	910.47
389.45	866.00
389.64	873.02
389.84	842.59
390.03	945.58
390.22	990.05
390.42	919.83
390.61	882.38
390.81	968.98
391.00	919.83
391.19	976.00
391.39	964.30
391.58	1004.09
391.78	896.43
391.97	994.73
392.16	793.44
392.36	1001.75
392.55	983.02
392.75	987.71
392.94	950.26
393.13	957.28
393.33	954.94
393.52	1020.47
393.71	1039.20
393.91	1004.09
394.10	985.37
394.29	1048.56
394.49	959.62
394.68	992.39
394.88	1064.94
395.07	1151.54
395.26	1093.03
395.46	1090.69
395.65	1104.73
395.84	1123.46
396.04	1221.76
396.23	1139.84
396.42	1102.39
396.62	1193.67
396.81	1217.08
397.00	1160.91
397.19	1193.67
397.39	1242.82
397.58	1277.93
397.77	1163.25
397.97	1282.61
398.16	1296.66
398.35	1331.76
398.55	1266.23
398.74	1289.64
398.93	1355.17
399.12	1235.80
399.32	1273.25
399.51	1296.66
399.70	1437.09
399.90	1357.51
400.09	1390.28
400.28	1437.09
400.47	1376.24
400.67	1432.41
400.86	1385.60
401.05	1404.32
401.24	1519.01
401.44	1416.02
401.63	1551.78
401.82	1469.86
402.01	1397.30
402.21	1472.20
402.40	1437.09
402.59	1472.20
402.78	1500.28
402.97	1465.18
403.17	1547.09
403.36	1582.20
403.55	1610.29
403.74	1610.29
403.93	1537.73
404.13	1636.03
404.32	1629.01
404.51	1617.31
404.70	1689.87
404.89	1643.06
405.09	1703.91
405.28	1755.40
405.47	1720.29
405.66	1675.82
405.85	1755.40
406.05	1785.83
406.24	1774.13
406.43	1846.68
406.62	1764.76
406.81	1858.39
407.00	1827.96
407.20	1671.14
407.39	1771.79
407.58	1832.64
407.77	1837.32
407.96	1933.28
408.15	1891.15
408.34	1952.01
408.54	1987.11
408.73	1881.79
408.92	2043.29
409.11	2064.35
409.30	2008.18
409.49	2062.01
409.68	2026.90
409.87	2005.84
410.07	2059.67
410.26	2146.27
410.45	2141.59
410.64	2155.63
410.83	2174.36
411.02	2209.47
411.21	2282.02
411.40	2253.94
411.59	2310.11
411.78	2361.60
411.98	2298.41
412.17	2272.66
412.36	2333.51
412.55	2258.62
412.74	2373.30
412.93	2569.91
413.12	2492.67
413.31	2555.86
413.50	2469.27
413.69	2511.39
413.88	2527.78
414.07	2546.50
414.26	2576.93
414.45	2523.10
414.64	2558.21
414.83	2649.49
415.02	2633.10
415.22	2712.68
415.41	2733.75
415.60	2609.70
415.79	2848.43
415.98	2885.88
416.17	2930.35
416.36	2970.14
416.55	2925.67
416.74	2942.05
416.93	2984.18
417.12	2977.16
417.31	2998.23
417.50	3035.67
417.69	3073.12
417.88	3007.59
418.07	3066.10
418.26	3080.14
418.45	3059.08
418.64	3084.83
418.83	3061.42
419.02	3080.14
419.21	3307.18
419.39	3192.49
419.58	3066.10
419.77	3115.25
419.96	3232.28
420.15	3255.69
420.34	3316.54
420.53	3403.14
420.72	3414.84
420.91	3478.04
421.10	3440.59
421.29	3440.59
421.48	3290.79
421.67	3421.86
421.86	3358.67
422.05	3431.23
422.24	3384.41
422.43	3386.76
422.61	3372.71
422.80	3431.23
422.99	3431.23
423.18	3485.06
423.37	3438.25
423.56	3445.27
423.75	3468.67
423.94	3398.46
424.13	3234.62
424.32	3358.67
424.50	3527.19
424.69	3583.36
424.88	3513.14
425.07	3531.87
425.26	3330.58
425.45	3520.17
425.64	3407.82
425.83	3571.66
426.01	3604.42
426.20	3513.14
426.39	3559.95
426.58	3503.78
426.77	3646.55
426.96	3545.91
427.15	3428.88
427.33	3662.94
427.52	3564.64
427.71	3662.94
427.90	3665.28
428.09	3786.99
428.28	3646.55
428.46	3681.66
428.65	3684.00
428.84	3936.78
429.03	3765.92
429.22	3733.15
429.40	3674.64
429.59	3749.54
429.78	3651.24
429.97	3719.11
430.16	3737.84
430.34	3812.73
430.53	3798.69
430.72	3906.35
430.91	3847.84
431.10	4023.38
431.28	4053.81
431.47	4131.05
431.66	4147.43
431.85	4056.15
432.03	4128.70
432.22	4112.32
432.41	4147.43
432.60	4140.41
432.79	4128.70
432.97	4196.58
433.16	4121.68
433.35	4098.28
433.54	4163.81
433.72	4231.69
433.91	4182.54
434.10	4198.92
434.28	4297.22
434.47	4337.01
434.66	4418.93
434.85	4322.97
435.03	4491.49
435.22	4339.35
435.41	4652.98
435.59	4592.13
435.78	4552.34
435.97	4514.89
436.16	4557.02
436.34	4505.53
436.53	4596.81
436.72	4627.24
436.90	4500.85
437.09	4758.31
437.28	4575.75
437.46	4713.84
437.65	4606.17
437.84	4779.37
438.02	4512.55
438.21	4777.03
438.40	4601.49
438.58	4842.57
438.77	4809.80
438.96	4971.30
439.14	4961.94
439.33	5100.03
439.52	4947.89
439.70	4873.00
439.89	4961.94
440.08	5132.79
440.26	5158.54
440.45	5109.39
440.63	5179.61
440.82	5371.53
441.01	5324.72
441.19	5366.85
441.38	5399.62
441.57	5324.72
441.75	5521.32
441.94	5696.86
442.12	5418.34
442.31	5563.45
442.50	5729.63
442.68	5624.31
442.87	5619.63
443.05	5643.03
443.24	5879.43
443.43	5778.78
443.61	5776.44
443.80	5797.51
443.98	5715.59
444.17	5497.92
444.35	5753.04
444.54	6012.84
444.73	5767.08
444.91	5762.40
445.10	5783.46
445.28	5907.51
445.47	5750.70
445.65	5820.91
445.84	5905.17
446.02	5951.98
446.21	5834.96
446.39	5863.04
446.58	5881.77
446.77	5888.79
446.95	5811.55
447.14	5811.55
447.32	5870.06
447.51	6085.39
447.69	5823.25
447.88	5914.53
448.06	5921.56
448.25	5912.19
448.43	5975.39
448.62	5884.11
448.80	6022.20
448.99	6150.93
449.17	6186.04
449.36	5994.11
449.54	6321.79
449.73	6169.65
449.91	6155.61
450.10	6253.91
450.28	6216.46
450.46	6284.34
450.65	6328.81
450.83	6317.11
451.02	6469.24
451.20	6326.47
451.39	6282.00
451.57	6326.47
451.76	6375.62
451.94	6527.75
452.13	6602.65
452.31	6658.82
452.49	6415.41
452.68	6499.67
452.86	6469.24
453.05	6644.78
453.23	6403.71
453.42	6429.45
453.60	6604.99
453.78	6576.91
453.97	6612.01
454.15	6808.62
454.34	6633.08
454.52	6778.19
454.70	6963.09
454.89	6724.36
455.07	6799.26
455.26	6686.91
455.44	6754.79
455.62	6960.75
455.81	6998.20
455.99	6918.62
456.17	6939.69
456.36	7077.78
456.54	6935.01
456.73	7098.84
456.91	7211.19
457.09	7169.06
457.28	7424.18
457.46	7129.27
457.64	7290.77
457.83	7131.61
458.01	7152.68
458.19	7314.17
458.38	7475.67
458.56	7421.84
458.74	7349.28
458.93	7360.98
459.11	7435.88
459.29	7501.42
459.48	7501.42
459.66	7637.17
459.84	7489.71
460.03	7606.74
460.21	7679.30
460.39	7672.28
460.57	7555.25
460.76	7559.93
460.94	7646.53
461.12	7681.64
461.31	7878.24
461.49	7632.49
461.67	7595.04
461.85	7815.05
462.04	7845.48
462.22	8355.71
462.40	8028.04
462.59	7793.98
462.77	7829.09
462.95	8095.91
463.13	7962.50
463.32	7985.91
463.50	8161.45
463.68	8084.21
463.86	8100.59
464.05	8049.10
464.23	7901.65
464.41	8273.79
464.59	8056.12
464.78	8166.13
464.96	8070.17
465.14	8013.99
465.32	8243.37
465.50	8189.53
465.69	8369.76
465.87	8191.88
466.05	8287.84
466.23	8088.89
466.41	8241.03
466.60	8582.74
466.78	8285.50
466.96	8276.13
467.14	8294.86
467.32	8409.54
467.51	8484.44
467.69	8243.37
467.87	8573.38
468.05	8608.49
468.23	8439.97
468.41	8552.32
468.60	8725.52
468.78	8636.58
468.96	8526.57
469.14	8737.22
469.32	8615.51
469.50	8411.89
469.69	8861.27
469.87	8879.99
470.05	8882.33
470.23	8762.97
470.41	8929.14
470.59	8748.92
470.77	8922.12
470.95	8915.10
471.14	9221.71
471.32	9022.77
471.50	9301.29
471.68	8961.91
471.86	9158.52
472.04	9256.82
472.22	9619.60
472.40	9256.82
472.58	9214.69
472.77	9308.31
472.95	9530.66
473.13	9741.31
473.31	9544.70
473.49	9626.62
473.67	9584.49
473.85	9650.03
474.03	9745.99
474.21	9895.78
474.39	9809.19
474.57	9928.55
474.75	9928.55
474.93	10078.35
475.12	10043.24
475.30	10242.18
475.48	10083.03
475.66	10239.84
475.84	10265.59
476.02	10256.23
476.20	10277.29
476.38	10567.52
476.56	10913.92
476.74	10724.33
476.92	10595.61
477.10	10647.10
477.28	10822.64
477.46	10920.94
477.64	11033.29
477.82	10984.13
478.00	11269.68
478.18	11215.85
478.36	11433.52
478.54	11524.80
478.72	11332.87
478.90	11552.88
479.08	11679.27
479.26	11833.75
479.44	12067.80
479.62	11812.68
479.80	11939.07
479.98	11946.09
480.16	12400.16
480.34	12084.19
480.52	12393.14
480.70	12533.57
480.88	12163.76
481.06	12175.47
481.24	12587.40
481.41	13039.12
481.59	12851.88
481.77	13090.62
481.95	12746.56
482.13	13128.06
482.31	13261.48
482.49	13329.35
482.67	13327.01
482.85	13816.18
483.03	13874.70
483.21	13954.27
483.39	13703.84
483.57	14017.47
483.74	14022.15
483.92	14307.69
484.10	14249.18
484.28	14338.12
484.46	14363.87
484.64	14478.55
484.82	14548.77
485.00	14644.73
485.18	15042.62
485.35	15030.92
485.53	15009.86
485.71	15098.80
485.89	15374.98
486.07	15342.21
486.25	15314.13
486.43	15267.31
486.61	15822.02
486.78	15817.34
486.96	16051.39
487.14	16079.48
487.32	16166.08
487.50	16109.91
487.68	16699.72
487.85	16812.07
488.03	16638.87
488.21	16765.26
488.39	16812.07
488.57	17266.13
488.75	17312.94
488.92	17216.98
489.10	17825.52
489.28	17158.47
489.46	17862.97
489.64	17741.26
489.81	18345.12
489.99	18258.52
490.17	18434.06
490.35	18714.92
490.53	18415.34
490.70	18696.20
490.88	18796.84
491.06	18782.80
491.24	19105.79
491.41	19023.87
491.59	19049.62
491.77	18939.62
491.95	19517.73
492.13	19590.28
492.30	19548.15
492.48	19875.83
492.66	19826.68
492.84	19957.75
493.01	19976.47
493.19	20245.63
493.37	20067.75
493.54	20428.20
493.72	20395.43
493.90	20577.99
494.08	20987.58
494.25	21099.93
494.43	21170.15
494.61	21062.48
494.79	21455.69
494.96	21425.26
495.14	21563.36
495.32	21649.96
495.49	21654.64
495.67	21912.10
495.85	21912.10
496.02	22082.95
496.20	22436.38
496.38	22459.78
496.55	22239.77
496.73	22670.43
496.91	22558.08
497.09	22909.16
497.26	22789.80
497.44	22703.20
497.62	22906.82
497.79	23342.16
497.97	23016.83
498.14	23740.05
498.32	23665.16
498.50	23601.96
498.67	23917.93
498.85	23749.42
499.03	24102.84
499.20	23901.55
499.38	24201.14
499.56	24161.35
499.73	24414.13
499.91	24168.37
500.08	24587.33
500.26	24615.41
500.44	24809.68
500.61	24484.34
500.79	24657.54
500.97	24950.11
501.14	25170.12
501.32	25509.50
501.49	25001.60
501.67	24945.43
501.84	25291.83
502.02	25521.20
502.20	25570.35
502.37	25818.45
502.55	25420.56
502.72	25680.36
502.90	25724.83
503.07	25752.91
503.25	25586.74
503.43	25783.34
503.60	26253.79
503.78	26153.15
503.95	26232.72
504.13	26527.63
504.30	26499.55
504.48	26726.58
504.65	26583.80
504.83	26595.51
505.01	26780.41
505.18	26658.70
505.36	27316.39
505.53	27101.06
505.71	26930.20
505.88	27524.70
506.06	27021.48
506.23	27377.25
506.41	27428.74
506.58	27623.00
506.76	27779.82
506.93	27604.28
507.11	27679.18
507.28	27555.13
507.46	27615.98
507.63	27920.25
507.81	28105.15
507.98	28044.30
508.16	27889.82
508.33	28470.28
508.50	28240.90
508.68	28414.10
508.85	28809.65
509.03	28566.24
509.20	28912.64
509.38	28982.85
509.55	29048.39
509.73	29076.48
509.90	28898.59
510.08	29057.75
510.25	28854.12
510.42	28781.57
510.60	29495.43
510.77	29436.92
510.95	29699.06
511.12	29362.02
511.30	29783.32
511.47	30022.05
511.64	29825.45
511.82	29809.06
511.99	29785.66
512.17	30188.23
512.34	29958.86
512.51	30122.69
512.69	30331.00
512.86	30391.86
513.04	30600.16
513.21	30569.74
513.38	30225.68
513.56	30618.89
513.73	30560.37
513.90	30579.10
514.08	30902.09
514.25	31175.94
514.43	31290.62
514.60	30796.77
514.77	30724.21
514.95	31536.38
515.12	31115.08
515.29	31215.72
515.47	31646.38
515.64	31779.79
515.81	31442.76
515.99	31573.83
516.16	31995.12
516.33	31559.78
516.51	31826.60
516.68	31147.85
516.85	31241.47
517.03	31592.55
517.20	31758.73
517.37	32275.99
517.54	32095.77
517.72	31999.80
517.89	32002.14
518.06	32079.38
518.24	31962.36
518.41	32133.21
518.58	32119.17
518.75	32395.35
518.93	32582.60
519.10	32451.53
519.27	32769.84
519.45	32636.43
519.62	33125.60
519.79	32830.69
519.96	32816.65
520.14	33371.36
520.31	33060.07
520.48	33408.81
520.65	32961.76
520.83	33387.74
521.00	33214.54
521.17	33357.32
521.34	33591.37
521.52	33706.05
521.69	33771.59
521.86	33895.64
522.03	33727.12
522.20	33965.85
522.38	33804.36
522.55	34110.97
522.72	34052.45
522.89	34284.17
523.07	34000.96
523.24	34139.05
523.41	34696.10
523.58	33818.40
523.75	34675.04
523.92	34543.97
524.10	34759.30
524.27	34855.26
524.44	34927.81
524.61	35072.93
524.78	35328.05
524.96	35175.91
525.13	35346.77
525.30	35786.79
525.47	35683.81
525.64	35234.42
525.81	35065.91
525.98	35150.17
526.16	35344.43
526.33	35541.03
526.50	35833.60
526.67	35201.66
526.84	35131.44
527.01	35070.59
527.18	35510.61
527.36	35805.52
527.53	35927.22
527.70	36367.24
527.87	36006.80
528.04	35934.24
528.21	35922.54
528.38	35915.52
528.55	36407.03
528.72	36360.22
528.89	36444.48
529.07	35894.46
529.24	36456.18
529.41	36189.36
529.58	36229.15
529.75	36547.47
529.92	37027.28
530.09	36917.27
530.26	36741.73
530.43	36840.03
530.60	36264.26
530.77	36891.52
530.94	36938.33
531.11	36718.32
531.28	36877.48
531.46	37181.75
531.63	36840.03
531.80	37340.91
531.97	37148.98
532.14	37230.90
532.31	36896.20
532.48	37113.87
532.65	37457.93
532.82	37319.84
532.99	37352.61
533.16	36783.86
533.33	37184.09
533.50	38075.84
533.67	37713.05
533.84	37504.74
534.01	37773.91
534.18	37827.74
534.35	38064.13
534.52	37846.46
534.69	38003.28
534.86	38209.25
535.03	37979.87
535.20	38171.80
535.37	38609.48
535.54	38326.27
535.71	38185.84
535.88	38246.69
536.05	38307.55
536.22	38457.34
536.38	38345.00
536.55	38054.77
536.72	38520.54
536.89	38277.12
537.06	38579.05
537.23	38480.75
537.40	38335.63
537.57	38436.28
537.74	38728.84
537.91	39328.02
538.08	38946.51
538.25	38602.46
538.42	38834.17
538.59	39203.97
538.75	39152.48
538.92	38948.85
539.09	39391.22
539.26	39021.41
539.43	39304.62
539.60	39330.36
539.77	39000.35
539.94	39112.69
540.11	39002.69
540.28	39100.99
540.44	39414.62
540.61	39311.64
540.78	39208.65
540.95	39402.92
541.12	38923.11
541.29	39463.77
541.46	39599.52
541.62	40004.44
541.79	39924.86
541.96	39049.50
542.13	39964.65
542.30	39845.28
542.47	40027.84
542.63	39810.17
542.80	39529.31
542.97	40673.83
543.14	40297.00
543.31	40088.70
543.48	40507.65
543.64	40779.15
543.81	40877.46
543.98	40297.00
544.15	40521.69
544.32	40917.25
544.48	40907.88
544.65	40961.72
544.82	40692.55
544.99	40655.11
545.16	40734.68
545.32	40783.83
545.49	40940.65
545.66	40739.36
545.83	40730.00
546.00	41123.21
546.16	41045.97
546.33	40631.70
546.50	40767.45
546.67	40877.46
546.83	40751.07
547.00	41001.50
547.17	41493.02
547.34	41202.79
547.50	41280.03
547.67	41282.37
547.84	41155.98
548.00	41462.59
548.17	41825.37
548.34	41310.46
548.51	41827.71
548.67	41537.49
548.84	41841.76
549.01	41544.51
549.18	41153.64
549.34	41619.41
549.51	41794.95
549.68	41963.46
549.84	41661.54
550.01	41808.99
550.18	41565.57
550.34	41834.74
550.51	41443.87
550.68	41837.08
550.84	41556.21
551.01	42103.90
551.18	41769.20
551.34	41682.60
551.51	41797.29
551.68	42110.92
551.84	42391.78
552.01	41986.87
552.18	42026.66
552.34	42178.79
552.51	42611.79
552.68	42443.27
552.84	42038.36
553.01	42799.04
553.18	42279.44
553.34	42319.23
553.51	42162.41
553.67	42333.27
553.84	42522.85
554.01	42543.92
554.17	42525.19
554.34	42834.14
554.51	42490.09
554.67	43093.94
554.84	42473.70
555.00	42649.24
555.17	42450.30
555.33	42742.86
555.50	42546.26
555.67	43150.12
555.83	42803.72
556.00	42827.12
556.16	43182.88
556.33	42979.26
556.50	42944.15
556.66	43384.17
556.83	42951.17
556.99	43070.54
557.16	43199.27
557.32	43047.13
557.49	43026.07
557.65	42726.48
557.82	42808.40
557.98	42672.65
558.15	43047.13
558.32	43470.77
558.48	43236.72
558.65	43222.67
558.81	43290.55
558.98	43262.46
559.14	43400.55
559.31	43232.04
559.47	42925.42
559.64	43608.86
559.80	43555.03
559.97	43328.00
560.13	43241.40
560.30	43278.85
560.46	43805.47
560.63	43267.14
560.79	43154.80
560.96	43690.78
561.12	43531.62
561.29	43639.29
561.45	43435.66
561.61	43143.09
561.78	43428.64
561.94	43707.16
562.11	43470.77
562.27	43150.12
562.44	43484.81
562.60	43564.39
562.77	43969.30
562.93	43604.18
563.10	43730.57
563.26	43700.14
563.42	43503.54
563.59	43510.56
563.75	43430.98
563.92	43983.35
564.08	43718.87
564.24	43962.28
564.41	43903.77
564.57	44109.74
564.74	44074.63
564.90	43828.87
565.07	44184.63
565.23	43676.74
565.39	43655.67
565.56	44215.06
565.72	43917.81
565.88	43840.57
566.05	43718.87
566.21	43763.34
566.38	43763.34
566.54	43906.11
566.70	43995.05
566.87	44252.51
567.03	44556.78
567.19	44357.83
567.36	44212.72
567.52	44076.97
567.68	44168.25
567.85	43995.05
568.01	43945.90
568.17	43917.81
568.34	44292.30
568.50	43674.40
568.66	43908.45
568.83	44081.65
568.99	44067.61
569.15	44603.59
569.32	43861.64
569.48	44069.95
569.64	44041.86
569.81	44203.36
569.97	44264.21
570.13	44395.28
570.30	44135.48
570.46	44137.82
570.62	43833.55
570.78	43770.36
570.95	43915.47
571.11	44423.37
571.27	44123.78
571.43	44449.11
571.60	44039.52
571.76	44039.52
571.92	44287.62
572.09	44100.37
572.25	44409.32
572.41	43803.13
572.57	44226.76
572.74	44690.19
572.90	44376.56
573.06	44311.02
573.22	44311.02
573.38	44271.23
573.55	44505.29
573.71	44498.26
573.87	44083.99
574.03	44346.13
574.20	44346.13
574.36	44177.61
574.52	44282.94
574.68	44500.61
574.84	44329.75
575.01	44746.36
575.17	44767.43
575.33	44112.08
575.49	44631.68
575.65	44512.31
575.82	44477.20
575.98	44406.98
576.14	44664.44
576.30	44484.22
576.46	44201.02
576.62	44390.60
576.79	43920.15
576.95	44177.61
577.11	44367.20
577.27	44493.58
577.43	44439.75
577.59	44018.46
577.75	44119.10
577.92	44086.33
578.08	44346.13
578.24	44030.16
578.40	44268.89
578.56	44453.79
578.72	44278.25
578.88	44734.66
579.04	44552.10
579.21	44018.46
579.37	44390.60
579.53	44294.64
579.69	44376.56
579.85	44643.38
580.01	44619.97
580.17	44411.67
580.33	44814.24
580.49	44933.60
580.65	45020.20
580.82	44559.12
580.98	44306.34
581.14	44414.01
581.30	44701.89
581.46	44538.05
581.62	44353.15
581.78	44664.44
581.94	45097.44
582.10	44591.89
582.26	44528.69
582.42	44847.00
582.58	44673.81
582.74	44437.41
582.90	44397.62
583.06	44760.40
583.22	44493.58
583.38	44486.56
583.54	44889.13
583.70	44615.29
583.86	44744.02
584.02	44128.46
584.18	45010.84
584.34	44320.38
584.50	45287.03
584.66	44570.82
584.82	44612.95
584.98	45099.78
585.14	44788.49
585.30	44814.24
585.46	44435.07
585.62	44280.60
585.78	44411.67
585.94	43938.88
586.10	44350.81
586.26	44460.82
586.42	44421.03
586.58	44865.73
586.74	44507.63
586.90	44650.40
587.06	44533.37
587.22	44566.14
587.38	44350.81
587.54	45008.50
587.70	45055.31
587.86	44612.95
588.02	44917.22
588.18	44779.13
588.34	44151.87
588.49	44774.45
588.65	44264.21
588.81	44610.61
588.97	44201.02
589.13	44671.46
589.29	44804.88
589.45	44804.88
589.61	44957.01
589.77	44842.32
589.93	44542.74
590.08	44907.86
590.24	44891.48
590.40	44973.39
590.56	44870.41
590.72	44636.36
590.88	45024.89
591.04	44673.81
591.20	45296.39
591.35	45085.74
591.51	45612.36
591.67	45095.10
591.83	44971.05
591.99	44694.87
592.15	44809.56
592.31	44547.42
592.46	44788.49
592.62	44634.02
592.78	44823.60
592.94	45165.32
593.10	44919.56
593.26	45324.47
593.41	44720.62
593.57	45029.57
593.73	45294.05
593.89	45172.34
594.05	44708.91
594.20	45001.48
594.36	45083.40
594.52	44823.60
594.68	45280.00
594.84	44919.56
594.99	45291.71
595.15	45139.57
595.31	45268.30
595.47	45265.96
595.62	45249.58
595.78	44486.56
595.94	44987.44
596.10	45050.63
596.25	45160.64
596.41	44999.14
596.57	45001.48
596.73	45174.68
596.88	44554.44
597.04	44720.62
597.20	45160.64
597.36	45198.09
597.51	45331.50
597.67	45134.89
597.83	45078.72
597.99	44893.82
598.14	44835.30
598.30	44921.90
598.46	44886.79
598.61	44912.54
598.77	44608.27
598.93	45099.78
599.09	45064.67
599.24	45698.96
599.40	45509.38
599.56	45408.73
599.71	45226.17
599.87	45258.94
600.03	45504.70
600.18	45188.72
600.34	45162.98
600.50	44811.90
600.65	44734.66
600.81	45401.71
600.97	45539.80
601.12	45537.46
601.28	45420.44
601.44	45151.27
601.59	45312.77
601.75	45092.76
601.91	44931.26
602.06	45083.40
602.22	45127.87
602.37	44905.52
602.53	44839.98
602.69	45619.38
602.84	44933.60
603.00	45251.92
603.16	45263.62
603.31	44753.38
603.47	44842.32
603.62	45144.25
603.78	45340.86
603.94	45120.85
604.09	45305.75
604.25	45221.49
604.40	44945.31
604.56	44807.22
604.71	45010.84
604.87	44772.11
605.03	45067.02
605.18	44877.43
605.34	45125.53
605.49	44596.57
605.65	45181.70
605.80	44631.68
605.96	45228.51
606.12	44973.39
606.27	45326.81
606.43	44758.06
606.58	44802.53
606.74	44697.21
606.89	44772.11
607.05	44718.28
607.20	45104.46
607.36	44776.79
607.51	44966.37
607.67	44996.80
607.82	44884.45
607.98	44814.24
608.13	44870.41
608.29	44741.68
608.44	44500.61
608.60	44505.29
608.75	44540.39
608.91	44587.21
609.06	44428.05
609.22	44648.06
609.37	44285.28
609.53	44666.78
609.68	44500.61
609.84	44889.13
609.99	44624.65
610.15	44315.70
610.30	44662.10
610.46	44318.04
610.61	44397.62
610.76	44376.56
610.92	44566.14
611.07	44322.72
611.23	44091.01
611.38	44685.51
611.54	44002.07
611.69	44165.91
611.84	44299.32
612.00	44219.74
612.15	43978.67
612.31	44987.44
612.46	43992.71
612.62	44367.20
612.77	44289.96
612.92	44453.79
613.08	44236.12
613.23	44479.54
613.39	43910.79
613.54	44217.40
613.69	44163.57
613.85	44704.23
614.00	44432.73
614.15	44311.02
614.31	44325.07
614.46	44488.90
614.62	44186.97
614.77	43746.95
614.92	43917.81
615.08	44147.18
615.23	44119.10
615.38	44055.90
615.54	43793.76
615.69	43700.14
615.84	43351.40
616.00	44238.47
616.15	43475.45
616.30	44222.08
616.46	44102.71
616.61	43552.69
616.76	44259.53
616.92	43756.32
617.07	43847.60
617.22	43819.51
617.37	43688.44
617.53	43676.74
617.68	43789.08
617.83	43629.93
617.99	44016.11
618.14	43672.06
618.29	43548.01
618.45	43030.75
618.60	43068.20
618.75	43285.87
618.90	43377.15
619.06	43859.30
619.21	43966.96
619.36	43611.20
619.51	43587.80
619.67	43503.54
619.82	43491.83
619.97	43704.82
620.12	42953.51
620.28	43461.41
620.43	43150.12
620.58	43845.26
620.73	42698.39
620.89	43332.68
621.04	43234.38
621.19	42981.60
621.34	43150.12
621.49	43145.44
621.65	42909.04
621.80	43126.71
621.95	42909.04
622.10	42927.77
622.25	42576.69
622.41	42864.57
622.56	42562.64
622.71	42773.29
622.86	43009.68
623.01	43115.01
623.16	43098.62
623.32	42677.33
623.47	43234.38
623.62	42883.30
623.77	42574.34
623.92	42817.76
624.07	42581.37
624.23	42637.54
624.38	42436.25
624.53	42253.69
624.68	42635.20
624.83	42469.02
624.98	42576.69
625.13	42597.75
625.29	42307.52
625.44	42323.91
625.59	42288.80
625.74	42169.43
625.89	42319.23
626.04	41947.08
626.19	42433.91
626.34	42366.04
626.49	42382.42
626.65	42171.77
626.80	42567.32
626.95	42160.07
627.10	42380.08
627.25	41731.75
627.40	42068.79
627.55	42017.30
627.70	41483.66
627.85	42232.63
628.00	41993.89
628.15	41834.74
628.30	41729.41
628.45	42295.82
628.60	42150.71
628.76	42218.58
628.91	41745.80
629.06	41928.36
629.21	41780.90
629.36	41277.69
629.51	41408.76
629.66	41352.58
629.81	41406.42
629.96	41975.17
630.11	41717.71
630.26	41406.42
630.41	41677.92
630.56	41783.24
630.71	41287.05
630.86	41160.66
631.01	41570.25
631.16	41748.14
631.31	41329.18
631.46	41134.92
631.61	41427.48
631.76	41361.95
631.91	41656.85
632.06	41528.13
632.21	41193.43
632.36	41886.23
632.51	41053.00
632.66	41055.34
632.81	40711.28
632.96	41258.96
633.10	40800.22
633.25	40297.00
633.40	40889.16
633.55	41228.54
633.70	41219.17
633.85	40870.43
634.00	41024.91
634.15	40879.80
634.30	40573.19
634.45	41179.39
634.60	40781.49
634.75	41043.63
634.90	40608.29
635.05	40739.36
635.19	41132.57
635.34	41214.49
635.49	40800.22
635.64	40416.37
635.79	40399.99
635.94	40236.15
636.09	40849.37
636.24	40694.89
636.39	40332.11
636.53	40137.85
636.68	40360.20
636.83	39922.52
636.98	40708.94
637.13	40421.05
637.28	40128.48
637.43	40542.76
637.57	40346.15
637.72	40418.71
637.87	40697.24
638.02	40051.25
638.17	40353.18
638.32	40142.53
638.46	39889.75
638.61	39957.63
638.76	39875.71
638.91	39997.41
639.06	39955.29
639.20	39887.41
639.35	40346.15
639.50	39873.37
639.65	40201.04
639.80	40182.32
639.94	40055.93
640.09	39555.05
640.24	39625.27
640.39	39749.32
640.54	39915.50
640.68	39929.54
640.83	40069.97
640.98	39569.10
641.13	39447.39
641.27	39943.58
641.42	39672.08
641.57	39517.60
641.72	39709.53
641.86	39601.86
642.01	39218.02
642.16	39468.45
642.31	38920.77
642.45	39337.38
642.60	39189.93
642.75	39365.47
642.90	39175.89
643.04	39079.92
643.19	39423.98
643.34	39555.05
643.48	39328.02
643.63	39309.30
643.78	38902.04
643.93	39578.46
644.07	38553.30
644.22	39070.56
644.37	39058.86
644.51	39019.07
644.66	38983.96
644.81	39260.15
644.95	39349.09
645.10	39496.54
645.25	39344.41
645.39	39152.48
645.54	39040.14
645.69	38569.69
645.83	38677.35
645.98	38871.62
646.13	38637.56
646.27	38986.30
646.42	38909.07
646.57	38873.96
646.71	38532.24
646.86	38515.86
647.00	38792.04
647.15	38761.61
647.30	38728.84
647.44	38878.64
647.59	38691.40
647.74	38485.43
647.88	38789.70
648.03	38705.44
648.17	38408.19
648.32	38424.57
648.47	38171.80
648.61	38579.05
648.76	38455.00
648.90	38447.98
649.05	38787.36
649.20	38684.37
649.34	38562.67
649.49	38223.29
649.63	38473.73
649.78	38330.95
649.92	38459.68
650.07	38604.80
650.21	37893.27
650.36	38485.43
650.51	38263.08
650.65	38717.14
650.80	38600.12
650.94	38658.63
651.09	38263.08
651.23	38007.96
651.38	37958.81
651.52	38565.01
651.67	37914.34
651.81	38115.62
651.96	37771.57
652.10	38096.90
652.25	37558.58
652.39	38082.86
652.54	38082.86
652.68	37762.20
652.83	38272.44
652.97	38036.05
653.12	37834.76
653.26	37968.17
653.41	38148.39
653.55	37584.32
653.70	37776.25
653.84	37495.38
653.99	37584.32
654.13	37722.41
654.27	37331.54
654.42	37596.03
654.56	37993.92
654.71	37806.67
654.85	37748.16
655.00	37146.64
655.14	37226.22
655.29	37034.30
655.43	37366.65
655.57	36678.54
655.72	36966.42
655.86	36678.54
656.01	37160.69
656.15	36861.10
656.30	37106.85
656.44	37163.03
656.58	36875.14
656.73	36556.83
656.87	36692.58
657.01	36823.65
657.16	37291.76
657.30	36676.19
657.45	36587.25
657.59	36868.12
657.73	36814.29
657.88	36802.58
658.02	36573.21
658.16	36706.62
658.31	36753.43
658.45	36989.83
658.60	36655.13
658.74	36723.01
658.88	36989.83
659.03	36591.94
659.17	36437.46
659.31	36723.01
659.46	35894.46
659.60	36327.45
659.74	36133.19
659.89	36381.29
660.03	36165.96
660.17	36135.53
660.32	36245.54
660.46	36442.14
660.60	36446.82
660.74	36287.67
660.89	36346.18
661.03	35967.01
661.17	36013.82
661.32	35388.90
661.46	35732.96
661.60	35477.84
661.74	35747.00
661.89	36004.46
662.03	35765.73
662.17	35470.82
662.31	35079.95
662.46	35318.68
662.60	35510.61
662.74	35194.64
662.88	35384.22
663.03	35229.74
663.17	35435.71
663.31	35037.82
663.45	35309.32
663.60	34787.38
663.74	34918.45
663.88	35314.00
664.02	35002.71
664.17	34991.01
664.31	34396.51
664.45	34646.95
664.59	35105.70
664.73	35182.93
664.88	34696.10
665.02	34623.54
665.16	34597.80
665.30	34682.06
665.44	34450.35
665.59	33986.92
665.73	34679.72
665.87	34436.30
666.01	34113.31
666.15	34012.66
666.29	34440.98
666.44	34206.93
666.58	34101.61
666.72	34141.39
666.86	34174.16
667.00	34153.10
667.14	33912.02
667.28	33949.47
667.43	33610.09
667.57	33706.05
667.71	33443.91
667.85	33584.35
667.99	33816.06
668.13	33359.66
668.27	33401.79
668.41	33273.06
668.56	33586.69
668.70	33617.11
668.84	32811.97
668.98	33387.74
669.12	33223.90
669.26	33472.00
669.40	32982.83
669.54	32526.42
669.68	33118.58
669.82	32720.69
669.96	32563.87
670.10	33027.30
670.25	33036.66
670.39	33251.99
670.53	32638.77
670.67	32697.28
670.81	32837.72
670.95	32966.45
671.09	32648.13
671.23	32650.47
671.37	32606.00
671.51	32474.93
671.65	32208.11
671.79	31917.89
671.93	32039.59
672.07	32095.77
672.21	32165.98
672.35	31948.31
672.49	31637.02
672.63	32154.28
672.77	31637.02
672.91	31573.83
673.05	31363.18
673.19	31592.55
673.33	31454.46
673.47	31295.30
673.61	31704.90
673.75	30838.90
673.89	30745.28
674.03	30714.85
674.17	30501.86
674.31	30937.20
674.45	30773.36
674.59	30998.06
674.73	30829.54
674.87	31021.46
675.01	30822.51
675.15	30803.79
675.29	30726.55
675.43	30256.11
675.56	30771.02
675.70	30071.20
675.84	30295.89
675.98	29394.79
676.12	30118.01
676.26	30017.37
676.40	29429.90
676.54	29670.97
676.68	29839.49
676.82	29289.46
676.96	29546.92
677.10	29465.00
677.23	29715.44
677.37	29692.04
677.51	29500.11
677.65	29060.09
677.79	28620.07
677.93	28823.70
678.07	28790.93
678.21	28767.52
678.34	28776.89
678.48	28699.65
678.62	28065.36
678.76	28166.01
678.90	28371.97
679.04	28414.10
679.18	28458.57
679.31	27711.94
679.45	27756.41
679.59	27459.16
679.73	27962.38
679.87	27747.05
680.00	27917.91
680.14	27552.79
680.28	27393.63
680.42	27494.27
680.56	27735.35
680.70	27648.75
680.83	27393.63
680.97	26602.53
681.11	26815.52
681.25	26836.58
681.39	26820.20
681.52	26787.43
681.66	26787.43
681.80	26984.04
681.94	26225.70
682.07	26377.84
682.21	26216.34
682.35	26111.02
682.49	26263.15
682.62	26073.57
682.76	26118.04
682.90	25734.19
683.04	25858.24
683.17	25834.83
683.31	25692.06
683.45	25816.11
683.59	25621.84
683.72	25689.72
683.86	25380.77
684.00	25200.55
684.13	25212.25
684.27	25472.05
684.41	25120.97
684.55	24842.45
684.68	24776.91
684.82	24645.84
684.96	24744.14
685.09	24634.14
685.23	24505.41
685.37	24678.61
685.50	24676.27
685.64	24416.47
685.78	24304.12
685.91	24467.96
686.05	23985.81
686.19	23831.33
686.32	24034.96
686.46	23447.49
686.60	23473.23
686.73	23452.17
686.87	23452.17
687.01	23260.24
687.14	23307.05
687.28	23087.04
687.42	22583.83
687.55	23023.85
687.69	22717.24
687.82	22593.19
687.96	22773.41
688.10	23030.87
688.23	22546.38
688.37	22726.60
688.50	22412.97
688.64	22162.53
688.78	22265.52
688.91	22317.01
689.05	22148.49
689.18	21984.65
689.32	21874.65
689.46	22071.25
689.59	22295.94
689.73	21912.10
689.86	21668.68
690.00	21762.30
690.13	21750.60
690.27	21254.40
690.41	21413.56
690.54	21296.53
690.68	21242.70
690.81	20826.09
690.95	20903.32
691.08	21006.31
691.22	20730.12
691.35	20680.97
691.49	20912.69
691.62	20692.68
691.76	20638.84
691.89	20807.36
692.03	20683.31
692.16	20175.42
692.30	20580.33
692.43	20360.32
692.57	20020.94
692.70	20119.24
692.84	20355.64
692.97	19915.62
693.11	19702.63
693.24	19859.45
693.38	19824.34
693.51	19803.27
693.65	19358.57
693.78	19398.36
693.92	19433.47
694.05	19407.72
694.19	19108.13
694.32	19040.26
694.45	19246.23
694.59	19061.32
694.72	18988.77
694.86	18831.95
694.99	18523.00
695.13	18537.04
695.26	18565.13
695.39	18242.14
695.53	18328.74
695.66	18242.14
695.80	18389.59
695.93	18310.01
696.07	18188.30
696.20	18122.77
696.33	17848.93
696.47	17968.29
696.60	18082.98
696.73	17825.52
696.87	17750.62
697.00	17685.09
697.14	17640.62
697.27	17511.89
697.40	17343.37
697.54	17308.26
697.67	17212.30
697.80	17050.80
697.94	17149.11
698.07	16861.22
698.21	16919.73
698.34	16947.82
698.47	17170.17
698.61	16353.32
698.74	16521.84
698.87	16615.46
699.01	16477.37
699.14	16102.89
699.27	16332.26
699.40	16423.54
699.54	15988.20
699.67	15733.08
699.80	15878.19
699.94	16070.12
700.07	15915.64
700.20	16049.05
700.34	15826.70
700.47	15740.10
700.60	15831.38
700.73	16013.95
700.87	15473.28
701.00	15562.22
701.13	15667.55
701.26	15536.48
701.40	15676.91
701.53	14984.11
701.66	15129.22
701.79	15021.56
701.93	15009.86
702.06	14782.82
702.19	14981.77
702.32	15253.27
702.46	14726.65
702.59	14757.08
702.72	14885.81
702.85	14714.95
702.99	14759.42
703.12	14956.02
703.25	14682.18
703.38	14525.36
703.51	14391.95
703.65	14164.92
703.78	14174.28
703.91	13989.38
704.04	14263.22
704.17	14024.49
704.31	13729.58
704.44	13703.84
704.57	13640.64
704.70	13549.36
704.83	13547.02
704.96	13734.26
705.10	13619.58
705.23	13752.99
>>>>>End Processed Spectral Data<<<<<
