SpectraSuite Data File
++++++++++++++++++++++++++++++++++++
Date: Fri Oct 25 10:44:12 EDT 2013
User: price-jones
Dark Spectrum Present: No
Reference Spectrum Present: No
Number of Sampled Component Spectra: 1
Spectrometers: USB2+H05261
Integration Time (usec): 100000 (USB2+H05261)
Spectra Averaged: 1 (USB2+H05261)
Boxcar Smoothing: 0 (USB2+H05261)
Correct for Electrical Dark: No (USB2+H05261)
Strobe/Lamp Enabled: No (USB2+H05261)
Correct for Detector Non-linearity: No (USB2+H05261)
Correct for Stray Light: No (USB2+H05261)
Number of Pixels in Processed Spectrum: 2048
>>>>>Begin Processed Spectral Data<<<<<
365.73	173.20
365.92	173.20
366.12	173.20
366.32	39.79
366.52	0.00
366.72	95.96
366.91	46.81
367.11	35.11
367.31	0.00
367.51	0.00
367.70	0.00
367.90	11.70
368.10	84.26
368.30	21.06
368.49	53.83
368.69	0.00
368.89	42.13
369.09	18.72
369.28	7.02
369.48	60.85
369.68	102.98
369.87	107.66
370.07	119.37
370.27	128.73
370.47	159.16
370.66	379.17
370.86	409.59
371.06	517.26
371.25	498.53
371.45	440.02
371.65	503.22
371.84	528.96
372.04	533.64
372.24	409.59
372.44	477.47
372.63	517.26
372.83	449.38
373.03	456.40
373.22	484.49
373.42	554.71
373.62	437.68
373.81	507.90
374.01	599.18
374.21	585.13
374.40	603.86
374.60	617.90
374.79	617.90
374.99	589.82
375.19	657.69
375.38	664.71
375.58	610.88
375.78	648.33
375.97	615.56
376.17	610.88
376.37	592.16
376.56	620.24
376.76	643.65
376.95	594.50
377.15	657.69
377.35	650.67
377.54	622.58
377.74	603.86
377.93	610.88
378.13	573.43
378.33	674.07
378.52	739.61
378.72	725.57
378.91	739.61
379.11	732.59
379.31	592.16
379.50	613.22
379.70	734.93
379.89	734.93
380.09	692.80
380.28	667.05
380.48	676.41
380.68	655.35
380.87	648.33
381.07	692.80
381.26	706.84
381.46	725.57
381.65	692.80
381.85	739.61
382.04	685.78
382.24	720.88
382.43	667.05
382.63	685.78
382.83	727.91
383.02	737.27
383.22	805.14
383.41	791.10
383.61	653.01
383.80	844.93
384.00	784.08
384.19	802.80
384.39	748.97
384.58	880.04
384.78	823.87
384.97	814.51
385.17	821.53
385.36	884.72
385.56	814.51
385.75	760.67
385.95	751.31
386.14	798.12
386.34	725.57
386.53	882.38
386.72	854.30
386.92	976.00
387.11	816.85
387.31	922.17
387.50	898.77
387.70	882.38
387.89	854.30
388.09	891.74
388.28	957.28
388.48	880.04
388.67	915.15
388.86	929.19
389.06	844.93
389.25	1013.45
389.45	924.51
389.64	947.92
389.84	990.05
390.03	1086.01
390.22	1001.75
390.42	1020.47
390.61	917.49
390.81	1048.56
391.00	985.37
391.19	1116.44
391.39	1048.56
391.58	1107.07
391.78	1053.24
391.97	1043.88
392.16	940.90
392.36	1086.01
392.55	1013.45
392.75	1020.47
392.94	997.07
393.13	973.66
393.33	1013.45
393.52	1050.90
393.71	1139.84
393.91	1132.82
394.10	1137.50
394.29	1128.14
394.49	1104.73
394.68	1184.31
394.88	1205.38
395.07	1284.95
395.26	1156.22
395.46	1160.91
395.65	1254.53
395.84	1252.19
396.04	1270.91
396.23	1200.69
396.42	1118.78
396.62	1210.06
396.81	1231.12
397.00	1170.27
397.19	1153.88
397.39	1273.25
397.58	1406.66
397.77	1359.85
397.97	1392.62
398.16	1401.98
398.35	1514.33
398.55	1476.88
398.74	1519.01
398.93	1530.71
399.12	1542.41
399.32	1411.34
399.51	1469.86
399.70	1530.71
399.90	1589.22
400.09	1591.56
400.28	1607.95
400.47	1561.14
400.67	1612.63
400.86	1666.46
401.05	1654.76
401.24	1685.19
401.44	1640.72
401.63	1743.70
401.82	1685.19
402.01	1720.29
402.21	1652.42
402.40	1687.53
402.59	1774.13
402.78	1764.76
402.97	1664.12
403.17	1767.10
403.36	1830.30
403.55	1842.00
403.74	1902.86
403.93	1811.57
404.13	1837.32
404.32	1844.34
404.51	1844.34
404.70	1961.37
404.89	1860.73
405.09	1867.75
405.28	1909.88
405.47	1846.68
405.66	1987.11
405.85	2045.63
406.05	1975.41
406.24	1961.37
406.43	2118.18
406.62	2001.16
406.81	2172.02
407.00	2066.69
407.20	2071.37
407.39	2015.20
407.58	2146.27
407.77	2176.70
407.96	2272.66
408.15	2228.19
408.34	2237.55
408.54	2230.53
408.73	2225.85
408.92	2279.68
409.11	2345.22
409.30	2312.45
409.49	2317.13
409.68	2221.17
409.87	2209.47
410.07	2305.43
410.26	2368.62
410.45	2394.37
410.64	2408.41
410.83	2509.05
411.02	2452.88
411.21	2572.25
411.40	2511.39
411.59	2555.86
411.78	2431.82
411.98	2513.74
412.17	2616.72
412.36	2597.99
412.55	2696.30
412.74	2834.39
412.93	2771.19
413.12	2649.49
413.31	2754.81
413.50	2871.84
413.69	2913.97
413.88	2862.48
414.07	2736.09
414.26	2939.71
414.45	2925.67
414.64	2895.24
414.83	2986.52
415.02	2967.80
415.22	3063.76
415.41	3108.23
415.60	3143.34
415.79	3126.96
415.98	3253.34
416.17	3251.00
416.36	3133.98
416.55	3150.36
416.74	3281.43
416.93	3342.28
417.12	3276.75
417.31	3241.64
417.50	3318.88
417.69	3370.37
417.88	3438.25
418.07	3372.71
418.26	3431.23
418.45	3442.93
418.64	3574.00
418.83	3550.59
419.02	3585.70
419.21	3435.91
419.39	3576.34
419.58	3494.42
419.77	3522.51
419.96	3733.15
420.15	3665.28
420.34	3644.21
420.53	3810.39
420.72	3843.16
420.91	3719.11
421.10	3857.20
421.29	3882.95
421.48	3684.00
421.67	3887.63
421.86	3740.18
422.05	3758.90
422.24	3850.18
422.43	3735.50
422.61	3772.94
422.80	3943.80
422.99	3899.33
423.18	3906.35
423.37	3896.99
423.56	3915.72
423.75	3875.93
423.94	3892.31
424.13	3716.77
424.32	3784.65
424.50	3878.27
424.69	4009.34
424.88	4011.68
425.07	3880.61
425.26	3779.97
425.45	3887.63
425.64	3796.35
425.83	3978.91
426.01	4086.58
426.20	4030.40
426.39	4014.02
426.58	3967.21
426.77	3971.89
426.96	3899.33
427.15	3988.27
427.33	4175.52
427.52	4007.00
427.71	4180.20
427.90	4203.60
428.09	4355.74
428.28	4290.20
428.46	4109.98
428.65	4163.81
428.84	4278.50
429.03	4255.09
429.22	4184.88
429.40	4039.76
429.59	4011.68
429.78	3969.55
429.97	3946.14
430.16	3896.99
430.34	4098.28
430.53	4156.79
430.72	4219.99
430.91	4114.66
431.10	4187.22
431.28	4594.47
431.47	4524.26
431.66	4573.41
431.85	4470.42
432.03	4437.66
432.22	4758.31
432.41	4514.89
432.60	4720.86
432.79	4690.43
432.97	4662.35
433.16	4748.95
433.35	4636.60
433.54	4594.47
433.72	4662.35
433.91	4786.40
434.10	4718.52
434.28	4702.14
434.47	4737.24
434.66	5008.75
434.85	4816.82
435.03	4943.21
435.22	4987.68
435.41	5137.48
435.59	4957.25
435.78	4950.23
435.97	5039.17
436.16	4910.44
436.34	5252.16
436.53	5121.09
436.72	5228.76
436.90	5177.26
437.09	5205.35
437.28	4971.30
437.46	5074.28
437.65	5256.84
437.84	5156.20
438.02	4999.38
438.21	5135.14
438.40	5100.03
438.58	5376.21
438.77	5413.66
438.96	5338.76
439.14	5490.90
439.33	5526.00
439.52	5699.20
439.70	5563.45
439.89	5753.04
440.08	5753.04
440.26	5671.12
440.45	5628.99
440.63	5839.64
440.82	5886.45
441.01	5909.85
441.19	5856.02
441.38	5966.03
441.57	6127.52
441.75	6019.86
441.94	6190.72
442.12	6186.04
442.31	6162.63
442.50	6389.66
442.68	6223.48
442.87	6473.92
443.05	6384.98
443.24	6616.69
443.43	6359.24
443.61	6499.67
443.80	6567.54
443.98	6483.28
444.17	6136.88
444.35	6560.52
444.54	6637.76
444.73	6516.05
444.91	6373.28
445.10	6513.71
445.28	6441.15
445.47	6265.61
445.65	6525.41
445.84	6480.94
446.02	6487.96
446.21	6516.05
446.39	6403.71
446.58	6518.39
446.77	6445.84
446.95	6415.41
447.14	6703.29
447.32	6752.45
447.51	6499.67
447.69	6600.31
447.88	6595.63
448.06	6759.47
448.25	6668.19
448.43	6665.85
448.62	6761.81
448.80	6747.76
448.99	6703.29
449.17	6700.95
449.36	6848.41
449.54	6876.49
449.73	7012.24
449.91	7194.81
450.10	7112.89
450.28	7232.26
450.46	7288.43
450.65	7211.19
450.83	7176.08
451.02	7145.66
451.20	7140.97
451.39	7269.70
451.57	7045.01
451.76	7140.97
451.94	7302.47
452.13	7190.13
452.31	7227.57
452.49	7159.70
452.68	7293.11
452.86	7169.06
453.05	7346.94
453.23	7248.64
453.42	7138.63
453.60	7269.70
453.78	7449.93
453.97	7393.75
454.15	7330.56
454.34	7510.78
454.52	7431.20
454.70	7538.87
454.89	7391.41
455.07	7726.11
455.26	7688.66
455.44	7552.91
455.62	7850.16
455.81	7536.52
455.99	7581.00
456.17	7705.04
456.36	7819.73
456.54	7791.64
456.73	7962.50
456.91	8077.19
457.09	8013.99
457.28	8360.39
457.46	7948.46
457.64	8093.57
457.83	7906.33
458.01	7920.37
458.19	8119.32
458.38	8107.62
458.56	8208.26
458.74	8187.19
458.93	8102.93
459.11	8397.84
459.29	8116.98
459.48	8297.20
459.66	8259.75
459.84	8372.10
460.03	8336.99
460.21	8341.67
460.39	8318.26
460.57	8519.55
460.76	8435.29
460.94	8662.32
461.12	8542.96
461.31	8442.31
461.49	8547.64
461.67	8671.68
461.85	8652.96
462.04	8858.93
462.22	8987.66
462.40	8919.78
462.59	8957.23
462.77	8887.01
462.95	8891.70
463.13	8748.92
463.32	8971.27
463.50	8868.29
463.68	8945.53
463.86	8959.57
464.05	8730.20
464.23	8968.93
464.41	9064.89
464.59	8849.57
464.78	9013.40
464.96	9001.70
465.14	8872.97
465.32	9132.77
465.50	9181.92
465.69	9191.28
465.87	9167.88
466.05	9128.09
466.23	9289.59
466.41	9114.05
466.60	9240.44
466.78	9210.01
466.96	9125.75
467.14	9268.52
467.32	9291.93
467.51	9493.21
467.69	9050.85
467.87	9270.86
468.05	9397.25
468.23	9493.21
468.41	9357.46
468.60	9511.94
468.78	9621.94
468.96	9465.13
469.14	9760.03
469.32	9891.10
469.50	9397.25
469.69	9673.43
469.87	9764.72
470.05	9598.54
470.23	9776.42
470.41	9848.97
470.59	9673.43
470.77	9722.59
470.95	9734.29
471.14	10022.17
471.32	9958.98
471.50	10391.98
471.68	10242.18
471.86	10314.74
472.04	10368.57
472.22	10698.59
472.40	10094.73
472.58	10462.19
472.77	10569.86
472.95	10384.96
473.13	10780.51
473.31	10391.98
473.49	10581.56
473.67	10513.69
473.85	10824.98
474.03	10829.66
474.21	10820.30
474.39	10864.77
474.57	11082.44
474.75	11044.99
474.93	11124.57
475.12	11136.27
475.30	11169.04
475.48	11115.20
475.66	11089.46
475.84	11276.70
476.02	11442.88
476.20	11442.88
476.38	11482.67
476.56	11819.71
476.74	11819.71
476.92	11969.50
477.10	11784.60
477.28	12182.49
477.46	11843.11
477.64	12215.26
477.82	12348.67
478.00	12652.94
478.18	12409.52
478.36	12414.20
478.54	12559.31
478.72	12538.25
478.90	12713.79
479.08	12805.07
479.26	12922.10
479.44	13109.34
479.62	13170.19
479.80	13048.49
479.98	13327.01
480.16	13685.11
480.34	13429.99
480.52	13635.96
480.70	13689.79
480.88	13380.84
481.06	13722.56
481.24	13853.63
481.41	14239.82
481.59	14471.53
481.77	14211.73
481.95	14595.58
482.13	14473.87
482.31	14485.58
482.49	14820.27
482.67	14892.83
482.85	14864.74
483.03	14974.75
483.21	15178.37
483.39	15253.27
483.57	15288.38
483.74	15459.24
483.92	15396.04
484.10	15342.21
484.28	15557.54
484.46	16159.06
484.64	15967.13
484.82	16203.53
485.00	16070.12
485.18	16395.45
485.35	16517.16
485.53	16252.68
485.71	16093.52
485.89	16212.89
486.07	16400.13
486.25	16580.36
486.43	16751.21
486.61	16931.44
486.78	17245.07
486.96	17394.86
487.14	17474.44
487.32	17528.27
487.50	17928.50
487.68	17792.75
487.85	18527.68
488.03	18504.28
488.21	18810.89
488.39	18359.16
488.57	18611.94
488.75	19040.26
488.92	18937.27
489.10	18934.93
489.28	19288.35
489.46	19461.55
489.64	19503.68
489.81	20058.39
489.99	19983.49
490.17	20425.86
490.35	20222.23
490.53	19859.45
490.70	20189.46
490.88	20121.59
491.06	20924.39
491.24	20783.96
491.41	20704.38
491.59	20772.25
491.77	20723.10
491.95	20807.36
492.13	21195.89
492.30	21678.04
492.48	21472.07
492.66	21572.72
492.84	21872.31
493.01	21818.47
493.19	21888.69
493.37	21853.58
493.54	22359.14
493.72	22239.77
493.90	22394.25
494.08	22696.17
494.25	22986.40
494.43	22796.82
494.61	23377.27
494.79	23377.27
494.96	23459.19
495.14	23164.28
495.32	23761.12
495.49	23658.14
495.67	23833.68
495.85	23756.44
496.02	24411.79
496.20	24395.40
496.38	24067.73
496.55	24788.61
496.73	24943.09
496.91	24575.62
497.09	24844.79
497.26	25092.88
497.44	24959.47
497.62	25032.03
497.79	25287.15
497.97	25076.50
498.14	25401.83
498.32	25500.14
498.50	25579.71
498.67	25448.64
498.85	25895.69
499.03	25940.16
499.20	26382.52
499.38	26309.96
499.56	26611.89
499.73	26419.97
499.91	26436.35
500.08	26515.93
500.26	26178.89
500.44	26405.92
500.61	26801.47
500.79	26529.97
500.97	26614.23
501.14	26977.01
501.32	26988.72
501.49	27182.98
501.67	27190.00
501.84	27463.85
502.02	27517.68
502.20	27278.94
502.37	28065.36
502.55	27885.14
502.72	27969.40
502.90	28053.66
503.07	27758.75
503.25	28189.41
503.43	28032.60
503.60	28273.67
503.78	27878.12
503.95	28098.13
504.13	28460.91
504.30	28180.05
504.48	28542.83
504.65	28694.97
504.83	29088.18
505.01	29439.26
505.18	29099.88
505.36	29490.75
505.53	29195.84
505.71	29443.94
505.88	29762.25
506.06	29521.18
506.23	29537.56
506.41	29153.71
506.58	29930.77
506.76	29724.80
506.93	30188.23
507.11	29951.84
507.28	30003.33
507.46	29902.68
507.63	29869.92
507.81	30188.23
507.98	30118.01
508.16	30539.31
508.33	30654.00
508.50	30925.50
508.68	31101.04
508.85	31047.21
509.03	30579.10
509.20	31103.38
509.38	31077.63
509.55	31079.97
509.73	30920.82
509.90	31463.82
510.08	31187.64
510.25	31253.17
510.42	31302.32
510.60	31871.07
510.77	31604.25
510.95	31824.26
511.12	32077.04
511.30	32114.49
511.47	32245.56
511.64	32641.11
511.82	32535.79
511.99	32088.74
512.17	31952.99
512.34	32121.51
512.51	32694.94
512.69	32706.65
512.86	32484.30
513.04	33113.90
513.21	32720.69
513.38	32786.22
513.56	32830.69
513.73	32510.04
513.90	32704.31
514.08	32992.19
514.25	32980.49
514.43	33022.62
514.60	33560.94
514.77	33464.98
514.95	33720.10
515.12	33387.74
515.29	33537.54
515.47	33989.26
515.64	33628.82
515.81	33661.58
515.99	33865.21
516.16	33762.23
516.33	33266.03
516.51	33682.65
516.68	33476.68
516.85	33268.37
517.03	33645.20
517.20	33970.54
517.37	34206.93
517.54	34632.91
517.72	34405.88
517.89	34022.03
518.06	33947.13
518.24	34230.33
518.41	33958.83
518.58	34230.33
518.75	34536.94
518.93	34843.56
519.10	34396.51
519.27	34995.69
519.45	35292.94
519.62	35079.95
519.79	34726.53
519.96	35405.28
520.14	35662.74
520.31	35133.78
520.48	34920.79
520.65	35608.91
520.83	35688.49
521.00	35868.71
521.17	35889.77
521.34	36142.55
521.52	35864.03
521.69	36334.48
521.86	36140.21
522.03	36154.26
522.20	36208.09
522.38	36336.82
522.55	36465.55
522.72	36034.89
522.89	36781.52
523.07	36596.62
523.24	36236.17
523.41	37081.11
523.58	36828.33
523.75	37392.40
523.92	37111.53
524.10	37462.61
524.27	37081.11
524.44	37132.60
524.61	37479.00
524.78	37455.59
524.96	37848.80
525.13	37092.81
525.30	37710.71
525.47	37811.35
525.64	37823.06
525.81	37556.24
525.98	37539.85
526.16	37504.74
526.33	36947.70
526.50	37574.96
526.67	37195.79
526.84	37345.59
527.01	37411.12
527.18	37689.65
527.36	38234.99
527.53	38237.33
527.70	38192.86
527.87	38396.49
528.04	38459.68
528.21	38459.68
528.38	38438.62
528.55	38494.79
528.72	38667.99
528.89	39019.07
529.07	38792.04
529.24	38583.73
529.41	38927.79
529.58	38476.07
529.75	38770.97
529.92	38946.51
530.09	38501.81
530.26	39084.61
530.43	39316.32
530.60	39089.29
530.77	39086.95
530.94	39409.94
531.11	39096.31
531.28	39332.70
531.46	39533.99
531.63	39681.44
531.80	39330.36
531.97	39262.49
532.14	39566.76
532.31	38904.38
532.48	39529.31
532.65	39737.62
532.82	39381.85
532.99	39601.86
533.16	39765.70
533.33	40018.48
533.50	39938.90
533.67	40041.88
533.84	39526.97
534.01	40243.17
534.18	40079.33
534.35	40229.13
534.52	40069.97
534.69	39856.98
534.86	40957.03
535.03	40318.07
535.20	40924.27
535.37	41015.55
535.54	41029.59
535.71	40844.69
535.88	40718.30
536.05	40797.88
536.22	40868.09
536.38	40629.36
536.55	40732.34
536.72	40568.51
536.89	40648.08
537.06	40512.33
537.23	40889.16
537.40	40987.46
537.57	40905.54
537.74	40975.76
537.91	41364.29
538.08	40971.08
538.25	41127.89
538.42	41212.15
538.59	41914.31
538.75	40849.37
538.92	41017.89
539.09	41038.95
539.26	41340.88
539.43	40968.74
539.60	41165.34
539.77	41048.32
539.94	41359.61
540.11	41158.32
540.28	41640.47
540.44	41504.72
540.61	41682.60
540.78	41324.50
540.95	41422.80
541.12	41443.87
541.29	41539.83
541.46	42239.65
541.62	42050.06
541.79	42014.96
541.96	41593.66
542.13	42085.17
542.30	41923.68
542.47	42134.32
542.63	42218.58
542.80	42082.83
542.97	42316.89
543.14	42707.76
543.31	42775.63
543.48	42604.77
543.64	43194.59
543.81	42927.77
543.98	43019.05
544.15	42330.93
544.32	42953.51
544.48	43232.04
544.65	42911.38
544.82	43414.60
544.99	42789.67
545.16	42689.03
545.32	42745.20
545.49	43519.92
545.66	43679.08
545.83	43246.08
546.00	43178.20
546.16	43157.14
546.33	43194.59
546.50	42761.59
546.67	43360.76
546.83	42923.08
547.00	42993.30
547.17	43166.50
547.34	42735.84
547.50	43438.00
547.67	43632.27
547.84	43562.05
548.00	43739.93
548.17	44034.84
548.34	43772.70
548.51	43578.43
548.67	43849.94
548.84	43990.37
549.01	43899.09
549.18	43782.06
549.34	43887.39
549.51	43718.87
549.68	44032.50
549.84	43952.92
550.01	44163.57
550.18	43952.92
550.34	43988.03
550.51	44044.20
550.68	44114.42
550.84	43618.22
551.01	44524.01
551.18	44247.83
551.34	44231.44
551.51	44545.08
551.68	44481.88
551.84	44339.11
552.01	44247.83
552.18	44289.96
552.34	44189.31
552.51	43852.28
552.68	43950.58
552.84	44474.86
553.01	44802.53
553.18	44252.51
553.34	44367.20
553.51	44474.86
553.67	44212.72
553.84	44687.85
554.01	44289.96
554.17	44898.50
554.34	44411.67
554.51	44458.48
554.67	45155.96
554.84	44942.97
555.00	44774.45
555.17	44652.74
555.33	44507.63
555.50	44823.60
555.67	44935.95
555.83	44793.17
556.00	44619.97
556.16	45244.90
556.33	44664.44
556.50	44697.21
556.66	44973.39
556.83	44542.74
556.99	44961.69
557.16	45558.53
557.32	45010.84
557.49	45008.50
557.65	45043.61
557.82	45244.90
557.98	44711.25
558.15	44811.90
558.32	44966.37
558.48	44912.54
558.65	44788.49
558.81	44910.20
558.98	45179.36
559.14	45235.53
559.31	44952.33
559.47	45008.50
559.64	45392.35
559.80	45120.85
559.97	45256.60
560.13	45287.03
560.30	45085.74
560.46	45059.99
560.63	45916.63
560.79	45640.45
560.96	45684.92
561.12	45516.40
561.29	45263.62
561.45	45027.23
561.61	45481.29
561.78	45687.26
561.94	45162.98
562.11	45640.45
562.27	45511.72
562.44	45638.11
562.60	45916.63
562.77	45677.90
562.93	45745.77
563.10	45755.13
563.26	45385.33
563.42	45675.55
563.59	45420.44
563.75	45415.76
563.92	45713.00
564.08	45858.12
564.24	46068.76
564.41	45757.47
564.57	45408.73
564.74	45607.68
564.90	45631.08
565.07	45853.44
565.23	45652.15
565.39	45918.97
565.56	45668.53
565.72	45614.70
565.88	45977.48
566.05	45715.34
566.21	45544.48
566.38	45783.22
566.54	45867.48
566.70	46061.74
566.87	46169.41
567.03	45663.85
567.19	46277.07
567.36	46054.72
567.52	45500.01
567.68	46110.89
567.85	46059.40
568.01	46021.95
568.17	46110.89
568.34	45841.73
568.50	45708.32
568.66	45848.75
568.83	45741.09
568.99	45769.18
569.15	45769.18
569.32	46141.32
569.48	45780.88
569.64	45785.56
569.81	45881.52
569.97	45858.12
570.13	45523.42
570.30	45593.64
570.46	45610.02
570.62	45467.25
570.78	45883.86
570.95	46024.29
571.11	46176.43
571.27	45450.86
571.43	46089.83
571.60	45886.20
571.76	46213.88
571.92	45787.90
572.09	46183.45
572.25	46183.45
572.41	46007.91
572.57	46225.58
572.74	46396.44
572.90	45935.35
573.06	45986.85
573.22	46174.09
573.38	46370.69
573.55	46108.55
573.71	46319.20
573.87	46295.80
574.03	46202.18
574.20	45684.92
574.36	46321.54
574.52	46213.88
574.68	46064.08
574.84	46014.93
575.01	46003.23
575.17	45862.80
575.33	45780.88
575.49	45595.98
575.65	46384.74
575.82	46424.53
575.98	46183.45
576.14	46525.17
576.30	46429.21
576.46	46206.86
576.62	45940.04
576.79	46342.61
576.95	45425.12
577.11	46305.16
577.27	45951.74
577.43	46328.56
577.59	46377.72
577.75	45804.28
577.92	45893.22
578.08	46061.74
578.24	45977.48
578.40	45783.22
578.56	46024.29
578.72	46068.76
578.88	46403.46
579.04	45893.22
579.21	46113.23
579.37	45954.08
579.53	46354.31
579.69	46333.24
579.85	46057.06
580.01	46192.81
580.17	46127.28
580.33	46485.38
580.49	46040.68
580.65	45991.53
580.82	46108.55
580.98	46169.41
581.14	45996.21
581.30	46043.02
581.46	45998.55
581.62	46017.27
581.78	46380.06
581.94	46529.85
582.10	45993.87
582.26	46197.49
582.42	45935.35
582.58	46220.90
582.74	46171.75
582.90	46174.09
583.06	46754.54
583.22	46099.19
583.38	46361.33
583.54	46316.86
583.70	46295.80
583.86	46298.14
584.02	46213.88
584.18	46143.66
584.34	46471.34
584.50	46277.07
584.66	46375.37
584.82	46080.47
584.98	46466.66
585.14	46436.23
585.30	46279.41
585.46	46302.82
585.62	46265.37
585.78	46445.59
585.94	45441.50
586.10	45937.69
586.26	46033.66
586.42	46508.79
586.58	46583.68
586.74	46127.28
586.90	45935.35
587.06	46316.86
587.22	46497.08
587.38	46036.00
587.54	46408.14
587.70	46433.89
587.86	46274.73
588.02	46234.94
588.18	46567.30
588.34	45771.52
588.49	45947.06
588.65	44701.89
588.81	45752.79
588.97	45720.02
589.13	45565.55
589.29	46085.15
589.45	46220.90
589.61	46206.86
589.77	46426.87
589.93	46036.00
590.08	46412.82
590.24	46557.94
590.40	46583.68
590.56	46600.07
590.72	46440.91
590.88	46267.71
591.04	46256.01
591.20	46674.96
591.35	46649.22
591.51	47044.77
591.67	46555.60
591.83	46541.55
591.99	46307.50
592.15	46752.20
592.31	46745.18
592.46	46696.03
592.62	46461.97
592.78	46616.45
592.94	46864.55
593.10	46302.82
593.26	46405.80
593.41	45827.69
593.57	46696.03
593.73	46143.66
593.89	46422.19
594.05	46511.13
594.20	46138.98
594.36	46525.17
594.52	46539.21
594.68	46248.99
594.84	46548.57
594.99	46700.71
595.15	46150.68
595.31	46728.80
595.47	46340.27
595.62	46337.93
595.78	46192.81
595.94	46782.63
596.10	46733.48
596.25	46518.15
596.41	46883.27
596.57	46878.59
596.73	46649.22
596.88	45823.01
597.04	46511.13
597.20	46663.26
597.36	46260.69
597.51	46822.42
597.67	46834.12
597.83	46490.06
597.99	47285.84
598.14	46843.48
598.30	46026.63
598.46	46609.43
598.61	46429.21
598.77	45970.46
598.93	46028.98
599.09	46188.13
599.24	46859.87
599.40	46780.29
599.56	46394.10
599.71	46635.17
599.87	46284.09
600.03	46033.66
600.18	46424.53
600.34	46438.57
600.50	46459.63
600.65	46384.74
600.81	46728.80
600.97	46686.67
601.12	46864.55
601.28	46747.52
601.44	46122.60
601.59	46564.96
601.75	45921.31
601.91	46197.49
602.06	46466.66
602.22	46485.38
602.37	46567.30
602.53	46569.64
602.69	46412.82
602.84	45848.75
603.00	45998.55
603.16	46284.09
603.31	46106.21
603.47	46469.00
603.62	46576.66
603.78	46824.76
603.94	46363.67
604.09	46777.95
604.25	46644.54
604.40	46574.32
604.56	46532.19
604.71	46756.88
604.87	46333.24
605.03	46431.55
605.18	46576.66
605.34	45961.10
605.49	45656.83
605.65	46422.19
605.80	46440.91
605.96	46466.66
606.12	46583.68
606.27	46674.96
606.43	46110.89
606.58	46050.04
606.74	46344.95
606.89	45848.75
607.05	46136.64
607.20	46555.60
607.36	46574.32
607.51	46522.83
607.67	46424.53
607.82	46101.53
607.98	46131.96
608.13	45986.85
608.29	45907.27
608.44	45701.30
608.60	45504.70
608.75	45553.85
608.91	45968.12
609.06	45900.25
609.22	46330.90
609.37	45813.65
609.53	46277.07
609.68	45684.92
609.84	46185.79
609.99	45977.48
610.15	45387.67
610.30	45535.12
610.46	45535.12
610.61	45823.01
610.76	45853.44
610.92	45649.81
611.07	46188.13
611.23	46181.11
611.38	45584.27
611.54	45752.79
611.69	45762.15
611.84	45453.20
612.00	45797.26
612.15	45619.38
612.31	45808.96
612.46	45390.01
612.62	45684.92
612.77	45425.12
612.92	46040.68
613.08	45052.97
613.23	45773.86
613.39	45656.83
613.54	44992.12
613.69	45305.75
613.85	45338.52
614.00	45202.77
614.15	45846.41
614.31	45350.22
614.46	45453.20
614.62	45324.47
614.77	45647.47
614.92	45666.19
615.08	45272.98
615.23	44896.16
615.38	44947.65
615.54	45062.33
615.69	44961.69
615.84	44942.97
616.00	44800.19
616.15	45083.40
616.30	45200.43
616.46	44748.70
616.61	44903.18
616.76	45067.02
616.92	44608.27
617.07	44720.62
617.22	44996.80
617.37	44437.41
617.53	44683.17
617.68	45350.22
617.83	45071.70
617.99	45324.47
618.14	44921.90
618.29	44807.22
618.45	44226.76
618.60	44767.43
618.75	44404.64
618.90	44741.68
619.06	44858.71
619.21	44432.73
619.36	45010.84
619.51	44502.95
619.67	44720.62
619.82	44992.12
619.97	44849.35
620.12	44280.60
620.28	44348.47
620.43	44456.14
620.58	44713.59
620.73	44411.67
620.89	44350.81
621.04	44374.22
621.19	44156.55
621.34	44217.40
621.49	44186.97
621.65	44135.48
621.80	44622.31
621.95	44128.46
622.10	44034.84
622.25	43945.90
622.41	44018.46
622.56	43737.59
622.71	44243.15
622.86	43992.71
623.01	43742.27
623.16	44339.11
623.32	43749.29
623.47	44039.52
623.62	43908.45
623.77	44123.78
623.92	43524.60
624.07	43674.40
624.23	43452.05
624.38	43058.84
624.53	43639.29
624.68	43716.53
624.83	43711.84
624.98	43538.65
625.13	43241.40
625.29	43786.74
625.44	43033.09
625.59	43037.77
625.74	43079.90
625.89	43407.58
626.04	43367.79
626.19	43526.94
626.34	43466.09
626.49	43346.72
626.65	43213.31
626.80	43433.32
626.95	43068.20
627.10	43217.99
627.25	43255.44
627.40	42586.05
627.55	42651.58
627.70	42913.72
627.85	42653.92
628.00	42342.63
628.15	42906.70
628.30	42515.83
628.45	43201.61
628.60	42869.25
628.76	43068.20
628.91	42974.58
629.06	43049.47
629.21	42740.52
629.36	42700.73
629.51	42473.70
629.66	42415.19
629.81	42520.51
629.96	43023.73
630.11	42550.94
630.26	42752.23
630.41	42656.26
630.56	42309.86
630.71	42876.27
630.86	42347.31
631.01	42368.38
631.16	42146.03
631.31	42216.24
631.46	42241.99
631.61	42335.61
631.76	42239.65
631.91	41993.89
632.06	42429.23
632.21	42899.68
632.36	42583.71
632.51	41820.69
632.66	42249.01
632.81	41649.83
632.96	42473.70
633.10	41551.53
633.25	42216.24
633.40	41755.16
633.55	41979.85
633.70	42113.26
633.85	41759.84
634.00	41933.04
634.15	42110.92
634.30	42047.72
634.45	41916.65
634.60	41820.69
634.75	41661.54
634.90	41483.66
635.05	41872.18
635.19	40921.93
635.34	41888.57
635.49	41507.06
635.64	41563.23
635.79	41453.23
635.94	41762.18
636.09	41172.36
636.24	41331.52
636.39	41364.29
636.53	41727.07
636.68	41373.65
636.83	41074.06
636.98	41600.68
637.13	41020.23
637.28	41352.58
637.43	41462.59
637.57	41691.96
637.72	41027.25
637.87	41635.79
638.02	41345.56
638.17	41406.42
638.32	41155.98
638.46	41015.55
638.61	41155.98
638.76	40975.76
638.91	41233.22
639.06	41195.77
639.20	41038.95
639.35	41434.50
639.50	41003.85
639.65	41645.15
639.80	40863.41
639.94	40987.46
640.09	40453.82
640.24	40816.60
640.39	40222.11
640.54	40779.15
640.68	40603.61
640.83	40264.24
640.98	40884.48
641.13	40587.23
641.27	40957.03
641.42	40395.31
641.57	40790.86
641.72	40308.71
641.86	40289.98
642.01	40091.04
642.16	40519.35
642.31	40011.46
642.45	40559.14
642.60	39810.17
642.75	40362.54
642.90	40446.80
643.04	40226.79
643.19	39981.03
643.34	39751.66
643.48	39962.31
643.63	39742.30
643.78	39969.33
643.93	39978.69
644.07	40327.43
644.22	39901.45
644.37	39606.55
644.51	39618.25
644.66	40121.46
644.81	39955.29
644.95	40058.27
645.10	39924.86
645.25	40463.18
645.39	39971.67
645.54	40114.44
645.69	39772.72
645.83	39669.74
645.98	39812.51
646.13	39927.20
646.27	39922.52
646.42	39859.32
646.57	39349.09
646.71	39562.08
646.86	39550.37
647.00	40016.14
647.15	40058.27
647.30	39786.77
647.44	39562.08
647.59	39384.19
647.74	39100.99
647.88	39564.42
648.03	39480.16
648.17	39496.54
648.32	39431.01
648.47	39662.72
648.61	38988.64
648.76	39470.79
648.90	39641.65
649.05	39482.50
649.20	39000.35
649.34	39402.92
649.49	39185.25
649.63	38628.20
649.78	39012.05
649.92	39325.68
650.07	39096.31
650.21	38749.91
650.36	39070.56
650.51	39115.03
650.65	38930.13
650.80	39615.91
650.94	39110.35
651.09	38916.09
651.23	38609.48
651.38	38766.29
651.52	38586.07
651.67	38696.08
651.81	38417.55
651.96	38768.63
652.10	38813.10
652.25	38499.47
652.39	38480.75
652.54	39086.95
652.68	38803.74
652.83	38892.68
652.97	38770.97
653.12	38497.13
653.26	38691.40
653.41	38134.35
653.55	37902.64
653.70	38574.37
653.84	38328.61
653.99	38419.89
654.13	38473.73
654.27	38059.45
654.42	37780.93
654.56	37949.45
654.71	38319.25
654.85	38345.00
655.00	38345.00
655.14	38314.57
655.29	37757.52
655.43	38263.08
655.57	37675.60
655.72	37565.60
655.86	37357.29
656.01	37577.30
656.15	37244.94
656.30	37603.05
656.44	37766.88
656.58	37610.07
656.73	37368.99
656.87	37886.25
657.01	37797.31
657.16	37493.04
657.30	37359.63
657.45	36975.78
657.59	37502.40
657.73	37593.68
657.88	38153.07
658.02	37799.65
658.16	37755.18
658.31	37413.46
658.45	37371.33
658.60	37603.05
658.74	37605.39
658.88	37111.53
659.03	37378.36
659.17	37067.06
659.31	37240.26
659.46	37273.03
659.60	37205.16
659.74	37095.15
659.89	36814.29
660.03	36421.08
660.17	36538.10
660.32	36456.18
660.46	37024.93
660.60	37083.45
660.74	36715.98
660.89	36840.03
661.03	36467.89
661.17	36378.95
661.32	36573.21
661.46	36261.92
661.60	36610.66
661.74	36538.10
661.89	36280.64
662.03	36217.45
662.17	36133.19
662.31	35688.49
662.46	36346.18
662.60	36755.77
662.74	35945.95
662.88	36065.31
663.03	35606.57
663.17	35955.31
663.31	35927.22
663.45	35620.61
663.60	35957.65
663.74	35840.62
663.88	35838.28
664.02	35498.91
664.17	35281.24
664.31	35744.66
664.45	35419.33
664.59	35349.11
664.73	35800.83
664.88	35779.77
665.02	35047.18
665.16	35204.00
665.30	35515.29
665.44	35548.06
665.59	34955.90
665.73	34859.94
665.87	34855.26
666.01	34827.17
666.15	35058.88
666.29	34705.46
666.44	34857.60
666.58	34749.93
666.72	34436.30
666.86	34916.11
667.00	34869.30
667.14	34396.51
667.28	34305.23
667.43	34155.44
667.57	34668.02
667.71	34536.94
667.85	34370.77
667.99	34160.12
668.13	34174.16
668.27	34515.88
668.41	33713.08
668.56	34103.95
668.70	33984.58
668.84	34281.83
668.98	33865.21
669.12	33280.08
669.26	33684.99
669.40	33254.33
669.54	33364.34
669.68	33495.41
669.82	33390.08
669.96	33095.18
670.10	32882.19
670.25	32952.40
670.39	33399.44
670.53	33628.82
670.67	33149.01
670.81	33085.81
670.95	32975.81
671.09	33207.52
671.23	32868.14
671.37	32891.55
671.51	32594.30
671.65	32437.48
671.79	32673.88
671.93	32538.13
672.07	33102.20
672.21	32610.68
672.35	31887.46
672.49	32589.62
672.63	32484.30
672.77	32566.21
672.91	32371.95
673.05	32002.14
673.19	32060.66
673.33	32016.19
673.47	31756.39
673.61	32060.66
673.75	31667.45
673.89	31381.90
674.03	31630.00
674.17	31728.30
674.31	31344.45
674.45	31454.46
674.59	31562.12
674.73	31681.49
674.87	31356.16
675.01	31110.40
675.15	30934.86
675.29	31145.51
675.43	31019.12
675.56	31021.46
675.70	30586.12
675.84	30398.88
675.98	30160.14
676.12	30845.92
676.26	30656.34
676.40	30562.72
676.54	30300.58
676.68	30405.90
676.82	29792.68
676.96	30029.07
677.10	29797.36
677.23	29846.51
677.37	29769.27
677.51	29804.38
677.65	29394.79
677.79	29582.03
677.93	29401.81
678.07	29186.48
678.21	29254.36
678.34	29013.28
678.48	28835.40
678.62	28931.36
678.76	28840.08
678.90	28336.87
679.04	28320.48
679.18	28701.99
679.31	28264.31
679.45	28229.20
679.59	27997.49
679.73	28395.38
679.87	28154.30
680.00	28011.53
680.14	28137.92
680.28	28060.68
680.42	28112.17
680.56	27749.39
680.70	27850.03
680.83	27847.69
680.97	27615.98
681.11	27395.97
681.25	27084.68
681.39	27513.00
681.52	27185.32
681.66	27290.65
681.80	26787.43
681.94	27311.71
682.07	26703.17
682.21	26651.68
682.35	26518.27
682.49	26647.00
682.62	26881.05
682.76	26628.27
682.90	26560.40
683.04	26508.91
683.17	26206.98
683.31	26228.04
683.45	25951.86
683.59	25671.00
683.72	25965.90
683.86	25996.33
684.00	26272.51
684.13	25507.16
684.27	25825.47
684.41	25165.44
684.55	25216.93
684.68	25516.52
684.82	25373.75
684.96	24933.73
685.09	25439.28
685.23	25003.94
685.37	25209.91
685.50	24645.84
685.64	25041.39
685.78	24449.24
685.91	24449.24
686.05	24086.45
686.19	24105.18
686.32	23953.04
686.46	23531.75
686.60	23527.06
686.73	23735.37
686.87	23349.18
687.01	23433.44
687.14	23398.34
687.28	23058.96
687.42	23618.35
687.55	23351.52
687.69	23276.63
687.82	23683.88
687.96	23096.41
688.10	22967.68
688.23	22906.82
688.37	22530.00
688.50	22801.50
688.64	22764.05
688.78	22532.34
688.91	22462.12
689.05	22609.58
689.18	22309.99
689.32	22052.53
689.46	22148.49
689.59	22164.87
689.73	22401.27
689.86	22260.84
690.00	22043.17
690.13	21717.83
690.27	21621.87
690.41	21568.04
690.54	21247.38
690.68	21406.54
690.81	21167.80
690.95	21200.57
691.08	21207.59
691.22	21078.86
691.35	21422.92
691.49	21226.32
691.62	21020.35
691.76	21018.01
691.89	20596.71
692.03	20821.41
692.16	20362.66
692.30	20182.44
692.43	20456.28
692.57	20264.36
692.70	20535.86
692.84	20477.35
692.97	20009.24
693.11	19934.34
693.24	19585.60
693.38	19871.15
693.51	19590.28
693.65	19910.94
693.78	19770.51
693.92	19524.75
694.05	19562.20
694.19	19386.66
694.32	19503.68
694.45	18956.00
694.59	18972.38
694.72	19068.34
694.86	19012.17
694.99	19028.56
695.13	18923.23
695.26	18743.01
695.39	18803.86
695.53	18939.62
695.66	18958.34
695.80	18707.90
695.93	18558.11
696.07	18490.23
696.20	18476.19
696.33	18139.15
696.47	18249.16
696.60	18113.41
696.73	17989.36
696.87	17972.97
697.00	17954.25
697.14	17755.30
697.27	17469.76
697.40	17642.96
697.54	17385.50
697.67	17558.70
697.80	17474.44
697.94	17099.95
698.07	17085.91
698.21	17408.90
698.34	16795.68
698.47	17055.48
698.61	16842.50
698.74	16648.23
698.87	16716.11
699.01	16648.23
699.14	16547.59
699.27	16278.43
699.40	16311.19
699.54	16393.11
699.67	16217.57
699.80	16170.76
699.94	16018.63
700.07	16201.19
700.20	16093.52
700.34	16079.48
700.47	16053.73
700.60	16116.93
700.73	16065.44
700.87	16154.38
701.00	15775.21
701.13	15611.37
701.26	15550.52
701.40	15374.98
701.53	15295.40
701.66	15384.34
701.79	15297.74
701.93	15056.67
702.06	14839.00
702.19	15108.16
702.32	15201.78
702.46	14998.15
702.59	14773.46
702.72	15054.33
702.85	15019.22
702.99	14728.99
703.12	14637.71
703.25	14576.86
703.38	14415.36
703.51	14604.94
703.65	14527.71
703.78	14583.88
703.91	14207.05
704.04	14246.84
704.17	14090.02
704.31	14047.90
704.44	14059.60
704.57	13954.27
704.70	13942.57
704.83	13664.05
704.96	13811.50
705.10	13680.43
705.23	13687.45
>>>>>End Processed Spectral Data<<<<<
