SpectraSuite Data File
++++++++++++++++++++++++++++++++++++
Date: Fri Oct 25 11:33:53 EDT 2013
User: price-jones
Dark Spectrum Present: No
Reference Spectrum Present: No
Number of Sampled Component Spectra: 1
Spectrometers: USB2+H05261
Integration Time (usec): 100000 (USB2+H05261)
Spectra Averaged: 1 (USB2+H05261)
Boxcar Smoothing: 0 (USB2+H05261)
Correct for Electrical Dark: No (USB2+H05261)
Strobe/Lamp Enabled: No (USB2+H05261)
Correct for Detector Non-linearity: No (USB2+H05261)
Correct for Stray Light: No (USB2+H05261)
Number of Pixels in Processed Spectrum: 2048
>>>>>Begin Processed Spectral Data<<<<<
365.73	308.95
365.92	308.95
366.12	308.95
366.32	138.09
366.52	180.22
366.72	182.56
366.91	140.43
367.11	255.12
367.31	161.50
367.51	168.52
367.70	163.84
367.90	131.07
368.10	203.63
368.30	187.24
368.49	107.66
368.69	154.48
368.89	184.90
369.09	245.76
369.28	182.56
369.48	243.42
369.68	194.26
369.87	238.73
370.07	306.61
370.27	287.89
370.47	362.78
370.66	430.66
370.86	538.32
371.06	589.82
371.25	589.82
371.45	479.81
371.65	547.69
371.84	533.64
372.04	557.05
372.24	543.00
372.44	543.00
372.63	620.24
372.83	622.58
373.03	648.33
373.22	592.16
373.42	631.94
373.62	704.50
373.81	631.94
374.01	704.50
374.21	669.39
374.40	681.10
374.60	690.46
374.79	645.99
374.99	636.63
375.19	592.16
375.38	695.14
375.58	660.03
375.78	624.92
375.97	704.50
376.17	683.44
376.37	627.26
376.56	702.16
376.76	695.14
376.95	713.86
377.15	643.65
377.35	678.76
377.54	695.14
377.74	645.99
377.93	648.33
378.13	669.39
378.33	650.67
378.52	741.95
378.72	690.46
378.91	655.35
379.11	720.88
379.31	650.67
379.50	683.44
379.70	791.10
379.89	755.99
380.09	718.54
380.28	770.04
380.48	716.20
380.68	641.31
380.87	786.42
381.07	720.88
381.26	788.76
381.46	732.59
381.65	760.67
381.85	802.80
382.04	744.29
382.24	744.29
382.43	786.42
382.63	833.23
382.83	812.17
383.02	727.91
383.22	844.93
383.41	770.04
383.61	884.72
383.80	835.57
384.00	809.83
384.19	809.83
384.39	763.01
384.58	767.70
384.78	938.55
384.97	835.57
385.17	816.85
385.36	760.67
385.56	826.21
385.75	800.46
385.95	866.00
386.14	849.61
386.34	840.25
386.53	910.47
386.72	976.00
386.92	924.51
387.11	968.98
387.31	929.19
387.50	866.00
387.70	798.12
387.89	880.04
388.09	858.98
388.28	961.96
388.48	915.15
388.67	1060.26
388.86	1004.09
389.06	943.24
389.25	922.17
389.45	931.53
389.64	1036.86
389.84	973.66
390.03	957.28
390.22	1048.56
390.42	971.32
390.61	873.02
390.81	973.66
391.00	985.37
391.19	1048.56
391.39	978.34
391.58	1011.11
391.78	966.64
391.97	1039.20
392.16	1018.13
392.36	1125.80
392.55	1018.13
392.75	1083.67
392.94	1048.56
393.13	1013.45
393.33	1053.24
393.52	1116.44
393.71	1088.35
393.91	1132.82
394.10	1128.14
394.29	1181.97
394.49	1057.92
394.68	1146.86
394.88	1109.41
395.07	1160.91
395.26	1135.16
395.46	1088.35
395.65	1217.08
395.84	1156.22
396.04	1228.78
396.23	1118.78
396.42	1174.95
396.62	1158.57
396.81	1226.44
397.00	1165.59
397.19	1299.00
397.39	1146.86
397.58	1291.98
397.77	1188.99
397.97	1207.72
398.16	1284.95
398.35	1310.70
398.55	1231.12
398.74	1329.42
398.93	1399.64
399.12	1350.49
399.32	1245.16
399.51	1324.74
399.70	1306.02
399.90	1350.49
400.09	1345.81
400.28	1380.92
400.47	1315.38
400.67	1432.41
400.86	1359.85
401.05	1378.58
401.24	1430.07
401.44	1380.92
401.63	1397.30
401.82	1441.77
402.01	1413.68
402.21	1446.45
402.40	1504.96
402.59	1495.60
402.78	1483.90
402.97	1481.56
403.17	1455.81
403.36	1607.95
403.55	1535.39
403.74	1530.71
403.93	1519.01
404.13	1556.46
404.32	1509.65
404.51	1598.59
404.70	1633.69
404.89	1577.52
405.09	1706.25
405.28	1614.97
405.47	1671.14
405.66	1694.55
405.85	1732.00
406.05	1692.21
406.24	1764.76
406.43	1727.32
406.62	1748.38
406.81	1867.75
407.00	1736.68
407.20	1750.72
407.39	1830.30
407.58	1870.09
407.77	1799.87
407.96	1900.52
408.15	1870.09
408.34	1886.47
408.54	1907.54
408.73	1930.94
408.92	1921.58
409.11	2017.54
409.30	2017.54
409.49	1984.77
409.68	2064.35
409.87	2057.33
410.07	2017.54
410.26	1961.37
410.45	1970.73
410.64	2120.53
410.83	2122.87
411.02	2019.88
411.21	2160.31
411.40	2202.44
411.59	2291.38
411.78	2129.89
411.98	2146.27
412.17	2258.62
412.36	2307.77
412.55	2356.92
412.74	2349.90
412.93	2298.41
413.12	2197.76
413.31	2361.60
413.50	2406.07
413.69	2427.14
413.88	2605.02
414.07	2450.54
414.26	2492.67
414.45	2382.67
414.64	2527.78
414.83	2483.31
415.02	2537.14
415.22	2605.02
415.41	2490.33
415.60	2677.57
415.79	2654.17
415.98	2724.38
416.17	2782.90
416.36	2733.75
416.55	2757.15
416.74	2796.94
416.93	2698.64
417.12	2836.73
417.31	2855.45
417.50	2963.12
417.69	3056.74
417.88	3021.63
418.07	3014.61
418.26	2888.22
418.45	3068.44
418.64	3089.51
418.83	3021.63
419.02	3094.19
419.21	3117.59
419.39	3169.09
419.58	3215.90
419.77	2960.78
419.96	3192.49
420.15	3119.93
420.34	3148.02
420.53	3265.05
420.72	3192.49
420.91	3159.72
421.10	3272.07
421.29	3321.22
421.48	3269.73
421.67	3353.99
421.86	3232.28
422.05	3260.37
422.24	3314.20
422.43	3211.22
422.61	3281.43
422.80	3372.71
422.99	3346.97
423.18	3236.96
423.37	3363.35
423.56	3426.54
423.75	3426.54
423.94	3372.71
424.13	3185.47
424.32	3276.75
424.50	3419.52
424.69	3403.14
424.88	3475.70
425.07	3417.18
425.26	3480.38
425.45	3377.39
425.64	3419.52
425.83	3447.61
426.01	3506.12
426.20	3466.33
426.39	3365.69
426.58	3452.29
426.77	3487.40
426.96	3658.26
427.15	3585.70
427.33	3536.55
427.52	3487.40
427.71	3676.98
427.90	3527.19
428.09	3632.51
428.28	3735.50
428.46	3576.34
428.65	3772.94
428.84	3749.54
429.03	3906.35
429.22	3662.94
429.40	3733.15
429.59	3768.26
429.78	3714.43
429.97	3585.70
430.16	3768.26
430.34	3796.35
430.53	3719.11
430.72	3758.90
430.91	3840.82
431.10	3878.27
431.28	3974.23
431.47	4002.32
431.66	3880.61
431.85	3864.22
432.03	4060.83
432.22	3964.87
432.41	3983.59
432.60	4100.62
432.79	4070.19
432.97	4105.30
433.16	4088.92
433.35	4194.24
433.54	4030.40
433.72	4159.13
433.91	4166.15
434.10	4243.39
434.28	4067.85
434.47	4170.83
434.66	4320.63
434.85	4210.62
435.03	4498.51
435.22	4271.48
435.41	4383.82
435.59	4341.69
435.78	4320.63
435.97	4341.69
436.16	4430.63
436.34	4311.27
436.53	4395.53
436.72	4629.58
436.90	4407.23
437.09	4465.74
437.28	4337.01
437.46	4512.55
437.65	4582.77
437.84	4468.08
438.02	4409.57
438.21	4655.33
438.40	4472.76
438.58	4678.73
438.77	4678.73
438.96	4669.37
439.14	4793.42
439.33	4889.38
439.52	4898.74
439.70	4870.65
439.89	4887.04
440.08	4837.89
440.26	4966.62
440.45	4936.19
440.63	5018.11
440.82	5125.77
441.01	5121.09
441.19	5116.41
441.38	5341.10
441.57	5135.14
441.75	5270.89
441.94	5523.66
442.12	5294.29
442.31	5481.53
442.50	5483.88
442.68	5434.72
442.87	5399.62
443.05	5626.65
443.24	5516.64
443.43	5434.72
443.61	5493.24
443.80	5785.80
443.98	5420.68
444.17	5343.44
444.35	5511.96
444.54	5668.78
444.73	5668.78
444.91	5617.29
445.10	5530.69
445.28	5504.94
445.47	5544.73
445.65	5736.65
445.84	5680.48
446.02	5668.78
446.21	5710.91
446.39	5884.11
446.58	5834.96
446.77	5755.38
446.95	5614.95
447.14	5537.71
447.32	5818.57
447.51	5638.35
447.69	5809.21
447.88	5874.74
448.06	5820.91
448.25	5762.40
448.43	5673.46
448.62	5799.85
448.80	5724.95
448.99	5813.89
449.17	5874.74
449.36	5951.98
449.54	6104.12
449.73	6066.67
449.91	6050.28
450.10	6129.86
450.28	6017.52
450.46	6045.60
450.65	6029.22
450.83	6080.71
451.02	5926.24
451.20	6228.17
451.39	6239.87
451.57	6122.84
451.76	6146.25
451.94	6225.82
452.13	6216.46
452.31	6263.27
452.49	6033.90
452.68	6204.76
452.86	6195.40
453.05	6317.11
453.23	6377.96
453.42	6239.87
453.60	6296.04
453.78	6431.79
453.97	6417.75
454.15	6455.20
454.34	6352.21
454.52	6696.27
454.70	6462.22
454.89	6532.44
455.07	6487.96
455.26	6558.18
455.44	6483.28
455.62	6443.49
455.81	6738.40
455.99	6949.05
456.17	6686.91
456.36	6612.01
456.54	6806.28
456.73	6881.18
456.91	7014.59
457.09	7037.99
457.28	6920.96
457.46	6986.50
457.64	7091.82
457.83	7197.15
458.01	6885.86
458.19	7190.13
458.38	7052.03
458.56	7220.55
458.74	7075.44
458.93	7269.70
459.11	7290.77
459.29	7117.57
459.48	7199.49
459.66	7250.98
459.84	7344.60
460.03	7445.24
460.21	7454.61
460.39	7379.71
460.57	7222.89
460.76	7480.35
460.94	7524.82
461.12	7414.82
461.31	7527.16
461.49	7442.90
461.67	7265.02
461.85	7658.23
462.04	7396.09
462.22	7969.52
462.40	7803.35
462.59	7557.59
462.77	7772.92
462.95	7995.27
463.13	7681.64
463.32	7796.32
463.50	7791.64
463.68	7742.49
463.86	7915.69
464.05	7786.96
464.23	8006.97
464.41	7852.50
464.59	7815.05
464.78	8049.10
464.96	7960.16
465.14	7854.84
465.32	7971.86
465.50	8210.60
465.69	8166.13
465.87	8002.29
466.05	8084.21
466.23	8046.76
466.41	7981.23
466.60	8362.73
466.78	8180.17
466.96	8004.63
467.14	8203.58
467.32	8334.65
467.51	8217.62
467.69	8060.80
467.87	8243.37
468.05	8177.83
468.23	8276.13
468.41	8184.85
468.60	8306.56
468.78	8428.27
468.96	8454.02
469.14	8681.05
469.32	8461.04
469.50	8365.07
469.69	8711.47
469.87	8678.71
470.05	8765.31
470.23	8807.44
470.41	8706.79
470.59	9004.04
470.77	8599.13
470.95	8772.33
471.14	8997.02
471.32	8826.16
471.50	9125.75
471.68	8809.78
471.86	8964.25
472.04	9135.11
472.22	9224.05
472.40	8929.14
472.58	9312.99
472.77	9298.95
472.95	9458.10
473.13	9598.54
473.31	9291.93
473.49	9390.23
473.67	9624.28
473.85	9406.61
474.03	9895.78
474.21	9420.66
474.39	9657.05
474.57	9753.01
474.75	9863.02
474.93	9893.44
475.12	9909.83
475.30	9963.66
475.48	10073.67
475.66	10113.45
475.84	10071.33
476.02	10057.28
476.20	9909.83
476.38	10391.98
476.56	10410.70
476.74	10581.56
476.92	10408.36
477.10	10551.14
477.28	10731.36
477.46	10665.82
477.64	10729.02
477.82	10963.07
478.00	11019.24
478.18	11124.57
478.36	11250.96
478.54	11185.42
478.72	11342.24
478.90	11332.87
479.08	11700.34
479.26	11634.80
479.44	11698.00
479.62	11920.35
479.80	11559.91
479.98	12030.35
480.16	12241.00
480.34	11941.41
480.52	12170.79
480.70	12170.79
480.88	12138.02
481.06	12421.22
481.24	12418.88
481.41	12318.24
481.59	12603.78
481.77	12784.01
481.95	12690.38
482.13	12964.23
482.31	12929.12
482.49	13261.48
482.67	13139.77
482.85	13465.10
483.03	13451.06
483.21	13607.87
483.39	13827.88
483.57	13848.95
483.74	13745.97
483.92	13961.30
484.10	14036.19
484.28	14382.59
484.46	14368.55
484.64	14806.23
484.82	14267.91
485.00	14651.75
485.18	14654.09
485.35	15009.86
485.53	15056.67
485.71	15028.58
485.89	15309.44
486.07	15225.18
486.25	15318.81
486.43	15496.69
486.61	15494.35
486.78	15632.44
486.96	15616.05
487.14	15885.22
487.32	15922.66
487.50	16383.75
487.68	16514.82
487.85	16360.34
488.03	16477.37
488.21	16910.37
488.39	16615.46
488.57	17128.04
488.75	17153.79
488.92	17380.82
489.10	17261.45
489.28	17479.12
489.46	17544.66
489.64	17565.72
489.81	18017.44
489.99	18026.81
490.17	18111.07
490.35	18129.79
490.53	18586.19
490.70	18569.81
490.88	18398.95
491.06	18801.52
491.24	18761.73
491.41	18944.30
491.59	18759.39
491.77	19222.82
491.95	19440.49
492.13	19241.54
492.30	19513.05
492.48	19817.32
492.66	19810.29
492.84	19784.55
493.01	20044.35
493.19	20180.10
493.37	20109.88
493.54	20524.16
493.72	20435.22
493.90	20657.57
494.08	20746.51
494.25	20819.07
494.43	21039.08
494.61	21139.72
494.79	21139.72
494.96	21078.86
495.14	21422.92
495.32	21928.48
495.49	21743.58
495.67	21689.74
495.85	21762.30
496.02	21799.75
496.20	22361.48
496.38	22073.59
496.55	22417.65
496.73	22607.23
496.91	22700.86
497.09	22834.27
497.26	22869.37
497.44	22724.26
497.62	23016.83
497.79	23253.22
497.97	23452.17
498.14	23248.54
498.32	23620.69
498.50	23697.92
498.67	23728.35
498.85	23555.15
499.03	24126.24
499.20	24016.24
499.38	24070.07
499.56	24161.35
499.73	24332.21
499.91	24425.83
500.08	24446.90
500.26	24517.11
500.44	24673.93
500.61	24435.19
500.79	24671.59
500.97	24947.77
501.14	25156.08
501.32	25039.05
501.49	25120.97
501.67	25034.37
501.84	25715.47
502.02	25102.25
502.20	25261.40
502.37	25736.53
502.55	25619.50
502.72	25500.14
502.90	25781.00
503.07	25731.85
503.25	26199.96
503.43	25855.90
503.60	26209.32
503.78	26401.24
503.95	25979.95
504.13	26309.96
504.30	26862.33
504.48	26780.41
504.65	26506.57
504.83	27225.11
505.01	27091.70
505.18	27297.67
505.36	26979.36
505.53	27173.62
505.71	27395.97
505.88	27587.89
506.06	27300.01
506.23	27335.12
506.41	27260.22
506.58	27651.09
506.76	27250.86
506.93	28023.23
507.11	27751.73
507.28	27789.18
507.46	27917.91
507.63	27957.70
507.81	28236.22
507.98	28077.07
508.16	28079.41
508.33	28479.64
508.50	28554.54
508.68	28629.43
508.85	28781.57
509.03	29055.41
509.20	29067.11
509.38	29163.08
509.55	29156.05
509.73	29010.94
509.90	29317.55
510.08	29092.86
510.25	28987.53
510.42	29823.11
510.60	29764.59
510.77	29862.90
510.95	30045.46
511.12	29509.47
511.30	29778.64
511.47	29958.86
511.64	30183.55
511.82	30040.78
511.99	30075.88
512.17	30183.55
512.34	30045.46
512.51	30836.56
512.69	30525.27
512.86	30822.51
513.04	30698.47
513.21	30801.45
513.38	30756.98
513.56	31189.98
513.73	31140.83
513.90	31110.40
514.08	30831.88
514.25	31597.23
514.43	31487.23
514.60	31754.05
514.77	31442.76
514.95	31592.55
515.12	31388.92
515.29	31817.24
515.47	31363.18
515.64	31611.28
515.81	31641.70
515.99	32243.22
516.16	32060.66
516.33	32229.18
516.51	32254.92
516.68	32039.59
516.85	31920.23
517.03	32538.13
517.20	32591.96
517.37	32250.24
517.54	32870.48
517.72	32465.57
517.89	32877.51
518.06	33069.43
518.24	32615.37
518.41	32669.20
518.58	32606.00
518.75	33010.92
518.93	33221.56
519.10	32950.06
519.27	33647.54
519.45	33223.90
519.62	33619.46
519.79	33710.74
519.96	33914.36
520.14	33633.50
520.31	33558.60
520.48	34007.98
520.65	33949.47
520.83	34321.62
521.00	34167.14
521.17	34457.37
521.34	34422.26
521.52	34539.29
521.69	34548.65
521.86	34527.58
522.03	34735.89
522.20	35028.46
522.38	34960.58
522.55	35019.10
522.72	34707.80
522.89	35065.91
523.07	34878.66
523.24	34923.13
523.41	35702.53
523.58	34766.32
523.75	35297.62
523.92	35040.16
524.10	35559.76
524.27	35257.83
524.44	35644.02
524.61	35770.41
524.78	35562.10
524.96	35660.40
525.13	35608.91
525.30	35868.71
525.47	35924.88
525.64	35613.59
525.81	36252.56
525.98	36400.01
526.16	36006.80
526.33	36030.21
526.50	36355.54
526.67	36294.69
526.84	36823.65
527.01	36701.94
527.18	36264.26
527.36	36194.04
527.53	36669.17
527.70	37069.40
527.87	36966.42
528.04	36687.90
528.21	36662.15
528.38	36711.30
528.55	37099.83
528.72	36842.37
528.89	36905.57
529.07	36959.40
529.24	36907.91
529.41	37380.70
529.58	37078.77
529.75	37060.04
529.92	36945.36
530.09	37322.18
530.26	37607.73
530.43	37448.57
530.60	36954.72
530.77	37301.12
530.94	37956.47
531.11	37940.08
531.28	37745.82
531.46	37687.31
531.63	37993.92
531.80	37703.69
531.97	38160.09
532.14	37809.01
532.31	37916.68
532.48	37989.24
532.65	38766.29
532.82	38466.70
532.99	38567.35
533.16	38239.67
533.33	38462.02
533.50	38735.87
533.67	38731.18
533.84	38335.63
534.01	38817.78
534.18	38628.20
534.35	38815.44
534.52	38763.95
534.69	39044.82
534.86	39192.27
535.03	38960.56
535.20	39391.22
535.37	39182.91
535.54	39138.44
535.71	39281.21
535.88	39189.93
536.05	39281.21
536.22	39522.29
536.38	39182.91
536.55	39166.52
536.72	39594.84
536.89	39026.09
537.06	39716.55
537.23	40037.20
537.40	39093.97
537.57	39452.07
537.74	39749.32
537.91	39583.14
538.08	39791.45
538.25	39557.39
538.42	39985.71
538.59	40404.67
538.75	39456.75
538.92	40208.06
539.09	40091.04
539.26	40217.43
539.43	40367.22
539.60	40573.19
539.77	40182.32
539.94	40741.71
540.11	40547.44
540.28	40725.32
540.44	40479.57
540.61	40472.54
540.78	40245.51
540.95	40306.37
541.12	40069.97
541.29	40409.35
541.46	40449.14
541.62	40484.25
541.79	41207.47
541.96	40919.59
542.13	40432.75
542.30	40629.36
542.47	41165.34
542.63	41223.86
542.80	41284.71
542.97	41682.60
543.14	41553.87
543.31	41698.98
543.48	41694.30
543.64	41867.50
543.81	41902.61
543.98	42139.00
544.15	41734.09
544.32	42052.41
544.48	42000.91
544.65	41839.42
544.82	42012.62
544.99	42007.94
545.16	42150.71
545.32	41890.91
545.49	42391.78
545.66	42518.17
545.83	42335.61
546.00	42377.74
546.16	42738.18
546.33	41944.74
546.50	42047.72
546.67	42522.85
546.83	42155.39
547.00	42314.55
547.17	42665.63
547.34	42433.91
547.50	43236.72
547.67	42731.16
547.84	42827.12
548.00	42916.06
548.17	43189.91
548.34	42864.57
548.51	43241.40
548.67	43091.60
548.84	42822.44
549.01	43030.75
549.18	42981.60
549.34	43171.18
549.51	43264.80
549.68	43187.56
549.84	42904.36
550.01	43377.15
550.18	43072.88
550.34	43353.74
550.51	43225.01
550.68	43063.52
550.84	42761.59
551.01	43693.12
551.18	43030.75
551.34	43538.65
551.51	43117.35
551.68	43414.60
551.84	43393.53
552.01	43489.49
552.18	43679.08
552.34	43477.79
552.51	43840.57
552.68	43913.13
552.84	43292.89
553.01	44128.46
553.18	44205.70
553.34	44264.21
553.51	43812.49
553.67	43805.47
553.84	44083.99
554.01	44577.84
554.17	44416.35
554.34	44514.65
554.51	44488.90
554.67	44311.02
554.84	44425.71
555.00	44608.27
555.17	44275.91
555.33	44458.48
555.50	44194.00
555.67	44460.82
555.83	44325.07
556.00	44659.76
556.16	44626.99
556.33	44521.67
556.50	44769.77
556.66	44725.30
556.83	44114.42
556.99	44971.05
557.16	44444.43
557.32	44486.56
557.49	44886.79
557.65	44516.99
557.82	45123.19
557.98	45193.40
558.15	45083.40
558.32	44898.50
558.48	45001.48
558.65	44788.49
558.81	45237.87
558.98	44896.16
559.14	44964.03
559.31	45200.43
559.47	45057.65
559.64	45013.18
559.80	44966.37
559.97	45551.51
560.13	44760.40
560.30	45216.81
560.46	45350.22
560.63	45572.57
560.79	45675.55
560.96	45422.78
561.12	45436.82
561.29	45586.61
561.45	45418.10
561.61	45516.40
561.78	45469.59
561.94	45464.91
562.11	44968.71
562.27	45478.95
562.44	45600.66
562.60	45862.80
562.77	45848.75
562.93	45574.91
563.10	45745.77
563.26	45467.25
563.42	45975.14
563.59	45352.56
563.75	45584.27
563.92	45624.06
564.08	45977.48
564.24	45797.26
564.41	45834.71
564.57	45888.54
564.74	45607.68
564.90	45614.70
565.07	45280.00
565.23	45848.75
565.39	45727.05
565.56	46124.94
565.72	45544.48
565.88	45897.91
566.05	45799.60
566.21	46040.68
566.38	45837.05
566.54	46234.94
566.70	46183.45
566.87	46164.73
567.03	45979.82
567.19	45928.33
567.36	46473.68
567.52	46183.45
567.68	46218.56
567.85	46061.74
568.01	46667.94
568.17	45944.72
568.34	46316.86
568.50	46412.82
568.66	45715.34
568.83	46021.95
568.99	46305.16
569.15	46293.46
569.32	46183.45
569.48	46321.54
569.64	46515.81
569.81	46309.84
569.97	46553.26
570.13	46328.56
570.30	45937.69
570.46	46267.71
570.62	46237.28
570.78	46263.03
570.95	46440.91
571.11	46504.10
571.27	46230.26
571.43	46092.17
571.60	46543.89
571.76	46389.42
571.92	46487.72
572.09	46328.56
572.25	46525.17
572.41	46394.10
572.57	46604.75
572.74	47131.37
572.90	46513.47
573.06	46457.29
573.22	46281.75
573.38	46733.48
573.55	46632.83
573.71	47009.66
573.87	46522.83
574.03	46663.26
574.20	46890.29
574.36	46579.00
574.52	46916.04
574.68	46813.05
574.84	46773.27
575.01	46988.60
575.17	46581.34
575.33	46965.19
575.49	46735.82
575.65	46871.57
575.82	46995.62
575.98	46314.52
576.14	47175.84
576.30	46775.61
576.46	46586.02
576.62	46644.54
576.79	46560.28
576.95	46279.41
577.11	46579.00
577.27	46820.08
577.43	46862.21
577.59	46351.97
577.75	46546.23
577.92	46452.61
578.08	46344.95
578.24	46883.27
578.40	47288.18
578.56	46876.25
578.72	46745.18
578.88	46712.41
579.04	47114.98
579.21	46672.62
579.37	47056.47
579.53	46897.31
579.69	46745.18
579.85	46681.98
580.01	46955.83
580.17	46724.11
580.33	46906.68
580.49	47014.34
580.65	46862.21
580.82	46976.89
580.98	46693.69
581.14	46899.65
581.30	47063.49
581.46	46909.02
581.62	46799.01
581.78	47150.09
581.94	46902.00
582.10	46731.14
582.26	47529.26
582.42	47234.35
582.58	47372.44
582.74	46894.97
582.90	46670.28
583.06	47161.79
583.22	46820.08
583.38	46873.91
583.54	47182.86
583.70	47262.44
583.86	47136.05
584.02	47044.77
584.18	47363.08
584.34	47203.92
584.50	47405.21
584.66	47445.00
584.82	47239.03
584.98	47501.17
585.14	47409.89
585.30	47374.78
585.46	47374.78
585.62	46775.61
585.78	47206.26
585.94	46990.94
586.10	47126.69
586.26	46799.01
586.42	46911.36
586.58	47007.32
586.74	46749.86
586.90	46902.00
587.06	47009.66
587.22	47250.74
587.38	47196.90
587.54	47313.93
587.70	47152.43
587.86	47075.19
588.02	46925.40
588.18	47489.47
588.34	47138.39
588.49	47402.87
588.65	47103.28
588.81	47227.33
588.97	47374.78
589.13	47119.66
589.29	47482.45
589.45	47236.69
589.61	47381.80
589.77	47257.76
589.93	47302.23
590.08	47821.83
590.24	47466.06
590.40	47702.46
590.56	47807.78
590.72	47927.15
590.88	47742.25
591.04	47339.68
591.20	47360.74
591.35	47756.29
591.51	48151.84
591.67	47707.14
591.83	47962.26
591.99	47868.64
592.15	47503.51
592.31	47608.84
592.46	47363.08
592.62	47782.04
592.78	47718.84
592.94	47742.25
593.10	47601.82
593.26	47941.19
593.41	47758.63
593.57	47906.08
593.73	48177.59
593.89	48215.04
594.05	47828.85
594.20	48278.23
594.36	48231.42
594.52	47767.99
594.68	47810.12
594.84	47803.10
594.99	48102.69
595.15	47870.98
595.31	47927.15
595.47	47929.49
595.62	47746.93
595.78	47650.97
595.94	47391.17
596.10	48002.05
596.25	48004.39
596.41	47491.81
596.57	47412.23
596.73	47714.16
596.88	47852.25
597.04	47885.02
597.20	48107.37
597.36	48074.60
597.51	47709.48
597.67	47639.26
597.83	47784.38
597.99	48271.21
598.14	47744.59
598.30	47767.99
598.46	48083.97
598.61	48067.58
598.77	48121.41
598.93	47936.51
599.09	48261.85
599.24	48217.38
599.40	47901.40
599.56	48006.73
599.71	48137.80
599.87	48095.67
600.03	48289.93
600.18	47901.40
600.34	48133.12
600.50	48472.49
600.65	47901.40
600.81	48488.88
600.97	48193.97
601.12	48119.07
601.28	48495.90
601.44	47941.19
601.59	48278.23
601.75	47973.96
601.91	48250.14
602.06	48130.78
602.22	48596.54
602.37	48353.13
602.53	48177.59
602.69	48303.98
602.84	47896.72
603.00	47765.65
603.16	47892.04
603.31	48212.70
603.47	48360.15
603.62	47779.70
603.78	48018.43
603.94	48046.52
604.09	48229.08
604.25	48037.16
604.40	48067.58
604.56	48222.06
604.71	48406.96
604.87	47688.42
605.03	47760.97
605.18	47590.11
605.34	48058.22
605.49	47676.71
605.65	47695.44
605.80	47524.58
605.96	47983.32
606.12	47468.40
606.27	48051.20
606.43	47810.12
606.58	47845.23
606.74	48062.90
606.89	48135.46
607.05	48275.89
607.20	48193.97
607.36	47990.34
607.51	47966.94
607.67	47765.65
607.82	47945.87
607.98	47744.59
608.13	47934.17
608.29	48013.75
608.44	47686.07
608.60	47512.88
608.75	47576.07
608.91	47657.99
609.06	47639.26
609.22	47484.79
609.37	47372.44
609.53	47980.98
609.68	47573.73
609.84	47805.44
609.99	47423.93
610.15	47842.89
610.30	47812.46
610.46	47756.29
610.61	47707.14
610.76	47735.23
610.92	47374.78
611.07	47735.23
611.23	47496.49
611.38	47349.04
611.54	47995.03
611.69	47742.25
611.84	47704.80
612.00	47531.60
612.15	47672.03
612.31	47576.07
612.46	47447.34
612.62	47533.94
612.77	47608.84
612.92	47854.59
613.08	47920.13
613.23	47636.92
613.39	47318.61
613.54	46887.95
613.69	47473.09
613.85	47246.05
614.00	47374.78
614.15	47477.77
614.31	46780.29
614.46	47459.04
614.62	47311.59
614.77	47409.89
614.92	47583.09
615.08	47845.23
615.23	47199.24
615.38	47437.98
615.54	47040.09
615.69	47468.40
615.84	47290.52
616.00	47262.44
616.15	47416.91
616.30	47136.05
616.46	47019.02
616.61	47042.43
616.76	47014.34
616.92	46724.11
617.07	47103.28
617.22	47126.69
617.37	46499.42
617.53	47395.85
617.68	47068.17
617.83	47084.56
617.99	47105.62
618.14	47625.22
618.29	46848.16
618.45	46742.84
618.60	46630.49
618.75	46988.60
618.90	46855.18
619.06	46784.97
619.21	46960.51
619.36	46770.93
619.51	46756.88
619.67	46595.38
619.82	46717.09
619.97	46937.10
620.12	46380.06
620.28	46902.00
620.43	46864.55
620.58	46916.04
620.73	46696.03
620.89	46934.76
621.04	46623.47
621.19	46941.78
621.34	46450.27
621.49	46681.98
621.65	46258.35
621.80	46607.09
621.95	46330.90
622.10	46969.87
622.25	46525.17
622.41	46539.21
622.56	46553.26
622.71	46469.00
622.86	46263.03
623.01	46497.08
623.16	46017.27
623.32	46335.59
623.47	46571.98
623.62	46288.77
623.77	45940.04
623.92	46246.65
624.07	46564.96
624.23	46307.50
624.38	46513.47
624.53	46043.02
624.68	45839.39
624.83	45923.65
624.98	46211.54
625.13	46211.54
625.29	45879.18
625.44	46293.46
625.59	46115.58
625.74	45535.12
625.89	45375.97
626.04	45748.11
626.19	45612.36
626.34	45956.42
626.49	45364.26
626.65	45476.61
626.80	46103.87
626.95	45666.19
627.10	45116.17
627.25	46094.51
627.40	45619.38
627.55	45942.38
627.70	45317.45
627.85	45844.07
628.00	45729.39
628.15	45717.68
628.30	45249.58
628.45	45198.09
628.60	45083.40
628.76	45481.29
628.91	45563.21
629.06	45219.15
629.21	45340.86
629.36	44975.73
629.51	45095.10
629.66	45095.10
629.81	45305.75
629.96	45088.08
630.11	44964.03
630.26	45420.44
630.41	45228.51
630.56	45179.36
630.71	45003.82
630.86	45263.62
631.01	44825.94
631.16	44839.98
631.31	45074.04
631.46	44839.98
631.61	45514.06
631.76	45198.09
631.91	45158.30
632.06	45057.65
632.21	45214.47
632.36	45160.64
632.51	44828.28
632.66	45071.70
632.81	44989.78
632.96	45277.66
633.10	44603.59
633.25	44671.46
633.40	44877.43
633.55	44832.96
633.70	44425.71
633.85	44715.93
634.00	44362.51
634.15	44364.85
634.30	44212.72
634.45	44446.77
634.60	44678.49
634.75	44540.39
634.90	44512.31
635.05	44795.51
635.19	44605.93
635.34	44598.91
635.49	44601.25
635.64	44374.22
635.79	44435.07
635.94	44535.71
636.09	44608.27
636.24	44608.27
636.39	44175.27
636.53	44500.61
636.68	43812.49
636.83	43945.90
636.98	43775.04
637.13	43856.96
637.28	43868.66
637.43	43833.55
637.57	44175.27
637.72	43775.04
637.87	43908.45
638.02	43704.82
638.17	44119.10
638.32	43688.44
638.46	43674.40
638.61	43831.21
638.76	43482.47
638.91	43519.92
639.06	43538.65
639.20	43217.99
639.35	43835.89
639.50	43470.77
639.65	43814.83
639.80	44051.22
639.94	44222.08
640.09	43569.07
640.24	44067.61
640.39	43316.29
640.54	43281.19
640.68	43751.63
640.83	43910.79
640.98	43494.18
641.13	42979.26
641.27	43662.69
641.42	43290.55
641.57	43377.15
641.72	43384.17
641.86	43489.49
642.01	43178.20
642.16	43435.66
642.31	42707.76
642.45	43180.54
642.60	43124.37
642.75	43105.65
642.90	43707.16
643.04	43117.35
643.19	42981.60
643.34	42815.42
643.48	42742.86
643.63	42784.99
643.78	42831.80
643.93	42976.92
644.07	42873.93
644.22	42876.27
644.37	42899.68
644.51	43264.80
644.66	43056.50
644.81	42988.62
644.95	42829.46
645.10	42969.90
645.25	42637.54
645.39	42527.53
645.54	42534.56
645.69	42211.56
645.83	42581.37
645.98	42403.49
646.13	42871.59
646.27	42646.90
646.42	42323.91
646.57	42143.69
646.71	42567.32
646.86	43065.86
647.00	42267.73
647.15	42483.06
647.30	42440.93
647.44	42405.83
647.59	42316.89
647.74	42139.00
647.88	42403.49
648.03	43014.37
648.17	42674.99
648.32	42328.59
648.47	42415.19
648.61	42019.64
648.76	42263.05
648.90	42382.42
649.05	42146.03
649.20	42487.74
649.34	42518.17
649.49	41755.16
649.63	41764.52
649.78	42094.53
649.92	42335.61
650.07	42375.40
650.21	42384.76
650.36	42799.04
650.51	41881.55
650.65	42017.30
650.80	42211.56
650.94	41933.04
651.09	42052.41
651.23	41539.83
651.38	41408.76
651.52	41523.44
651.67	41698.98
651.81	42019.64
651.96	41577.28
652.10	41415.78
652.25	41773.88
652.39	41457.91
652.54	41195.77
652.68	41677.92
652.83	41537.49
652.97	41806.65
653.12	41876.86
653.26	41258.96
653.41	41296.41
653.55	41446.21
653.70	41605.36
653.84	41600.68
653.99	41317.48
654.13	41727.07
654.27	41385.35
654.42	41518.76
654.56	40980.44
654.71	41722.39
654.85	40818.94
655.00	41500.04
655.14	41663.88
655.29	41738.77
655.43	41539.83
655.57	40980.44
655.72	40893.84
655.86	41167.68
656.01	40968.74
656.15	40273.60
656.30	40985.12
656.44	40877.46
656.58	40900.86
656.73	40987.46
656.87	40596.59
657.01	40577.87
657.16	40856.39
657.30	41024.91
657.45	40657.45
657.59	40470.20
657.73	40603.61
657.88	40638.72
658.02	40423.39
658.16	40568.51
658.31	40556.80
658.45	40566.16
658.60	40313.39
658.74	40418.71
658.88	40493.61
659.03	40315.73
659.17	40133.17
659.31	40037.20
659.46	40357.86
659.60	40336.79
659.74	39711.87
659.89	39723.57
660.03	39576.12
660.17	39845.28
660.32	40076.99
660.46	39604.20
660.60	39594.84
660.74	40095.72
660.89	40055.93
661.03	39386.54
661.17	39704.85
661.32	39292.91
661.46	39480.16
661.60	39393.56
661.74	39215.68
661.89	39421.64
662.03	39529.31
662.17	39124.40
662.31	39187.59
662.46	38890.34
662.60	39447.39
662.74	38852.89
662.88	38902.04
663.03	38852.89
663.17	38632.88
663.31	38455.00
663.45	38508.83
663.60	39281.21
663.74	38829.49
663.88	38796.72
664.02	38422.23
664.17	38597.77
664.31	38459.68
664.45	38024.34
664.59	38689.06
664.73	38567.35
664.88	38459.68
665.02	38080.52
665.16	37979.87
665.30	38410.53
665.44	38157.75
665.59	38033.71
665.73	37521.13
665.87	37378.36
666.01	38010.30
666.15	38019.66
666.29	37890.93
666.44	38014.98
666.58	37734.12
666.72	37523.47
666.86	37596.03
667.00	37380.70
667.14	37273.03
667.28	37139.62
667.43	37294.10
667.57	37553.90
667.71	37354.95
667.85	37277.71
667.99	37432.19
668.13	37099.83
668.27	36793.22
668.41	36692.58
668.56	36519.38
668.70	36514.70
668.84	36304.05
668.98	36341.50
669.12	36418.74
669.26	37078.77
669.40	36570.87
669.54	36613.00
669.68	36065.31
669.82	36304.05
669.96	36142.55
670.10	35849.99
670.25	35880.41
670.39	36329.80
670.53	36030.21
670.67	36229.15
670.81	36004.46
670.95	35824.24
671.09	35545.72
671.23	35250.81
671.37	35634.66
671.51	35709.55
671.65	35075.27
671.79	35351.45
671.93	35482.52
672.07	35311.66
672.21	34960.58
672.35	35117.40
672.49	35079.95
672.63	35330.39
672.77	34885.68
672.91	34525.24
673.05	34899.73
673.19	34829.51
673.33	34363.75
673.47	34602.48
673.61	34515.88
673.75	34368.43
673.89	34185.86
674.03	34089.90
674.17	33811.38
674.31	33949.47
674.45	33710.74
674.59	33631.16
674.73	33883.94
674.87	33390.08
675.01	33174.75
675.15	33266.03
675.29	33277.74
675.43	33141.99
675.56	33156.03
675.70	33303.48
675.84	33322.21
675.98	31983.42
676.12	32676.22
676.26	33111.56
676.40	32826.01
676.54	32280.67
676.68	32514.72
676.82	32161.30
676.96	32510.04
677.10	32402.38
677.23	32259.60
677.37	32435.14
677.51	32212.79
677.65	31880.44
677.79	32144.92
677.93	31737.66
678.07	31768.09
678.21	31637.02
678.34	31669.79
678.48	31545.74
678.62	31180.62
678.76	31021.46
678.90	31005.08
679.04	31189.98
679.18	31159.55
679.31	30967.63
679.45	30663.36
679.59	30251.42
679.73	30703.15
679.87	30565.06
680.00	30122.69
680.14	30223.34
680.28	30389.52
680.42	30401.22
680.56	30106.31
680.70	29832.47
680.83	29694.38
680.97	29598.41
681.11	29954.18
681.25	29516.50
681.39	29418.19
681.52	29153.71
681.66	29546.92
681.80	28491.34
681.94	28477.30
682.07	28718.37
682.21	28458.57
682.35	28322.82
682.49	28407.08
682.62	28617.73
682.76	28287.71
682.90	28404.74
683.04	28140.26
683.17	28194.09
683.31	27618.32
683.45	27634.71
683.59	27515.34
683.72	27440.44
683.86	27442.78
684.00	27487.25
684.13	27555.13
684.27	27356.18
684.41	27054.25
684.55	27288.31
684.68	26948.93
684.82	26698.49
684.96	26471.46
685.09	26859.99
685.23	26958.29
685.37	26813.18
685.50	26815.52
685.64	26785.09
685.78	26274.85
685.91	26188.25
686.05	25795.04
686.19	25507.16
686.32	25799.73
686.46	25720.15
686.60	25223.95
686.73	25535.24
686.87	25558.65
687.01	25270.76
687.14	25376.09
687.28	25209.91
687.42	25429.92
687.55	24931.39
687.69	24915.00
687.82	24723.08
687.96	24381.36
688.10	24840.11
688.23	25027.35
688.37	24793.29
688.50	24809.68
688.64	24400.08
688.78	24404.77
688.91	24526.47
689.05	24283.06
689.18	23751.76
689.32	23384.29
689.46	23892.19
689.59	23569.19
689.73	23737.71
689.86	23761.12
690.00	23398.34
690.13	23344.50
690.27	23164.28
690.41	23274.29
690.54	23054.28
690.68	22974.70
690.81	22752.35
690.95	23016.83
691.08	22567.45
691.22	22611.92
691.35	22576.81
691.49	22480.85
691.62	22485.53
691.76	22230.41
691.89	21942.52
692.03	22057.21
692.16	21558.67
692.30	21837.20
692.43	21703.79
692.57	21460.37
692.70	21317.60
692.84	21727.19
692.97	21219.30
693.11	21113.97
693.24	20992.26
693.38	20781.62
693.51	20603.74
693.65	20814.38
693.78	20629.48
693.92	20262.02
694.05	20624.80
694.19	20435.22
694.32	20467.98
694.45	20540.54
694.59	20664.59
694.72	20313.51
694.86	20034.99
694.99	19922.64
695.13	19786.89
695.26	19672.20
695.39	19878.17
695.53	19613.69
695.66	19611.35
695.80	19442.83
695.93	19374.95
696.07	18974.72
696.20	19129.20
696.33	18810.89
696.47	18740.67
696.60	18773.44
696.73	18927.91
696.87	19019.19
697.00	18995.79
697.14	18504.28
697.27	18511.30
697.40	18581.51
697.54	18370.86
697.67	18384.91
697.80	18183.62
697.94	18127.45
698.07	17980.00
698.21	17830.20
698.34	18061.91
698.47	17673.39
698.61	17408.90
698.74	17385.50
698.87	17708.49
699.01	17336.35
699.14	17411.25
699.27	17373.80
699.40	17509.55
699.54	17011.01
699.67	16996.97
699.80	16950.16
699.94	16856.54
700.07	17025.06
700.20	16723.13
700.34	16472.69
700.47	16631.85
700.60	17003.99
700.73	16336.94
700.87	16365.03
701.00	16074.80
701.13	16250.34
701.26	16201.19
701.40	16292.47
701.53	15854.79
701.66	15800.96
701.79	15929.69
701.93	15536.48
702.06	15475.62
702.19	15681.59
702.32	15407.75
702.46	15122.20
702.59	15452.22
702.72	15342.21
702.85	15365.62
702.99	15482.64
703.12	15157.31
703.25	14665.80
703.38	14871.76
703.51	15089.43
703.65	14766.44
703.78	14754.74
703.91	14520.68
704.04	14555.79
704.17	14310.04
704.31	14342.80
704.44	14345.14
704.57	14485.58
704.70	14483.24
704.83	14160.24
704.96	13832.57
705.10	13891.08
705.23	13645.32
>>>>>End Processed Spectral Data<<<<<
