SpectraSuite Data File
++++++++++++++++++++++++++++++++++++
Date: Fri Oct 25 10:44:33 EDT 2013
User: price-jones
Dark Spectrum Present: No
Reference Spectrum Present: No
Number of Sampled Component Spectra: 1
Spectrometers: USB2+H05261
Integration Time (usec): 100000 (USB2+H05261)
Spectra Averaged: 1 (USB2+H05261)
Boxcar Smoothing: 0 (USB2+H05261)
Correct for Electrical Dark: No (USB2+H05261)
Strobe/Lamp Enabled: No (USB2+H05261)
Correct for Detector Non-linearity: No (USB2+H05261)
Correct for Stray Light: No (USB2+H05261)
Number of Pixels in Processed Spectrum: 2048
>>>>>Begin Processed Spectral Data<<<<<
365.73	189.58
365.92	189.58
366.12	189.58
366.32	0.00
366.52	51.49
366.72	14.04
366.91	7.02
367.11	18.72
367.31	4.68
367.51	18.72
367.70	0.00
367.90	37.45
368.10	0.00
368.30	18.72
368.49	0.00
368.69	0.00
368.89	18.72
369.09	21.06
369.28	44.47
369.48	32.77
369.68	23.41
369.87	23.41
370.07	180.22
370.27	168.52
370.47	243.42
370.66	269.16
370.86	407.25
371.06	454.06
371.25	472.79
371.45	447.04
371.65	493.85
371.84	437.68
372.04	418.96
372.24	500.87
372.44	437.68
372.63	463.43
372.83	484.49
373.03	461.09
373.22	437.68
373.42	526.62
373.62	535.98
373.81	568.75
374.01	622.58
374.21	568.75
374.40	514.92
374.60	587.47
374.79	533.64
374.99	543.00
375.19	517.26
375.38	547.69
375.58	589.82
375.78	667.05
375.97	571.09
376.17	617.90
376.37	608.54
376.56	580.45
376.76	477.47
376.95	552.37
377.15	571.09
377.35	582.79
377.54	589.82
377.74	533.64
377.93	575.77
378.13	702.16
378.33	716.20
378.52	662.37
378.72	599.18
378.91	589.82
379.11	561.73
379.31	681.10
379.50	671.73
379.70	648.33
379.89	655.35
380.09	620.24
380.28	610.88
380.48	620.24
380.68	697.48
380.87	587.47
381.07	674.07
381.26	695.14
381.46	643.65
381.65	615.56
381.85	650.67
382.04	622.58
382.24	636.63
382.43	692.80
382.63	664.71
382.83	653.01
383.02	688.12
383.22	746.63
383.41	704.50
383.61	678.76
383.80	725.57
384.00	753.65
384.19	676.41
384.39	734.93
384.58	674.07
384.78	692.80
384.97	734.93
385.17	676.41
385.36	711.52
385.56	821.53
385.75	753.65
385.95	809.83
386.14	861.32
386.34	755.99
386.53	816.85
386.72	807.48
386.92	903.45
387.11	821.53
387.31	795.78
387.50	760.67
387.70	765.36
387.89	795.78
388.09	802.80
388.28	851.96
388.48	856.64
388.67	943.24
388.86	854.30
389.06	835.57
389.25	828.55
389.45	976.00
389.64	919.83
389.84	870.68
390.03	851.96
390.22	896.43
390.42	915.15
390.61	945.58
390.81	931.53
391.00	922.17
391.19	978.34
391.39	922.17
391.58	957.28
391.78	915.15
391.97	1048.56
392.16	987.71
392.36	1034.52
392.55	938.55
392.75	968.98
392.94	978.34
393.13	922.17
393.33	910.47
393.52	987.71
393.71	1041.54
393.91	961.96
394.10	997.07
394.29	1036.86
394.49	1090.69
394.68	1179.63
394.88	1158.57
395.07	1219.42
395.26	1123.46
395.46	1142.18
395.65	1151.54
395.84	1142.18
396.04	1193.67
396.23	1186.65
396.42	1104.73
396.62	1090.69
396.81	1139.84
397.00	1146.86
397.19	1196.01
397.39	1221.76
397.58	1231.12
397.77	1198.35
397.97	1259.21
398.16	1282.61
398.35	1217.08
398.55	1240.48
398.74	1334.11
398.93	1364.53
399.12	1315.38
399.32	1373.89
399.51	1284.95
399.70	1364.53
399.90	1399.64
400.09	1366.87
400.28	1453.47
400.47	1406.66
400.67	1387.94
400.86	1474.54
401.05	1519.01
401.24	1465.18
401.44	1624.33
401.63	1563.48
401.82	1582.20
402.01	1586.88
402.21	1411.34
402.40	1582.20
402.59	1507.30
402.78	1624.33
402.97	1586.88
403.17	1661.78
403.36	1521.35
403.55	1577.52
403.74	1710.93
403.93	1603.27
404.13	1734.34
404.32	1717.95
404.51	1703.91
404.70	1767.10
404.89	1607.95
405.09	1673.48
405.28	1753.06
405.47	1856.04
405.66	1692.21
405.85	1790.51
406.05	1818.60
406.24	1746.04
406.43	1846.68
406.62	1856.04
406.81	1935.62
407.00	1823.28
407.20	1874.77
407.39	1933.28
407.58	1954.35
407.77	1949.67
407.96	1956.69
408.15	2012.86
408.34	2097.12
408.54	2069.03
408.73	2118.18
408.92	2062.01
409.11	2029.24
409.30	2200.10
409.49	2085.42
409.68	2080.74
409.87	2080.74
410.07	2183.72
410.26	2202.44
410.45	2165.00
410.64	2200.10
410.83	2354.58
411.02	2347.56
411.21	2443.52
411.40	2380.32
411.59	2333.51
411.78	2270.32
411.98	2377.98
412.17	2387.35
412.36	2406.07
412.55	2450.54
412.74	2518.42
412.93	2443.52
413.12	2455.22
413.31	2654.17
413.50	2551.18
413.69	2602.68
413.88	2647.15
414.07	2668.21
414.26	2633.10
414.45	2733.75
414.64	2644.81
414.83	2754.81
415.02	2670.55
415.22	2789.92
415.41	2782.90
415.60	2843.75
415.79	2963.12
415.98	3068.44
416.17	2956.10
416.36	2942.05
416.55	2892.90
416.74	3117.59
416.93	2970.14
417.12	3035.67
417.31	3059.08
417.50	2981.84
417.69	3119.93
417.88	3089.51
418.07	3101.21
418.26	3201.85
418.45	3049.72
418.64	3384.41
418.83	3375.05
419.02	3384.41
419.21	3346.97
419.39	3229.94
419.58	3232.28
419.77	3496.76
419.96	3372.71
420.15	3302.50
420.34	3473.36
420.53	3478.04
420.72	3473.36
420.91	3541.23
421.10	3548.25
421.29	3485.06
421.48	3428.88
421.67	3684.00
421.86	3463.99
422.05	3499.10
422.24	3475.70
422.43	3641.87
422.61	3566.98
422.80	3599.74
422.99	3545.91
423.18	3494.42
423.37	3674.64
423.56	3501.44
423.75	3557.61
423.94	3564.64
424.13	3389.10
424.32	3353.99
424.50	3630.17
424.69	3606.77
424.88	3651.24
425.07	3637.19
425.26	3513.14
425.45	3515.48
425.64	3583.36
425.83	3566.98
426.01	3613.79
426.20	3651.24
426.39	3667.62
426.58	3618.47
426.77	3758.90
426.96	3765.92
427.15	3651.24
427.33	3726.13
427.52	3854.86
427.71	3707.41
427.90	3639.53
428.09	3756.56
428.28	3918.06
428.46	3850.18
428.65	3786.99
428.84	4067.85
429.03	3983.59
429.22	3805.71
429.40	3885.29
429.59	3894.65
429.78	3625.49
429.97	3651.24
430.16	3896.99
430.34	3990.61
430.53	3918.06
430.72	3960.19
430.91	4042.11
431.10	4037.42
431.28	4299.56
431.47	4142.75
431.66	4311.27
431.85	4126.36
432.03	4180.20
432.22	4360.42
432.41	4149.77
432.60	4322.97
432.79	4234.03
432.97	4435.32
433.16	4353.40
433.35	4266.80
433.54	4320.63
433.72	4285.52
433.91	4332.33
434.10	4437.66
434.28	4372.12
434.47	4458.72
434.66	4526.60
434.85	4524.26
435.03	4519.57
435.22	4423.61
435.41	4571.07
435.59	4601.49
435.78	4608.51
435.97	4624.90
436.16	4554.68
436.34	4711.50
436.53	4652.98
436.72	4894.06
436.90	4669.37
437.09	4767.67
437.28	4652.98
437.46	4615.54
437.65	4807.46
437.84	4870.65
438.02	4912.78
438.21	4863.63
438.40	4727.88
438.58	4917.47
438.77	5011.09
438.96	4931.51
439.14	5121.09
439.33	5135.14
439.52	5280.25
439.70	5085.98
439.89	5235.78
440.08	5280.25
440.26	5350.46
440.45	5284.93
440.63	5364.51
440.82	5310.68
441.01	5371.53
441.19	5472.17
441.38	5451.11
441.57	5554.09
441.75	5680.48
441.94	5753.04
442.12	5692.18
442.31	5701.54
442.50	5788.14
442.68	5710.91
442.87	5884.11
443.05	5701.54
443.24	5891.13
443.43	5760.06
443.61	5907.51
443.80	6078.37
443.98	5851.34
444.17	5666.44
444.35	5930.92
444.54	6054.97
444.73	6029.22
444.91	6001.13
445.10	6080.71
445.28	6080.71
445.47	5769.42
445.65	5930.92
445.84	6071.35
446.02	6164.97
446.21	6047.94
446.39	5984.75
446.58	5998.79
446.77	6024.54
446.95	5909.85
447.14	6104.12
447.32	6101.78
447.51	6005.81
447.69	6101.78
447.88	6162.63
448.06	6286.68
448.25	6059.65
448.43	6106.46
448.62	6150.93
448.80	6148.59
448.99	6209.44
449.17	6260.93
449.36	6232.85
449.54	6286.68
449.73	6476.26
449.91	6413.07
450.10	6516.05
450.28	6719.68
450.46	6677.55
450.65	6633.08
450.83	6537.12
451.02	6525.41
451.20	6651.80
451.39	6609.67
451.57	6525.41
451.76	6455.20
451.94	6527.75
452.13	6553.50
452.31	6677.55
452.49	6513.71
452.68	6569.88
452.86	6661.16
453.05	6679.89
453.23	6820.32
453.42	6738.40
453.60	6576.91
453.78	6846.07
453.97	6630.74
454.15	6860.11
454.34	6780.53
454.52	6867.13
454.70	6766.49
454.89	7077.78
455.07	6855.43
455.26	6998.20
455.44	7131.61
455.62	7094.16
455.81	7218.21
455.99	7101.19
456.17	7241.62
456.36	7279.07
456.54	7304.81
456.73	7321.20
456.91	7389.07
457.09	7412.48
457.28	7576.31
457.46	7328.22
457.64	7485.03
457.83	7311.83
458.01	7276.73
458.19	7660.57
458.38	7538.87
458.56	7499.08
458.74	7616.10
458.93	7552.91
459.11	7611.42
459.29	7730.79
459.48	7812.71
459.66	7735.47
459.84	7669.94
460.03	7852.50
460.21	7878.24
460.39	7899.31
460.57	7903.99
460.76	7824.41
460.94	7932.08
461.12	7836.11
461.31	7824.41
461.49	7857.18
461.67	7992.93
461.85	8046.76
462.04	8149.75
462.22	8315.92
462.40	7936.76
462.59	8046.76
462.77	8161.45
462.95	8135.70
463.13	8234.00
463.32	8320.60
463.50	8346.35
463.68	8285.50
463.86	8341.67
464.05	8229.32
464.23	8421.25
464.41	8397.84
464.59	8105.28
464.78	8355.71
464.96	8418.91
465.14	8290.18
465.32	8641.26
465.50	8414.23
465.69	8517.21
465.87	8400.18
466.05	8528.91
466.23	8283.16
466.41	8554.66
466.60	8791.05
466.78	8355.71
466.96	8538.27
467.14	8610.83
467.32	8510.19
467.51	8557.00
467.69	8580.40
467.87	8589.77
468.05	8823.82
468.23	8741.90
468.41	8713.81
468.60	9015.74
468.78	8943.19
468.96	8690.41
469.14	8919.78
469.32	9132.77
469.50	8765.31
469.69	9071.92
469.87	9153.84
470.05	9013.40
470.23	9057.87
470.41	9181.92
470.59	9071.92
470.77	9008.72
470.95	9186.60
471.14	9334.06
471.32	9195.96
471.50	9516.62
471.68	9394.91
471.86	9628.96
472.04	9458.10
472.22	9692.16
472.40	9638.33
472.58	9537.68
472.77	9795.14
472.95	9605.56
473.13	10129.84
473.31	9621.94
473.49	9760.03
473.67	9799.82
473.85	9916.85
474.03	10204.74
474.21	10076.01
474.39	10216.44
474.57	10237.50
474.75	10228.14
474.93	10349.85
475.12	10221.12
475.30	10310.06
475.48	10373.25
475.66	10406.02
475.84	10281.97
476.02	10803.91
476.20	10593.26
476.38	10721.99
476.56	11033.29
476.74	11044.99
476.92	10827.32
477.10	10995.84
477.28	11204.14
477.46	11129.25
477.64	11267.34
477.82	11407.77
478.00	11824.39
478.18	11754.17
478.36	11592.67
478.54	11667.57
478.72	11728.42
478.90	12018.65
479.08	12037.38
479.26	11836.09
479.44	12453.99
479.62	12327.60
479.80	12304.20
479.98	12241.00
480.16	12627.19
480.34	12339.30
480.52	12620.17
480.70	12578.04
480.88	12659.96
481.06	12837.84
481.24	12938.48
481.41	12950.18
481.59	13422.97
481.77	13242.75
481.95	13413.61
482.13	13488.51
482.31	13383.18
482.49	13865.33
482.67	13778.73
482.85	13764.69
483.03	14078.32
483.21	14075.98
483.39	14242.16
483.57	14377.91
483.74	14609.62
483.92	14450.47
484.10	14359.19
484.28	14492.60
484.46	14768.78
484.64	15042.62
484.82	14768.78
485.00	15152.63
485.18	15414.77
485.35	15349.23
485.53	15119.86
485.71	15096.46
485.89	15426.47
486.07	15335.19
486.25	15798.62
486.43	15604.35
486.61	15868.83
486.78	15910.96
486.96	16266.72
487.14	16493.76
487.32	16306.51
487.50	16720.79
487.68	16982.93
487.85	16917.39
488.03	17336.35
488.21	17312.94
488.39	17338.69
488.57	17436.99
488.75	17436.99
488.92	17799.77
489.10	17963.61
489.28	18483.21
489.46	18396.61
489.64	18136.81
489.81	18700.88
489.99	18691.52
490.17	18775.78
490.35	18927.91
490.53	19016.85
490.70	19019.19
490.88	18909.19
491.06	19524.75
491.24	19021.53
491.41	19623.05
491.59	19541.13
491.77	19491.98
491.95	19908.60
492.13	19913.28
492.30	19655.82
492.48	20390.75
492.66	20645.87
492.84	20084.14
493.01	20713.74
493.19	20610.76
493.37	20496.07
493.54	20950.14
493.72	20713.74
493.90	21284.83
494.08	21333.98
494.25	21666.34
494.43	21504.84
494.61	21841.88
494.79	21743.58
494.96	21790.39
495.14	21954.22
495.32	22408.29
495.49	22356.80
495.67	22398.93
495.85	22593.19
496.02	22520.63
496.20	23044.91
496.38	22616.60
496.55	22794.48
496.73	23463.87
496.91	23122.15
497.09	23459.19
497.26	23049.60
497.44	23288.33
497.62	23456.85
497.79	23714.31
497.97	23651.11
498.14	23957.72
498.32	23985.81
498.50	24105.18
498.67	24067.73
498.85	24435.19
499.03	24673.93
499.20	24561.58
499.38	24568.60
499.56	24727.76
499.73	24987.56
499.91	24779.25
500.08	25270.76
500.26	24669.25
500.44	24922.02
500.61	25167.78
500.79	24664.57
500.97	25078.84
501.14	25666.31
501.32	25401.83
501.49	25495.46
501.67	25420.56
501.84	26029.10
502.02	25832.49
502.20	25717.81
502.37	26146.12
502.55	25984.63
502.72	26242.09
502.90	26691.47
503.07	26586.15
503.25	26513.59
503.43	26319.32
503.60	26450.39
503.78	26417.63
503.95	26544.02
504.13	27035.53
504.30	26874.03
504.48	26586.15
504.65	26799.13
504.83	27239.15
505.01	27786.84
505.18	27339.80
505.36	27929.61
505.53	27470.87
505.71	27899.19
505.88	27777.48
506.06	27178.30
506.23	27840.67
506.41	27501.29
506.58	27878.12
506.76	27838.33
506.93	28154.30
507.11	28264.31
507.28	28421.13
507.46	28479.64
507.63	28191.75
507.81	28435.17
507.98	28627.09
508.16	29034.35
508.33	28793.27
508.50	28828.38
508.68	28765.18
508.85	29394.79
509.03	29064.77
509.20	29179.46
509.38	29591.39
509.55	29565.65
509.73	29366.70
509.90	29710.76
510.08	29563.31
510.25	29530.54
510.42	29809.06
510.60	29741.19
510.77	30008.01
510.95	30230.36
511.12	30192.91
511.30	30302.92
511.47	30387.18
511.64	30703.15
511.82	30834.22
511.99	30309.94
512.17	30586.12
512.34	30639.95
512.51	30759.32
512.69	30995.71
512.86	31019.12
513.04	30993.37
513.21	30724.21
513.38	31105.72
513.56	30665.70
513.73	30895.07
513.90	31197.00
514.08	31012.10
514.25	31452.12
514.43	31150.19
514.60	31311.69
514.77	31330.41
514.95	31798.52
515.12	31791.50
515.29	31845.33
515.47	31751.71
515.64	31988.10
515.81	32072.36
515.99	31625.32
516.16	32053.64
516.33	31903.84
516.51	31840.65
516.68	31894.48
516.85	31922.57
517.03	31866.39
517.20	32329.82
517.37	32493.66
517.54	32470.25
517.72	32486.64
517.89	32748.78
518.06	32397.70
518.24	32519.40
518.41	32589.62
518.58	32788.56
518.75	32762.82
518.93	33233.27
519.10	33015.60
519.27	33345.61
519.45	33446.26
519.62	33247.31
519.79	33483.70
519.96	33684.99
520.14	33259.01
520.31	33205.18
520.48	33783.29
520.65	33614.77
520.83	34031.39
521.00	33975.22
521.17	33797.34
521.34	34632.91
521.52	33778.61
521.69	33961.17
521.86	34218.63
522.03	34195.23
522.20	34403.53
522.38	34501.84
522.55	34609.50
522.72	34586.10
522.89	34700.78
523.07	34895.05
523.24	34745.25
523.41	34881.00
523.58	34965.26
523.75	35047.18
523.92	35108.04
524.10	35297.62
524.27	35349.11
524.44	35512.95
524.61	35545.72
524.78	35548.06
524.96	35461.46
525.13	35510.61
525.30	36009.14
525.47	35892.12
525.64	36020.84
525.81	35922.54
525.98	35548.06
526.16	35562.10
526.33	35496.56
526.50	35688.49
526.67	35758.70
526.84	35683.81
527.01	35707.21
527.18	36254.90
527.36	35711.89
527.53	36357.88
527.70	36268.94
527.87	36664.49
528.04	36416.40
528.21	36545.12
528.38	36643.43
528.55	36935.99
528.72	36744.07
528.89	36657.47
529.07	36952.38
529.24	36713.64
529.41	37359.63
529.58	36830.67
529.75	36882.16
529.92	37167.71
530.09	37177.07
530.26	37088.13
530.43	37689.65
530.60	37017.91
530.77	37081.11
530.94	37462.61
531.11	37256.65
531.28	37619.43
531.46	37649.86
531.63	37579.64
531.80	37511.77
531.97	37699.01
532.14	37654.54
532.31	37350.27
532.48	37703.69
532.65	38005.62
532.82	37930.72
532.99	37729.44
533.16	37839.44
533.33	37855.82
533.50	38127.33
533.67	37825.40
533.84	37963.49
534.01	37926.04
534.18	37942.42
534.35	38410.53
534.52	38234.99
534.69	38583.73
534.86	38417.55
535.03	38731.18
535.20	38492.45
535.37	39323.34
535.54	39058.86
535.71	38546.28
535.88	38834.17
536.05	38939.49
536.22	38913.75
536.38	38319.25
536.55	38646.93
536.72	38953.54
536.89	38906.73
537.06	38918.43
537.23	39192.27
537.40	39056.52
537.57	39185.25
537.74	39248.44
537.91	39292.91
538.08	39309.30
538.25	39044.82
538.42	39290.57
538.59	39702.51
538.75	39328.02
538.92	39442.71
539.09	39208.65
539.26	39541.01
539.43	39927.20
539.60	39398.24
539.77	39463.77
539.94	39559.73
540.11	39384.19
540.28	39878.05
540.44	39632.29
540.61	39840.60
540.78	39454.41
540.95	39716.55
541.12	39592.50
541.29	40091.04
541.46	39959.97
541.62	40140.19
541.79	39880.39
541.96	40151.89
542.13	40030.18
542.30	40088.70
542.47	40203.38
542.63	40245.51
542.80	40247.85
542.97	40182.32
543.14	41329.18
543.31	41038.95
543.48	40847.03
543.64	41518.76
543.81	41102.15
543.98	41249.60
544.15	40704.26
544.32	41013.21
544.48	41088.10
544.65	41256.62
544.82	41132.57
544.99	40549.78
545.16	41502.38
545.32	40938.31
545.49	41804.31
545.66	41347.90
545.83	41628.77
546.00	41338.54
546.16	41572.60
546.33	40769.79
546.50	41219.17
546.67	40975.76
546.83	41113.85
547.00	41471.95
547.17	41298.75
547.34	41378.33
547.50	41502.38
547.67	42279.44
547.84	41745.80
548.00	41778.56
548.17	42234.97
548.34	42052.41
548.51	42043.04
548.67	42349.65
548.84	42089.85
549.01	41771.54
549.18	41528.13
549.34	41909.63
549.51	42314.55
549.68	41968.15
549.84	41886.23
550.01	42501.79
550.18	41928.36
550.34	42117.94
550.51	42319.23
550.68	42110.92
550.84	42178.79
551.01	42597.75
551.18	42232.63
551.34	42089.85
551.51	42403.49
551.68	42459.66
551.84	42464.34
552.01	42110.92
552.18	42712.44
552.34	42160.07
552.51	42803.72
552.68	42520.51
552.84	42806.06
553.01	42960.53
553.18	42595.41
553.34	42513.49
553.51	42686.69
553.67	42511.15
553.84	42883.30
554.01	42934.79
554.17	43026.07
554.34	43545.67
554.51	43058.84
554.67	43505.88
554.84	43636.95
555.00	42967.55
555.17	42969.90
555.33	43157.14
555.50	43096.28
555.67	43021.39
555.83	43306.93
556.00	43271.82
556.16	43807.81
556.33	43250.76
556.50	42913.72
556.66	43660.35
556.83	43447.36
556.99	43636.95
557.16	43648.65
557.32	43213.31
557.49	43503.54
557.65	43260.12
557.82	43278.85
557.98	43594.82
558.15	43423.96
558.32	43868.66
558.48	43311.61
558.65	43269.48
558.81	43562.05
558.98	43454.39
559.14	43805.47
559.31	43494.18
559.47	43421.62
559.64	44034.84
559.80	43906.11
559.97	43419.28
560.13	43746.95
560.30	43899.09
560.46	43430.98
560.63	43592.48
560.79	43908.45
560.96	43873.34
561.12	43945.90
561.29	43978.67
561.45	44048.88
561.61	43346.72
561.78	43758.66
561.94	43859.30
562.11	43817.17
562.27	43756.32
562.44	43861.64
562.60	44016.11
562.77	44292.30
562.93	44364.85
563.10	44268.89
563.26	43892.07
563.42	43873.34
563.59	43688.44
563.75	44336.77
563.92	44158.89
564.08	44498.26
564.24	43873.34
564.41	44123.78
564.57	43957.60
564.74	43770.36
564.90	44184.63
565.07	43889.73
565.23	44144.84
565.39	44226.76
565.56	44116.76
565.72	44154.21
565.88	43957.60
566.05	44477.20
566.21	44472.52
566.38	44208.04
566.54	44479.54
566.70	44491.24
566.87	44495.92
567.03	44463.16
567.19	44470.18
567.36	44320.38
567.52	43676.74
567.68	44435.07
567.85	43955.26
568.01	44367.20
568.17	44701.89
568.34	44720.62
568.50	44177.61
568.66	44294.64
568.83	44266.55
568.99	43929.51
569.15	44261.87
569.32	44079.31
569.48	43793.76
569.64	44882.11
569.81	44563.80
569.97	44804.88
570.13	44807.22
570.30	43995.05
570.46	43901.43
570.62	44491.24
570.78	44512.31
570.95	44135.48
571.11	44507.63
571.27	44465.50
571.43	44201.02
571.60	44495.92
571.76	44528.69
571.92	44395.28
572.09	44470.18
572.25	44573.16
572.41	44367.20
572.57	44395.28
572.74	44816.58
572.90	44533.37
573.06	44870.41
573.22	44435.07
573.38	44847.00
573.55	44477.20
573.71	44528.69
573.87	44402.30
574.03	44533.37
574.20	44507.63
574.36	44474.86
574.52	44863.39
574.68	44367.20
574.84	44205.70
575.01	44374.22
575.17	44626.99
575.33	44231.44
575.49	44442.09
575.65	44708.91
575.82	44617.63
575.98	44172.93
576.14	44910.20
576.30	44891.48
576.46	44807.22
576.62	44285.28
576.79	44720.62
576.95	44083.99
577.11	44842.32
577.27	44790.83
577.43	44362.51
577.59	44804.88
577.75	45113.83
577.92	44430.39
578.08	44196.34
578.24	44605.93
578.40	44463.16
578.56	44673.81
578.72	44781.47
578.88	44809.56
579.04	44516.99
579.21	44746.36
579.37	44767.43
579.53	45155.96
579.69	44563.80
579.85	44484.22
580.01	44306.34
580.17	44690.19
580.33	44872.75
580.49	44781.47
580.65	45462.57
580.82	44704.23
580.98	44737.00
581.14	44512.31
581.30	44753.38
581.46	45254.26
581.62	45013.18
581.78	44797.85
581.94	44868.07
582.10	44596.57
582.26	44797.85
582.42	44547.42
582.58	44697.21
582.74	44699.55
582.90	44968.71
583.06	44994.46
583.22	45265.96
583.38	45081.06
583.54	44933.60
583.70	44921.90
583.86	44416.35
584.02	44374.22
584.18	44568.48
584.34	44957.01
584.50	45172.34
584.66	44774.45
584.82	44669.12
584.98	45090.42
585.14	45294.05
585.30	44837.64
585.46	44477.20
585.62	44634.02
585.78	44741.68
585.94	44755.72
586.10	44329.75
586.26	44975.73
586.42	44856.37
586.58	44971.05
586.74	44666.78
586.90	44879.77
587.06	44563.80
587.22	44725.30
587.38	44123.78
587.54	44924.24
587.70	44844.66
587.86	45048.29
588.02	44889.13
588.18	45088.08
588.34	44449.11
588.49	44577.84
588.65	44601.25
588.81	44825.94
588.97	44563.80
589.13	44189.31
589.29	45097.44
589.45	44720.62
589.61	44671.46
589.77	45249.58
589.93	44774.45
590.08	44685.51
590.24	44921.90
590.40	44652.74
590.56	45364.26
590.72	45055.31
590.88	45015.52
591.04	45287.03
591.20	45668.53
591.35	45167.66
591.51	45326.81
591.67	45076.38
591.83	45104.46
591.99	44952.33
592.15	45165.32
592.31	45172.34
592.46	44999.14
592.62	44847.00
592.78	45099.78
592.94	45387.67
593.10	45001.48
593.26	45109.14
593.41	44795.51
593.57	45034.25
593.73	44804.88
593.89	45076.38
594.05	44882.11
594.20	45015.52
594.36	45315.11
594.52	45020.20
594.68	45097.44
594.84	45347.88
594.99	45502.35
595.15	45263.62
595.31	45282.34
595.47	44985.10
595.62	45530.44
595.78	45034.25
595.94	45364.26
596.10	45336.18
596.25	45221.49
596.41	45308.09
596.57	45474.27
596.73	45420.44
596.88	44863.39
597.04	45017.86
597.20	45336.18
597.36	44875.09
597.51	45474.27
597.67	45497.67
597.83	44938.29
597.99	45263.62
598.14	45593.64
598.30	45298.73
598.46	44835.30
598.61	45296.39
598.77	44547.42
598.93	45106.80
599.09	45170.00
599.24	45801.94
599.40	45490.65
599.56	45670.87
599.71	45111.49
599.87	45560.87
600.03	45595.98
600.18	45338.52
600.34	45441.50
600.50	45282.34
600.65	45230.85
600.81	45514.06
600.97	45352.56
601.12	45375.97
601.28	45067.02
601.44	44952.33
601.59	44856.37
601.75	45083.40
601.91	45095.10
602.06	44559.12
602.22	45050.63
602.37	44854.03
602.53	44954.67
602.69	45315.11
602.84	45027.23
603.00	45001.48
603.16	45179.36
603.31	45116.17
603.47	45277.66
603.62	44985.10
603.78	45153.62
603.94	44987.44
604.09	45724.71
604.25	45102.12
604.40	45052.97
604.56	45509.38
604.71	45172.34
604.87	45216.81
605.03	44947.65
605.18	45408.73
605.34	45492.99
605.49	45354.90
605.65	45017.86
605.80	44912.54
605.96	44978.07
606.12	44711.25
606.27	45345.54
606.43	45083.40
606.58	45158.30
606.74	44957.01
606.89	45081.06
607.05	45003.82
607.20	44949.99
607.36	44935.95
607.51	45059.99
607.67	44858.71
607.82	45055.31
607.98	44964.03
608.13	44865.73
608.29	44755.72
608.44	44315.70
608.60	44402.30
608.75	44296.98
608.91	45160.64
609.06	44659.76
609.22	44507.63
609.37	44706.57
609.53	44645.72
609.68	44861.05
609.84	44430.39
609.99	44626.99
610.15	44629.34
610.30	44839.98
610.46	44280.60
610.61	44800.19
610.76	44329.75
610.92	44470.18
611.07	44856.37
611.23	44973.39
611.38	44074.63
611.54	44369.54
611.69	44406.98
611.84	44524.01
612.00	44318.04
612.15	44210.38
612.31	44107.40
612.46	43966.96
612.62	44498.26
612.77	44617.63
612.92	44729.98
613.08	44217.40
613.23	44217.40
613.39	44334.43
613.54	43751.63
613.69	44137.82
613.85	44385.92
614.00	44287.62
614.15	44512.31
614.31	44224.42
614.46	44727.64
614.62	43817.17
614.77	44254.85
614.92	44046.54
615.08	43805.47
615.23	44177.61
615.38	44301.66
615.54	43688.44
615.69	44128.46
615.84	43702.48
616.00	43866.32
616.15	44266.55
616.30	43934.20
616.46	44034.84
616.61	43859.30
616.76	43941.22
616.92	43548.01
617.07	43405.23
617.22	43016.71
617.37	43358.42
617.53	43777.38
617.68	43969.30
617.83	43686.10
617.99	43676.74
618.14	43526.94
618.29	43880.36
618.45	42995.64
618.60	43550.35
618.75	43814.83
618.90	43552.69
619.06	43683.76
619.21	43735.25
619.36	43723.55
619.51	43398.21
619.67	43531.62
619.82	43576.09
619.97	43838.23
620.12	43435.66
620.28	43262.46
620.43	43613.54
620.58	43386.51
620.73	43636.95
620.89	43107.99
621.04	42972.24
621.19	42782.65
621.34	43058.84
621.49	43236.72
621.65	42934.79
621.80	42967.55
621.95	42887.98
622.10	42981.60
622.25	42738.18
622.41	42258.37
622.56	42609.45
622.71	42895.00
622.86	42384.76
623.01	42590.73
623.16	42869.25
623.32	42810.74
623.47	42890.32
623.62	42513.49
623.77	42862.23
623.92	42625.84
624.07	42522.85
624.23	42244.33
624.38	42452.64
624.53	42288.80
624.68	42440.93
624.83	42674.99
624.98	42663.28
625.13	42087.51
625.29	42417.53
625.44	42682.01
625.59	42199.86
625.74	41858.14
625.89	41949.42
626.04	41972.83
626.19	42504.13
626.34	41989.21
626.49	42202.20
626.65	42340.29
626.80	42604.77
626.95	42045.38
627.10	42326.25
627.25	41729.41
627.40	42005.59
627.55	41734.09
627.70	41673.24
627.85	41713.03
628.00	41439.18
628.15	41603.02
628.30	41773.88
628.45	41972.83
628.60	41755.16
628.76	41471.95
628.91	42139.00
629.06	41867.50
629.21	41670.90
629.36	41741.11
629.51	41439.18
629.66	41390.03
629.81	41343.22
629.96	41762.18
630.11	41614.72
630.26	41724.73
630.41	41787.92
630.56	41631.11
630.71	41588.98
630.86	41429.82
631.01	41282.37
631.16	41216.83
631.31	41401.74
631.46	41172.36
631.61	41085.76
631.76	41434.50
631.91	41247.26
632.06	41521.10
632.21	41469.61
632.36	41493.02
632.51	40790.86
632.66	40875.12
632.81	40687.87
632.96	40987.46
633.10	40718.30
633.25	41184.07
633.40	40940.65
633.55	40919.59
633.70	40690.21
633.85	40446.80
634.00	40769.79
634.15	40652.76
634.30	41406.42
634.45	40659.79
634.60	40765.11
634.75	40832.99
634.90	39999.76
635.05	40467.86
635.19	40458.50
635.34	40612.98
635.49	40435.10
635.64	40617.66
635.79	40065.29
635.94	40535.74
636.09	40325.09
636.24	40205.72
636.39	39948.26
636.53	40505.31
636.68	39917.84
636.83	40451.48
636.98	40184.66
637.13	40407.01
637.28	40308.71
637.43	40683.19
637.57	40194.02
637.72	40495.95
637.87	39896.77
638.02	40191.68
638.17	40069.97
638.32	40179.98
638.46	39737.62
638.61	39988.05
638.76	39777.40
638.91	40477.22
639.06	39906.13
639.20	40114.44
639.35	40172.96
639.50	40163.59
639.65	40196.36
639.80	40081.67
639.94	39711.87
640.09	40044.23
640.24	39594.84
640.39	39428.66
640.54	39667.40
640.68	39634.63
640.83	39959.97
640.98	39641.65
641.13	39234.40
641.27	39976.35
641.42	39571.44
641.57	39175.89
641.72	39388.88
641.86	39391.22
642.01	39302.28
642.16	39075.24
642.31	38885.66
642.45	39541.01
642.60	39098.65
642.75	39002.69
642.90	39526.97
643.04	39241.42
643.19	39278.87
643.34	38866.94
643.48	38560.33
643.63	38834.17
643.78	38705.44
643.93	39009.71
644.07	39269.51
644.22	38876.30
644.37	38494.79
644.51	39030.77
644.66	39379.51
644.81	39264.83
644.95	38969.92
645.10	39065.88
645.25	39585.48
645.39	39182.91
645.54	39068.22
645.69	39061.20
645.83	39070.56
645.98	38520.54
646.13	38782.68
646.27	38644.59
646.42	38813.10
646.57	38426.92
646.71	38618.84
646.86	38899.70
647.00	38567.35
647.15	39304.62
647.30	38682.03
647.44	38738.21
647.59	38419.89
647.74	38525.22
647.88	38438.62
648.03	38773.31
648.17	38969.92
648.32	38302.87
648.47	38209.25
648.61	38099.24
648.76	38670.33
648.90	38419.89
649.05	38249.03
649.20	38162.43
649.34	38387.13
649.49	38239.67
649.63	37830.08
649.78	37902.64
649.92	37940.08
650.07	38232.65
650.21	38120.31
650.36	38050.09
650.51	38150.73
650.65	37912.00
650.80	38494.79
650.94	38288.82
651.09	38096.90
651.23	37968.17
651.38	38171.80
651.52	37907.32
651.67	37893.27
651.81	38075.84
651.96	37750.50
652.10	37666.24
652.25	37507.08
652.39	37621.77
652.54	37668.58
652.68	37530.49
652.83	37986.89
652.97	38136.69
653.12	37376.01
653.26	37055.36
653.41	37708.37
653.55	37560.92
653.70	37125.58
653.84	37184.09
653.99	37652.20
654.13	37591.34
654.27	37179.41
654.42	36870.46
654.56	37097.49
654.71	37495.38
654.85	37500.06
655.00	37361.97
655.14	37165.37
655.29	37001.53
655.43	36987.49
655.57	36823.65
655.72	36959.40
655.86	37053.02
656.01	37085.79
656.15	36423.42
656.30	37071.75
656.44	36828.33
656.58	36755.77
656.73	36718.32
656.87	36629.38
657.01	36587.25
657.16	36973.44
657.30	36765.14
657.45	36748.75
657.59	36690.24
657.73	36322.77
657.88	37076.43
658.02	36793.22
658.16	36919.61
658.31	36854.08
658.45	36463.21
658.60	36161.28
658.74	36786.20
658.88	36353.20
659.03	36526.40
659.17	36563.85
659.31	36297.03
659.46	36769.82
659.60	36514.70
659.74	36313.41
659.89	36273.62
660.03	35864.03
660.17	35967.01
660.32	35833.60
660.46	36437.46
660.60	36154.26
660.74	36273.62
660.89	36109.78
661.03	35480.18
661.17	35772.75
661.32	35459.12
661.46	35681.47
661.60	35501.25
661.74	35857.01
661.89	35545.72
662.03	35739.98
662.17	35173.57
662.31	35267.19
662.46	35695.51
662.60	35463.80
662.74	35487.20
662.88	35016.75
663.03	35002.71
663.17	34953.56
663.31	34946.54
663.45	34679.72
663.60	34785.04
663.74	35000.37
663.88	35215.70
664.02	34749.93
664.17	34801.43
664.31	34604.82
664.45	34890.37
664.59	34998.03
664.73	34668.02
664.88	34370.77
665.02	34387.15
665.16	34265.44
665.30	34370.77
665.44	34293.53
665.59	33937.77
665.73	33968.19
665.87	34305.23
666.01	34450.35
666.15	34181.18
666.29	34211.61
666.44	34024.37
666.58	34597.80
666.72	33825.42
666.86	33935.43
667.00	33832.44
667.14	33640.52
667.28	33596.05
667.43	33565.62
667.57	33680.31
667.71	33722.44
667.85	33783.29
667.99	33450.94
668.13	33727.12
668.27	33406.47
668.41	33235.61
668.56	33055.39
668.70	33383.06
668.84	33413.49
668.98	32767.50
669.12	33392.42
669.26	32514.72
669.40	32526.42
669.54	32772.18
669.68	32676.22
669.82	32613.02
669.96	32961.76
670.10	32278.33
670.25	32861.12
670.39	32751.12
670.53	32547.49
670.67	32205.77
670.81	32313.44
670.95	32107.47
671.09	32378.97
671.23	32055.98
671.37	32238.54
671.51	32318.12
671.65	32198.75
671.79	31901.50
671.93	31683.83
672.07	32030.23
672.21	31969.38
672.35	31543.40
672.49	31693.19
672.63	31974.06
672.77	32051.30
672.91	31482.55
673.05	31524.68
673.19	31187.64
673.33	31384.24
673.47	31316.37
673.61	30909.11
673.75	31030.82
673.89	30906.77
674.03	31012.10
674.17	30862.30
674.31	30848.26
674.45	30693.79
674.59	30775.70
674.73	30827.20
674.87	30572.08
675.01	30335.68
675.15	30759.32
675.29	30698.47
675.43	30213.98
675.56	30054.82
675.70	30356.75
675.84	30274.83
675.98	29277.76
676.12	29752.89
676.26	30249.08
676.40	29755.23
676.54	29867.58
676.68	29729.48
676.82	29046.05
676.96	29642.88
677.10	29628.84
677.23	29090.52
677.37	29593.73
677.51	29450.96
677.65	28802.63
677.79	28634.11
677.93	29036.69
678.07	28561.56
678.21	28243.24
678.34	28519.43
678.48	28313.46
678.62	28556.88
678.76	27840.67
678.90	27850.03
679.04	27653.43
679.18	27843.01
679.31	27513.00
679.45	27683.86
679.59	27480.23
679.73	27791.52
679.87	27328.10
680.00	27274.26
680.14	27424.06
680.28	27187.66
680.42	27379.59
680.56	27648.75
680.70	26918.50
680.83	27339.80
680.97	27199.37
681.11	27372.57
681.25	26693.81
681.39	26541.68
681.52	26651.68
681.66	26661.04
681.80	26625.93
681.94	26263.15
682.07	26291.24
682.21	26324.01
682.35	25954.20
682.49	25949.52
682.62	26295.92
682.76	25883.98
682.90	25701.42
683.04	25776.32
683.17	25102.25
683.31	25415.88
683.45	25699.08
683.59	25289.49
683.72	25034.37
683.86	24636.48
684.00	25352.68
684.13	25209.91
684.27	24989.90
684.41	24809.68
684.55	24610.73
684.68	24641.16
684.82	24491.37
684.96	24549.88
685.09	24575.62
685.23	24383.70
685.37	24416.47
685.50	24606.05
685.64	24362.64
685.78	24116.88
685.91	23737.71
686.05	23819.63
686.19	23662.82
686.32	23756.44
686.46	23161.94
686.60	23293.01
686.73	22979.38
686.87	22960.66
687.01	22991.08
687.14	23096.41
687.28	22927.89
687.42	22932.57
687.55	22494.89
687.69	23140.88
687.82	22911.50
687.96	22623.62
688.10	22824.90
688.23	22518.29
688.37	22244.45
688.50	22094.66
688.64	22024.44
688.78	21954.22
688.91	22265.52
689.05	22394.25
689.18	22054.87
689.32	21535.27
689.46	21687.40
689.59	21837.20
689.73	21591.44
689.86	21612.51
690.00	21656.98
690.13	21331.64
690.27	21343.35
690.41	21256.75
690.54	21177.17
690.68	21231.00
690.81	21003.97
690.95	20861.19
691.08	21036.74
691.22	20896.30
691.35	20954.82
691.49	20915.03
691.62	20538.20
691.76	20439.90
691.89	20465.64
692.03	20585.01
692.16	20393.09
692.30	20107.54
692.43	19885.19
692.57	20046.69
692.70	19992.86
692.84	20114.56
692.97	19932.00
693.11	19576.24
693.24	19555.18
693.38	19389.00
693.51	19548.15
693.65	19662.84
693.78	19606.67
693.92	19557.52
694.05	19136.22
694.19	18984.09
694.32	18937.27
694.45	18911.53
694.59	18799.18
694.72	18333.42
694.86	18780.46
694.99	18537.04
695.13	18565.13
695.26	18424.70
695.39	18443.42
695.53	18284.26
695.66	18377.89
695.80	18462.15
695.93	18319.37
696.07	17909.78
696.20	18200.01
696.33	17886.37
696.47	17898.08
696.60	17954.25
696.73	17783.39
696.87	17575.08
697.00	17509.55
697.14	17502.53
697.27	17376.14
697.40	17317.62
697.54	17291.88
697.67	17011.01
697.80	17057.82
697.94	16762.92
698.07	16685.68
698.21	16783.98
698.34	16872.92
698.47	16673.98
698.61	16475.03
698.74	16180.12
698.87	16313.53
699.01	16245.66
699.14	16194.17
699.27	16065.44
699.40	16133.31
699.54	15838.41
699.67	15613.71
699.80	15892.24
699.94	16126.29
700.07	15817.34
700.20	15646.48
700.34	15506.05
700.47	15648.82
700.60	15805.64
700.73	15901.60
700.87	15550.52
701.00	15632.44
701.13	15459.24
701.26	15377.32
701.40	15220.50
701.53	15037.94
701.66	15166.67
701.79	14939.64
701.93	14836.66
702.06	14941.98
702.19	14424.72
702.32	14569.83
702.46	14750.06
702.59	14609.62
702.72	14637.71
702.85	14576.86
702.99	14644.73
703.12	14431.74
703.25	14267.91
703.38	14230.46
703.51	14111.09
703.65	13895.76
703.78	14256.20
703.91	14040.87
704.04	14092.37
704.17	13776.39
704.31	13912.14
704.44	13900.44
704.57	13645.32
704.70	13507.23
704.83	13855.97
704.96	13675.75
705.10	13748.31
705.23	13568.09
>>>>>End Processed Spectral Data<<<<<
