SpectraSuite Data File
++++++++++++++++++++++++++++++++++++
Date: Fri Oct 25 10:43:50 EDT 2013
User: price-jones
Dark Spectrum Present: No
Reference Spectrum Present: No
Number of Sampled Component Spectra: 1
Spectrometers: USB2+H05261
Integration Time (usec): 100000 (USB2+H05261)
Spectra Averaged: 1 (USB2+H05261)
Boxcar Smoothing: 0 (USB2+H05261)
Correct for Electrical Dark: No (USB2+H05261)
Strobe/Lamp Enabled: No (USB2+H05261)
Correct for Detector Non-linearity: No (USB2+H05261)
Correct for Stray Light: No (USB2+H05261)
Number of Pixels in Processed Spectrum: 2048
>>>>>Begin Processed Spectral Data<<<<<
365.73	133.41
365.92	133.41
366.12	133.41
366.32	102.98
366.52	95.96
366.72	53.83
366.91	44.47
367.11	39.79
367.31	25.75
367.51	23.41
367.70	0.00
367.90	65.54
368.10	60.85
368.30	65.54
368.49	0.00
368.69	0.00
368.89	51.49
369.09	53.83
369.28	60.85
369.48	44.47
369.68	53.83
369.87	95.96
370.07	65.54
370.27	140.43
370.47	119.37
370.66	400.23
370.86	372.15
371.06	512.58
371.25	486.83
371.45	404.91
371.65	435.34
371.84	425.98
372.04	376.83
372.24	503.22
372.44	493.85
372.63	533.64
372.83	503.22
373.03	540.66
373.22	510.24
373.42	564.07
373.62	475.13
373.81	624.92
374.01	521.94
374.21	554.71
374.40	564.07
374.60	592.16
374.79	606.20
374.99	599.18
375.19	566.41
375.38	589.82
375.58	540.66
375.78	559.39
375.97	561.73
376.17	706.84
376.37	690.46
376.56	624.92
376.76	660.03
376.95	620.24
377.15	624.92
377.35	627.26
377.54	629.60
377.74	638.97
377.93	550.03
378.13	664.71
378.33	653.01
378.52	685.78
378.72	690.46
378.91	664.71
379.11	645.99
379.31	629.60
379.50	601.52
379.70	739.61
379.89	704.50
380.09	695.14
380.28	704.50
380.48	755.99
380.68	805.14
380.87	676.41
381.07	755.99
381.26	697.48
381.46	674.07
381.65	645.99
381.85	737.27
382.04	770.04
382.24	655.35
382.43	730.25
382.63	709.18
382.83	772.38
383.02	772.38
383.22	725.57
383.41	664.71
383.61	746.63
383.80	676.41
384.00	748.97
384.19	697.48
384.39	716.20
384.58	774.72
384.78	781.74
384.97	763.01
385.17	781.74
385.36	772.38
385.56	835.57
385.75	763.01
385.95	847.27
386.14	823.87
386.34	802.80
386.53	856.64
386.72	849.61
386.92	877.70
387.11	819.19
387.31	793.44
387.50	882.38
387.70	889.40
387.89	926.85
388.09	940.90
388.28	786.42
388.48	924.51
388.67	936.21
388.86	917.49
389.06	922.17
389.25	940.90
389.45	1078.99
389.64	1001.75
389.84	1008.77
390.03	983.02
390.22	1018.13
390.42	973.66
390.61	1008.77
390.81	992.39
391.00	1050.90
391.19	1048.56
391.39	1062.60
391.58	1083.67
391.78	1118.78
391.97	1029.84
392.16	1043.88
392.36	1149.20
392.55	1043.88
392.75	917.49
392.94	997.07
393.13	999.41
393.33	1062.60
393.52	1093.03
393.71	1097.71
393.91	1146.86
394.10	1083.67
394.29	1118.78
394.49	1130.48
394.68	1203.04
394.88	1165.59
395.07	1345.81
395.26	1219.42
395.46	1310.70
395.65	1256.87
395.84	1240.48
396.04	1233.46
396.23	1181.97
396.42	1177.29
396.62	1266.23
396.81	1196.01
397.00	1235.80
397.19	1203.04
397.39	1327.08
397.58	1476.88
397.77	1320.06
397.97	1411.34
398.16	1425.39
398.35	1526.03
398.55	1521.35
398.74	1495.60
398.93	1488.58
399.12	1497.94
399.32	1472.20
399.51	1514.33
399.70	1610.29
399.90	1507.30
400.09	1582.20
400.28	1500.28
400.47	1514.33
400.67	1694.55
400.86	1614.97
401.05	1589.22
401.24	1661.78
401.44	1661.78
401.63	1612.63
401.82	1734.34
402.01	1519.01
402.21	1764.76
402.40	1827.96
402.59	1767.10
402.78	1743.70
402.97	1739.02
403.17	1802.21
403.36	1802.21
403.55	1860.73
403.74	1921.58
403.93	1884.13
404.13	1837.32
404.32	1834.98
404.51	1860.73
404.70	1980.09
404.89	1795.19
405.09	1961.37
405.28	2005.84
405.47	1944.99
405.66	1947.33
405.85	2071.37
406.05	1916.90
406.24	1954.35
406.43	2038.61
406.62	2057.33
406.81	2115.84
407.00	2165.00
407.20	2036.27
407.39	2043.29
407.58	2179.04
407.77	2172.02
407.96	2193.08
408.15	2157.97
408.34	2232.87
408.54	2272.66
408.73	2335.85
408.92	2305.43
409.11	2408.41
409.30	2356.92
409.49	2230.53
409.68	2188.40
409.87	2342.88
410.07	2328.83
410.26	2394.37
410.45	2403.73
410.64	2490.33
410.83	2581.61
411.02	2523.10
411.21	2626.08
411.40	2691.62
411.59	2665.87
411.78	2677.57
411.98	2654.17
412.17	2595.65
412.36	2705.66
412.55	2614.38
412.74	2799.28
412.93	2757.15
413.12	2731.41
413.31	2857.79
413.50	2871.84
413.69	2834.39
413.88	2871.84
414.07	2897.58
414.26	2958.44
414.45	2991.20
414.64	2857.79
414.83	3131.64
415.02	3033.33
415.22	3171.43
415.41	3286.11
415.60	3138.66
415.79	3215.90
415.98	3187.81
416.17	3243.98
416.36	3185.47
416.55	3201.85
416.74	3194.83
416.93	3241.64
417.12	3375.05
417.31	3337.60
417.50	3290.79
417.69	3375.05
417.88	3440.59
418.07	3440.59
418.26	3321.22
418.45	3456.97
418.64	3466.33
418.83	3478.04
419.02	3452.29
419.21	3653.58
419.39	3613.79
419.58	3496.76
419.77	3499.10
419.96	3611.45
420.15	3747.20
420.34	3618.47
420.53	3812.73
420.72	3866.56
420.91	3712.09
421.10	3784.65
421.29	3946.14
421.48	3733.15
421.67	3765.92
421.86	3751.88
422.05	3894.65
422.24	3751.88
422.43	3719.11
422.61	3794.01
422.80	3925.08
422.99	3833.80
423.18	3920.40
423.37	3824.44
423.56	3997.64
423.75	3906.35
423.94	3798.69
424.13	3669.96
424.32	3808.05
424.50	3941.46
424.69	3999.98
424.88	4004.66
425.07	3854.86
425.26	3794.01
425.45	3957.85
425.64	3882.95
425.83	4009.34
426.01	4007.00
426.20	4060.83
426.39	3967.21
426.58	3976.57
426.77	3885.29
426.96	4023.38
427.15	4004.66
427.33	4067.85
427.52	4044.45
427.71	4088.92
427.90	4049.13
428.09	4177.86
428.28	4212.96
428.46	4191.90
428.65	4161.47
428.84	4222.33
429.03	4252.75
429.22	4145.09
429.40	4079.55
429.59	4159.13
429.78	3969.55
429.97	3962.53
430.16	4154.45
430.34	4070.19
430.53	4114.66
430.72	4126.36
430.91	4070.19
431.10	4229.35
431.28	4440.00
431.47	4652.98
431.66	4678.73
431.85	4678.73
432.03	4713.84
432.22	4641.28
432.41	4648.30
432.60	4711.50
432.79	4716.18
432.97	4734.90
433.16	4758.31
433.35	4589.79
433.54	4645.96
433.72	4798.10
433.91	4629.58
434.10	4779.37
434.28	4830.87
434.47	4791.08
434.66	4992.36
434.85	4868.31
435.03	4940.87
435.22	4983.00
435.41	5057.90
435.59	5093.01
435.78	5064.92
435.97	5198.33
436.16	5170.24
436.34	5130.45
436.53	4926.83
436.72	5181.95
436.90	4961.94
437.09	5130.45
437.28	5221.74
437.46	5095.35
437.65	5212.37
437.84	5320.04
438.02	5160.88
438.21	5184.29
438.40	5181.95
438.58	5289.61
438.77	5486.22
438.96	5533.03
439.14	5603.24
439.33	5830.27
439.52	5738.99
439.70	5575.16
439.89	5790.49
440.08	5673.46
440.26	5638.35
440.45	5729.63
440.63	5928.58
440.82	6101.78
441.01	6040.92
441.19	6083.05
441.38	5980.07
441.57	6087.73
441.75	6218.80
441.94	6291.36
442.12	6258.59
442.31	6169.65
442.50	6251.57
442.68	6253.91
442.87	6127.52
443.05	6406.05
443.24	6466.90
443.43	6459.88
443.61	6534.78
443.80	6656.48
443.98	6429.45
444.17	6087.73
444.35	6567.54
444.54	6502.01
444.73	6590.95
444.91	6555.84
445.10	6553.50
445.28	6349.87
445.47	6408.39
445.65	6370.94
445.84	6417.75
446.02	6663.51
446.21	6518.39
446.39	6593.29
446.58	6544.14
446.77	6768.83
446.95	6602.65
447.14	6668.19
447.32	6815.64
447.51	6693.93
447.69	6525.41
447.88	6715.00
448.06	6715.00
448.25	6719.68
448.43	6757.13
448.62	6707.98
448.80	6705.63
448.99	6651.80
449.17	6963.09
449.36	6794.58
449.54	6993.52
449.73	7042.67
449.91	7115.23
450.10	7068.42
450.28	7241.62
450.46	7169.06
450.65	7323.54
450.83	7227.57
451.02	7211.19
451.20	7155.02
451.39	7194.81
451.57	7283.75
451.76	7021.61
451.94	7117.57
452.13	7239.28
452.31	7250.98
452.49	6979.48
452.68	7133.95
452.86	7089.48
453.05	7229.91
453.23	7372.69
453.42	7421.84
453.60	7258.00
453.78	7515.46
453.97	7311.83
454.15	7304.81
454.34	7410.14
454.52	7522.48
454.70	7377.37
454.89	7499.08
455.07	7414.82
455.26	7634.83
455.44	7744.83
455.62	7815.05
455.81	7623.12
455.99	7796.32
456.17	7655.89
456.36	7871.22
456.54	7889.95
456.73	7999.95
456.91	8234.00
457.09	8077.19
457.28	8051.44
457.46	7992.93
457.64	7974.21
457.83	8175.49
458.01	8135.70
458.19	8056.12
458.38	8065.49
458.56	8271.45
458.74	8395.50
458.93	8084.21
459.11	8177.83
459.29	8386.14
459.48	8327.63
459.66	8360.39
459.84	8344.01
460.03	8608.49
460.21	8615.51
460.39	8496.14
460.57	8498.49
460.76	8451.67
460.94	8524.23
461.12	8585.08
461.31	8650.62
461.49	8582.74
461.67	8748.92
461.85	8573.38
462.04	8798.07
462.22	8744.24
462.40	8812.12
462.59	9036.81
462.77	9029.79
462.95	9020.42
463.13	8758.28
463.32	8940.85
463.50	8858.93
463.68	9078.94
463.86	8741.90
464.05	8915.10
464.23	8954.89
464.41	9191.28
464.59	8884.67
464.78	9238.09
464.96	9167.88
465.14	8954.89
465.32	9158.52
465.50	9320.01
465.69	9245.12
465.87	9355.12
466.05	9210.01
466.23	9107.02
466.41	9310.65
466.60	9446.40
466.78	8982.98
466.96	9273.20
467.14	9198.31
467.32	9252.14
467.51	9401.93
467.69	9221.71
467.87	9570.45
468.05	9486.19
468.23	9240.44
468.41	9394.91
468.60	9710.88
468.78	9537.68
468.96	9682.80
469.14	9612.58
469.32	9731.95
469.50	9401.93
469.69	9891.10
469.87	9820.89
470.05	9767.06
470.23	9731.95
470.41	10017.49
470.59	9628.96
470.77	10033.88
470.95	9982.38
471.14	10134.52
471.32	9977.70
471.50	10399.00
471.68	10321.76
471.86	10377.94
472.04	10277.29
472.22	10532.41
472.40	10253.89
472.58	10162.61
472.77	10520.71
472.95	10466.88
473.13	10712.63
473.31	10616.67
473.49	10593.26
473.67	10501.98
473.85	10747.74
474.03	11150.31
474.21	11105.84
474.39	11180.74
474.57	11164.36
474.75	11194.78
474.93	11318.83
475.12	11016.90
475.30	11187.76
475.48	10972.43
475.66	11211.17
475.84	11358.62
476.02	11344.58
476.20	11482.67
476.38	11548.20
476.56	11946.09
476.74	11641.82
476.92	11566.93
477.10	11740.13
477.28	12123.98
477.46	12116.95
477.64	12201.21
477.82	12439.95
478.00	12358.03
478.18	12411.86
478.36	12386.12
478.54	12512.50
478.72	12575.70
478.90	12727.83
479.08	12772.30
479.26	13139.77
479.44	13399.57
479.62	13083.59
479.80	13317.65
479.98	13406.59
480.16	13530.64
480.34	13444.04
480.52	13652.34
480.70	13699.16
480.88	13811.50
481.06	13942.57
481.24	13811.50
481.41	14052.58
481.59	14560.47
481.77	14200.03
481.95	14167.26
482.13	14457.49
482.31	14312.38
482.49	15136.24
482.67	14792.19
482.85	15126.88
483.03	15098.80
483.21	15377.32
483.39	15522.43
483.57	15363.28
483.74	15255.61
483.92	15798.62
484.10	15543.50
484.28	15920.32
484.46	15915.64
484.64	16297.15
484.82	16152.04
485.00	16353.32
485.18	16435.24
485.35	16624.83
485.53	16159.06
485.71	16027.99
485.89	16423.54
486.07	16297.15
486.25	16449.28
486.43	16599.08
486.61	17078.89
486.78	17214.64
486.96	17287.20
487.14	17575.08
487.32	17671.04
487.50	17893.40
487.68	18174.26
487.85	18621.30
488.03	18487.89
488.21	18441.08
488.39	18483.21
488.57	18574.49
488.75	18691.52
488.92	18913.87
489.10	19262.61
489.28	19229.84
489.46	19407.72
489.64	19461.55
489.81	19992.86
489.99	20063.07
490.17	20039.67
490.35	20013.92
490.53	20383.73
490.70	20547.56
490.88	20273.72
491.06	20821.41
491.24	20680.97
491.41	20744.17
491.59	20545.22
491.77	20730.12
491.95	21022.69
492.13	21076.52
492.30	21570.38
492.48	21451.01
492.66	21776.34
492.84	21944.86
493.01	22005.72
493.19	21930.82
493.37	22291.26
493.54	22136.79
493.72	22263.18
493.90	22625.96
494.08	23119.81
494.25	23101.09
494.43	23433.44
494.61	23461.53
494.79	23300.03
494.96	23281.31
495.14	23302.37
495.32	23871.12
495.49	23662.82
495.67	24142.63
495.85	23997.51
496.02	24257.31
496.20	24575.62
496.38	24484.34
496.55	24477.32
496.73	25261.40
496.91	24898.62
497.09	24891.60
497.26	24783.93
497.44	24748.82
497.62	25127.99
497.79	25371.41
497.97	24978.20
498.14	25582.06
498.32	25425.24
498.50	25729.51
498.67	26403.58
498.85	25743.55
499.03	26106.34
499.20	26080.59
499.38	26309.96
499.56	26408.26
499.73	26064.21
499.91	26679.77
500.08	26672.74
500.26	26153.15
500.44	27028.51
500.61	26572.10
500.79	26654.02
500.97	27009.78
501.14	26962.97
501.32	27150.21
501.49	27084.68
501.67	26871.69
501.84	27316.39
502.02	27311.71
502.20	27538.74
502.37	27960.04
502.55	27613.64
502.72	28109.83
502.90	27927.27
503.07	27646.41
503.25	28016.21
503.43	27601.94
503.60	28056.00
503.78	28418.78
503.95	28173.03
504.13	28517.09
504.30	28657.52
504.48	28439.85
504.65	28882.21
504.83	29228.61
505.01	29209.89
505.18	29060.09
505.36	29280.10
505.53	29179.46
505.71	29715.44
505.88	29823.11
506.06	29500.11
506.23	29432.24
506.41	29645.23
506.58	29883.96
506.76	29759.91
506.93	30164.82
507.11	29809.06
507.28	30122.69
507.46	29954.18
507.63	29710.76
507.81	29858.21
507.98	30078.22
508.16	30312.28
508.33	30483.14
508.50	30703.15
508.68	30881.03
508.85	31065.93
509.03	30930.18
509.20	31065.93
509.38	31028.48
509.55	31302.32
509.73	31192.32
509.90	31412.33
510.08	31367.86
510.25	31669.79
510.42	31484.89
510.60	31527.02
510.77	32170.66
510.95	31782.13
511.12	32135.56
511.30	32079.38
511.47	32348.54
511.64	32451.53
511.82	32697.28
511.99	32055.98
512.17	31978.74
512.34	32308.76
512.51	32507.70
512.69	32641.11
512.86	32690.26
513.04	33013.26
513.21	32755.80
513.38	32842.40
513.56	33024.96
513.73	32856.44
513.90	32964.10
514.08	33158.37
514.25	33076.45
514.43	33207.52
514.60	32985.17
514.77	33156.03
514.95	33635.84
515.12	33387.74
515.29	33626.48
515.47	34017.35
515.64	34281.83
515.81	34227.99
515.99	33809.04
516.16	33647.54
516.33	33432.21
516.51	33916.70
516.68	33120.92
516.85	33149.01
517.03	33867.55
517.20	34096.92
517.37	34305.23
517.54	34630.57
517.72	34246.72
517.89	34300.55
518.06	33935.43
518.24	34323.96
518.41	34462.05
518.58	34480.77
518.75	34637.59
518.93	34848.24
519.10	34658.65
519.27	34803.77
519.45	34759.30
519.62	35281.24
519.79	35552.74
519.96	35306.98
520.14	35590.19
520.31	35159.53
520.48	35653.38
520.65	35438.05
520.83	36180.00
521.00	36163.62
521.17	35749.34
521.34	36182.34
521.52	36172.98
521.69	36212.77
521.86	36109.78
522.03	35985.74
522.20	36180.00
522.38	36432.78
522.55	36140.21
522.72	36301.71
522.89	36367.24
523.07	36582.57
523.24	36488.95
523.41	36996.85
523.58	36758.11
523.75	37376.01
523.92	37310.48
524.10	37067.06
524.27	37205.16
524.44	37226.22
524.61	37139.62
524.78	37532.83
524.96	37312.82
525.13	37659.22
525.30	37937.74
525.47	37668.58
525.64	37542.19
525.81	37813.70
525.98	37619.43
526.16	37125.58
526.33	37127.92
526.50	37425.17
526.67	37076.43
526.84	37134.94
527.01	37303.46
527.18	37998.60
527.36	38113.28
527.53	38380.10
527.70	38527.56
527.87	38258.40
528.04	38340.32
528.21	38132.01
528.38	38319.25
528.55	38778.00
528.72	38944.17
528.89	39189.93
529.07	39182.91
529.24	38398.83
529.41	38838.85
529.58	38663.31
529.75	38314.57
529.92	39096.31
530.09	38979.28
530.26	39213.34
530.43	39477.82
530.60	39187.59
530.77	38951.20
530.94	39431.01
531.11	39260.15
531.28	39405.26
531.46	39377.17
531.63	39847.62
531.80	39552.71
531.97	39393.56
532.14	39606.55
532.31	38988.64
532.48	39119.71
532.65	39826.56
532.82	39468.45
532.99	39878.05
533.16	39086.95
533.33	39849.96
533.50	40308.71
533.67	40058.27
533.84	40297.00
534.01	40498.29
534.18	40079.33
534.35	40577.87
534.52	40322.75
534.69	40194.02
534.86	40294.66
535.03	40566.16
535.20	40889.16
535.37	41048.32
535.54	40849.37
535.71	40671.49
535.88	40297.00
536.05	40458.50
536.22	40783.83
536.38	40697.24
536.55	40648.08
536.72	40598.93
536.89	40158.91
537.06	40830.65
537.23	40978.10
537.40	40631.70
537.57	40914.90
537.74	41397.06
537.91	40961.72
538.08	40940.65
538.25	40985.12
538.42	41284.71
538.59	41095.13
538.75	41123.21
538.92	41242.58
539.09	41656.85
539.26	41422.80
539.43	41750.48
539.60	41404.08
539.77	40994.48
539.94	41572.60
540.11	41551.53
540.28	41408.76
540.44	41647.49
540.61	41315.14
540.78	41610.04
540.95	41553.87
541.12	41425.14
541.29	41462.59
541.46	41944.74
541.62	41918.99
541.79	41738.77
541.96	41724.73
542.13	42300.50
542.30	42206.88
542.47	42036.02
542.63	42110.92
542.80	42349.65
542.97	42525.19
543.14	42752.23
543.31	42492.43
543.48	42412.85
543.64	42965.21
543.81	42857.55
543.98	42656.26
544.15	42777.97
544.32	43445.02
544.48	43115.01
544.65	42705.41
544.82	43229.69
544.99	42777.97
545.16	42806.06
545.32	42878.61
545.49	43592.48
545.66	43283.53
545.83	43805.47
546.00	43438.00
546.16	42958.19
546.33	42983.94
546.50	42939.47
546.67	42906.70
546.83	43002.66
547.00	43119.69
547.17	43517.58
547.34	43217.99
547.50	43072.88
547.67	43508.22
547.84	43295.23
548.00	43714.19
548.17	43835.89
548.34	43473.11
548.51	44095.69
548.67	44130.80
548.84	43634.61
549.01	43704.82
549.18	43613.54
549.34	43686.10
549.51	43489.49
549.68	43983.35
549.84	43887.39
550.01	44285.28
550.18	44023.14
550.34	44069.95
550.51	43863.98
550.68	43388.85
550.84	43414.60
551.01	44399.96
551.18	43817.17
551.34	43777.38
551.51	44594.23
551.68	44252.51
551.84	44217.40
552.01	44175.27
552.18	44098.03
552.34	43842.92
552.51	44474.86
552.68	43959.94
552.84	44353.15
553.01	44566.14
553.18	44292.30
553.34	44603.59
553.51	44596.57
553.67	44626.99
553.84	44877.43
554.01	45029.57
554.17	44718.28
554.34	44662.10
554.51	44350.81
554.67	44795.51
554.84	44453.79
555.00	44430.39
555.17	44662.10
555.33	44570.82
555.50	44657.42
555.67	44776.79
555.83	44563.80
556.00	44844.66
556.16	45378.31
556.33	44542.74
556.50	44690.19
556.66	44793.17
556.83	44601.25
556.99	44830.62
557.16	44783.81
557.32	44947.65
557.49	45233.19
557.65	44924.24
557.82	45048.29
557.98	44861.05
558.15	45357.24
558.32	45043.61
558.48	44587.21
558.65	44954.67
558.81	44842.32
558.98	45043.61
559.14	45088.08
559.31	44886.79
559.47	45078.72
559.64	45296.39
559.80	44762.75
559.97	45172.34
560.13	44835.30
560.30	45141.91
560.46	45230.85
560.63	45111.49
560.79	45525.76
560.96	45701.30
561.12	45525.76
561.29	45165.32
561.45	45476.61
561.61	45380.65
561.78	45549.17
561.94	45385.33
562.11	45380.65
562.27	45209.79
562.44	45247.24
562.60	45574.91
562.77	45436.82
562.93	45464.91
563.10	45722.37
563.26	45240.21
563.42	45752.79
563.59	45492.99
563.75	45312.77
563.92	45996.21
564.08	45687.26
564.24	45895.56
564.41	45729.39
564.57	45621.72
564.74	45713.00
564.90	45633.42
565.07	45815.99
565.23	45209.79
565.39	45469.59
565.56	45551.51
565.72	45249.58
565.88	45713.00
566.05	45500.01
566.21	45797.26
566.38	45705.98
566.54	45507.04
566.70	45778.54
566.87	46136.64
567.03	45563.21
567.19	46094.51
567.36	45558.53
567.52	45947.06
567.68	46202.18
567.85	45476.61
568.01	45993.87
568.17	45897.91
568.34	45895.56
568.50	46164.73
568.66	45584.27
568.83	45998.55
568.99	45469.59
569.15	45394.69
569.32	45432.14
569.48	45652.15
569.64	45766.84
569.81	45815.99
569.97	45392.35
570.13	46288.77
570.30	45500.01
570.46	45645.13
570.62	44954.67
570.78	45682.58
570.95	45553.85
571.11	45617.04
571.27	45727.05
571.43	45708.32
571.60	46174.09
571.76	45574.91
571.92	45813.65
572.09	46078.13
572.25	46052.38
572.41	45897.91
572.57	45947.06
572.74	46157.70
572.90	46115.58
573.06	46010.25
573.22	46000.89
573.38	46073.45
573.55	45928.33
573.71	46204.52
573.87	46429.21
574.03	45825.35
574.20	45818.33
574.36	46213.88
574.52	46092.17
574.68	45958.76
574.84	45933.01
575.01	46251.33
575.17	45745.77
575.33	45347.88
575.49	45614.70
575.65	46518.15
575.82	46328.56
575.98	45759.81
576.14	45855.78
576.30	46031.32
576.46	45954.08
576.62	45893.22
576.79	45879.18
576.95	45787.90
577.11	45902.59
577.27	45593.64
577.43	46150.68
577.59	45890.88
577.75	45715.34
577.92	45659.17
578.08	45539.80
578.24	45958.76
578.40	45933.01
578.56	46110.89
578.72	45968.12
578.88	46504.10
579.04	46436.23
579.21	45619.38
579.37	45947.06
579.53	45865.14
579.69	45743.43
579.85	45741.09
580.01	46078.13
580.17	46150.68
580.33	46136.64
580.49	46167.07
580.65	46014.93
580.82	46209.20
580.98	46164.73
581.14	46124.94
581.30	46302.82
581.46	46380.06
581.62	46251.33
581.78	45748.11
581.94	46698.37
582.10	46054.72
582.26	46438.57
582.42	45776.20
582.58	46085.15
582.74	45883.86
582.90	46534.53
583.06	46777.95
583.22	46476.02
583.38	46401.12
583.54	46122.60
583.70	46227.92
583.86	46351.97
584.02	46092.17
584.18	46358.99
584.34	46007.91
584.50	46059.40
584.66	45965.78
584.82	45851.09
584.98	46520.49
585.14	46017.27
585.30	46157.70
585.46	46061.74
585.62	46092.17
585.78	46021.95
585.94	45649.81
586.10	45682.58
586.26	46040.68
586.42	46333.24
586.58	46265.37
586.74	45645.13
586.90	45865.14
587.06	46349.63
587.22	46234.94
587.38	45848.75
587.54	46391.76
587.70	46476.02
587.86	46092.17
588.02	46246.65
588.18	46539.21
588.34	45794.92
588.49	45787.90
588.65	45326.81
588.81	45893.22
588.97	45832.37
589.13	45642.79
589.29	45837.05
589.45	45979.82
589.61	46045.36
589.77	46326.22
589.93	46405.80
590.08	46319.20
590.24	46263.03
590.40	46443.25
590.56	46511.13
590.72	46347.29
590.88	45977.48
591.04	46590.70
591.20	47019.02
591.35	46499.42
591.51	46990.94
591.67	46387.08
591.83	46635.17
591.99	45794.92
592.15	45963.44
592.31	46459.63
592.46	46227.92
592.62	46483.04
592.78	46422.19
592.94	46363.67
593.10	46256.01
593.26	46717.09
593.41	46527.51
593.57	45897.91
593.73	46129.62
593.89	46181.11
594.05	46354.31
594.20	46527.51
594.36	46536.87
594.52	46298.14
594.68	46307.50
594.84	46003.23
594.99	46719.43
595.15	46171.75
595.31	46469.00
595.47	46522.83
595.62	46223.24
595.78	46419.84
595.94	46506.44
596.10	47107.96
596.25	46513.47
596.41	46293.46
596.57	46419.84
596.73	46534.53
596.88	45778.54
597.04	46536.87
597.20	46464.32
597.36	46204.52
597.51	46827.10
597.67	46674.96
597.83	46429.21
597.99	46721.77
598.14	46770.93
598.30	46480.70
598.46	46155.36
598.61	46321.54
598.77	46169.41
598.93	46602.41
599.09	46686.67
599.24	46436.23
599.40	46607.09
599.56	46522.83
599.71	46328.56
599.87	46181.11
600.03	45989.19
600.18	46239.62
600.34	46160.05
600.50	46239.62
600.65	46527.51
600.81	46536.87
600.97	46146.00
601.12	46583.68
601.28	46195.15
601.44	46656.24
601.59	46225.58
601.75	46171.75
601.91	46234.94
602.06	46138.98
602.22	46337.93
602.37	46176.43
602.53	46216.22
602.69	46880.93
602.84	45933.01
603.00	46740.50
603.16	45979.82
603.31	45970.46
603.47	46401.12
603.62	46038.34
603.78	46841.14
603.94	46328.56
604.09	46927.74
604.25	46417.50
604.40	46363.67
604.56	46284.09
604.71	45975.14
604.87	46164.73
605.03	46443.25
605.18	46234.94
605.34	45738.75
605.49	45823.01
605.65	46138.98
605.80	45940.04
605.96	46307.50
606.12	46263.03
606.27	46124.94
606.43	45879.18
606.58	46190.47
606.74	46192.81
606.89	46274.73
607.05	46316.86
607.20	46174.09
607.36	46415.16
607.51	46272.39
607.67	46134.30
607.82	46337.93
607.98	45897.91
608.13	45942.38
608.29	46092.17
608.44	46068.76
608.60	45607.68
608.75	45949.40
608.91	45698.96
609.06	46363.67
609.22	45846.41
609.37	45511.72
609.53	46216.22
609.68	46181.11
609.84	45792.58
609.99	45673.21
610.15	45453.20
610.30	45254.26
610.46	45464.91
610.61	45844.07
610.76	45752.79
610.92	46071.10
611.07	46272.39
611.23	45584.27
611.38	45830.03
611.54	45638.11
611.69	44961.69
611.84	45715.34
612.00	45099.78
612.15	45062.33
612.31	45720.02
612.46	45441.50
612.62	45879.18
612.77	45380.65
612.92	45413.41
613.08	45390.01
613.23	45462.57
613.39	45394.69
613.54	45038.93
613.69	45137.23
613.85	45059.99
614.00	45640.45
614.15	45546.82
614.31	45347.88
614.46	45474.27
614.62	45347.88
614.77	45212.13
614.92	45708.32
615.08	44933.60
615.23	44949.99
615.38	44957.01
615.54	44849.35
615.69	44685.51
615.84	44825.94
616.00	44952.33
616.15	44575.50
616.30	45202.77
616.46	44821.26
616.61	44608.27
616.76	44978.07
616.92	44882.11
617.07	44994.46
617.22	44411.67
617.37	44933.60
617.53	45022.54
617.68	44907.86
617.83	44505.29
617.99	44634.02
618.14	44472.52
618.29	44687.85
618.45	44493.58
618.60	44233.78
618.75	44327.41
618.90	44371.88
619.06	44292.30
619.21	44507.63
619.36	44804.88
619.51	44744.02
619.67	43920.15
619.82	44959.35
619.97	44259.53
620.12	44502.95
620.28	44023.14
620.43	44194.00
620.58	44404.64
620.73	44299.32
620.89	44271.23
621.04	44336.77
621.19	44634.02
621.34	44285.28
621.49	44161.23
621.65	43716.53
621.80	44151.87
621.95	44142.50
622.10	43775.04
622.25	43622.90
622.41	43800.79
622.56	43966.96
622.71	44067.61
622.86	43873.34
623.01	43728.23
623.16	43997.39
623.32	43871.00
623.47	43438.00
623.62	43786.74
623.77	44074.63
623.92	43847.60
624.07	43648.65
624.23	43171.18
624.38	43576.09
624.53	43660.35
624.68	43548.01
624.83	43728.23
624.98	43208.63
625.13	42967.55
625.29	43283.53
625.44	43445.02
625.59	42913.72
625.74	43526.94
625.89	42857.55
626.04	43210.97
626.19	43356.08
626.34	42810.74
626.49	43061.18
626.65	43180.54
626.80	43489.49
626.95	43145.44
627.10	42878.61
627.25	42799.04
627.40	42756.91
627.55	42251.35
627.70	42560.30
627.85	42932.45
628.00	42679.67
628.15	42644.56
628.30	42426.89
628.45	42939.47
628.60	42820.10
628.76	42817.76
628.91	42972.24
629.06	42309.86
629.21	42174.11
629.36	42440.93
629.51	42251.35
629.66	42693.71
629.81	42361.36
629.96	42593.07
630.11	41982.19
630.26	42665.63
630.41	42579.03
630.56	42323.91
630.71	42625.84
630.86	41900.27
631.01	42127.30
631.16	42174.11
631.31	41858.14
631.46	41956.44
631.61	42157.73
631.76	42031.34
631.91	42312.20
632.06	42356.67
632.21	42085.17
632.36	42382.42
632.51	42024.32
632.66	41827.71
632.81	41755.16
632.96	41872.18
633.10	41902.61
633.25	41724.73
633.40	41926.02
633.55	41916.65
633.70	41507.06
633.85	41691.96
634.00	41993.89
634.15	41949.42
634.30	41563.23
634.45	41720.05
634.60	41874.52
634.75	41546.85
634.90	41333.86
635.05	41434.50
635.19	41368.97
635.34	41504.72
635.49	41329.18
635.64	41226.20
635.79	41490.68
635.94	41380.67
636.09	41345.56
636.24	41127.89
636.39	40973.42
636.53	40987.46
636.68	41078.74
636.83	41095.13
636.98	41202.79
637.13	40966.40
637.28	41174.70
637.43	41509.40
637.57	41436.84
637.72	41153.64
637.87	41109.17
638.02	40959.38
638.17	41092.79
638.32	41326.84
638.46	41324.50
638.61	40933.63
638.76	40879.80
638.91	41188.75
639.06	41008.53
639.20	40861.07
639.35	41097.47
639.50	41053.00
639.65	41092.79
639.80	40830.65
639.94	40327.43
640.09	40882.14
640.24	40020.82
640.39	40346.15
640.54	40320.41
640.68	40243.17
640.83	40357.86
640.98	40589.57
641.13	40800.22
641.27	40795.54
641.42	40233.81
641.57	40526.38
641.72	40191.68
641.86	40278.28
642.01	39880.39
642.16	40172.96
642.31	39859.32
642.45	39864.00
642.60	40095.72
642.75	40046.57
642.90	40231.47
643.04	40437.44
643.19	39901.45
643.34	39910.82
643.48	40004.44
643.63	40304.02
643.78	39892.09
643.93	39985.71
644.07	39992.73
644.22	39798.47
644.37	39789.11
644.51	40428.07
644.66	39910.82
644.81	39526.97
644.95	39831.24
645.10	39531.65
645.25	39632.29
645.39	39648.68
645.54	39917.84
645.69	39669.74
645.83	39875.71
645.98	39875.71
646.13	39739.96
646.27	39763.36
646.42	39342.06
646.57	38981.62
646.71	39908.47
646.86	39213.34
647.00	39351.43
647.15	39667.40
647.30	39421.64
647.44	39007.37
647.59	39283.55
647.74	39147.80
647.88	38888.00
648.03	39105.67
648.17	38667.99
648.32	39241.42
648.47	39218.02
648.61	39367.81
648.76	38754.59
648.90	38803.74
649.05	39260.15
649.20	38911.41
649.34	39232.06
649.49	38373.08
649.63	38309.89
649.78	39196.95
649.92	38967.58
650.07	39171.21
650.21	38813.10
650.36	39480.16
650.51	39108.01
650.65	38831.83
650.80	39358.45
650.94	38801.40
651.09	39108.01
651.23	38478.41
651.38	38621.18
651.52	38438.62
651.67	38574.37
651.81	38452.66
651.96	38462.02
652.10	38366.06
652.25	38684.37
652.39	38635.22
652.54	38618.84
652.68	38499.47
652.83	38380.10
652.97	38609.48
653.12	38761.61
653.26	38061.79
653.41	38071.15
653.55	38150.73
653.70	38382.45
653.84	38157.75
653.99	37860.51
654.13	37701.35
654.27	38120.31
654.42	37855.82
654.56	37900.29
654.71	38312.23
654.85	37691.99
655.00	38155.41
655.14	37560.92
655.29	37654.54
655.43	37673.26
655.57	37404.10
655.72	37088.13
655.86	37474.32
656.01	37317.50
656.15	37483.68
656.30	37113.87
656.44	37015.57
656.58	37668.58
656.73	37558.58
656.87	37242.60
657.01	36907.91
657.16	37715.39
657.30	37099.83
657.45	36947.70
657.59	37233.24
657.73	37076.43
657.88	37214.52
658.02	37287.07
658.16	37099.83
658.31	37549.21
658.45	37694.33
658.60	37202.82
658.74	37371.33
658.88	37024.93
659.03	36861.10
659.17	36849.39
659.31	36968.76
659.46	36528.74
659.60	37013.23
659.74	36816.63
659.89	36545.12
660.03	36666.83
660.17	36900.89
660.32	36488.95
660.46	36931.31
660.60	36313.41
660.74	36385.97
660.89	36519.38
661.03	36030.21
661.17	36367.24
661.32	36130.85
661.46	36439.80
661.60	36390.65
661.74	36484.27
661.89	36044.25
662.03	36409.37
662.17	35878.07
662.31	35962.33
662.46	36098.08
662.60	36503.00
662.74	35651.04
662.88	35983.40
663.03	35644.02
663.17	35938.93
663.31	35828.92
663.45	35545.72
663.60	35674.45
663.74	35531.67
663.88	35192.30
664.02	35594.87
664.17	35178.25
664.31	35222.72
664.45	35054.20
664.59	35316.34
664.73	35253.15
664.88	35342.09
665.02	35056.54
665.16	35096.33
665.30	34689.08
665.44	34787.38
665.59	34663.33
665.73	34459.71
665.87	34501.84
666.01	34873.98
666.15	35101.01
666.29	35063.57
666.44	35129.10
666.58	34368.43
666.72	34792.06
666.86	34813.13
667.00	34455.03
667.14	34513.54
667.28	34085.22
667.43	34263.10
667.57	34532.26
667.71	34099.26
667.85	34216.29
667.99	34094.58
668.13	34298.21
668.27	33949.47
668.41	34267.78
668.56	33942.45
668.70	33986.92
668.84	33701.37
668.98	33266.03
669.12	33598.39
669.26	33469.66
669.40	33429.87
669.54	33666.27
669.68	33495.41
669.82	33291.78
669.96	33333.91
670.10	33099.86
670.25	33680.31
670.39	33188.80
670.53	32891.55
670.67	32313.44
670.81	33287.10
670.95	33118.58
671.09	32847.08
671.23	32982.83
671.37	32521.74
671.51	32271.31
671.65	32741.75
671.79	32393.01
671.93	32760.48
672.07	32229.18
672.21	32243.22
672.35	32044.27
672.49	32194.07
672.63	32360.25
672.77	32212.79
672.91	31842.99
673.05	32187.05
673.19	31967.04
673.33	31335.09
673.47	31810.22
673.61	31459.14
673.75	31372.54
673.89	31580.85
674.03	31271.90
674.17	31246.15
674.31	31257.85
674.45	31243.81
674.59	31449.78
674.73	31218.07
674.87	31204.02
675.01	31344.45
675.15	30754.64
675.29	30532.29
675.43	30930.18
675.56	31021.46
675.70	30597.82
675.84	30455.05
675.98	29797.36
676.12	30698.47
676.26	30408.24
676.40	30501.86
676.54	30527.61
676.68	30609.53
676.82	29947.15
676.96	30010.35
677.10	29804.38
677.23	29837.15
677.37	29958.86
677.51	29404.15
677.65	29544.58
677.79	29120.95
677.93	28903.28
678.07	28989.88
678.21	29036.69
678.34	29074.13
678.48	28711.35
678.62	28779.23
678.76	28374.31
678.90	28084.09
679.04	28187.07
679.18	28718.37
679.31	27871.10
679.45	27962.38
679.59	28023.23
679.73	28170.69
679.87	27791.52
680.00	27941.32
680.14	27868.76
680.28	28098.13
680.42	27768.12
680.56	27513.00
680.70	27714.28
680.83	27817.27
680.97	27192.34
681.11	27236.81
681.25	27283.62
681.39	27335.12
681.52	26611.89
681.66	26738.28
681.80	27103.40
681.94	26822.54
682.07	26478.48
682.21	26441.03
682.35	26298.26
682.49	26728.92
682.62	26153.15
682.76	26178.89
682.90	26195.28
683.04	26143.78
683.17	25666.31
683.31	26064.21
683.45	25881.64
683.59	25525.88
683.72	25518.86
683.86	25642.91
684.00	25769.30
684.13	25387.79
684.27	25663.97
684.41	25202.89
684.55	24961.81
684.68	25132.67
684.82	25104.59
684.96	25046.07
685.09	24805.00
685.23	24830.74
685.37	24879.89
685.50	25364.39
685.64	24648.18
685.78	24175.39
685.91	24322.85
686.05	24123.90
686.19	24285.40
686.32	23882.83
686.46	23765.80
686.60	23314.08
686.73	23403.02
686.87	23199.39
687.01	23300.03
687.14	22948.95
687.28	23250.88
687.42	23094.07
687.55	22984.06
687.69	23084.70
687.82	22932.57
687.96	22934.91
688.10	22483.19
688.23	22595.53
688.37	22295.94
688.50	22740.64
688.64	22448.08
688.78	22277.22
688.91	22300.62
689.05	22317.01
689.18	22122.74
689.32	21640.59
689.46	22022.10
689.59	22143.81
689.73	22326.37
689.86	21724.85
690.00	21668.68
690.13	21750.60
690.27	21465.05
690.41	21315.26
690.54	21284.83
690.68	21099.93
690.81	21308.24
690.95	21336.32
691.08	21132.70
691.22	21261.43
691.35	21301.22
691.49	21043.76
691.62	20652.89
691.76	20587.35
691.89	20706.72
692.03	20325.21
692.16	20613.10
692.30	20126.27
692.43	20156.69
692.57	20114.56
692.70	20093.50
692.84	19901.58
692.97	19850.08
693.11	19665.18
693.24	19845.40
693.38	19496.66
693.51	19604.33
693.65	19594.96
693.78	19686.25
693.92	19592.62
694.05	19091.75
694.19	19316.44
694.32	19084.73
694.45	19609.01
694.59	18986.43
694.72	18927.91
694.86	18967.70
694.99	18513.64
695.13	18614.28
695.26	18743.01
695.39	18422.36
695.53	18827.27
695.66	18743.01
695.80	18324.05
695.93	18295.97
696.07	18368.52
696.20	18504.28
696.33	18394.27
696.47	17923.82
696.60	17961.27
696.73	17855.95
696.87	18242.14
697.00	17600.83
697.14	17764.67
697.27	17413.59
697.40	17865.31
697.54	17434.65
697.67	17273.15
697.80	17057.82
697.94	17156.13
698.07	16922.07
698.21	17231.02
698.34	17160.81
698.47	16858.88
698.61	16573.33
698.74	16690.36
698.87	16580.36
699.01	16809.73
699.14	16383.75
699.27	16322.90
699.40	16301.83
699.54	16477.37
699.67	16189.49
699.80	16210.55
699.94	16018.63
700.07	16135.65
700.20	16194.17
700.34	15995.22
700.47	16051.39
700.60	16175.44
700.73	15770.53
700.87	15758.83
701.00	15646.48
701.13	15683.93
701.26	15470.94
701.40	15407.75
701.53	15269.66
701.66	15393.70
701.79	14995.81
701.93	15094.11
702.06	14675.16
702.19	14726.65
702.32	14785.16
702.46	14970.07
702.59	14981.77
702.72	14754.74
702.85	14817.93
702.99	14707.93
703.12	14626.01
703.25	14272.59
703.38	14384.93
703.51	14370.89
703.65	14214.07
703.78	14043.21
703.91	13996.40
704.04	13958.96
704.17	13987.04
704.31	13865.33
704.44	14193.01
704.57	13731.92
704.70	13738.94
704.83	13717.88
704.96	13813.84
705.10	13582.13
705.23	13593.83
>>>>>End Processed Spectral Data<<<<<
