SpectraSuite Data File
++++++++++++++++++++++++++++++++++++
Date: Fri Oct 25 11:34:48 EDT 2013
User: price-jones
Dark Spectrum Present: No
Reference Spectrum Present: No
Number of Sampled Component Spectra: 1
Spectrometers: USB2+H05261
Integration Time (usec): 100000 (USB2+H05261)
Spectra Averaged: 1 (USB2+H05261)
Boxcar Smoothing: 0 (USB2+H05261)
Correct for Electrical Dark: No (USB2+H05261)
Strobe/Lamp Enabled: No (USB2+H05261)
Correct for Detector Non-linearity: No (USB2+H05261)
Correct for Stray Light: No (USB2+H05261)
Number of Pixels in Processed Spectrum: 2048
>>>>>Begin Processed Spectral Data<<<<<
365.73	292.57
365.92	292.57
366.12	292.57
366.32	187.24
366.52	149.79
366.72	285.55
366.91	201.29
367.11	217.67
367.31	194.26
367.51	105.32
367.70	161.50
367.90	196.60
368.10	184.90
368.30	189.58
368.49	163.84
368.69	161.50
368.89	243.42
369.09	198.95
369.28	255.12
369.48	220.01
369.68	250.44
369.87	224.69
370.07	255.12
370.27	236.39
370.47	320.65
370.66	493.85
370.86	566.41
371.06	531.30
371.25	585.13
371.45	561.73
371.65	545.34
371.84	517.26
372.04	521.94
372.24	538.32
372.44	559.39
372.63	528.96
372.83	660.03
373.03	596.84
373.22	615.56
373.42	601.52
373.62	575.77
373.81	629.60
374.01	596.84
374.21	636.63
374.40	599.18
374.60	543.00
374.79	610.88
374.99	648.33
375.19	585.13
375.38	711.52
375.58	636.63
375.78	692.80
375.97	730.25
376.17	648.33
376.37	615.56
376.56	662.37
376.76	650.67
376.95	664.71
377.15	713.86
377.35	770.04
377.54	660.03
377.74	657.69
377.93	730.25
378.13	674.07
378.33	737.27
378.52	748.97
378.72	636.63
378.91	685.78
379.11	648.33
379.31	667.05
379.50	739.61
379.70	713.86
379.89	706.84
380.09	723.23
380.28	676.41
380.48	774.72
380.68	683.44
380.87	683.44
381.07	734.93
381.26	812.17
381.46	805.14
381.65	767.70
381.85	744.29
382.04	671.73
382.24	777.06
382.43	798.12
382.63	765.36
382.83	798.12
383.02	814.51
383.22	770.04
383.41	812.17
383.61	779.40
383.80	793.44
384.00	786.42
384.19	844.93
384.39	849.61
384.58	866.00
384.78	781.74
384.97	819.19
385.17	833.23
385.36	821.53
385.56	868.34
385.75	784.08
385.95	842.59
386.14	851.96
386.34	793.44
386.53	830.89
386.72	894.08
386.92	924.51
387.11	866.00
387.31	849.61
387.50	922.17
387.70	863.66
387.89	798.12
388.09	938.55
388.28	826.21
388.48	863.66
388.67	903.45
388.86	933.87
389.06	819.19
389.25	922.17
389.45	891.74
389.64	830.89
389.84	936.21
390.03	889.40
390.22	901.11
390.42	980.68
390.61	912.81
390.81	957.28
391.00	940.90
391.19	950.26
391.39	1008.77
391.58	961.96
391.78	938.55
391.97	997.07
392.16	952.60
392.36	1046.22
392.55	1034.52
392.75	1064.94
392.94	1032.18
393.13	1032.18
393.33	1011.11
393.52	1015.79
393.71	978.34
393.91	1046.22
394.10	1067.28
394.29	1041.54
394.49	1114.10
394.68	1046.22
394.88	1097.71
395.07	1076.65
395.26	1153.88
395.46	1050.90
395.65	1130.48
395.84	1121.12
396.04	1172.61
396.23	1224.10
396.42	1238.14
396.62	1226.44
396.81	1135.16
397.00	1179.63
397.19	1200.69
397.39	1200.69
397.58	1240.48
397.77	1083.67
397.97	1188.99
398.16	1240.48
398.35	1217.08
398.55	1301.34
398.74	1233.46
398.93	1270.91
399.12	1242.82
399.32	1378.58
399.51	1149.20
399.70	1348.15
399.90	1322.40
400.09	1296.66
400.28	1401.98
400.47	1291.98
400.67	1259.21
400.86	1425.39
401.05	1287.29
401.24	1373.89
401.44	1458.15
401.63	1486.24
401.82	1462.83
402.01	1394.96
402.21	1364.53
402.40	1364.53
402.59	1495.60
402.78	1502.62
402.97	1530.71
403.17	1390.28
403.36	1462.83
403.55	1488.58
403.74	1483.90
403.93	1526.03
404.13	1577.52
404.32	1549.43
404.51	1584.54
404.70	1511.99
404.89	1458.15
405.09	1570.50
405.28	1528.37
405.47	1528.37
405.66	1685.19
405.85	1682.85
406.05	1736.68
406.24	1600.93
406.43	1626.67
406.62	1788.17
406.81	1722.63
407.00	1774.13
407.20	1762.42
407.39	1713.27
407.58	1732.00
407.77	1753.06
407.96	1717.95
408.15	1769.44
408.34	1790.51
408.54	1818.60
408.73	1886.47
408.92	1851.36
409.11	1872.43
409.30	1956.69
409.49	1858.39
409.68	1933.28
409.87	1895.83
410.07	1912.22
410.26	1961.37
410.45	1907.54
410.64	1975.41
410.83	2087.76
411.02	2003.50
411.21	2134.57
411.40	2026.90
411.59	2019.88
411.78	2083.08
411.98	2099.46
412.17	2172.02
412.36	2228.19
412.55	2218.83
412.74	2380.32
412.93	2179.04
413.12	2216.49
413.31	2356.92
413.50	2228.19
413.69	2235.21
413.88	2410.75
414.07	2328.83
414.26	2270.32
414.45	2328.83
414.64	2417.77
414.83	2427.14
415.02	2349.90
415.22	2413.09
415.41	2495.01
415.60	2441.18
415.79	2537.14
415.98	2473.95
416.17	2548.84
416.36	2677.57
416.55	2661.19
416.74	2693.96
416.93	2722.04
417.12	2649.49
417.31	2651.83
417.50	2682.25
417.69	2759.49
417.88	2803.96
418.07	2715.02
418.26	2740.77
418.45	2715.02
418.64	2911.63
418.83	2890.56
419.02	2855.45
419.21	2843.75
419.39	2970.14
419.58	2993.55
419.77	2834.39
419.96	2881.20
420.15	3009.93
420.34	3108.23
420.53	3016.95
420.72	3038.02
420.91	3054.40
421.10	3070.78
421.29	3129.30
421.48	3227.60
421.67	3138.66
421.86	3059.08
422.05	3112.91
422.24	3166.74
422.43	3187.81
422.61	3304.84
422.80	3316.54
422.99	3117.59
423.18	3180.79
423.37	3239.30
423.56	3265.05
423.75	3281.43
423.94	3222.92
424.13	3091.85
424.32	3220.58
424.50	3283.77
424.69	3400.80
424.88	3353.99
425.07	3328.24
425.26	3281.43
425.45	3269.73
425.64	3307.18
425.83	3248.66
426.01	3414.84
426.20	3356.33
426.39	3314.20
426.58	3506.12
426.77	3435.91
426.96	3410.16
427.15	3328.24
427.33	3236.96
427.52	3424.20
427.71	3452.29
427.90	3438.25
428.09	3414.84
428.28	3489.74
428.46	3447.61
428.65	3487.40
428.84	3632.51
429.03	3655.92
429.22	3506.12
429.40	3541.23
429.59	3583.36
429.78	3478.04
429.97	3339.94
430.16	3552.93
430.34	3730.81
430.53	3634.85
430.72	3637.19
430.91	3651.24
431.10	3641.87
431.28	3639.53
431.47	3779.97
431.66	3801.03
431.85	3735.50
432.03	3911.04
432.22	3913.38
432.41	3906.35
432.60	3939.12
432.79	3950.82
432.97	3836.14
433.16	4021.04
433.35	3871.25
433.54	3967.21
433.72	3957.85
433.91	3815.07
434.10	4030.40
434.28	4042.11
434.47	4060.83
434.66	4081.89
434.85	4049.13
435.03	4166.15
435.22	4065.51
435.41	4201.26
435.59	4149.77
435.78	4163.81
435.97	4142.75
436.16	4142.75
436.34	4156.79
436.53	4320.63
436.72	4315.95
436.90	4245.73
437.09	4194.24
437.28	4170.83
437.46	4304.25
437.65	4360.42
437.84	4482.13
438.02	4414.25
438.21	4376.80
438.40	4297.22
438.58	4503.19
438.77	4631.92
438.96	4512.55
439.14	4538.30
439.33	4655.33
439.52	4620.22
439.70	4617.88
439.89	4868.31
440.08	4674.05
440.26	4688.09
440.45	4699.80
440.63	4753.63
440.82	5008.75
441.01	4837.89
441.19	4807.46
441.38	4985.34
441.57	5085.98
441.75	5071.94
441.94	5245.14
442.12	5123.43
442.31	5121.09
442.50	5090.67
442.68	5123.43
442.87	5210.03
443.05	5249.82
443.24	5221.74
443.43	5137.48
443.61	5109.39
443.80	5413.66
443.98	5254.50
444.17	5104.71
444.35	5270.89
444.54	5460.47
444.73	5277.91
444.91	5268.55
445.10	5359.83
445.28	5329.40
445.47	5320.04
445.65	5200.67
445.84	5322.38
446.02	5441.75
446.21	5570.48
446.39	5259.18
446.58	5446.43
446.77	5348.12
446.95	5401.96
447.14	5565.79
447.32	5486.22
447.51	5259.18
447.69	5481.53
447.88	5425.36
448.06	5565.79
448.25	5476.85
448.43	5408.98
448.62	5453.45
448.80	5509.62
448.99	5472.17
449.17	5535.37
449.36	5617.29
449.54	5537.71
449.73	5706.23
449.91	5860.70
450.10	5717.93
450.28	5944.96
450.46	5893.47
450.65	5813.89
450.83	5715.59
451.02	5844.32
451.20	5923.90
451.39	5816.23
451.57	5867.72
451.76	5802.19
451.94	5968.37
452.13	5947.30
452.31	5942.62
452.49	5877.09
452.68	6113.48
452.86	5966.03
453.05	6080.71
453.23	6118.16
453.42	6003.47
453.60	6001.13
453.78	6078.37
453.97	6111.14
454.15	6122.84
454.34	6167.31
454.52	6242.21
454.70	6225.82
454.89	6157.95
455.07	6188.38
455.26	6438.81
455.44	6246.89
455.62	6368.60
455.81	6392.00
455.99	6317.11
456.17	6394.34
456.36	6553.50
456.54	6363.92
456.73	6682.23
456.91	6665.85
457.09	6689.25
457.28	6743.08
457.46	6595.63
457.64	6839.05
457.83	6597.97
458.01	6441.15
458.19	6864.79
458.38	6588.61
458.56	6895.22
458.74	6832.02
458.93	6813.30
459.11	6916.28
459.29	7030.97
459.48	6932.67
459.66	6820.32
459.84	7028.63
460.03	6974.80
460.21	7016.93
460.39	7040.33
460.57	6806.28
460.76	7040.33
460.94	6909.26
461.12	7112.89
461.31	7056.72
461.49	7243.96
461.67	7070.76
461.85	7030.97
462.04	7236.94
462.22	7325.88
462.40	7342.26
462.59	7346.94
462.77	7260.34
462.95	7470.99
463.13	7417.16
463.32	7344.60
463.50	7447.58
463.68	7396.09
463.86	7517.80
464.05	7365.67
464.23	7452.27
464.41	7588.02
464.59	7494.40
464.78	7613.76
464.96	7513.12
465.14	7342.26
465.32	7527.16
465.50	7627.81
465.69	7831.43
465.87	7784.62
466.05	7573.97
466.23	7721.43
466.41	7761.22
466.60	7681.64
466.78	7756.54
466.96	7646.53
467.14	7763.56
467.32	7857.18
467.51	7805.69
467.69	7623.12
467.87	7632.49
468.05	7946.12
468.23	7971.86
468.41	7911.01
468.60	8016.33
468.78	8128.68
468.96	7946.12
469.14	8173.15
469.32	8156.77
469.50	8079.53
469.69	8201.24
469.87	8376.78
470.05	8428.27
470.23	8098.25
470.41	8234.00
470.59	8421.25
470.77	8201.24
470.95	8358.05
471.14	8362.73
471.32	8355.71
471.50	8456.36
471.68	8631.90
471.86	8725.52
472.04	8503.17
472.22	8755.94
472.40	8631.90
472.58	8720.84
472.77	8723.18
472.95	8730.20
473.13	9118.73
473.31	8917.44
473.49	8917.44
473.67	8952.55
473.85	8926.80
474.03	9083.62
474.21	9153.84
474.39	9263.84
474.57	9266.18
474.75	9348.10
474.93	9195.96
475.12	9420.66
475.30	9249.80
475.48	9362.14
475.66	9488.53
475.84	9371.50
476.02	9652.37
476.20	9694.50
476.38	9942.60
476.56	10445.81
476.74	9977.70
476.92	9898.13
477.10	9881.74
477.28	10183.67
477.46	9851.31
477.64	9970.68
477.82	10209.42
478.00	10586.24
478.18	10644.76
478.36	10738.38
478.54	10663.48
478.72	10689.23
478.90	10817.96
479.08	10927.96
479.26	11061.37
479.44	10867.11
479.62	10888.17
479.80	11372.66
479.98	11527.14
480.16	11571.61
480.34	11587.99
480.52	11641.82
480.70	11662.89
480.88	11482.67
481.06	11756.51
481.24	11749.49
481.41	12046.74
481.59	12163.76
481.77	11969.50
481.95	12297.17
482.13	12119.29
482.31	12149.72
482.49	12727.83
482.67	12491.44
482.85	12538.25
483.03	12936.14
483.21	12891.67
483.39	12973.59
483.57	12844.86
483.74	13095.30
483.92	13125.72
484.10	13146.79
484.28	13411.27
484.46	13750.65
484.64	13743.63
484.82	13479.15
485.00	14078.32
485.18	14150.88
485.35	14307.69
485.53	14225.78
485.71	13991.72
485.89	14560.47
486.07	14406.00
486.25	14415.36
486.43	14513.66
486.61	14773.46
486.78	14794.53
486.96	14923.26
487.14	15016.88
487.32	15374.98
487.50	15438.17
487.68	15384.34
487.85	15576.27
488.03	15751.81
488.21	15868.83
488.39	15843.09
488.57	16273.74
488.75	16011.60
488.92	16315.87
489.10	16732.49
489.28	16641.21
489.46	16582.70
489.64	16421.20
489.81	17174.85
489.99	16985.27
490.17	17006.33
490.35	17256.77
490.53	17542.32
490.70	17689.77
490.88	17319.96
491.06	17654.66
491.24	17638.28
491.41	18057.23
491.59	18298.31
491.77	17926.16
491.95	18185.96
492.13	18567.47
492.30	18618.96
492.48	18520.66
492.66	18682.16
492.84	18663.43
493.01	18794.50
493.19	18984.09
493.37	19115.16
493.54	19559.86
493.72	19314.10
493.90	19529.43
494.08	19496.66
494.25	19957.75
494.43	19817.32
494.61	20088.82
494.79	20044.35
494.96	19922.64
495.14	20320.53
495.32	20201.16
495.49	20231.59
495.67	20397.77
495.85	20416.49
496.02	20945.45
496.20	20924.39
496.38	21268.45
496.55	21200.57
496.73	21621.87
496.91	21500.16
497.09	21584.42
497.26	21451.01
497.44	21329.30
497.62	21701.45
497.79	22195.30
497.97	22073.59
498.14	22396.59
498.32	22136.79
498.50	22469.14
498.67	22553.40
498.85	22527.66
499.03	22698.52
499.20	22541.70
499.38	23051.94
499.56	22724.26
499.73	23187.69
499.91	23009.81
500.08	23323.44
500.26	23538.77
500.44	23154.92
500.61	23351.52
500.79	23414.72
500.97	23445.15
501.14	23693.24
501.32	23950.70
501.49	23885.17
501.67	23770.48
501.84	24233.91
502.02	23779.84
502.20	24526.47
502.37	24027.94
502.55	24418.81
502.72	24343.91
502.90	24226.89
503.07	24056.03
503.25	24332.21
503.43	24505.41
503.60	24819.04
503.78	24692.65
503.95	25261.40
504.13	24989.90
504.30	24936.07
504.48	25144.38
504.65	25303.53
504.83	25502.48
505.01	25336.30
505.18	25490.77
505.36	25748.23
505.53	25338.64
505.71	25565.67
505.88	25860.58
506.06	25703.76
506.23	26153.15
506.41	25947.18
506.58	26047.82
506.76	26190.59
506.93	26183.57
507.11	26225.70
507.28	26555.72
507.46	26792.11
507.63	26558.06
507.81	26700.83
507.98	26534.65
508.16	26909.14
508.33	27047.23
508.50	26946.59
508.68	26871.69
508.85	27222.77
509.03	27077.66
509.20	27707.26
509.38	27658.11
509.55	27515.34
509.73	27597.26
509.90	27777.48
510.08	27445.12
510.25	27358.52
510.42	28023.23
510.60	28121.54
510.77	28142.60
510.95	28308.78
511.12	28018.55
511.30	28252.61
511.47	28371.97
511.64	28790.93
511.82	28453.89
511.99	28416.44
512.17	28814.34
512.34	28362.61
512.51	28723.05
512.69	28587.30
512.86	28844.76
513.04	29146.69
513.21	28933.70
513.38	29259.04
513.56	29511.81
513.73	29263.72
513.90	29696.72
514.08	29472.03
514.25	29624.16
514.43	29933.11
514.60	30038.44
514.77	29944.81
514.95	30054.82
515.12	30171.85
515.29	30213.98
515.47	30363.77
515.64	30361.43
515.81	30015.03
515.99	30089.93
516.16	30576.76
516.33	30487.82
516.51	30263.13
516.68	30490.16
516.85	30506.54
517.03	30859.96
517.20	30813.15
517.37	31091.68
517.54	31234.45
517.72	30932.52
517.89	31278.92
518.06	31269.56
518.24	30866.98
518.41	31049.55
518.58	31304.67
518.75	30932.52
518.93	31377.22
519.10	31140.83
519.27	31440.42
519.45	31527.02
519.62	31789.16
519.79	31615.96
519.96	31344.45
520.14	31910.86
520.31	31587.87
520.48	32121.51
520.65	31559.78
520.83	32149.60
521.00	32767.50
521.17	32315.78
521.34	32243.22
521.52	32477.27
521.69	32519.40
521.86	32730.05
522.03	32861.12
522.20	32898.57
522.38	33120.92
522.55	33003.89
522.72	32952.40
522.89	32900.91
523.07	33605.41
523.24	33439.23
523.41	33303.48
523.58	32833.04
523.75	33586.69
523.92	33490.73
524.10	33198.16
524.27	33408.81
524.44	33495.41
524.61	34071.18
524.78	33673.29
524.96	33811.38
525.13	33450.94
525.30	34176.50
525.47	34162.46
525.64	34345.02
525.81	34359.06
525.98	34424.60
526.16	34419.92
526.33	33933.09
526.50	34534.60
526.67	34330.98
526.84	34623.54
527.01	34579.07
527.18	34387.15
527.36	34862.28
527.53	34312.25
527.70	35339.75
527.87	35154.85
528.04	34703.12
528.21	34679.72
528.38	34946.54
528.55	35360.81
528.72	35047.18
528.89	35136.12
529.07	34749.93
529.24	34991.01
529.41	35234.42
529.58	35435.71
529.75	35342.09
529.92	35461.46
530.09	35512.95
530.26	35168.89
530.43	35655.72
530.60	35229.74
530.77	35255.49
530.94	35234.42
531.11	35552.74
531.28	35625.29
531.46	35555.08
531.63	35927.22
531.80	36006.80
531.97	35931.90
532.14	35697.85
532.31	36072.34
532.48	36510.02
532.65	36580.23
532.82	36301.71
532.99	36409.37
533.16	36224.47
533.33	36247.88
533.50	36828.33
533.67	36690.24
533.84	36322.77
534.01	36650.45
534.18	36615.34
534.35	36786.20
534.52	36650.45
534.69	37109.19
534.86	37137.28
535.03	37043.66
535.20	37221.54
535.37	37289.42
535.54	37439.21
535.71	37029.62
535.88	37207.50
536.05	36671.51
536.22	37399.42
536.38	37581.98
536.55	37605.39
536.72	37383.04
536.89	37785.61
537.06	37425.17
537.23	37787.95
537.40	37645.18
537.57	37670.92
537.74	37654.54
537.91	37460.27
538.08	37853.48
538.25	37799.65
538.42	38005.62
538.59	37809.01
538.75	38164.78
538.92	37642.84
539.09	38227.97
539.26	38314.57
539.43	38075.84
539.60	38197.54
539.77	38026.68
539.94	38513.52
540.11	38359.04
540.28	38164.78
540.44	38337.98
540.61	38604.80
540.78	38469.04
540.95	38352.02
541.12	38525.22
541.29	38272.44
541.46	38630.54
541.62	38611.82
541.79	38974.60
541.96	38515.86
542.13	38686.71
542.30	38717.14
542.47	39079.92
542.63	38827.15
542.80	38932.47
542.97	39255.46
543.14	39716.55
543.31	38981.62
543.48	39442.71
543.64	39608.89
543.81	39800.81
543.98	39335.04
544.15	39768.04
544.32	39765.70
544.48	40240.83
544.65	39966.99
544.82	39775.06
544.99	39754.00
545.16	39826.56
545.32	39950.60
545.49	40013.80
545.66	40271.26
545.83	39746.98
546.00	40264.24
546.16	39899.11
546.33	39627.61
546.50	39871.03
546.67	40545.10
546.83	39735.27
547.00	40257.21
547.17	39952.94
547.34	40266.58
547.50	40091.04
547.67	40898.52
547.84	40620.00
548.00	40816.60
548.17	40488.93
548.34	40741.71
548.51	41085.76
548.67	40502.97
548.84	40952.35
549.01	40563.82
549.18	40783.83
549.34	40818.94
549.51	41060.02
549.68	40999.16
549.84	40732.34
550.01	40971.08
550.18	41076.40
550.34	41209.81
550.51	41406.42
550.68	40816.60
550.84	41038.95
551.01	41144.28
551.18	41022.57
551.34	41226.20
551.51	41214.49
551.68	41301.09
551.84	41273.01
552.01	41045.97
552.18	41596.00
552.34	41055.34
552.51	41647.49
552.68	41347.90
552.84	41074.06
553.01	41769.20
553.18	41755.16
553.34	41804.31
553.51	41184.07
553.67	41909.63
553.84	42223.26
554.01	41680.26
554.17	42108.58
554.34	41958.78
554.51	41846.44
554.67	42506.47
554.84	42181.13
555.00	42239.65
555.17	41900.27
555.33	42183.48
555.50	41937.72
555.67	41893.25
555.83	42309.86
556.00	41787.92
556.16	42768.61
556.33	42618.81
556.50	42438.59
556.66	42520.51
556.83	42216.24
556.99	42665.63
557.16	42487.74
557.32	42824.78
557.49	42770.95
557.65	42281.78
557.82	42412.85
557.98	42527.53
558.15	42253.69
558.32	42763.93
558.48	42703.07
558.65	42906.70
558.81	42909.04
558.98	42499.45
559.14	42424.55
559.31	42466.68
559.47	42630.52
559.64	42707.76
559.80	42691.37
559.97	43054.15
560.13	42099.22
560.30	42660.94
560.46	43358.42
560.63	43349.06
560.79	42965.21
560.96	43133.73
561.12	43178.20
561.29	43250.76
561.45	43072.88
561.61	43187.56
561.78	42934.79
561.94	43035.43
562.11	43143.09
562.27	43538.65
562.44	42948.83
562.60	43611.20
562.77	43342.04
562.93	42986.28
563.10	43494.18
563.26	43000.32
563.42	43583.12
563.59	42873.93
563.75	43512.90
563.92	43278.85
564.08	43178.20
564.24	43871.00
564.41	43065.86
564.57	43393.53
564.74	43702.48
564.90	43107.99
565.07	43569.07
565.23	43508.22
565.39	43501.20
565.56	43606.52
565.72	43555.03
565.88	43821.85
566.05	43136.07
566.21	43896.75
566.38	43416.94
566.54	43662.69
566.70	43875.68
566.87	43732.91
567.03	43580.78
567.19	43847.60
567.36	44072.29
567.52	43622.90
567.68	44079.31
567.85	43543.33
568.01	43917.81
568.17	43323.32
568.34	44076.97
568.50	43505.88
568.66	43505.88
568.83	43861.64
568.99	43728.23
569.15	43842.92
569.32	43330.34
569.48	44044.20
569.64	44418.69
569.81	43997.39
569.97	44229.10
570.13	44170.59
570.30	44446.77
570.46	44336.77
570.62	44275.91
570.78	43978.67
570.95	44065.27
571.11	44320.38
571.27	43854.62
571.43	44074.63
571.60	44027.82
571.76	44219.74
571.92	44079.31
572.09	43978.67
572.25	43667.37
572.41	44074.63
572.57	44233.78
572.74	44421.03
572.90	44348.47
573.06	44154.21
573.22	44311.02
573.38	43995.05
573.55	44238.47
573.71	44744.02
573.87	44622.31
574.03	44624.65
574.20	44678.49
574.36	44226.76
574.52	44362.51
574.68	44680.83
574.84	44168.25
575.01	44083.99
575.17	44949.99
575.33	44088.67
575.49	44079.31
575.65	44378.90
575.82	44589.55
575.98	44287.62
576.14	44734.66
576.30	44512.31
576.46	44474.86
576.62	44355.49
576.79	44566.14
576.95	44362.51
577.11	44065.27
577.27	44353.15
577.43	44570.82
577.59	44130.80
577.75	44208.04
577.92	44306.34
578.08	44617.63
578.24	44390.60
578.40	44800.19
578.56	44657.42
578.72	44713.59
578.88	44182.29
579.04	44491.24
579.21	44383.58
579.37	44488.90
579.53	44678.49
579.69	44095.69
579.85	44095.69
580.01	44292.30
580.17	44449.11
580.33	45132.55
580.49	44699.55
580.65	44666.78
580.82	44772.11
580.98	44603.59
581.14	44390.60
581.30	44795.51
581.46	44793.17
581.62	44498.26
581.78	44725.30
581.94	44362.51
582.10	44636.36
582.26	45162.98
582.42	44722.96
582.58	44549.76
582.74	44680.83
582.90	44619.97
583.06	44910.20
583.22	44444.43
583.38	44463.16
583.54	44535.71
583.70	44898.50
583.86	44938.29
584.02	44524.01
584.18	44692.53
584.34	44699.55
584.50	44910.20
584.66	44989.78
584.82	44746.36
584.98	45111.49
585.14	44608.27
585.30	44669.12
585.46	44783.81
585.62	44931.26
585.78	44720.62
585.94	44566.14
586.10	44832.96
586.26	44568.48
586.42	44547.42
586.58	44760.40
586.74	44638.70
586.90	44758.06
587.06	44758.06
587.22	44875.09
587.38	44924.24
587.54	44479.54
587.70	44804.88
587.86	44486.56
588.02	44882.11
588.18	44889.13
588.34	44690.19
588.49	45254.26
588.65	44713.59
588.81	44498.26
588.97	45106.80
589.13	44474.86
589.29	44868.07
589.45	45048.29
589.61	44886.79
589.77	45205.11
589.93	44472.52
590.08	45085.74
590.24	45177.02
590.40	45380.65
590.56	45291.71
590.72	45008.50
590.88	44631.68
591.04	45329.16
591.20	45694.28
591.35	45455.54
591.51	45633.42
591.67	45251.92
591.83	45656.83
591.99	45174.68
592.15	44947.65
592.31	45195.74
592.46	45336.18
592.62	45057.65
592.78	45350.22
592.94	45942.38
593.10	45387.67
593.26	45420.44
593.41	45509.38
593.57	45443.84
593.73	45490.65
593.89	45869.82
594.05	45670.87
594.20	45399.37
594.36	46103.87
594.52	45394.69
594.68	45574.91
594.84	45380.65
594.99	46031.32
595.15	45642.79
595.31	45652.15
595.47	45895.56
595.62	45305.75
595.78	45462.57
595.94	45867.48
596.10	45916.63
596.25	45631.08
596.41	45916.63
596.57	45184.04
596.73	45621.72
596.88	45556.19
597.04	45518.74
597.20	45546.82
597.36	45595.98
597.51	46052.38
597.67	45244.90
597.83	45469.59
597.99	45542.14
598.14	45408.73
598.30	45471.93
598.46	45406.39
598.61	46099.19
598.77	45432.14
598.93	45743.43
599.09	45542.14
599.24	45879.18
599.40	45961.10
599.56	45272.98
599.71	45710.66
599.87	45998.55
600.03	45956.42
600.18	45954.08
600.34	45715.34
600.50	45935.35
600.65	45598.32
600.81	46019.61
600.97	45787.90
601.12	46099.19
601.28	45804.28
601.44	45797.26
601.59	45673.21
601.75	45675.55
601.91	45897.91
602.06	45654.49
602.22	45783.22
602.37	45815.99
602.53	45874.50
602.69	46026.63
602.84	45771.52
603.00	45645.13
603.16	45635.77
603.31	45811.31
603.47	45991.53
603.62	45881.52
603.78	46181.11
603.94	45827.69
604.09	45727.05
604.25	45844.07
604.40	45855.78
604.56	45570.23
604.71	45947.06
604.87	45476.61
605.03	45408.73
605.18	45394.69
605.34	45607.68
605.49	45607.68
605.65	45425.12
605.80	45722.37
605.96	45415.76
606.12	45666.19
606.27	45500.01
606.43	45319.79
606.58	45830.03
606.74	45474.27
606.89	45612.36
607.05	46031.32
607.20	45610.02
607.36	45221.49
607.51	45855.78
607.67	45404.05
607.82	45380.65
607.98	45759.81
608.13	45125.53
608.29	45544.48
608.44	45549.17
608.60	44865.73
608.75	45071.70
608.91	45368.94
609.06	45301.07
609.22	45378.31
609.37	44994.46
609.53	45944.72
609.68	45610.02
609.84	45270.64
609.99	45364.26
610.15	45294.05
610.30	45305.75
610.46	45514.06
610.61	45265.96
610.76	45766.84
610.92	45193.40
611.07	45298.73
611.23	44975.73
611.38	44762.75
611.54	45195.74
611.69	45453.20
611.84	45450.86
612.00	45432.14
612.15	45258.94
612.31	45338.52
612.46	44863.39
612.62	45038.93
612.77	45453.20
612.92	45588.95
613.08	44947.65
613.23	45116.17
613.39	45113.83
613.54	44699.55
613.69	45076.38
613.85	45303.41
614.00	45031.91
614.15	45347.88
614.31	45144.25
614.46	44671.46
614.62	45031.91
614.77	44847.00
614.92	44889.13
615.08	45048.29
615.23	44865.73
615.38	45064.67
615.54	44755.72
615.69	44769.77
615.84	44879.77
616.00	45020.20
616.15	45013.18
616.30	44858.71
616.46	44903.18
616.61	44580.18
616.76	44748.70
616.92	44673.81
617.07	44886.79
617.22	44699.55
617.37	45008.50
617.53	44535.71
617.68	44715.93
617.83	44587.21
617.99	45081.06
618.14	44781.47
618.29	44608.27
618.45	44486.56
618.60	44381.24
618.75	44170.59
618.90	44341.45
619.06	43814.83
619.21	44425.71
619.36	44858.71
619.51	44081.65
619.67	44121.44
619.82	44362.51
619.97	44388.26
620.12	44364.85
620.28	44278.25
620.43	44287.62
620.58	44261.87
620.73	44215.06
620.89	44575.50
621.04	44306.34
621.19	44069.95
621.34	44385.92
621.49	43812.49
621.65	44339.11
621.80	44271.23
621.95	43981.01
622.10	44079.31
622.25	44013.77
622.41	43861.64
622.56	44289.96
622.71	43861.64
622.86	43997.39
623.01	44243.15
623.16	43866.32
623.32	43922.49
623.47	44004.41
623.62	43878.02
623.77	43875.68
623.92	44271.23
624.07	43798.44
624.23	44098.03
624.38	44048.88
624.53	43990.37
624.68	43566.73
624.83	43517.58
624.98	43746.95
625.13	43667.37
625.29	43667.37
625.44	43475.45
625.59	43447.36
625.74	43665.03
625.89	43281.19
626.04	43409.92
626.19	43856.96
626.34	43592.48
626.49	43154.80
626.65	43608.86
626.80	43419.28
626.95	43079.90
627.10	42906.70
627.25	43161.82
627.40	42993.30
627.55	43374.81
627.70	43372.47
627.85	43419.28
628.00	43393.53
628.15	43077.56
628.30	42515.83
628.45	43173.52
628.60	42616.47
628.76	42890.32
628.91	42747.54
629.06	42756.91
629.21	42766.27
629.36	42522.85
629.51	42878.61
629.66	43236.72
629.81	43189.91
629.96	42927.77
630.11	42440.93
630.26	42618.81
630.41	42726.48
630.56	43103.31
630.71	42609.45
630.86	42777.97
631.01	42415.19
631.16	42377.74
631.31	42183.48
631.46	42766.27
631.61	43086.92
631.76	42646.90
631.91	42459.66
632.06	42803.72
632.21	43075.22
632.36	42525.19
632.51	42117.94
632.66	42405.83
632.81	41972.83
632.96	42632.86
633.10	42391.78
633.25	42403.49
633.40	42314.55
633.55	42836.48
633.70	42696.05
633.85	41975.17
634.00	41940.06
634.15	42089.85
634.30	42494.77
634.45	41717.71
634.60	41804.31
634.75	41979.85
634.90	42085.17
635.05	42185.82
635.19	41951.76
635.34	42234.97
635.49	42057.09
635.64	41993.89
635.79	42314.55
635.94	42272.42
636.09	41888.57
636.24	41846.44
636.39	41975.17
636.53	42298.16
636.68	41593.66
636.83	41605.36
636.98	41413.44
637.13	41436.84
637.28	41404.08
637.43	41532.81
637.57	41963.46
637.72	41617.07
637.87	41572.60
638.02	41532.81
638.17	41656.85
638.32	41432.16
638.46	40947.67
638.61	41256.62
638.76	41155.98
638.91	41158.32
639.06	41308.11
639.20	40926.61
639.35	41237.90
639.50	40872.78
639.65	41045.97
639.80	41083.42
639.94	41099.81
640.09	41514.08
640.24	41560.89
640.39	41067.04
640.54	40708.94
640.68	41408.76
640.83	41677.92
640.98	40996.82
641.13	40690.21
641.27	41097.47
641.42	41251.94
641.57	40854.05
641.72	40858.73
641.86	40718.30
642.01	40680.85
642.16	40353.18
642.31	40538.08
642.45	41469.61
642.60	40746.39
642.75	40840.01
642.90	40959.38
643.04	40921.93
643.19	40605.95
643.34	40519.35
643.48	40299.34
643.63	40208.06
643.78	40559.14
643.93	40657.45
644.07	40835.33
644.22	40673.83
644.37	40142.53
644.51	40907.88
644.66	40385.94
644.81	40292.32
644.95	40994.48
645.10	40500.63
645.25	40154.23
645.39	39985.71
645.54	40039.54
645.69	39838.26
645.83	39990.39
645.98	39929.54
646.13	40313.39
646.27	39866.34
646.42	39901.45
646.57	40168.27
646.71	40222.11
646.86	40282.96
647.00	40320.41
647.15	40112.10
647.30	40020.82
647.44	39812.51
647.59	39974.01
647.74	39955.29
647.88	40025.50
648.03	40016.14
648.17	40119.12
648.32	39828.90
648.47	40346.15
648.61	39641.65
648.76	39489.52
648.90	39225.04
649.05	39636.97
649.20	39648.68
649.34	39646.33
649.49	39653.36
649.63	40034.86
649.78	39583.14
649.92	39789.11
650.07	39880.39
650.21	40105.08
650.36	40257.21
650.51	39646.33
650.65	40081.67
650.80	39835.92
650.94	39915.50
651.09	39899.11
651.23	39428.66
651.38	39255.46
651.52	39445.05
651.67	39323.34
651.81	39391.22
651.96	39398.24
652.10	39103.33
652.25	39227.38
652.39	39285.89
652.54	39253.12
652.68	39274.19
652.83	39108.01
652.97	39227.38
653.12	39234.40
653.26	39306.96
653.41	39131.42
653.55	38878.64
653.70	39220.36
653.84	39267.17
653.99	39145.46
654.13	39063.54
654.27	38756.93
654.42	38803.74
654.56	38487.77
654.71	39049.50
654.85	38780.34
655.00	39117.37
655.14	38707.78
655.29	39091.63
655.43	39330.36
655.57	38319.25
655.72	38487.77
655.86	38455.00
656.01	38885.66
656.15	38422.23
656.30	38426.92
656.44	38464.36
656.58	38691.40
656.73	38513.52
656.87	38293.50
657.01	38316.91
657.16	38799.06
657.30	38014.98
657.45	38300.53
657.59	38401.17
657.73	37762.20
657.88	38272.44
658.02	38398.83
658.16	38522.88
658.31	38651.61
658.45	38422.23
658.60	37904.98
658.74	37689.65
658.88	38169.46
659.03	37968.17
659.17	37446.23
659.31	37633.47
659.46	37890.93
659.60	38094.56
659.74	37542.19
659.89	37488.36
660.03	36900.89
660.17	37596.03
660.32	37385.38
660.46	37493.04
660.60	36851.73
660.74	37979.87
660.89	37525.81
661.03	37216.86
661.17	36950.04
661.32	37345.59
661.46	36739.39
661.60	37177.07
661.74	36964.08
661.89	37071.75
662.03	37261.33
662.17	37268.35
662.31	36840.03
662.46	36835.35
662.60	36690.24
662.74	36407.03
662.88	36488.95
663.03	36222.13
663.17	36528.74
663.31	36051.27
663.45	36594.28
663.60	37092.81
663.74	36547.47
663.88	36418.74
664.02	36077.02
664.17	36229.15
664.31	35882.75
664.45	35871.05
664.59	35892.12
664.73	36294.69
664.88	36292.35
665.02	35655.72
665.16	36072.34
665.30	35894.46
665.44	35840.62
665.59	35751.68
665.73	35452.09
665.87	35468.48
666.01	35868.71
666.15	35686.15
666.29	35761.05
666.44	36119.15
666.58	35438.05
666.72	35061.22
666.86	35377.20
667.00	35503.59
667.14	35086.97
667.28	34911.43
667.43	35131.44
667.57	35030.80
667.71	35276.55
667.85	35218.04
667.99	35019.10
668.13	34923.13
668.27	34682.06
668.41	34450.35
668.56	34373.11
668.70	34408.22
668.84	34338.00
668.98	34366.09
669.12	34789.72
669.26	34611.84
669.40	34550.99
669.54	34443.32
669.68	33858.19
669.82	33916.70
669.96	33853.51
670.10	33418.17
670.25	33940.11
670.39	34256.08
670.53	34057.14
670.67	33621.80
670.81	33893.30
670.95	34068.84
671.09	33954.15
671.23	33537.54
671.37	33804.36
671.51	33390.08
671.65	33230.93
671.79	33373.70
671.93	33387.74
672.07	33406.47
672.21	33020.28
672.35	32730.05
672.49	33085.81
672.63	33186.46
672.77	32952.40
672.91	32999.21
673.05	32556.85
673.19	32388.33
673.33	32418.76
673.47	32182.37
673.61	31903.84
673.75	31826.60
673.89	32077.04
674.03	31501.27
674.17	31667.45
674.31	31768.09
674.45	31852.35
674.59	31850.01
674.73	31866.39
674.87	31480.21
675.01	31269.56
675.15	31285.94
675.29	31353.82
675.43	31608.93
675.56	31431.05
675.70	31255.51
675.84	31311.69
675.98	30349.73
676.12	30888.05
676.26	31599.57
676.40	31143.17
676.54	30328.66
676.68	30726.55
676.82	30455.05
676.96	30473.78
677.10	30693.79
677.23	29998.65
677.37	29919.07
677.51	30157.80
677.65	29930.77
677.79	30029.07
677.93	30066.52
678.07	29979.92
678.21	29551.60
678.34	29247.33
678.48	29326.91
678.62	29502.45
678.76	29425.22
678.90	29223.93
679.04	29158.39
679.18	29081.16
679.31	28641.14
679.45	28788.59
679.59	28936.04
679.73	28996.90
679.87	28678.58
680.00	28472.62
680.14	28851.78
680.28	28397.72
680.42	28233.88
680.56	28170.69
680.70	27704.92
680.83	28013.87
680.97	27515.34
681.11	27896.85
681.25	27608.96
681.39	27349.16
681.52	27623.00
681.66	27353.84
681.80	26984.04
681.94	27047.23
682.07	26782.75
682.21	26480.82
682.35	26899.78
682.49	26609.55
682.62	26752.32
682.76	26597.85
682.90	26595.51
683.04	26583.80
683.17	26469.12
683.31	26494.86
683.45	26036.12
683.59	26174.21
683.72	25841.85
683.86	25839.51
684.00	25530.56
684.13	25731.85
684.27	25736.53
684.41	25525.88
684.55	25940.16
684.68	25191.19
684.82	25015.65
684.96	25097.56
685.09	25013.31
685.23	25036.71
685.37	25289.49
685.50	25132.67
685.64	24980.54
685.78	24741.80
685.91	24720.74
686.05	24133.26
686.19	23964.75
686.32	24027.94
686.46	24009.22
686.60	24009.22
686.73	24203.48
686.87	24011.56
687.01	24126.24
687.14	23683.88
687.28	23929.64
687.42	23578.56
687.55	23477.91
687.69	23510.68
687.82	23185.35
687.96	23295.35
688.10	23393.65
688.23	22993.42
688.37	23290.67
688.50	23309.40
688.64	22787.46
688.78	22677.45
688.91	22836.61
689.05	22920.87
689.18	22555.74
689.32	22398.93
689.46	21994.01
689.59	22693.83
689.73	22546.38
689.86	22139.13
690.00	22024.44
690.13	22167.21
690.27	22075.93
690.41	21851.24
690.54	21745.92
690.68	21916.78
690.81	21551.65
690.95	21439.31
691.08	21097.59
691.22	21268.45
691.35	20966.52
691.49	21130.36
691.62	21015.67
691.76	20671.61
691.89	20458.62
692.03	20556.93
692.16	20322.87
692.30	20437.56
692.43	20444.58
692.57	19983.49
692.70	20255.00
692.84	20123.93
692.97	19868.81
693.11	19985.83
693.24	19791.57
693.38	19609.01
693.51	19536.45
693.65	19440.49
693.78	19723.69
693.92	19271.97
694.05	19096.43
694.19	19293.04
694.32	19260.27
694.45	19339.85
694.59	19365.59
694.72	19370.27
694.86	19080.05
694.99	18923.23
695.13	18726.63
695.26	18677.48
695.39	18520.66
695.53	18398.95
695.66	18317.03
695.80	18183.62
695.93	18153.20
696.07	18101.70
696.20	17916.80
696.33	17633.60
696.47	17783.39
696.60	17844.24
696.73	17717.86
696.87	17862.97
697.00	17972.97
697.14	17348.05
697.27	17151.45
697.40	17523.59
697.54	17174.85
697.67	17191.23
697.80	17310.60
697.94	17254.43
698.07	17074.21
698.21	16861.22
698.34	16535.88
698.47	16765.26
698.61	16280.77
698.74	16402.47
698.87	16559.29
699.01	16240.98
699.14	16322.90
699.27	16428.22
699.40	16156.72
699.54	15962.45
699.67	16077.14
699.80	16006.92
699.94	15899.26
700.07	15864.15
700.20	15697.97
700.34	15536.48
700.47	15592.65
700.60	15779.89
700.73	15634.78
700.87	15604.35
701.00	15316.47
701.13	15101.14
701.26	14979.43
701.40	14937.30
701.53	14932.62
701.66	14848.36
701.79	15150.29
701.93	14728.99
702.06	14401.32
702.19	14452.81
702.32	14731.33
702.46	14581.54
702.59	14595.58
702.72	14628.35
702.85	14628.35
702.99	14420.04
703.12	14183.65
703.25	14218.75
703.38	14038.53
703.51	14083.00
703.65	13987.04
703.78	13757.67
703.91	13851.29
704.04	13661.71
704.17	13399.57
704.31	13551.70
704.44	13296.58
704.57	13188.92
704.70	13369.14
704.83	13385.52
704.96	13015.72
705.10	13132.75
705.23	13184.24
>>>>>End Processed Spectral Data<<<<<
