SpectraSuite Data File
++++++++++++++++++++++++++++++++++++
Date: Fri Oct 25 11:33:39 EDT 2013
User: price-jones
Dark Spectrum Present: No
Reference Spectrum Present: No
Number of Sampled Component Spectra: 1
Spectrometers: USB2+H05261
Integration Time (usec): 100000 (USB2+H05261)
Spectra Averaged: 1 (USB2+H05261)
Boxcar Smoothing: 0 (USB2+H05261)
Correct for Electrical Dark: No (USB2+H05261)
Strobe/Lamp Enabled: No (USB2+H05261)
Correct for Detector Non-linearity: No (USB2+H05261)
Correct for Stray Light: No (USB2+H05261)
Number of Pixels in Processed Spectrum: 2048
>>>>>Begin Processed Spectral Data<<<<<
365.73	283.20
365.92	283.20
366.12	283.20
366.32	198.95
366.52	107.66
366.72	152.13
366.91	175.54
367.11	273.84
367.31	140.43
367.51	156.82
367.70	189.58
367.90	187.24
368.10	250.44
368.30	210.65
368.49	126.39
368.69	191.92
368.89	231.71
369.09	86.60
369.28	182.56
369.48	175.54
369.68	184.90
369.87	278.52
370.07	231.71
370.27	299.59
370.47	381.51
370.66	421.30
370.86	472.79
371.06	510.24
371.25	573.43
371.45	552.37
371.65	610.88
371.84	519.60
372.04	554.71
372.24	662.37
372.44	594.50
372.63	620.24
372.83	561.73
373.03	564.07
373.22	608.54
373.42	573.43
373.62	587.47
373.81	660.03
374.01	671.73
374.21	620.24
374.40	650.67
374.60	615.56
374.79	641.31
374.99	695.14
375.19	671.73
375.38	615.56
375.58	660.03
375.78	704.50
375.97	674.07
376.17	723.23
376.37	655.35
376.56	727.91
376.76	575.77
376.95	697.48
377.15	737.27
377.35	667.05
377.54	711.52
377.74	660.03
377.93	692.80
378.13	685.78
378.33	713.86
378.52	692.80
378.72	648.33
378.91	692.80
379.11	688.12
379.31	669.39
379.50	793.44
379.70	746.63
379.89	868.34
380.09	763.01
380.28	732.59
380.48	730.25
380.68	653.01
380.87	667.05
381.07	774.72
381.26	791.10
381.46	800.46
381.65	823.87
381.85	763.01
382.04	727.91
382.24	753.65
382.43	844.93
382.63	779.40
382.83	767.70
383.02	788.76
383.22	835.57
383.41	786.42
383.61	868.34
383.80	814.51
384.00	713.86
384.19	819.19
384.39	842.59
384.58	835.57
384.78	912.81
384.97	777.06
385.17	851.96
385.36	830.89
385.56	837.91
385.75	819.19
385.95	763.01
386.14	819.19
386.34	856.64
386.53	805.14
386.72	908.13
386.92	877.70
387.11	861.32
387.31	938.55
387.50	915.15
387.70	891.74
387.89	903.45
388.09	971.32
388.28	880.04
388.48	873.02
388.67	917.49
388.86	861.32
389.06	891.74
389.25	922.17
389.45	978.34
389.64	943.24
389.84	929.19
390.03	999.41
390.22	1057.92
390.42	976.00
390.61	973.66
390.81	1001.75
391.00	922.17
391.19	929.19
391.39	973.66
391.58	976.00
391.78	987.71
391.97	1046.22
392.16	973.66
392.36	1004.09
392.55	992.39
392.75	1081.33
392.94	990.05
393.13	1193.67
393.33	1109.41
393.52	1074.31
393.71	1036.86
393.91	1022.81
394.10	1057.92
394.29	1071.97
394.49	1039.20
394.68	1116.44
394.88	1128.14
395.07	1167.93
395.26	1135.16
395.46	1107.07
395.65	1111.75
395.84	1207.72
396.04	1193.67
396.23	1172.61
396.42	1160.91
396.62	1181.97
396.81	1226.44
397.00	1235.80
397.19	1210.06
397.39	1114.10
397.58	1256.87
397.77	1273.25
397.97	1306.02
398.16	1263.89
398.35	1299.00
398.55	1352.83
398.74	1247.51
398.93	1336.45
399.12	1369.21
399.32	1329.42
399.51	1331.76
399.70	1352.83
399.90	1336.45
400.09	1294.32
400.28	1406.66
400.47	1441.77
400.67	1462.83
400.86	1364.53
401.05	1359.85
401.24	1537.73
401.44	1430.07
401.63	1404.32
401.82	1404.32
402.01	1460.49
402.21	1486.24
402.40	1434.75
402.59	1497.94
402.78	1460.49
402.97	1563.48
403.17	1568.16
403.36	1490.92
403.55	1547.09
403.74	1619.65
403.93	1739.02
404.13	1640.72
404.32	1605.61
404.51	1586.88
404.70	1626.67
404.89	1715.61
405.09	1743.70
405.28	1689.87
405.47	1673.48
405.66	1739.02
405.85	1736.68
406.05	1579.86
406.24	1717.95
406.43	1757.74
406.62	1792.85
406.81	1856.04
407.00	1839.66
407.20	1762.42
407.39	1729.66
407.58	1818.60
407.77	1898.17
407.96	1907.54
408.15	1874.77
408.34	1813.92
408.54	2015.20
408.73	1928.60
408.92	1947.33
409.11	1928.60
409.30	1916.90
409.49	2073.71
409.68	1900.52
409.87	1940.30
410.07	2022.22
410.26	2104.14
410.45	2026.90
410.64	1989.46
410.83	2122.87
411.02	2211.81
411.21	2179.04
411.40	2148.61
411.59	2214.15
411.78	2167.34
411.98	2263.30
412.17	2275.00
412.36	2267.98
412.55	2216.49
412.74	2396.71
412.93	2387.35
413.12	2275.00
413.31	2413.09
413.50	2385.01
413.69	2443.52
413.88	2354.58
414.07	2443.52
414.26	2525.44
414.45	2523.10
414.64	2649.49
414.83	2560.55
415.02	2628.42
415.22	2656.51
415.41	2724.38
415.60	2635.44
415.79	2743.11
415.98	2754.81
416.17	2775.88
416.36	2628.42
416.55	2825.03
416.74	2796.94
416.93	2902.26
417.12	2970.14
417.31	2892.90
417.50	2857.79
417.69	3014.61
417.88	2970.14
418.07	3056.74
418.26	2942.05
418.45	2949.08
418.64	2939.71
418.83	3138.66
419.02	3171.43
419.21	3098.87
419.39	3089.51
419.58	3101.21
419.77	2965.46
419.96	3082.49
420.15	3375.05
420.34	3087.17
420.53	3098.87
420.72	3176.11
420.91	3162.06
421.10	3258.03
421.29	3201.85
421.48	3192.49
421.67	3307.18
421.86	3412.50
422.05	3365.69
422.24	3323.56
422.43	3527.19
422.61	3206.53
422.80	3513.14
422.99	3487.40
423.18	3384.41
423.37	3412.50
423.56	3445.27
423.75	3379.73
423.94	3424.20
424.13	3180.79
424.32	3295.47
424.50	3515.48
424.69	3566.98
424.88	3548.25
425.07	3400.80
425.26	3396.12
425.45	3389.10
425.64	3396.12
425.83	3428.88
426.01	3510.80
426.20	3445.27
426.39	3557.61
426.58	3433.57
426.77	3442.93
426.96	3623.15
427.15	3344.63
427.33	3538.89
427.52	3676.98
427.71	3543.57
427.90	3653.58
428.09	3503.78
428.28	3660.60
428.46	3646.55
428.65	3630.17
428.84	3693.37
429.03	3838.48
429.22	3712.09
429.40	3801.03
429.59	3648.90
429.78	3674.64
429.97	3569.32
430.16	3669.96
430.34	3960.19
430.53	3824.44
430.72	3770.60
430.91	3866.56
431.10	3770.60
431.28	3887.63
431.47	3983.59
431.66	3936.78
431.85	4018.70
432.03	4131.05
432.22	4124.02
432.41	3971.89
432.60	3995.29
432.79	4109.98
432.97	4044.45
433.16	4191.90
433.35	4093.60
433.54	4273.82
433.72	4353.40
433.91	4077.21
434.10	4180.20
434.28	4114.66
434.47	4236.37
434.66	4304.25
434.85	4351.06
435.03	4449.36
435.22	4327.65
435.41	4402.55
435.59	4479.79
435.78	4376.80
435.97	4306.59
436.16	4374.46
436.34	4386.16
436.53	4379.14
436.72	4676.39
436.90	4447.02
437.09	4374.46
437.28	4390.84
437.46	4414.25
437.65	4566.39
437.84	4582.77
438.02	4624.90
438.21	4510.21
438.40	4596.81
438.58	4690.43
438.77	4821.50
438.96	4777.03
439.14	4880.02
439.33	4910.44
439.52	5076.62
439.70	4821.50
439.89	5057.90
440.08	4954.91
440.26	4961.94
440.45	5027.47
440.63	5027.47
440.82	5294.29
441.01	5025.13
441.19	5366.85
441.38	5238.12
441.57	5348.12
441.75	5305.99
441.94	5394.93
442.12	5378.55
442.31	5392.59
442.50	5352.81
442.68	5329.40
442.87	5521.32
443.05	5434.72
443.24	5540.05
443.43	5509.62
443.61	5579.84
443.80	5806.87
443.98	5413.66
444.17	5385.57
444.35	5479.19
444.54	5774.10
444.73	5771.76
444.91	5614.95
445.10	5633.67
445.28	5607.92
445.47	5530.69
445.65	5643.03
445.84	5731.97
446.02	5738.99
446.21	5607.92
446.39	5626.65
446.58	5682.82
446.77	5851.34
446.95	5593.88
447.14	5856.02
447.32	5937.94
447.51	5659.42
447.69	5607.92
447.88	5743.67
448.06	5710.91
448.25	5790.49
448.43	5954.32
448.62	5799.85
448.80	5799.85
448.99	5827.93
449.17	5947.30
449.36	5884.11
449.54	6078.37
449.73	6064.33
449.91	6216.46
450.10	6036.24
450.28	6104.12
450.46	6087.73
450.65	6169.65
450.83	6200.08
451.02	6132.20
451.20	6101.78
451.39	6150.93
451.57	6183.70
451.76	6179.01
451.94	6045.60
452.13	6359.24
452.31	6221.14
452.49	6136.88
452.68	6443.49
452.86	6267.95
453.05	6361.58
453.23	6340.51
453.42	6361.58
453.60	6237.53
453.78	6494.99
453.97	6441.15
454.15	6408.39
454.34	6223.48
454.52	6544.14
454.70	6516.05
454.89	6682.23
455.07	6588.61
455.26	6635.42
455.44	6738.40
455.62	6483.28
455.81	6726.70
455.99	6834.36
456.17	6836.70
456.36	6796.92
456.54	6731.38
456.73	6843.73
456.91	6970.12
457.09	6911.60
457.28	7110.55
457.46	6860.11
457.64	7178.42
457.83	7037.99
458.01	7023.95
458.19	7103.53
458.38	7183.10
458.56	7133.95
458.74	7152.68
458.93	7342.26
459.11	7089.48
459.29	7084.80
459.48	7180.76
459.66	7199.49
459.84	7360.98
460.03	7463.97
460.21	7386.73
460.39	7215.87
460.57	7293.11
460.76	7452.27
460.94	7597.38
461.12	7609.08
461.31	7585.68
461.49	7447.58
461.67	7386.73
461.85	7651.21
462.04	7611.42
462.22	8149.75
462.40	7714.41
462.59	7691.00
462.77	7892.29
462.95	7770.58
463.13	7793.98
463.32	7768.24
463.50	7831.43
463.68	7859.52
463.86	7955.48
464.05	7852.50
464.23	7801.01
464.41	8065.49
464.59	7843.14
464.78	8035.06
464.96	8093.57
465.14	7786.96
465.32	7964.84
465.50	8060.80
465.69	8315.92
465.87	8077.19
466.05	8018.68
466.23	8271.45
466.41	8173.15
466.60	8388.48
466.78	8346.35
466.96	8152.09
467.14	8107.62
467.32	8252.73
467.51	8360.39
467.69	8032.72
467.87	8432.95
468.05	8404.86
468.23	8386.14
468.41	8341.67
468.60	8566.36
468.78	8510.19
468.96	8339.33
469.14	8348.69
469.32	8755.94
469.50	8407.20
469.69	8753.60
469.87	8741.90
470.05	8709.13
470.23	8741.90
470.41	8730.20
470.59	8734.88
470.77	8863.61
470.95	8926.80
471.14	8957.23
471.32	8676.37
471.50	9083.62
471.68	8894.04
471.86	9224.05
472.04	9041.49
472.22	9320.01
472.40	9004.04
472.58	9149.15
472.77	9465.13
472.95	9483.85
473.13	9778.76
473.31	9451.08
473.49	9425.34
473.67	9516.62
473.85	9605.56
474.03	9802.16
474.21	9650.03
474.39	9682.80
474.57	9778.76
474.75	9900.47
474.93	10017.49
475.12	9886.42
475.30	9973.02
475.48	9902.81
475.66	10092.39
475.84	10106.43
476.02	10232.82
476.20	10291.34
476.38	10471.56
476.56	10562.84
476.74	10520.71
476.92	10672.84
477.10	10534.75
477.28	10841.36
477.46	10752.42
477.64	10658.80
477.82	10911.58
478.00	11349.26
478.18	11042.65
478.36	11201.80
478.54	11459.26
478.72	11199.46
478.90	11398.41
479.08	11651.19
479.26	11810.34
479.44	11555.22
479.62	11630.12
479.80	12004.61
479.98	12222.28
480.16	12116.95
480.34	12208.23
480.52	12334.62
480.70	12332.28
480.88	12346.33
481.06	12409.52
481.24	12259.73
481.41	12360.37
481.59	12601.44
481.77	12807.41
481.95	12917.42
482.13	13064.87
482.31	12957.21
482.49	13451.06
482.67	13301.26
482.85	13418.29
483.03	13518.93
483.21	13577.45
483.39	13685.11
483.57	13998.74
483.74	13886.40
483.92	14108.75
484.10	14080.66
484.28	14413.02
484.46	14431.74
484.64	14836.66
484.82	14389.61
485.00	14501.96
485.18	15171.35
485.35	15021.56
485.53	15101.14
485.71	14979.43
485.89	15442.85
486.07	15012.20
486.25	15646.48
486.43	15449.88
486.61	15793.94
486.78	15901.60
486.96	15807.98
487.14	16339.28
487.32	15969.48
487.50	16355.66
487.68	16404.81
487.85	16748.87
488.03	16889.31
488.21	16826.11
488.39	17156.13
488.57	17188.89
488.75	17301.24
488.92	17542.32
489.10	17586.79
489.28	17460.40
489.46	17671.04
489.64	17617.21
489.81	18209.37
489.99	18068.94
490.17	18401.29
490.35	18239.79
490.53	18595.56
490.70	18663.43
490.88	18724.29
491.06	18869.40
491.24	18993.45
491.41	19063.66
491.59	19087.07
491.77	19260.27
491.95	19510.71
492.13	19410.06
492.30	19988.18
492.48	19941.36
492.66	19761.14
492.84	19585.60
493.01	20332.23
493.19	20002.22
493.37	20100.52
493.54	20236.27
493.72	20702.04
493.90	20692.68
494.08	20769.91
494.25	20980.56
494.43	21041.42
494.61	21586.76
494.79	21018.01
494.96	21240.36
495.14	21378.45
495.32	21558.67
495.49	21729.53
495.67	21900.39
495.85	21935.50
496.02	22010.40
496.20	22221.05
496.38	22647.02
496.55	22228.07
496.73	22768.73
496.91	22635.32
497.09	22918.53
497.26	22934.91
497.44	22775.75
497.62	22972.36
497.79	23344.50
497.97	23288.33
498.14	23613.66
498.32	23447.49
498.50	23782.18
498.67	23983.47
498.85	23873.46
499.03	24093.47
499.20	24060.71
499.38	24177.73
499.56	24287.74
499.73	24671.59
499.91	24603.71
500.08	24893.94
500.26	24435.19
500.44	24872.87
500.61	24680.95
500.79	24945.43
500.97	25053.09
501.14	25385.45
501.32	25324.60
501.49	25160.76
501.67	25715.47
501.84	25757.60
502.02	25839.51
502.20	25469.71
502.37	26167.19
502.55	26008.03
502.72	26148.46
502.90	25678.02
503.07	25853.56
503.25	26047.82
503.43	25783.34
503.60	26426.99
503.78	26852.97
503.95	26450.39
504.13	26567.42
504.30	26810.84
504.48	26703.17
504.65	26618.91
504.83	27164.26
505.01	27496.61
505.18	27129.15
505.36	27508.32
505.53	27075.32
505.71	27358.52
505.88	27880.46
506.06	27484.91
506.23	27702.58
506.41	27505.98
506.58	27613.64
506.76	27964.72
506.93	27850.03
507.11	28091.11
507.28	28301.76
507.46	27990.47
507.63	28573.26
507.81	28463.25
507.98	28212.82
508.16	28048.98
508.33	28627.09
508.50	28577.94
508.68	28601.35
508.85	29060.09
509.03	28741.78
509.20	28987.53
509.38	29212.23
509.55	29338.62
509.73	29106.90
509.90	29572.67
510.08	29259.04
510.25	29652.25
510.42	29514.16
510.60	29773.95
510.77	30235.04
510.95	30279.51
511.12	30080.56
511.30	29977.58
511.47	29858.21
511.64	30110.99
511.82	30057.16
511.99	30143.76
512.17	30497.18
512.34	30866.98
512.51	30754.64
512.69	30951.24
512.86	30654.00
513.04	30792.09
513.21	31098.70
513.38	31028.48
513.56	31461.48
513.73	31227.43
513.90	30993.37
514.08	31438.08
514.25	31239.13
514.43	31721.28
514.60	31573.83
514.77	31559.78
514.95	31901.50
515.12	31335.09
515.29	31704.90
515.47	31957.67
515.64	32271.31
515.81	31665.11
515.99	32463.23
516.16	32369.61
516.33	32151.94
516.51	32631.75
516.68	31929.59
516.85	32350.88
517.03	32840.06
517.20	32608.34
517.37	32444.51
517.54	32917.29
517.72	32746.44
517.89	32950.06
518.06	33582.01
518.24	32615.37
518.41	33247.31
518.58	32826.01
518.75	33027.30
518.93	33085.81
519.10	33144.33
519.27	33500.09
519.45	33813.72
519.62	33766.91
519.79	33975.22
519.96	33958.83
520.14	33635.84
520.31	33839.47
520.48	33745.84
520.65	34190.55
520.83	34604.82
521.00	34462.05
521.17	34050.11
521.34	34403.53
521.52	34237.36
521.69	34513.54
521.86	34499.50
522.03	34726.53
522.20	34932.50
522.38	34881.00
522.55	34873.98
522.72	34862.28
522.89	35026.12
523.07	35353.79
523.24	35335.07
523.41	35246.13
523.58	35101.01
523.75	35456.78
523.92	35639.34
524.10	35992.76
524.27	35206.34
524.44	36203.41
524.61	35772.75
524.78	35957.65
524.96	36210.43
525.13	36208.09
525.30	36147.23
525.47	36275.96
525.64	35934.24
525.81	35969.35
525.98	36631.72
526.16	36421.08
526.33	36397.67
526.50	36273.62
526.67	36332.14
526.84	36566.19
527.01	36320.43
527.18	36624.70
527.36	36868.12
527.53	36638.75
527.70	37209.84
527.87	37202.82
528.04	37333.89
528.21	36900.89
528.38	36563.85
528.55	37280.05
528.72	37008.55
528.89	37460.27
529.07	37240.26
529.24	37254.31
529.41	37675.60
529.58	37280.05
529.75	37764.54
529.92	37621.77
530.09	37326.86
530.26	37699.01
530.43	37584.32
530.60	37912.00
530.77	37064.72
530.94	37794.97
531.11	37614.75
531.28	37848.80
531.46	38043.07
531.63	37975.19
531.80	38031.36
531.97	37937.74
532.14	38080.52
532.31	38464.36
532.48	38443.30
532.65	38621.18
532.82	38433.94
532.99	38473.73
533.16	38918.43
533.33	38518.20
533.50	38822.47
533.67	38707.78
533.84	38721.82
534.01	38707.78
534.18	38911.41
534.35	39672.08
534.52	38923.11
534.69	39356.11
534.86	39213.34
535.03	39325.68
535.20	39292.91
535.37	39566.76
535.54	39716.55
535.71	39344.41
535.88	39971.67
536.05	39620.59
536.22	39959.97
536.38	40046.57
536.55	39611.23
536.72	39732.93
536.89	39505.90
537.06	39651.02
537.23	40023.16
537.40	40128.48
537.57	39711.87
537.74	39529.31
537.91	40243.17
538.08	40664.47
538.25	39519.95
538.42	40240.83
538.59	40350.84
538.75	40259.55
538.92	40451.48
539.09	40793.20
539.26	40264.24
539.43	40095.72
539.60	40254.87
539.77	40570.85
539.94	40891.50
540.11	40788.52
540.28	41132.57
540.44	40786.18
540.61	41071.72
540.78	40540.42
540.95	40889.16
541.12	40627.02
541.29	40620.00
541.46	41340.88
541.62	41158.32
541.79	41177.04
541.96	40744.05
542.13	41078.74
542.30	41497.70
542.47	41338.54
542.63	41530.47
542.80	41872.18
542.97	42101.56
543.14	42141.35
543.31	41626.43
543.48	41979.85
543.64	42527.53
543.81	41757.50
543.98	42171.77
544.15	42241.99
544.32	42197.52
544.48	42178.79
544.65	41940.06
544.82	42408.17
544.99	41867.50
545.16	42115.60
545.32	42337.95
545.49	42663.28
545.66	42686.69
545.83	42569.66
546.00	42569.66
546.16	42682.01
546.33	42213.90
546.50	42429.23
546.67	42885.64
546.83	42234.97
547.00	42609.45
547.17	42473.70
547.34	42740.52
547.50	43232.04
547.67	43051.81
547.84	43203.95
548.00	42831.80
548.17	43433.32
548.34	43505.88
548.51	43028.41
548.67	43257.78
548.84	43253.10
549.01	43374.81
549.18	43526.94
549.34	43316.29
549.51	43115.01
549.68	43711.84
549.84	43641.63
550.01	43386.51
550.18	43461.41
550.34	43405.23
550.51	43878.02
550.68	43931.86
550.84	43395.87
551.01	43770.36
551.18	43505.88
551.34	43356.08
551.51	44060.58
551.68	43428.64
551.84	43817.17
552.01	43988.03
552.18	44311.02
552.34	43985.69
552.51	43952.92
552.68	44053.56
552.84	44034.84
553.01	44018.46
553.18	44079.31
553.34	44439.75
553.51	44034.84
553.67	44577.84
553.84	44987.44
554.01	44186.97
554.17	44463.16
554.34	44825.94
554.51	44095.69
554.67	44762.75
554.84	44786.15
555.00	44666.78
555.17	44673.81
555.33	44453.79
555.50	44353.15
555.67	44631.68
555.83	44832.96
556.00	44781.47
556.16	45312.77
556.33	45172.34
556.50	44949.99
556.66	44507.63
556.83	44921.90
556.99	45380.65
557.16	45560.87
557.32	44832.96
557.49	44804.88
557.65	44957.01
557.82	45177.02
557.98	45270.64
558.15	44856.37
558.32	45029.57
558.48	44912.54
558.65	44865.73
558.81	45326.81
558.98	45305.75
559.14	44926.58
559.31	45048.29
559.47	45092.76
559.64	45483.63
559.80	45296.39
559.97	45546.82
560.13	45209.79
560.30	45387.67
560.46	45680.24
560.63	46073.45
560.79	45680.24
560.96	46012.59
561.12	45652.15
561.29	45757.47
561.45	45904.93
561.61	45624.06
561.78	45701.30
561.94	45104.46
562.11	45961.10
562.27	46291.12
562.44	45598.32
562.60	45626.40
562.77	45663.85
562.93	45930.67
563.10	45649.81
563.26	45930.67
563.42	46461.97
563.59	46103.87
563.75	46010.25
563.92	46040.68
564.08	46143.66
564.24	46174.09
564.41	45766.84
564.57	45705.98
564.74	46204.52
564.90	45890.88
565.07	46092.17
565.23	46003.23
565.39	45750.45
565.56	46138.98
565.72	45925.99
565.88	46117.92
566.05	46630.49
566.21	46113.23
566.38	45902.59
566.54	46431.55
566.70	46398.78
566.87	46749.86
567.03	46234.94
567.19	46384.74
567.36	46387.08
567.52	46457.29
567.68	47063.49
567.85	46014.93
568.01	46904.34
568.17	46319.20
568.34	46602.41
568.50	46808.37
568.66	46064.08
568.83	46506.44
568.99	46628.15
569.15	46314.52
569.32	46546.23
569.48	46344.95
569.64	46902.00
569.81	47056.47
569.97	46658.58
570.13	46555.60
570.30	46813.05
570.46	46600.07
570.62	46698.37
570.78	46258.35
570.95	46747.52
571.11	46892.63
571.27	46700.71
571.43	46342.61
571.60	46637.51
571.76	46143.66
571.92	46880.93
572.09	46866.89
572.25	46466.66
572.41	46515.81
572.57	46857.52
572.74	47138.39
572.90	46784.97
573.06	46763.90
573.22	47220.31
573.38	47030.72
573.55	46794.33
573.71	47119.66
573.87	46721.77
574.03	46593.04
574.20	47044.77
574.36	46735.82
574.52	46469.00
574.68	47351.38
574.84	46890.29
575.01	47063.49
575.17	46990.94
575.33	46934.76
575.49	46852.84
575.65	47466.06
575.82	47229.67
575.98	46714.75
576.14	47014.34
576.30	47210.95
576.46	47243.71
576.62	46827.10
576.79	47077.54
576.95	46834.12
577.11	47007.32
577.27	46969.87
577.43	46976.89
577.59	47187.54
577.75	47150.09
577.92	46880.93
578.08	46920.72
578.24	47299.89
578.40	47395.85
578.56	47295.21
578.72	47332.65
578.88	47409.89
579.04	46962.85
579.21	47709.48
579.37	47496.49
579.53	46934.76
579.69	47103.28
579.85	46923.06
580.01	47496.49
580.17	47126.69
580.33	47044.77
580.49	47409.89
580.65	46988.60
580.82	46726.46
580.98	46997.96
581.14	46789.65
581.30	47227.33
581.46	46880.93
581.62	46838.80
581.78	47016.68
581.94	47583.09
582.10	47070.51
582.26	47611.18
582.42	47611.18
582.58	47585.43
582.74	47356.06
582.90	47346.70
583.06	47107.96
583.22	47114.98
583.38	47248.39
583.54	47107.96
583.70	47143.07
583.86	47030.72
584.02	47592.45
584.18	47737.57
584.34	46923.06
584.50	47683.73
584.66	47662.67
584.82	47356.06
584.98	47950.56
585.14	47421.59
585.30	47243.71
585.46	47477.77
585.62	47440.32
585.78	47625.22
585.94	47210.95
586.10	47208.61
586.26	47416.91
586.42	47517.56
586.58	47349.04
586.74	47573.73
586.90	46834.12
587.06	47498.83
587.22	47229.67
587.38	47208.61
587.54	47445.00
587.70	48034.81
587.86	47342.02
588.02	47222.65
588.18	47676.71
588.34	47571.39
588.49	47590.11
588.65	47477.77
588.81	47587.77
588.97	47728.20
589.13	47657.99
589.29	47351.38
589.45	47676.71
589.61	47643.94
589.77	47569.05
589.93	47697.78
590.08	47819.49
590.24	48032.47
590.40	48147.16
590.56	48158.86
590.72	47800.76
590.88	47760.97
591.04	47421.59
591.20	47917.79
591.35	48179.93
591.51	48334.40
591.67	48048.86
591.83	47969.28
591.99	47943.53
592.15	47657.99
592.31	47646.29
592.46	47562.03
592.62	47936.51
592.78	48179.93
592.94	48203.33
593.10	47887.36
593.26	48072.26
593.41	48013.75
593.57	47805.44
593.73	48205.67
593.89	48432.71
594.05	48271.21
594.20	48013.75
594.36	48659.74
594.52	48334.40
594.68	47634.58
594.84	47400.53
594.99	48498.24
595.15	47751.61
595.31	48208.01
595.47	48453.77
595.62	48282.91
595.78	48191.63
595.94	48271.21
596.10	47978.64
596.25	48121.41
596.41	48545.05
596.57	48119.07
596.73	48371.85
596.88	48044.18
597.04	48179.93
597.20	48278.23
597.36	48130.78
597.51	48208.01
597.67	48172.91
597.83	47980.98
597.99	48208.01
598.14	48308.66
598.30	48282.91
598.46	47863.96
598.61	48575.48
598.77	48210.35
598.93	48531.01
599.09	48685.48
599.24	48353.13
599.40	48329.72
599.56	48582.50
599.71	48739.32
599.87	48561.44
600.03	48556.75
600.18	48320.36
600.34	48285.25
600.50	48547.39
600.65	48364.83
600.81	48142.48
600.97	48563.78
601.12	48502.92
601.28	48203.33
601.44	48617.61
601.59	48156.52
601.75	48168.22
601.91	48617.61
602.06	48051.20
602.22	48715.91
602.37	48399.94
602.53	48282.91
602.69	48488.88
602.84	48208.01
603.00	47985.66
603.16	48060.56
603.31	48048.86
603.47	48704.21
603.62	48149.50
603.78	48671.44
603.94	48355.47
604.09	48238.44
604.25	48287.59
604.40	47959.92
604.56	48140.14
604.71	48341.42
604.87	48589.52
605.03	48083.97
605.18	48179.93
605.34	48488.88
605.49	47833.53
605.65	48453.77
605.80	48154.18
605.96	48011.41
606.12	47903.74
606.27	48350.79
606.43	48198.65
606.58	48236.10
606.74	48456.11
606.89	48130.78
607.05	48596.54
607.20	48313.34
607.36	48065.24
607.51	48175.25
607.67	48163.54
607.82	47983.32
607.98	47971.62
608.13	48399.94
608.29	48083.97
608.44	48203.33
608.60	48240.78
608.75	48320.36
608.91	48004.39
609.06	47796.08
609.22	48203.33
609.37	47854.59
609.53	47732.89
609.68	47955.24
609.84	48144.82
609.99	48154.18
610.15	48123.75
610.30	48313.34
610.46	47922.47
610.61	48098.01
610.76	48105.03
610.92	47704.80
611.07	47543.30
611.23	47770.33
611.38	48165.88
611.54	48039.50
611.69	47730.54
611.84	47973.96
612.00	47906.08
612.15	47767.99
612.31	47753.95
612.46	47498.83
612.62	47601.82
612.77	47517.56
612.92	47714.16
613.08	47849.91
613.23	47798.42
613.39	47714.16
613.54	47562.03
613.69	47831.19
613.85	47496.49
614.00	47508.19
614.15	47945.87
614.31	47325.63
614.46	47828.85
614.62	47423.93
614.77	47456.70
614.92	47672.03
615.08	47398.19
615.23	47578.41
615.38	47466.06
615.54	47332.65
615.69	47459.04
615.84	47157.11
616.00	47716.50
616.15	47269.46
616.30	47599.47
616.46	47491.81
616.61	47526.92
616.76	47856.93
616.92	47498.83
617.07	47646.29
617.22	46904.34
617.37	47033.07
617.53	47119.66
617.68	47075.19
617.83	47356.06
617.99	47627.56
618.14	47552.66
618.29	46934.76
618.45	47047.11
618.60	47161.79
618.75	46527.51
618.90	47276.48
619.06	46953.49
619.21	47187.54
619.36	47278.82
619.51	47173.50
619.67	46845.82
619.82	46773.27
619.97	47576.07
620.12	47196.90
620.28	46789.65
620.43	47058.81
620.58	46864.55
620.73	47175.84
620.89	46747.52
621.04	47433.30
621.19	47021.36
621.34	47037.75
621.49	46735.82
621.65	46986.25
621.80	46761.56
621.95	47021.36
622.10	47243.71
622.25	46670.28
622.41	47004.98
622.56	46658.58
622.71	46813.05
622.86	46813.05
623.01	47206.26
623.16	46979.23
623.32	46560.28
623.47	46632.83
623.62	46801.35
623.77	46522.83
623.92	46457.29
624.07	46637.51
624.23	46712.41
624.38	46691.35
624.53	46560.28
624.68	46564.96
624.83	46450.27
624.98	46644.54
625.13	46040.68
625.29	45872.16
625.44	46366.01
625.59	46323.88
625.74	46274.73
625.89	45872.16
626.04	46136.64
626.19	46094.51
626.34	46424.53
626.49	45743.43
626.65	45834.71
626.80	46031.32
626.95	45659.17
627.10	45476.61
627.25	45897.91
627.40	46101.53
627.55	45825.35
627.70	45773.86
627.85	45970.46
628.00	46092.17
628.15	45902.59
628.30	45469.59
628.45	45806.62
628.60	45078.72
628.76	45394.69
628.91	46050.04
629.06	45315.11
629.21	45593.64
629.36	45783.22
629.51	45614.70
629.66	45874.50
629.81	45652.15
629.96	45729.39
630.11	45427.46
630.26	45015.52
630.41	45570.23
630.56	45698.96
630.71	45750.45
630.86	45226.17
631.01	44734.66
631.16	44900.84
631.31	45298.73
631.46	45216.81
631.61	45771.52
631.76	45460.23
631.91	45750.45
632.06	45607.68
632.21	45621.72
632.36	45518.74
632.51	45265.96
632.66	45439.16
632.81	44744.02
632.96	45226.17
633.10	44779.13
633.25	44839.98
633.40	44755.72
633.55	45427.46
633.70	45158.30
633.85	44935.95
634.00	45067.02
634.15	44692.53
634.30	44671.46
634.45	44931.26
634.60	44854.03
634.75	45373.63
634.90	44580.18
635.05	45202.77
635.19	44643.38
635.34	44683.17
635.49	44708.91
635.64	44765.09
635.79	44940.63
635.94	44924.24
636.09	44914.88
636.24	44751.04
636.39	44692.53
636.53	44825.94
636.68	44034.84
636.83	44224.42
636.98	44165.91
637.13	44694.87
637.28	44395.28
637.43	44210.38
637.57	43920.15
637.72	44067.61
637.87	44229.10
638.02	44439.75
638.17	44346.13
638.32	44329.75
638.46	43681.42
638.61	43810.15
638.76	43957.60
638.91	44147.18
639.06	43721.21
639.20	43943.56
639.35	43646.31
639.50	44172.93
639.65	43971.64
639.80	44196.34
639.94	44568.48
640.09	44486.56
640.24	43903.77
640.39	43784.40
640.54	43388.85
640.68	43826.53
640.83	44240.81
640.98	43714.19
641.13	43440.34
641.27	44453.79
641.42	43971.64
641.57	43749.29
641.72	43461.41
641.86	43498.86
642.01	43871.00
642.16	43498.86
642.31	42871.59
642.45	43442.68
642.60	42848.19
642.75	43627.59
642.90	43679.08
643.04	43777.38
643.19	43449.70
643.34	42918.40
643.48	43255.44
643.63	43290.55
643.78	43124.37
643.93	43255.44
644.07	43861.64
644.22	43208.63
644.37	43021.39
644.51	43466.09
644.66	43124.37
644.81	42979.26
644.95	43236.72
645.10	42920.74
645.25	43105.65
645.39	42859.89
645.54	42796.70
645.69	42466.68
645.83	42892.66
645.98	42990.96
646.13	42656.26
646.27	43061.18
646.42	42206.88
646.57	42906.70
646.71	42899.68
646.86	42817.76
647.00	42834.14
647.15	43007.34
647.30	42721.80
647.44	42607.11
647.59	42632.86
647.74	42667.97
647.88	42862.23
648.03	42852.87
648.17	42607.11
648.32	42646.90
648.47	42719.46
648.61	42260.71
648.76	42520.51
648.90	42326.25
649.05	42286.46
649.20	42356.67
649.34	42302.84
649.49	42618.81
649.63	42728.82
649.78	42674.99
649.92	42237.31
650.07	42969.90
650.21	42445.62
650.36	42572.00
650.51	42515.83
650.65	42513.49
650.80	42071.13
650.94	42316.89
651.09	42115.60
651.23	41752.82
651.38	41750.48
651.52	41764.52
651.67	42017.30
651.81	42237.31
651.96	41949.42
652.10	41471.95
652.25	41982.19
652.39	41656.85
652.54	42120.28
652.68	41956.44
652.83	41708.35
652.97	42174.11
653.12	41808.99
653.26	41368.97
653.41	41483.66
653.55	42005.59
653.70	41827.71
653.84	41567.91
653.99	41972.83
654.13	41593.66
654.27	41539.83
654.42	41837.08
654.56	41277.69
654.71	41408.76
654.85	41902.61
655.00	41486.00
655.14	41684.94
655.29	41542.17
655.43	41624.09
655.57	41310.46
655.72	41031.93
655.86	41163.00
656.01	40687.87
656.15	40840.01
656.30	41301.09
656.44	41422.80
656.58	41153.64
656.73	41617.07
656.87	41031.93
657.01	41071.72
657.16	41170.02
657.30	41151.30
657.45	40877.46
657.59	40989.80
657.73	40196.36
657.88	40767.45
658.02	41116.19
658.16	41282.37
658.31	40868.09
658.45	40861.07
658.60	40524.04
658.74	40889.16
658.88	40498.29
659.03	40322.75
659.17	40397.65
659.31	40830.65
659.46	40285.30
659.60	40634.04
659.74	40425.73
659.89	40311.05
660.03	40011.46
660.17	40355.52
660.32	40069.97
660.46	40243.17
660.60	39878.05
660.74	39985.71
660.89	40336.79
661.03	39632.29
661.17	39377.17
661.32	39428.66
661.46	39580.80
661.60	39529.31
661.74	39679.10
661.89	39686.12
662.03	39934.22
662.17	39466.11
662.31	39477.82
662.46	39435.69
662.60	39536.33
662.74	39140.78
662.88	39012.05
663.03	39068.22
663.17	38796.72
663.31	38696.08
663.45	39328.02
663.60	39412.28
663.74	39206.31
663.88	39248.44
664.02	38553.30
664.17	38923.11
664.31	38408.19
664.45	38841.19
664.59	38719.48
664.73	38923.11
664.88	38665.65
665.02	38403.51
665.16	37996.26
665.30	38345.00
665.44	38333.29
665.59	38337.98
665.73	37874.55
665.87	37989.24
666.01	38274.78
666.15	38305.21
666.29	38054.77
666.44	38120.31
666.58	37844.12
666.72	37902.64
666.86	38014.98
667.00	37425.17
667.14	38124.99
667.28	37619.43
667.43	37539.85
667.57	37951.79
667.71	37628.79
667.85	37963.49
667.99	37156.00
668.13	37205.16
668.27	36952.38
668.41	36978.12
668.56	36933.65
668.70	36566.19
668.84	36346.18
668.98	36603.64
669.12	36966.42
669.26	36453.84
669.40	36828.33
669.54	36739.39
669.68	37001.53
669.82	36538.10
669.96	36367.24
670.10	36158.94
670.25	36072.34
670.39	36187.02
670.53	36793.22
670.67	36236.17
670.81	36343.84
670.95	35910.84
671.09	35777.43
671.23	35667.42
671.37	36086.38
671.51	35578.48
671.65	35438.05
671.79	35772.75
671.93	36027.87
672.07	35641.68
672.21	35435.71
672.35	35206.34
672.49	35292.94
672.63	35236.77
672.77	34991.01
672.91	34719.51
673.05	35253.15
673.19	34763.98
673.33	34951.22
673.47	34742.91
673.61	34532.26
673.75	34316.93
673.89	34672.70
674.03	34110.97
674.17	34242.04
674.31	34197.57
674.45	34284.17
674.59	33799.68
674.73	34323.96
674.87	34178.84
675.01	33560.94
675.15	33457.96
675.29	33544.56
675.43	33268.37
675.56	33425.19
675.70	33439.23
675.84	33453.28
675.98	32589.62
676.12	33127.94
676.26	33879.25
676.40	32786.22
676.54	32673.88
676.68	33003.89
676.82	32095.77
676.96	32512.38
677.10	32669.20
677.23	32907.93
677.37	32552.17
677.51	32451.53
677.65	32156.62
677.79	31744.69
677.93	32203.43
678.07	32018.53
678.21	31740.00
678.34	31669.79
678.48	31026.14
678.62	31587.87
678.76	31171.25
678.90	31199.34
679.04	31218.07
679.18	31679.15
679.31	30745.28
679.45	30799.11
679.59	30714.85
679.73	30911.46
679.87	30728.89
680.00	30424.62
680.14	30471.43
680.28	30113.33
680.42	30359.09
680.56	30122.69
680.70	30045.46
680.83	29689.70
680.97	29972.90
681.11	29860.55
681.25	29703.74
681.39	29364.36
681.52	29432.24
681.66	28896.25
681.80	28694.97
681.94	28561.56
682.07	28732.42
682.21	28882.21
682.35	28343.89
682.49	28414.10
682.62	29085.84
682.76	28456.23
682.90	28465.60
683.04	28388.36
683.17	28313.46
683.31	28102.81
683.45	28379.00
683.59	27681.52
683.72	27740.03
683.86	28009.19
684.00	27758.75
684.13	27641.73
684.27	27182.98
684.41	27201.71
684.55	27381.93
684.68	27145.53
684.82	26705.51
684.96	27199.37
685.09	26972.33
685.23	27232.13
685.37	27358.52
685.50	26986.38
685.64	26778.07
685.78	26623.59
685.91	26483.16
686.05	26288.90
686.19	25668.66
686.32	25944.84
686.46	25432.26
686.60	25488.43
686.73	25734.19
686.87	26052.50
687.01	25614.82
687.14	25710.78
687.28	25504.82
687.42	25207.57
687.55	25624.18
687.69	25308.21
687.82	25092.88
687.96	25193.53
688.10	24884.58
688.23	24819.04
688.37	24776.91
688.50	25226.29
688.64	24526.47
688.78	24421.15
688.91	24580.31
689.05	24208.16
689.18	23981.13
689.32	23957.72
689.46	23655.79
689.59	24056.03
689.73	24287.74
689.86	24322.85
690.00	23889.85
690.13	23550.47
690.27	23318.76
690.41	23541.11
690.54	23091.73
690.68	22974.70
690.81	22878.74
690.95	23068.32
691.08	22918.53
691.22	22740.64
691.35	22562.76
691.49	22869.37
691.62	22628.30
691.76	22295.94
691.89	22054.87
692.03	22003.38
692.16	21769.32
692.30	22050.19
692.43	21717.83
692.57	21851.24
692.70	21991.67
692.84	21488.46
692.97	21284.83
693.11	21432.29
693.24	21329.30
693.38	21083.55
693.51	20800.34
693.65	20938.43
693.78	20690.34
693.92	20655.23
694.05	20835.45
694.19	20908.01
694.32	21013.33
694.45	20835.45
694.59	20559.27
694.72	20570.97
694.86	20102.86
694.99	20168.40
695.13	20032.65
695.26	19983.49
695.39	19697.95
695.53	19648.80
695.66	19524.75
695.80	19709.65
695.93	19594.96
696.07	19353.89
696.20	18693.86
696.33	18937.27
696.47	19110.47
696.60	18640.03
696.73	18726.63
696.87	19124.52
697.00	18965.36
697.14	18455.12
697.27	18862.38
697.40	18780.46
697.54	18628.32
697.67	18654.07
697.80	18562.79
697.94	18008.08
698.07	18160.22
698.21	18253.84
698.34	18036.17
698.47	17987.02
698.61	17334.01
698.74	17671.04
698.87	17462.74
699.01	17593.81
699.14	17724.88
699.27	17647.64
699.40	16999.31
699.54	17242.73
699.67	17289.54
699.80	16996.97
699.94	17048.46
700.07	17011.01
700.20	16912.71
700.34	16606.10
700.47	16776.96
700.60	17081.23
700.73	16627.17
700.87	16442.26
701.00	16156.72
701.13	16142.67
701.26	15836.06
701.40	16175.44
701.53	16219.91
701.66	16044.37
701.79	16142.67
701.93	15999.90
702.06	15555.20
702.19	15545.84
702.32	15775.21
702.46	15751.81
702.59	15707.34
702.72	15723.72
702.85	15524.77
702.99	15391.36
703.12	15136.24
703.25	15094.11
703.38	15152.63
703.51	15035.60
703.65	14754.74
703.78	14576.86
703.91	14626.01
704.04	14462.17
704.17	14656.43
704.31	14263.22
704.44	14307.69
704.57	14408.34
704.70	14277.27
704.83	14279.61
704.96	13916.83
705.10	14085.34
705.23	13949.59
>>>>>End Processed Spectral Data<<<<<
