SpectraSuite Data File
++++++++++++++++++++++++++++++++++++
Date: Fri Oct 25 10:48:24 EDT 2013
User: price-jones
Dark Spectrum Present: No
Reference Spectrum Present: No
Number of Sampled Component Spectra: 1
Spectrometers: USB2+H05261
Integration Time (usec): 100000 (USB2+H05261)
Spectra Averaged: 1 (USB2+H05261)
Boxcar Smoothing: 0 (USB2+H05261)
Correct for Electrical Dark: No (USB2+H05261)
Strobe/Lamp Enabled: No (USB2+H05261)
Correct for Detector Non-linearity: No (USB2+H05261)
Correct for Stray Light: No (USB2+H05261)
Number of Pixels in Processed Spectrum: 2048
>>>>>Begin Processed Spectral Data<<<<<
365.73	107.66
365.92	107.66
366.12	107.66
366.32	42.13
366.52	23.41
366.72	2.34
366.91	100.64
367.11	21.06
367.31	81.92
367.51	102.98
367.70	0.00
367.90	56.17
368.10	65.54
368.30	126.39
368.49	25.75
368.69	119.37
368.89	72.56
369.09	7.02
369.28	105.32
369.48	37.45
369.68	56.17
369.87	81.92
370.07	88.94
370.27	84.26
370.47	175.54
370.66	397.89
370.86	437.68
371.06	388.53
371.25	528.96
371.45	397.89
371.65	484.49
371.84	421.30
372.04	477.47
372.24	477.47
372.44	461.09
372.63	491.51
372.83	514.92
373.03	550.03
373.22	538.32
373.42	521.94
373.62	580.45
373.81	493.85
374.01	561.73
374.21	500.87
374.40	643.65
374.60	650.67
374.79	543.00
374.99	636.63
375.19	592.16
375.38	582.79
375.58	596.84
375.78	606.20
375.97	667.05
376.17	741.95
376.37	657.69
376.56	624.92
376.76	575.77
376.95	688.12
377.15	622.58
377.35	629.60
377.54	596.84
377.74	587.47
377.93	667.05
378.13	657.69
378.33	718.54
378.52	585.13
378.72	767.70
378.91	608.54
379.11	603.86
379.31	636.63
379.50	587.47
379.70	697.48
379.89	751.31
380.09	765.36
380.28	664.71
380.48	725.57
380.68	641.31
380.87	709.18
381.07	664.71
381.26	732.59
381.46	662.37
381.65	716.20
381.85	706.84
382.04	671.73
382.24	741.95
382.43	702.16
382.63	664.71
382.83	688.12
383.02	697.48
383.22	786.42
383.41	683.44
383.61	770.04
383.80	718.54
384.00	744.29
384.19	737.27
384.39	772.38
384.58	791.10
384.78	788.76
384.97	837.91
385.17	798.12
385.36	812.17
385.56	774.72
385.75	791.10
385.95	873.02
386.14	791.10
386.34	840.25
386.53	896.43
386.72	884.72
386.92	910.47
387.11	835.57
387.31	903.45
387.50	866.00
387.70	922.17
387.89	880.04
388.09	866.00
388.28	835.57
388.48	866.00
388.67	926.85
388.86	968.98
389.06	854.30
389.25	903.45
389.45	980.68
389.64	889.40
389.84	971.32
390.03	947.92
390.22	1006.43
390.42	1074.31
390.61	1011.11
390.81	1027.50
391.00	985.37
391.19	1029.84
391.39	1013.45
391.58	973.66
391.78	1034.52
391.97	1083.67
392.16	1083.67
392.36	1071.97
392.55	1048.56
392.75	919.83
392.94	1006.43
393.13	1060.26
393.33	1055.58
393.52	1050.90
393.71	1043.88
393.91	1069.62
394.10	1076.65
394.29	1029.84
394.49	1228.78
394.68	1146.86
394.88	1181.97
395.07	1273.25
395.26	1172.61
395.46	1090.69
395.65	1303.68
395.84	1214.74
396.04	1247.51
396.23	1181.97
396.42	1212.40
396.62	1259.21
396.81	1193.67
397.00	1228.78
397.19	1315.38
397.39	1324.74
397.58	1289.64
397.77	1373.89
397.97	1350.49
398.16	1390.28
398.35	1460.49
398.55	1399.64
398.74	1439.43
398.93	1514.33
399.12	1472.20
399.32	1413.68
399.51	1469.86
399.70	1502.62
399.90	1519.01
400.09	1549.43
400.28	1605.61
400.47	1605.61
400.67	1570.50
400.86	1565.82
401.05	1486.24
401.24	1638.38
401.44	1643.06
401.63	1603.27
401.82	1664.12
402.01	1640.72
402.21	1668.80
402.40	1729.66
402.59	1680.50
402.78	1673.48
402.97	1668.80
403.17	1778.81
403.36	1755.40
403.55	1715.61
403.74	1797.53
403.93	1720.29
404.13	1797.53
404.32	1708.59
404.51	1790.51
404.70	1839.66
404.89	1746.04
405.09	1893.49
405.28	1935.62
405.47	1935.62
405.66	1987.11
405.85	2003.50
406.05	1928.60
406.24	1912.22
406.43	1991.80
406.62	1954.35
406.81	2008.18
407.00	1956.69
407.20	1991.80
407.39	2057.33
407.58	2099.46
407.77	2052.65
407.96	2036.27
408.15	2155.63
408.34	2099.46
408.54	2181.38
408.73	2085.42
408.92	2279.68
409.11	2174.36
409.30	2204.78
409.49	2181.38
409.68	2157.97
409.87	2092.44
410.07	2282.02
410.26	2354.58
410.45	2282.02
410.64	2282.02
410.83	2410.75
411.02	2422.45
411.21	2502.03
411.40	2485.65
411.59	2513.74
411.78	2450.54
411.98	2406.07
412.17	2509.05
412.36	2553.52
412.55	2677.57
412.74	2663.53
412.93	2614.38
413.12	2686.94
413.31	2635.44
413.50	2605.02
413.69	2644.81
413.88	2640.12
414.07	2757.15
414.26	2827.37
414.45	2920.99
414.64	2923.33
414.83	2874.18
415.02	2967.80
415.22	2827.37
415.41	3005.25
415.60	2995.89
415.79	2918.65
415.98	3197.17
416.17	3155.04
416.36	2935.03
416.55	3084.83
416.74	3077.80
416.93	3119.93
417.12	3187.81
417.31	3148.02
417.50	3227.60
417.69	3328.24
417.88	3349.31
418.07	3199.51
418.26	3400.80
418.45	3272.07
418.64	3440.59
418.83	3400.80
419.02	3435.91
419.21	3396.12
419.39	3503.78
419.58	3522.51
419.77	3410.16
419.96	3456.97
420.15	3585.70
420.34	3527.19
420.53	3627.83
420.72	3737.84
420.91	3536.55
421.10	3667.62
421.29	3667.62
421.48	3707.41
421.67	3733.15
421.86	3676.98
422.05	3574.00
422.24	3653.58
422.43	3798.69
422.61	3772.94
422.80	3737.84
422.99	3765.92
423.18	3763.58
423.37	3859.54
423.56	3805.71
423.75	3733.15
423.94	3817.41
424.13	3524.85
424.32	3791.67
424.50	3868.91
424.69	3925.08
424.88	3861.88
425.07	3892.31
425.26	3691.02
425.45	3698.05
425.64	3691.02
425.83	3824.44
426.01	3838.48
426.20	3817.41
426.39	3946.14
426.58	3772.94
426.77	3861.88
426.96	3852.52
427.15	3974.23
427.33	4021.04
427.52	3983.59
427.71	4025.72
427.90	4002.32
428.09	4009.34
428.28	4056.15
428.46	3955.51
428.65	4086.58
428.84	4285.52
429.03	4014.02
429.22	3967.21
429.40	3955.51
429.59	4039.76
429.78	3964.87
429.97	3801.03
430.16	3974.23
430.34	4189.56
430.53	4194.24
430.72	4294.88
430.91	4095.94
431.10	4320.63
431.28	4381.48
431.47	4428.29
431.66	4468.08
431.85	4367.44
432.03	4365.10
432.22	4507.87
432.41	4458.72
432.60	4461.06
432.79	4552.34
432.97	4538.30
433.16	4685.75
433.35	4475.10
433.54	4489.15
433.72	4601.49
433.91	4552.34
434.10	4662.35
434.28	4685.75
434.47	4580.43
434.66	4786.40
434.85	4793.42
435.03	4833.21
435.22	4739.58
435.41	5008.75
435.59	4842.57
435.78	5048.54
435.97	4985.34
436.16	4968.96
436.34	4950.23
436.53	5107.05
436.72	5060.24
436.90	4983.00
437.09	4954.91
437.28	4985.34
437.46	4919.81
437.65	4978.32
437.84	5095.35
438.02	5102.37
438.21	5022.79
438.40	4889.38
438.58	5172.58
438.77	5256.84
438.96	5085.98
439.14	5514.30
439.33	5371.53
439.52	5474.51
439.70	5416.00
439.89	5448.77
440.08	5603.24
440.26	5448.77
440.45	5490.90
440.63	5661.76
440.82	5624.31
441.01	5837.30
441.19	5809.21
441.38	6108.80
441.57	5947.30
441.75	5919.21
441.94	5834.96
442.12	5991.77
442.31	6106.46
442.50	6157.95
442.68	6153.27
442.87	6223.48
443.05	6050.28
443.24	6141.57
443.43	6099.44
443.61	6216.46
443.80	6354.55
443.98	6186.04
444.17	6015.18
444.35	6324.13
444.54	6317.11
444.73	6291.36
444.91	6176.67
445.10	6139.23
445.28	6186.04
445.47	6408.39
445.65	6298.38
445.84	6204.76
446.02	6438.81
446.21	6296.04
446.39	6274.98
446.58	6352.21
446.77	6427.11
446.95	6258.59
447.14	6436.47
447.32	6600.31
447.51	6445.84
447.69	6396.68
447.88	6551.16
448.06	6462.22
448.25	6487.96
448.43	6595.63
448.62	6324.13
448.80	6459.88
448.99	6595.63
449.17	6775.85
449.36	6520.73
449.54	6530.09
449.73	6825.00
449.91	6836.70
450.10	6794.58
450.28	6916.28
450.46	7061.40
450.65	7094.16
450.83	6820.32
451.02	6949.05
451.20	6998.20
451.39	6970.12
451.57	6895.22
451.76	6857.77
451.94	6895.22
452.13	6967.77
452.31	7009.90
452.49	6927.99
452.68	7023.95
452.86	7030.97
453.05	7066.08
453.23	7101.19
453.42	7180.76
453.60	7215.87
453.78	7180.76
453.97	7185.44
454.15	7215.87
454.34	6993.52
454.52	7119.91
454.70	7274.38
454.89	7194.81
455.07	7267.36
455.26	7564.61
455.44	7382.05
455.62	7419.50
455.81	7470.99
455.99	7630.15
456.17	7515.46
456.36	7705.04
456.54	7953.14
456.73	7747.17
456.91	7843.14
457.09	7885.26
457.28	7936.76
457.46	7826.75
457.64	7927.39
457.83	7709.72
458.01	7747.17
458.19	8049.10
458.38	7981.23
458.56	7988.25
458.74	7850.16
458.93	7915.69
459.11	8105.28
459.29	8046.76
459.48	8124.00
459.66	7939.10
459.84	8042.08
460.03	8283.16
460.21	8210.60
460.39	8376.78
460.57	8067.83
460.76	8224.64
460.94	8365.07
461.12	8308.90
461.31	8367.42
461.49	8231.66
461.67	8334.65
461.85	8762.97
462.04	8461.04
462.22	9053.19
462.40	8667.00
462.59	8477.42
462.77	8528.91
462.95	8573.38
463.13	8599.13
463.32	8762.97
463.50	8620.19
463.68	8645.94
463.86	8702.11
464.05	8589.77
464.23	8624.87
464.41	8718.50
464.59	8613.17
464.78	8954.89
464.96	8659.98
465.14	8685.73
465.32	9060.21
465.50	9151.49
465.69	8971.27
465.87	8936.17
466.05	8877.65
466.23	9046.17
466.41	8987.66
466.60	9097.66
466.78	8952.55
466.96	8975.95
467.14	8990.00
467.32	9064.89
467.51	9212.35
467.69	8802.75
467.87	9025.11
468.05	9390.23
468.23	9226.39
468.41	9130.43
468.60	9263.84
468.78	9322.35
468.96	9102.34
469.14	9373.85
469.32	9387.89
469.50	9174.90
469.69	9280.22
469.87	9355.12
470.05	9542.36
470.23	9619.60
470.41	9533.00
470.59	9542.36
470.77	9621.94
470.95	9788.12
471.14	9699.18
471.32	9729.61
471.50	9977.70
471.68	10083.03
471.86	10043.24
472.04	10015.15
472.22	10345.17
472.40	9832.59
472.58	10008.13
472.77	9905.15
472.95	10214.10
473.13	10434.11
473.31	10242.18
473.49	10342.83
473.67	10307.72
473.85	10354.53
474.03	10707.95
474.21	10686.89
474.39	10712.63
474.57	10621.35
474.75	10827.32
474.93	10897.53
475.12	10738.38
475.30	10787.53
475.48	11033.29
475.66	10927.96
475.84	10810.93
476.02	10909.24
476.20	11026.26
476.38	11342.24
476.56	11552.88
476.74	11499.05
476.92	11375.00
477.10	11702.68
477.28	11770.55
477.46	11817.36
477.64	11793.96
477.82	12145.04
478.00	12070.14
478.18	12205.89
478.36	12035.03
478.54	12245.68
478.72	12219.94
478.90	12556.97
479.08	12615.49
479.26	12418.88
479.44	12837.84
479.62	13015.72
479.80	12886.99
479.98	13111.68
480.16	13305.95
480.34	12908.05
480.52	13107.00
480.70	13275.52
480.88	13184.24
481.06	13153.81
481.24	13277.86
481.41	13820.86
481.59	13764.69
481.77	13921.51
481.95	14047.90
482.13	14122.79
482.31	14265.57
482.49	14298.33
482.67	14401.32
482.85	14654.09
483.03	14766.44
483.21	14941.98
483.39	14843.68
483.57	15337.53
483.74	15248.59
483.92	15157.31
484.10	15073.05
484.28	15559.88
484.46	15510.73
484.64	15913.30
484.82	15454.56
485.00	16002.24
485.18	15948.41
485.35	16044.37
485.53	15894.58
485.71	15978.84
485.89	16205.87
486.07	15899.26
486.25	16444.60
486.43	16552.27
486.61	16753.55
486.78	16648.23
486.96	16926.75
487.14	17043.78
487.32	17062.51
487.50	17315.28
487.68	17757.64
487.85	17919.14
488.03	17951.91
488.21	18200.01
488.39	18047.87
488.57	18373.21
488.75	18724.29
488.92	18429.38
489.10	18862.38
489.28	18597.90
489.46	18747.69
489.64	19087.07
489.81	19283.67
489.99	19721.35
490.17	19541.13
490.35	19793.91
490.53	19578.58
490.70	19932.00
490.88	19997.54
491.06	20456.28
491.24	20278.40
491.41	20318.19
491.59	20514.80
491.77	20320.53
491.95	20889.28
492.13	20922.05
492.30	21071.84
492.48	21240.36
492.66	21348.03
492.84	20945.45
493.01	21451.01
493.19	21734.21
493.37	21584.42
493.54	21956.57
493.72	21930.82
493.90	22267.86
494.08	22284.24
494.25	22122.74
494.43	22845.97
494.61	22888.10
494.79	22714.90
494.96	23063.64
495.14	22735.96
495.32	23065.98
495.49	23065.98
495.67	23250.88
495.85	23372.59
496.02	23510.68
496.20	23768.14
496.38	23913.25
496.55	23948.36
496.73	24519.45
496.91	24271.36
497.09	24517.11
497.26	24589.67
497.44	24414.13
497.62	24381.36
497.79	24528.81
497.97	24261.99
498.14	24788.61
498.32	25046.07
498.50	25163.10
498.67	25443.96
498.85	25146.72
499.03	25820.79
499.20	25865.26
499.38	25425.24
499.56	25678.02
499.73	26190.59
499.91	25734.19
500.08	25895.69
500.26	25888.67
500.44	25991.65
500.61	25867.60
500.79	26153.15
500.97	26408.26
501.14	26548.70
501.32	26462.10
501.49	26562.74
501.67	26632.96
501.84	26803.82
502.02	27063.61
502.20	27068.30
502.37	27171.28
502.55	27325.75
502.72	27449.80
502.90	27466.19
503.07	27325.75
503.25	27386.61
503.43	27576.19
503.60	27646.41
503.78	27838.33
503.95	27775.14
504.13	28072.39
504.30	28095.79
504.48	27988.13
504.65	28182.39
504.83	28343.89
505.01	28519.43
505.18	28594.32
505.36	28662.20
505.53	28931.36
505.71	29106.90
505.88	28968.81
506.06	28751.14
506.23	28980.51
506.41	28819.02
506.58	29340.96
506.76	29511.81
506.93	29184.14
507.11	29734.17
507.28	29549.26
507.46	29280.10
507.63	29537.56
507.81	29839.49
507.98	29949.50
508.16	29605.44
508.33	30061.84
508.50	30073.54
508.68	30309.94
508.85	30391.86
509.03	30796.77
509.20	30415.26
509.38	30675.06
509.55	30948.90
509.73	30408.24
509.90	30785.07
510.08	30455.05
510.25	31161.89
510.42	30988.69
510.60	31063.59
510.77	30967.63
510.95	31594.89
511.12	31276.58
511.30	31255.51
511.47	31793.84
511.64	32060.66
511.82	31889.80
511.99	31564.46
512.17	31875.76
512.34	31728.30
512.51	32203.43
512.69	32196.41
512.86	31807.88
513.04	32299.39
513.21	32130.87
513.38	32137.90
513.56	32322.80
513.73	32161.30
513.90	32299.39
514.08	32290.03
514.25	32287.69
514.43	32645.79
514.60	32467.91
514.77	32301.73
514.95	32893.89
515.12	33441.57
515.29	33230.93
515.47	33490.73
515.64	33647.54
515.81	33130.28
515.99	33179.43
516.16	33048.36
516.33	33275.40
516.51	33273.06
516.68	32535.79
516.85	32929.00
517.03	33256.67
517.20	33656.90
517.37	33818.40
517.54	34246.72
517.72	33935.43
517.89	33387.74
518.06	33418.17
518.24	33333.91
518.41	33804.36
518.58	33890.96
518.75	33741.16
518.93	34508.86
519.10	34087.56
519.27	34300.55
519.45	34719.51
519.62	34780.36
519.79	34459.71
519.96	35016.75
520.14	35075.27
520.31	35000.37
520.48	34796.74
520.65	35398.26
520.83	35157.19
521.00	35239.11
521.17	35398.26
521.34	35154.85
521.52	35196.98
521.69	36130.85
521.86	35466.14
522.03	35969.35
522.20	35538.69
522.38	36165.96
522.55	36004.46
522.72	35803.17
522.89	35777.43
523.07	36079.36
523.24	36613.00
523.41	36095.74
523.58	36147.23
523.75	36802.58
523.92	36781.52
524.10	36678.54
524.27	36645.77
524.44	37202.82
524.61	36720.66
524.78	37036.64
524.96	36884.50
525.13	36893.86
525.30	37301.12
525.47	37097.49
525.64	36500.65
525.81	37153.66
525.98	36737.05
526.16	36514.70
526.33	36964.08
526.50	37127.92
526.67	37179.41
526.84	37249.63
527.01	36765.14
527.18	37266.01
527.36	37565.60
527.53	37813.70
527.70	38078.18
527.87	38019.66
528.04	37717.73
528.21	38230.31
528.38	38089.88
528.55	38185.84
528.72	38314.57
528.89	38525.22
529.07	38391.81
529.24	38480.75
529.41	37989.24
529.58	38352.02
529.75	38234.99
529.92	38810.76
530.09	38117.96
530.26	38735.87
530.43	38539.26
530.60	38787.36
530.77	38672.67
530.94	38836.51
531.11	38490.11
531.28	38721.82
531.46	38925.45
531.63	39370.15
531.80	38728.84
531.97	39145.46
532.14	38939.49
532.31	38550.96
532.48	38927.79
532.65	39126.74
532.82	39321.00
532.99	39203.97
533.16	38904.38
533.33	39648.68
533.50	39667.40
533.67	39503.56
533.84	39629.95
534.01	39735.27
534.18	39339.72
534.35	39723.57
534.52	39154.82
534.69	39978.69
534.86	39662.72
535.03	39559.73
535.20	40105.08
535.37	40404.67
535.54	40687.87
535.71	40474.88
535.88	39828.90
536.05	39938.90
536.22	40432.75
536.38	40645.74
536.55	40081.67
536.72	40444.46
536.89	40109.76
537.06	40257.21
537.23	40797.88
537.40	40524.04
537.57	40652.76
537.74	40767.45
537.91	41280.03
538.08	40980.44
538.25	40430.41
538.42	40774.47
538.59	41038.95
538.75	40952.35
538.92	40844.69
539.09	40856.39
539.26	40715.96
539.43	41090.44
539.60	41165.34
539.77	41251.94
539.94	40746.39
540.11	40727.66
540.28	41134.92
540.44	40971.08
540.61	40884.48
540.78	40940.65
540.95	41563.23
541.12	40840.01
541.29	41329.18
541.46	41352.58
541.62	41525.78
541.79	41528.13
541.96	41130.23
542.13	41453.23
542.30	41137.26
542.47	41528.13
542.63	41453.23
542.80	41928.36
542.97	42096.88
543.14	42059.43
543.31	42263.05
543.48	42295.82
543.64	42740.52
543.81	42618.81
543.98	42490.09
544.15	42532.22
544.32	42511.15
544.48	42632.86
544.65	42253.69
544.82	42330.93
544.99	42302.84
545.16	42227.95
545.32	42359.02
545.49	42951.17
545.66	43007.34
545.83	42756.91
546.00	43253.10
546.16	42873.93
546.33	42506.47
546.50	42459.66
546.67	42314.55
546.83	42642.22
547.00	42827.12
547.17	42614.13
547.34	42838.83
547.50	43290.55
547.67	43133.73
547.84	43196.93
548.00	43435.66
548.17	43161.82
548.34	43154.80
548.51	43515.24
548.67	43358.42
548.84	43026.07
549.01	43508.22
549.18	42848.19
549.34	43756.32
549.51	43414.60
549.68	43606.52
549.84	43229.69
550.01	43629.93
550.18	43222.67
550.34	43826.53
550.51	43667.37
550.68	43227.35
550.84	43201.61
551.01	43548.01
551.18	43564.39
551.34	43674.40
551.51	43739.93
551.68	43913.13
551.84	44020.80
552.01	43489.49
552.18	43885.04
552.34	43676.74
552.51	43679.08
552.68	43789.08
552.84	44259.53
553.01	44390.60
553.18	44287.62
553.34	43885.04
553.51	43667.37
553.67	44219.74
553.84	44474.86
554.01	44325.07
554.17	44280.60
554.34	44531.03
554.51	44240.81
554.67	44608.27
554.84	44271.23
555.00	44388.26
555.17	44432.73
555.33	44619.97
555.50	44624.65
555.67	44636.36
555.83	44795.51
556.00	44442.09
556.16	44505.29
556.33	44807.22
556.50	44472.52
556.66	44491.24
556.83	44631.68
556.99	45020.20
557.16	45127.87
557.32	44671.46
557.49	44652.74
557.65	44327.41
557.82	44849.35
557.98	44896.16
558.15	44818.92
558.32	44678.49
558.48	44608.27
558.65	44807.22
558.81	44725.30
558.98	44605.93
559.14	44715.93
559.31	44631.68
559.47	44961.69
559.64	45235.53
559.80	45518.74
559.97	45413.41
560.13	44811.90
560.30	44772.11
560.46	45209.79
560.63	44968.71
560.79	45577.25
560.96	45329.16
561.12	45270.64
561.29	45069.36
561.45	44650.40
561.61	44870.41
561.78	44968.71
561.94	44964.03
562.11	44987.44
562.27	44989.78
562.44	45593.64
562.60	45324.47
562.77	45958.76
562.93	45354.90
563.10	45308.09
563.26	44704.23
563.42	45729.39
563.59	45181.70
563.75	45467.25
563.92	45099.78
564.08	45436.82
564.24	45539.80
564.41	45492.99
564.57	45563.21
564.74	45677.90
564.90	45170.00
565.07	45902.59
565.23	45345.54
565.39	45291.71
565.56	45710.66
565.72	45322.13
565.88	45322.13
566.05	45481.29
566.21	45390.01
566.38	45528.10
566.54	45193.40
566.70	45879.18
566.87	45860.46
567.03	45474.27
567.19	45874.50
567.36	45577.25
567.52	45717.68
567.68	45715.34
567.85	45464.91
568.01	45579.59
568.17	45628.74
568.34	45291.71
568.50	45631.08
568.66	45209.79
568.83	45804.28
568.99	45130.21
569.15	45228.51
569.32	45572.57
569.48	45303.41
569.64	45984.51
569.81	45989.19
569.97	45799.60
570.13	45404.05
570.30	45404.05
570.46	45663.85
570.62	45230.85
570.78	45397.03
570.95	45406.39
571.11	45830.03
571.27	45787.90
571.43	45647.47
571.60	45965.78
571.76	45872.16
571.92	46108.55
572.09	45663.85
572.25	45729.39
572.41	45808.96
572.57	45448.52
572.74	46532.19
572.90	46162.39
573.06	46129.62
573.22	45921.31
573.38	45947.06
573.55	45696.62
573.71	45729.39
573.87	45385.33
574.03	45900.25
574.20	46047.70
574.36	45867.48
574.52	45900.25
574.68	45874.50
574.84	45949.40
575.01	45865.14
575.17	45598.32
575.33	45935.35
575.49	45762.15
575.65	45930.67
575.82	46337.93
575.98	45745.77
576.14	46155.36
576.30	45710.66
576.46	45928.33
576.62	45949.40
576.79	45720.02
576.95	45525.76
577.11	45930.67
577.27	45705.98
577.43	46138.98
577.59	45757.47
577.75	46080.47
577.92	45174.68
578.08	45797.26
578.24	45696.62
578.40	46153.02
578.56	46171.75
578.72	45799.60
578.88	46092.17
579.04	45940.04
579.21	45502.35
579.37	45989.19
579.53	46057.06
579.69	45720.02
579.85	46028.98
580.01	46241.96
580.17	45933.01
580.33	46490.06
580.49	46110.89
580.65	46302.82
580.82	46026.63
580.98	46181.11
581.14	45741.09
581.30	46433.89
581.46	46363.67
581.62	46050.04
581.78	46450.27
581.94	46480.70
582.10	45759.81
582.26	46459.63
582.42	46281.75
582.58	46160.05
582.74	46110.89
582.90	45755.13
583.06	46344.95
583.22	46326.22
583.38	46197.49
583.54	46347.29
583.70	45944.72
583.86	46188.13
584.02	45830.03
584.18	46417.50
584.34	46059.40
584.50	46349.63
584.66	45918.97
584.82	45982.16
584.98	45734.07
585.14	46068.76
585.30	46375.37
585.46	45729.39
585.62	45698.96
585.78	45729.39
585.94	45612.36
586.10	45982.16
586.26	45799.60
586.42	46197.49
586.58	46277.07
586.74	45944.72
586.90	46213.88
587.06	45684.92
587.22	46305.16
587.38	46188.13
587.54	46431.55
587.70	46253.67
587.86	46232.60
588.02	46171.75
588.18	45876.84
588.34	45705.98
588.49	45780.88
588.65	45979.82
588.81	45532.78
588.97	45989.19
589.13	45619.38
589.29	45993.87
589.45	45954.08
589.61	46082.81
589.77	46110.89
589.93	46316.86
590.08	46134.30
590.24	46398.78
590.40	46277.07
590.56	46506.44
590.72	46234.94
590.88	45738.75
591.04	46457.29
591.20	46515.81
591.35	46019.61
591.51	46822.42
591.67	46412.82
591.83	46089.83
591.99	46192.81
592.15	46337.93
592.31	46225.58
592.46	46075.79
592.62	46164.73
592.78	46508.79
592.94	46440.91
593.10	46405.80
593.26	46663.26
593.41	46260.69
593.57	45968.12
593.73	46384.74
593.89	46066.42
594.05	46597.73
594.20	46265.37
594.36	46454.95
594.52	46469.00
594.68	46351.97
594.84	46260.69
594.99	46380.06
595.15	46195.15
595.31	46639.86
595.47	45890.88
595.62	46431.55
595.78	46705.39
595.94	46518.15
596.10	46532.19
596.25	46431.55
596.41	46618.79
596.57	46501.76
596.73	46457.29
596.88	46176.43
597.04	46398.78
597.20	46199.83
597.36	46064.08
597.51	46579.00
597.67	46574.32
597.83	46497.08
597.99	46363.67
598.14	46508.79
598.30	46476.02
598.46	46087.49
598.61	46663.26
598.77	45766.84
598.93	46256.01
599.09	46120.26
599.24	46803.69
599.40	46368.35
599.56	46485.38
599.71	46447.93
599.87	46157.70
600.03	46375.37
600.18	46167.07
600.34	46478.36
600.50	46419.84
600.65	46361.33
600.81	46426.87
600.97	46698.37
601.12	46705.39
601.28	46616.45
601.44	46691.35
601.59	46293.46
601.75	46010.25
601.91	46450.27
602.06	46452.61
602.22	46302.82
602.37	46766.24
602.53	46286.43
602.69	46436.23
602.84	46564.96
603.00	46178.77
603.16	46026.63
603.31	46110.89
603.47	46433.89
603.62	46494.74
603.78	46417.50
603.94	46408.14
604.09	46499.42
604.25	46241.96
604.40	46110.89
604.56	46370.69
604.71	46312.18
604.87	46588.36
605.03	46298.14
605.18	45820.67
605.34	46501.76
605.49	45902.59
605.65	46260.69
605.80	46480.70
605.96	46061.74
606.12	46522.83
606.27	46665.60
606.43	46312.18
606.58	46639.86
606.74	46234.94
606.89	45937.69
607.05	46478.36
607.20	46447.93
607.36	46134.30
607.51	46167.07
607.67	46199.83
607.82	46518.15
607.98	46298.14
608.13	46138.98
608.29	46094.51
608.44	45874.50
608.60	45645.13
608.75	45865.14
608.91	45748.11
609.06	45940.04
609.22	45947.06
609.37	45619.38
609.53	46382.40
609.68	45862.80
609.84	46366.01
609.99	45729.39
610.15	45977.48
610.30	45497.67
610.46	45579.59
610.61	45773.86
610.76	45797.26
610.92	45764.49
611.07	45528.10
611.23	45975.14
611.38	46120.26
611.54	45397.03
611.69	45792.58
611.84	45258.94
612.00	45516.40
612.15	45464.91
612.31	45886.20
612.46	45799.60
612.62	45823.01
612.77	45748.11
612.92	45413.41
613.08	45338.52
613.23	45921.31
613.39	45256.60
613.54	45076.38
613.69	45436.82
613.85	45343.20
614.00	45851.09
614.15	45411.07
614.31	45500.01
614.46	45387.67
614.62	45368.94
614.77	45242.56
614.92	45385.33
615.08	45038.93
615.23	45144.25
615.38	45057.65
615.54	45177.02
615.69	45085.74
615.84	45322.13
616.00	44711.25
616.15	44893.82
616.30	44877.43
616.46	44437.41
616.61	44631.68
616.76	44680.83
616.92	44868.07
617.07	44692.53
617.22	45198.09
617.37	44781.47
617.53	45354.90
617.68	44720.62
617.83	44994.46
617.99	45282.34
618.14	45034.25
618.29	44954.67
618.45	44631.68
618.60	44725.30
618.75	44797.85
618.90	44622.31
619.06	44807.22
619.21	44535.71
619.36	44893.82
619.51	44685.51
619.67	44699.55
619.82	44524.01
619.97	44713.59
620.12	44294.64
620.28	43770.36
620.43	44519.33
620.58	44622.31
620.73	43955.26
620.89	44189.31
621.04	44561.46
621.19	44140.16
621.34	44626.99
621.49	43957.60
621.65	44397.62
621.80	44280.60
621.95	44069.95
622.10	44732.32
622.25	44711.25
622.41	43761.00
622.56	44306.34
622.71	44161.23
622.86	43730.57
623.01	44261.87
623.16	44516.99
623.32	44088.67
623.47	44306.34
623.62	43718.87
623.77	44091.01
623.92	43894.41
624.07	43566.73
624.23	43746.95
624.38	43454.39
624.53	43316.29
624.68	43920.15
624.83	44002.07
624.98	44095.69
625.13	43672.06
625.29	43971.64
625.44	43650.99
625.59	43906.11
625.74	43196.93
625.89	42899.68
626.04	42887.98
626.19	43660.35
626.34	43496.52
626.49	43683.76
626.65	43515.24
626.80	43936.54
626.95	42972.24
627.10	43442.68
627.25	42773.29
627.40	42962.87
627.55	42674.99
627.70	42674.99
627.85	43012.02
628.00	42927.77
628.15	43234.38
628.30	42780.31
628.45	43119.69
628.60	43157.14
628.76	42864.57
628.91	43037.77
629.06	42918.40
629.21	42792.01
629.36	42997.98
629.51	42260.71
629.66	42333.27
629.81	42525.19
629.96	42572.00
630.11	42850.53
630.26	42801.38
630.41	43105.65
630.56	42553.28
630.71	42178.79
630.86	42415.19
631.01	42319.23
631.16	42298.16
631.31	42328.59
631.46	41904.95
631.61	42426.89
631.76	42040.70
631.91	42466.68
632.06	42197.52
632.21	42632.86
632.36	42754.57
632.51	42174.11
632.66	42279.44
632.81	42223.26
632.96	42066.45
633.10	41724.73
633.25	41736.43
633.40	42052.41
633.55	42183.48
633.70	41881.55
633.85	42188.16
634.00	42162.41
634.15	42054.75
634.30	42017.30
634.45	41893.25
634.60	41766.86
634.75	41979.85
634.90	42080.49
635.05	41621.75
635.19	41764.52
635.34	41851.12
635.49	41844.10
635.64	41315.14
635.79	41647.49
635.94	42026.66
636.09	41507.06
636.24	41631.11
636.39	41486.00
636.53	41771.54
636.68	41141.94
636.83	41596.00
636.98	41783.24
637.13	41301.09
637.28	41385.35
637.43	41617.07
637.57	41296.41
637.72	41560.89
637.87	41553.87
638.02	41542.17
638.17	41375.99
638.32	41305.77
638.46	40772.13
638.61	41265.99
638.76	41008.53
638.91	41179.39
639.06	40989.80
639.20	40980.44
639.35	41223.86
639.50	41375.99
639.65	41621.75
639.80	41195.77
639.94	40760.43
640.09	40924.27
640.24	40559.14
640.39	40751.07
640.54	40662.13
640.68	40423.39
640.83	40751.07
640.98	40589.57
641.13	40697.24
641.27	40598.93
641.42	40804.90
641.57	40772.13
641.72	40151.89
641.86	40182.32
642.01	40580.21
642.16	40449.14
642.31	39913.16
642.45	40540.42
642.60	40240.83
642.75	40203.38
642.90	40500.63
643.04	39959.97
643.19	40172.96
643.34	40533.40
643.48	40182.32
643.63	40376.58
643.78	39854.64
643.93	40126.14
644.07	40084.01
644.22	39899.11
644.37	40198.70
644.51	39686.12
644.66	40715.96
644.81	39721.23
644.95	40369.56
645.10	39873.37
645.25	40371.90
645.39	40470.20
645.54	40217.43
645.69	39817.19
645.83	40297.00
645.98	40044.23
646.13	39791.45
646.27	39775.06
646.42	39894.43
646.57	39438.03
646.71	39573.78
646.86	39611.23
647.00	39702.51
647.15	39913.16
647.30	39765.70
647.44	40081.67
647.59	39620.59
647.74	39709.53
647.88	39213.34
648.03	39529.31
648.17	39421.64
648.32	39012.05
648.47	39374.83
648.61	39035.45
648.76	39885.07
648.90	39583.14
649.05	39131.42
649.20	39522.29
649.34	39597.18
649.49	38888.00
649.63	39138.44
649.78	39243.76
649.92	38958.22
650.07	39250.78
650.21	38754.59
650.36	39365.47
650.51	39187.59
650.65	39285.89
650.80	39442.71
650.94	39262.49
651.09	39056.52
651.23	39168.87
651.38	39323.34
651.52	38876.30
651.67	38780.34
651.81	38869.28
651.96	38574.37
652.10	38614.16
652.25	38829.49
652.39	38909.07
652.54	38714.80
652.68	38831.83
652.83	38726.50
652.97	38478.41
653.12	38314.57
653.26	38609.48
653.41	38478.41
653.55	38415.21
653.70	38314.57
653.84	38546.28
653.99	38539.26
654.13	38522.88
654.27	38352.02
654.42	38597.77
654.56	38330.95
654.71	38124.99
654.85	38618.84
655.00	38302.87
655.14	38211.59
655.29	37694.33
655.43	37972.85
655.57	37771.57
655.72	37823.06
655.86	37806.67
656.01	37799.65
656.15	37937.74
656.30	37591.34
656.44	37951.79
656.58	37874.55
656.73	37486.02
656.87	37502.40
657.01	37256.65
657.16	37528.15
657.30	37858.17
657.45	37525.81
657.59	37659.22
657.73	37441.55
657.88	37546.87
658.02	37745.82
658.16	37429.85
658.31	38132.01
658.45	37769.22
658.60	37631.13
658.74	37717.73
658.88	37619.43
659.03	37139.62
659.17	37303.46
659.31	37577.30
659.46	36863.44
659.60	37439.21
659.74	37116.22
659.89	37228.56
660.03	36549.81
660.17	37165.37
660.32	36917.27
660.46	37188.77
660.60	36966.42
660.74	37008.55
660.89	36533.42
661.03	36697.26
661.17	36648.11
661.32	36212.77
661.46	36854.08
661.60	36268.94
661.74	36556.83
661.89	36449.16
662.03	36903.23
662.17	36112.13
662.31	36233.83
662.46	36163.62
662.60	36266.60
662.74	35999.78
662.88	36329.80
663.03	35995.10
663.17	36116.81
663.31	35627.63
663.45	36285.33
663.60	36245.54
663.74	35564.44
663.88	35779.77
664.02	35604.23
664.17	35669.76
664.31	35791.47
664.45	35529.33
664.59	35859.35
664.73	36034.89
664.88	35658.06
665.02	35093.99
665.16	35438.05
665.30	35505.93
665.44	35435.71
665.59	35164.21
665.73	35414.65
665.87	35206.34
666.01	34759.30
666.15	35079.95
666.29	35311.66
666.44	34916.11
666.58	35072.93
666.72	35321.02
666.86	35449.75
667.00	35182.93
667.14	34775.68
667.28	34831.85
667.43	34485.45
667.57	34522.90
667.71	34438.64
667.85	34492.47
667.99	34298.21
668.13	34239.70
668.27	34036.07
668.41	34717.17
668.56	33919.04
668.70	34164.80
668.84	33748.18
668.98	33518.81
669.12	34190.55
669.26	33890.96
669.40	33523.49
669.54	33724.78
669.68	33919.04
669.82	33333.91
669.96	33251.99
670.10	33387.74
670.25	33680.31
670.39	33502.43
670.53	33539.88
670.67	33062.41
670.81	33532.86
670.95	33362.00
671.09	33523.49
671.23	33139.65
671.37	33347.95
671.51	33097.52
671.65	33050.70
671.79	32914.95
671.93	32774.52
672.07	32811.97
672.21	32603.66
672.35	32531.11
672.49	32655.15
672.63	32423.44
672.77	32465.57
672.91	32329.82
673.05	32346.20
673.19	32374.29
673.33	32484.30
673.47	32051.30
673.61	31995.12
673.75	32123.85
673.89	31618.30
674.03	31412.33
674.17	31817.24
674.31	31744.69
674.45	31445.10
674.59	32198.75
674.73	31538.72
674.87	31667.45
675.01	31363.18
675.15	31353.82
675.29	30972.31
675.43	31524.68
675.56	31285.94
675.70	31180.62
675.84	30892.73
675.98	29930.77
676.12	30740.60
676.26	30738.26
676.40	30429.30
676.54	30394.20
676.68	30295.89
676.82	29757.57
676.96	30040.78
677.10	29776.30
677.23	30103.97
677.37	29914.39
677.51	29759.91
677.65	29755.23
677.79	29582.03
677.93	29685.01
678.07	30003.33
678.21	29511.81
678.34	28849.44
678.48	29219.25
678.62	29048.39
678.76	29041.37
678.90	28886.89
679.04	29083.50
679.18	28851.78
679.31	28437.51
679.45	28833.06
679.59	28589.64
679.73	28388.36
679.87	28332.18
680.00	28936.04
680.14	28154.30
680.28	27833.65
680.42	28229.20
680.56	27969.40
680.70	27857.06
680.83	27777.48
680.97	27681.52
681.11	27606.62
681.25	27608.96
681.39	27550.45
681.52	27686.20
681.66	27435.76
681.80	27206.39
681.94	27117.45
682.07	27058.93
682.21	27016.80
682.35	26785.09
682.49	26916.16
682.62	26925.52
682.76	26291.24
682.90	26366.13
683.04	26958.29
683.17	26639.98
683.31	26214.00
683.45	26054.84
683.59	25874.62
683.72	26036.12
683.86	26040.80
684.00	25621.84
684.13	25935.48
684.27	25846.54
684.41	25544.61
684.55	25413.54
684.68	25626.53
684.82	25226.29
684.96	25172.46
685.09	24903.30
685.23	25383.11
685.37	25097.56
685.50	24952.45
685.64	25228.63
685.78	25144.38
685.91	24788.61
686.05	24952.45
686.19	24343.91
686.32	24212.84
686.46	24051.34
686.60	23969.43
686.73	23871.12
686.87	23271.95
687.01	23503.66
687.14	23557.49
687.28	23597.28
687.42	23288.33
687.55	23314.08
687.69	23435.78
687.82	23236.84
687.96	23274.29
688.10	23351.52
688.23	23021.51
688.37	22614.26
688.50	22607.23
688.64	22656.39
688.78	22677.45
688.91	22658.73
689.05	22361.48
689.18	22319.35
689.32	22019.76
689.46	22396.59
689.59	22750.01
689.73	22354.46
689.86	22471.48
690.00	22113.38
690.13	22576.81
690.27	22015.08
690.41	21972.95
690.54	21558.67
690.68	21568.04
690.81	21783.37
690.95	21640.59
691.08	21642.93
691.22	21238.02
691.35	21071.84
691.49	21284.83
691.62	21238.02
691.76	21298.88
691.89	21303.56
692.03	20798.00
692.16	20975.88
692.30	20737.15
692.43	20613.10
692.57	20526.50
692.70	20678.63
692.84	20432.88
692.97	20208.19
693.11	20299.47
693.24	20084.14
693.38	19955.41
693.51	19758.80
693.65	19782.21
693.78	19903.92
693.92	19735.40
694.05	19419.42
694.19	19407.72
694.32	19754.12
694.45	19482.62
694.59	19653.48
694.72	19527.09
694.86	19068.34
694.99	19187.71
695.13	19023.87
695.26	18895.14
695.39	18602.58
695.53	18799.18
695.66	18944.30
695.80	18750.03
695.93	18380.23
696.07	17956.59
696.20	18483.21
696.33	18242.14
696.47	18324.05
696.60	18279.58
696.73	18232.77
696.87	18157.88
697.00	17877.01
697.14	17893.40
697.27	17989.36
697.40	17816.16
697.54	17554.02
697.67	17738.92
697.80	17619.55
697.94	17341.03
698.07	17441.67
698.21	17451.03
698.34	17451.03
698.47	17188.89
698.61	16964.20
698.74	16769.94
698.87	17132.72
699.01	16676.32
699.14	16648.23
699.27	17020.38
699.40	16528.86
699.54	16468.01
699.67	16189.49
699.80	16374.39
699.94	16196.51
700.07	16456.31
700.20	16098.20
700.34	15892.24
700.47	16053.73
700.60	16463.33
700.73	16100.55
700.87	16018.63
701.00	15749.46
701.13	16217.57
701.26	15660.52
701.40	15676.91
701.53	15672.23
701.66	15487.32
701.79	15358.60
701.93	15414.77
702.06	15005.17
702.19	15194.76
702.32	15288.38
702.46	14981.77
702.59	15023.90
702.72	15225.18
702.85	15044.96
702.99	14939.64
703.12	14853.04
703.25	14452.81
703.38	14597.92
703.51	14579.20
703.65	14356.85
703.78	14654.09
703.91	14553.45
704.04	14693.88
704.17	14197.69
704.31	14181.31
704.44	14129.81
704.57	13891.08
704.70	13926.19
704.83	13886.40
704.96	13909.80
705.10	14235.14
705.23	13804.48
>>>>>End Processed Spectral Data<<<<<
