SpectraSuite Data File
++++++++++++++++++++++++++++++++++++
Date: Fri Oct 25 10:43:59 EDT 2013
User: price-jones
Dark Spectrum Present: No
Reference Spectrum Present: No
Number of Sampled Component Spectra: 1
Spectrometers: USB2+H05261
Integration Time (usec): 100000 (USB2+H05261)
Spectra Averaged: 1 (USB2+H05261)
Boxcar Smoothing: 0 (USB2+H05261)
Correct for Electrical Dark: No (USB2+H05261)
Strobe/Lamp Enabled: No (USB2+H05261)
Correct for Detector Non-linearity: No (USB2+H05261)
Correct for Stray Light: No (USB2+H05261)
Number of Pixels in Processed Spectrum: 2048
>>>>>Begin Processed Spectral Data<<<<<
365.73	135.75
365.92	135.75
366.12	135.75
366.32	131.07
366.52	11.70
366.72	35.11
366.91	16.38
367.11	37.45
367.31	0.00
367.51	0.00
367.70	11.70
367.90	39.79
368.10	77.24
368.30	0.00
368.49	0.00
368.69	70.22
368.89	0.00
369.09	23.41
369.28	25.75
369.48	98.30
369.68	98.30
369.87	88.94
370.07	39.79
370.27	140.43
370.47	168.52
370.66	400.23
370.86	498.53
371.06	535.98
371.25	524.28
371.45	456.40
371.65	528.96
371.84	543.00
372.04	416.62
372.24	416.62
372.44	477.47
372.63	526.62
372.83	449.38
373.03	500.87
373.22	540.66
373.42	538.32
373.62	484.49
373.81	547.69
374.01	528.96
374.21	538.32
374.40	587.47
374.60	655.35
374.79	592.16
374.99	519.60
375.19	575.77
375.38	552.37
375.58	627.26
375.78	592.16
375.97	596.84
376.17	596.84
376.37	472.79
376.56	685.78
376.76	585.13
376.95	617.90
377.15	615.56
377.35	627.26
377.54	674.07
377.74	589.82
377.93	603.86
378.13	697.48
378.33	699.82
378.52	606.20
378.72	711.52
378.91	669.39
379.11	713.86
379.31	641.31
379.50	685.78
379.70	713.86
379.89	718.54
380.09	739.61
380.28	648.33
380.48	711.52
380.68	734.93
380.87	692.80
381.07	704.50
381.26	730.25
381.46	741.95
381.65	688.12
381.85	713.86
382.04	767.70
382.24	716.20
382.43	681.10
382.63	711.52
382.83	713.86
383.02	786.42
383.22	763.01
383.41	732.59
383.61	734.93
383.80	795.78
384.00	840.25
384.19	751.31
384.39	837.91
384.58	772.38
384.78	795.78
384.97	854.30
385.17	877.70
385.36	856.64
385.56	950.26
385.75	830.89
385.95	826.21
386.14	854.30
386.34	863.66
386.53	784.08
386.72	833.23
386.92	919.83
387.11	861.32
387.31	851.96
387.50	861.32
387.70	798.12
387.89	896.43
388.09	844.93
388.28	896.43
388.48	802.80
388.67	905.79
388.86	1008.77
389.06	959.62
389.25	968.98
389.45	1102.39
389.64	968.98
389.84	1025.15
390.03	976.00
390.22	1041.54
390.42	1029.84
390.61	1004.09
390.81	1062.60
391.00	1137.50
391.19	1100.05
391.39	1015.79
391.58	1050.90
391.78	1100.05
391.97	1055.58
392.16	1036.86
392.36	1114.10
392.55	1048.56
392.75	1093.03
392.94	1067.28
393.13	1006.43
393.33	947.92
393.52	1011.11
393.71	1100.05
393.91	1064.94
394.10	1137.50
394.29	1167.93
394.49	1125.80
394.68	1224.10
394.88	1184.31
395.07	1240.48
395.26	1233.46
395.46	1315.38
395.65	1259.21
395.84	1205.38
396.04	1231.12
396.23	1231.12
396.42	1125.80
396.62	1299.00
396.81	1245.16
397.00	1214.74
397.19	1270.91
397.39	1282.61
397.58	1387.94
397.77	1378.58
397.97	1373.89
398.16	1455.81
398.35	1493.26
398.55	1504.96
398.74	1455.81
398.93	1537.73
399.12	1495.60
399.32	1474.54
399.51	1600.93
399.70	1526.03
399.90	1533.05
400.09	1631.35
400.28	1640.72
400.47	1607.95
400.67	1603.27
400.86	1570.50
401.05	1673.48
401.24	1659.44
401.44	1673.48
401.63	1631.35
401.82	1722.63
402.01	1834.98
402.21	1717.95
402.40	1696.89
402.59	1703.91
402.78	1809.23
402.97	1764.76
403.17	1827.96
403.36	1881.79
403.55	1809.23
403.74	1797.53
403.93	1909.88
404.13	1973.07
404.32	1856.04
404.51	1994.14
404.70	2052.65
404.89	1966.05
405.09	1984.77
405.28	2012.86
405.47	1970.73
405.66	2062.01
405.85	1944.99
406.05	2047.97
406.24	2015.20
406.43	1921.58
406.62	1966.05
406.81	2162.66
407.00	2029.24
407.20	2139.25
407.39	2169.68
407.58	2094.78
407.77	2293.72
407.96	2186.06
408.15	2235.21
408.34	2253.94
408.54	2459.90
408.73	2277.34
408.92	2270.32
409.11	2394.37
409.30	2279.68
409.49	2317.13
409.68	2305.43
409.87	2347.56
410.07	2363.94
410.26	2392.03
410.45	2396.71
410.64	2347.56
410.83	2438.84
411.02	2661.19
411.21	2597.99
411.40	2527.78
411.59	2703.32
411.78	2562.89
411.98	2715.02
412.17	2647.15
412.36	2612.04
412.55	2787.58
412.74	2738.43
412.93	2913.97
413.12	2808.64
413.31	2892.90
413.50	2843.75
413.69	2869.50
413.88	2813.32
414.07	2871.84
414.26	2916.31
414.45	2991.20
414.64	2986.52
414.83	3059.08
415.02	3117.59
415.22	3075.46
415.41	3199.51
415.60	3084.83
415.79	3157.38
415.98	3185.47
416.17	3349.31
416.36	3213.56
416.55	3353.99
416.74	3243.98
416.93	3241.64
417.12	3353.99
417.31	3478.04
417.50	3260.37
417.69	3438.25
417.88	3574.00
418.07	3442.93
418.26	3510.80
418.45	3515.48
418.64	3625.49
418.83	3520.17
419.02	3541.23
419.21	3691.02
419.39	3634.85
419.58	3658.26
419.77	3604.42
419.96	3674.64
420.15	3726.13
420.34	3775.28
420.53	3819.75
420.72	3995.29
420.91	3779.97
421.10	3829.12
421.29	3969.55
421.48	3768.26
421.67	3925.08
421.86	3779.97
422.05	3784.65
422.24	3723.79
422.43	3641.87
422.61	3885.29
422.80	3885.29
422.99	4039.76
423.18	3985.93
423.37	3990.61
423.56	3927.42
423.75	3918.06
423.94	3915.72
424.13	3756.56
424.32	3810.39
424.50	4084.23
424.69	4011.68
424.88	4009.34
425.07	3976.57
425.26	3915.72
425.45	3957.85
425.64	4077.21
425.83	3932.10
426.01	3974.23
426.20	3999.98
426.39	4065.51
426.58	3920.40
426.77	3969.55
426.96	3915.72
427.15	4004.66
427.33	3997.64
427.52	4184.88
427.71	4212.96
427.90	4203.60
428.09	4245.73
428.28	4184.88
428.46	4250.41
428.65	4168.49
428.84	4463.40
429.03	4367.44
429.22	4147.43
429.40	4138.07
429.59	4177.86
429.78	3901.67
429.97	4077.21
430.16	4102.96
430.34	4117.00
430.53	4056.15
430.72	4135.73
430.91	4210.62
431.10	4329.99
431.28	4468.08
431.47	4697.46
431.66	4676.39
431.85	4594.47
432.03	4631.92
432.22	4753.63
432.41	4606.17
432.60	4716.18
432.79	4809.80
432.97	4798.10
433.16	4730.22
433.35	4716.18
433.54	4713.84
433.72	4770.01
433.91	4706.82
434.10	4638.94
434.28	4795.76
434.47	4847.25
434.66	4933.85
434.85	5048.54
435.03	4947.89
435.22	4795.76
435.41	5013.43
435.59	5137.48
435.78	5074.28
435.97	5167.90
436.16	5177.26
436.34	5069.60
436.53	5228.76
436.72	5348.12
436.90	4973.64
437.09	5193.65
437.28	5151.52
437.46	5210.03
437.65	5097.69
437.84	5163.22
438.02	5219.39
438.21	5158.54
438.40	5191.31
438.58	5486.22
438.77	5373.87
438.96	5416.00
439.14	5638.35
439.33	5666.44
439.52	5563.45
439.70	5659.42
439.89	5685.16
440.08	5764.74
440.26	5673.46
440.45	5795.17
440.63	5785.80
440.82	6031.56
441.01	6118.16
441.19	6104.12
441.38	6106.46
441.57	6200.08
441.75	6073.69
441.94	6567.54
442.12	6282.00
442.31	6413.07
442.50	6384.98
442.68	6368.60
442.87	6354.55
443.05	6511.37
443.24	6494.99
443.43	6523.07
443.61	6359.24
443.80	6602.65
443.98	6326.47
444.17	6333.49
444.35	6448.18
444.54	6764.15
444.73	6621.38
444.91	6532.44
445.10	6579.25
445.28	6403.71
445.47	6431.79
445.65	6396.68
445.84	6509.03
446.02	6619.04
446.21	6633.08
446.39	6670.53
446.58	6803.94
446.77	6832.02
446.95	6530.09
447.14	6888.20
447.32	6780.53
447.51	6630.74
447.69	6768.83
447.88	6792.23
448.06	6773.51
448.25	6715.00
448.43	6794.58
448.62	6754.79
448.80	6607.33
448.99	6986.50
449.17	7096.50
449.36	6738.40
449.54	6885.86
449.73	7169.06
449.91	7375.03
450.10	7304.81
450.28	7269.70
450.46	7180.76
450.65	7325.88
450.83	7297.79
451.02	7234.60
451.20	7454.61
451.39	7185.44
451.57	7391.41
451.76	7255.66
451.94	7222.89
452.13	7419.50
452.31	7400.77
452.49	7019.27
452.68	7243.96
452.86	7309.49
453.05	7281.41
453.23	7382.05
453.42	7517.80
453.60	7442.90
453.78	7623.12
453.97	7550.57
454.15	7475.67
454.34	7400.77
454.52	7557.59
454.70	7492.05
454.89	7801.01
455.07	7616.10
455.26	7801.01
455.44	7955.48
455.62	7737.81
455.81	8067.83
455.99	7939.10
456.17	7730.79
456.36	7815.05
456.54	8006.97
456.73	8065.49
456.91	8093.57
457.09	8365.07
457.28	8360.39
457.46	7997.61
457.64	8234.00
457.83	8271.45
458.01	8016.33
458.19	8367.42
458.38	8102.93
458.56	8243.37
458.74	8196.56
458.93	8313.58
459.11	8353.37
459.29	8273.79
459.48	8315.92
459.66	8510.19
459.84	8531.25
460.03	8821.48
460.21	8706.79
460.39	8437.63
460.57	8446.99
460.76	8720.84
460.94	8737.22
461.12	8690.41
461.31	8723.18
461.49	8758.28
461.67	8760.63
461.85	8959.57
462.04	8891.70
462.22	9064.89
462.40	8968.93
462.59	9135.11
462.77	8826.16
462.95	9053.19
463.13	8964.25
463.32	8884.67
463.50	9013.40
463.68	9111.71
463.86	9088.30
464.05	8982.98
464.23	8982.98
464.41	9128.09
464.59	8898.72
464.78	9287.25
464.96	9158.52
465.14	9083.62
465.32	9366.82
465.50	9301.29
465.69	9437.04
465.87	9097.66
466.05	9472.15
466.23	9170.22
466.41	9128.09
466.60	9668.75
466.78	9415.98
466.96	9104.68
467.14	9458.10
467.32	9437.04
467.51	9511.94
467.69	9380.87
467.87	9596.20
468.05	9554.07
468.23	9404.27
468.41	9528.32
468.60	9582.15
468.78	9729.61
468.96	9575.13
469.14	9802.16
469.32	9860.68
469.50	9551.73
469.69	9851.31
469.87	9933.23
470.05	9872.38
470.23	9851.31
470.41	9989.41
470.59	9919.19
470.77	10038.56
470.95	10010.47
471.14	10064.30
471.32	10115.80
471.50	10335.81
471.68	10415.38
471.86	10539.43
472.04	10457.51
472.22	10843.70
472.40	10356.87
472.58	10466.88
472.77	10726.68
472.95	10705.61
473.13	11126.91
473.31	10644.76
473.49	10518.37
473.67	10841.36
473.85	10696.25
474.03	10883.49
474.21	11021.58
474.39	11126.91
474.57	11124.57
474.75	11269.68
474.93	11496.71
475.12	11201.80
475.30	11403.09
475.48	11379.68
475.66	11375.00
475.84	11513.10
476.02	11543.52
476.20	11424.15
476.38	11946.09
476.56	12051.42
476.74	12018.65
476.92	11789.28
477.10	12067.80
477.28	12322.92
477.46	12046.74
477.64	12475.06
477.82	12273.77
478.00	12627.19
478.18	12641.23
478.36	12610.81
478.54	12975.93
478.72	12774.64
478.90	13020.40
479.08	12989.97
479.26	13341.05
479.44	13219.35
479.62	13385.52
479.80	13362.12
479.98	13678.09
480.16	13769.37
480.34	13713.20
480.52	13657.03
480.70	13865.33
480.88	13774.05
481.06	13973.00
481.24	14221.10
481.41	14258.54
481.59	14445.79
481.77	14420.04
481.95	14572.18
482.13	14740.69
482.31	14569.83
482.49	15117.52
482.67	15037.94
482.85	15253.27
483.03	15197.10
483.21	15686.27
483.39	15566.90
483.57	15435.83
483.74	15634.78
483.92	15934.37
484.10	15463.92
484.28	16140.33
484.46	16130.97
484.64	16280.77
484.82	16226.93
485.00	16147.36
485.18	16578.01
485.35	16601.42
485.53	16491.41
485.71	16313.53
485.89	16517.16
486.07	16762.92
486.25	16414.18
486.43	16917.39
486.61	17128.04
486.78	17734.24
486.96	17460.40
487.14	17860.63
487.32	17722.54
487.50	18071.28
487.68	18422.36
487.85	18389.59
488.03	18937.27
488.21	18724.29
488.39	18640.03
488.57	18534.70
488.75	19379.64
488.92	19274.31
489.10	19569.22
489.28	19721.35
489.46	19627.73
489.64	19892.21
489.81	20255.00
489.99	20154.35
490.17	20435.22
490.35	20484.37
490.53	20442.24
490.70	20650.55
490.88	20531.18
491.06	20936.09
491.24	20905.66
491.41	20947.79
491.59	21003.97
491.77	20985.24
491.95	21282.49
492.13	21420.58
492.30	21909.75
492.48	21930.82
492.66	21834.86
492.84	22202.32
493.01	22497.23
493.19	22387.22
493.37	22675.11
493.54	22546.38
493.72	22682.13
493.90	22410.63
494.08	22845.97
494.25	23225.14
494.43	23491.96
494.61	23749.42
494.79	23477.91
494.96	23433.44
495.14	23721.33
495.32	23934.32
495.49	24025.60
495.67	24100.50
495.85	24084.11
496.02	24650.52
496.20	24320.51
496.38	24610.73
496.55	24702.01
496.73	25076.50
496.91	25043.73
497.09	24938.41
497.26	25050.75
497.44	25280.13
497.62	25277.79
497.79	25483.75
497.97	25291.83
498.14	25656.95
498.32	25696.74
498.50	25923.77
498.67	26221.02
498.85	26218.68
499.03	26328.69
499.20	26508.91
499.38	26480.82
499.56	26679.77
499.73	26609.55
499.91	26848.29
500.08	26679.77
500.26	26457.42
500.44	26532.31
500.61	26696.15
500.79	26455.08
500.97	26988.72
501.14	26934.88
501.32	27557.47
501.49	27040.21
501.67	27496.61
501.84	27328.10
502.02	27805.56
502.20	27854.72
502.37	28423.47
502.55	28100.47
502.72	28388.36
502.90	28194.09
503.07	28458.57
503.25	28184.73
503.43	28105.15
503.60	28428.15
503.78	28584.96
503.95	28435.17
504.13	28912.64
504.30	28666.88
504.48	28891.57
504.65	29315.21
504.83	29294.14
505.01	29738.85
505.18	29387.77
505.36	29399.47
505.53	29596.07
505.71	29558.63
505.88	29923.75
506.06	29450.96
506.23	29933.11
506.41	29640.54
506.58	29593.73
506.76	30143.76
506.93	30101.63
507.11	29965.88
507.28	29982.26
507.46	30345.05
507.63	30305.26
507.81	30209.29
507.98	30155.46
508.16	30691.44
508.33	30635.27
508.50	30932.52
508.68	31346.79
508.85	31335.09
509.03	31452.12
509.20	31365.52
509.38	31417.01
509.55	31358.50
509.73	31503.61
509.90	31505.95
510.08	31651.06
510.25	31653.40
510.42	31906.18
510.60	32009.17
510.77	32402.38
510.95	31716.60
511.12	31793.84
511.30	32519.40
511.47	32503.02
511.64	32496.00
511.82	32463.23
511.99	32203.43
512.17	32566.21
512.34	32526.42
512.51	32575.58
512.69	33120.92
512.86	33160.71
513.04	32943.04
513.21	33221.56
513.38	33200.50
513.56	33034.32
513.73	33132.62
513.90	33378.38
514.08	33223.90
514.25	33315.19
514.43	33436.89
514.60	33179.43
514.77	33633.50
514.95	33703.71
515.12	33785.63
515.29	33769.25
515.47	34307.57
515.64	34712.49
515.81	34106.29
515.99	34148.42
516.16	34059.48
516.33	34005.64
516.51	34057.14
516.68	33696.69
516.85	33549.24
517.03	33734.14
517.20	34242.04
517.37	34267.78
517.54	34817.81
517.72	34471.41
517.89	34352.04
518.06	34190.55
518.24	34314.59
518.41	34300.55
518.58	34822.49
518.75	35028.46
518.93	35063.57
519.10	34932.50
519.27	35166.55
519.45	35033.14
519.62	35503.59
519.79	35976.37
519.96	35204.00
520.14	35812.54
520.31	35484.86
520.48	35992.76
520.65	36320.43
520.83	35931.90
521.00	36287.67
521.17	36140.21
521.34	36172.98
521.52	36060.63
521.69	36304.05
521.86	36638.75
522.03	36584.91
522.20	36634.06
522.38	36851.73
522.55	36563.85
522.72	36570.87
522.89	36935.99
523.07	37230.90
523.24	36891.52
523.41	37141.96
523.58	37064.72
523.75	37787.95
523.92	37567.94
524.10	37387.72
524.27	37516.45
524.44	37230.90
524.61	37598.37
524.78	37432.19
524.96	37825.40
525.13	38124.99
525.30	37699.01
525.47	38113.28
525.64	38101.58
525.81	37801.99
525.98	37694.33
526.16	37752.84
526.33	37333.89
526.50	37942.42
526.67	37399.42
526.84	37446.23
527.01	37574.96
527.18	37970.51
527.36	38359.04
527.53	38691.40
527.70	38567.35
527.87	38527.56
528.04	38483.09
528.21	38590.75
528.38	38829.49
528.55	39438.03
528.72	39171.21
528.89	39655.70
529.07	38803.74
529.24	39229.72
529.41	39178.23
529.58	39328.02
529.75	38515.86
529.92	39636.97
530.09	39426.32
530.26	39269.51
530.43	39594.84
530.60	39058.86
530.77	39323.34
530.94	40081.67
531.11	39892.09
531.28	39746.98
531.46	39964.65
531.63	39899.11
531.80	39571.44
531.97	39374.83
532.14	39730.59
532.31	39412.28
532.48	39775.06
532.65	40086.36
532.82	39835.92
532.99	40236.15
533.16	39896.77
533.33	40266.58
533.50	40287.64
533.67	40133.17
533.84	40388.28
534.01	40229.13
534.18	40151.89
534.35	40486.59
534.52	40336.79
534.69	40399.99
534.86	41130.23
535.03	40779.15
535.20	41247.26
535.37	41504.72
535.54	41624.09
535.71	40671.49
535.88	40947.67
536.05	41310.46
536.22	41390.03
536.38	41069.38
536.55	41017.89
536.72	40917.25
536.89	40746.39
537.06	41074.06
537.23	41083.42
537.40	41397.06
537.57	41696.64
537.74	41549.19
537.91	41471.95
538.08	41670.90
538.25	41443.87
538.42	41134.92
538.59	41532.81
538.75	41270.67
538.92	41659.20
539.09	41579.62
539.26	41436.84
539.43	41610.04
539.60	41682.60
539.77	41514.08
539.94	41420.46
540.11	41413.44
540.28	41918.99
540.44	42195.18
540.61	42057.09
540.78	41816.01
540.95	41443.87
541.12	41523.44
541.29	41900.27
541.46	42359.02
541.62	42230.29
541.79	42263.05
541.96	41799.63
542.13	42026.66
542.30	41911.97
542.47	42249.01
542.63	42150.71
542.80	42356.67
542.97	42731.16
543.14	42927.77
543.31	43079.90
543.48	42880.95
543.64	43054.15
543.81	43199.27
543.98	43175.86
544.15	42827.12
544.32	43374.81
544.48	43878.02
544.65	42866.91
544.82	43335.02
544.99	43328.00
545.16	43239.06
545.32	42967.55
545.49	43185.22
545.66	43765.68
545.83	43438.00
546.00	43543.33
546.16	43611.20
546.33	43292.89
546.50	43255.44
546.67	43601.84
546.83	43056.50
547.00	43622.90
547.17	43629.93
547.34	43578.43
547.50	43435.66
547.67	43627.59
547.84	43756.32
548.00	44020.80
548.17	44472.52
548.34	43746.95
548.51	43753.97
548.67	43924.83
548.84	43938.88
549.01	44137.82
549.18	44079.31
549.34	44048.88
549.51	44074.63
549.68	44603.59
549.84	44208.04
550.01	44039.52
550.18	44112.08
550.34	44437.41
550.51	44240.81
550.68	43679.08
550.84	44018.46
551.01	44158.89
551.18	44421.03
551.34	44252.51
551.51	44472.52
551.68	44526.35
551.84	44982.76
552.01	44767.43
552.18	44402.30
552.34	44186.97
552.51	44491.24
552.68	44493.58
552.84	44875.09
553.01	44863.39
553.18	44467.84
553.34	44432.73
553.51	44687.85
553.67	44837.64
553.84	44837.64
554.01	44811.90
554.17	44875.09
554.34	45184.04
554.51	44718.28
554.67	44769.77
554.84	44912.54
555.00	44996.80
555.17	44861.05
555.33	45085.74
555.50	45064.67
555.67	45106.80
555.83	45099.78
556.00	44793.17
556.16	45123.19
556.33	45191.06
556.50	45184.04
556.66	44919.56
556.83	45249.58
556.99	45853.44
557.16	45270.64
557.32	45399.37
557.49	45537.46
557.65	45205.11
557.82	45359.58
557.98	45172.34
558.15	45263.62
558.32	45593.64
558.48	45390.01
558.65	45200.43
558.81	44928.92
558.98	45029.57
559.14	45668.53
559.31	44753.38
559.47	45808.96
559.64	45797.26
559.80	45488.31
559.97	45563.21
560.13	45574.91
560.30	45425.12
560.46	45574.91
560.63	45837.05
560.79	46099.19
560.96	45984.51
561.12	45586.61
561.29	45315.11
561.45	45305.75
561.61	45734.07
561.78	45778.54
561.94	45390.01
562.11	45532.78
562.27	45834.71
562.44	45736.41
562.60	45893.22
562.77	46124.94
562.93	45736.41
563.10	46087.49
563.26	45469.59
563.42	45839.39
563.59	45759.81
563.75	45680.24
563.92	46237.28
564.08	46319.20
564.24	46169.41
564.41	45617.04
564.57	45942.38
564.74	45940.04
564.90	46113.23
565.07	45792.58
565.23	45511.72
565.39	45806.62
565.56	45935.35
565.72	45600.66
565.88	45581.93
566.05	45745.77
566.21	45666.19
566.38	45619.38
566.54	46080.47
566.70	46066.42
566.87	46209.20
567.03	46335.59
567.19	46382.40
567.36	46031.32
567.52	46036.00
567.68	46377.72
567.85	45900.25
568.01	46052.38
568.17	45834.71
568.34	46087.49
568.50	45862.80
568.66	46494.74
568.83	45998.55
568.99	45930.67
569.15	45598.32
569.32	46129.62
569.48	45759.81
569.64	46127.28
569.81	46211.54
569.97	45811.31
570.13	46211.54
570.30	46005.57
570.46	45752.79
570.62	45628.74
570.78	45773.86
570.95	45986.85
571.11	46408.14
571.27	45949.40
571.43	45830.03
571.60	46012.59
571.76	46691.35
571.92	46230.26
572.09	46117.92
572.25	46129.62
572.41	45799.60
572.57	46450.27
572.74	46740.50
572.90	46291.12
573.06	46497.08
573.22	46218.56
573.38	46689.01
573.55	46298.14
573.71	46644.54
573.87	46700.71
574.03	46412.82
574.20	46237.28
574.36	46253.67
574.52	46066.42
574.68	46630.49
574.84	46424.53
575.01	46344.95
575.17	46478.36
575.33	46024.29
575.49	46164.73
575.65	46396.44
575.82	46478.36
575.98	46314.52
576.14	46447.93
576.30	46305.16
576.46	46518.15
576.62	45928.33
576.79	46190.47
576.95	45993.87
577.11	46129.62
577.27	46653.90
577.43	46183.45
577.59	46054.72
577.75	45993.87
577.92	45965.78
578.08	45628.74
578.24	46138.98
578.40	46440.91
578.56	46394.10
578.72	46597.73
578.88	46602.41
579.04	46644.54
579.21	46319.20
579.37	45890.88
579.53	46726.46
579.69	45900.25
579.85	46295.80
580.01	46351.97
580.17	46281.75
580.33	46550.91
580.49	46829.44
580.65	46450.27
580.82	46358.99
580.98	46574.32
581.14	46162.39
581.30	46281.75
581.46	46387.08
581.62	46440.91
581.78	46398.78
581.94	46653.90
582.10	46459.63
582.26	46555.60
582.42	46471.34
582.58	46487.72
582.74	46356.65
582.90	46658.58
583.06	46644.54
583.22	46714.75
583.38	46555.60
583.54	46644.54
583.70	46373.03
583.86	46796.67
584.02	46246.65
584.18	46504.10
584.34	46314.52
584.50	46136.64
584.66	46277.07
584.82	46110.89
584.98	46501.76
585.14	46630.49
585.30	46433.89
585.46	46141.32
585.62	46036.00
585.78	46122.60
585.94	46087.49
586.10	46293.46
586.26	46377.72
586.42	46934.76
586.58	46471.34
586.74	46600.07
586.90	46569.64
587.06	46593.04
587.22	46616.45
587.38	46403.46
587.54	46532.19
587.70	46340.27
587.86	46445.59
588.02	46597.73
588.18	46569.64
588.34	46401.12
588.49	46431.55
588.65	45757.47
588.81	45752.79
588.97	46157.70
589.13	45860.46
589.29	46483.04
589.45	46094.51
589.61	46174.09
589.77	46265.37
589.93	46820.08
590.08	46712.41
590.24	46581.34
590.40	46543.89
590.56	46937.10
590.72	46438.57
590.88	46541.55
591.04	46539.21
591.20	46810.71
591.35	46817.74
591.51	46976.89
591.67	46782.63
591.83	46461.97
591.99	46305.16
592.15	46691.35
592.31	46499.42
592.46	46962.85
592.62	46571.98
592.78	46707.73
592.94	46885.61
593.10	46136.64
593.26	46733.48
593.41	46670.28
593.57	46703.05
593.73	46459.63
593.89	46962.85
594.05	46717.09
594.20	46951.15
594.36	46651.56
594.52	46674.96
594.68	46621.13
594.84	46602.41
594.99	46770.93
595.15	46270.05
595.31	46731.14
595.47	46873.91
595.62	46312.18
595.78	46532.19
595.94	46799.01
596.10	46742.84
596.25	46759.22
596.41	46782.63
596.57	46885.61
596.73	46466.66
596.88	46588.36
597.04	46424.53
597.20	46623.47
597.36	46782.63
597.51	46939.44
597.67	46717.09
597.83	46777.95
597.99	47278.82
598.14	46754.54
598.30	46710.07
598.46	46337.93
598.61	46595.38
598.77	46127.28
598.93	46415.16
599.09	46754.54
599.24	47122.01
599.40	46892.63
599.56	46843.48
599.71	46506.44
599.87	46649.22
600.03	46775.61
600.18	46710.07
600.34	46724.11
600.50	46857.52
600.65	46143.66
600.81	46532.19
600.97	46541.55
601.12	46614.11
601.28	46756.88
601.44	46150.68
601.59	46436.23
601.75	46436.23
601.91	46628.15
602.06	46061.74
602.22	46609.43
602.37	46593.04
602.53	46637.51
602.69	46838.80
602.84	46351.97
603.00	46267.71
603.16	46515.81
603.31	46445.59
603.47	46452.61
603.62	46150.68
603.78	46621.13
603.94	46621.13
604.09	46784.97
604.25	46611.77
604.40	46452.61
604.56	46426.87
604.71	46609.43
604.87	46431.55
605.03	46047.70
605.18	46478.36
605.34	46511.13
605.49	45862.80
605.65	46614.11
605.80	46380.06
605.96	47026.04
606.12	46389.42
606.27	46436.23
606.43	46260.69
606.58	46546.23
606.74	46555.60
606.89	46677.30
607.05	46873.91
607.20	46681.98
607.36	46569.64
607.51	46518.15
607.67	46490.06
607.82	46721.77
607.98	46216.22
608.13	46014.93
608.29	45790.24
608.44	45968.12
608.60	45886.20
608.75	46092.17
608.91	46043.02
609.06	46323.88
609.22	46089.83
609.37	46033.66
609.53	46340.27
609.68	46349.63
609.84	46150.68
609.99	46129.62
610.15	45766.84
610.30	46225.58
610.46	45640.45
610.61	46199.83
610.76	46080.47
610.92	46335.59
611.07	46010.25
611.23	46106.21
611.38	45626.40
611.54	45652.15
611.69	45893.22
611.84	45764.49
612.00	45581.93
612.15	45649.81
612.31	45546.82
612.46	45518.74
612.62	45815.99
612.77	45612.36
612.92	45972.80
613.08	45361.92
613.23	45373.63
613.39	45378.31
613.54	45085.74
613.69	45364.26
613.85	45287.03
614.00	45656.83
614.15	45504.70
614.31	45656.83
614.46	45385.33
614.62	45610.02
614.77	45457.88
614.92	45397.03
615.08	45593.64
615.23	45415.76
615.38	45216.81
615.54	44945.31
615.69	45029.57
615.84	45207.45
616.00	45769.18
616.15	45104.46
616.30	45088.08
616.46	45265.96
616.61	45258.94
616.76	44809.56
616.92	44552.10
617.07	44701.89
617.22	44512.31
617.37	44526.35
617.53	44900.84
617.68	45303.41
617.83	45024.89
617.99	45013.18
618.14	44905.52
618.29	45132.55
618.45	45045.95
618.60	44605.93
618.75	44215.06
618.90	44671.46
619.06	44531.03
619.21	44727.64
619.36	44947.65
619.51	44856.37
619.67	44624.65
619.82	44818.92
619.97	44807.22
620.12	44781.47
620.28	44362.51
620.43	44404.64
620.58	44591.89
620.73	44704.23
620.89	44498.26
621.04	44154.21
621.19	44432.73
621.34	44603.59
621.49	44109.74
621.65	44095.69
621.80	44554.44
621.95	44626.99
622.10	44605.93
622.25	43962.28
622.41	43728.23
622.56	43988.03
622.71	44378.90
622.86	43964.62
623.01	44041.86
623.16	44411.67
623.32	43887.39
623.47	44402.30
623.62	44268.89
623.77	44353.15
623.92	44500.61
624.07	44018.46
624.23	43807.81
624.38	43847.60
624.53	43634.61
624.68	43819.51
624.83	43903.77
624.98	43143.09
625.13	43435.66
625.29	43578.43
625.44	43323.32
625.59	42939.47
625.74	43358.42
625.89	43115.01
626.04	43096.28
626.19	43887.39
626.34	43203.95
626.49	43433.32
626.65	43648.65
626.80	43377.15
626.95	42976.92
627.10	43058.84
627.25	43112.67
627.40	43065.86
627.55	42885.64
627.70	42258.37
627.85	42726.48
628.00	43044.79
628.15	42932.45
628.30	42941.81
628.45	42801.38
628.60	43103.31
628.76	43208.63
628.91	42845.85
629.06	43103.31
629.21	42632.86
629.36	42251.35
629.51	42270.08
629.66	42997.98
629.81	42375.40
629.96	42330.93
630.11	42618.81
630.26	43044.79
630.41	42953.51
630.56	42682.01
630.71	42733.50
630.86	41977.51
631.01	42302.84
631.16	42195.18
631.31	42117.94
631.46	42071.13
631.61	42333.27
631.76	42532.22
631.91	42253.69
632.06	42525.19
632.21	42473.70
632.36	42459.66
632.51	41652.17
632.66	41799.63
632.81	41970.49
632.96	42295.82
633.10	41806.65
633.25	42206.88
633.40	42295.82
633.55	42047.72
633.70	41832.39
633.85	41790.27
634.00	41970.49
634.15	42017.30
634.30	41914.31
634.45	41773.88
634.60	42108.58
634.75	41841.76
634.90	41457.91
635.05	41397.06
635.19	41591.32
635.34	42216.24
635.49	41521.10
635.64	41752.82
635.79	41706.01
635.94	41099.81
636.09	41287.05
636.24	41350.24
636.39	41436.84
636.53	41727.07
636.68	40919.59
636.83	41504.72
636.98	41614.72
637.13	41120.87
637.28	41848.78
637.43	41640.47
637.57	41385.35
637.72	41675.58
637.87	41387.69
638.02	41471.95
638.17	41680.26
638.32	41354.93
638.46	41310.46
638.61	40807.24
638.76	41471.95
638.91	41195.77
639.06	41020.23
639.20	41195.77
639.35	41219.17
639.50	41085.76
639.65	41247.26
639.80	41090.44
639.94	40917.25
640.09	40322.75
640.24	40898.52
640.39	41006.19
640.54	40584.89
640.68	40737.02
640.83	40636.38
640.98	40605.95
641.13	40910.22
641.27	41045.97
641.42	40699.58
641.57	40517.01
641.72	40587.23
641.86	40397.65
642.01	40196.36
642.16	40367.22
642.31	40025.50
642.45	40105.08
642.60	40254.87
642.75	40343.81
642.90	40446.80
643.04	40378.92
643.19	40517.01
643.34	39955.29
643.48	40257.21
643.63	40004.44
643.78	40308.71
643.93	40425.73
644.07	40076.99
644.22	40074.65
644.37	40151.89
644.51	39854.64
644.66	39842.94
644.81	40187.00
644.95	39831.24
645.10	40074.65
645.25	39952.94
645.39	40044.23
645.54	39922.52
645.69	39922.52
645.83	39761.02
645.98	39959.97
646.13	39679.10
646.27	39901.45
646.42	39681.44
646.57	39487.18
646.71	39536.33
646.86	39917.84
647.00	39746.98
647.15	39629.95
647.30	39531.65
647.44	39461.43
647.59	39402.92
647.74	39023.75
647.88	39758.68
648.03	39423.98
648.17	39096.31
648.32	39323.34
648.47	39510.58
648.61	38979.28
648.76	39632.29
648.90	39260.15
649.05	39590.16
649.20	38958.22
649.34	39246.10
649.49	38806.08
649.63	38979.28
649.78	38789.70
649.92	39299.94
650.07	39323.34
650.21	38710.12
650.36	39477.82
650.51	39159.50
650.65	39613.57
650.80	39660.38
650.94	38930.13
651.09	39035.45
651.23	38536.92
651.38	38749.91
651.52	38422.23
651.67	38132.01
651.81	38946.51
651.96	38307.55
652.10	38342.66
652.25	39255.46
652.39	38742.89
652.54	38934.81
652.68	38398.83
652.83	38536.92
652.97	39070.56
653.12	38925.45
653.26	38476.07
653.41	38347.34
653.55	38256.06
653.70	38279.46
653.84	38565.01
653.99	38520.54
654.13	37909.66
654.27	38106.26
654.42	38302.87
654.56	38232.65
654.71	37984.55
654.85	38258.40
655.00	38312.23
655.14	38005.62
655.29	38171.80
655.43	37902.64
655.57	37844.12
655.72	37193.45
655.86	37546.87
656.01	37287.07
656.15	37579.64
656.30	37228.56
656.44	37553.90
656.58	37598.37
656.73	37816.04
656.87	37558.58
657.01	37675.60
657.16	37785.61
657.30	37586.66
657.45	37406.44
657.59	37226.22
657.73	37509.43
657.88	37909.66
658.02	37928.38
658.16	37759.86
658.31	37521.13
658.45	37699.01
658.60	37558.58
658.74	37429.85
658.88	36989.83
659.03	36912.59
659.17	36790.88
659.31	37188.77
659.46	36840.03
659.60	37106.85
659.74	37361.97
659.89	36772.16
660.03	36524.06
660.17	37432.19
660.32	37111.53
660.46	37153.66
660.60	36346.18
660.74	36505.34
660.89	36451.50
661.03	36168.30
661.17	36254.90
661.32	36425.76
661.46	36737.05
661.60	36374.27
661.74	36879.82
661.89	36725.35
662.03	36582.57
662.17	36240.86
662.31	36491.29
662.46	36833.01
662.60	36481.93
662.74	36208.09
662.88	36025.53
663.03	35501.25
663.17	36100.42
663.31	35784.45
663.45	35564.44
663.60	35831.26
663.74	35821.90
663.88	35419.33
664.02	35241.45
664.17	35508.27
664.31	35849.99
664.45	35384.22
664.59	35173.57
664.73	35552.74
664.88	35482.52
665.02	35105.70
665.16	34988.67
665.30	34862.28
665.44	34986.33
665.59	34761.64
665.73	34665.67
665.87	34962.92
666.01	34913.77
666.15	34937.18
666.29	35014.41
666.44	35110.38
666.58	34733.55
666.72	34810.79
666.86	34754.61
667.00	34433.96
667.14	34515.88
667.28	34249.06
667.43	34492.47
667.57	34717.17
667.71	34223.31
667.85	34218.63
667.99	34087.56
668.13	34450.35
668.27	33661.58
668.41	34443.32
668.56	33912.02
668.70	33998.62
668.84	33553.92
668.98	33273.06
669.12	33537.54
669.26	33394.76
669.40	33383.06
669.54	33493.07
669.68	33366.68
669.82	33354.97
669.96	33963.51
670.10	33345.61
670.25	33830.10
670.39	33163.05
670.53	32893.89
670.67	33308.16
670.81	33378.38
670.95	33053.05
671.09	32751.12
671.23	32788.56
671.37	32840.06
671.51	32720.69
671.65	32568.55
671.79	32322.80
671.93	32877.51
672.07	32795.59
672.21	32849.42
672.35	32521.74
672.49	32542.81
672.63	32783.88
672.77	32208.11
672.91	32552.17
673.05	32137.90
673.19	32360.25
673.33	31817.24
673.47	31826.60
673.61	31730.64
673.75	31510.63
673.89	31412.33
674.03	31697.88
674.17	31592.55
674.31	31335.09
674.45	31498.93
674.59	31519.99
674.73	31725.96
674.87	31384.24
675.01	31129.12
675.15	31253.17
675.29	30902.09
675.43	30911.46
675.56	31189.98
675.70	31168.91
675.84	30696.13
675.98	29820.77
676.12	30459.73
676.26	30441.01
676.40	30670.38
676.54	30703.15
676.68	30614.21
676.82	30073.54
676.96	30136.74
677.10	29900.34
677.23	29956.52
677.37	29773.95
677.51	29799.70
677.65	29762.25
677.79	29242.65
677.93	29465.00
678.07	28929.02
678.21	29146.69
678.34	28854.12
678.48	28629.43
678.62	28933.70
678.76	28748.80
678.90	28582.62
679.04	28776.89
679.18	28355.59
679.31	28301.76
679.45	28386.02
679.59	28453.89
679.73	28224.52
679.87	28177.71
680.00	28009.19
680.14	28173.03
680.28	28196.43
680.42	28158.99
680.56	27885.14
680.70	27938.97
680.83	27740.03
680.97	27496.61
681.11	27524.70
681.25	27693.22
681.39	27300.01
681.52	27321.07
681.66	26974.67
681.80	27255.54
681.94	27028.51
682.07	26691.47
682.21	26312.30
682.35	26436.35
682.49	26841.26
682.62	26363.79
682.76	26410.60
682.90	26602.53
683.04	26511.25
683.17	26029.10
683.31	26476.14
683.45	26015.05
683.59	26115.70
683.72	25717.81
683.86	26253.79
684.00	26001.01
684.13	25504.82
684.27	25448.64
684.41	25465.03
684.55	25039.05
684.68	25448.64
684.82	25376.09
684.96	25034.37
685.09	25099.90
685.23	24926.71
685.37	24531.15
685.50	25071.82
685.64	24458.60
685.78	24793.29
685.91	24400.08
686.05	24341.57
686.19	23878.15
686.32	24149.65
686.46	23948.36
686.60	23569.19
686.73	23285.99
686.87	23047.26
687.01	23119.81
687.14	23302.37
687.28	23204.07
687.42	23346.84
687.55	23300.03
687.69	23335.14
687.82	23108.11
687.96	23023.85
688.10	23147.90
688.23	22890.44
688.37	22520.63
688.50	22309.99
688.64	22647.02
688.78	22277.22
688.91	22143.81
689.05	22588.51
689.18	22312.33
689.32	22038.48
689.46	22317.01
689.59	22405.95
689.73	22092.32
689.86	22218.71
690.00	21881.67
690.13	21907.41
690.27	21708.47
690.41	21680.38
690.54	21495.48
690.68	21301.22
690.81	21275.47
690.95	21298.88
691.08	21118.65
691.22	21355.05
691.35	21619.53
691.49	21259.09
691.62	21102.27
691.76	20931.41
691.89	20931.41
692.03	20503.09
692.16	20545.22
692.30	20266.70
692.43	20301.81
692.57	20269.04
692.70	20322.87
692.84	20194.14
692.97	19962.43
693.11	20147.33
693.24	20018.60
693.38	19585.60
693.51	19784.55
693.65	19859.45
693.78	19822.00
693.92	19932.00
694.05	19548.15
694.19	19290.70
694.32	19438.15
694.45	19168.99
694.59	19035.58
694.72	18932.59
694.86	19061.32
694.99	18401.29
695.13	19370.27
695.26	18874.08
695.39	18621.30
695.53	18930.25
695.66	18712.58
695.80	18731.31
695.93	18438.74
696.07	18583.85
696.20	18733.65
696.33	18136.81
696.47	18258.52
696.60	18022.12
696.73	17692.11
696.87	17853.61
697.00	17933.18
697.14	17781.05
697.27	17727.22
697.40	17640.62
697.54	17441.67
697.67	17483.80
697.80	17392.52
697.94	16819.09
698.07	17165.49
698.21	17081.23
698.34	17198.26
698.47	16931.44
698.61	16854.20
698.74	17020.38
698.87	17018.04
699.01	16734.83
699.14	16343.96
699.27	16292.47
699.40	16437.58
699.54	16166.08
699.67	16212.89
699.80	16451.63
699.94	16259.70
700.07	15988.20
700.20	16030.33
700.34	16208.21
700.47	15981.18
700.60	16327.58
700.73	16114.59
700.87	15587.97
701.00	15604.35
701.13	15524.77
701.26	15435.83
701.40	15456.90
701.53	15358.60
701.66	15119.86
701.79	15054.33
701.93	15227.53
702.06	15194.76
702.19	15164.33
702.32	14944.32
702.46	14956.02
702.59	14792.19
702.72	14731.33
702.85	14785.16
702.99	14696.22
703.12	14644.73
703.25	14539.41
703.38	14417.70
703.51	14544.09
703.65	14347.48
703.78	14352.16
703.91	14001.08
704.04	14068.96
704.17	14150.88
704.31	14228.12
704.44	13944.91
704.57	13907.46
704.70	14193.01
704.83	13776.39
704.96	13708.52
705.10	13958.96
705.23	13701.50
>>>>>End Processed Spectral Data<<<<<
