SpectraSuite Data File
++++++++++++++++++++++++++++++++++++
Date: Fri Oct 25 10:48:03 EDT 2013
User: price-jones
Dark Spectrum Present: No
Reference Spectrum Present: No
Number of Sampled Component Spectra: 1
Spectrometers: USB2+H05261
Integration Time (usec): 100000 (USB2+H05261)
Spectra Averaged: 1 (USB2+H05261)
Boxcar Smoothing: 0 (USB2+H05261)
Correct for Electrical Dark: No (USB2+H05261)
Strobe/Lamp Enabled: No (USB2+H05261)
Correct for Detector Non-linearity: No (USB2+H05261)
Correct for Stray Light: No (USB2+H05261)
Number of Pixels in Processed Spectrum: 2048
>>>>>Begin Processed Spectral Data<<<<<
365.73	163.84
365.92	163.84
366.12	163.84
366.32	53.83
366.52	74.90
366.72	51.49
366.91	67.88
367.11	21.06
367.31	86.60
367.51	72.56
367.70	63.19
367.90	102.98
368.10	72.56
368.30	58.51
368.49	35.11
368.69	114.69
368.89	79.58
369.09	49.15
369.28	0.00
369.48	58.51
369.68	84.26
369.87	138.09
370.07	154.48
370.27	175.54
370.47	259.80
370.66	360.44
370.86	355.76
371.06	465.77
371.25	482.15
371.45	517.26
371.65	411.93
371.84	463.43
372.04	472.79
372.24	475.13
372.44	442.36
372.63	484.49
372.83	463.43
373.03	470.45
373.22	531.30
373.42	533.64
373.62	514.92
373.81	489.17
374.01	634.29
374.21	559.39
374.40	521.94
374.60	517.26
374.79	512.58
374.99	554.71
375.19	575.77
375.38	564.07
375.58	596.84
375.78	594.50
375.97	580.45
376.17	624.92
376.37	547.69
376.56	566.41
376.76	533.64
376.95	594.50
377.15	545.34
377.35	615.56
377.54	606.20
377.74	683.44
377.93	533.64
378.13	559.39
378.33	641.31
378.52	547.69
378.72	636.63
378.91	638.97
379.11	594.50
379.31	592.16
379.50	582.79
379.70	645.99
379.89	568.75
380.09	624.92
380.28	723.23
380.48	615.56
380.68	725.57
380.87	620.24
381.07	641.31
381.26	624.92
381.46	645.99
381.65	594.50
381.85	676.41
382.04	676.41
382.24	734.93
382.43	638.97
382.63	751.31
382.83	669.39
383.02	741.95
383.22	706.84
383.41	725.57
383.61	725.57
383.80	725.57
384.00	695.14
384.19	702.16
384.39	730.25
384.58	690.46
384.78	732.59
384.97	730.25
385.17	777.06
385.36	770.04
385.56	697.48
385.75	772.38
385.95	779.40
386.14	706.84
386.34	699.82
386.53	793.44
386.72	704.50
386.92	835.57
387.11	866.00
387.31	849.61
387.50	788.76
387.70	765.36
387.89	851.96
388.09	795.78
388.28	777.06
388.48	784.08
388.67	898.77
388.86	826.21
389.06	833.23
389.25	800.46
389.45	882.38
389.64	770.04
389.84	880.04
390.03	917.49
390.22	880.04
390.42	828.55
390.61	875.36
390.81	861.32
391.00	1018.13
391.19	898.77
391.39	938.55
391.58	894.08
391.78	894.08
391.97	950.26
392.16	943.24
392.36	1069.62
392.55	929.19
392.75	1050.90
392.94	1004.09
393.13	987.71
393.33	936.21
393.52	994.73
393.71	1008.77
393.91	1060.26
394.10	1062.60
394.29	1088.35
394.49	1041.54
394.68	1018.13
394.88	1067.28
395.07	1074.31
395.26	1081.33
395.46	1078.99
395.65	1165.59
395.84	1097.71
396.04	1184.31
396.23	1146.86
396.42	1107.07
396.62	1114.10
396.81	1191.33
397.00	1137.50
397.19	1137.50
397.39	1200.69
397.58	1156.22
397.77	1139.84
397.97	1191.33
398.16	1221.76
398.35	1268.57
398.55	1277.93
398.74	1240.48
398.93	1310.70
399.12	1320.06
399.32	1240.48
399.51	1430.07
399.70	1362.19
399.90	1296.66
400.09	1336.45
400.28	1390.28
400.47	1446.45
400.67	1453.47
400.86	1380.92
401.05	1355.17
401.24	1409.00
401.44	1495.60
401.63	1376.24
401.82	1497.94
402.01	1554.12
402.21	1416.02
402.40	1511.99
402.59	1511.99
402.78	1448.79
402.97	1483.90
403.17	1460.49
403.36	1570.50
403.55	1507.30
403.74	1629.01
403.93	1692.21
404.13	1624.33
404.32	1568.16
404.51	1657.10
404.70	1659.44
404.89	1603.27
405.09	1680.50
405.28	1729.66
405.47	1682.85
405.66	1823.28
405.85	1753.06
406.05	1736.68
406.24	1842.00
406.43	1722.63
406.62	1809.23
406.81	1811.57
407.00	1860.73
407.20	1713.27
407.39	1785.83
407.58	1912.22
407.77	1858.39
407.96	1937.96
408.15	1874.77
408.34	1984.77
408.54	1905.20
408.73	1860.73
408.92	1984.77
409.11	1989.46
409.30	1975.41
409.49	1959.03
409.68	2026.90
409.87	2097.12
410.07	2097.12
410.26	2143.93
410.45	2005.84
410.64	2005.84
410.83	2174.36
411.02	2111.16
411.21	2239.89
411.40	2235.21
411.59	2195.42
411.78	2195.42
411.98	2361.60
412.17	2249.25
412.36	2265.64
412.55	2270.32
412.74	2420.11
412.93	2363.94
413.12	2291.38
413.31	2539.48
413.50	2455.22
413.69	2410.75
413.88	2513.74
414.07	2530.12
414.26	2626.08
414.45	2605.02
414.64	2532.46
414.83	2525.44
415.02	2623.74
415.22	2715.02
415.41	2803.96
415.60	2733.75
415.79	2789.92
415.98	2717.36
416.17	2834.39
416.36	2771.19
416.55	2708.00
416.74	2862.48
416.93	2799.28
417.12	2937.37
417.31	2911.63
417.50	2888.22
417.69	3014.61
417.88	2979.50
418.07	3009.93
418.26	3075.46
418.45	3152.70
418.64	3206.53
418.83	3166.74
419.02	3178.45
419.21	3265.05
419.39	3124.62
419.58	3094.19
419.77	3080.14
419.96	3246.32
420.15	3274.41
420.34	3190.15
420.53	3185.47
420.72	3325.90
420.91	3463.99
421.10	3435.91
421.29	3522.51
421.48	3286.11
421.67	3368.03
421.86	3300.16
422.05	3204.19
422.24	3321.22
422.43	3351.65
422.61	3524.85
422.80	3503.78
422.99	3412.50
423.18	3487.40
423.37	3581.02
423.56	3452.29
423.75	3339.94
423.94	3328.24
424.13	3218.24
424.32	3370.37
424.50	3522.51
424.69	3499.10
424.88	3618.47
425.07	3426.54
425.26	3398.46
425.45	3370.37
425.64	3417.18
425.83	3480.38
426.01	3482.72
426.20	3555.27
426.39	3407.82
426.58	3566.98
426.77	3496.76
426.96	3492.08
427.15	3592.72
427.33	3527.19
427.52	3555.27
427.71	3606.77
427.90	3676.98
428.09	3557.61
428.28	3536.55
428.46	3623.15
428.65	3597.40
428.84	3922.74
429.03	3822.09
429.22	3674.64
429.40	3641.87
429.59	3847.84
429.78	3648.90
429.97	3662.94
430.16	3861.88
430.34	3934.44
430.53	3845.50
430.72	3754.22
430.91	3761.24
431.10	3840.82
431.28	3906.35
431.47	4063.17
431.66	4084.23
431.85	3978.91
432.03	4098.28
432.22	4269.14
432.41	4095.94
432.60	4117.00
432.79	4194.24
432.97	4231.69
433.16	4028.06
433.35	4329.99
433.54	4241.05
433.72	4208.28
433.91	4208.28
434.10	4315.95
434.28	4222.33
434.47	4294.88
434.66	4341.69
434.85	4489.15
435.03	4325.31
435.22	4243.39
435.41	4486.81
435.59	4414.25
435.78	4498.51
435.97	4479.79
436.16	4482.13
436.34	4376.80
436.53	4339.35
436.72	4627.24
436.90	4451.70
437.09	4650.64
437.28	4585.11
437.46	4624.90
437.65	4645.96
437.84	4816.82
438.02	4585.11
438.21	4603.83
438.40	4559.36
438.58	4727.88
438.77	4882.36
438.96	4737.24
439.14	4868.31
439.33	4980.66
439.52	5008.75
439.70	4968.96
439.89	4964.28
440.08	5130.45
440.26	4999.38
440.45	5020.45
440.63	5109.39
440.82	5287.27
441.01	5303.65
441.19	5242.80
441.38	5427.70
441.57	5221.74
441.75	5259.18
441.94	5462.81
442.12	5509.62
442.31	5518.98
442.50	5408.98
442.68	5439.40
442.87	5675.80
443.05	5605.58
443.24	5706.23
443.43	5694.52
443.61	5830.27
443.80	5811.55
443.98	5507.28
444.17	5334.08
444.35	5549.41
444.54	5802.19
444.73	5746.02
444.91	5682.82
445.10	5624.31
445.28	5738.99
445.47	5668.78
445.65	5558.77
445.84	5834.96
446.02	5949.64
446.21	5792.83
446.39	5736.65
446.58	5827.93
446.77	5837.30
446.95	5806.87
447.14	5818.57
447.32	5891.13
447.51	5870.06
447.69	5699.20
447.88	5851.34
448.06	6024.54
448.25	5706.23
448.43	6015.18
448.62	6054.97
448.80	6026.88
448.99	6017.52
449.17	6080.71
449.36	5982.41
449.54	6106.46
449.73	6179.01
449.91	6272.64
450.10	6253.91
450.28	6303.06
450.46	6307.74
450.65	6160.29
450.83	6354.55
451.02	6181.35
451.20	6347.53
451.39	6420.09
451.57	6277.32
451.76	6408.39
451.94	6303.06
452.13	6448.18
452.31	6445.84
452.49	6396.68
452.68	6361.58
452.86	6499.67
453.05	6494.99
453.23	6359.24
453.42	6340.51
453.60	6347.53
453.78	6574.56
453.97	6649.46
454.15	6525.41
454.34	6462.22
454.52	6565.20
454.70	6750.10
454.89	6684.57
455.07	6803.94
455.26	6593.29
455.44	6799.26
455.62	6874.15
455.81	6729.04
455.99	6967.77
456.17	6932.67
456.36	6984.16
456.54	6937.35
456.73	7002.88
456.91	7012.24
457.09	7222.89
457.28	7321.20
457.46	6878.83
457.64	7255.66
457.83	7009.90
458.01	7035.65
458.19	7358.64
458.38	7178.42
458.56	7255.66
458.74	7159.70
458.93	7349.28
459.11	7295.45
459.29	7272.04
459.48	7309.49
459.66	7405.46
459.84	7470.99
460.03	7414.82
460.21	7550.57
460.39	7573.97
460.57	7377.37
460.76	7449.93
460.94	7548.23
461.12	7613.76
461.31	7648.87
461.49	7772.92
461.67	7695.68
461.85	7791.64
462.04	7744.83
462.22	8142.72
462.40	7901.65
462.59	7901.65
462.77	7875.90
462.95	7936.76
463.13	7845.48
463.32	7819.73
463.50	7918.03
463.68	8126.34
463.86	7756.54
464.05	7826.75
464.23	7948.46
464.41	8112.30
464.59	7878.24
464.78	8116.98
464.96	8105.28
465.14	8147.40
465.32	8229.32
465.50	8177.83
465.69	8355.71
465.87	8210.60
466.05	8266.77
466.23	8170.81
466.41	8156.77
466.60	8456.36
466.78	8182.51
466.96	8348.69
467.14	8283.16
467.32	8344.01
467.51	8596.79
467.69	8149.75
467.87	8538.27
468.05	8531.25
468.23	8252.73
468.41	8292.52
468.60	8657.64
468.78	8624.87
468.96	8580.40
469.14	8608.49
469.32	8732.54
469.50	8484.44
469.69	8798.07
469.87	8812.12
470.05	8688.07
470.23	8968.93
470.41	8837.86
470.59	9004.04
470.77	8755.94
470.95	9011.06
471.14	8966.59
471.32	9074.26
471.50	9214.69
471.68	9240.44
471.86	9327.03
472.04	9303.63
472.22	9523.64
472.40	9195.96
472.58	9322.35
472.77	9144.47
472.95	9415.98
473.13	9776.42
473.31	9376.19
473.49	9628.96
473.67	9331.72
473.85	9661.73
474.03	9565.77
474.21	9582.15
474.39	9825.57
474.57	9727.27
474.75	9987.07
474.93	9799.82
475.12	10029.20
475.30	9942.60
475.48	10134.52
475.66	10094.73
475.84	10305.38
476.02	10043.24
476.20	10104.09
476.38	10387.30
476.56	10569.86
476.74	10544.11
476.92	10473.90
477.10	10555.82
477.28	10693.91
477.46	10747.74
477.64	10785.19
477.82	11197.12
478.00	11246.27
478.18	11257.98
478.36	11147.97
478.54	11234.57
478.72	11297.77
478.90	11337.56
479.08	11777.58
479.26	11569.27
479.44	11932.05
479.62	11868.86
479.80	11817.36
479.98	11751.83
480.16	12189.51
480.34	12042.06
480.52	12233.98
480.70	12203.55
480.88	12205.89
481.06	12685.70
481.24	12470.37
481.41	12575.70
481.59	12950.18
481.77	12936.14
481.95	12919.76
482.13	13060.19
482.31	12903.37
482.49	13270.84
482.67	13399.57
482.85	13415.95
483.03	13518.93
483.21	13703.84
483.39	13912.14
483.57	13666.39
483.74	13827.88
483.92	14026.83
484.10	13598.51
484.28	14291.31
484.46	14370.89
484.64	14691.54
484.82	14476.21
485.00	14633.03
485.18	14885.81
485.35	14944.32
485.53	14728.99
485.71	14869.42
485.89	15091.77
486.07	14977.09
486.25	15346.89
486.43	15159.65
486.61	15599.67
486.78	15878.19
486.96	15550.52
487.14	16306.51
487.32	16133.31
487.50	16245.66
487.68	16224.59
487.85	16673.98
488.03	16554.61
488.21	16973.56
488.39	16517.16
488.57	16933.78
488.75	17003.99
488.92	17090.59
489.10	17383.16
489.28	17600.83
489.46	17884.03
489.64	17649.98
489.81	18169.58
489.99	18017.44
490.17	18274.90
490.35	18370.86
490.53	18195.32
490.70	18555.77
490.88	18551.09
491.06	18857.70
491.24	18609.60
491.41	18916.21
491.59	18977.06
491.77	18693.86
491.95	18862.38
492.13	19461.55
492.30	19096.43
492.48	20011.58
492.66	19501.34
492.84	19793.91
493.01	20121.59
493.19	19744.76
493.37	20006.90
493.54	20046.69
493.72	20315.85
493.90	20610.76
494.08	20769.91
494.25	21034.39
494.43	20737.15
494.61	21106.95
494.79	21109.29
494.96	21102.27
495.14	21195.89
495.32	21462.71
495.49	21502.50
495.67	21759.96
495.85	21687.40
496.02	22305.31
496.20	22080.61
496.38	22031.46
496.55	22525.32
496.73	22717.24
496.91	22221.05
497.09	22057.21
497.26	22909.16
497.44	22733.62
497.62	22742.99
497.79	23084.70
497.97	22806.18
498.14	23321.10
498.32	23014.49
498.50	23234.50
498.67	23765.80
498.85	23173.64
499.03	23587.92
499.20	23578.56
499.38	24224.54
499.56	24151.99
499.73	24072.41
499.91	23990.49
500.08	24212.84
500.26	24257.31
500.44	24596.69
500.61	24854.15
500.79	24493.71
500.97	24643.50
501.14	25001.60
501.32	24680.95
501.49	24858.83
501.67	24893.94
501.84	24840.11
502.02	25013.31
502.20	24879.89
502.37	25479.07
502.55	25507.16
502.72	25624.18
502.90	25654.61
503.07	25694.40
503.25	25511.84
503.43	25532.90
503.60	25797.38
503.78	25937.82
503.95	25769.30
504.13	26288.90
504.30	26183.57
504.48	25921.43
504.65	26548.70
504.83	26485.50
505.01	26637.64
505.18	26551.04
505.36	26955.95
505.53	26850.63
505.71	27051.91
505.88	26979.36
506.06	26855.31
506.23	27239.15
506.41	27077.66
506.58	27211.07
506.76	27281.28
506.93	27714.28
507.11	27484.91
507.28	27660.45
507.46	27550.45
507.63	27707.26
507.81	27711.94
507.98	27737.69
508.16	27592.58
508.33	27793.86
508.50	28116.86
508.68	27885.14
508.85	28737.10
509.03	28554.54
509.20	28130.90
509.38	28790.93
509.55	28641.14
509.73	28418.78
509.90	28776.89
510.08	28755.82
510.25	29118.60
510.42	28748.80
510.60	29127.97
510.77	29392.45
510.95	29355.00
511.12	29371.38
511.30	29446.28
511.47	29617.14
511.64	29659.27
511.82	29895.66
511.99	29649.91
512.17	29865.24
512.34	29390.11
512.51	29900.34
512.69	30356.75
512.86	30183.55
513.04	30108.65
513.21	30469.09
513.38	30125.04
513.56	30623.57
513.73	30029.07
513.90	30670.38
514.08	30096.95
514.25	30721.87
514.43	30541.65
514.60	30953.58
514.77	30969.97
514.95	31087.00
515.12	31012.10
515.29	30974.65
515.47	31618.30
515.64	31630.00
515.81	31232.11
515.99	31297.64
516.16	31012.10
516.33	31089.34
516.51	31307.01
516.68	31229.77
516.85	31253.17
517.03	31246.15
517.20	31840.65
517.37	31896.82
517.54	32161.30
517.72	31915.54
517.89	32006.83
518.06	31866.39
518.24	31955.33
518.41	32285.35
518.58	32084.06
518.75	31908.52
518.93	32589.62
519.10	32224.50
519.27	32353.23
519.45	32472.59
519.62	32414.08
519.79	32758.14
519.96	32823.67
520.14	33132.62
520.31	32936.02
520.48	33106.88
520.65	32912.61
520.83	33481.36
521.00	33408.81
521.17	33092.83
521.34	33141.99
521.52	33525.83
521.69	33806.70
521.86	33792.65
522.03	33731.80
522.20	33603.07
522.38	33729.46
522.55	34122.67
522.72	33881.60
522.89	33790.31
523.07	33546.90
523.24	33970.54
523.41	34167.14
523.58	33970.54
523.75	33909.68
523.92	34286.51
524.10	34653.97
524.27	34422.26
524.44	34843.56
524.61	34677.38
524.78	34969.94
524.96	35070.59
525.13	35056.54
525.30	35314.00
525.47	35578.48
525.64	35002.71
525.81	34836.53
525.98	35051.86
526.16	35147.82
526.33	35112.72
526.50	35379.54
526.67	35351.45
526.84	35299.96
527.01	34960.58
527.18	35124.42
527.36	35842.96
527.53	35754.02
527.70	35983.40
527.87	36231.49
528.04	35952.97
528.21	35679.13
528.38	35744.66
528.55	35892.12
528.72	36343.84
528.89	36180.00
529.07	36093.40
529.24	36360.22
529.41	36418.74
529.58	36133.19
529.75	36353.20
529.92	35997.44
530.09	36184.68
530.26	36629.38
530.43	36381.29
530.60	36608.32
530.77	36463.21
530.94	36634.06
531.11	36769.82
531.28	36861.10
531.46	36767.48
531.63	37015.57
531.80	36795.56
531.97	36987.49
532.14	37202.82
532.31	37048.34
532.48	37144.30
532.65	37289.42
532.82	37111.53
532.99	37551.56
533.16	37013.23
533.33	37205.16
533.50	37326.86
533.67	37125.58
533.84	37010.89
534.01	37172.39
534.18	37308.14
534.35	37869.87
534.52	38176.48
534.69	37977.53
534.86	37890.93
535.03	37780.93
535.20	37804.33
535.37	38345.00
535.54	38562.67
535.71	38113.28
535.88	37944.76
536.05	38031.36
536.22	38178.82
536.38	38192.86
536.55	38508.83
536.72	38164.78
536.89	38286.48
537.06	38532.24
537.23	38038.39
537.40	38429.26
537.57	38490.11
537.74	38258.40
537.91	38813.10
538.08	38611.82
538.25	38972.26
538.42	38801.40
538.59	38927.79
538.75	38450.32
538.92	38644.59
539.09	39208.65
539.26	39030.77
539.43	39047.16
539.60	39187.59
539.77	38644.59
539.94	39103.33
540.11	38581.39
540.28	38644.59
540.44	38857.57
540.61	39016.73
540.78	39112.69
540.95	39159.50
541.12	39505.90
541.29	39033.11
541.46	39117.37
541.62	39281.21
541.79	39739.96
541.96	38958.22
542.13	39239.08
542.30	39421.64
542.47	39686.12
542.63	39512.92
542.80	40025.50
542.97	40105.08
543.14	40109.76
543.31	39929.54
543.48	40275.94
543.64	40783.83
543.81	40968.74
543.98	40009.12
544.15	40065.29
544.32	40451.48
544.48	40844.69
544.65	40563.82
544.82	40421.05
544.99	40259.55
545.16	40559.14
545.32	40617.66
545.49	40900.86
545.66	40896.18
545.83	40903.20
546.00	41069.38
546.16	41048.32
546.33	40811.92
546.50	40362.54
546.67	40952.35
546.83	40364.88
547.00	40751.07
547.17	40573.19
547.34	41151.30
547.50	40912.56
547.67	41462.59
547.84	41055.34
548.00	41331.52
548.17	41317.48
548.34	40954.69
548.51	41265.99
548.67	41572.60
548.84	41848.78
549.01	40982.78
549.18	41106.83
549.34	41207.47
549.51	41521.10
549.68	41844.10
549.84	41867.50
550.01	41687.28
550.18	41457.91
550.34	41429.82
550.51	41603.02
550.68	41874.52
550.84	41256.62
551.01	41975.17
551.18	41846.44
551.34	41736.43
551.51	41675.58
551.68	42124.96
551.84	41839.42
552.01	41940.06
552.18	41738.77
552.34	41694.30
552.51	42094.53
552.68	41918.99
552.84	42326.25
553.01	42047.72
553.18	41780.90
553.34	42141.35
553.51	42010.28
553.67	42375.40
553.84	42525.19
554.01	42459.66
554.17	42646.90
554.34	42838.83
554.51	42447.96
554.67	42752.23
554.84	42801.38
555.00	41755.16
555.17	42314.55
555.33	42520.51
555.50	42595.41
555.67	42904.36
555.83	42834.14
556.00	42782.65
556.16	43306.93
556.33	42738.18
556.50	42588.39
556.66	43005.00
556.83	42541.58
556.99	43061.18
557.16	43335.02
557.32	43393.53
557.49	43110.33
557.65	42649.24
557.82	42735.84
557.98	42827.12
558.15	43323.32
558.32	43210.97
558.48	42600.09
558.65	43157.14
558.81	42646.90
558.98	43044.79
559.14	43002.66
559.31	42997.98
559.47	43370.13
559.64	43330.34
559.80	43285.87
559.97	43548.01
560.13	43126.71
560.30	43187.56
560.46	43131.39
560.63	42834.14
560.79	43337.36
560.96	43480.13
561.12	43459.07
561.29	43405.23
561.45	43225.01
561.61	43290.55
561.78	43526.94
561.94	43309.27
562.11	43737.59
562.27	42979.26
562.44	43405.23
562.60	43524.60
562.77	43805.47
562.93	43564.39
563.10	43889.73
563.26	43585.46
563.42	43775.04
563.59	43828.87
563.75	43686.10
563.92	43826.53
564.08	43681.42
564.24	43751.63
564.41	43533.96
564.57	43271.82
564.74	43601.84
564.90	43676.74
565.07	44006.75
565.23	43805.47
565.39	43854.62
565.56	43873.34
565.72	43475.45
565.88	43540.99
566.05	43756.32
566.21	43849.94
566.38	43803.13
566.54	43718.87
566.70	44051.22
566.87	44196.34
567.03	43639.29
567.19	43770.36
567.36	43948.24
567.52	43281.19
567.68	44402.30
567.85	43873.34
568.01	44116.76
568.17	43753.97
568.34	43744.61
568.50	43629.93
568.66	43842.92
568.83	43908.45
568.99	43145.44
569.15	43943.56
569.32	43538.65
569.48	43636.95
569.64	44194.00
569.81	44198.68
569.97	43721.21
570.13	43882.70
570.30	43873.34
570.46	43957.60
570.62	44058.24
570.78	44002.07
570.95	44116.76
571.11	43995.05
571.27	44121.44
571.43	44329.75
571.60	44514.65
571.76	43856.96
571.92	43557.37
572.09	44020.80
572.25	44619.97
572.41	44018.46
572.57	43758.66
572.74	44538.05
572.90	44500.61
573.06	43896.75
573.22	44203.36
573.38	44114.42
573.55	44137.82
573.71	44287.62
573.87	44135.48
574.03	43744.61
574.20	44381.24
574.36	43807.81
574.52	44287.62
574.68	44268.89
574.84	44151.87
575.01	44474.86
575.17	44472.52
575.33	43908.45
575.49	43875.68
575.65	44566.14
575.82	44603.59
575.98	44327.41
576.14	44556.78
576.30	44390.60
576.46	44151.87
576.62	43882.70
576.79	44191.65
576.95	44013.77
577.11	44612.95
577.27	44526.35
577.43	44182.29
577.59	43969.30
577.75	44404.64
577.92	43847.60
578.08	43950.58
578.24	43920.15
578.40	44025.48
578.56	44720.62
578.72	44453.79
578.88	44205.70
579.04	44247.83
579.21	44357.83
579.37	44100.37
579.53	44259.53
579.69	44046.54
579.85	44011.43
580.01	44509.97
580.17	44638.70
580.33	44023.14
580.49	44460.82
580.65	44196.34
580.82	44388.26
580.98	44292.30
581.14	44086.33
581.30	44690.19
581.46	44170.59
581.62	44474.86
581.78	44622.31
581.94	44203.36
582.10	44748.70
582.26	44446.77
582.42	44423.37
582.58	44931.26
582.74	44406.98
582.90	44046.54
583.06	44807.22
583.22	44725.30
583.38	44774.45
583.54	44741.68
583.70	44472.52
583.86	44245.49
584.02	44252.51
584.18	44524.01
584.34	44261.87
584.50	44570.82
584.66	44608.27
584.82	44112.08
584.98	44772.11
585.14	44591.89
585.30	44191.65
585.46	44931.26
585.62	44376.56
585.78	44619.97
585.94	44130.80
586.10	44531.03
586.26	44453.79
586.42	44444.43
586.58	44910.20
586.74	44346.13
586.90	44563.80
587.06	44205.70
587.22	44699.55
587.38	44257.19
587.54	44514.65
587.70	44893.82
587.86	44856.37
588.02	44399.96
588.18	44849.35
588.34	44341.45
588.49	44254.85
588.65	44065.27
588.81	44048.88
588.97	44135.48
589.13	44280.60
589.29	44582.52
589.45	44687.85
589.61	44863.39
589.77	44821.26
589.93	44699.55
590.08	44842.32
590.24	44914.88
590.40	45055.31
590.56	45106.80
590.72	44999.14
590.88	44484.22
591.04	44851.69
591.20	44999.14
591.35	45076.38
591.51	45378.31
591.67	44898.50
591.83	44184.63
591.99	44451.45
592.15	44591.89
592.31	44612.95
592.46	44671.46
592.62	44802.53
592.78	44912.54
592.94	45022.54
593.10	44961.69
593.26	45352.56
593.41	44818.92
593.57	44893.82
593.73	44804.88
593.89	45085.74
594.05	44811.90
594.20	44701.89
594.36	45062.33
594.52	44989.78
594.68	45015.52
594.84	45261.28
594.99	44900.84
595.15	44594.23
595.31	45228.51
595.47	45062.33
595.62	45078.72
595.78	45013.18
595.94	45099.78
596.10	45050.63
596.25	45170.00
596.41	45230.85
596.57	45003.82
596.73	45162.98
596.88	44690.19
597.04	44914.88
597.20	45497.67
597.36	45153.62
597.51	44996.80
597.67	44612.95
597.83	44992.12
597.99	45294.05
598.14	45446.18
598.30	45207.45
598.46	44847.00
598.61	45008.50
598.77	44554.44
598.93	44772.11
599.09	45022.54
599.24	45507.04
599.40	45102.12
599.56	44809.56
599.71	45083.40
599.87	44797.85
600.03	44397.62
600.18	45282.34
600.34	45078.72
600.50	44744.02
600.65	45165.32
600.81	45022.54
600.97	44835.30
601.12	45741.09
601.28	44713.59
601.44	44460.82
601.59	45275.32
601.75	44760.40
601.91	45104.46
602.06	44882.11
602.22	44996.80
602.37	45118.51
602.53	44935.95
602.69	45186.38
602.84	44767.43
603.00	44505.29
603.16	45099.78
603.31	44830.62
603.47	44741.68
603.62	44856.37
603.78	45095.10
603.94	44905.52
604.09	44830.62
604.25	44732.32
604.40	45078.72
604.56	45235.53
604.71	44767.43
604.87	45165.32
605.03	45111.49
605.18	44966.37
605.34	45258.94
605.49	44694.87
605.65	44783.81
605.80	44699.55
605.96	44821.26
606.12	44671.46
606.27	44928.92
606.43	44786.15
606.58	45151.27
606.74	44629.34
606.89	45179.36
607.05	44659.76
607.20	44985.10
607.36	44849.35
607.51	45130.21
607.67	44861.05
607.82	44935.95
607.98	44624.65
608.13	45057.65
608.29	44552.10
608.44	44425.71
608.60	43995.05
608.75	44329.75
608.91	44004.41
609.06	44521.67
609.22	44582.52
609.37	44374.22
609.53	44439.75
609.68	44479.54
609.84	44432.73
609.99	44816.58
610.15	44566.14
610.30	44669.12
610.46	44442.09
610.61	44442.09
610.76	44744.02
610.92	44301.66
611.07	44296.98
611.23	44437.41
611.38	44254.85
611.54	44304.00
611.69	44238.47
611.84	44329.75
612.00	43824.19
612.15	44680.83
612.31	44605.93
612.46	44304.00
612.62	44559.12
612.77	44219.74
612.92	44360.17
613.08	44186.97
613.23	44191.65
613.39	44172.93
613.54	44184.63
613.69	44318.04
613.85	43938.88
614.00	44383.58
614.15	43988.03
614.31	44128.46
614.46	43922.49
614.62	44044.20
614.77	43924.83
614.92	44168.25
615.08	44062.93
615.23	43882.70
615.38	43899.09
615.54	43618.22
615.69	43669.72
615.84	43496.52
616.00	43875.68
616.15	43676.74
616.30	43634.61
616.46	43576.09
616.61	43533.96
616.76	43817.17
616.92	43941.22
617.07	43538.65
617.22	43824.19
617.37	43419.28
617.53	43814.83
617.68	43856.96
617.83	43686.10
617.99	43751.63
618.14	43517.58
618.29	43473.11
618.45	43283.53
618.60	43503.54
618.75	43257.78
618.90	43082.24
619.06	43077.56
619.21	43353.74
619.36	43552.69
619.51	43512.90
619.67	43047.13
619.82	43283.53
619.97	43749.29
620.12	43068.20
620.28	42857.55
620.43	43000.32
620.58	43164.16
620.73	43028.41
620.89	43068.20
621.04	42871.59
621.19	43075.22
621.34	42969.90
621.49	43014.37
621.65	42705.41
621.80	43517.58
621.95	42892.66
622.10	43096.28
622.25	42768.61
622.41	42462.00
622.56	42536.90
622.71	43098.62
622.86	42834.14
623.01	42813.08
623.16	42981.60
623.32	43122.03
623.47	43047.13
623.62	43159.48
623.77	42665.63
623.92	42752.23
624.07	42562.64
624.23	42209.22
624.38	42164.75
624.53	42504.13
624.68	42466.68
624.83	42712.44
624.98	42777.97
625.13	42227.95
625.29	42586.05
625.44	42569.66
625.59	42176.45
625.74	42312.20
625.89	42014.96
626.04	42211.56
626.19	42080.49
626.34	42806.06
626.49	42080.49
626.65	42153.05
626.80	42164.75
626.95	42387.10
627.10	41940.06
627.25	41600.68
627.40	41633.45
627.55	41181.73
627.70	41846.44
627.85	41757.50
628.00	41923.68
628.15	42220.92
628.30	42052.41
628.45	41986.87
628.60	41773.88
628.76	42012.62
628.91	41663.88
629.06	41497.70
629.21	41600.68
629.36	41612.38
629.51	41612.38
629.66	41221.52
629.81	41392.37
629.96	41811.33
630.11	41326.84
630.26	41731.75
630.41	41860.48
630.56	41127.89
630.71	41324.50
630.86	41331.52
631.01	40921.93
631.16	41111.51
631.31	41401.74
631.46	41081.08
631.61	41354.93
631.76	41045.97
631.91	41713.03
632.06	41668.56
632.21	41371.31
632.36	41280.03
632.51	40825.96
632.66	41041.29
632.81	40938.31
632.96	41006.19
633.10	40568.51
633.25	40772.13
633.40	40453.82
633.55	41446.21
633.70	41172.36
633.85	40753.41
634.00	41333.86
634.15	41104.49
634.30	40428.07
634.45	40982.78
634.60	40933.63
634.75	41127.89
634.90	40596.59
635.05	41006.19
635.19	40549.78
635.34	41179.39
635.49	40952.35
635.64	40601.27
635.79	40680.85
635.94	40509.99
636.09	40481.91
636.24	40704.26
636.39	40341.47
636.53	40222.11
636.68	40390.62
636.83	40170.61
636.98	40308.71
637.13	39842.94
637.28	40282.96
637.43	40381.26
637.57	40329.77
637.72	40753.41
637.87	39711.87
638.02	40304.02
638.17	40126.14
638.32	39957.63
638.46	40114.44
638.61	40053.59
638.76	39508.24
638.91	39845.28
639.06	39852.30
639.20	40254.87
639.35	40203.38
639.50	39838.26
639.65	40107.42
639.80	39854.64
639.94	39988.05
640.09	40018.48
640.24	40079.33
640.39	39583.14
640.54	39672.08
640.68	39498.88
640.83	39367.81
640.98	39936.56
641.13	39559.73
641.27	39856.98
641.42	39765.70
641.57	39929.54
641.72	39763.36
641.86	39178.23
642.01	39459.09
642.16	39398.24
642.31	39117.37
642.45	39482.50
642.60	39068.22
642.75	38916.09
642.90	39283.55
643.04	38930.13
643.19	39344.41
643.34	39503.56
643.48	39452.07
643.63	39489.52
643.78	39391.22
643.93	38864.60
644.07	39267.17
644.22	39124.40
644.37	39438.03
644.51	39154.82
644.66	39000.35
644.81	39117.37
644.95	39152.48
645.10	38724.16
645.25	39023.75
645.39	38789.70
645.54	38932.47
645.69	39154.82
645.83	38735.87
645.98	39136.10
646.13	38923.11
646.27	38675.01
646.42	38813.10
646.57	38754.59
646.71	38513.52
646.86	38773.31
647.00	38878.64
647.15	39021.41
647.30	38817.78
647.44	38946.51
647.59	39012.05
647.74	38040.73
647.88	38352.02
648.03	38244.35
648.17	38511.17
648.32	38202.22
648.47	38543.94
648.61	38368.40
648.76	38632.88
648.90	38188.18
649.05	38579.05
649.20	38955.88
649.34	38279.46
649.49	38101.58
649.63	38103.92
649.78	38586.07
649.92	38092.22
650.07	38916.09
650.21	38115.62
650.36	38426.92
650.51	38164.78
650.65	38319.25
650.80	38553.30
650.94	38003.28
651.09	37996.26
651.23	37846.46
651.38	37958.81
651.52	38007.96
651.67	38050.09
651.81	37748.16
651.96	37738.80
652.10	37551.56
652.25	37574.96
652.39	37652.20
652.54	37680.28
652.68	38038.39
652.83	37949.45
652.97	37916.68
653.12	38031.36
653.26	37968.17
653.41	37834.76
653.55	37205.16
653.70	37572.62
653.84	37727.10
653.99	37923.70
654.13	37656.88
654.27	37390.06
654.42	37764.54
654.56	37507.08
654.71	37832.42
654.85	37322.18
655.00	37450.91
655.14	37071.75
655.29	36989.83
655.43	37284.73
655.57	36774.50
655.72	36678.54
655.86	37354.95
656.01	37069.40
656.15	36814.29
656.30	37277.71
656.44	36648.11
656.58	36697.26
656.73	36924.29
656.87	36219.79
657.01	36643.43
657.16	36613.00
657.30	36697.26
657.45	36694.92
657.59	36882.16
657.73	36442.14
657.88	36840.03
658.02	36346.18
658.16	36797.90
658.31	36767.48
658.45	37038.98
658.60	36631.72
658.74	36835.35
658.88	36816.63
659.03	36275.96
659.17	35924.88
659.31	36392.99
659.46	36376.61
659.60	36013.82
659.74	36327.45
659.89	36442.14
660.03	35999.78
660.17	35927.22
660.32	36112.13
660.46	36238.51
660.60	36273.62
660.74	36456.18
660.89	36362.56
661.03	36041.91
661.17	35545.72
661.32	35957.65
661.46	35988.08
661.60	35831.26
661.74	35796.15
661.89	36074.68
662.03	35552.74
662.17	35477.84
662.31	35442.73
662.46	35777.43
662.60	35365.49
662.74	35117.40
662.88	35077.61
663.03	35379.54
663.17	35264.85
663.31	34993.35
663.45	35199.32
663.60	34981.65
663.74	35143.14
663.88	34794.40
664.02	35101.01
664.17	35175.91
664.31	34778.02
664.45	34560.35
664.59	34405.88
664.73	35007.39
664.88	34469.07
665.02	34403.53
665.16	34834.19
665.30	34869.30
665.44	34354.38
665.59	34403.53
665.73	34164.80
665.87	34204.59
666.01	34192.89
666.15	34143.74
666.29	34057.14
666.44	34504.18
666.58	33825.42
666.72	34438.64
666.86	34586.10
667.00	34429.28
667.14	33663.93
667.28	33600.73
667.43	33574.98
667.57	33481.36
667.71	33514.13
667.85	33163.05
667.99	33699.03
668.13	33326.89
668.27	33607.75
668.41	33607.75
668.56	32952.40
668.70	33401.79
668.84	33027.30
668.98	32856.44
669.12	33029.64
669.26	32704.31
669.40	32872.82
669.54	32739.41
669.68	33076.45
669.82	33085.81
669.96	32507.70
670.10	32135.56
670.25	32826.01
670.39	32577.92
670.53	32723.03
670.67	32521.74
670.81	32540.47
670.95	32870.48
671.09	32484.30
671.23	32664.52
671.37	32299.39
671.51	32205.77
671.65	32449.19
671.79	32088.74
671.93	32107.47
672.07	32524.08
672.21	31915.54
672.35	31775.11
672.49	31686.17
672.63	31826.60
672.77	31857.03
672.91	31365.52
673.05	31463.82
673.19	31651.06
673.33	31672.13
673.47	31405.31
673.61	31316.37
673.75	31126.78
673.89	31150.19
674.03	31103.38
674.17	30579.10
674.31	31108.06
674.45	30848.26
674.59	30820.17
674.73	30742.94
674.87	30675.06
675.01	30958.27
675.15	30874.01
675.29	30822.51
675.43	30583.78
675.56	30663.36
675.70	30174.19
675.84	30239.72
675.98	29572.67
676.12	30110.99
676.26	29453.30
676.40	29841.83
676.54	29783.32
676.68	29642.88
676.82	29221.59
676.96	29235.63
677.10	29235.63
677.23	29415.85
677.37	29097.54
677.51	29268.40
677.65	29425.22
677.79	29095.20
677.93	28900.94
678.07	28989.88
678.21	28367.29
678.34	28666.88
678.48	28547.51
678.62	28451.55
678.76	28584.96
678.90	28416.44
679.04	27953.02
679.18	28268.99
679.31	28041.96
679.45	27793.86
679.59	27587.89
679.73	27871.10
679.87	27800.88
680.00	27718.96
680.14	27431.08
680.28	27758.75
680.42	27115.11
680.56	27253.20
680.70	27360.86
680.83	27180.64
680.97	26871.69
681.11	27021.48
681.25	26927.86
681.39	26738.28
681.52	27091.70
681.66	26911.48
681.80	26796.79
681.94	26438.69
682.07	26293.58
682.21	26190.59
682.35	26246.77
682.49	26403.58
682.62	26462.10
682.76	26040.80
682.90	26008.03
683.04	25865.26
683.17	25776.32
683.31	25898.03
683.45	25663.97
683.59	25483.75
683.72	25312.89
683.86	25200.55
684.00	25142.03
684.13	25209.91
684.27	25500.14
684.41	25277.79
684.55	24896.28
684.68	24629.46
684.82	24479.66
684.96	24645.84
685.09	24812.02
685.23	24512.43
685.37	24416.47
685.50	24416.47
685.64	24498.39
685.78	24315.83
685.91	24306.46
686.05	23939.00
686.19	23955.38
686.32	23779.84
686.46	23559.83
686.60	23552.81
686.73	23702.61
686.87	23571.54
687.01	23316.42
687.14	23166.62
687.28	23285.99
687.42	23009.81
687.55	23117.47
687.69	23058.96
687.82	22658.73
687.96	22913.84
688.10	22869.37
688.23	22263.18
688.37	22424.67
688.50	22207.00
688.64	22391.91
688.78	22307.65
688.91	21998.70
689.05	21996.35
689.18	22340.41
689.32	21783.37
689.46	21930.82
689.59	22005.72
689.73	22047.85
689.86	21703.79
690.00	21970.61
690.13	21687.40
690.27	21776.34
690.41	21504.84
690.54	21055.46
690.68	21022.69
690.81	20879.92
690.95	20652.89
691.08	21050.78
691.22	21071.84
691.35	20961.84
691.49	20849.49
691.62	20889.28
691.76	20608.42
691.89	20854.17
692.03	20533.52
692.16	20575.65
692.30	20194.14
692.43	20329.89
692.57	20191.80
692.70	20137.97
692.84	20130.95
692.97	20086.48
693.11	19496.66
693.24	19690.93
693.38	19681.56
693.51	19470.92
693.65	19768.16
693.78	19667.52
693.92	19541.13
694.05	19234.52
694.19	18916.21
694.32	19035.58
694.45	19220.48
694.59	18845.99
694.72	18801.52
694.86	18869.40
694.99	18553.43
695.13	18452.78
695.26	18389.59
695.39	18469.17
695.53	18508.96
695.66	18230.43
695.80	18368.52
695.93	18031.49
696.07	18097.02
696.20	18155.54
696.33	18239.79
696.47	18094.68
696.60	17888.71
696.73	17659.34
696.87	17717.86
697.00	17743.60
697.14	18043.19
697.27	17294.22
697.40	17575.08
697.54	17357.41
697.67	17289.54
697.80	17322.30
697.94	17001.65
698.07	17095.27
698.21	16758.24
698.34	16872.92
698.47	16725.47
698.61	16592.06
698.74	16620.14
698.87	16812.07
699.01	16418.86
699.14	16299.49
699.27	16498.44
699.40	16238.64
699.54	16240.98
699.67	16184.80
699.80	16482.05
699.94	15978.84
700.07	16079.48
700.20	15805.64
700.34	15953.09
700.47	15658.18
700.60	16130.97
700.73	15803.30
700.87	15777.55
701.00	15335.19
701.13	15389.02
701.26	15248.59
701.40	15466.26
701.53	15253.27
701.66	15147.95
701.79	15145.61
701.93	14956.02
702.06	14717.29
702.19	15073.05
702.32	14839.00
702.46	14813.25
702.59	14705.59
702.72	14520.68
702.85	14567.49
702.99	14656.43
703.12	14724.31
703.25	14506.64
703.38	14314.72
703.51	14193.01
703.65	14457.49
703.78	14188.33
703.91	14195.35
704.04	14061.94
704.17	14092.37
704.31	13984.70
704.44	13628.94
704.57	13507.23
704.70	13659.37
704.83	13556.38
704.96	13540.00
705.10	13628.94
705.23	13483.83
>>>>>End Processed Spectral Data<<<<<
