SpectraSuite Data File
++++++++++++++++++++++++++++++++++++
Date: Fri Oct 25 11:33:22 EDT 2013
User: price-jones
Dark Spectrum Present: No
Reference Spectrum Present: No
Number of Sampled Component Spectra: 1
Spectrometers: USB2+H05261
Integration Time (usec): 100000 (USB2+H05261)
Spectra Averaged: 1 (USB2+H05261)
Boxcar Smoothing: 0 (USB2+H05261)
Correct for Electrical Dark: No (USB2+H05261)
Strobe/Lamp Enabled: No (USB2+H05261)
Correct for Detector Non-linearity: No (USB2+H05261)
Correct for Stray Light: No (USB2+H05261)
Number of Pixels in Processed Spectrum: 2048
>>>>>Begin Processed Spectral Data<<<<<
365.73	311.29
365.92	311.29
366.12	311.29
366.32	161.50
366.52	175.54
366.72	138.09
366.91	173.20
367.11	161.50
367.31	175.54
367.51	224.69
367.70	180.22
367.90	257.46
368.10	208.31
368.30	238.73
368.49	187.24
368.69	224.69
368.89	217.67
369.09	215.33
369.28	262.14
369.48	227.03
369.68	189.58
369.87	266.82
370.07	327.68
370.27	285.55
370.47	318.31
370.66	442.36
370.86	587.47
371.06	587.47
371.25	566.41
371.45	535.98
371.65	587.47
371.84	550.03
372.04	550.03
372.24	564.07
372.44	571.09
372.63	505.56
372.83	603.86
373.03	552.37
373.22	568.75
373.42	638.97
373.62	716.20
373.81	603.86
374.01	685.78
374.21	690.46
374.40	578.11
374.60	685.78
374.79	690.46
374.99	629.60
375.19	720.88
375.38	727.91
375.58	653.01
375.78	653.01
375.97	596.84
376.17	685.78
376.37	596.84
376.56	697.48
376.76	688.12
376.95	692.80
377.15	725.57
377.35	697.48
377.54	718.54
377.74	767.70
377.93	718.54
378.13	685.78
378.33	688.12
378.52	753.65
378.72	678.76
378.91	645.99
379.11	741.95
379.31	702.16
379.50	720.88
379.70	704.50
379.89	791.10
380.09	723.23
380.28	702.16
380.48	748.97
380.68	709.18
380.87	795.78
381.07	791.10
381.26	816.85
381.46	814.51
381.65	737.27
381.85	734.93
382.04	748.97
382.24	751.31
382.43	772.38
382.63	767.70
382.83	807.48
383.02	814.51
383.22	826.21
383.41	814.51
383.61	856.64
383.80	809.83
384.00	727.91
384.19	781.74
384.39	826.21
384.58	884.72
384.78	809.83
384.97	816.85
385.17	837.91
385.36	837.91
385.56	926.85
385.75	905.79
385.95	805.14
386.14	828.55
386.34	837.91
386.53	889.40
386.72	912.81
386.92	828.55
387.11	933.87
387.31	826.21
387.50	903.45
387.70	868.34
387.89	903.45
388.09	938.55
388.28	863.66
388.48	866.00
388.67	1020.47
388.86	950.26
389.06	849.61
389.25	938.55
389.45	954.94
389.64	999.41
389.84	952.60
390.03	978.34
390.22	940.90
390.42	1006.43
390.61	922.17
390.81	980.68
391.00	901.11
391.19	992.39
391.39	1046.22
391.58	1062.60
391.78	1111.75
391.97	1046.22
392.16	1006.43
392.36	1039.20
392.55	1060.26
392.75	1118.78
392.94	1015.79
393.13	1088.35
393.33	1008.77
393.52	1043.88
393.71	1151.54
393.91	1062.60
394.10	1078.99
394.29	1039.20
394.49	1137.50
394.68	1090.69
394.88	1144.52
395.07	1135.16
395.26	1114.10
395.46	1177.29
395.65	1214.74
395.84	1214.74
396.04	1174.95
396.23	1160.91
396.42	1181.97
396.62	1320.06
396.81	1233.46
397.00	1146.86
397.19	1324.74
397.39	1210.06
397.58	1231.12
397.77	1287.29
397.97	1188.99
398.16	1249.85
398.35	1334.11
398.55	1277.93
398.74	1263.89
398.93	1249.85
399.12	1348.15
399.32	1266.23
399.51	1383.26
399.70	1409.00
399.90	1462.83
400.09	1343.47
400.28	1418.36
400.47	1397.30
400.67	1411.34
400.86	1327.08
401.05	1413.68
401.24	1446.45
401.44	1483.90
401.63	1383.26
401.82	1519.01
402.01	1409.00
402.21	1446.45
402.40	1472.20
402.59	1533.05
402.78	1439.43
402.97	1540.07
403.17	1629.01
403.36	1547.09
403.55	1579.86
403.74	1490.92
403.93	1474.54
404.13	1533.05
404.32	1598.59
404.51	1589.22
404.70	1636.03
404.89	1703.91
405.09	1797.53
405.28	1720.29
405.47	1724.97
405.66	1633.69
405.85	1729.66
406.05	1727.32
406.24	1710.93
406.43	1839.66
406.62	1851.36
406.81	1802.21
407.00	1849.02
407.20	1774.13
407.39	1795.19
407.58	1837.32
407.77	1830.30
407.96	1809.23
408.15	1987.11
408.34	1895.83
408.54	1914.56
408.73	1937.96
408.92	1956.69
409.11	1930.94
409.30	2005.84
409.49	2019.88
409.68	1998.82
409.87	2005.84
410.07	1987.11
410.26	2087.76
410.45	2104.14
410.64	2179.04
410.83	2097.12
411.02	2148.61
411.21	2174.36
411.40	2157.97
411.59	2246.91
411.78	2253.94
411.98	2200.10
412.17	2277.34
412.36	2204.78
412.55	2324.15
412.74	2263.30
412.93	2321.81
413.12	2256.28
413.31	2483.31
413.50	2338.20
413.69	2525.44
413.88	2429.48
414.07	2504.37
414.26	2551.18
414.45	2590.97
414.64	2492.67
414.83	2619.06
415.02	2693.96
415.22	2635.44
415.41	2640.12
415.60	2717.36
415.79	2785.24
415.98	2785.24
416.17	2759.49
416.36	2733.75
416.55	2794.60
416.74	2740.77
416.93	2815.66
417.12	2906.95
417.31	2825.03
417.50	2895.24
417.69	2972.48
417.88	2984.18
418.07	2981.84
418.26	2946.73
418.45	2888.22
418.64	3122.27
418.83	3115.25
419.02	3077.80
419.21	2986.52
419.39	3227.60
419.58	3211.22
419.77	2930.35
419.96	3190.15
420.15	3281.43
420.34	3138.66
420.53	3077.80
420.72	3311.86
420.91	3246.32
421.10	3407.82
421.29	3335.26
421.48	3208.87
421.67	3356.33
421.86	3356.33
422.05	3321.22
422.24	3314.20
422.43	3421.86
422.61	3375.05
422.80	3440.59
422.99	3316.54
423.18	3342.28
423.37	3463.99
423.56	3424.20
423.75	3424.20
423.94	3255.69
424.13	3288.45
424.32	3353.99
424.50	3421.86
424.69	3417.18
424.88	3494.42
425.07	3419.52
425.26	3361.01
425.45	3407.82
425.64	3485.06
425.83	3466.33
426.01	3368.03
426.20	3620.81
426.39	3466.33
426.58	3403.14
426.77	3433.57
426.96	3597.40
427.15	3604.42
427.33	3646.55
427.52	3599.74
427.71	3632.51
427.90	3712.09
428.09	3756.56
428.28	3763.58
428.46	3728.47
428.65	3726.13
428.84	3838.48
429.03	3737.84
429.22	3733.15
429.40	3779.97
429.59	3840.82
429.78	3658.26
429.97	3655.92
430.16	3749.54
430.34	3852.52
430.53	3880.61
430.72	3833.80
430.91	3974.23
431.10	3950.82
431.28	3927.42
431.47	4039.76
431.66	4117.00
431.85	4002.32
432.03	4154.45
432.22	4126.36
432.41	4159.13
432.60	4177.86
432.79	3983.59
432.97	4053.81
433.16	4138.07
433.35	4018.70
433.54	4198.92
433.72	4292.54
433.91	4067.85
434.10	4339.35
434.28	4119.34
434.47	4257.43
434.66	4250.41
434.85	4325.31
435.03	4456.38
435.22	4332.33
435.41	4507.87
435.59	4287.86
435.78	4472.76
435.97	4571.07
436.16	4416.59
436.34	4465.74
436.53	4456.38
436.72	4559.36
436.90	4416.59
437.09	4571.07
437.28	4451.70
437.46	4519.57
437.65	4547.66
437.84	4664.69
438.02	4582.77
438.21	4744.27
438.40	4688.09
438.58	4805.12
438.77	4746.61
438.96	4786.40
439.14	4816.82
439.33	4835.55
439.52	4887.04
439.70	4856.61
439.89	4933.85
440.08	5064.92
440.26	5046.20
440.45	5078.96
440.63	5111.73
440.82	5088.32
441.01	5053.22
441.19	5179.61
441.38	5224.08
441.57	5416.00
441.75	5193.65
441.94	5617.29
442.12	5460.47
442.31	5474.51
442.50	5533.03
442.68	5289.61
442.87	5526.00
443.05	5589.20
443.24	5607.92
443.43	5586.86
443.61	5689.84
443.80	5853.68
443.98	5474.51
444.17	5521.32
444.35	5797.51
444.54	5612.60
444.73	5708.57
444.91	5617.29
445.10	5699.20
445.28	5617.29
445.47	5607.92
445.65	5792.83
445.84	5736.65
446.02	5767.08
446.21	5865.38
446.39	5753.04
446.58	5818.57
446.77	5818.57
446.95	5624.31
447.14	5731.97
447.32	5888.79
447.51	5844.32
447.69	5788.14
447.88	5774.10
448.06	5771.76
448.25	5975.39
448.43	6010.50
448.62	5734.31
448.80	5818.57
448.99	5764.74
449.17	5980.07
449.36	5961.34
449.54	6047.94
449.73	6040.92
449.91	6169.65
450.10	6127.52
450.28	6076.03
450.46	6282.00
450.65	6031.56
450.83	5959.00
451.02	6108.80
451.20	6335.83
451.39	6143.91
451.57	6251.57
451.76	5991.77
451.94	6214.12
452.13	6303.06
452.31	6429.45
452.49	6274.98
452.68	6328.81
452.86	6298.38
453.05	6370.94
453.23	6340.51
453.42	6375.62
453.60	6361.58
453.78	6588.61
453.97	6553.50
454.15	6396.68
454.34	6387.32
454.52	6328.81
454.70	6574.56
454.89	6537.12
455.07	6565.20
455.26	6593.29
455.44	6705.63
455.62	6637.76
455.81	6651.80
455.99	6759.47
456.17	6918.62
456.36	6843.73
456.54	6827.34
456.73	6965.43
456.91	7190.13
457.09	7012.24
457.28	7442.90
457.46	6953.73
457.64	7087.14
457.83	7180.76
458.01	7012.24
458.19	7227.57
458.38	7218.21
458.56	7468.65
458.74	7265.02
458.93	7075.44
459.11	7246.30
459.29	7391.41
459.48	7290.77
459.66	7318.86
459.84	7356.30
460.03	7536.52
460.21	7353.96
460.39	7681.64
460.57	7386.73
460.76	7611.42
460.94	7368.01
461.12	7620.78
461.31	7576.31
461.49	7452.27
461.67	7496.74
461.85	7754.19
462.04	7581.00
462.22	8091.23
462.40	7983.57
462.59	7826.75
462.77	7709.72
462.95	7882.92
463.13	7843.14
463.32	7798.66
463.50	7948.46
463.68	8013.99
463.86	7971.86
464.05	7887.61
464.23	7981.23
464.41	8053.78
464.59	7824.41
464.78	8053.78
464.96	8140.38
465.14	8013.99
465.32	8212.94
465.50	8271.45
465.69	8348.69
465.87	8147.40
466.05	8201.24
466.23	8304.22
466.41	8222.30
466.60	8379.12
466.78	8283.16
466.96	8236.35
467.14	8348.69
467.32	8444.65
467.51	8578.06
467.69	8147.40
467.87	8468.06
468.05	8547.64
468.23	8538.27
468.41	8542.96
468.60	8451.67
468.78	8571.04
468.96	8596.79
469.14	8641.26
469.32	8791.05
469.50	8657.64
469.69	8784.03
469.87	8872.97
470.05	8877.65
470.23	8966.59
470.41	8854.25
470.59	8973.61
470.77	8791.05
470.95	9041.49
471.14	8992.34
471.32	8746.58
471.50	9163.20
471.68	8959.57
471.86	9097.66
472.04	9210.01
472.22	9336.40
472.40	9259.16
472.58	9432.36
472.77	9191.28
472.95	9635.99
473.13	9607.90
473.31	9778.76
473.49	9626.62
473.67	9556.41
473.85	9537.68
474.03	9912.17
474.21	9678.12
474.39	9816.21
474.57	9825.57
474.75	10106.43
474.93	10036.22
475.12	9724.93
475.30	9916.85
475.48	10043.24
475.66	10066.64
475.84	9989.41
476.02	10197.71
476.20	10242.18
476.38	10445.81
476.56	10710.29
476.74	10761.78
476.92	10555.82
477.10	10633.05
477.28	10785.19
477.46	10619.01
477.64	10827.32
477.82	10984.13
478.00	11449.90
478.18	11129.25
478.36	11185.42
478.54	11529.48
478.72	11459.26
478.90	11712.04
479.08	11620.76
479.26	11838.43
479.44	11651.19
479.62	11646.51
479.80	11805.66
479.98	11960.14
480.16	12437.61
480.34	12451.65
480.52	12414.20
480.70	12334.62
480.88	12198.87
481.06	12489.10
481.24	12589.74
481.41	12587.40
481.59	12823.80
481.77	12922.10
481.95	12999.34
482.13	13132.75
482.31	13273.18
482.49	13530.64
482.67	13523.62
482.85	13628.94
483.03	13673.41
483.21	13820.86
483.39	14005.77
483.57	13745.97
483.74	13970.66
483.92	13991.72
484.10	13846.61
484.28	14637.71
484.46	14572.18
484.64	14780.48
484.82	14520.68
485.00	14754.74
485.18	15002.83
485.35	15101.14
485.53	15169.01
485.71	15370.30
485.89	15459.24
486.07	15445.20
486.25	15527.11
486.43	15779.89
486.61	16140.33
486.78	15925.00
486.96	16095.86
487.14	16170.76
487.32	16360.34
487.50	16521.84
487.68	16311.19
487.85	16767.60
488.03	16821.43
488.21	17001.65
488.39	16938.46
488.57	17212.30
488.75	17291.88
488.92	17563.38
489.10	17657.00
489.28	17989.36
489.46	17956.59
489.64	18075.96
489.81	18277.24
489.99	18246.82
490.17	18200.01
490.35	18471.51
490.53	18508.96
490.70	18892.80
490.88	18640.03
491.06	18897.49
491.24	18948.98
491.41	19250.91
491.59	19225.16
491.77	19414.74
491.95	19517.73
492.13	19644.12
492.30	19920.30
492.48	19702.63
492.66	20175.42
492.84	20257.34
493.01	20264.36
493.19	20390.75
493.37	20442.24
493.54	20446.92
493.72	20573.31
493.90	20608.42
494.08	21179.51
494.25	21062.48
494.43	21266.11
494.61	21336.32
494.79	21544.63
494.96	21385.47
495.14	21425.26
495.32	21923.80
495.49	21841.88
495.67	21741.24
495.85	22155.51
496.02	22244.45
496.20	22508.93
496.38	22569.79
496.55	22621.28
496.73	23295.35
496.91	22654.05
497.09	22733.62
497.26	22993.42
497.44	23089.38
497.62	23133.86
497.79	23585.58
497.97	23417.06
498.14	23644.09
498.32	23707.29
498.50	23751.76
498.67	24133.26
498.85	23789.20
499.03	24482.00
499.20	24325.19
499.38	24367.32
499.56	24266.67
499.73	24589.67
499.91	24823.72
500.08	24781.59
500.26	24664.57
500.44	24676.27
500.61	25151.40
500.79	25394.81
500.97	25308.21
501.14	25570.35
501.32	25474.39
501.49	25376.09
501.67	25355.02
501.84	25647.59
502.02	25727.17
502.20	25621.84
502.37	25626.53
502.55	25720.15
502.72	25984.63
502.90	26302.94
503.07	25907.39
503.25	26487.84
503.43	26202.30
503.60	26595.51
503.78	26614.23
503.95	26422.31
504.13	26654.02
504.30	26967.65
504.48	26747.64
504.65	27077.66
504.83	27122.13
505.01	27742.37
505.18	27627.68
505.36	27536.40
505.53	27173.62
505.71	27789.18
505.88	27763.43
506.06	27346.82
506.23	27576.19
506.41	27749.39
506.58	28081.75
506.76	28051.32
506.93	28332.18
507.11	28470.28
507.28	28219.84
507.46	28631.77
507.63	28360.27
507.81	28940.72
507.98	28709.01
508.16	28561.56
508.33	28671.56
508.50	28872.85
508.68	29420.53
508.85	29500.11
509.03	28957.11
509.20	29081.16
509.38	29685.01
509.55	29521.18
509.73	29546.92
509.90	29783.32
510.08	29266.06
510.25	30206.95
510.42	29944.81
510.60	29909.71
510.77	30295.89
510.95	30192.91
511.12	30260.79
511.30	30288.87
511.47	30270.15
511.64	30616.55
511.82	30764.00
511.99	30534.63
512.17	30703.15
512.34	30623.57
512.51	30984.01
512.69	30976.99
512.86	31040.18
513.04	31438.08
513.21	31213.38
513.38	31503.61
513.56	31543.40
513.73	31232.11
513.90	31655.75
514.08	31353.82
514.25	31723.62
514.43	32032.57
514.60	31744.69
514.77	31587.87
514.95	32236.20
515.12	32123.85
515.29	31580.85
515.47	32458.55
515.64	32011.51
515.81	32032.57
515.99	32559.19
516.16	32741.75
516.33	32786.22
516.51	32730.05
516.68	32577.92
516.85	32631.75
517.03	33364.34
517.20	32964.10
517.37	32982.83
517.54	33083.47
517.72	33055.39
517.89	33109.22
518.06	33181.77
518.24	33296.46
518.41	32987.51
518.58	33095.18
518.75	33053.05
518.93	33830.10
519.10	33589.03
519.27	33823.08
519.45	33720.10
519.62	34153.10
519.79	33921.38
519.96	34066.50
520.14	34235.02
520.31	34202.25
520.48	34342.68
520.65	33982.24
520.83	34258.42
521.00	34937.18
521.17	34771.00
521.34	34550.99
521.52	35054.20
521.69	35028.46
521.86	35129.10
522.03	34962.92
522.20	35012.07
522.38	35281.24
522.55	35225.06
522.72	35058.88
522.89	34897.39
523.07	35456.78
523.24	35501.25
523.41	35702.53
523.58	35278.89
523.75	35662.74
523.92	35292.94
524.10	35936.59
524.27	35594.87
524.44	35955.31
524.61	36044.25
524.78	36400.01
524.96	36282.98
525.13	36563.85
525.30	36105.10
525.47	36795.56
525.64	36065.31
525.81	36748.75
525.98	36907.91
526.16	36266.60
526.33	36177.66
526.50	37179.41
526.67	36638.75
526.84	36858.76
527.01	36921.95
527.18	36449.16
527.36	37038.98
527.53	37305.80
527.70	37186.43
527.87	37233.24
528.04	37247.29
528.21	37694.33
528.38	37532.83
528.55	37930.72
528.72	37682.62
528.89	37439.21
529.07	37064.72
529.24	37247.29
529.41	37968.17
529.58	37769.22
529.75	37624.11
529.92	38220.95
530.09	37830.08
530.26	37989.24
530.43	37750.50
530.60	38108.60
530.77	38176.48
530.94	37923.70
531.11	38370.74
531.28	38227.97
531.46	37944.76
531.63	38497.13
531.80	38443.30
531.97	38403.51
532.14	38618.84
532.31	38684.37
532.48	38838.85
532.65	39285.89
532.82	38574.37
532.99	38773.31
533.16	38794.38
533.33	38721.82
533.50	39115.03
533.67	38969.92
533.84	39133.76
534.01	39164.18
534.18	39267.17
534.35	39655.70
534.52	39489.52
534.69	39480.16
534.86	39831.24
535.03	39398.24
535.20	39871.03
535.37	39665.06
535.54	39915.50
535.71	39548.03
535.88	39955.29
536.05	40027.84
536.22	40135.51
536.38	39882.73
536.55	39943.58
536.72	40287.64
536.89	40194.02
537.06	40079.33
537.23	40348.50
537.40	40137.85
537.57	40105.08
537.74	40409.35
537.91	40575.53
538.08	40629.36
538.25	40311.05
538.42	40603.61
538.59	41071.72
538.75	40240.83
538.92	40865.75
539.09	40980.44
539.26	40907.88
539.43	40488.93
539.60	41141.94
539.77	40966.40
539.94	41223.86
540.11	40907.88
540.28	40807.24
540.44	41153.64
540.61	40793.20
540.78	40954.69
540.95	40893.84
541.12	40889.16
541.29	41139.60
541.46	41141.94
541.62	41230.88
541.79	41820.69
541.96	41193.43
542.13	41020.23
542.30	41366.63
542.47	41507.06
542.63	41965.81
542.80	41930.70
542.97	41965.81
543.14	41811.33
543.31	41890.91
543.48	41914.31
543.64	42628.18
543.81	42244.33
543.98	41979.85
544.15	42281.78
544.32	42511.15
544.48	42682.01
544.65	42387.10
544.82	42148.37
544.99	42136.66
545.16	42717.12
545.32	42543.92
545.49	42887.98
545.66	42941.81
545.83	42897.34
546.00	43107.99
546.16	42775.63
546.33	42696.05
546.50	42169.43
546.67	42827.12
546.83	42543.92
547.00	42773.29
547.17	43124.37
547.34	43239.06
547.50	43117.35
547.67	43533.96
547.84	43000.32
548.00	43117.35
548.17	43480.13
548.34	43576.09
548.51	43611.20
548.67	43793.76
548.84	43353.74
549.01	43484.81
549.18	43585.46
549.34	43599.50
549.51	43632.27
549.68	43753.97
549.84	43625.25
550.01	43880.36
550.18	43557.37
550.34	44315.70
550.51	44027.82
550.68	43758.66
550.84	43608.86
551.01	43981.01
551.18	44058.24
551.34	43861.64
551.51	44807.22
551.68	44039.52
551.84	44025.48
552.01	43889.73
552.18	44364.85
552.34	43728.23
552.51	44292.30
552.68	44296.98
552.84	44261.87
553.01	44652.74
553.18	44123.78
553.34	44479.54
553.51	44147.18
553.67	45146.59
553.84	44612.95
554.01	44687.85
554.17	44839.98
554.34	44526.35
554.51	44619.97
554.67	44879.77
554.84	45439.16
555.00	44744.02
555.17	44985.10
555.33	44973.39
555.50	44793.17
555.67	44996.80
555.83	44980.42
556.00	45076.38
556.16	45394.69
556.33	44978.07
556.50	45059.99
556.66	45067.02
556.83	45315.11
556.99	45139.57
557.16	45277.66
557.32	45375.97
557.49	45581.93
557.65	45343.20
557.82	45071.70
557.98	45406.39
558.15	45280.00
558.32	45303.41
558.48	45343.20
558.65	45572.57
558.81	45668.53
558.98	45624.06
559.14	45317.45
559.31	45495.33
559.47	45448.52
559.64	45673.21
559.80	45832.37
559.97	45893.22
560.13	45722.37
560.30	45406.39
560.46	45502.35
560.63	46171.75
560.79	46073.45
560.96	45986.85
561.12	46251.33
561.29	46129.62
561.45	45895.56
561.61	45993.87
561.78	45837.05
561.94	45631.08
562.11	45949.40
562.27	46087.49
562.44	45736.41
562.60	46050.04
562.77	46134.30
562.93	46141.32
563.10	46078.13
563.26	46539.21
563.42	46848.16
563.59	46546.23
563.75	46251.33
563.92	46047.70
564.08	46162.39
564.24	46335.59
564.41	45942.38
564.57	46085.15
564.74	46485.38
564.90	46326.22
565.07	46246.65
565.23	46717.09
565.39	46316.86
565.56	46447.93
565.72	46429.21
565.88	46354.31
566.05	46284.09
566.21	46670.28
566.38	46295.80
566.54	46319.20
566.70	46703.05
566.87	46635.17
567.03	46066.42
567.19	46576.66
567.36	46658.58
567.52	46925.40
567.68	46782.63
567.85	46780.29
568.01	46429.21
568.17	46494.74
568.34	46953.49
568.50	46630.49
568.66	46471.34
568.83	46651.56
568.99	46291.12
569.15	46775.61
569.32	46415.16
569.48	46714.75
569.64	46967.53
569.81	46911.36
569.97	47023.70
570.13	47384.15
570.30	46602.41
570.46	46616.45
570.62	46986.25
570.78	46660.92
570.95	46899.65
571.11	47033.07
571.27	46883.27
571.43	46855.18
571.60	46911.36
571.76	46827.10
571.92	46581.34
572.09	46801.35
572.25	47168.82
572.41	46656.24
572.57	47278.82
572.74	47278.82
572.90	47014.34
573.06	46925.40
573.22	47327.97
573.38	47313.93
573.55	47260.10
573.71	47653.31
573.87	47306.91
574.03	46773.27
574.20	47845.23
574.36	47082.22
574.52	47381.80
574.68	47269.46
574.84	47491.81
575.01	47526.92
575.17	47878.00
575.33	47091.58
575.49	47262.44
575.65	46972.21
575.82	47875.66
575.98	47068.17
576.14	47320.95
576.30	47473.09
576.46	47421.59
576.62	46894.97
576.79	47224.99
576.95	46735.82
577.11	47358.40
577.27	47316.27
577.43	47072.85
577.59	47257.76
577.75	47515.22
577.92	46862.21
578.08	47063.49
578.24	47454.36
578.40	47903.74
578.56	47023.70
578.72	47632.24
578.88	47325.63
579.04	47140.73
579.21	47143.07
579.37	47632.24
579.53	47255.42
579.69	47220.31
579.85	47070.51
580.01	47791.40
580.17	47391.17
580.33	47634.58
580.49	47412.23
580.65	47704.80
580.82	47503.51
580.98	47480.11
581.14	47232.01
581.30	47213.29
581.46	47360.74
581.62	47512.88
581.78	47334.99
581.94	47700.12
582.10	47374.78
582.26	47447.34
582.42	47695.44
582.58	47526.92
582.74	47643.94
582.90	47590.11
583.06	47590.11
583.22	47281.16
583.38	47585.43
583.54	47496.49
583.70	47966.94
583.86	47812.46
584.02	47896.72
584.18	47370.10
584.34	47639.26
584.50	47653.31
584.66	47859.27
584.82	47693.10
584.98	47941.19
585.14	47988.00
585.30	47524.58
585.46	47927.15
585.62	47690.76
585.78	47597.13
585.94	47339.68
586.10	47749.27
586.26	47896.72
586.42	47662.67
586.58	47721.18
586.74	47447.34
586.90	47693.10
587.06	47629.90
587.22	47840.55
587.38	47552.66
587.54	47597.13
587.70	47805.44
587.86	47498.83
588.02	47725.86
588.18	47744.59
588.34	47391.17
588.49	47662.67
588.65	47578.41
588.81	47995.03
588.97	47969.28
589.13	47683.73
589.29	47547.98
589.45	48144.82
589.61	47992.68
589.77	48025.45
589.93	47800.76
590.08	48100.35
590.24	48259.51
590.40	47938.85
590.56	48215.04
590.72	48140.14
590.88	47735.23
591.04	48076.94
591.20	48034.81
591.35	48243.12
591.51	48348.45
591.67	48130.78
591.83	48193.97
591.99	48098.01
592.15	48154.18
592.31	48004.39
592.46	48133.12
592.62	48460.79
592.78	48098.01
592.94	48582.50
593.10	48156.52
593.26	48488.88
593.41	48610.59
593.57	48734.63
593.73	48280.57
593.89	48769.74
594.05	49045.93
594.20	48348.45
594.36	48872.73
594.52	48505.26
594.68	48444.41
594.84	48100.35
594.99	48311.00
595.15	48774.42
595.31	48512.28
595.47	48074.60
595.62	48465.47
595.78	48034.81
595.94	48612.93
596.10	48559.09
596.25	48369.51
596.41	48636.33
596.57	48498.24
596.73	48678.46
596.88	48561.44
597.04	48603.56
597.20	48676.12
597.36	48683.14
597.51	48451.43
597.67	48193.97
597.83	48355.47
597.99	48421.00
598.14	48638.67
598.30	48655.06
598.46	48189.29
598.61	48615.27
598.77	48451.43
598.93	48561.44
599.09	48367.17
599.24	48903.15
599.40	48161.20
599.56	48690.16
599.71	49095.08
599.87	49116.14
600.03	49308.07
600.18	48645.69
600.34	48673.78
600.50	48662.08
600.65	48945.28
600.81	48545.05
600.97	49146.57
601.12	48580.16
601.28	48418.66
601.44	48399.94
601.59	48402.28
601.75	48982.73
601.91	48781.45
602.06	48589.52
602.22	48933.58
602.37	48275.89
602.53	48715.91
602.69	48776.76
602.84	48360.15
603.00	48746.34
603.16	48650.38
603.31	48591.86
603.47	48479.52
603.62	48875.07
603.78	49198.06
603.94	48687.82
604.09	48837.62
604.25	48474.84
604.40	48509.94
604.56	48765.06
604.71	49029.54
604.87	48526.33
605.03	48364.83
605.18	48364.83
605.34	48795.49
605.49	48561.44
605.65	48680.80
605.80	48184.61
605.96	48964.01
606.12	48493.56
606.27	48367.17
606.43	48362.49
606.58	48781.45
606.74	48175.25
606.89	48622.29
607.05	48706.55
607.20	48633.99
607.36	48521.65
607.51	48531.01
607.67	48374.19
607.82	48442.07
607.98	48374.19
608.13	48514.62
608.29	48395.26
608.44	48573.14
608.60	48039.50
608.75	48519.31
608.91	48233.76
609.06	48025.45
609.22	48645.69
609.37	48311.00
609.53	48392.92
609.68	48376.53
609.84	48502.92
609.99	48184.61
610.15	48313.34
610.30	48332.06
610.46	48378.87
610.61	48137.80
610.76	48491.22
610.92	48231.42
611.07	47943.53
611.23	48044.18
611.38	48172.91
611.54	47936.51
611.69	48287.59
611.84	48399.94
612.00	48196.31
612.15	47845.23
612.31	48353.13
612.46	47767.99
612.62	48018.43
612.77	47763.31
612.92	48509.94
613.08	47849.91
613.23	47948.21
613.39	47508.19
613.54	47999.71
613.69	48264.19
613.85	48037.16
614.00	47978.64
614.15	48039.50
614.31	47817.14
614.46	47775.02
614.62	47510.53
614.77	47847.57
614.92	48004.39
615.08	47693.10
615.23	48098.01
615.38	47969.28
615.54	47613.52
615.69	47800.76
615.84	47826.51
616.00	48397.60
616.15	48046.52
616.30	47615.86
616.46	47445.00
616.61	47620.54
616.76	48442.07
616.92	47704.80
617.07	47660.33
617.22	47543.30
617.37	47187.54
617.53	47414.57
617.68	47576.07
617.83	47494.15
617.99	47742.25
618.14	47583.09
618.29	47789.06
618.45	47679.05
618.60	47374.78
618.75	47676.71
618.90	47505.85
619.06	47178.18
619.21	47550.32
619.36	47718.84
619.51	47285.84
619.67	47459.04
619.82	47182.86
619.97	47470.75
620.12	47454.36
620.28	47161.79
620.43	47737.57
620.58	47590.11
620.73	47545.64
620.89	47688.42
621.04	47171.16
621.19	47248.39
621.34	47093.92
621.49	47189.88
621.65	47412.23
621.80	47150.09
621.95	46892.63
622.10	47278.82
622.25	47056.47
622.41	47096.26
622.56	47358.40
622.71	46958.17
622.86	47276.48
623.01	46948.81
623.16	46932.42
623.32	46597.73
623.47	47049.45
623.62	46773.27
623.77	47030.72
623.92	46906.68
624.07	47119.66
624.23	47136.05
624.38	46904.34
624.53	46820.08
624.68	46906.68
624.83	46707.73
624.98	46602.41
625.13	46410.48
625.29	46539.21
625.44	46595.38
625.59	46410.48
625.74	46878.59
625.89	46333.24
626.04	46120.26
626.19	46543.89
626.34	46286.43
626.49	45883.86
626.65	46115.58
626.80	46286.43
626.95	45940.04
627.10	45785.56
627.25	46553.26
627.40	46461.97
627.55	46777.95
627.70	46012.59
627.85	46260.69
628.00	46335.59
628.15	46248.99
628.30	45673.21
628.45	45593.64
628.60	45560.87
628.76	45687.26
628.91	46305.16
629.06	45495.33
629.21	45640.45
629.36	45823.01
629.51	45886.20
629.66	45904.93
629.81	46260.69
629.96	45785.56
630.11	45762.15
630.26	45530.44
630.41	45701.30
630.56	45390.01
630.71	45705.98
630.86	45799.60
631.01	45516.40
631.16	45368.94
631.31	45542.14
631.46	45551.51
631.61	45570.23
631.76	45497.67
631.91	45663.85
632.06	45769.18
632.21	45418.10
632.36	45792.58
632.51	45429.80
632.66	45710.66
632.81	45453.20
632.96	45734.07
633.10	45425.12
633.25	45488.31
633.40	45474.27
633.55	45846.41
633.70	45581.93
633.85	45198.09
634.00	45357.24
634.15	45109.14
634.30	45247.24
634.45	45059.99
634.60	44985.10
634.75	45530.44
634.90	44999.14
635.05	45387.67
635.19	44931.26
635.34	45076.38
635.49	44844.66
635.64	44968.71
635.79	45404.05
635.94	45301.07
636.09	44987.44
636.24	44781.47
636.39	45010.84
636.53	44886.79
636.68	44533.37
636.83	44282.94
636.98	44690.19
637.13	44226.76
637.28	44360.17
637.43	44755.72
637.57	44804.88
637.72	44245.49
637.87	44446.77
638.02	44416.35
638.17	44516.99
638.32	44240.81
638.46	44194.00
638.61	44037.18
638.76	44395.28
638.91	44217.40
639.06	44240.81
639.20	43915.47
639.35	44081.65
639.50	43999.73
639.65	43854.62
639.80	44208.04
639.94	44678.49
640.09	44540.39
640.24	43957.60
640.39	43999.73
640.54	43599.50
640.68	44105.06
640.83	44271.23
640.98	44233.78
641.13	43615.88
641.27	44245.49
641.42	43985.69
641.57	43908.45
641.72	44011.43
641.86	43749.29
642.01	43473.11
642.16	43709.50
642.31	43473.11
642.45	43990.37
642.60	43732.91
642.75	43463.75
642.90	43777.38
643.04	43739.93
643.19	43346.72
643.34	43351.40
643.48	43426.30
643.63	43658.01
643.78	43941.22
643.93	44126.12
644.07	43496.52
644.22	43494.18
644.37	43482.47
644.51	43487.15
644.66	43587.80
644.81	42948.83
644.95	43395.87
645.10	43393.53
645.25	43718.87
645.39	43100.97
645.54	43555.03
645.69	42895.00
645.83	42792.01
645.98	43100.97
646.13	43166.50
646.27	43246.08
646.42	43021.39
646.57	43260.12
646.71	43257.78
646.86	43290.55
647.00	43510.56
647.15	43440.34
647.30	42878.61
647.44	43082.24
647.59	42934.79
647.74	43115.01
647.88	43054.15
648.03	43217.99
648.17	43384.17
648.32	43267.14
648.47	43093.94
648.61	42979.26
648.76	42918.40
648.90	42576.69
649.05	42960.53
649.20	42885.64
649.34	42674.99
649.49	42782.65
649.63	42700.73
649.78	42934.79
649.92	42574.34
650.07	42974.58
650.21	42389.44
650.36	42784.99
650.51	42452.64
650.65	43164.16
650.80	42719.46
650.94	42597.75
651.09	42597.75
651.23	42391.78
651.38	42017.30
651.52	41806.65
651.67	42082.83
651.81	42384.76
651.96	42190.50
652.10	42143.69
652.25	41808.99
652.39	42120.28
652.54	41853.46
652.68	41729.41
652.83	41989.21
652.97	42529.87
653.12	42021.98
653.26	41820.69
653.41	42108.58
653.55	41956.44
653.70	42450.30
653.84	42265.39
653.99	42050.06
654.13	42033.68
654.27	41631.11
654.42	41698.98
654.56	41947.08
654.71	42192.84
654.85	41853.46
655.00	41792.61
655.14	41855.80
655.29	41684.94
655.43	41603.02
655.57	41748.14
655.72	41361.95
655.86	42010.28
656.01	41303.43
656.15	41221.52
656.30	41647.49
656.44	41673.24
656.58	41570.25
656.73	41652.17
656.87	41151.30
657.01	41001.50
657.16	41364.29
657.30	41549.19
657.45	41357.27
657.59	40945.33
657.73	40994.48
657.88	41298.75
658.02	41219.17
658.16	41408.76
658.31	41205.13
658.45	40893.84
658.60	40561.48
658.74	40715.96
658.88	41008.53
659.03	40954.69
659.17	40856.39
659.31	40299.34
659.46	40378.92
659.60	40765.11
659.74	40259.55
659.89	40100.40
660.03	40247.85
660.17	40364.88
660.32	40481.91
660.46	40444.46
660.60	40163.59
660.74	40098.06
660.89	40278.28
661.03	40165.93
661.17	40105.08
661.32	40112.10
661.46	40009.12
661.60	39941.24
661.74	40076.99
661.89	39990.39
662.03	40027.84
662.17	39545.69
662.31	39739.96
662.46	39906.13
662.60	39826.56
662.74	39629.95
662.88	39196.95
663.03	39161.84
663.17	39309.30
663.31	39353.77
663.45	38843.53
663.60	38967.58
663.74	39157.16
663.88	39089.29
664.02	39042.48
664.17	39313.98
664.31	38766.29
664.45	38841.19
664.59	38883.32
664.73	39037.80
664.88	38693.74
665.02	38349.68
665.16	38717.14
665.30	38866.94
665.44	38700.76
665.59	38389.47
665.73	38050.09
665.87	38234.99
666.01	38572.03
666.15	38485.43
666.29	38195.20
666.44	38295.85
666.58	38408.19
666.72	38124.99
666.86	38223.29
667.00	37933.06
667.14	38293.50
667.28	38265.42
667.43	37514.11
667.57	38148.39
667.71	38300.53
667.85	37834.76
667.99	37652.20
668.13	37228.56
668.27	37663.90
668.41	37008.55
668.56	37003.87
668.70	37340.91
668.84	37017.91
668.98	36975.78
669.12	37244.94
669.26	37010.89
669.40	37202.82
669.54	36868.12
669.68	36914.93
669.82	36608.32
669.96	36669.17
670.10	36336.82
670.25	36238.51
670.39	36629.38
670.53	36659.81
670.67	36507.68
670.81	36645.77
670.95	36568.53
671.09	36170.64
671.23	35875.73
671.37	36465.55
671.51	35847.64
671.65	35845.30
671.79	36037.23
671.93	35983.40
672.07	36278.30
672.21	35770.41
672.35	35431.03
672.49	35655.72
672.63	35782.11
672.77	35487.20
672.91	35473.16
673.05	35199.32
673.19	35009.73
673.33	34916.11
673.47	34916.11
673.61	34845.90
673.75	35101.01
673.89	35023.78
674.03	34209.27
674.17	34251.40
674.31	34272.46
674.45	34143.74
674.59	34284.17
674.73	34515.88
674.87	33841.81
675.01	34005.64
675.15	33722.44
675.29	33340.93
675.43	34007.98
675.56	34094.58
675.70	33778.61
675.84	33825.42
675.98	32900.91
676.12	33493.07
676.26	33919.04
676.40	33322.21
676.54	32921.98
676.68	33296.46
676.82	32371.95
676.96	33067.09
677.10	33322.21
677.23	32814.31
677.37	32844.74
677.51	32512.38
677.65	32538.13
677.79	32629.41
677.93	32353.23
678.07	32217.47
678.21	31969.38
678.34	32247.90
678.48	31927.25
678.62	31489.57
678.76	31716.60
678.90	31297.64
679.04	31695.53
679.18	31641.70
679.31	31248.49
679.45	31480.21
679.59	31042.53
679.73	31218.07
679.87	30546.33
680.00	30389.52
680.14	30752.30
680.28	30710.17
680.42	30504.20
680.56	30602.50
680.70	30319.30
680.83	30279.51
680.97	30169.51
681.11	30525.27
681.25	29874.60
681.39	29514.16
681.52	29935.45
681.66	29469.69
681.80	29027.32
681.94	29486.07
682.07	29296.49
682.21	29467.34
682.35	28802.63
682.49	28936.04
682.62	28943.06
682.76	28828.38
682.90	29081.16
683.04	28877.53
683.17	28547.51
683.31	28332.18
683.45	28039.62
683.59	28006.85
683.72	28360.27
683.86	27999.83
684.00	27747.05
684.13	27992.81
684.27	27709.60
684.41	27763.43
684.55	27704.92
684.68	27262.56
684.82	27236.81
684.96	27239.15
685.09	27044.89
685.23	27080.00
685.37	27449.80
685.50	27344.48
685.64	26801.47
685.78	26738.28
685.91	26562.74
686.05	26499.55
686.19	26066.55
686.32	26286.56
686.46	25961.22
686.60	25638.23
686.73	26167.19
686.87	25722.49
687.01	26073.57
687.14	25898.03
687.28	25900.37
687.42	25661.63
687.55	25223.95
687.69	25312.89
687.82	25198.21
687.96	25191.19
688.10	25338.64
688.23	25528.22
688.37	25156.08
688.50	24968.84
688.64	24734.78
688.78	24510.09
688.91	24683.29
689.05	24451.58
689.18	24063.05
689.32	24128.58
689.46	24006.87
689.59	23524.72
689.73	24116.88
689.86	24329.87
690.00	23845.38
690.13	24137.94
690.27	23438.12
690.41	23459.19
690.54	23108.11
690.68	23503.66
690.81	23082.36
690.95	23257.90
691.08	22960.66
691.22	22696.17
691.35	22527.66
691.49	22967.68
691.62	22771.07
691.76	22211.68
691.89	22211.68
692.03	22078.27
692.16	22026.78
692.30	22331.05
692.43	21837.20
692.57	21820.81
692.70	21862.94
692.84	21635.91
692.97	21862.94
693.11	21357.39
693.24	21296.53
693.38	21333.98
693.51	20982.90
693.65	21308.24
693.78	20814.38
693.92	21146.74
694.05	20994.61
694.19	20783.96
694.32	20912.69
694.45	20755.87
694.59	21013.33
694.72	20732.47
694.86	20634.16
694.99	20161.37
695.13	20570.97
695.26	19658.16
695.39	19868.81
695.53	20407.13
695.66	19953.07
695.80	20016.26
695.93	19716.67
696.07	19538.79
696.20	19379.64
696.33	19049.62
696.47	19117.50
696.60	19321.12
696.73	19136.22
696.87	19213.46
697.00	19185.37
697.14	19033.24
697.27	18843.65
697.40	18757.05
697.54	18693.86
697.67	18754.71
697.80	18857.70
697.94	18370.86
698.07	18129.79
698.21	18321.71
698.34	18546.40
698.47	17846.58
698.61	17671.04
698.74	17865.31
698.87	17860.63
699.01	17568.06
699.14	17706.15
699.27	17369.12
699.40	17188.89
699.54	17521.25
699.67	17291.88
699.80	17411.25
699.94	17057.82
700.07	17151.45
700.20	17137.40
700.34	16725.47
700.47	16814.41
700.60	17050.80
700.73	16891.65
700.87	16774.62
701.00	16582.70
701.13	16383.75
701.26	16507.80
701.40	16177.78
701.53	16212.89
701.66	16025.65
701.79	15936.71
701.93	15779.89
702.06	15573.92
702.19	15796.28
702.32	15840.75
702.46	15524.77
702.59	15609.03
702.72	15831.38
702.85	15700.31
702.99	15543.50
703.12	15452.22
703.25	14984.11
703.38	15061.35
703.51	15215.82
703.65	14827.29
703.78	14728.99
703.91	14934.96
704.04	14953.68
704.17	14693.88
704.31	14707.93
704.44	14677.50
704.57	14602.60
704.70	14581.54
704.83	14265.57
704.96	14183.65
705.10	14141.52
705.23	14218.75
>>>>>End Processed Spectral Data<<<<<
