SpectraSuite Data File
++++++++++++++++++++++++++++++++++++
Date: Fri Oct 25 11:34:13 EDT 2013
User: price-jones
Dark Spectrum Present: No
Reference Spectrum Present: No
Number of Sampled Component Spectra: 1
Spectrometers: USB2+H05261
Integration Time (usec): 100000 (USB2+H05261)
Spectra Averaged: 1 (USB2+H05261)
Boxcar Smoothing: 0 (USB2+H05261)
Correct for Electrical Dark: No (USB2+H05261)
Strobe/Lamp Enabled: No (USB2+H05261)
Correct for Detector Non-linearity: No (USB2+H05261)
Correct for Stray Light: No (USB2+H05261)
Number of Pixels in Processed Spectrum: 2048
>>>>>Begin Processed Spectral Data<<<<<
365.73	255.12
365.92	255.12
366.12	255.12
366.32	196.60
366.52	145.11
366.72	205.97
366.91	217.67
367.11	177.88
367.31	163.84
367.51	205.97
367.70	173.20
367.90	135.75
368.10	161.50
368.30	128.73
368.49	201.29
368.69	252.78
368.89	173.20
369.09	191.92
369.28	161.50
369.48	276.18
369.68	241.08
369.87	236.39
370.07	220.01
370.27	248.10
370.47	327.68
370.66	428.32
370.86	470.45
371.06	486.83
371.25	629.60
371.45	503.22
371.65	608.54
371.84	519.60
372.04	535.98
372.24	613.22
372.44	608.54
372.63	564.07
372.83	578.11
373.03	610.88
373.22	580.45
373.42	620.24
373.62	610.88
373.81	561.73
374.01	648.33
374.21	620.24
374.40	629.60
374.60	638.97
374.79	657.69
374.99	624.92
375.19	578.11
375.38	587.47
375.58	631.94
375.78	732.59
375.97	734.93
376.17	690.46
376.37	636.63
376.56	692.80
376.76	662.37
376.95	669.39
377.15	704.50
377.35	683.44
377.54	655.35
377.74	624.92
377.93	636.63
378.13	716.20
378.33	770.04
378.52	706.84
378.72	720.88
378.91	692.80
379.11	725.57
379.31	720.88
379.50	674.07
379.70	746.63
379.89	739.61
380.09	657.69
380.28	812.17
380.48	763.01
380.68	711.52
380.87	734.93
381.07	739.61
381.26	753.65
381.46	737.27
381.65	760.67
381.85	777.06
382.04	674.07
382.24	716.20
382.43	823.87
382.63	770.04
382.83	816.85
383.02	781.74
383.22	830.89
383.41	842.59
383.61	744.29
383.80	763.01
384.00	830.89
384.19	837.91
384.39	847.27
384.58	875.36
384.78	800.46
384.97	882.38
385.17	847.27
385.36	744.29
385.56	835.57
385.75	844.93
385.95	856.64
386.14	844.93
386.34	854.30
386.53	945.58
386.72	866.00
386.92	847.27
387.11	837.91
387.31	903.45
387.50	873.02
387.70	891.74
387.89	833.23
388.09	889.40
388.28	823.87
388.48	877.70
388.67	964.30
388.86	835.57
389.06	819.19
389.25	940.90
389.45	917.49
389.64	910.47
389.84	966.64
390.03	1008.77
390.22	924.51
390.42	947.92
390.61	1006.43
390.81	917.49
391.00	959.62
391.19	985.37
391.39	959.62
391.58	968.98
391.78	1015.79
391.97	1067.28
392.16	1034.52
392.36	1064.94
392.55	997.07
392.75	1013.45
392.94	1083.67
393.13	1060.26
393.33	1053.24
393.52	1001.75
393.71	1116.44
393.91	1104.73
394.10	1104.73
394.29	1039.20
394.49	1039.20
394.68	1114.10
394.88	1078.99
395.07	1111.75
395.26	1104.73
395.46	1163.25
395.65	1193.67
395.84	1144.52
396.04	1179.63
396.23	1151.54
396.42	1266.23
396.62	1203.04
396.81	1160.91
397.00	1170.27
397.19	1174.95
397.39	1174.95
397.58	1158.57
397.77	1308.36
397.97	1287.29
398.16	1207.72
398.35	1207.72
398.55	1172.61
398.74	1338.79
398.93	1301.34
399.12	1277.93
399.32	1282.61
399.51	1313.04
399.70	1313.04
399.90	1249.85
400.09	1327.08
400.28	1348.15
400.47	1394.96
400.67	1345.81
400.86	1350.49
401.05	1287.29
401.24	1387.94
401.44	1334.11
401.63	1369.21
401.82	1460.49
402.01	1472.20
402.21	1401.98
402.40	1451.13
402.59	1439.43
402.78	1465.18
402.97	1488.58
403.17	1502.62
403.36	1439.43
403.55	1582.20
403.74	1582.20
403.93	1565.82
404.13	1626.67
404.32	1514.33
404.51	1549.43
404.70	1638.38
404.89	1603.27
405.09	1755.40
405.28	1598.59
405.47	1727.32
405.66	1647.74
405.85	1652.42
406.05	1661.78
406.24	1727.32
406.43	1689.87
406.62	1797.53
406.81	1750.72
407.00	1694.55
407.20	1764.76
407.39	1717.95
407.58	1837.32
407.77	1870.09
407.96	1827.96
408.15	1820.94
408.34	1788.17
408.54	1949.67
408.73	1813.92
408.92	1860.73
409.11	1905.20
409.30	2008.18
409.49	2029.24
409.68	2003.50
409.87	1991.80
410.07	2015.20
410.26	2033.93
410.45	1909.88
410.64	2122.87
410.83	2097.12
411.02	2120.53
411.21	2230.53
411.40	2136.91
411.59	2235.21
411.78	2134.57
411.98	2104.14
412.17	2179.04
412.36	2190.74
412.55	2277.34
412.74	2331.17
412.93	2331.17
413.12	2305.43
413.31	2345.22
413.50	2363.94
413.69	2354.58
413.88	2424.80
414.07	2410.75
414.26	2382.67
414.45	2434.16
414.64	2569.91
414.83	2441.18
415.02	2492.67
415.22	2628.42
415.41	2541.82
415.60	2527.78
415.79	2593.31
415.98	2675.23
416.17	2708.00
416.36	2700.98
416.55	2689.28
416.74	2841.41
416.93	2743.11
417.12	2686.94
417.31	2818.00
417.50	2773.53
417.69	2799.28
417.88	2899.92
418.07	2782.90
418.26	2911.63
418.45	2965.46
418.64	3059.08
418.83	2967.80
419.02	2888.22
419.21	3070.78
419.39	3124.62
419.58	2986.52
419.77	3059.08
419.96	3019.29
420.15	3201.85
420.34	3026.31
420.53	3045.04
420.72	3087.17
420.91	3169.09
421.10	3183.13
421.29	3339.94
421.48	3126.96
421.67	3178.45
421.86	3122.27
422.05	3316.54
422.24	3251.00
422.43	3213.56
422.61	3246.32
422.80	3239.30
422.99	3335.26
423.18	3295.47
423.37	3325.90
423.56	3353.99
423.75	3211.22
423.94	3253.34
424.13	3236.96
424.32	3155.04
424.50	3403.14
424.69	3424.20
424.88	3386.76
425.07	3489.74
425.26	3307.18
425.45	3351.65
425.64	3363.35
425.83	3440.59
426.01	3438.25
426.20	3433.57
426.39	3405.48
426.58	3368.03
426.77	3421.86
426.96	3588.04
427.15	3522.51
427.33	3545.91
427.52	3396.12
427.71	3534.21
427.90	3571.66
428.09	3803.37
428.28	3709.75
428.46	3583.36
428.65	3545.91
428.84	3674.64
429.03	3791.67
429.22	3571.66
429.40	3662.94
429.59	3859.54
429.78	3543.57
429.97	3471.01
430.16	3686.34
430.34	3756.56
430.53	3824.44
430.72	3829.12
430.91	3688.68
431.10	3782.31
431.28	3819.75
431.47	3875.93
431.66	3969.55
431.85	3763.58
432.03	3992.95
432.22	4016.36
432.41	4091.26
432.60	3957.85
432.79	3995.29
432.97	3971.89
433.16	4021.04
433.35	4063.17
433.54	4079.55
433.72	4222.33
433.91	4147.43
434.10	4044.45
434.28	3988.27
434.47	4070.19
434.66	4105.30
434.85	4140.41
435.03	4194.24
435.22	4168.49
435.41	4376.80
435.59	4285.52
435.78	4332.33
435.97	4332.33
436.16	4264.46
436.34	4297.22
436.53	4294.88
436.72	4376.80
436.90	4259.78
437.09	4458.72
437.28	4287.86
437.46	4372.12
437.65	4559.36
437.84	4440.00
438.02	4332.33
438.21	4547.66
438.40	4454.04
438.58	4592.13
438.77	4746.61
438.96	4610.86
439.14	4603.83
439.33	4858.95
439.52	4713.84
439.70	4793.42
439.89	4964.28
440.08	4905.76
440.26	4889.38
440.45	4912.78
440.63	4983.00
440.82	4966.62
441.01	4889.38
441.19	5186.63
441.38	5160.88
441.57	5207.69
441.75	5184.29
441.94	5245.14
442.12	5205.35
442.31	5394.93
442.50	5261.52
442.68	5303.65
442.87	5392.59
443.05	5301.31
443.24	5488.56
443.43	5350.46
443.61	5547.07
443.80	5685.16
443.98	5444.09
444.17	5261.52
444.35	5320.04
444.54	5474.51
444.73	5483.88
444.91	5488.56
445.10	5385.57
445.28	5448.77
445.47	5502.60
445.65	5565.79
445.84	5514.30
446.02	5516.64
446.21	5598.56
446.39	5530.69
446.58	5547.07
446.77	5734.31
446.95	5413.66
447.14	5626.65
447.32	5682.82
447.51	5575.16
447.69	5504.94
447.88	5628.99
448.06	5640.69
448.25	5521.32
448.43	5783.46
448.62	5795.17
448.80	5589.20
448.99	5750.70
449.17	5980.07
449.36	5771.76
449.54	5820.91
449.73	5888.79
449.91	6003.47
450.10	5970.71
450.28	5984.75
450.46	6036.24
450.65	5823.25
450.83	5928.58
451.02	5741.33
451.20	6127.52
451.39	5954.32
451.57	6122.84
451.76	5998.79
451.94	6101.78
452.13	6186.04
452.31	5982.41
452.49	6080.71
452.68	6300.72
452.86	6069.01
453.05	6176.67
453.23	6326.47
453.42	6244.55
453.60	6207.10
453.78	6256.25
453.97	6370.94
454.15	6272.64
454.34	6375.62
454.52	6492.65
454.70	6291.36
454.89	6399.02
455.07	6516.05
455.26	6253.91
455.44	6464.56
455.62	6466.90
455.81	6640.10
455.99	6537.12
456.17	6581.59
456.36	6637.76
456.54	6682.23
456.73	6710.32
456.91	6965.43
457.09	6825.00
457.28	6932.67
457.46	6906.92
457.64	6722.02
457.83	6939.69
458.01	6766.49
458.19	6916.28
458.38	6869.47
458.56	6923.30
458.74	7045.01
458.93	6946.71
459.11	7000.54
459.29	6951.39
459.48	7173.74
459.66	7122.25
459.84	7234.60
460.03	7309.49
460.21	7363.33
460.39	7183.10
460.57	7391.41
460.76	7391.41
460.94	7190.13
461.12	7410.14
461.31	7353.96
461.49	7321.20
461.67	7396.09
461.85	7419.50
462.04	7368.01
462.22	8009.31
462.40	7562.27
462.59	7541.21
462.77	7438.22
462.95	7527.16
463.13	7379.71
463.32	7698.02
463.50	7761.22
463.68	7772.92
463.86	7777.60
464.05	7562.27
464.23	7695.68
464.41	7728.45
464.59	7623.12
464.78	7859.52
464.96	7754.19
465.14	7733.13
465.32	7868.88
465.50	7770.58
465.69	7873.56
465.87	7826.75
466.05	7765.90
466.23	7786.96
466.41	7962.50
466.60	8159.11
466.78	8051.44
466.96	7995.27
467.14	7892.29
467.32	8081.87
467.51	8140.38
467.69	7786.96
467.87	7899.31
468.05	8196.56
468.23	8184.85
468.41	8231.66
468.60	8439.97
468.78	8259.75
468.96	8304.22
469.14	8461.04
469.32	8226.98
469.50	8252.73
469.69	8496.14
469.87	8486.78
470.05	8669.34
470.23	8716.16
470.41	8641.26
470.59	8671.68
470.77	8559.34
470.95	8685.73
471.14	8779.35
471.32	8613.17
471.50	8821.48
471.68	8769.99
471.86	8950.21
472.04	8760.63
472.22	9095.32
472.40	8865.95
472.58	8917.44
472.77	9135.11
472.95	9114.05
473.13	9277.88
473.31	9165.54
473.49	9263.84
473.67	9270.86
473.85	9193.62
474.03	9633.64
474.21	9481.51
474.39	9373.85
474.57	9444.06
474.75	9589.17
474.93	9703.86
475.12	9785.78
475.30	9734.29
475.48	9575.13
475.66	10038.56
475.84	9593.86
476.02	9675.77
476.20	9738.97
476.38	10143.88
476.56	10251.55
476.74	10216.44
476.92	10218.78
477.10	10054.94
477.28	10572.20
477.46	10153.24
477.64	10501.98
477.82	10649.44
478.00	10923.28
478.18	10843.70
478.36	10991.16
478.54	10745.40
478.72	11012.22
478.90	10981.79
479.08	11370.32
479.26	11126.91
479.44	11545.86
479.62	11325.85
479.80	11571.61
479.98	11377.34
480.16	12020.99
480.34	11873.54
480.52	12002.27
480.70	12011.63
480.88	11716.72
481.06	12159.08
481.24	11978.86
481.41	12463.35
481.59	12414.20
481.77	12772.30
481.95	12542.93
482.13	12842.52
482.31	12638.89
482.49	12966.57
482.67	13057.85
482.85	13259.13
483.03	12975.93
483.21	13280.20
483.39	13692.13
483.57	13420.63
483.74	13652.34
483.92	13701.50
484.10	13743.63
484.28	13865.33
484.46	14003.43
484.64	14298.33
484.82	14216.41
485.00	14377.91
485.18	14572.18
485.35	14686.86
485.53	14455.15
485.71	14588.56
485.89	15073.05
486.07	14916.23
486.25	14862.40
486.43	14953.68
486.61	15243.91
486.78	15290.72
486.96	15367.96
487.14	15681.59
487.32	15573.92
487.50	15477.96
487.68	15812.66
487.85	16245.66
488.03	16456.31
488.21	16166.08
488.39	16566.31
488.57	16716.11
488.75	16617.80
488.92	16931.44
489.10	17273.15
489.28	17188.89
489.46	17280.18
489.64	16870.58
489.81	17748.28
489.99	17776.37
490.17	17593.81
490.35	18174.26
490.53	17797.43
490.70	18111.07
490.88	18015.10
491.06	18082.98
491.24	18581.51
491.41	18202.35
491.59	18586.19
491.77	18789.82
491.95	18834.29
492.13	18897.49
492.30	19370.27
492.48	19262.61
492.66	18963.02
492.84	19714.33
493.01	19449.85
493.19	19449.85
493.37	19826.68
493.54	19632.41
493.72	19824.34
493.90	20236.27
494.08	20496.07
494.25	20360.32
494.43	20486.71
494.61	20683.31
494.79	20741.83
494.96	20432.88
495.14	20760.55
495.32	21172.49
495.49	20915.03
495.67	21359.73
495.85	21633.57
496.02	21528.25
496.20	21748.26
496.38	21649.96
496.55	21858.26
496.73	22309.99
496.91	22026.78
497.09	22558.08
497.26	22506.59
497.44	22134.45
497.62	22317.01
497.79	22778.09
497.97	22441.06
498.14	22764.05
498.32	23250.88
498.50	23199.39
498.67	23300.03
498.85	23215.77
499.03	23506.00
499.20	23637.07
499.38	23672.18
499.56	23484.94
499.73	23580.90
499.91	23995.17
500.08	23836.02
500.26	23957.72
500.44	24285.40
500.61	24299.44
500.79	24355.61
500.97	24563.92
501.14	24737.12
501.32	24671.59
501.49	24807.34
501.67	24613.07
501.84	24737.12
502.02	24835.42
502.20	25130.33
502.37	24884.58
502.55	24891.60
502.72	25081.18
502.90	25305.87
503.07	25390.13
503.25	25296.51
503.43	25666.31
503.60	25432.26
503.78	25621.84
503.95	25869.94
504.13	25998.67
504.30	25919.09
504.48	26045.48
504.65	26050.16
504.83	26396.56
505.01	26441.03
505.18	26031.44
505.36	26539.33
505.53	26560.40
505.71	26586.15
505.88	26487.84
506.06	26480.82
506.23	26707.85
506.41	26745.30
506.58	26902.12
506.76	27173.62
506.93	27290.65
507.11	27009.78
507.28	27522.36
507.46	27140.85
507.63	27377.25
507.81	27927.27
507.98	27728.33
508.16	27665.13
508.33	27880.46
508.50	28084.09
508.68	27772.80
508.85	28290.06
509.03	27887.48
509.20	28053.66
509.38	28498.36
509.55	28409.42
509.73	28584.96
509.90	28561.56
510.08	28666.88
510.25	28870.51
510.42	28718.37
510.60	28994.56
510.77	28917.32
510.95	29092.86
511.12	29242.65
511.30	29308.19
511.47	29179.46
511.64	28987.53
511.82	29745.87
511.99	29230.95
512.17	29516.50
512.34	29661.61
512.51	29872.26
512.69	29834.81
512.86	29921.41
513.04	30279.51
513.21	30218.66
513.38	30122.69
513.56	30141.42
513.73	30246.74
513.90	30286.53
514.08	30122.69
514.25	30630.59
514.43	30780.39
514.60	30520.59
514.77	30976.99
514.95	30878.69
515.12	30684.42
515.29	30852.94
515.47	31243.81
515.64	31208.70
515.81	31040.18
515.99	31445.10
516.16	31400.63
516.33	31707.24
516.51	31328.07
516.68	31618.30
516.85	31431.05
517.03	31805.54
517.20	31669.79
517.37	31831.29
517.54	31564.46
517.72	31901.50
517.89	32147.26
518.06	32292.37
518.24	32058.32
518.41	31969.38
518.58	32142.58
518.75	32170.66
518.93	32364.93
519.10	32467.91
519.27	32926.66
519.45	32947.72
519.62	32905.59
519.79	32917.29
519.96	32781.54
520.14	32973.47
520.31	33139.65
520.48	33401.79
520.65	33106.88
520.83	33464.98
521.00	33418.17
521.17	32954.74
521.34	33254.33
521.52	33275.40
521.69	33237.95
521.86	33954.15
522.03	33862.87
522.20	34082.88
522.38	33928.41
522.55	34199.91
522.72	33748.18
522.89	34113.31
523.07	34443.32
523.24	34242.04
523.41	34740.57
523.58	34272.46
523.75	34852.92
523.92	34469.07
524.10	34602.48
524.27	34665.67
524.44	34885.68
524.61	34794.40
524.78	34539.29
524.96	35187.61
525.13	35218.04
525.30	35269.53
525.47	34960.58
525.64	35035.48
525.81	35292.94
525.98	35550.40
526.16	35278.89
526.33	34930.16
526.50	35477.84
526.67	35204.00
526.84	35498.91
527.01	35288.26
527.18	35475.50
527.36	35772.75
527.53	35620.61
527.70	35995.10
527.87	36062.97
528.04	35934.24
528.21	35995.10
528.38	36048.93
528.55	36334.48
528.72	35861.69
528.89	36311.07
529.07	35915.52
529.24	36067.66
529.41	36299.37
529.58	36238.51
529.75	36367.24
529.92	36575.55
530.09	36680.88
530.26	36184.68
530.43	36898.55
530.60	36252.56
530.77	36411.71
530.94	36985.15
531.11	37188.77
531.28	36758.11
531.46	36973.44
531.63	37156.00
531.80	36903.23
531.97	37219.20
532.14	37333.89
532.31	36882.16
532.48	37457.93
532.65	37380.70
532.82	37373.67
532.99	37493.04
533.16	37326.86
533.33	37811.35
533.50	37801.99
533.67	37928.38
533.84	37263.67
534.01	38000.94
534.18	38038.39
534.35	37855.82
534.52	38136.69
534.69	38359.04
534.86	38171.80
535.03	38052.43
535.20	38143.71
535.37	38356.70
535.54	38684.37
535.71	38335.63
535.88	38309.89
536.05	38373.08
536.22	38513.52
536.38	39049.50
536.55	38457.34
536.72	38401.17
536.89	38225.63
537.06	38452.66
537.23	39115.03
537.40	38962.90
537.57	38595.43
537.74	38726.50
537.91	38878.64
538.08	39054.18
538.25	38862.26
538.42	38684.37
538.59	39524.63
538.75	38983.96
538.92	39398.24
539.09	39372.49
539.26	39108.01
539.43	39447.39
539.60	39526.97
539.77	39398.24
539.94	39690.80
540.11	39248.44
540.28	40051.25
540.44	39533.99
540.61	39643.99
540.78	39276.53
540.95	39648.68
541.12	39526.97
541.29	39721.23
541.46	39796.13
541.62	39796.13
541.79	40250.19
541.96	39494.20
542.13	39929.54
542.30	40023.16
542.47	40304.02
542.63	40524.04
542.80	40669.15
542.97	40631.70
543.14	40907.88
543.31	40568.51
543.48	40493.61
543.64	41179.39
543.81	40856.39
543.98	40811.92
544.15	40762.77
544.32	41074.06
544.48	40921.93
544.65	40947.67
544.82	41174.70
544.99	41062.36
545.16	41546.85
545.32	41172.36
545.49	41242.58
545.66	41694.30
545.83	41656.85
546.00	41432.16
546.16	41319.82
546.33	41567.91
546.50	41523.44
546.67	41186.41
546.83	41427.48
547.00	41607.70
547.17	41375.99
547.34	41642.81
547.50	42017.30
547.67	42129.64
547.84	41832.39
548.00	42052.41
548.17	42066.45
548.34	42246.67
548.51	42195.18
548.67	42033.68
548.84	41923.68
549.01	41879.21
549.18	42256.03
549.34	42136.66
549.51	42270.08
549.68	41970.49
549.84	42340.29
550.01	42351.99
550.18	42263.05
550.34	42150.71
550.51	42616.47
550.68	42253.69
550.84	42391.78
551.01	42845.85
551.18	42953.51
551.34	42438.59
551.51	42869.25
551.68	42593.07
551.84	42543.92
552.01	42522.85
552.18	42871.59
552.34	42483.06
552.51	42462.00
552.68	42354.33
552.84	42436.25
553.01	43217.99
553.18	43187.56
553.34	43086.92
553.51	42508.81
553.67	43079.90
553.84	43363.11
554.01	43220.33
554.17	43014.37
554.34	43217.99
554.51	43274.16
554.67	43412.26
554.84	43367.79
555.00	43276.51
555.17	43203.95
555.33	43548.01
555.50	43325.66
555.67	43428.64
555.83	43323.32
556.00	43636.95
556.16	44367.20
556.33	43803.13
556.50	43278.85
556.66	43662.69
556.83	43232.04
556.99	44165.91
557.16	44217.40
557.32	44217.40
557.49	43906.11
557.65	43683.76
557.82	43913.13
557.98	44224.42
558.15	43885.04
558.32	43782.06
558.48	43964.62
558.65	43910.79
558.81	44170.59
558.98	44486.56
559.14	43854.62
559.31	43723.55
559.47	43768.02
559.64	43936.54
559.80	44442.09
559.97	44158.89
560.13	43810.15
560.30	44175.27
560.46	44673.81
560.63	44332.09
560.79	44832.96
560.96	44168.25
561.12	44528.69
561.29	44715.93
561.45	44669.12
561.61	44456.14
561.78	44083.99
561.94	44451.45
562.11	44486.56
562.27	44917.22
562.44	44673.81
562.60	44680.83
562.77	44566.14
562.93	44491.24
563.10	44989.78
563.26	44538.05
563.42	45181.70
563.59	44650.40
563.75	44619.97
563.92	44858.71
564.08	44692.53
564.24	45095.10
564.41	44465.50
564.57	45022.54
564.74	45345.54
564.90	44645.72
565.07	44685.51
565.23	44765.09
565.39	45127.87
565.56	45067.02
565.72	44856.37
565.88	44980.42
566.05	44851.69
566.21	45261.28
566.38	45111.49
566.54	44949.99
566.70	45317.45
566.87	44968.71
567.03	44788.49
567.19	45432.14
567.36	45102.12
567.52	45050.63
567.68	45340.86
567.85	45195.74
568.01	44952.33
568.17	45041.27
568.34	45207.45
568.50	45081.06
568.66	45216.81
568.83	45336.18
568.99	45308.09
569.15	45523.42
569.32	45382.99
569.48	45263.62
569.64	45787.90
569.81	45387.67
569.97	45298.73
570.13	45689.60
570.30	44945.31
570.46	45647.47
570.62	45478.95
570.78	45439.16
570.95	45371.28
571.11	45713.00
571.27	45221.49
571.43	45434.48
571.60	45130.21
571.76	44971.05
571.92	45200.43
572.09	45125.53
572.25	45326.81
572.41	45020.20
572.57	45624.06
572.74	46026.63
572.90	45621.72
573.06	45521.08
573.22	45659.17
573.38	46082.81
573.55	45462.57
573.71	46436.23
573.87	45792.58
574.03	45638.11
574.20	46122.60
574.36	45708.32
574.52	45886.20
574.68	45848.75
574.84	45757.47
575.01	46033.66
575.17	45794.92
575.33	45787.90
575.49	45549.17
575.65	45940.04
575.82	46073.45
575.98	45483.63
576.14	46153.02
576.30	46284.09
576.46	45546.82
576.62	45654.49
576.79	45963.44
576.95	45298.73
577.11	45860.46
577.27	45825.35
577.43	45977.48
577.59	45752.79
577.75	45675.55
577.92	45698.96
578.08	45837.05
578.24	45907.27
578.40	45961.10
578.56	45808.96
578.72	46052.38
578.88	45806.62
579.04	45727.05
579.21	45979.82
579.37	45970.46
579.53	46248.99
579.69	45560.87
579.85	45478.95
580.01	45628.74
580.17	45918.97
580.33	46361.33
580.49	45918.97
580.65	46218.56
580.82	45947.06
580.98	45851.09
581.14	45715.34
581.30	45879.18
581.46	46110.89
581.62	45837.05
581.78	45879.18
581.94	46415.16
582.10	46258.35
582.26	45982.16
582.42	46129.62
582.58	46099.19
582.74	46251.33
582.90	46036.00
583.06	46068.76
583.22	46124.94
583.38	46342.61
583.54	46117.92
583.70	46487.72
583.86	46347.29
584.02	46274.73
584.18	46712.41
584.34	46298.14
584.50	46447.93
584.66	46164.73
584.82	46202.18
584.98	46424.53
585.14	46436.23
585.30	45748.11
585.46	46244.30
585.62	46326.22
585.78	46344.95
585.94	45783.22
586.10	46141.32
586.26	45942.38
586.42	46447.93
586.58	46094.51
586.74	46066.42
586.90	45982.16
587.06	46335.59
587.22	46286.43
587.38	46415.16
587.54	46377.72
587.70	46337.93
587.86	46501.76
588.02	46195.15
588.18	46143.66
588.34	46770.93
588.49	46258.35
588.65	46012.59
588.81	45961.10
588.97	46707.73
589.13	46298.14
589.29	46251.33
589.45	46480.70
589.61	46284.09
589.77	46660.92
589.93	46178.77
590.08	46511.13
590.24	46553.26
590.40	46653.90
590.56	46483.04
590.72	46309.84
590.88	46532.19
591.04	46270.05
591.20	46344.95
591.35	46852.84
591.51	46890.29
591.67	46955.83
591.83	46799.01
591.99	46225.58
592.15	46663.26
592.31	46773.27
592.46	46527.51
592.62	46520.49
592.78	46876.25
592.94	46660.92
593.10	47203.92
593.26	47014.34
593.41	47131.37
593.57	46784.97
593.73	46611.77
593.89	47037.75
594.05	46944.12
594.20	46660.92
594.36	47105.62
594.52	46724.11
594.68	46827.10
594.84	46724.11
594.99	47054.13
595.15	46946.47
595.31	46904.34
595.47	46993.28
595.62	47023.70
595.78	46986.25
595.94	46590.70
596.10	46649.22
596.25	46892.63
596.41	46955.83
596.57	46904.34
596.73	47093.92
596.88	47054.13
597.04	47035.41
597.20	47185.20
597.36	47232.01
597.51	47342.02
597.67	46590.70
597.83	46981.57
597.99	47157.11
598.14	46864.55
598.30	47002.64
598.46	47150.09
598.61	47320.95
598.77	46967.53
598.93	47002.64
599.09	47114.98
599.24	47543.30
599.40	47012.00
599.56	47126.69
599.71	47421.59
599.87	48079.28
600.03	47374.78
600.18	47051.79
600.34	47288.18
600.50	47538.62
600.65	47030.72
600.81	47241.37
600.97	47437.98
601.12	46948.81
601.28	47077.54
601.44	47154.77
601.59	46976.89
601.75	46974.55
601.91	47168.82
602.06	47349.04
602.22	47196.90
602.37	47122.01
602.53	47012.00
602.69	47449.68
602.84	46979.23
603.00	47110.30
603.16	47131.37
603.31	47014.34
603.47	47239.03
603.62	47026.04
603.78	47735.23
603.94	47084.56
604.09	46773.27
604.25	46955.83
604.40	47012.00
604.56	47131.37
604.71	47798.42
604.87	47421.59
605.03	46976.89
605.18	47370.10
605.34	47325.63
605.49	47166.48
605.65	47243.71
605.80	46958.17
605.96	46618.79
606.12	47100.94
606.27	47367.76
606.43	46916.04
606.58	47065.83
606.74	47138.39
606.89	47365.42
607.05	47351.38
607.20	47283.50
607.36	46899.65
607.51	46920.72
607.67	46967.53
607.82	47119.66
607.98	47154.77
608.13	46939.44
608.29	46679.64
608.44	47004.98
608.60	46651.56
608.75	47281.16
608.91	47037.75
609.06	46483.04
609.22	47086.90
609.37	46653.90
609.53	47133.71
609.68	47189.88
609.84	46696.03
609.99	46653.90
610.15	46550.91
610.30	46749.86
610.46	46747.52
610.61	46700.71
610.76	46885.61
610.92	46726.46
611.07	46607.09
611.23	46712.41
611.38	46674.96
611.54	46965.19
611.69	46693.69
611.84	46595.38
612.00	46745.18
612.15	46717.09
612.31	46944.12
612.46	46080.47
612.62	46351.97
612.77	46873.91
612.92	46841.14
613.08	46398.78
613.23	46494.74
613.39	46518.15
613.54	46246.65
613.69	46536.87
613.85	46373.03
614.00	46728.80
614.15	46630.49
614.31	46237.28
614.46	46195.15
614.62	46506.44
614.77	46138.98
614.92	46209.20
615.08	46396.44
615.23	46476.02
615.38	46387.08
615.54	45933.01
615.69	46288.77
615.84	46256.01
616.00	46625.81
616.15	46087.49
616.30	46244.30
616.46	46192.81
616.61	46124.94
616.76	46340.27
616.92	45979.82
617.07	46129.62
617.22	45979.82
617.37	45640.45
617.53	46043.02
617.68	46150.68
617.83	46021.95
617.99	46178.77
618.14	46192.81
618.29	45846.41
618.45	45961.10
618.60	46085.15
618.75	45979.82
618.90	45879.18
619.06	45909.61
619.21	45893.22
619.36	45998.55
619.51	45621.72
619.67	45710.66
619.82	45794.92
619.97	45909.61
620.12	45801.94
620.28	45848.75
620.43	45923.65
620.58	45745.77
620.73	45202.77
620.89	46211.54
621.04	45703.64
621.19	45635.77
621.34	45464.91
621.49	45502.35
621.65	45530.44
621.80	45790.24
621.95	45633.42
622.10	45628.74
622.25	45666.19
622.41	45504.70
622.56	45647.47
622.71	45909.61
622.86	45378.31
623.01	45488.31
623.16	45137.23
623.32	45846.41
623.47	45235.53
623.62	45301.07
623.77	45240.21
623.92	45324.47
624.07	45193.40
624.23	45429.80
624.38	44886.79
624.53	45329.16
624.68	45048.29
624.83	45214.47
624.98	44781.47
625.13	44428.05
625.29	45390.01
625.44	45179.36
625.59	44884.45
625.74	44914.88
625.89	44397.62
626.04	45052.97
626.19	44968.71
626.34	44566.14
626.49	44851.69
626.65	44828.28
626.80	44856.37
626.95	44552.10
627.10	44395.28
627.25	44619.97
627.40	44856.37
627.55	44847.00
627.70	44467.84
627.85	44917.22
628.00	44760.40
628.15	44816.58
628.30	44376.56
628.45	44067.61
628.60	44584.86
628.76	44868.07
628.91	44519.33
629.06	44137.82
629.21	44423.37
629.36	43576.09
629.51	44184.63
629.66	44615.29
629.81	44371.88
629.96	44491.24
630.11	44423.37
630.26	43941.22
630.41	44051.22
630.56	43917.81
630.71	44151.87
630.86	44196.34
631.01	44247.83
631.16	43601.84
631.31	43990.37
631.46	43782.06
631.61	43976.33
631.76	44161.23
631.91	43770.36
632.06	44215.06
632.21	44184.63
632.36	44144.84
632.51	43494.18
632.66	44044.20
632.81	43618.22
632.96	44086.33
633.10	43679.08
633.25	43978.67
633.40	43847.60
633.55	44163.57
633.70	43936.54
633.85	43435.66
634.00	43419.28
634.15	43318.64
634.30	43833.55
634.45	43358.42
634.60	43646.31
634.75	43597.16
634.90	43714.19
635.05	43992.71
635.19	43370.13
635.34	43655.67
635.49	42990.96
635.64	43426.30
635.79	43856.96
635.94	43339.70
636.09	43154.80
636.24	43381.83
636.39	43363.11
636.53	43072.88
636.68	42684.35
636.83	42813.08
636.98	43150.12
637.13	42607.11
637.28	42726.48
637.43	43452.05
637.57	43281.19
637.72	43157.14
637.87	42941.81
638.02	43030.75
638.17	43217.99
638.32	42522.85
638.46	42375.40
638.61	42616.47
638.76	42700.73
638.91	42513.49
639.06	42656.26
639.20	42824.78
639.35	42398.80
639.50	42492.43
639.65	42550.94
639.80	42782.65
639.94	42923.08
640.09	42859.89
640.24	42714.78
640.39	42216.24
640.54	42162.41
640.68	42733.50
640.83	42646.90
640.98	42707.76
641.13	41787.92
641.27	42466.68
641.42	42302.84
641.57	42359.02
641.72	42321.57
641.86	42478.38
642.01	41888.57
642.16	42611.79
642.31	41727.07
642.45	42337.95
642.60	42167.09
642.75	42106.24
642.90	42202.20
643.04	42373.06
643.19	41750.48
643.34	42141.35
643.48	42054.75
643.63	41794.95
643.78	42153.05
643.93	42422.21
644.07	42007.94
644.22	41851.12
644.37	42103.90
644.51	41940.06
644.66	41780.90
644.81	42068.79
644.95	42136.66
645.10	41844.10
645.25	42071.13
645.39	41359.61
645.54	41696.64
645.69	41474.29
645.83	41249.60
645.98	41691.96
646.13	41317.48
646.27	41277.69
646.42	41366.63
646.57	41467.27
646.71	41834.74
646.86	41565.57
647.00	41787.92
647.15	41537.49
647.30	41556.21
647.44	41287.05
647.59	41212.15
647.74	41247.26
647.88	41471.95
648.03	41706.01
648.17	41626.43
648.32	41216.83
648.47	41855.80
648.61	41392.37
648.76	41240.24
648.90	41048.32
649.05	41261.30
649.20	41195.77
649.34	41111.51
649.49	40865.75
649.63	41291.73
649.78	41202.79
649.92	41041.29
650.07	41715.37
650.21	41027.25
650.36	40914.90
650.51	41139.60
650.65	40837.67
650.80	40966.40
650.94	41378.33
651.09	40954.69
651.23	40437.44
651.38	40364.88
651.52	40135.51
651.67	41017.89
651.81	40587.23
651.96	41071.72
652.10	40226.79
652.25	40142.53
652.39	40725.32
652.54	40629.36
652.68	40371.90
652.83	40390.62
652.97	40648.08
653.12	40722.98
653.26	40109.76
653.41	40671.49
653.55	40271.26
653.70	40676.17
653.84	40531.06
653.99	40657.45
654.13	40268.92
654.27	40341.47
654.42	40437.44
654.56	39943.58
654.71	40371.90
654.85	40985.12
655.00	40182.32
655.14	40313.39
655.29	40517.01
655.43	40474.88
655.57	40224.45
655.72	39597.18
655.86	40264.24
656.01	39966.99
656.15	39639.31
656.30	39742.30
656.44	39997.41
656.58	40121.46
656.73	39913.16
656.87	39761.02
657.01	39573.78
657.16	39966.99
657.30	40013.80
657.45	39608.89
657.59	40051.25
657.73	39398.24
657.88	39473.13
658.02	39934.22
658.16	39590.16
658.31	39473.13
658.45	39449.73
658.60	39356.11
658.74	39786.77
658.88	39716.55
659.03	39304.62
659.17	39423.98
659.31	39189.93
659.46	39192.27
659.60	39000.35
659.74	39133.76
659.89	38815.44
660.03	38782.68
660.17	39173.55
660.32	38998.01
660.46	39047.16
660.60	38836.51
660.74	38508.83
660.89	38794.38
661.03	38415.21
661.17	38335.63
661.32	38424.57
661.46	38415.21
661.60	38649.27
661.74	38195.20
661.89	38686.71
662.03	38611.82
662.17	38059.45
662.31	38557.99
662.46	38089.88
662.60	37762.20
662.74	37996.26
662.88	38031.36
663.03	37745.82
663.17	37654.54
663.31	37598.37
663.45	37942.42
663.60	38195.20
663.74	37607.73
663.88	37801.99
664.02	37301.12
664.17	38181.16
664.31	37612.41
664.45	37457.93
664.59	37200.47
664.73	37376.01
664.88	37624.11
665.02	37624.11
665.16	37064.72
665.30	37336.23
665.44	37174.73
665.59	36854.08
665.73	36905.57
665.87	36320.43
666.01	36493.63
666.15	36615.34
666.29	36535.76
666.44	36783.86
666.58	36390.65
666.72	36865.78
666.86	36304.05
667.00	36505.34
667.14	36381.29
667.28	36304.05
667.43	36271.28
667.57	36552.15
667.71	36643.43
667.85	36605.98
667.99	36205.75
668.13	35999.78
668.27	36336.82
668.41	35763.39
668.56	35873.39
668.70	35857.01
668.84	35515.29
668.98	35707.21
669.12	35693.17
669.26	35697.85
669.40	35676.79
669.54	36002.12
669.68	35674.45
669.82	35424.01
669.96	34712.49
670.10	34920.79
670.25	35206.34
670.39	35042.50
670.53	35463.80
670.67	35206.34
670.81	35091.65
670.95	34796.74
671.09	34845.90
671.23	34487.79
671.37	34934.84
671.51	34562.69
671.65	34586.10
671.79	34401.19
671.93	34487.79
672.07	34431.62
672.21	34148.42
672.35	34199.91
672.49	34052.45
672.63	33975.22
672.77	33809.04
672.91	34052.45
673.05	33874.57
673.19	34078.20
673.33	33479.02
673.47	33612.43
673.61	33467.32
673.75	33097.52
673.89	33317.53
674.03	33469.66
674.17	33184.12
674.31	33170.07
674.45	32924.32
674.59	32879.85
674.73	33034.32
674.87	32877.51
675.01	32690.26
675.15	32486.64
675.29	32638.77
675.43	32641.11
675.56	32776.86
675.70	32226.84
675.84	32240.88
675.98	31573.83
676.12	32067.68
676.26	32383.65
676.40	32044.27
676.54	31894.48
676.68	31498.93
676.82	31494.25
676.96	31833.63
677.10	31515.31
677.23	31662.77
677.37	31686.17
677.51	31037.84
677.65	30967.63
677.79	31470.84
677.93	31065.93
678.07	30838.90
678.21	30902.09
678.34	30323.98
678.48	30118.01
678.62	30464.41
678.76	30558.03
678.90	30223.34
679.04	30370.79
679.18	30108.65
679.31	29996.31
679.45	30094.61
679.59	30068.86
679.73	29797.36
679.87	29659.27
680.00	29434.58
680.14	29530.54
680.28	29640.54
680.42	29500.11
680.56	28933.70
680.70	28907.96
680.83	28811.99
680.97	28828.38
681.11	28804.97
681.25	29006.26
681.39	28690.29
681.52	28439.85
681.66	28203.46
681.80	28034.94
681.94	27618.32
682.07	27810.25
682.21	27814.93
682.35	28037.28
682.49	27850.03
682.62	27985.79
682.76	27477.89
682.90	27534.06
683.04	27545.76
683.17	27154.90
683.31	27190.00
683.45	27424.06
683.59	26995.74
683.72	26593.17
683.86	26951.27
684.00	26869.35
684.13	26984.04
684.27	26410.60
684.41	26403.58
684.55	26565.08
684.68	26588.49
684.82	25865.26
684.96	26096.97
685.09	26064.21
685.23	25998.67
685.37	26064.21
685.50	26232.72
685.64	25937.82
685.78	25722.49
685.91	25476.73
686.05	25219.27
686.19	24807.34
686.32	25589.08
686.46	24716.06
686.60	24547.54
686.73	24694.99
686.87	24814.36
687.01	25029.69
687.14	24725.42
687.28	24828.40
687.42	24542.86
687.55	24364.98
687.69	24334.55
687.82	24095.82
687.96	24147.31
688.10	24325.19
688.23	24016.24
688.37	24151.99
688.50	24147.31
688.64	24252.63
688.78	23915.59
688.91	23393.65
689.05	23737.71
689.18	23164.28
689.32	23051.94
689.46	22703.20
689.59	22911.50
689.73	23459.19
689.86	23131.51
690.00	23274.29
690.13	23007.47
690.27	22967.68
690.41	22698.52
690.54	22492.55
690.68	22270.20
690.81	22185.94
690.95	22132.11
691.08	21947.20
691.22	21986.99
691.35	21884.01
691.49	22087.64
691.62	21766.98
691.76	21633.57
691.89	21186.53
692.03	20863.54
692.16	20814.38
692.30	21205.25
692.43	21151.42
692.57	20837.79
692.70	20940.77
692.84	20699.70
692.97	20622.46
693.11	20505.43
693.24	20526.50
693.38	20613.10
693.51	20259.68
693.65	20332.23
693.78	20119.24
693.92	20044.35
694.05	19803.27
694.19	20025.62
694.32	20128.61
694.45	20219.89
694.59	19831.36
694.72	20081.80
694.86	19623.05
694.99	19295.38
695.13	19316.44
695.26	19124.52
695.39	19417.08
695.53	18986.43
695.66	19358.57
695.80	19087.07
695.93	18902.17
696.07	18649.39
696.20	18473.85
696.33	18710.24
696.47	18272.56
696.60	18588.53
696.73	18090.00
696.87	18710.24
697.00	18389.59
697.14	18019.78
697.27	18188.30
697.40	17916.80
697.54	17858.29
697.67	17834.88
697.80	17696.79
697.94	17642.96
698.07	17659.34
698.21	17502.53
698.34	17570.40
698.47	17535.29
698.61	16912.71
698.74	17071.87
698.87	17125.70
699.01	16732.49
699.14	16973.56
699.27	17036.76
699.40	16915.05
699.54	16519.50
699.67	16739.51
699.80	16666.95
699.94	16353.32
700.07	16320.56
700.20	16329.92
700.34	15974.16
700.47	16292.47
700.60	16304.17
700.73	15925.00
700.87	15683.93
701.00	15789.25
701.13	15861.81
701.26	15730.74
701.40	15510.73
701.53	15419.45
701.66	15545.84
701.79	15288.38
701.93	15147.95
702.06	15042.62
702.19	15255.61
702.32	15178.37
702.46	15073.05
702.59	15049.64
702.72	15143.27
702.85	14724.31
702.99	14820.27
703.12	14623.67
703.25	14490.26
703.38	14621.33
703.51	14356.85
703.65	14375.57
703.78	14097.05
703.91	13961.30
704.04	13930.87
704.17	13961.30
704.31	14434.08
704.44	13853.63
704.57	14031.51
704.70	13710.86
704.83	13797.46
704.96	13811.50
705.10	13776.39
705.23	13392.55
>>>>>End Processed Spectral Data<<<<<
