SpectraSuite Data File
++++++++++++++++++++++++++++++++++++
Date: Fri Oct 25 10:44:28 EDT 2013
User: price-jones
Dark Spectrum Present: No
Reference Spectrum Present: No
Number of Sampled Component Spectra: 1
Spectrometers: USB2+H05261
Integration Time (usec): 100000 (USB2+H05261)
Spectra Averaged: 1 (USB2+H05261)
Boxcar Smoothing: 0 (USB2+H05261)
Correct for Electrical Dark: No (USB2+H05261)
Strobe/Lamp Enabled: No (USB2+H05261)
Correct for Detector Non-linearity: No (USB2+H05261)
Correct for Stray Light: No (USB2+H05261)
Number of Pixels in Processed Spectrum: 2048
>>>>>Begin Processed Spectral Data<<<<<
365.73	161.50
365.92	161.50
366.12	161.50
366.32	4.68
366.52	49.15
366.72	117.03
366.91	39.79
367.11	102.98
367.31	0.00
367.51	0.00
367.70	70.22
367.90	84.26
368.10	0.00
368.30	0.00
368.49	37.45
368.69	49.15
368.89	25.75
369.09	23.41
369.28	37.45
369.48	84.26
369.68	110.01
369.87	121.71
370.07	88.94
370.27	154.48
370.47	196.60
370.66	297.25
370.86	430.66
371.06	484.49
371.25	451.72
371.45	454.06
371.65	435.34
371.84	472.79
372.04	355.76
372.24	498.53
372.44	510.24
372.63	411.93
372.83	449.38
373.03	531.30
373.22	489.17
373.42	568.75
373.62	526.62
373.81	573.43
374.01	554.71
374.21	568.75
374.40	589.82
374.60	573.43
374.79	554.71
374.99	528.96
375.19	610.88
375.38	491.51
375.58	601.52
375.78	660.03
375.97	566.41
376.17	669.39
376.37	547.69
376.56	559.39
376.76	552.37
376.95	641.31
377.15	653.01
377.35	594.50
377.54	662.37
377.74	676.41
377.93	648.33
378.13	683.44
378.33	660.03
378.52	603.86
378.72	615.56
378.91	641.31
379.11	690.46
379.31	657.69
379.50	697.48
379.70	641.31
379.89	638.97
380.09	727.91
380.28	608.54
380.48	695.14
380.68	760.67
380.87	727.91
381.07	594.50
381.26	713.86
381.46	664.71
381.65	709.18
381.85	713.86
382.04	631.94
382.24	730.25
382.43	695.14
382.63	690.46
382.83	683.44
383.02	690.46
383.22	772.38
383.41	699.82
383.61	779.40
383.80	765.36
384.00	770.04
384.19	685.78
384.39	821.53
384.58	770.04
384.78	812.17
384.97	809.83
385.17	730.25
385.36	826.21
385.56	723.23
385.75	791.10
385.95	823.87
386.14	866.00
386.34	919.83
386.53	858.98
386.72	877.70
386.92	891.74
387.11	873.02
387.31	954.94
387.50	802.80
387.70	837.91
387.89	849.61
388.09	919.83
388.28	908.13
388.48	936.21
388.67	891.74
388.86	1020.47
389.06	945.58
389.25	957.28
389.45	1046.22
389.64	919.83
389.84	1015.79
390.03	1060.26
390.22	1001.75
390.42	1013.45
390.61	931.53
390.81	1057.92
391.00	987.71
391.19	1071.97
391.39	1057.92
391.58	1137.50
391.78	1011.11
391.97	992.39
392.16	1027.50
392.36	1102.39
392.55	1011.11
392.75	1008.77
392.94	1043.88
393.13	1001.75
393.33	999.41
393.52	1057.92
393.71	1104.73
393.91	1170.27
394.10	1093.03
394.29	1095.37
394.49	1107.07
394.68	1221.76
394.88	1177.29
395.07	1226.44
395.26	1231.12
395.46	1224.10
395.65	1231.12
395.84	1142.18
396.04	1296.66
396.23	1224.10
396.42	1088.35
396.62	1130.48
396.81	1160.91
397.00	1128.14
397.19	1198.35
397.39	1371.55
397.58	1320.06
397.77	1348.15
397.97	1437.09
398.16	1409.00
398.35	1420.71
398.55	1507.30
398.74	1467.52
398.93	1577.52
399.12	1530.71
399.32	1430.07
399.51	1476.88
399.70	1488.58
399.90	1500.28
400.09	1526.03
400.28	1619.65
400.47	1624.33
400.67	1673.48
400.86	1511.99
401.05	1650.08
401.24	1640.72
401.44	1645.40
401.63	1724.97
401.82	1675.82
402.01	1647.74
402.21	1781.15
402.40	1760.08
402.59	1657.10
402.78	1699.23
402.97	1647.74
403.17	1666.46
403.36	1762.42
403.55	1834.98
403.74	1884.13
403.93	1900.52
404.13	1884.13
404.32	1858.39
404.51	1830.30
404.70	1937.96
404.89	1872.43
405.09	1907.54
405.28	1912.22
405.47	1846.68
405.66	1856.04
405.85	1949.67
406.05	1947.33
406.24	2059.67
406.43	2038.61
406.62	1966.05
406.81	2050.31
407.00	1980.09
407.20	2083.08
407.39	2033.93
407.58	2040.95
407.77	2015.20
407.96	1991.80
408.15	2127.55
408.34	2181.38
408.54	2204.78
408.73	2256.28
408.92	2289.04
409.11	2279.68
409.30	2321.81
409.49	2307.77
409.68	2289.04
409.87	2195.42
410.07	2342.88
410.26	2235.21
410.45	2347.56
410.64	2504.37
410.83	2415.43
411.02	2541.82
411.21	2686.94
411.40	2532.46
411.59	2588.63
411.78	2574.59
411.98	2684.59
412.17	2605.02
412.36	2509.05
412.55	2696.30
412.74	2752.47
412.93	2729.06
413.12	2675.23
413.31	2846.09
413.50	2818.00
413.69	2860.13
413.88	2892.90
414.07	2883.54
414.26	3014.61
414.45	2839.07
414.64	2904.60
414.83	2951.42
415.02	2988.86
415.22	3077.80
415.41	3080.14
415.60	3126.96
415.79	3185.47
415.98	3220.58
416.17	3101.21
416.36	3199.51
416.55	3152.70
416.74	3218.24
416.93	3141.00
417.12	3246.32
417.31	3349.31
417.50	3335.26
417.69	3452.29
417.88	3363.35
418.07	3351.65
418.26	3499.10
418.45	3466.33
418.64	3515.48
418.83	3515.48
419.02	3475.70
419.21	3574.00
419.39	3618.47
419.58	3403.14
419.77	3524.85
419.96	3492.08
420.15	3681.66
420.34	3660.60
420.53	3716.77
420.72	3705.07
420.91	3810.39
421.10	3822.09
421.29	3763.58
421.48	3742.52
421.67	3880.61
421.86	3796.35
422.05	3712.09
422.24	3712.09
422.43	3822.09
422.61	3812.73
422.80	3957.85
422.99	3779.97
423.18	3885.29
423.37	3962.53
423.56	3822.09
423.75	3768.26
423.94	3721.45
424.13	3616.13
424.32	3847.84
424.50	3934.44
424.69	3922.74
424.88	3805.71
425.07	3969.55
425.26	3859.54
425.45	3868.91
425.64	3894.65
425.83	3932.10
426.01	4077.21
426.20	3967.21
426.39	4025.72
426.58	3995.29
426.77	3794.01
426.96	3794.01
427.15	3974.23
427.33	3976.57
427.52	3976.57
427.71	4093.60
427.90	4257.43
428.09	4180.20
428.28	4025.72
428.46	4091.26
428.65	4177.86
428.84	4168.49
429.03	4177.86
429.22	4102.96
429.40	4222.33
429.59	4154.45
429.78	3934.44
429.97	3974.23
430.16	4109.98
430.34	3990.61
430.53	4318.29
430.72	4308.93
430.91	4159.13
431.10	4081.89
431.28	4489.15
431.47	4564.04
431.66	4636.60
431.85	4486.81
432.03	4589.79
432.22	4709.16
432.41	4500.85
432.60	4655.33
432.79	4533.62
432.97	4627.24
433.16	4704.48
433.35	4720.86
433.54	4819.16
433.72	4683.41
433.91	4571.07
434.10	4699.80
434.28	4772.35
434.47	4741.93
434.66	4994.70
434.85	4896.40
435.03	4844.91
435.22	5064.92
435.41	5071.94
435.59	4978.32
435.78	5034.49
435.97	5088.32
436.16	5064.92
436.34	5210.03
436.53	5137.48
436.72	5163.22
436.90	4905.76
437.09	5228.76
437.28	5085.98
437.46	5317.70
437.65	5238.12
437.84	5231.10
438.02	5057.90
438.21	5158.54
438.40	5160.88
438.58	5341.10
438.77	5198.33
438.96	5369.19
439.14	5434.72
439.33	5479.19
439.52	5582.18
439.70	5696.86
439.89	5687.50
440.08	5694.52
440.26	5621.97
440.45	5706.23
440.63	5654.73
440.82	5926.24
441.01	5680.48
441.19	5863.04
441.38	6005.81
441.57	6047.94
441.75	6040.92
441.94	6235.19
442.12	6118.16
442.31	6211.78
442.50	6317.11
442.68	6188.38
442.87	6190.72
443.05	6190.72
443.24	6457.54
443.43	6394.34
443.61	6338.17
443.80	6523.07
443.98	6193.06
444.17	6157.95
444.35	6293.70
444.54	6523.07
444.73	6513.71
444.91	6190.72
445.10	6354.55
445.28	6518.39
445.47	6307.74
445.65	6356.90
445.84	6373.28
446.02	6593.29
446.21	6574.56
446.39	6644.78
446.58	6679.89
446.77	6569.88
446.95	6546.48
447.14	6754.79
447.32	6612.01
447.51	6693.93
447.69	6579.25
447.88	6640.10
448.06	6752.45
448.25	6502.01
448.43	6654.14
448.62	6743.08
448.80	6656.48
448.99	6668.19
449.17	6904.58
449.36	6796.92
449.54	6981.82
449.73	6953.73
449.91	6946.71
450.10	7194.81
450.28	7084.80
450.46	7119.91
450.65	7173.74
450.83	7112.89
451.02	6993.52
451.20	7222.89
451.39	7222.89
451.57	7126.93
451.76	7152.68
451.94	7073.10
452.13	7049.69
452.31	7192.47
452.49	6974.80
452.68	7124.59
452.86	7227.57
453.05	7328.22
453.23	7297.79
453.42	7346.94
453.60	7262.68
453.78	7499.08
453.97	7293.11
454.15	7433.54
454.34	7360.98
454.52	7564.61
454.70	7424.18
454.89	7417.16
455.07	7440.56
455.26	7445.24
455.44	7541.21
455.62	7676.96
455.81	7686.32
455.99	7702.70
456.17	7744.83
456.36	7906.33
456.54	7803.35
456.73	7955.48
456.91	8056.12
457.09	7962.50
457.28	7997.61
457.46	7988.25
457.64	8133.36
457.83	8023.36
458.01	7922.71
458.19	7999.95
458.38	7934.42
458.56	8210.60
458.74	7981.23
458.93	8351.03
459.11	8248.05
459.29	8229.32
459.48	8297.20
459.66	8191.88
459.84	8486.78
460.03	8617.85
460.21	8388.48
460.39	8512.53
460.57	8468.06
460.76	8540.61
460.94	8662.32
461.12	8608.49
461.31	8477.42
461.49	8571.04
461.67	8489.12
461.85	8877.65
462.04	8760.63
462.22	8922.12
462.40	8802.75
462.59	8805.10
462.77	8901.06
462.95	8863.61
463.13	8805.10
463.32	8678.71
463.50	9060.21
463.68	8887.01
463.86	8999.36
464.05	8765.31
464.23	8842.54
464.41	8973.61
464.59	8891.70
464.78	9165.54
464.96	8924.46
465.14	8978.30
465.32	9118.73
465.50	9114.05
465.69	9205.33
465.87	8997.02
466.05	9219.37
466.23	9085.96
466.41	9116.39
466.60	9320.01
466.78	9034.47
466.96	9116.39
467.14	9343.42
467.32	9547.05
467.51	9247.46
467.69	9172.56
467.87	9458.10
468.05	9521.30
468.23	9345.76
468.41	9277.88
468.60	9345.76
468.78	9474.49
468.96	9404.27
469.14	9643.01
469.32	9748.33
469.50	9509.60
469.69	9689.82
469.87	10045.58
470.05	9811.53
470.23	9825.57
470.41	9806.84
470.59	9982.38
470.77	9797.48
470.95	9827.91
471.14	9989.41
471.32	9675.77
471.50	10293.68
471.68	10368.57
471.86	10209.42
472.04	10218.78
472.22	10794.55
472.40	10267.93
472.58	10324.10
472.77	10230.48
472.95	10597.95
473.13	10757.10
473.31	10274.95
473.49	10546.45
473.67	10588.58
473.85	10476.24
474.03	10857.75
474.21	10885.83
474.39	11009.88
474.57	11110.52
474.75	11030.94
474.93	10995.84
475.12	11070.73
475.30	11094.14
475.48	10904.56
475.66	11218.19
475.84	11129.25
476.02	11342.24
476.20	11342.24
476.38	11538.84
476.56	11751.83
476.74	11817.36
476.92	11571.61
477.10	11779.92
477.28	12236.32
477.46	11971.84
477.64	11896.94
477.82	12123.98
478.00	12432.93
478.18	12444.63
478.36	12390.80
478.54	12723.15
478.72	12559.31
478.90	12659.96
479.08	12786.35
479.26	13090.62
479.44	12980.61
479.62	13228.71
479.80	13172.54
479.98	13245.09
480.16	13579.79
480.34	13591.49
480.52	13666.39
480.70	13537.66
480.88	13694.47
481.06	13642.98
481.24	14045.55
481.41	13813.84
481.59	14600.26
481.77	14111.09
481.95	14434.08
482.13	14408.34
482.31	14574.52
482.49	14651.75
482.67	14539.41
482.85	15007.52
483.03	15180.71
483.21	15077.73
483.39	15412.43
483.57	14974.75
483.74	15424.13
483.92	15421.79
484.10	15393.70
484.28	15737.76
484.46	15976.50
484.64	15939.05
484.82	15789.25
485.00	16081.82
485.18	16163.74
485.35	16547.59
485.53	16119.27
485.71	16159.06
485.89	16266.72
486.07	16528.86
486.25	16613.12
486.43	16765.26
486.61	16798.02
486.78	16819.09
486.96	17039.10
487.14	17811.48
487.32	17640.62
487.50	17621.89
487.68	17912.12
487.85	18321.71
488.03	18326.39
488.21	18518.32
488.39	18618.96
488.57	18757.05
488.75	18728.97
488.92	18761.73
489.10	19389.00
489.28	19246.23
489.46	19541.13
489.64	19501.34
489.81	19906.26
489.99	19878.17
490.17	20152.01
490.35	20109.88
490.53	20100.52
490.70	20379.04
490.88	20526.50
491.06	20676.29
491.24	20500.75
491.41	20304.15
491.59	20725.44
491.77	20938.43
491.95	21020.35
492.13	21329.30
492.30	21231.00
492.48	21525.91
492.66	21869.97
492.84	21429.94
493.01	21750.60
493.19	21919.12
493.37	22001.04
493.54	21989.33
493.72	22499.57
493.90	22537.02
494.08	22731.28
494.25	22831.93
494.43	22946.61
494.61	23314.08
494.79	23372.59
494.96	23108.11
495.14	23241.52
495.32	23487.28
495.49	23522.38
495.67	23768.14
495.85	23896.87
496.02	23779.84
496.20	24168.37
496.38	24325.19
496.55	24680.95
496.73	24872.87
496.91	24673.93
497.09	24833.08
497.26	24788.61
497.44	25050.75
497.62	24844.79
497.79	25022.67
497.97	24992.24
498.14	24987.56
498.32	24933.73
498.50	25678.02
498.67	26190.59
498.85	25715.47
499.03	25759.94
499.20	26225.70
499.38	26103.99
499.56	26024.42
499.73	26040.80
499.91	26375.50
500.08	26331.03
500.26	26005.69
500.44	26441.03
500.61	26438.69
500.79	26658.70
500.97	26904.46
501.14	26745.30
501.32	26867.01
501.49	27157.24
501.67	27026.17
501.84	27393.63
502.02	27250.86
502.20	27412.35
502.37	27608.96
502.55	27491.93
502.72	27363.20
502.90	27718.96
503.07	27962.38
503.25	28102.81
503.43	27962.38
503.60	27901.53
503.78	27990.47
503.95	28231.54
504.13	28491.34
504.30	28528.79
504.48	28489.00
504.65	28559.22
504.83	28746.46
505.01	29151.37
505.18	29046.05
505.36	29132.65
505.53	29254.36
505.71	29439.26
505.88	29600.76
506.06	29289.46
506.23	29600.76
506.41	29244.99
506.58	29598.41
506.76	29741.19
506.93	30064.18
507.11	29790.34
507.28	29841.83
507.46	29804.38
507.63	29818.42
507.81	30080.56
507.98	29713.10
508.16	30389.52
508.33	30663.36
508.50	30312.28
508.68	30721.87
508.85	30815.49
509.03	30824.86
509.20	30787.41
509.38	31264.88
509.55	30724.21
509.73	31115.08
509.90	31028.48
510.08	31009.76
510.25	31276.58
510.42	31611.28
510.60	31894.48
510.77	31667.45
510.95	31782.13
511.12	31683.83
511.30	32058.32
511.47	32240.88
511.64	32470.25
511.82	32334.50
511.99	32161.30
512.17	32086.40
512.34	32233.86
512.51	32669.20
512.69	32524.08
512.86	32669.20
513.04	32844.74
513.21	33015.60
513.38	32629.41
513.56	32589.62
513.73	32598.98
513.90	32910.27
514.08	32943.04
514.25	33048.36
514.43	32912.61
514.60	32727.71
514.77	32809.63
514.95	33371.36
515.12	33764.57
515.29	33317.53
515.47	33642.86
515.64	34260.76
515.81	33876.91
515.99	33729.46
516.16	33411.15
516.33	33282.42
516.51	33525.83
516.68	33139.65
516.85	33017.94
517.03	33333.91
517.20	33762.23
517.37	34059.48
517.54	34309.91
517.72	33944.79
517.89	33846.49
518.06	34146.08
518.24	34113.31
518.41	33897.98
518.58	34387.15
518.75	34672.70
518.93	34885.68
519.10	34742.91
519.27	35201.66
519.45	35058.88
519.62	35129.10
519.79	35061.22
519.96	35150.17
520.14	35225.06
520.31	35220.38
520.48	35349.11
520.65	35255.49
520.83	35646.36
521.00	35501.25
521.17	35852.33
521.34	35810.20
521.52	35852.33
521.69	36133.19
521.86	36238.51
522.03	36264.26
522.20	36336.82
522.38	36219.79
522.55	36545.12
522.72	35962.33
522.89	36318.09
523.07	36561.51
523.24	36163.62
523.41	36959.40
523.58	36388.31
523.75	37474.32
523.92	37120.90
524.10	37184.09
524.27	37462.61
524.44	37156.00
524.61	37504.74
524.78	37455.59
524.96	37610.07
525.13	37642.84
525.30	37776.25
525.47	37734.12
525.64	37439.21
525.81	37734.12
525.98	37654.54
526.16	37266.01
526.33	37432.19
526.50	37581.98
526.67	37383.04
526.84	37457.93
527.01	37352.61
527.18	37542.19
527.36	38043.07
527.53	38232.65
527.70	38337.98
527.87	38054.77
528.04	38054.77
528.21	38239.67
528.38	38511.17
528.55	38649.27
528.72	38576.71
528.89	39051.84
529.07	38244.35
529.24	38728.84
529.41	38625.86
529.58	38623.52
529.75	38810.76
529.92	38855.23
530.09	39171.21
530.26	38658.63
530.43	39082.27
530.60	38817.78
530.77	38965.24
530.94	39538.67
531.11	39082.27
531.28	39749.32
531.46	39580.80
531.63	39618.25
531.80	39033.11
531.97	39606.55
532.14	39372.49
532.31	38979.28
532.48	39445.05
532.65	39552.71
532.82	39636.97
532.99	39482.50
533.16	39552.71
533.33	40098.06
533.50	40041.88
533.67	39966.99
533.84	39866.34
534.01	40046.57
534.18	39974.01
534.35	40474.88
534.52	40098.06
534.69	40297.00
534.86	40397.65
535.03	40348.50
535.20	40627.02
535.37	40634.04
535.54	40935.97
535.71	40126.14
535.88	40896.18
536.05	40559.14
536.22	40364.88
536.38	40940.65
536.55	40528.72
536.72	40741.71
536.89	40313.39
537.06	41013.21
537.23	41034.27
537.40	40774.47
537.57	40844.69
537.74	40818.94
537.91	41413.44
538.08	41069.38
538.25	41050.66
538.42	40741.71
538.59	41481.31
538.75	40884.48
538.92	41336.20
539.09	41434.50
539.26	41130.23
539.43	41263.64
539.60	41483.66
539.77	41188.75
539.94	41385.35
540.11	40837.67
540.28	41214.49
540.44	41593.66
540.61	41495.36
540.78	41345.56
540.95	41247.26
541.12	41600.68
541.29	41640.47
541.46	41769.20
541.62	41958.78
541.79	42005.59
541.96	41701.32
542.13	41923.68
542.30	41783.24
542.47	41890.91
542.63	41731.75
542.80	42171.77
542.97	42567.32
543.14	42471.36
543.31	42272.42
543.48	42508.81
543.64	43002.66
543.81	42946.49
543.98	42878.61
544.15	42351.99
544.32	42754.57
544.48	42976.92
544.65	43000.32
544.82	43023.73
544.99	42789.67
545.16	42366.04
545.32	42618.81
545.49	43089.26
545.66	43309.27
545.83	43243.74
546.00	43379.49
546.16	43220.33
546.33	42974.58
546.50	42777.97
546.67	43344.38
546.83	42621.16
547.00	43234.38
547.17	43140.75
547.34	43400.55
547.50	43288.21
547.67	43681.42
547.84	43185.22
548.00	43622.90
548.17	43819.51
548.34	43470.77
548.51	43580.78
548.67	43866.32
548.84	43995.05
549.01	43569.07
549.18	43702.48
549.34	43730.57
549.51	43957.60
549.68	43201.61
549.84	43973.98
550.01	44137.82
550.18	43878.02
550.34	43920.15
550.51	43765.68
550.68	43835.89
550.84	43950.58
551.01	43770.36
551.18	44425.71
551.34	44016.11
551.51	43861.64
551.68	43885.04
551.84	43948.24
552.01	44121.44
552.18	44081.65
552.34	43934.20
552.51	44002.07
552.68	44135.48
552.84	44772.11
553.01	44547.42
553.18	44367.20
553.34	44470.18
553.51	44343.79
553.67	44648.06
553.84	45106.80
554.01	44722.96
554.17	44907.86
554.34	44734.66
554.51	44493.58
554.67	44751.04
554.84	44704.23
555.00	44577.84
555.17	44671.46
555.33	44933.60
555.50	44294.64
555.67	44692.53
555.83	44748.70
556.00	45015.52
556.16	45581.93
556.33	44893.82
556.50	44776.79
556.66	45111.49
556.83	44839.98
556.99	45338.52
557.16	45062.33
557.32	45123.19
557.49	45064.67
557.65	44849.35
557.82	44893.82
557.98	44729.98
558.15	45081.06
558.32	44985.10
558.48	45069.36
558.65	44814.24
558.81	44968.71
558.98	44872.75
559.14	45160.64
559.31	45059.99
559.47	45338.52
559.64	45432.14
559.80	45471.93
559.97	45511.72
560.13	45015.52
560.30	45125.53
560.46	45296.39
560.63	45617.04
560.79	45680.24
560.96	45748.11
561.12	45270.64
561.29	45467.25
561.45	45193.40
561.61	45137.23
561.78	45546.82
561.94	45378.31
562.11	45883.86
562.27	45565.55
562.44	45464.91
562.60	45511.72
562.77	45659.17
562.93	45284.68
563.10	45673.21
563.26	45071.70
563.42	45705.98
563.59	45291.71
563.75	45385.33
563.92	45691.94
564.08	45687.26
564.24	45832.37
564.41	45628.74
564.57	45296.39
564.74	45591.30
564.90	45745.77
565.07	45998.55
565.23	45542.14
565.39	45404.05
565.56	45893.22
565.72	45682.58
565.88	45834.71
566.05	45390.01
566.21	45577.25
566.38	45925.99
566.54	45553.85
566.70	46014.93
566.87	45766.84
567.03	46061.74
567.19	46206.86
567.36	45806.62
567.52	45727.05
567.68	46092.17
567.85	45832.37
568.01	45673.21
568.17	45542.14
568.34	45818.33
568.50	45535.12
568.66	46031.32
568.83	45872.16
568.99	45734.07
569.15	45727.05
569.32	45425.12
569.48	45614.70
569.64	46307.50
569.81	46045.36
569.97	46031.32
570.13	45996.21
570.30	45429.80
570.46	45378.31
570.62	45467.25
570.78	45200.43
570.95	45610.02
571.11	45600.66
571.27	45621.72
571.43	45930.67
571.60	45925.99
571.76	45933.01
571.92	45741.09
572.09	46305.16
572.25	46263.03
572.41	45879.18
572.57	45979.82
572.74	46719.43
572.90	45972.80
573.06	45949.40
573.22	46176.43
573.38	46003.23
573.55	45925.99
573.71	45624.06
573.87	46244.30
574.03	46038.34
574.20	45858.12
574.36	45663.85
574.52	45853.44
574.68	45755.13
574.84	46314.52
575.01	45811.31
575.17	46026.63
575.33	45897.91
575.49	45844.07
575.65	46146.00
575.82	46410.48
575.98	46216.22
576.14	46059.40
576.30	46153.02
576.46	45911.95
576.62	45752.79
576.79	45968.12
576.95	45787.90
577.11	45741.09
577.27	46124.94
577.43	46094.51
577.59	46174.09
577.75	45944.72
577.92	45759.81
578.08	45633.42
578.24	45904.93
578.40	46253.67
578.56	46061.74
578.72	45776.20
578.88	46248.99
579.04	46649.22
579.21	46108.55
579.37	46059.40
579.53	46337.93
579.69	46117.92
579.85	45986.85
580.01	45975.14
580.17	46211.54
580.33	46337.93
580.49	46450.27
580.65	46471.34
580.82	46220.90
580.98	45982.16
581.14	46473.68
581.30	46480.70
581.46	46466.66
581.62	46476.02
581.78	46417.50
581.94	46377.72
582.10	46272.39
582.26	46536.87
582.42	45972.80
582.58	46248.99
582.74	46391.76
582.90	45874.50
583.06	46511.13
583.22	46075.79
583.38	46574.32
583.54	46375.37
583.70	46508.79
583.86	46244.30
584.02	45876.84
584.18	45874.50
584.34	46328.56
584.50	46373.03
584.66	46258.35
584.82	45677.90
584.98	46443.25
585.14	46218.56
585.30	46253.67
585.46	46417.50
585.62	45832.37
585.78	45888.54
585.94	45815.99
586.10	46094.51
586.26	46075.79
586.42	46358.99
586.58	46478.36
586.74	46370.69
586.90	45516.40
587.06	46237.28
587.22	46291.12
587.38	45525.76
587.54	46387.08
587.70	46302.82
587.86	46471.34
588.02	46459.63
588.18	46581.34
588.34	46012.59
588.49	45947.06
588.65	45453.20
588.81	45558.53
588.97	45804.28
589.13	45841.73
589.29	46122.60
589.45	45968.12
589.61	46061.74
589.77	46508.79
589.93	46040.68
590.08	46483.04
590.24	46506.44
590.40	46220.90
590.56	46440.91
590.72	46562.62
590.88	46422.19
591.04	46333.24
591.20	46314.52
591.35	46401.12
591.51	46443.25
591.67	46216.22
591.83	46038.34
591.99	45998.55
592.15	46274.73
592.31	46244.30
592.46	46075.79
592.62	46185.79
592.78	46719.43
592.94	46972.21
593.10	46705.39
593.26	46192.81
593.41	46358.99
593.57	46092.17
593.73	46398.78
593.89	46344.95
594.05	46508.79
594.20	46183.45
594.36	46473.68
594.52	46260.69
594.68	46443.25
594.84	46026.63
594.99	46553.26
595.15	46389.42
595.31	46452.61
595.47	46225.58
595.62	46543.89
595.78	46415.16
595.94	47042.43
596.10	46607.09
596.25	46358.99
596.41	46485.38
596.57	46307.50
596.73	46824.76
596.88	46344.95
597.04	46323.88
597.20	46440.91
597.36	46431.55
597.51	46579.00
597.67	46536.87
597.83	46735.82
597.99	46415.16
598.14	46808.37
598.30	46337.93
598.46	46403.46
598.61	46384.74
598.77	46181.11
598.93	46485.38
599.09	46071.10
599.24	47129.03
599.40	46810.71
599.56	46710.07
599.71	46583.68
599.87	46955.83
600.03	46415.16
600.18	46574.32
600.34	46536.87
600.50	46307.50
600.65	46171.75
600.81	46670.28
600.97	46848.16
601.12	46806.03
601.28	46422.19
601.44	46703.05
601.59	46574.32
601.75	46164.73
601.91	46539.21
602.06	46106.21
602.22	46445.59
602.37	46328.56
602.53	46110.89
602.69	46773.27
602.84	46555.60
603.00	45888.54
603.16	46185.79
603.31	46438.57
603.47	46550.91
603.62	46279.41
603.78	46686.67
603.94	46202.18
604.09	46396.44
604.25	46459.63
604.40	46476.02
604.56	46824.76
604.71	46569.64
604.87	45874.50
605.03	46103.87
605.18	46216.22
605.34	46068.76
605.49	46223.24
605.65	45874.50
605.80	46513.47
605.96	46532.19
606.12	46377.72
606.27	46696.03
606.43	46454.95
606.58	46075.79
606.74	46040.68
606.89	46375.37
607.05	46436.23
607.20	46326.22
607.36	46532.19
607.51	46344.95
607.67	45858.12
607.82	46274.73
607.98	46415.16
608.13	46106.21
608.29	46141.32
608.44	45516.40
608.60	45661.51
608.75	45872.16
608.91	45769.18
609.06	45521.08
609.22	46253.67
609.37	45605.34
609.53	46087.49
609.68	46068.76
609.84	45521.08
609.99	45624.06
610.15	45736.41
610.30	45652.15
610.46	45539.80
610.61	45268.30
610.76	46169.41
610.92	45909.61
611.07	45481.29
611.23	45595.98
611.38	45851.09
611.54	46003.23
611.69	45617.04
611.84	45614.70
612.00	45827.69
612.15	45654.49
612.31	45684.92
612.46	45233.19
612.62	45598.32
612.77	45401.71
612.92	45523.42
613.08	45471.93
613.23	45275.32
613.39	45401.71
613.54	45158.30
613.69	45560.87
613.85	45322.13
614.00	45455.54
614.15	45972.80
614.31	45371.28
614.46	45724.71
614.62	45682.58
614.77	45116.17
614.92	45347.88
615.08	45216.81
615.23	44884.45
615.38	45134.89
615.54	44928.92
615.69	44968.71
615.84	44418.69
616.00	44903.18
616.15	45507.04
616.30	45280.00
616.46	45099.78
616.61	44786.15
616.76	44760.40
616.92	44484.22
617.07	44605.93
617.22	44528.69
617.37	44610.61
617.53	45071.70
617.68	44992.12
617.83	44856.37
617.99	45272.98
618.14	44664.44
618.29	45116.17
618.45	44531.03
618.60	44608.27
618.75	44313.36
618.90	44634.02
619.06	44783.81
619.21	44968.71
619.36	44954.67
619.51	44889.13
619.67	44360.17
619.82	44744.02
619.97	44708.91
620.12	44374.22
620.28	44395.28
620.43	44332.09
620.58	44287.62
620.73	44390.60
620.89	44186.97
621.04	44416.35
621.19	44278.25
621.34	44128.46
621.49	44191.65
621.65	44018.46
621.80	44002.07
621.95	43915.47
622.10	44076.97
622.25	43910.79
622.41	43753.97
622.56	43976.33
622.71	43985.69
622.86	43805.47
623.01	44222.08
623.16	43761.00
623.32	43784.40
623.47	44336.77
623.62	43913.13
623.77	43402.89
623.92	43360.76
624.07	44053.56
624.23	43363.11
624.38	43285.87
624.53	43241.40
624.68	43491.83
624.83	43955.26
624.98	43498.86
625.13	42955.85
625.29	43627.59
625.44	43885.04
625.59	43103.31
625.74	42918.40
625.89	42967.55
626.04	43131.39
626.19	43026.07
626.34	43276.51
626.49	43129.05
626.65	43093.94
626.80	43393.53
626.95	43400.55
627.10	43210.97
627.25	43309.27
627.40	43217.99
627.55	42658.60
627.70	42710.10
627.85	42820.10
628.00	42698.39
628.15	42897.34
628.30	42918.40
628.45	43196.93
628.60	42979.26
628.76	43100.97
628.91	42962.87
629.06	42979.26
629.21	42417.53
629.36	42363.70
629.51	42181.13
629.66	42483.06
629.81	42543.92
629.96	42398.80
630.11	42871.59
630.26	42555.62
630.41	43037.77
630.56	42508.81
630.71	42677.33
630.86	42249.01
631.01	42382.42
631.16	42326.25
631.31	42160.07
631.46	41902.61
631.61	42539.24
631.76	42389.44
631.91	42122.62
632.06	42394.12
632.21	42148.37
632.36	42490.09
632.51	41902.61
632.66	41823.03
632.81	41881.55
632.96	41530.47
633.10	41816.01
633.25	41757.50
633.40	42234.97
633.55	42462.00
633.70	41687.28
633.85	41509.40
634.00	41839.42
634.15	42000.91
634.30	42127.30
634.45	41858.14
634.60	41963.46
634.75	41549.19
634.90	41617.07
635.05	41972.83
635.19	41593.66
635.34	41893.25
635.49	41514.08
635.64	41811.33
635.79	41696.64
635.94	41343.22
636.09	41668.56
636.24	41633.45
636.39	41329.18
636.53	41024.91
636.68	40650.42
636.83	41364.29
636.98	41387.69
637.13	41170.02
637.28	41158.32
637.43	41460.25
637.57	41940.06
637.72	41155.98
637.87	41385.35
638.02	41420.46
638.17	41301.09
638.32	40994.48
638.46	41186.41
638.61	41099.81
638.76	40634.04
638.91	41420.46
639.06	41043.63
639.20	41179.39
639.35	41467.27
639.50	40957.03
639.65	41191.09
639.80	41284.71
639.94	40343.81
640.09	40758.09
640.24	40615.32
640.39	40378.92
640.54	40690.21
640.68	40795.54
640.83	40364.88
640.98	40299.34
641.13	40563.82
641.27	40886.82
641.42	40109.76
641.57	40102.74
641.72	40620.00
641.86	40474.88
642.01	39976.35
642.16	40055.93
642.31	39826.56
642.45	40643.40
642.60	39866.34
642.75	39964.65
642.90	40074.65
643.04	40046.57
643.19	39983.37
643.34	40315.73
643.48	39988.05
643.63	40041.88
643.78	40058.27
643.93	39990.39
644.07	39856.98
644.22	40109.76
644.37	39765.70
644.51	39669.74
644.66	40168.27
644.81	40069.97
644.95	39541.01
645.10	39875.71
645.25	40306.37
645.39	39924.86
645.54	39873.37
645.69	39742.30
645.83	39704.85
645.98	39775.06
646.13	39531.65
646.27	39505.90
646.42	39615.91
646.57	39321.00
646.71	39725.91
646.86	40060.61
647.00	40325.09
647.15	40002.10
647.30	39482.50
647.44	39442.71
647.59	39166.52
647.74	39171.21
647.88	39405.26
648.03	39503.56
648.17	39292.91
648.32	39239.08
648.47	39250.78
648.61	39103.33
648.76	39173.55
648.90	39409.94
649.05	39140.78
649.20	39122.05
649.34	39201.63
649.49	38834.17
649.63	38895.02
649.78	39033.11
649.92	39023.75
650.07	39028.43
650.21	38785.02
650.36	38864.60
650.51	38792.04
650.65	39330.36
650.80	39065.88
650.94	39138.44
651.09	39093.97
651.23	38726.50
651.38	38815.44
651.52	38492.45
651.67	38768.63
651.81	38607.14
651.96	38501.81
652.10	38143.71
652.25	38199.88
652.39	38485.43
652.54	39072.90
652.68	38817.78
652.83	38567.35
652.97	38778.00
653.12	38506.49
653.26	38099.24
653.41	38373.08
653.55	37752.84
653.70	38150.73
653.84	38040.73
653.99	38169.46
654.13	38188.18
654.27	37816.04
654.42	37982.21
654.56	37940.08
654.71	38178.82
654.85	37769.22
655.00	38209.25
655.14	38029.02
655.29	37734.12
655.43	37858.17
655.57	37333.89
655.72	37413.46
655.86	37532.83
656.01	37591.34
656.15	37202.82
656.30	36957.06
656.44	37413.46
656.58	37357.29
656.73	37125.58
656.87	37502.40
657.01	37563.26
657.16	37521.13
657.30	37336.23
657.45	37235.58
657.59	37476.66
657.73	37350.27
657.88	37687.31
658.02	37525.81
658.16	37841.78
658.31	37708.37
658.45	37493.04
658.60	37476.66
658.74	37364.31
658.88	37333.89
659.03	37277.71
659.17	37439.21
659.31	37113.87
659.46	36779.18
659.60	37289.42
659.74	37071.75
659.89	37148.98
660.03	36840.03
660.17	36818.97
660.32	36655.13
660.46	36587.25
660.60	36561.51
660.74	36423.42
660.89	36926.63
661.03	36582.57
661.17	36470.23
661.32	36261.92
661.46	36488.95
661.60	36392.99
661.74	36184.68
661.89	36423.42
662.03	36477.25
662.17	36009.14
662.31	35952.97
662.46	36500.65
662.60	36421.08
662.74	35997.44
662.88	35917.86
663.03	35606.57
663.17	35840.62
663.31	35761.05
663.45	35662.74
663.60	36009.14
663.74	36093.40
663.88	35810.20
664.02	34747.59
664.17	35644.02
664.31	35335.07
664.45	35119.74
664.59	35651.04
664.73	35206.34
664.88	35316.34
665.02	34939.52
665.16	35122.08
665.30	35180.59
665.44	35180.59
665.59	35335.07
665.73	35180.59
665.87	34913.77
666.01	34719.51
666.15	35056.54
666.29	34944.20
666.44	34548.65
666.58	34497.16
666.72	34445.66
666.86	35206.34
667.00	34864.62
667.14	34761.64
667.28	34316.93
667.43	34059.48
667.57	34422.26
667.71	34424.60
667.85	34085.22
667.99	33977.56
668.13	33916.70
668.27	34113.31
668.41	34288.85
668.56	33741.16
668.70	34284.17
668.84	34101.61
668.98	33677.97
669.12	33879.25
669.26	33724.78
669.40	33411.15
669.54	33214.54
669.68	33469.66
669.82	33212.20
669.96	33202.84
670.10	33205.18
670.25	33305.82
670.39	33050.70
670.53	32767.50
670.67	33315.19
670.81	33319.87
670.95	32730.05
671.09	32727.71
671.23	32779.20
671.37	32964.10
671.51	32947.72
671.65	32479.61
671.79	32444.51
671.93	32311.10
672.07	32594.30
672.21	32587.28
672.35	32460.89
672.49	32027.89
672.63	32343.86
672.77	32259.60
672.91	32526.42
673.05	32341.52
673.19	31885.12
673.33	31805.54
673.47	31707.24
673.61	31714.26
673.75	31838.31
673.89	31805.54
674.03	31473.18
674.17	31358.50
674.31	31599.57
674.45	31723.62
674.59	31304.67
674.73	31784.48
674.87	31470.84
675.01	31072.95
675.15	30899.75
675.29	30850.60
675.43	30775.70
675.56	30974.65
675.70	30969.97
675.84	30565.06
675.98	29975.24
676.12	30689.10
676.26	30654.00
676.40	30405.90
676.54	30321.64
676.68	30370.79
676.82	30206.95
676.96	29841.83
677.10	29783.32
677.23	29823.11
677.37	29827.79
677.51	29605.44
677.65	29525.86
677.79	29160.73
677.93	29708.42
678.07	29479.05
678.21	29139.67
678.34	28964.13
678.48	28795.61
678.62	29244.99
678.76	29029.66
678.90	28594.32
679.04	28400.06
679.18	28545.17
679.31	28137.92
679.45	28243.24
679.59	28041.96
679.73	28236.22
679.87	28027.92
680.00	28166.01
680.14	27981.10
680.28	28004.51
680.42	27793.86
680.56	27763.43
680.70	27843.01
680.83	27847.69
680.97	27363.20
681.11	27580.87
681.25	26955.95
681.39	27281.28
681.52	27414.69
681.66	27295.33
681.80	26892.76
681.94	26960.63
682.07	26981.70
682.21	26965.31
682.35	26689.13
682.49	26621.25
682.62	26277.19
682.76	26609.55
682.90	26541.68
683.04	26593.17
683.17	26204.64
683.31	25926.11
683.45	26015.05
683.59	25685.04
683.72	25874.62
683.86	26115.70
684.00	25785.68
684.13	25832.49
684.27	25443.96
684.41	25378.43
684.55	25287.15
684.68	24788.61
684.82	25317.57
684.96	24915.00
685.09	24898.62
685.23	24645.84
685.37	24388.38
685.50	24802.66
685.64	24758.19
685.78	24308.80
685.91	24196.46
686.05	24561.58
686.19	24313.48
686.32	23826.65
686.46	23517.70
686.60	23346.84
686.73	23651.11
686.87	23047.26
687.01	23452.17
687.14	22953.63
687.28	23480.25
687.42	23145.56
687.55	23199.39
687.69	23157.26
687.82	23105.77
687.96	23108.11
688.10	23075.34
688.23	22848.31
688.37	22827.24
688.50	22431.69
688.64	22377.86
688.78	22419.99
688.91	22302.96
689.05	22656.39
689.18	22539.36
689.32	22267.86
689.46	22342.75
689.59	22087.64
689.73	22270.20
689.86	22251.47
690.00	21685.06
690.13	21940.18
690.27	21865.28
690.41	21668.68
690.54	21252.06
690.68	21507.18
690.81	21589.10
690.95	21209.93
691.08	21188.87
691.22	21404.20
691.35	21453.35
691.49	21385.47
691.62	21144.40
691.76	20767.57
691.89	21371.43
692.03	20645.87
692.16	20793.32
692.30	20313.51
692.43	20224.57
692.57	20077.12
692.70	20217.55
692.84	20226.91
692.97	20250.32
693.11	20004.56
693.24	20203.50
693.38	19594.96
693.51	19906.26
693.65	20044.35
693.78	19728.38
693.92	19569.22
694.05	20077.12
694.19	19400.70
694.32	19302.40
694.45	19506.02
694.59	18998.13
694.72	19222.82
694.86	19157.28
694.99	18771.10
695.13	18750.03
695.26	18916.21
695.39	18555.77
695.53	18663.43
695.66	18848.33
695.80	18815.57
695.93	18551.09
696.07	18534.70
696.20	18515.98
696.33	18188.30
696.47	18090.00
696.60	18293.63
696.73	18232.77
696.87	17937.87
697.00	17703.81
697.14	17930.84
697.27	17532.95
697.40	17561.04
697.54	17621.89
697.67	17167.83
697.80	17336.35
697.94	17453.37
698.07	17022.72
698.21	17090.59
698.34	17067.19
698.47	17123.36
698.61	16767.60
698.74	16767.60
698.87	16685.68
699.01	16580.36
699.14	16121.61
699.27	16315.87
699.40	16304.17
699.54	16346.30
699.67	16390.77
699.80	16311.19
699.94	15936.71
700.07	16072.46
700.20	15845.43
700.34	15625.42
700.47	16081.82
700.60	15953.09
700.73	16126.29
700.87	15981.18
701.00	15555.20
701.13	15637.12
701.26	15480.30
701.40	15222.84
701.53	15337.53
701.66	15337.53
701.79	15152.63
701.93	15178.37
702.06	15328.17
702.19	15293.06
702.32	15190.08
702.46	15021.56
702.59	15051.99
702.72	14717.29
702.85	14923.26
702.99	14789.85
703.12	14778.14
703.25	14656.43
703.38	14525.36
703.51	14277.27
703.65	14604.94
703.78	14122.79
703.91	14518.34
704.04	14183.65
704.17	14150.88
704.31	14146.20
704.44	14054.92
704.57	14293.65
704.70	13933.21
704.83	13820.86
704.96	13741.29
705.10	13701.50
705.23	13650.00
>>>>>End Processed Spectral Data<<<<<
