SpectraSuite Data File
++++++++++++++++++++++++++++++++++++
Date: Fri Oct 25 11:34:24 EDT 2013
User: price-jones
Dark Spectrum Present: No
Reference Spectrum Present: No
Number of Sampled Component Spectra: 1
Spectrometers: USB2+H05261
Integration Time (usec): 100000 (USB2+H05261)
Spectra Averaged: 1 (USB2+H05261)
Boxcar Smoothing: 0 (USB2+H05261)
Correct for Electrical Dark: No (USB2+H05261)
Strobe/Lamp Enabled: No (USB2+H05261)
Correct for Detector Non-linearity: No (USB2+H05261)
Correct for Stray Light: No (USB2+H05261)
Number of Pixels in Processed Spectrum: 2048
>>>>>Begin Processed Spectral Data<<<<<
365.73	245.76
365.92	245.76
366.12	245.76
366.32	222.35
366.52	184.90
366.72	166.18
366.91	173.20
367.11	241.08
367.31	110.01
367.51	182.56
367.70	133.41
367.90	170.86
368.10	159.16
368.30	177.88
368.49	217.67
368.69	234.05
368.89	194.26
369.09	191.92
369.28	168.52
369.48	222.35
369.68	217.67
369.87	241.08
370.07	238.73
370.27	252.78
370.47	264.48
370.66	470.45
370.86	496.19
371.06	510.24
371.25	603.86
371.45	564.07
371.65	592.16
371.84	547.69
372.04	503.22
372.24	578.11
372.44	580.45
372.63	608.54
372.83	582.79
373.03	627.26
373.22	596.84
373.42	587.47
373.62	615.56
373.81	603.86
374.01	638.97
374.21	695.14
374.40	732.59
374.60	627.26
374.79	615.56
374.99	587.47
375.19	580.45
375.38	753.65
375.58	624.92
375.78	695.14
375.97	650.67
376.17	723.23
376.37	636.63
376.56	772.38
376.76	653.01
376.95	695.14
377.15	664.71
377.35	695.14
377.54	765.36
377.74	664.71
377.93	641.31
378.13	732.59
378.33	779.40
378.52	627.26
378.72	739.61
378.91	739.61
379.11	739.61
379.31	702.16
379.50	702.16
379.70	727.91
379.89	716.20
380.09	650.67
380.28	720.88
380.48	678.76
380.68	690.46
380.87	685.78
381.07	793.44
381.26	795.78
381.46	702.16
381.65	645.99
381.85	784.08
382.04	720.88
382.24	713.86
382.43	758.33
382.63	758.33
382.83	765.36
383.02	781.74
383.22	861.32
383.41	706.84
383.61	763.01
383.80	861.32
384.00	758.33
384.19	798.12
384.39	760.67
384.58	847.27
384.78	795.78
384.97	816.85
385.17	725.57
385.36	826.21
385.56	866.00
385.75	805.14
385.95	849.61
386.14	858.98
386.34	777.06
386.53	819.19
386.72	805.14
386.92	959.62
387.11	840.25
387.31	856.64
387.50	847.27
387.70	851.96
387.89	826.21
388.09	929.19
388.28	894.08
388.48	844.93
388.67	912.81
388.86	990.05
389.06	873.02
389.25	990.05
389.45	968.98
389.64	971.32
389.84	947.92
390.03	908.13
390.22	880.04
390.42	858.98
390.61	926.85
390.81	905.79
391.00	905.79
391.19	1025.15
391.39	924.51
391.58	1032.18
391.78	1062.60
391.97	985.37
392.16	985.37
392.36	1029.84
392.55	1053.24
392.75	1011.11
392.94	1025.15
393.13	1020.47
393.33	1008.77
393.52	1020.47
393.71	1128.14
393.91	1125.80
394.10	1027.50
394.29	1020.47
394.49	1039.20
394.68	1078.99
394.88	1142.18
395.07	1116.44
395.26	1146.86
395.46	1018.13
395.65	1116.44
395.84	1188.99
396.04	1228.78
396.23	1203.04
396.42	1109.41
396.62	1142.18
396.81	1203.04
397.00	1226.44
397.19	1231.12
397.39	1163.25
397.58	1214.74
397.77	1238.14
397.97	1249.85
398.16	1153.88
398.35	1160.91
398.55	1193.67
398.74	1270.91
398.93	1212.40
399.12	1254.53
399.32	1224.10
399.51	1231.12
399.70	1352.83
399.90	1387.94
400.09	1364.53
400.28	1313.04
400.47	1348.15
400.67	1369.21
400.86	1329.42
401.05	1434.75
401.24	1364.53
401.44	1406.66
401.63	1406.66
401.82	1437.09
402.01	1423.05
402.21	1483.90
402.40	1432.41
402.59	1511.99
402.78	1497.94
402.97	1511.99
403.17	1476.88
403.36	1514.33
403.55	1577.52
403.74	1516.67
403.93	1570.50
404.13	1554.12
404.32	1521.35
404.51	1514.33
404.70	1614.97
404.89	1563.48
405.09	1724.97
405.28	1621.99
405.47	1596.25
405.66	1708.59
405.85	1650.08
406.05	1689.87
406.24	1673.48
406.43	1666.46
406.62	1760.08
406.81	1858.39
407.00	1748.38
407.20	1664.12
407.39	1764.76
407.58	1762.42
407.77	1689.87
407.96	1760.08
408.15	1809.23
408.34	1797.53
408.54	1902.86
408.73	1905.20
408.92	1792.85
409.11	1902.86
409.30	1895.83
409.49	1898.17
409.68	1872.43
409.87	2015.20
410.07	1914.56
410.26	2085.42
410.45	1984.77
410.64	2054.99
410.83	2108.82
411.02	2064.35
411.21	2146.27
411.40	2015.20
411.59	2024.56
411.78	2033.93
411.98	2092.44
412.17	2242.23
412.36	2207.13
412.55	2312.45
412.74	2277.34
412.93	2260.96
413.12	2253.94
413.31	2422.45
413.50	2228.19
413.69	2277.34
413.88	2448.20
414.07	2396.71
414.26	2415.43
414.45	2487.99
414.64	2436.50
414.83	2396.71
415.02	2385.01
415.22	2450.54
415.41	2565.23
415.60	2546.50
415.79	2541.82
415.98	2712.68
416.17	2656.51
416.36	2607.36
416.55	2642.46
416.74	2787.58
416.93	2635.44
417.12	2778.22
417.31	2602.68
417.50	2825.03
417.69	2855.45
417.88	2930.35
418.07	2801.62
418.26	2803.96
418.45	2916.31
418.64	2939.71
418.83	3009.93
419.02	2846.09
419.21	2963.12
419.39	2944.39
419.58	3026.31
419.77	2881.20
419.96	3096.53
420.15	3061.42
420.34	3068.44
420.53	3112.91
420.72	3136.32
420.91	3042.70
421.10	3138.66
421.29	3211.22
421.48	3000.57
421.67	3136.32
421.86	3243.98
422.05	3243.98
422.24	3218.24
422.43	3293.13
422.61	3171.43
422.80	3145.68
422.99	3370.37
423.18	3323.56
423.37	3290.79
423.56	3272.07
423.75	3269.73
423.94	3145.68
424.13	3049.72
424.32	3208.87
424.50	3339.94
424.69	3382.07
424.88	3304.84
425.07	3309.52
425.26	3208.87
425.45	3365.69
425.64	3379.73
425.83	3365.69
426.01	3335.26
426.20	3400.80
426.39	3384.41
426.58	3482.72
426.77	3382.07
426.96	3379.73
427.15	3403.14
427.33	3353.99
427.52	3578.68
427.71	3585.70
427.90	3391.44
428.09	3433.57
428.28	3499.10
428.46	3513.14
428.65	3555.27
428.84	3566.98
429.03	3576.34
429.22	3485.06
429.40	3674.64
429.59	3761.24
429.78	3510.80
429.97	3536.55
430.16	3637.19
430.34	3695.71
430.53	3684.00
430.72	3695.71
430.91	3714.43
431.10	3667.62
431.28	3786.99
431.47	4035.08
431.66	3850.18
431.85	3822.09
432.03	4011.68
432.22	4002.32
432.41	3904.01
432.60	3873.59
432.79	4014.02
432.97	3896.99
433.16	3974.23
433.35	3906.35
433.54	3957.85
433.72	3964.87
433.91	3908.69
434.10	3962.53
434.28	4049.13
434.47	4142.75
434.66	4091.26
434.85	4098.28
435.03	4063.17
435.22	4084.23
435.41	4334.67
435.59	4278.50
435.78	4168.49
435.97	4163.81
436.16	4339.35
436.34	4297.22
436.53	4315.95
436.72	4348.72
436.90	4308.93
437.09	4402.55
437.28	4320.63
437.46	4388.50
437.65	4435.32
437.84	4477.44
438.02	4470.42
438.21	4386.16
438.40	4259.78
438.58	4531.28
438.77	4610.86
438.96	4681.07
439.14	4720.86
439.33	4622.56
439.52	4854.27
439.70	4753.63
439.89	4821.50
440.08	4983.00
440.26	4903.42
440.45	4882.36
440.63	4994.70
440.82	5022.79
441.01	4980.66
441.19	5039.17
441.38	5100.03
441.57	4994.70
441.75	5111.73
441.94	5076.62
442.12	5146.84
442.31	5181.95
442.50	5233.44
442.68	5242.80
442.87	5289.61
443.05	5322.38
443.24	5392.59
443.43	5373.87
443.61	5364.51
443.80	5446.43
443.98	5263.86
444.17	5172.58
444.35	5460.47
444.54	5537.71
444.73	5411.32
444.91	5401.96
445.10	5289.61
445.28	5458.13
445.47	5327.06
445.65	5432.38
445.84	5717.93
446.02	5420.68
446.21	5596.22
446.39	5476.85
446.58	5502.60
446.77	5621.97
446.95	5579.84
447.14	5542.39
447.32	5540.05
447.51	5397.28
447.69	5467.49
447.88	5504.94
448.06	5619.63
448.25	5591.54
448.43	5558.77
448.62	5647.71
448.80	5584.52
448.99	5675.80
449.17	5863.04
449.36	5523.66
449.54	5706.23
449.73	5921.56
449.91	5942.62
450.10	5783.46
450.28	5966.03
450.46	5905.17
450.65	5963.68
450.83	5830.27
451.02	5853.68
451.20	5860.70
451.39	6122.84
451.57	5818.57
451.76	5975.39
451.94	5923.90
452.13	6139.23
452.31	6108.80
452.49	6031.56
452.68	6052.63
452.86	6143.91
453.05	6223.48
453.23	6122.84
453.42	6169.65
453.60	6265.61
453.78	6232.85
453.97	5909.85
454.15	6188.38
454.34	6087.73
454.52	6338.17
454.70	6361.58
454.89	6209.44
455.07	6324.13
455.26	6429.45
455.44	6509.03
455.62	6459.88
455.81	6415.41
455.99	6284.34
456.17	6527.75
456.36	6483.28
456.54	6651.80
456.73	6516.05
456.91	6803.94
457.09	6773.51
457.28	6904.58
457.46	6722.02
457.64	6738.40
457.83	6881.18
458.01	6743.08
458.19	6946.71
458.38	6796.92
458.56	6970.12
458.74	6963.09
458.93	6986.50
459.11	6878.83
459.29	6773.51
459.48	6956.07
459.66	7052.03
459.84	7080.12
460.03	7150.34
460.21	7169.06
460.39	7239.28
460.57	7084.80
460.76	7070.76
460.94	7197.15
461.12	7260.34
461.31	7335.24
461.49	7169.06
461.67	7225.23
461.85	7295.45
462.04	7332.90
462.22	7651.21
462.40	7463.97
462.59	7435.88
462.77	7459.29
462.95	7606.74
463.13	7515.46
463.32	7630.15
463.50	7637.17
463.68	7524.82
463.86	7740.15
464.05	7611.42
464.23	7517.80
464.41	7634.83
464.59	7496.74
464.78	7866.54
464.96	7765.90
465.14	7735.47
465.32	7836.11
465.50	7815.05
465.69	7719.09
465.87	7810.37
466.05	7861.86
466.23	7882.92
466.41	8009.31
466.60	8011.65
466.78	7918.03
466.96	7941.44
467.14	7779.94
467.32	8023.36
467.51	7918.03
467.69	7861.86
467.87	7988.25
468.05	8145.06
468.23	7918.03
468.41	8025.70
468.60	8219.96
468.78	8035.06
468.96	8175.49
469.14	8210.60
469.32	8360.39
469.50	8379.12
469.69	8379.12
469.87	8388.48
470.05	8395.50
470.23	8458.70
470.41	8507.85
470.59	8662.32
470.77	8575.72
470.95	8465.72
471.14	8655.30
471.32	8411.89
471.50	8812.12
471.68	8657.64
471.86	8842.54
472.04	8716.16
472.22	8882.33
472.40	8891.70
472.58	8777.01
472.77	8943.19
472.95	8767.65
473.13	9341.08
473.31	9001.70
473.49	9121.07
473.67	9064.89
473.85	9039.15
474.03	9397.25
474.21	9275.54
474.39	9238.09
474.57	9504.92
474.75	9610.24
474.93	9652.37
475.12	9654.71
475.30	9673.43
475.48	9537.68
475.66	9860.68
475.84	9685.14
476.02	9715.56
476.20	9848.97
476.38	10076.01
476.56	10216.44
476.74	10225.80
476.92	10097.07
477.10	10099.41
477.28	10300.70
477.46	10260.91
477.64	10373.25
477.82	10590.92
478.00	10853.06
478.18	10487.94
478.36	10789.87
478.54	10881.15
478.72	10899.87
478.90	11042.65
479.08	11131.59
479.26	11194.78
479.44	11150.31
479.62	11096.48
479.80	11363.30
479.98	11475.65
480.16	11889.92
480.34	11543.52
480.52	11857.15
480.70	11777.58
480.88	11618.42
481.06	11913.33
481.24	11822.05
481.41	12341.64
481.59	12573.36
481.77	12280.79
481.95	12533.57
482.13	12533.57
482.31	12599.10
482.49	12793.37
482.67	12861.24
482.85	12952.52
483.03	13107.00
483.21	13139.77
483.39	13191.26
483.57	13048.49
483.74	13341.05
483.92	13469.78
484.10	13549.36
484.28	13982.36
484.46	13825.54
484.64	14267.91
484.82	14045.55
485.00	14169.60
485.18	14230.46
485.35	14614.30
485.53	14272.59
485.71	14523.02
485.89	14846.02
486.07	14876.44
486.25	14703.25
486.43	15009.86
486.61	15047.30
486.78	15068.37
486.96	15169.01
487.14	15379.66
487.32	15484.98
487.50	15700.31
487.68	15484.98
487.85	16093.52
488.03	15917.98
488.21	16493.76
488.39	16325.24
488.57	16243.32
488.75	16311.19
488.92	16580.36
489.10	17022.72
489.28	16882.28
489.46	17174.85
489.64	17029.74
489.81	17429.97
489.99	17551.68
490.17	17502.53
490.35	17888.71
490.53	17593.81
490.70	17858.29
490.88	18052.55
491.06	18195.32
491.24	18183.62
491.41	18274.90
491.59	18518.32
491.77	18501.93
491.95	18677.48
492.13	18625.98
492.30	18834.29
492.48	18930.25
492.66	19140.90
492.84	19232.18
493.01	19176.01
493.19	19201.76
493.37	19522.41
493.54	19559.86
493.72	20105.20
493.90	19545.81
494.08	20023.28
494.25	19901.58
494.43	19999.88
494.61	20484.37
494.79	20458.62
494.96	20353.30
495.14	20603.74
495.32	20730.12
495.49	20671.61
495.67	20971.20
495.85	21261.43
496.02	21273.13
496.20	21392.50
496.38	21549.31
496.55	21916.78
496.73	21830.18
496.91	21940.18
497.09	21797.41
497.26	22164.87
497.44	22146.15
497.62	22101.68
497.79	22272.54
497.97	22546.38
498.14	22342.75
498.32	22864.69
498.50	22920.87
498.67	23150.24
498.85	22843.63
499.03	22768.73
499.20	23082.36
499.38	23396.00
499.56	23108.11
499.73	23433.44
499.91	23604.30
500.08	23756.44
500.26	23304.71
500.44	23644.09
500.61	23548.13
500.79	23798.57
500.97	24205.82
501.14	24313.48
501.32	24472.64
501.49	24161.35
501.67	24416.47
501.84	24753.51
502.02	24437.53
502.20	24500.73
502.37	24606.05
502.55	24620.10
502.72	24924.36
502.90	25074.16
503.07	24889.26
503.25	25142.03
503.43	24943.09
503.60	25453.33
503.78	25015.65
503.95	25350.34
504.13	25509.50
504.30	25715.47
504.48	25291.83
504.65	25729.51
504.83	26052.50
505.01	25989.31
505.18	25799.73
505.36	26167.19
505.53	26450.39
505.71	26373.16
505.88	26597.85
506.06	26340.39
506.23	26607.21
506.41	26298.26
506.58	26471.46
506.76	26747.64
506.93	26974.67
507.11	26838.92
507.28	26829.56
507.46	27026.17
507.63	27115.11
507.81	27332.78
507.98	27274.26
508.16	27040.21
508.33	27545.76
508.50	27615.98
508.68	27562.15
508.85	27866.42
509.03	27690.88
509.20	28149.62
509.38	28063.02
509.55	28027.92
509.73	28217.50
509.90	28411.76
510.08	28411.76
510.25	27962.38
510.42	28201.11
510.60	28652.84
510.77	28650.50
510.95	29102.22
511.12	28783.91
511.30	28781.57
511.47	28847.10
511.64	29015.62
511.82	29390.11
511.99	28922.00
512.17	29198.18
512.34	28992.22
512.51	29692.04
512.69	29680.33
512.86	29446.28
513.04	29530.54
513.21	29954.18
513.38	29785.66
513.56	29537.56
513.73	29902.68
513.90	29919.07
514.08	29912.05
514.25	30293.55
514.43	30125.04
514.60	30277.17
514.77	30609.53
514.95	30642.29
515.12	30534.63
515.29	30368.45
515.47	30918.48
515.64	30682.08
515.81	30607.19
515.99	30771.02
516.16	30920.82
516.33	30916.14
516.51	31449.78
516.68	31178.28
516.85	31660.43
517.03	31402.97
517.20	31721.28
517.37	31309.35
517.54	31466.16
517.72	31349.14
517.89	31880.44
518.06	31473.18
518.24	31470.84
518.41	31763.41
518.58	31974.06
518.75	31835.97
518.93	32226.84
519.10	31922.57
519.27	32222.16
519.45	32266.63
519.62	32180.03
519.79	32222.16
519.96	32463.23
520.14	32573.24
520.31	32542.81
520.48	32397.70
520.65	32910.27
520.83	33029.64
521.00	32882.19
521.17	32584.94
521.34	32954.74
521.52	32837.72
521.69	33137.30
521.86	33411.15
522.03	33319.87
522.20	33401.79
522.38	33886.28
522.55	33935.43
522.72	33574.98
522.89	33642.86
523.07	34047.77
523.24	33902.66
523.41	34174.16
523.58	33591.37
523.75	34089.90
523.92	33900.32
524.10	34012.66
524.27	34300.55
524.44	34237.36
524.61	34342.68
524.78	34029.05
524.96	34668.02
525.13	34455.03
525.30	34160.12
525.47	34761.64
525.64	34672.70
525.81	34843.56
525.98	34948.88
526.16	34878.66
526.33	34618.86
526.50	35161.87
526.67	34829.51
526.84	35152.51
527.01	35051.86
527.18	35159.53
527.36	35433.37
527.53	35571.46
527.70	35541.03
527.87	35583.16
528.04	35524.65
528.21	35676.79
528.38	35695.51
528.55	36009.14
528.72	35620.61
528.89	35967.01
529.07	35971.69
529.24	35952.97
529.41	36048.93
529.58	35835.94
529.75	35721.26
529.92	36528.74
530.09	35971.69
530.26	36114.47
530.43	36098.08
530.60	35941.27
530.77	36587.25
530.94	36701.94
531.11	36327.45
531.28	36540.44
531.46	36385.97
531.63	36776.84
531.80	36423.42
531.97	37060.04
532.14	37078.77
532.31	36863.44
532.48	36851.73
532.65	37464.96
532.82	36982.80
532.99	36737.05
533.16	37022.59
533.33	37359.63
533.50	37591.34
533.67	37148.98
533.84	37095.15
534.01	37617.09
534.18	37425.17
534.35	37635.81
534.52	37834.76
534.69	37816.04
534.86	37727.10
535.03	37699.01
535.20	37804.33
535.37	38014.98
535.54	38005.62
535.71	38122.65
535.88	37816.04
536.05	38054.77
536.22	38286.48
536.38	38305.21
536.55	38024.34
536.72	37904.98
536.89	38082.86
537.06	37895.61
537.23	38246.69
537.40	38139.03
537.57	38045.41
537.74	38314.57
537.91	38628.20
538.08	38459.68
538.25	38286.48
538.42	38646.93
538.59	38653.95
538.75	38370.74
538.92	38670.33
539.09	38883.32
539.26	38763.95
539.43	39129.08
539.60	38618.84
539.77	38569.69
539.94	39096.31
540.11	39110.35
540.28	39225.04
540.44	39452.07
540.61	38876.30
540.78	39402.92
540.95	39136.10
541.12	39138.44
541.29	39023.75
541.46	39634.63
541.62	39763.36
541.79	39772.72
541.96	39695.49
542.13	39257.81
542.30	39849.96
542.47	39824.22
542.63	39711.87
542.80	40128.48
542.97	40287.64
543.14	40266.58
543.31	39831.24
543.48	40357.86
543.64	40727.66
543.81	40477.22
543.98	40917.25
544.15	40266.58
544.32	40655.11
544.48	40517.01
544.65	40678.51
544.82	40856.39
544.99	40229.13
545.16	40720.64
545.32	40643.40
545.49	40811.92
545.66	41123.21
545.83	40910.22
546.00	40987.46
546.16	41085.76
546.33	40982.78
546.50	40605.95
546.67	41139.60
546.83	40634.04
547.00	40947.67
547.17	41076.40
547.34	41036.61
547.50	41694.30
547.67	41706.01
547.84	41226.20
548.00	41600.68
548.17	41556.21
548.34	41811.33
548.51	41881.55
548.67	41507.06
548.84	41806.65
549.01	41535.15
549.18	41354.93
549.34	42029.00
549.51	41851.12
549.68	41713.03
549.84	41727.07
550.01	41926.02
550.18	42080.49
550.34	41970.49
550.51	41766.86
550.68	42115.60
550.84	41691.96
551.01	42267.73
551.18	41944.74
551.34	42230.29
551.51	42501.79
551.68	42230.29
551.84	41624.09
552.01	41764.52
552.18	42347.31
552.34	42007.94
552.51	42178.79
552.68	42057.09
552.84	42557.96
553.01	42712.44
553.18	42759.25
553.34	42674.99
553.51	42859.89
553.67	42644.56
553.84	42770.95
554.01	42726.48
554.17	42794.36
554.34	42679.67
554.51	43124.37
554.67	42698.39
554.84	42597.75
555.00	42756.91
555.17	42637.54
555.33	42997.98
555.50	43257.78
555.67	43105.65
555.83	42932.45
556.00	43107.99
556.16	43526.94
556.33	43342.04
556.50	43068.20
556.66	43262.46
556.83	42941.81
556.99	43454.39
557.16	43339.70
557.32	43772.70
557.49	43360.76
557.65	43028.41
557.82	43278.85
557.98	43000.32
558.15	43620.56
558.32	43782.06
558.48	43112.67
558.65	43388.85
558.81	43709.50
558.98	43517.58
559.14	43552.69
559.31	43370.13
559.47	43171.18
559.64	43510.56
559.80	43695.46
559.97	43782.06
560.13	43840.57
560.30	43590.14
560.46	43997.39
560.63	43742.27
560.79	43885.04
560.96	43992.71
561.12	43636.95
561.29	44210.38
561.45	44018.46
561.61	43777.38
561.78	44212.72
561.94	43805.47
562.11	43938.88
562.27	43995.05
562.44	43529.28
562.60	44556.78
562.77	44353.15
562.93	44229.10
563.10	43964.62
563.26	43866.32
563.42	44486.56
563.59	43709.50
563.75	44109.74
563.92	43910.79
564.08	44519.33
564.24	44130.80
564.41	44308.68
564.57	44357.83
564.74	44531.03
564.90	43889.73
565.07	44495.92
565.23	44486.56
565.39	44058.24
565.56	44921.90
565.72	44268.89
565.88	44666.78
566.05	44229.10
566.21	44474.86
566.38	44011.43
566.54	44341.45
566.70	44634.02
566.87	44531.03
567.03	44479.54
567.19	44868.07
567.36	44694.87
567.52	44498.26
567.68	45027.23
567.85	44788.49
568.01	44914.88
568.17	44512.31
568.34	44680.83
568.50	44369.54
568.66	44437.41
568.83	44931.26
568.99	44914.88
569.15	44961.69
569.32	44678.49
569.48	44425.71
569.64	45041.27
569.81	44849.35
569.97	45092.76
570.13	45057.65
570.30	44598.91
570.46	45198.09
570.62	44985.10
570.78	44811.90
570.95	45111.49
571.11	45191.06
571.27	44973.39
571.43	44961.69
571.60	44996.80
571.76	44973.39
571.92	45001.48
572.09	44884.45
572.25	44744.02
572.41	44395.28
572.57	44935.95
572.74	45504.70
572.90	45144.25
573.06	45116.17
573.22	45387.67
573.38	45404.05
573.55	45029.57
573.71	45478.95
573.87	44856.37
574.03	45280.00
574.20	45319.79
574.36	45265.96
574.52	45310.43
574.68	45041.27
574.84	45123.19
575.01	45254.26
575.17	45284.68
575.33	45151.27
575.49	45462.57
575.65	45441.50
575.82	45420.44
575.98	45118.51
576.14	45598.32
576.30	45071.70
576.46	45427.46
576.62	45146.59
576.79	45453.20
576.95	44765.09
577.11	44772.11
577.27	45340.86
577.43	45090.42
577.59	45205.11
577.75	45214.47
577.92	45095.10
578.08	45488.31
578.24	45584.27
578.40	45869.82
578.56	45148.93
578.72	45427.46
578.88	45095.10
579.04	45216.81
579.21	45277.66
579.37	45324.47
579.53	45067.02
579.69	45507.04
579.85	45633.42
580.01	45195.74
580.17	45380.65
580.33	45837.05
580.49	45420.44
580.65	45614.70
580.82	45308.09
580.98	45017.86
581.14	45338.52
581.30	45113.83
581.46	45186.38
581.62	45436.82
581.78	44896.16
581.94	45530.44
582.10	45930.67
582.26	45603.00
582.42	45354.90
582.58	45621.72
582.74	45198.09
582.90	45291.71
583.06	45378.31
583.22	45432.14
583.38	45930.67
583.54	45624.06
583.70	45619.38
583.86	45528.10
584.02	45820.67
584.18	45979.82
584.34	45862.80
584.50	45813.65
584.66	45874.50
584.82	45710.66
584.98	45963.44
585.14	45727.05
585.30	45268.30
585.46	45705.98
585.62	45523.42
585.78	45539.80
585.94	45380.65
586.10	45532.78
586.26	45476.61
586.42	45289.37
586.58	45593.64
586.74	45663.85
586.90	45888.54
587.06	45057.65
587.22	45940.04
587.38	45464.91
587.54	45783.22
587.70	46445.59
587.86	46026.63
588.02	45319.79
588.18	45631.08
588.34	45595.98
588.49	45808.96
588.65	45921.31
588.81	45485.97
588.97	45766.84
589.13	45823.01
589.29	45965.78
589.45	45872.16
589.61	46351.97
589.77	45947.06
589.93	45965.78
590.08	46316.86
590.24	46248.99
590.40	46354.31
590.56	46026.63
590.72	46223.24
590.88	45998.55
591.04	45890.88
591.20	46096.85
591.35	46124.94
591.51	45956.42
591.67	46476.02
591.83	46679.64
591.99	45851.09
592.15	45851.09
592.31	45820.67
592.46	46349.63
592.62	46216.22
592.78	46293.46
592.94	46639.86
593.10	46117.92
593.26	46536.87
593.41	46160.05
593.57	46227.92
593.73	46380.06
593.89	46424.53
594.05	46607.09
594.20	46143.66
594.36	46677.30
594.52	46401.12
594.68	46387.08
594.84	46366.01
594.99	46813.05
595.15	45998.55
595.31	46843.48
595.47	46010.25
595.62	46096.85
595.78	46511.13
595.94	46520.49
596.10	46770.93
596.25	46429.21
596.41	46543.89
596.57	46351.97
596.73	46492.40
596.88	46443.25
597.04	46436.23
597.20	46450.27
597.36	46483.04
597.51	46862.21
597.67	46230.26
597.83	46536.87
597.99	46293.46
598.14	45921.31
598.30	46417.50
598.46	46197.49
598.61	46270.05
598.77	46700.71
598.93	46712.41
599.09	46717.09
599.24	46735.82
599.40	46176.43
599.56	46305.16
599.71	46850.50
599.87	47213.29
600.03	47131.37
600.18	46852.84
600.34	46480.70
600.50	46185.79
600.65	46328.56
600.81	46621.13
600.97	47112.64
601.12	46820.08
601.28	46883.27
601.44	46445.59
601.59	46354.31
601.75	46410.48
601.91	46806.03
602.06	46485.38
602.22	46438.57
602.37	46862.21
602.53	46827.10
602.69	46885.61
602.84	46361.33
603.00	46438.57
603.16	46471.34
603.31	46368.35
603.47	46588.36
603.62	46820.08
603.78	46909.02
603.94	46637.51
604.09	46536.87
604.25	46553.26
604.40	46607.09
604.56	46579.00
604.71	47009.66
604.87	46230.26
605.03	46429.21
605.18	46326.22
605.34	46232.60
605.49	46883.27
605.65	46525.17
605.80	46464.32
605.96	46766.24
606.12	46270.05
606.27	46363.67
606.43	46012.59
606.58	46700.71
606.74	46366.01
606.89	46593.04
607.05	46134.30
607.20	46621.13
607.36	46211.54
607.51	46726.46
607.67	46300.48
607.82	46560.28
607.98	46740.50
608.13	46241.96
608.29	46150.68
608.44	46384.74
608.60	46183.45
608.75	46410.48
608.91	46230.26
609.06	46019.61
609.22	46525.17
609.37	46155.36
609.53	46293.46
609.68	46541.55
609.84	46124.94
609.99	46461.97
610.15	46513.47
610.30	46370.69
610.46	46043.02
610.61	46295.80
610.76	46398.78
610.92	45979.82
611.07	45581.93
611.23	45727.05
611.38	46122.60
611.54	46232.60
611.69	46560.28
611.84	46050.04
612.00	46206.86
612.15	45918.97
612.31	46417.50
612.46	45638.11
612.62	45872.16
612.77	46223.24
612.92	46412.82
613.08	45698.96
613.23	46216.22
613.39	45954.08
613.54	45947.06
613.69	46253.67
613.85	45483.63
614.00	45471.93
614.15	45722.37
614.31	45139.57
614.46	45525.76
614.62	45570.23
614.77	45464.91
614.92	45638.11
615.08	46270.05
615.23	46066.42
615.38	46017.27
615.54	46164.73
615.69	45745.77
615.84	45640.45
616.00	45691.94
616.15	45851.09
616.30	46134.30
616.46	45715.34
616.61	45916.63
616.76	45560.87
616.92	45378.31
617.07	45502.35
617.22	45593.64
617.37	45162.98
617.53	46078.13
617.68	45378.31
617.83	45567.89
617.99	45823.01
618.14	45605.34
618.29	45649.81
618.45	45212.13
618.60	45450.86
618.75	44875.09
618.90	45151.27
619.06	45134.89
619.21	45794.92
619.36	44917.22
619.51	45237.87
619.67	45296.39
619.82	45118.51
619.97	45331.50
620.12	45427.46
620.28	44856.37
620.43	45378.31
620.58	45148.93
620.73	45462.57
620.89	45036.59
621.04	45647.47
621.19	44868.07
621.34	44994.46
621.49	45151.27
621.65	45024.89
621.80	45525.76
621.95	44683.17
622.10	45200.43
622.25	45284.68
622.41	45277.66
622.56	44741.68
622.71	44907.86
622.86	44971.05
623.01	45090.42
623.16	45024.89
623.32	44907.86
623.47	44538.05
623.62	44655.08
623.77	44945.31
623.92	44746.36
624.07	44961.69
624.23	44535.71
624.38	44861.05
624.53	44622.31
624.68	44718.28
624.83	44332.09
624.98	44414.01
625.13	44194.00
625.29	44388.26
625.44	44802.53
625.59	44304.00
625.74	44498.26
625.89	44243.15
626.04	44224.42
626.19	44371.88
626.34	44369.54
626.49	44006.75
626.65	43454.39
626.80	44182.29
626.95	43871.00
627.10	43501.20
627.25	43922.49
627.40	44179.95
627.55	43985.69
627.70	43934.20
627.85	44442.09
628.00	43915.47
628.15	44037.18
628.30	43519.92
628.45	43945.90
628.60	43470.77
628.76	43945.90
628.91	44088.67
629.06	43519.92
629.21	43676.74
629.36	44020.80
629.51	43714.19
629.66	44009.09
629.81	44123.78
629.96	43845.26
630.11	43622.90
630.26	43934.20
630.41	43704.82
630.56	43548.01
630.71	43545.67
630.86	43449.70
631.01	43370.13
631.16	43456.73
631.31	43468.43
631.46	43412.26
631.61	43714.19
631.76	43594.82
631.91	43559.71
632.06	43622.90
632.21	43386.51
632.36	43833.55
632.51	43173.52
632.66	43199.27
632.81	43414.60
632.96	43599.50
633.10	43145.44
633.25	43058.84
633.40	43054.15
633.55	43494.18
633.70	42899.68
633.85	42997.98
634.00	43260.12
634.15	42738.18
634.30	43365.45
634.45	42784.99
634.60	42749.88
634.75	42990.96
634.90	42981.60
635.05	42815.42
635.19	42911.38
635.34	43178.20
635.49	42810.74
635.64	42969.90
635.79	43175.86
635.94	42822.44
636.09	43213.31
636.24	42930.11
636.39	42703.07
636.53	43049.47
636.68	42536.90
636.83	42916.06
636.98	42543.92
637.13	42197.52
637.28	42160.07
637.43	42478.38
637.57	42108.58
637.72	42408.17
637.87	42639.88
638.02	42553.28
638.17	42141.35
638.32	42490.09
638.46	42120.28
638.61	42333.27
638.76	42024.32
638.91	42274.76
639.06	41940.06
639.20	42101.56
639.35	42534.56
639.50	41933.04
639.65	42029.00
639.80	42419.87
639.94	42473.70
640.09	42148.37
640.24	42253.69
640.39	41799.63
640.54	41593.66
640.68	42139.00
640.83	42234.97
640.98	41839.42
641.13	41720.05
641.27	42426.89
641.42	41933.04
641.57	41928.36
641.72	41844.10
641.86	41701.32
642.01	41748.14
642.16	41514.08
642.31	41092.79
642.45	41839.42
642.60	41872.18
642.75	41177.04
642.90	41954.10
643.04	42021.98
643.19	41607.70
643.34	41535.15
643.48	41181.73
643.63	41441.53
643.78	41670.90
643.93	41727.07
644.07	41312.80
644.22	41085.76
644.37	41535.15
644.51	41439.18
644.66	41350.24
644.81	41516.42
644.95	41207.47
645.10	41043.63
645.25	41031.93
645.39	40746.39
645.54	41380.67
645.69	40912.56
645.83	40659.79
645.98	41141.94
646.13	41078.74
646.27	41022.57
646.42	40851.71
646.57	41020.23
646.71	41638.13
646.86	41439.18
647.00	40800.22
647.15	40959.38
647.30	41090.44
647.44	41057.68
647.59	40641.06
647.74	40512.33
647.88	40392.97
648.03	41003.85
648.17	41368.97
648.32	41109.17
648.47	41242.58
648.61	40205.72
648.76	40851.71
648.90	40474.88
649.05	40500.63
649.20	40149.55
649.34	40659.79
649.49	40889.16
649.63	40741.71
649.78	40739.36
649.92	40596.59
650.07	40545.10
650.21	40985.12
650.36	40786.18
650.51	40404.67
650.65	40973.42
650.80	40528.72
650.94	40512.33
651.09	40318.07
651.23	40320.41
651.38	40133.17
651.52	39714.21
651.67	40652.76
651.81	40055.93
651.96	40142.53
652.10	39943.58
652.25	39906.13
652.39	39667.40
652.54	40002.10
652.68	39922.52
652.83	39957.63
652.97	40287.64
653.12	40130.83
653.26	39676.76
653.41	40055.93
653.55	39775.06
653.70	40058.27
653.84	40098.06
653.99	40294.66
654.13	39725.91
654.27	39864.00
654.42	39508.24
654.56	39431.01
654.71	39805.49
654.85	40179.98
655.00	39847.62
655.14	39756.34
655.29	39917.84
655.43	39882.73
655.57	39482.50
655.72	39466.11
655.86	39227.38
656.01	39016.73
656.15	39346.75
656.30	39482.50
656.44	39742.30
656.58	39669.74
656.73	39276.53
656.87	38995.67
657.01	38904.38
657.16	39349.09
657.30	39306.96
657.45	39147.80
657.59	38679.69
657.73	38827.15
657.88	38904.38
658.02	39548.03
658.16	39634.63
658.31	39201.63
658.45	39232.06
658.60	39143.12
658.74	39367.81
658.88	38979.28
659.03	38838.85
659.17	38628.20
659.31	38541.60
659.46	38789.70
659.60	38838.85
659.74	38583.73
659.89	38291.16
660.03	38073.49
660.17	38778.00
660.32	38724.16
660.46	38707.78
660.60	38349.68
660.74	38440.96
660.89	38232.65
661.03	37886.25
661.17	38026.68
661.32	37883.91
661.46	38124.99
661.60	38054.77
661.74	38082.86
661.89	37729.44
662.03	38291.16
662.17	37799.65
662.31	37549.21
662.46	37951.79
662.60	37708.37
662.74	37202.82
662.88	37647.52
663.03	36706.62
663.17	37144.30
663.31	37083.45
663.45	37427.51
663.60	37535.17
663.74	37317.50
663.88	37443.89
664.02	37099.83
664.17	37404.10
664.31	37298.78
664.45	36488.95
664.59	36947.70
664.73	36992.17
664.88	37055.36
665.02	36720.66
665.16	36697.26
665.30	36751.09
665.44	36505.34
665.59	36683.22
665.73	36439.80
665.87	35913.18
666.01	36470.23
666.15	36332.14
666.29	36357.88
666.44	36503.00
666.58	36364.90
666.72	36215.11
666.86	36353.20
667.00	35922.54
667.14	36236.17
667.28	35700.19
667.43	36142.55
667.57	36093.40
667.71	35894.46
667.85	36343.84
667.99	35889.77
668.13	35772.75
668.27	35402.94
668.41	35702.53
668.56	35112.72
668.70	34862.28
668.84	35206.34
668.98	35274.21
669.12	35381.88
669.26	35246.13
669.40	35601.89
669.54	35267.19
669.68	34785.04
669.82	34902.07
669.96	34375.45
670.10	34300.55
670.25	34763.98
670.39	34586.10
670.53	34801.43
670.67	34646.95
670.81	34726.53
670.95	34754.61
671.09	34167.14
671.23	34024.37
671.37	34312.25
671.51	34307.57
671.65	33876.91
671.79	33993.94
671.93	34071.18
672.07	34141.39
672.21	34015.01
672.35	33539.88
672.49	33935.43
672.63	33823.08
672.77	33422.85
672.91	33434.55
673.05	33778.61
673.19	33450.94
673.33	33284.76
673.47	33284.76
673.61	33008.58
673.75	32912.61
673.89	32875.16
674.03	32601.32
674.17	32381.31
674.31	32818.99
674.45	32271.31
674.59	32339.18
674.73	32732.39
674.87	32114.49
675.01	31892.14
675.15	31749.37
675.29	31871.07
675.43	31676.81
675.56	32180.03
675.70	31990.44
675.84	31622.98
675.98	31019.12
676.12	31800.86
676.26	32109.81
676.40	31211.04
676.54	31662.77
676.68	31133.81
676.82	31098.70
676.96	31445.10
677.10	31381.90
677.23	30780.39
677.37	31108.06
677.51	31154.87
677.65	30728.89
677.79	30359.09
677.93	30600.16
678.07	30614.21
678.21	30370.79
678.34	29895.66
678.48	29780.98
678.62	29977.58
678.76	29497.77
678.90	29872.26
679.04	29780.98
679.18	29989.28
679.31	29628.84
679.45	29677.99
679.59	29284.78
679.73	29355.00
679.87	29525.86
680.00	28982.85
680.14	29216.91
680.28	29130.31
680.42	29034.35
680.56	28912.64
680.70	28484.32
680.83	28268.99
680.97	28341.55
681.11	28634.11
681.25	28589.64
681.39	27782.16
681.52	27948.34
681.66	27718.96
681.80	27885.14
681.94	27646.41
682.07	27510.66
682.21	27300.01
682.35	27468.53
682.49	27662.79
682.62	27534.06
682.76	27765.78
682.90	27019.14
683.04	27098.72
683.17	27339.80
683.31	26977.01
683.45	26623.59
683.59	26583.80
683.72	26476.14
683.86	26663.38
684.00	25881.64
684.13	26567.42
684.27	26209.32
684.41	25954.20
684.55	26078.25
684.68	25755.26
684.82	26038.46
684.96	25759.94
685.09	25909.73
685.23	25781.00
685.37	25645.25
685.50	25748.23
685.64	25830.15
685.78	25408.86
685.91	25319.92
686.05	25081.18
686.19	24570.94
686.32	24627.12
686.46	24723.08
686.60	24547.54
686.73	24641.16
686.87	24812.02
687.01	24570.94
687.14	24533.50
687.28	24582.65
687.42	24638.82
687.55	24140.29
687.69	24254.97
687.82	23793.89
687.96	23594.94
688.10	23939.00
688.23	23716.65
688.37	23850.06
688.50	23735.37
688.64	23506.00
688.78	23655.79
688.91	23672.18
689.05	23297.69
689.18	22721.92
689.32	22565.10
689.46	22794.48
689.59	22623.62
689.73	22780.43
689.86	22904.48
690.00	22295.94
690.13	22602.55
690.27	22171.89
690.41	22513.61
690.54	22288.92
690.68	22515.95
690.81	22024.44
690.95	21743.58
691.08	21816.13
691.22	21841.88
691.35	21710.81
691.49	21685.06
691.62	21610.17
691.76	21504.84
691.89	21364.41
692.03	20875.24
692.16	20999.29
692.30	20931.41
692.43	20926.73
692.57	20355.64
692.70	20680.97
692.84	20685.65
692.97	20327.55
693.11	20327.55
693.24	20587.35
693.38	20201.16
693.51	19932.00
693.65	19810.29
693.78	19957.75
693.92	19887.53
694.05	20058.39
694.19	19763.48
694.32	19587.94
694.45	19676.88
694.59	19707.31
694.72	19667.52
694.86	19456.87
694.99	19314.10
695.13	18888.12
695.26	18927.91
695.39	18883.44
695.53	18888.12
695.66	18717.26
695.80	19058.98
695.93	18618.96
696.07	18682.16
696.20	18132.13
696.33	18143.83
696.47	17869.99
696.60	18174.26
696.73	18136.81
696.87	18424.70
697.00	18078.30
697.14	17734.24
697.27	17914.46
697.40	17867.65
697.54	17738.92
697.67	17696.79
697.80	17626.57
697.94	17383.16
698.07	17310.60
698.21	17467.42
698.34	17160.81
698.47	16603.76
698.61	16755.90
698.74	16603.76
698.87	16842.50
699.01	16744.19
699.14	16596.74
699.27	16601.42
699.40	16498.44
699.54	16416.52
699.67	16336.94
699.80	16552.27
699.94	16294.81
700.07	16091.18
700.20	16130.97
700.34	15854.79
700.47	15955.43
700.60	15831.38
700.73	15824.36
700.87	15463.92
701.00	15482.64
701.13	15653.50
701.26	15419.45
701.40	15492.01
701.53	15363.28
701.66	15405.41
701.79	15126.88
701.93	15068.37
702.06	14848.36
702.19	14916.23
702.32	14930.28
702.46	14937.30
702.59	15194.76
702.72	14747.72
702.85	14874.10
702.99	14284.29
703.12	14539.41
703.25	14370.89
703.38	14310.04
703.51	14429.40
703.65	14090.02
703.78	13928.53
703.91	13858.31
704.04	13795.12
704.17	14015.13
704.31	13858.31
704.44	13928.53
704.57	13940.23
704.70	13806.82
704.83	13500.21
704.96	13495.53
705.10	13170.19
705.23	13160.83
>>>>>End Processed Spectral Data<<<<<
