SpectraSuite Data File
++++++++++++++++++++++++++++++++++++
Date: Fri Oct 25 10:44:44 EDT 2013
User: price-jones
Dark Spectrum Present: No
Reference Spectrum Present: No
Number of Sampled Component Spectra: 1
Spectrometers: USB2+H05261
Integration Time (usec): 100000 (USB2+H05261)
Spectra Averaged: 1 (USB2+H05261)
Boxcar Smoothing: 0 (USB2+H05261)
Correct for Electrical Dark: No (USB2+H05261)
Strobe/Lamp Enabled: No (USB2+H05261)
Correct for Detector Non-linearity: No (USB2+H05261)
Correct for Stray Light: No (USB2+H05261)
Number of Pixels in Processed Spectrum: 2048
>>>>>Begin Processed Spectral Data<<<<<
365.73	220.01
365.92	220.01
366.12	220.01
366.32	0.00
366.52	44.47
366.72	39.79
366.91	37.45
367.11	0.00
367.31	0.00
367.51	58.51
367.70	0.00
367.90	86.60
368.10	0.00
368.30	84.26
368.49	28.09
368.69	95.96
368.89	56.17
369.09	70.22
369.28	107.66
369.48	114.69
369.68	23.41
369.87	110.01
370.07	114.69
370.27	102.98
370.47	227.03
370.66	320.65
370.86	367.46
371.06	400.23
371.25	468.11
371.45	379.17
371.65	472.79
371.84	444.70
372.04	315.97
372.24	496.19
372.44	435.34
372.63	575.77
372.83	454.06
373.03	587.47
373.22	449.38
373.42	449.38
373.62	505.56
373.81	554.71
374.01	500.87
374.21	538.32
374.40	550.03
374.60	535.98
374.79	519.60
374.99	461.09
375.19	573.43
375.38	550.03
375.58	622.58
375.78	620.24
375.97	608.54
376.17	587.47
376.37	650.67
376.56	491.51
376.76	531.30
376.95	503.22
377.15	608.54
377.35	634.29
377.54	580.45
377.74	608.54
377.93	585.13
378.13	627.26
378.33	699.82
378.52	559.39
378.72	615.56
378.91	587.47
379.11	543.00
379.31	608.54
379.50	543.00
379.70	636.63
379.89	620.24
380.09	594.50
380.28	622.58
380.48	690.46
380.68	657.69
380.87	683.44
381.07	681.10
381.26	683.44
381.46	674.07
381.65	669.39
381.85	706.84
382.04	664.71
382.24	650.67
382.43	643.65
382.63	662.37
382.83	648.33
383.02	697.48
383.22	720.88
383.41	704.50
383.61	655.35
383.80	734.93
384.00	746.63
384.19	704.50
384.39	741.95
384.58	741.95
384.78	716.20
384.97	634.29
385.17	763.01
385.36	704.50
385.56	688.12
385.75	781.74
385.95	765.36
386.14	837.91
386.34	711.52
386.53	805.14
386.72	681.10
386.92	791.10
387.11	753.65
387.31	786.42
387.50	851.96
387.70	774.72
387.89	812.17
388.09	856.64
388.28	833.23
388.48	802.80
388.67	784.08
388.86	910.47
389.06	861.32
389.25	880.04
389.45	908.13
389.64	856.64
389.84	917.49
390.03	861.32
390.22	952.60
390.42	882.38
390.61	954.94
390.81	945.58
391.00	968.98
391.19	1018.13
391.39	957.28
391.58	971.32
391.78	961.96
391.97	1057.92
392.16	924.51
392.36	999.41
392.55	1048.56
392.75	924.51
392.94	924.51
393.13	997.07
393.33	959.62
393.52	945.58
393.71	1032.18
393.91	1095.37
394.10	1107.07
394.29	1053.24
394.49	1041.54
394.68	1013.45
394.88	1046.22
395.07	1139.84
395.26	1118.78
395.46	1116.44
395.65	1125.80
395.84	1135.16
396.04	1203.04
396.23	1132.82
396.42	1128.14
396.62	1043.88
396.81	1177.29
397.00	1163.25
397.19	1203.04
397.39	1203.04
397.58	1317.72
397.77	1238.14
397.97	1149.20
398.16	1231.12
398.35	1331.76
398.55	1303.68
398.74	1385.60
398.93	1380.92
399.12	1291.98
399.32	1308.36
399.51	1345.81
399.70	1451.13
399.90	1397.30
400.09	1427.73
400.28	1467.52
400.47	1437.09
400.67	1387.94
400.86	1481.56
401.05	1451.13
401.24	1504.96
401.44	1472.20
401.63	1488.58
401.82	1474.54
402.01	1465.18
402.21	1519.01
402.40	1699.23
402.59	1577.52
402.78	1664.12
402.97	1614.97
403.17	1593.90
403.36	1675.82
403.55	1652.42
403.74	1675.82
403.93	1675.82
404.13	1617.31
404.32	1689.87
404.51	1699.23
404.70	1661.78
404.89	1736.68
405.09	1736.68
405.28	1727.32
405.47	1713.27
405.66	1764.76
405.85	1769.44
406.05	1724.97
406.24	1804.55
406.43	1799.87
406.62	1895.83
406.81	1902.86
407.00	1825.62
407.20	1834.98
407.39	1856.04
407.58	1849.02
407.77	1937.96
407.96	1928.60
408.15	2029.24
408.34	2012.86
408.54	2003.50
408.73	2024.56
408.92	2092.44
409.11	2036.27
409.30	2019.88
409.49	2036.27
409.68	2092.44
409.87	2036.27
410.07	2078.40
410.26	2157.97
410.45	2146.27
410.64	2160.31
410.83	2228.19
411.02	2235.21
411.21	2338.20
411.40	2230.53
411.59	2319.47
411.78	2256.28
411.98	2452.88
412.17	2340.54
412.36	2466.92
412.55	2431.82
412.74	2511.39
412.93	2403.73
413.12	2495.01
413.31	2677.57
413.50	2672.89
413.69	2579.27
413.88	2696.30
414.07	2558.21
414.26	2663.53
414.45	2733.75
414.64	2682.25
414.83	2803.96
415.02	2810.98
415.22	2871.84
415.41	2691.62
415.60	2785.24
415.79	2796.94
415.98	2906.95
416.17	2937.37
416.36	2937.37
416.55	2925.67
416.74	2986.52
416.93	2977.16
417.12	2874.18
417.31	2946.73
417.50	3045.04
417.69	3042.70
417.88	3222.92
418.07	3119.93
418.26	3054.40
418.45	3148.02
418.64	3225.26
418.83	3269.73
419.02	3133.98
419.21	3159.72
419.39	3318.88
419.58	3213.56
419.77	3243.98
419.96	3269.73
420.15	3258.03
420.34	3414.84
420.53	3304.84
420.72	3522.51
420.91	3449.95
421.10	3431.23
421.29	3449.95
421.48	3412.50
421.67	3412.50
421.86	3485.06
422.05	3592.72
422.24	3314.20
422.43	3555.27
422.61	3433.57
422.80	3524.85
422.99	3545.91
423.18	3543.57
423.37	3616.13
423.56	3644.21
423.75	3543.57
423.94	3475.70
424.13	3438.25
424.32	3482.72
424.50	3548.25
424.69	3637.19
424.88	3611.45
425.07	3595.06
425.26	3559.95
425.45	3487.40
425.64	3566.98
425.83	3494.42
426.01	3712.09
426.20	3630.17
426.39	3513.14
426.58	3749.54
426.77	3529.53
426.96	3660.60
427.15	3552.93
427.33	3714.43
427.52	3695.71
427.71	3604.42
427.90	3728.47
428.09	3754.22
428.28	3861.88
428.46	3833.80
428.65	3796.35
428.84	3985.93
429.03	3815.07
429.22	3747.20
429.40	3864.22
429.59	3805.71
429.78	3653.58
429.97	3674.64
430.16	3672.30
430.34	3831.46
430.53	4021.04
430.72	3892.31
430.91	3925.08
431.10	3911.04
431.28	4133.39
431.47	4287.86
431.66	4156.79
431.85	4196.58
432.03	4208.28
432.22	4201.26
432.41	4203.60
432.60	4294.88
432.79	4262.12
432.97	4367.44
433.16	4365.10
433.35	4198.92
433.54	4299.56
433.72	4421.27
433.91	4383.82
434.10	4369.78
434.28	4320.63
434.47	4327.65
434.66	4451.70
434.85	4491.49
435.03	4472.76
435.22	4554.68
435.41	4655.33
435.59	4741.93
435.78	4636.60
435.97	4762.99
436.16	4645.96
436.34	4669.37
436.53	4683.41
436.72	4901.08
436.90	4702.14
437.09	4723.20
437.28	4711.50
437.46	4842.57
437.65	4842.57
437.84	4660.01
438.02	4711.50
438.21	4744.27
438.40	4746.61
438.58	5102.37
438.77	4734.90
438.96	4875.34
439.14	5048.54
439.33	5153.86
439.52	5123.43
439.70	5205.35
439.89	5121.09
440.08	5308.34
440.26	5228.76
440.45	5163.22
440.63	5446.43
440.82	5568.13
441.01	5540.05
441.19	5614.95
441.38	5530.69
441.57	5607.92
441.75	5526.00
441.94	5722.61
442.12	5570.48
442.31	5738.99
442.50	5827.93
442.68	5694.52
442.87	5799.85
443.05	5877.09
443.24	5888.79
443.43	5951.98
443.61	5856.02
443.80	6066.67
443.98	5893.47
444.17	5731.97
444.35	5846.66
444.54	6054.97
444.73	6050.28
444.91	6001.13
445.10	5865.38
445.28	5893.47
445.47	5727.29
445.65	5982.41
445.84	5968.37
446.02	5944.96
446.21	6019.86
446.39	5881.77
446.58	6078.37
446.77	6143.91
446.95	6143.91
447.14	6094.76
447.32	6099.44
447.51	6045.60
447.69	6064.33
447.88	5980.07
448.06	6057.31
448.25	6120.50
448.43	6174.33
448.62	6090.07
448.80	6099.44
448.99	6249.23
449.17	6122.84
449.36	6340.51
449.54	6179.01
449.73	6518.39
449.91	6513.71
450.10	6443.49
450.28	6621.38
450.46	6459.88
450.65	6583.93
450.83	6473.92
451.02	6427.11
451.20	6581.59
451.39	6558.18
451.57	6403.71
451.76	6558.18
451.94	6635.42
452.13	6698.61
452.31	6750.10
452.49	6509.03
452.68	6506.69
452.86	6703.29
453.05	6745.42
453.23	6612.01
453.42	6602.65
453.60	6614.35
453.78	6761.81
453.97	6729.04
454.15	6834.36
454.34	6633.08
454.52	6897.56
454.70	6794.58
454.89	7026.29
455.07	7028.63
455.26	6956.07
455.44	6974.80
455.62	6986.50
455.81	7007.56
455.99	7110.55
456.17	7225.23
456.36	7260.34
456.54	7059.06
456.73	7360.98
456.91	7297.79
457.09	7412.48
457.28	7508.44
457.46	7274.38
457.64	7449.93
457.83	7637.17
458.01	7391.41
458.19	7548.23
458.38	7616.10
458.56	7452.27
458.74	7419.50
458.93	7683.98
459.11	7545.89
459.29	7667.60
459.48	7705.04
459.66	7641.85
459.84	7789.30
460.03	7793.98
460.21	7686.32
460.39	7618.44
460.57	7796.32
460.76	7702.70
460.94	7906.33
461.12	7765.90
461.31	7934.42
461.49	7845.48
461.67	8114.64
461.85	8042.08
462.04	8035.06
462.22	8252.73
462.40	8205.92
462.59	8222.30
462.77	7887.61
462.95	8060.80
463.13	8013.99
463.32	8201.24
463.50	8351.03
463.68	8177.83
463.86	8315.92
464.05	7990.59
464.23	8121.66
464.41	8355.71
464.59	8098.25
464.78	8313.58
464.96	8315.92
465.14	8194.22
465.32	8351.03
465.50	8601.47
465.69	8444.65
465.87	8418.91
466.05	8383.80
466.23	8304.22
466.41	8372.10
466.60	8549.98
466.78	8779.35
466.96	8526.57
467.14	8767.65
467.32	8772.33
467.51	8533.59
467.69	8484.44
467.87	8545.30
468.05	8744.24
468.23	8748.92
468.41	8636.58
468.60	8854.25
468.78	8849.57
468.96	8821.48
469.14	8767.65
469.32	8954.89
469.50	8753.60
469.69	8936.17
469.87	9027.45
470.05	9195.96
470.23	9132.77
470.41	8905.74
470.59	9071.92
470.77	9125.75
470.95	9156.18
471.14	9111.71
471.32	9235.75
471.50	9453.42
471.68	9610.24
471.86	9554.07
472.04	9488.53
472.22	9633.64
472.40	9465.13
472.58	9322.35
472.77	9680.46
472.95	9659.39
473.13	9926.21
473.31	9692.16
473.49	9645.35
473.67	9804.50
473.85	9879.40
474.03	9977.70
474.21	10200.05
474.39	10061.96
474.57	10218.78
474.75	10132.18
474.93	10434.11
475.12	10256.23
475.30	10387.30
475.48	10307.72
475.66	10558.16
475.84	10242.18
476.02	10457.51
476.20	10691.57
476.38	10684.55
476.56	10848.38
476.74	10768.80
476.92	10698.59
477.10	10857.75
477.28	11197.12
477.46	11173.72
477.64	11213.51
477.82	11346.92
478.00	11866.52
478.18	11356.28
478.36	11639.48
478.54	11749.49
478.72	11822.05
478.90	11810.34
479.08	11922.69
479.26	12107.59
479.44	12154.40
479.62	12191.85
479.80	12098.23
479.98	12512.50
480.16	12549.95
480.34	12290.15
480.52	12549.95
480.70	12395.48
480.88	12421.22
481.06	12758.26
481.24	12755.92
481.41	13132.75
481.59	13198.28
481.77	13226.37
481.95	13343.39
482.13	13359.78
482.31	13429.99
482.49	13441.70
482.67	13535.32
482.85	13874.70
483.03	14026.83
483.21	14216.41
483.39	14237.48
483.57	13928.53
483.74	14162.58
483.92	14328.76
484.10	14099.39
484.28	14661.12
484.46	14895.17
484.64	14972.41
484.82	15012.20
485.00	15110.50
485.18	15122.20
485.35	15288.38
485.53	15257.95
485.71	15384.34
485.89	15550.52
486.07	15255.61
486.25	15545.84
486.43	15660.52
486.61	15845.43
486.78	16264.38
486.96	16252.68
487.14	16383.75
487.32	16325.24
487.50	16566.31
487.68	16915.05
487.85	17383.16
488.03	17151.45
488.21	17273.15
488.39	17235.70
488.57	17240.39
488.75	17254.43
488.92	17654.66
489.10	17869.99
489.28	17750.62
489.46	18391.93
489.64	18033.83
489.81	18642.37
489.99	18537.04
490.17	18824.93
490.35	18995.79
490.53	18677.48
490.70	19103.45
490.88	19042.60
491.06	19337.51
491.24	19349.21
491.41	19283.67
491.59	19517.73
491.77	19344.53
491.95	19370.27
492.13	19688.59
492.30	20018.60
492.48	20526.50
492.66	20063.07
492.84	20341.60
493.01	20418.83
493.19	20695.02
493.37	20849.49
493.54	20655.23
493.72	20968.86
493.90	21010.99
494.08	21329.30
494.25	21434.63
494.43	21228.66
494.61	21778.68
494.79	21635.91
494.96	21664.00
495.14	21834.86
495.32	21951.88
495.49	22251.47
495.67	21921.46
495.85	22340.41
496.02	22401.27
496.20	22614.26
496.38	22635.32
496.55	22654.05
496.73	23379.61
496.91	23225.14
497.09	23346.84
497.26	23335.14
497.44	23302.37
497.62	23578.56
497.79	23487.28
497.97	23414.72
498.14	23571.54
498.32	24159.01
498.50	24133.26
498.67	24311.14
498.85	24091.13
499.03	24666.91
499.20	24587.33
499.38	24620.10
499.56	24582.65
499.73	24617.75
499.91	24952.45
500.08	24659.88
500.26	24533.50
500.44	24624.78
500.61	24697.33
500.79	24823.72
500.97	25081.18
501.14	25219.27
501.32	25785.68
501.49	25261.40
501.67	25383.11
501.84	25575.03
502.02	25610.14
502.20	25933.14
502.37	25907.39
502.55	25799.73
502.72	25944.84
502.90	26218.68
503.07	26265.49
503.25	26410.60
503.43	26338.05
503.60	26331.03
503.78	26340.39
503.95	26277.19
504.13	26668.06
504.30	26527.63
504.48	26733.60
504.65	27201.71
504.83	27335.12
505.01	27185.32
505.18	27145.53
505.36	27641.73
505.53	27733.01
505.71	27597.26
505.88	27901.53
506.06	27173.62
506.23	27461.51
506.41	27847.69
506.58	27690.88
506.76	27955.36
506.93	27974.08
507.11	27992.81
507.28	28170.69
507.46	27974.08
507.63	28261.97
507.81	28187.07
507.98	28341.55
508.16	28589.64
508.33	28109.83
508.50	28854.12
508.68	29010.94
508.85	29039.03
509.03	29041.37
509.20	29277.76
509.38	29577.35
509.55	29181.80
509.73	29771.61
509.90	29647.57
510.08	29369.04
510.25	29378.40
510.42	29497.77
510.60	29813.74
510.77	29905.02
510.95	30005.67
511.12	29916.73
511.30	30471.43
511.47	30232.70
511.64	30103.97
511.82	30085.25
511.99	30455.05
512.17	30642.29
512.34	30146.10
512.51	30242.06
512.69	30778.04
512.86	30883.37
513.04	30998.06
513.21	30944.22
513.38	31000.40
513.56	31058.91
513.73	30555.69
513.90	31126.78
514.08	31187.64
514.25	31304.67
514.43	30710.17
514.60	31323.39
514.77	31527.02
514.95	32034.91
515.12	31356.16
515.29	31618.30
515.47	31735.32
515.64	32058.32
515.81	31852.35
515.99	31711.92
516.16	31763.41
516.33	31505.95
516.51	31922.57
516.68	31644.04
516.85	31466.16
517.03	32048.96
517.20	32137.90
517.37	32524.08
517.54	32507.70
517.72	32187.05
517.89	32353.23
518.06	32196.41
518.24	32589.62
518.41	32376.63
518.58	32797.93
518.75	32889.21
518.93	33048.36
519.10	33078.79
519.27	32893.89
519.45	32774.52
519.62	33638.18
519.79	33244.97
519.96	33380.72
520.14	33942.45
520.31	33453.28
520.48	33483.70
520.65	33364.34
520.83	33813.72
521.00	33584.35
521.17	33689.67
521.34	34003.30
521.52	33528.17
521.69	34197.57
521.86	34476.09
522.03	34038.41
522.20	34656.31
522.38	34801.43
522.55	34841.21
522.72	34508.86
522.89	34410.56
523.07	34831.85
523.24	34773.34
523.41	34899.73
523.58	34752.27
523.75	34993.35
523.92	34955.90
524.10	34944.20
524.27	34972.28
524.44	35276.55
524.61	35505.93
524.78	35232.08
524.96	35510.61
525.13	35452.09
525.30	35494.22
525.47	35674.45
525.64	35955.31
525.81	35393.58
525.98	35276.55
526.16	35374.86
526.33	35349.11
526.50	35812.54
526.67	35470.82
526.84	35526.99
527.01	35583.16
527.18	35835.94
527.36	36444.48
527.53	35992.76
527.70	36538.10
527.87	36355.54
528.04	36343.84
528.21	36360.22
528.38	36348.52
528.55	36821.31
528.72	36566.19
528.89	36914.93
529.07	36910.25
529.24	36392.99
529.41	36692.58
529.58	36577.89
529.75	36451.50
529.92	37031.96
530.09	36786.20
530.26	37067.06
530.43	37319.84
530.60	37036.64
530.77	37153.66
530.94	37418.14
531.11	37053.02
531.28	37160.69
531.46	37649.86
531.63	37282.39
531.80	38122.65
531.97	37677.94
532.14	37385.38
532.31	37226.22
532.48	37549.21
532.65	37806.67
532.82	37687.31
532.99	37738.80
533.16	37535.17
533.33	37893.27
533.50	37766.88
533.67	38038.39
533.84	37511.77
534.01	37825.40
534.18	38267.76
534.35	38024.34
534.52	38251.38
534.69	38242.01
534.86	38394.15
535.03	38171.80
535.20	38827.15
535.37	38857.57
535.54	39054.18
535.71	38689.06
535.88	38478.41
536.05	38337.98
536.22	38752.25
536.38	38501.81
536.55	38485.43
536.72	38824.81
536.89	38766.29
537.06	38803.74
537.23	38799.06
537.40	38759.27
537.57	39154.82
537.74	38761.61
537.91	39351.43
538.08	39257.81
538.25	39267.17
538.42	39192.27
538.59	39541.01
538.75	39164.18
538.92	39557.39
539.09	39658.04
539.26	39463.77
539.43	39538.67
539.60	39700.17
539.77	39611.23
539.94	39601.86
540.11	39423.98
540.28	39847.62
540.44	39639.31
540.61	39482.50
540.78	39590.16
540.95	39763.36
541.12	39625.27
541.29	39555.05
541.46	39669.74
541.62	39990.39
541.79	39636.97
541.96	39426.32
542.13	39770.38
542.30	39838.26
542.47	39782.09
542.63	39859.32
542.80	40229.13
542.97	40336.79
543.14	40690.21
543.31	40863.41
543.48	40591.91
543.64	40746.39
543.81	40959.38
543.98	40732.34
544.15	40662.13
544.32	41010.87
544.48	41092.79
544.65	40832.99
544.82	40821.28
544.99	41284.71
545.16	41287.05
545.32	40694.89
545.49	41312.80
545.66	41375.99
545.83	41347.90
546.00	41455.57
546.16	41280.03
546.33	41055.34
546.50	41116.19
546.67	41530.47
546.83	40933.63
547.00	40947.67
547.17	41404.08
547.34	41483.66
547.50	41720.05
547.67	41460.25
547.84	41565.57
548.00	41907.29
548.17	42068.79
548.34	41965.81
548.51	42050.06
548.67	42089.85
548.84	41933.04
549.01	41785.58
549.18	41675.58
549.34	41523.44
549.51	42082.83
549.68	41668.56
549.84	41958.78
550.01	42522.85
550.18	41975.17
550.34	42183.48
550.51	42033.68
550.68	42630.52
550.84	42342.63
551.01	42618.81
551.18	42398.80
551.34	42256.03
551.51	42667.97
551.68	42380.08
551.84	42513.49
552.01	42206.88
552.18	42506.47
552.34	42131.98
552.51	42593.07
552.68	42330.93
552.84	42724.14
553.01	43021.39
553.18	42878.61
553.34	42583.71
553.51	42431.57
553.67	42628.18
553.84	42707.76
554.01	42993.30
554.17	42801.38
554.34	42862.23
554.51	42473.70
554.67	43498.86
554.84	42653.92
555.00	43021.39
555.17	42761.59
555.33	42876.27
555.50	42660.94
555.67	43145.44
555.83	42796.70
556.00	43012.02
556.16	43498.86
556.33	43157.14
556.50	43143.09
556.66	43482.47
556.83	43136.07
556.99	43332.68
557.16	43016.71
557.32	43412.26
557.49	43512.90
557.65	43194.59
557.82	43573.75
557.98	43583.12
558.15	43185.22
558.32	43545.67
558.48	43536.30
558.65	43496.52
558.81	43002.66
558.98	43367.79
559.14	43583.12
559.31	43353.74
559.47	43384.17
559.64	43639.29
559.80	43494.18
559.97	43529.28
560.13	42890.32
560.30	43393.53
560.46	43456.73
560.63	43545.67
560.79	43917.81
560.96	43650.99
561.12	43206.29
561.29	43901.43
561.45	43833.55
561.61	43716.53
561.78	43681.42
561.94	43454.39
562.11	43821.85
562.27	43524.60
562.44	43658.01
562.60	43536.30
562.77	44011.43
562.93	43578.43
563.10	44107.40
563.26	43323.32
563.42	43885.04
563.59	43538.65
563.75	43854.62
563.92	43840.57
564.08	44182.29
564.24	43906.11
564.41	44165.91
564.57	43948.24
564.74	44203.36
564.90	44208.04
565.07	43936.54
565.23	44053.56
565.39	44191.65
565.56	43927.17
565.72	43913.13
565.88	43744.61
566.05	43262.46
566.21	44112.08
566.38	43964.62
566.54	43966.96
566.70	44364.85
566.87	44975.73
567.03	44381.24
567.19	44444.43
567.36	44121.44
567.52	44388.26
567.68	44437.41
567.85	44367.20
568.01	44367.20
568.17	44224.42
568.34	44308.68
568.50	44109.74
568.66	43889.73
568.83	44514.65
568.99	44233.78
569.15	44004.41
569.32	43990.37
569.48	43842.92
569.64	44233.78
569.81	44528.69
569.97	44158.89
570.13	44556.78
570.30	44355.49
570.46	44282.94
570.62	43789.08
570.78	44004.41
570.95	44357.83
571.11	44704.23
571.27	44123.78
571.43	44027.82
571.60	44135.48
571.76	43964.62
571.92	44554.44
572.09	43859.30
572.25	44360.17
572.41	44243.15
572.57	44474.86
572.74	44992.12
572.90	44561.46
573.06	44542.74
573.22	44385.92
573.38	44545.08
573.55	44177.61
573.71	44336.77
573.87	44423.37
574.03	44617.63
574.20	44648.06
574.36	44210.38
574.52	44327.41
574.68	44339.11
574.84	44336.77
575.01	44392.94
575.17	44282.94
575.33	44481.88
575.49	43983.35
575.65	44781.47
575.82	44783.81
575.98	44987.44
576.14	44657.42
576.30	45270.64
576.46	44554.44
576.62	44453.79
576.79	44535.71
576.95	44367.20
577.11	44863.39
577.27	44432.73
577.43	44610.61
577.59	44645.72
577.75	44701.89
577.92	44137.82
578.08	44147.18
578.24	44210.38
578.40	44016.11
578.56	44725.30
578.72	44357.83
578.88	44931.26
579.04	44989.78
579.21	44484.22
579.37	44566.14
579.53	44285.28
579.69	44545.08
579.85	44690.19
580.01	44933.60
580.17	44928.92
580.33	44828.28
580.49	44687.85
580.65	44421.03
580.82	44786.15
580.98	44334.43
581.14	44495.92
581.30	45134.89
581.46	44837.64
581.62	44802.53
581.78	44872.75
581.94	44891.48
582.10	44699.55
582.26	44519.33
582.42	44940.63
582.58	44456.14
582.74	44449.11
582.90	44938.29
583.06	45125.53
583.22	45324.47
583.38	45109.14
583.54	45015.52
583.70	45097.44
583.86	44898.50
584.02	44451.45
584.18	44648.06
584.34	44547.42
584.50	44818.92
584.66	44622.31
584.82	44612.95
584.98	44952.33
585.14	44912.54
585.30	44732.32
585.46	44964.03
585.62	44858.71
585.78	44540.39
585.94	44041.86
586.10	44760.40
586.26	44762.75
586.42	44605.93
586.58	44957.01
586.74	44786.15
586.90	44645.72
587.06	44931.26
587.22	44350.81
587.38	44575.50
587.54	45038.93
587.70	44552.10
587.86	44905.52
588.02	44662.10
588.18	45076.38
588.34	44516.99
588.49	44458.48
588.65	43791.42
588.81	44137.82
588.97	44533.37
589.13	44093.35
589.29	44910.20
589.45	44437.41
589.61	44882.11
589.77	45111.49
589.93	44835.30
590.08	45041.27
590.24	44947.65
590.40	45102.12
590.56	45324.47
590.72	44622.31
590.88	44589.55
591.04	45305.75
591.20	45598.32
591.35	45324.47
591.51	45621.72
591.67	44793.17
591.83	45083.40
591.99	44706.57
592.15	44903.18
592.31	45165.32
592.46	45062.33
592.62	45020.20
592.78	45081.06
592.94	44992.12
593.10	44697.21
593.26	44933.60
593.41	45160.64
593.57	45141.91
593.73	44783.81
593.89	44847.00
594.05	44933.60
594.20	45287.03
594.36	45474.27
594.52	44809.56
594.68	44818.92
594.84	44598.91
594.99	45198.09
595.15	45174.68
595.31	45148.93
595.47	44823.60
595.62	44987.44
595.78	45146.59
595.94	45059.99
596.10	45172.34
596.25	45373.63
596.41	45392.35
596.57	44949.99
596.73	45474.27
596.88	44987.44
597.04	45193.40
597.20	44938.29
597.36	44982.76
597.51	45474.27
597.67	45139.57
597.83	45153.62
597.99	45598.32
598.14	45523.42
598.30	45055.31
598.46	45305.75
598.61	45043.61
598.77	44556.78
598.93	45045.95
599.09	44933.60
599.24	45820.67
599.40	45052.97
599.56	45207.45
599.71	45275.32
599.87	45275.32
600.03	45242.56
600.18	45010.84
600.34	44954.67
600.50	44687.85
600.65	44900.84
600.81	45394.69
600.97	45265.96
601.12	45078.72
601.28	45523.42
601.44	45467.25
601.59	44559.12
601.75	45069.36
601.91	45055.31
602.06	44971.05
602.22	45226.17
602.37	45200.43
602.53	45137.23
602.69	45359.58
602.84	44807.22
603.00	45521.08
603.16	44753.38
603.31	44924.24
603.47	45144.25
603.62	44980.42
603.78	45179.36
603.94	45272.98
604.09	45249.58
604.25	45411.07
604.40	44903.18
604.56	44809.56
604.71	45092.76
604.87	44973.39
605.03	44849.35
605.18	44980.42
605.34	45134.89
605.49	44737.00
605.65	44626.99
605.80	45059.99
605.96	45425.12
606.12	45181.70
606.27	44975.73
606.43	44816.58
606.58	44818.92
606.74	44856.37
606.89	45272.98
607.05	45193.40
607.20	44975.73
607.36	45097.44
607.51	44776.79
607.67	44409.32
607.82	44732.32
607.98	44619.97
608.13	44893.82
608.29	44828.28
608.44	44458.48
608.60	44699.55
608.75	44481.88
608.91	44189.31
609.06	44301.66
609.22	44292.30
609.37	44369.54
609.53	45062.33
609.68	44392.94
609.84	44484.22
609.99	44648.06
610.15	44348.47
610.30	44266.55
610.46	44081.65
610.61	44463.16
610.76	44722.96
610.92	44992.12
611.07	44802.53
611.23	44219.74
611.38	44299.32
611.54	44011.43
611.69	44371.88
611.84	43997.39
612.00	44069.95
612.15	44306.34
612.31	44261.87
612.46	44079.31
612.62	44053.56
612.77	44472.52
612.92	44781.47
613.08	43934.20
613.23	44477.20
613.39	44175.27
613.54	44254.85
613.69	44348.47
613.85	44025.48
614.00	44135.48
614.15	44573.16
614.31	44114.42
614.46	44264.21
614.62	44488.90
614.77	44086.33
614.92	44275.91
615.08	43952.92
615.23	43501.20
615.38	44098.03
615.54	43592.48
615.69	43868.66
615.84	44074.63
616.00	43962.28
616.15	43988.03
616.30	43824.19
616.46	43676.74
616.61	43587.80
616.76	43753.97
616.92	43768.02
617.07	43562.05
617.22	43278.85
617.37	43725.89
617.53	43545.67
617.68	43873.34
617.83	43700.14
617.99	43859.30
618.14	43711.84
618.29	43548.01
618.45	43154.80
618.60	43438.00
618.75	43751.63
618.90	43082.24
619.06	43625.25
619.21	43510.56
619.36	43723.55
619.51	43157.14
619.67	43180.54
619.82	43639.29
619.97	43372.47
620.12	42927.77
620.28	43402.89
620.43	43232.04
620.58	43325.66
620.73	43091.60
620.89	43346.72
621.04	43138.41
621.19	43374.81
621.34	43243.74
621.49	43173.52
621.65	42852.87
621.80	43145.44
621.95	42604.77
622.10	43012.02
622.25	42665.63
622.41	42464.34
622.56	42625.84
622.71	42892.66
622.86	42714.78
623.01	42618.81
623.16	42777.97
623.32	42590.73
623.47	42742.86
623.62	42574.34
623.77	42305.18
623.92	43040.11
624.07	42705.41
624.23	42548.60
624.38	42618.81
624.53	42443.27
624.68	42401.14
624.83	42344.97
624.98	42260.71
625.13	42260.71
625.29	42574.34
625.44	42302.84
625.59	41483.66
625.74	42127.30
625.89	42141.35
626.04	41825.37
626.19	42291.14
626.34	41790.27
626.49	41783.24
626.65	41982.19
626.80	42295.82
626.95	42171.77
627.10	41823.03
627.25	41846.44
627.40	41862.82
627.55	41851.12
627.70	41521.10
627.85	42012.62
628.00	41811.33
628.15	41792.61
628.30	41521.10
628.45	41890.91
628.60	41848.78
628.76	41626.43
628.91	41902.61
629.06	41881.55
629.21	41401.74
629.36	41394.71
629.51	41516.42
629.66	41553.87
629.81	41404.08
629.96	41481.31
630.11	41469.61
630.26	41645.15
630.41	41659.20
630.56	41659.20
630.71	41399.40
630.86	41486.00
631.01	41230.88
631.16	41209.81
631.31	41256.62
631.46	41319.82
631.61	41411.10
631.76	41001.50
631.91	41062.36
632.06	41256.62
632.21	41776.22
632.36	41518.76
632.51	40919.59
632.66	41184.07
632.81	40285.30
632.96	40776.81
633.10	40793.20
633.25	41153.64
633.40	41106.83
633.55	41315.14
633.70	40793.20
633.85	40678.51
634.00	41113.85
634.15	40779.15
634.30	40638.72
634.45	40673.83
634.60	40769.79
634.75	41034.27
634.90	40545.10
635.05	40589.57
635.19	40299.34
635.34	40521.69
635.49	40336.79
635.64	40591.91
635.79	40446.80
635.94	40634.04
636.09	40821.28
636.24	40142.53
636.39	40149.55
636.53	40208.06
636.68	40158.91
636.83	40229.13
636.98	40383.60
637.13	40051.25
637.28	40631.70
637.43	40245.51
637.57	40184.66
637.72	39896.77
637.87	39810.17
638.02	40205.72
638.17	40198.70
638.32	40062.95
638.46	39522.29
638.61	39620.59
638.76	39824.22
638.91	40243.17
639.06	39791.45
639.20	39999.76
639.35	40395.31
639.50	40226.79
639.65	40023.16
639.80	40217.43
639.94	39667.40
640.09	40048.91
640.24	39559.73
640.39	39402.92
640.54	39737.62
640.68	39325.68
640.83	39700.17
640.98	39110.35
641.13	39360.79
641.27	39775.06
641.42	39728.25
641.57	39330.36
641.72	39374.83
641.86	39428.66
642.01	39318.66
642.16	38885.66
642.31	39159.50
642.45	39168.87
642.60	39077.58
642.75	39313.98
642.90	39288.23
643.04	39049.50
643.19	38899.70
643.34	39402.92
643.48	39089.29
643.63	38815.44
643.78	39164.18
643.93	38707.78
644.07	38962.90
644.22	38972.26
644.37	38955.88
644.51	38579.05
644.66	39007.37
644.81	39070.56
644.95	38855.23
645.10	39274.19
645.25	39103.33
645.39	38733.53
645.54	38897.36
645.69	38785.02
645.83	38862.26
645.98	38667.99
646.13	38958.22
646.27	38536.92
646.42	38473.73
646.57	38368.40
646.71	38785.02
646.86	38869.28
647.00	38946.51
647.15	38824.81
647.30	38635.22
647.44	38466.70
647.59	38675.01
647.74	38457.34
647.88	38705.44
648.03	38412.87
648.17	38452.66
648.32	38359.04
648.47	38405.85
648.61	38440.96
648.76	38359.04
648.90	38330.95
649.05	38511.17
649.20	38146.05
649.34	38543.94
649.49	38323.93
649.63	38108.60
649.78	38014.98
649.92	38005.62
650.07	38581.39
650.21	38005.62
650.36	38155.41
650.51	38068.81
650.65	38686.71
650.80	38581.39
650.94	38637.56
651.09	37970.51
651.23	38073.49
651.38	38120.31
651.52	37724.75
651.67	37544.53
651.81	37893.27
651.96	37684.97
652.10	37490.70
652.25	37525.81
652.39	37607.73
652.54	37853.48
652.68	37581.98
652.83	37940.08
652.97	37846.46
653.12	37450.91
653.26	37434.53
653.41	37469.64
653.55	37528.15
653.70	37258.99
653.84	37429.85
653.99	37479.00
654.13	37682.62
654.27	37661.56
654.42	37223.88
654.56	37219.20
654.71	37418.14
654.85	37378.36
655.00	37219.20
655.14	37001.53
655.29	36825.99
655.43	36727.69
655.57	37034.30
655.72	36975.78
655.86	36840.03
656.01	36664.49
656.15	36519.38
656.30	36739.39
656.44	36753.43
656.58	36308.73
656.73	36748.75
656.87	36676.19
657.01	36535.76
657.16	36868.12
657.30	36678.54
657.45	36470.23
657.59	36648.11
657.73	36392.99
657.88	37053.02
658.02	37048.34
658.16	36671.51
658.31	36381.29
658.45	36713.64
658.60	36650.45
658.74	36500.65
658.88	36074.68
659.03	36376.61
659.17	36329.80
659.31	36446.82
659.46	36273.62
659.60	36512.36
659.74	36224.47
659.89	36374.27
660.03	35913.18
660.17	36208.09
660.32	35931.90
660.46	36105.10
660.60	35948.29
660.74	35798.49
660.89	35906.16
661.03	35828.92
661.17	35697.85
661.32	35454.44
661.46	35229.74
661.60	35152.51
661.74	35674.45
661.89	35360.81
662.03	35644.02
662.17	35150.17
662.31	35395.92
662.46	35363.15
662.60	35239.11
662.74	35440.39
662.88	35040.16
663.03	34850.58
663.17	34892.71
663.31	34902.07
663.45	34881.00
663.60	34639.93
663.74	34888.03
663.88	34668.02
664.02	34536.94
664.17	34899.73
664.31	34455.03
664.45	34859.94
664.59	34326.30
664.73	34054.79
664.88	34321.62
665.02	34239.70
665.16	34623.54
665.30	34417.58
665.44	34286.51
665.59	34256.08
665.73	34515.88
665.87	34089.90
666.01	34541.63
666.15	34143.74
666.29	34291.19
666.44	34057.14
666.58	34146.08
666.72	33619.46
666.86	33977.56
667.00	34485.45
667.14	33319.87
667.28	33556.26
667.43	33539.88
667.57	33649.88
667.71	33287.10
667.85	33656.90
667.99	33472.00
668.13	33441.57
668.27	33399.44
668.41	33582.01
668.56	33006.23
668.70	33429.87
668.84	33064.75
668.98	33139.65
669.12	33228.59
669.26	32603.66
669.40	32622.39
669.54	32929.00
669.68	32620.05
669.82	32636.43
669.96	32678.56
670.10	32659.84
670.25	32594.30
670.39	32903.25
670.53	32219.81
670.67	32313.44
670.81	32414.08
670.95	32332.16
671.09	32151.94
671.23	32512.38
671.37	32388.33
671.51	32311.10
671.65	31496.59
671.79	31896.82
671.93	31967.04
672.07	31768.09
672.21	32184.71
672.35	31793.84
672.49	31702.56
672.63	31810.22
672.77	31342.11
672.91	31285.94
673.05	31234.45
673.19	31639.36
673.33	31035.50
673.47	31189.98
673.61	31302.32
673.75	30796.77
673.89	30665.70
674.03	30719.53
674.17	30551.01
674.31	30836.56
674.45	30955.93
674.59	30897.41
674.73	30625.91
674.87	30525.27
675.01	30614.21
675.15	30190.57
675.29	30574.42
675.43	30286.53
675.56	30263.13
675.70	29979.92
675.84	30038.44
675.98	29174.78
676.12	29729.48
676.26	30375.47
676.40	29879.28
676.54	29982.26
676.68	29844.17
676.82	29380.74
676.96	29699.06
677.10	29771.61
677.23	29425.22
677.37	29500.11
677.51	29111.58
677.65	29053.07
677.79	28538.15
677.93	28840.08
678.07	28847.10
678.21	28512.41
678.34	28409.42
678.48	28135.58
678.62	27981.10
678.76	28311.12
678.90	28032.60
679.04	27733.01
679.18	28180.05
679.31	27744.71
679.45	27791.52
679.59	27454.48
679.73	27222.77
679.87	27660.45
680.00	27360.86
680.14	27339.80
680.28	27295.33
680.42	27321.07
680.56	27248.52
680.70	27328.10
680.83	27173.62
680.97	27129.15
681.11	27091.70
681.25	26764.03
681.39	26529.97
681.52	26508.91
681.66	26745.30
681.80	26225.70
681.94	26452.73
682.07	26534.65
682.21	26015.05
682.35	26019.74
682.49	26092.29
682.62	26101.65
682.76	25738.87
682.90	25963.56
683.04	25715.47
683.17	25748.23
683.31	25291.83
683.45	25488.43
683.59	25186.50
683.72	25378.43
683.86	24964.15
684.00	25076.50
684.13	25181.82
684.27	25013.31
684.41	24816.70
684.55	25120.97
684.68	24655.20
684.82	24570.94
684.96	24816.70
685.09	24512.43
685.23	24353.27
685.37	24484.34
685.50	24496.05
685.64	24367.32
685.78	23917.93
685.91	23819.63
686.05	23896.87
686.19	23398.34
686.32	23620.69
686.46	23496.64
686.60	23257.90
686.73	23070.66
686.87	23122.15
687.01	23094.07
687.14	22878.74
687.28	22679.79
687.42	22874.06
687.55	22583.83
687.69	22857.67
687.82	22780.43
687.96	23026.19
688.10	22841.29
688.23	22827.24
688.37	22031.46
688.50	21986.99
688.64	22324.03
688.78	22265.52
688.91	22052.53
689.05	21986.99
689.18	21926.14
689.32	21748.26
689.46	21867.63
689.59	21994.01
689.73	21933.16
689.86	21781.03
690.00	21577.40
690.13	21486.12
690.27	21240.36
690.41	21287.17
690.54	20947.79
690.68	20683.31
690.81	20989.92
690.95	20798.00
691.08	20996.95
691.22	21029.71
691.35	20886.94
691.49	20475.01
691.62	20702.04
691.76	20453.94
691.89	20102.86
692.03	20388.41
692.16	20367.34
692.30	20177.76
692.43	19929.66
692.57	19976.47
692.70	19793.91
692.84	19857.10
692.97	19700.29
693.11	19580.92
693.24	19627.73
693.38	19506.02
693.51	19531.77
693.65	19463.90
693.78	19627.73
693.92	19590.28
694.05	19236.86
694.19	18857.70
694.32	19213.46
694.45	18747.69
694.59	18670.45
694.72	18544.06
694.86	18609.60
694.99	18663.43
695.13	18696.20
695.26	18527.68
695.39	17923.82
695.53	18242.14
695.66	18462.15
695.80	18099.36
695.93	18209.37
696.07	18097.02
696.20	18085.32
696.33	17832.54
696.47	18071.28
696.60	17589.13
696.73	17640.62
696.87	17528.27
697.00	17642.96
697.14	17373.80
697.27	17444.01
697.40	17415.93
697.54	17242.73
697.67	17195.92
697.80	17216.98
697.94	17090.59
698.07	16933.78
698.21	16599.08
698.34	16772.28
698.47	16587.38
698.61	16161.40
698.74	16442.26
698.87	16514.82
699.01	15974.16
699.14	16156.72
699.27	16339.28
699.40	15807.98
699.54	15831.38
699.67	15901.60
699.80	15735.42
699.94	15939.05
700.07	15908.62
700.20	15569.24
700.34	15508.39
700.47	15878.19
700.60	15796.28
700.73	15822.02
700.87	15712.02
701.00	15239.23
701.13	15391.36
701.26	15316.47
701.40	15232.21
701.53	15061.35
701.66	15119.86
701.79	14970.07
701.93	15035.60
702.06	15145.61
702.19	14874.10
702.32	14871.76
702.46	14775.80
702.59	14607.28
702.72	14562.81
702.85	14530.05
702.99	14443.45
703.12	14384.93
703.25	14211.73
703.38	14445.79
703.51	14310.04
703.65	14305.35
703.78	14118.11
703.91	14099.39
704.04	13818.52
704.17	13729.58
704.31	13949.59
704.44	13584.47
704.57	13951.93
704.70	13568.09
704.83	13530.64
704.96	13551.70
705.10	13549.36
705.23	13537.66
>>>>>End Processed Spectral Data<<<<<
