SpectraSuite Data File
++++++++++++++++++++++++++++++++++++
Date: Fri Oct 25 10:47:07 EDT 2013
User: price-jones
Dark Spectrum Present: No
Reference Spectrum Present: No
Number of Sampled Component Spectra: 1
Spectrometers: USB2+H05261
Integration Time (usec): 100000 (USB2+H05261)
Spectra Averaged: 1 (USB2+H05261)
Boxcar Smoothing: 0 (USB2+H05261)
Correct for Electrical Dark: No (USB2+H05261)
Strobe/Lamp Enabled: No (USB2+H05261)
Correct for Detector Non-linearity: No (USB2+H05261)
Correct for Stray Light: No (USB2+H05261)
Number of Pixels in Processed Spectrum: 2048
>>>>>Begin Processed Spectral Data<<<<<
365.73	86.60
365.92	86.60
366.12	86.60
366.32	93.62
366.52	49.15
366.72	117.03
366.91	63.19
367.11	32.77
367.31	9.36
367.51	72.56
367.70	74.90
367.90	18.72
368.10	0.00
368.30	0.00
368.49	30.43
368.69	42.13
368.89	35.11
369.09	18.72
369.28	98.30
369.48	65.54
369.68	49.15
369.87	133.41
370.07	166.18
370.27	217.67
370.47	187.24
370.66	344.06
370.86	372.15
371.06	416.62
371.25	449.38
371.45	444.70
371.65	456.40
371.84	393.21
372.04	425.98
372.24	477.47
372.44	517.26
372.63	470.45
372.83	498.53
373.03	507.90
373.22	477.47
373.42	411.93
373.62	447.04
373.81	587.47
374.01	554.71
374.21	575.77
374.40	547.69
374.60	543.00
374.79	514.92
374.99	601.52
375.19	545.34
375.38	585.13
375.58	535.98
375.78	620.24
375.97	557.05
376.17	643.65
376.37	500.87
376.56	589.82
376.76	610.88
376.95	617.90
377.15	622.58
377.35	566.41
377.54	554.71
377.74	557.05
377.93	559.39
378.13	629.60
378.33	662.37
378.52	669.39
378.72	564.07
378.91	587.47
379.11	634.29
379.31	636.63
379.50	557.05
379.70	603.86
379.89	610.88
380.09	664.71
380.28	678.76
380.48	648.33
380.68	685.78
380.87	683.44
381.07	608.54
381.26	667.05
381.46	685.78
381.65	716.20
381.85	690.46
382.04	638.97
382.24	653.01
382.43	582.79
382.63	655.35
382.83	655.35
383.02	688.12
383.22	690.46
383.41	716.20
383.61	683.44
383.80	791.10
384.00	737.27
384.19	674.07
384.39	678.76
384.58	648.33
384.78	823.87
384.97	758.33
385.17	760.67
385.36	805.14
385.56	767.70
385.75	727.91
385.95	734.93
386.14	741.95
386.34	770.04
386.53	784.08
386.72	844.93
386.92	882.38
387.11	851.96
387.31	716.20
387.50	863.66
387.70	763.01
387.89	830.89
388.09	863.66
388.28	830.89
388.48	702.16
388.67	830.89
388.86	905.79
389.06	840.25
389.25	894.08
389.45	936.21
389.64	835.57
389.84	889.40
390.03	894.08
390.22	908.13
390.42	929.19
390.61	905.79
390.81	858.98
391.00	954.94
391.19	1011.11
391.39	1015.79
391.58	978.34
391.78	1027.50
391.97	894.08
392.16	994.73
392.36	966.64
392.55	931.53
392.75	1022.81
392.94	954.94
393.13	971.32
393.33	938.55
393.52	919.83
393.71	997.07
393.91	971.32
394.10	1004.09
394.29	1043.88
394.49	1064.94
394.68	1036.86
394.88	1043.88
395.07	1130.48
395.26	1060.26
395.46	1069.62
395.65	1109.41
395.84	1064.94
396.04	1172.61
396.23	1090.69
396.42	1039.20
396.62	1088.35
396.81	1121.12
397.00	1184.31
397.19	1130.48
397.39	1196.01
397.58	1165.59
397.77	1270.91
397.97	1135.16
398.16	1242.82
398.35	1238.14
398.55	1259.21
398.74	1338.79
398.93	1313.04
399.12	1315.38
399.32	1287.29
399.51	1324.74
399.70	1359.85
399.90	1299.00
400.09	1430.07
400.28	1373.89
400.47	1338.79
400.67	1364.53
400.86	1329.42
401.05	1416.02
401.24	1441.77
401.44	1467.52
401.63	1341.13
401.82	1455.81
402.01	1444.11
402.21	1434.75
402.40	1404.32
402.59	1423.05
402.78	1451.13
402.97	1472.20
403.17	1497.94
403.36	1577.52
403.55	1490.92
403.74	1593.90
403.93	1624.33
404.13	1661.78
404.32	1619.65
404.51	1523.69
404.70	1528.37
404.89	1671.14
405.09	1680.50
405.28	1645.40
405.47	1727.32
405.66	1582.20
405.85	1734.34
406.05	1750.72
406.24	1687.53
406.43	1762.42
406.62	1701.57
406.81	1956.69
407.00	1799.87
407.20	1797.53
407.39	1802.21
407.58	1860.73
407.77	1844.34
407.96	1991.80
408.15	1928.60
408.34	1937.96
408.54	1888.81
408.73	1963.71
408.92	2045.63
409.11	1996.48
409.30	2045.63
409.49	1830.30
409.68	2040.95
409.87	1973.07
410.07	2113.50
410.26	2038.61
410.45	2029.24
410.64	2106.48
410.83	2221.17
411.02	2122.87
411.21	2188.40
411.40	2249.25
411.59	2328.83
411.78	2321.81
411.98	2167.34
412.17	2279.68
412.36	2256.28
412.55	2312.45
412.74	2352.24
412.93	2415.43
413.12	2410.75
413.31	2476.29
413.50	2478.63
413.69	2408.41
413.88	2576.93
414.07	2539.48
414.26	2567.57
414.45	2527.78
414.64	2675.23
414.83	2560.55
415.02	2679.91
415.22	2675.23
415.41	2661.19
415.60	2677.57
415.79	2759.49
415.98	2775.88
416.17	2871.84
416.36	2775.88
416.55	2703.32
416.74	2967.80
416.93	2801.62
417.12	2775.88
417.31	3005.25
417.50	2839.07
417.69	3042.70
417.88	2995.89
418.07	3089.51
418.26	3098.87
418.45	3007.59
418.64	3061.42
418.83	3054.40
419.02	3068.44
419.21	3314.20
419.39	3220.58
419.58	3208.87
419.77	3077.80
419.96	3220.58
420.15	3166.74
420.34	3215.90
420.53	3138.66
420.72	3372.71
420.91	3449.95
421.10	3297.81
421.29	3419.52
421.48	3426.54
421.67	3424.20
421.86	3243.98
422.05	3302.50
422.24	3389.10
422.43	3492.08
422.61	3419.52
422.80	3433.57
422.99	3513.14
423.18	3368.03
423.37	3623.15
423.56	3576.34
423.75	3510.80
423.94	3412.50
424.13	3166.74
424.32	3300.16
424.50	3583.36
424.69	3524.85
424.88	3578.68
425.07	3433.57
425.26	3438.25
425.45	3349.31
425.64	3581.02
425.83	3412.50
426.01	3590.38
426.20	3531.87
426.39	3506.12
426.58	3588.04
426.77	3527.19
426.96	3543.57
427.15	3471.01
427.33	3709.75
427.52	3768.26
427.71	3723.79
427.90	3646.55
428.09	3684.00
428.28	3653.58
428.46	3637.19
428.65	3786.99
428.84	3878.27
429.03	3906.35
429.22	3789.33
429.40	3852.52
429.59	3705.07
429.78	3660.60
429.97	3571.66
430.16	3599.74
430.34	3794.01
430.53	3871.25
430.72	4011.68
430.91	3847.84
431.10	3843.16
431.28	3955.51
431.47	3929.76
431.66	4051.47
431.85	3974.23
432.03	4100.62
432.22	4093.60
432.41	4114.66
432.60	4056.15
432.79	4124.02
432.97	4250.41
433.16	4168.49
433.35	4163.81
433.54	4131.05
433.72	4290.20
433.91	4269.14
434.10	4184.88
434.28	4273.82
434.47	4332.33
434.66	4231.69
434.85	4395.53
435.03	4390.84
435.22	4461.06
435.41	4400.21
435.59	4582.77
435.78	4374.46
435.97	4425.95
436.16	4528.94
436.34	4395.53
436.53	4645.96
436.72	4629.58
436.90	4587.45
437.09	4599.15
437.28	4498.51
437.46	4674.05
437.65	4496.17
437.84	4526.60
438.02	4725.54
438.21	4660.01
438.40	4554.68
438.58	4795.76
438.77	4884.70
438.96	4877.68
439.14	4898.74
439.33	5008.75
439.52	5001.72
439.70	4978.32
439.89	5001.72
440.08	5011.09
440.26	4938.53
440.45	5212.37
440.63	5156.20
440.82	5458.13
441.01	5085.98
441.19	5240.46
441.38	5277.91
441.57	5362.17
441.75	5460.47
441.94	5486.22
442.12	5472.17
442.31	5535.37
442.50	5621.97
442.68	5575.16
442.87	5535.37
443.05	5715.59
443.24	5687.50
443.43	5797.51
443.61	5647.71
443.80	5884.11
443.98	5568.13
444.17	5507.28
444.35	5788.14
444.54	5820.91
444.73	5827.93
444.91	5741.33
445.10	5657.07
445.28	5729.63
445.47	5671.12
445.65	5715.59
445.84	5858.36
446.02	5771.76
446.21	5743.67
446.39	5699.20
446.58	5853.68
446.77	5851.34
446.95	5797.51
447.14	5706.23
447.32	6195.40
447.51	5870.06
447.69	5783.46
447.88	5865.38
448.06	5858.36
448.25	5937.94
448.43	6033.90
448.62	6054.97
448.80	5804.53
448.99	6064.33
449.17	5994.11
449.36	5902.83
449.54	6193.06
449.73	6314.77
449.91	6286.68
450.10	6218.80
450.28	6424.77
450.46	6443.49
450.65	6345.19
450.83	6246.89
451.02	6345.19
451.20	6387.32
451.39	6527.75
451.57	6333.49
451.76	6359.24
451.94	6434.13
452.13	6384.98
452.31	6511.37
452.49	6317.11
452.68	6396.68
452.86	6392.00
453.05	6429.45
453.23	6492.65
453.42	6244.55
453.60	6457.54
453.78	6497.33
453.97	6544.14
454.15	6555.84
454.34	6483.28
454.52	6663.51
454.70	6682.23
454.89	6558.18
455.07	6616.69
455.26	6614.35
455.44	6771.17
455.62	6686.91
455.81	6722.02
455.99	6862.45
456.17	6942.03
456.36	6986.50
456.54	7042.67
456.73	6986.50
456.91	7171.40
457.09	7274.38
457.28	7290.77
457.46	7204.17
457.64	7220.55
457.83	6974.80
458.01	7183.10
458.19	7227.57
458.38	7089.48
458.56	7400.77
458.74	7307.15
458.93	7239.28
459.11	7265.02
459.29	7309.49
459.48	7323.54
459.66	7279.07
459.84	7435.88
460.03	7564.61
460.21	7370.35
460.39	7571.63
460.57	7545.89
460.76	7566.95
460.94	7609.08
461.12	7693.34
461.31	7798.66
461.49	7625.47
461.67	7485.03
461.85	7772.92
462.04	7716.75
462.22	8250.39
462.40	7981.23
462.59	7796.32
462.77	7798.66
462.95	7889.95
463.13	7873.56
463.32	8124.00
463.50	7936.76
463.68	8021.02
463.86	8070.17
464.05	7756.54
464.23	7911.01
464.41	8196.56
464.59	7714.41
464.78	8266.77
464.96	8067.83
465.14	8093.57
465.32	8128.68
465.50	8411.89
465.69	8241.03
465.87	8395.50
466.05	8369.76
466.23	8318.26
466.41	8372.10
466.60	8294.86
466.78	8156.77
466.96	8308.90
467.14	8397.84
467.32	8379.12
467.51	8514.87
467.69	8168.47
467.87	8222.30
468.05	8465.72
468.23	8329.97
468.41	8428.27
468.60	8409.54
468.78	8791.05
468.96	8561.68
469.14	8540.61
469.32	8760.63
469.50	8526.57
469.69	8765.31
469.87	8720.84
470.05	8758.28
470.23	8631.90
470.41	8929.14
470.59	8975.95
470.77	8938.51
470.95	8992.34
471.14	8994.68
471.32	8950.21
471.50	9268.52
471.68	9228.73
471.86	9207.67
472.04	9427.68
472.22	9348.10
472.40	9212.35
472.58	9301.29
472.77	9312.99
472.95	9469.81
473.13	9678.12
473.31	9364.48
473.49	9441.72
473.67	9582.15
473.85	9657.05
474.03	9736.63
474.21	9942.60
474.39	9879.40
474.57	10012.81
474.75	9881.74
474.93	10052.60
475.12	9954.30
475.30	10143.88
475.48	9961.32
475.66	10281.97
475.84	10073.67
476.02	10260.91
476.20	10298.36
476.38	10579.22
476.56	10789.87
476.74	10693.91
476.92	10373.25
477.10	10656.46
477.28	10733.70
477.46	10656.46
477.64	10832.00
477.82	11133.93
478.00	11456.92
478.18	11140.95
478.36	11199.46
478.54	11375.00
478.72	11295.43
478.90	11562.25
479.08	11513.10
479.26	11702.68
479.44	11716.72
479.62	11819.71
479.80	11915.67
479.98	11974.18
480.16	11974.18
480.34	12269.09
480.52	12308.88
480.70	12353.35
480.88	12168.45
481.06	12538.25
481.24	12470.37
481.41	12542.93
481.59	12910.40
481.77	12915.08
481.95	13118.70
482.13	13355.10
482.31	13144.45
482.49	13275.52
482.67	13317.65
482.85	13544.68
483.03	13612.56
483.21	13851.29
483.39	13980.02
483.57	13790.44
483.74	14010.45
483.92	13994.06
484.10	13977.68
484.28	14239.82
484.46	14593.24
484.64	14679.84
484.82	14530.05
485.00	14689.20
485.18	14831.97
485.35	14984.11
485.53	14965.39
485.71	14600.26
485.89	15328.17
486.07	15152.63
486.25	15580.95
486.43	15632.44
486.61	15594.99
486.78	16020.97
486.96	15894.58
487.14	15894.58
487.32	15861.81
487.50	16161.40
487.68	16292.47
487.85	16648.23
488.03	16652.91
488.21	16709.08
488.39	16826.11
488.57	16823.77
488.75	17355.07
488.92	17451.03
489.10	17392.52
489.28	17671.04
489.46	17624.23
489.64	17783.39
489.81	18120.43
489.99	18094.68
490.17	18153.20
490.35	18391.93
490.53	18373.21
490.70	18515.98
490.88	18740.67
491.06	18817.91
491.24	18757.05
491.41	18878.76
491.59	18867.06
491.77	19187.71
491.95	19171.33
492.13	19662.84
492.30	19791.57
492.48	19697.95
492.66	19480.28
492.84	19896.89
493.01	20051.37
493.19	20161.37
493.37	20299.47
493.54	20484.37
493.72	20655.23
493.90	20390.75
494.08	20524.16
494.25	21008.65
494.43	21083.55
494.61	21221.64
494.79	21041.42
494.96	21200.57
495.14	21036.74
495.32	21472.07
495.49	21710.81
495.67	21795.07
495.85	21603.14
496.02	22094.66
496.20	22190.62
496.38	22263.18
496.55	22548.72
496.73	22611.92
496.91	22560.42
497.09	22427.01
497.26	22885.76
497.44	22789.80
497.62	22918.53
497.79	23381.95
497.97	23204.07
498.14	23285.99
498.32	23473.23
498.50	23459.19
498.67	23681.54
498.85	23992.83
499.03	23660.48
499.20	23751.76
499.38	23960.06
499.56	23807.93
499.73	24175.39
499.91	24233.91
500.08	23941.34
500.26	24313.48
500.44	24687.97
500.61	24439.87
500.79	24180.07
500.97	24655.20
501.14	24922.02
501.32	25097.56
501.49	24840.11
501.67	24809.68
501.84	25219.27
502.02	25172.46
502.20	25387.79
502.37	25523.54
502.55	25275.45
502.72	25671.00
502.90	25455.67
503.07	25345.66
503.25	25701.42
503.43	25797.38
503.60	26150.81
503.78	26253.79
503.95	25743.55
504.13	26235.06
504.30	26307.62
504.48	26373.16
504.65	26352.09
504.83	26787.43
505.01	26796.79
505.18	26944.25
505.36	27037.87
505.53	26679.77
505.71	26766.37
505.88	27281.28
506.06	26953.61
506.23	27325.75
506.41	27126.81
506.58	27314.05
506.76	27131.49
506.93	27452.14
507.11	27590.24
507.28	27431.08
507.46	27360.86
507.63	27704.92
507.81	27990.47
507.98	27742.37
508.16	27847.69
508.33	28631.77
508.50	28268.99
508.68	28257.29
508.85	28425.81
509.03	28320.48
509.20	28650.50
509.38	28556.88
509.55	28701.99
509.73	28734.76
509.90	29015.62
510.08	28713.69
510.25	28535.81
510.42	29088.18
510.60	28968.81
510.77	28950.09
510.95	29532.88
511.12	29247.33
511.30	29415.85
511.47	29687.36
511.64	29820.77
511.82	30005.67
511.99	29685.01
512.17	29914.39
512.34	29827.79
512.51	30143.76
512.69	30005.67
512.86	30237.38
513.04	30218.66
513.21	30328.66
513.38	30401.22
513.56	30312.28
513.73	30345.05
513.90	30639.95
514.08	30529.95
514.25	30546.33
514.43	30441.01
514.60	30700.81
514.77	30817.83
514.95	31253.17
515.12	31056.57
515.29	31290.62
515.47	31346.79
515.64	31597.23
515.81	31285.94
515.99	31182.96
516.16	31374.88
516.33	31339.77
516.51	31234.45
516.68	31835.97
516.85	31304.67
517.03	31580.85
517.20	31704.90
517.37	31824.26
517.54	32063.00
517.72	32102.79
517.89	32299.39
518.06	32137.90
518.24	31793.84
518.41	31854.69
518.58	32006.83
518.75	31988.10
518.93	32638.77
519.10	32393.01
519.27	32687.92
519.45	32662.18
519.62	32627.07
519.79	33139.65
519.96	32975.81
520.14	33254.33
520.31	33013.26
520.48	33099.86
520.65	32828.35
520.83	33427.53
521.00	33394.76
521.17	33280.08
521.34	33649.88
521.52	33593.71
521.69	33586.69
521.86	33600.73
522.03	33652.22
522.20	33647.54
522.38	33738.82
522.55	33729.46
522.72	33940.11
522.89	33949.47
523.07	34157.78
523.24	33916.70
523.41	34117.99
523.58	33684.99
523.75	34448.00
523.92	34298.21
524.10	34862.28
524.27	34419.92
524.44	34625.89
524.61	34539.29
524.78	34689.08
524.96	34890.37
525.13	35030.80
525.30	35119.74
525.47	35241.45
525.64	35068.25
525.81	35374.86
525.98	35056.54
526.16	34976.97
526.33	34829.51
526.50	35592.53
526.67	34897.39
526.84	35236.77
527.01	34991.01
527.18	35211.02
527.36	35271.87
527.53	35482.52
527.70	35941.27
527.87	35613.59
528.04	35426.35
528.21	35908.50
528.38	36180.00
528.55	36030.21
528.72	36147.23
528.89	36385.97
529.07	36346.18
529.24	35974.03
529.41	36091.06
529.58	36503.00
529.75	36315.75
529.92	37036.64
530.09	36486.61
530.26	36992.17
530.43	36608.32
530.60	36439.80
530.77	36561.51
530.94	36886.84
531.11	36629.38
531.28	36781.52
531.46	36636.41
531.63	37191.11
531.80	37240.26
531.97	36795.56
532.14	36856.42
532.31	37219.20
532.48	36978.12
532.65	37081.11
532.82	37029.62
532.99	37202.82
533.16	36795.56
533.33	37535.17
533.50	37448.57
533.67	37486.02
533.84	37603.05
534.01	37801.99
534.18	37589.00
534.35	37797.31
534.52	37745.82
534.69	38038.39
534.86	37825.40
535.03	37390.06
535.20	38431.60
535.37	38206.90
535.54	38288.82
535.71	37984.55
535.88	38211.59
536.05	38244.35
536.22	38314.57
536.38	38270.10
536.55	38389.47
536.72	38082.86
536.89	37900.29
537.06	38576.71
537.23	38499.47
537.40	38253.72
537.57	38614.16
537.74	38550.96
537.91	38979.28
538.08	38576.71
538.25	38476.07
538.42	38883.32
538.59	38836.51
538.75	38459.68
538.92	38808.42
539.09	39178.23
539.26	39311.64
539.43	38998.01
539.60	39208.65
539.77	38735.87
539.94	39026.09
540.11	39159.50
540.28	39332.70
540.44	39487.18
540.61	39016.73
540.78	38974.60
540.95	39309.30
541.12	39487.18
541.29	39178.23
541.46	39271.85
541.62	39494.20
541.79	39370.15
541.96	39332.70
542.13	39267.17
542.30	39508.24
542.47	39686.12
542.63	39512.92
542.80	39754.00
542.97	40107.42
543.14	40062.95
543.31	40385.94
543.48	39990.39
543.64	40669.15
543.81	40257.21
543.98	40238.49
544.15	40456.16
544.32	40388.28
544.48	40931.29
544.65	40620.00
544.82	40624.68
544.99	40278.28
545.16	40802.56
545.32	40502.97
545.49	40737.02
545.66	40935.97
545.83	40762.77
546.00	41275.35
546.16	40910.22
546.33	40701.92
546.50	40226.79
546.67	40938.31
546.83	40421.05
547.00	41038.95
547.17	40825.96
547.34	40989.80
547.50	40971.08
547.67	41291.73
547.84	41214.49
548.00	41291.73
548.17	41340.88
548.34	41326.84
548.51	41354.93
548.67	41493.02
548.84	41134.92
549.01	41450.89
549.18	41256.62
549.34	41495.36
549.51	41614.72
549.68	41677.92
549.84	41525.78
550.01	42146.03
550.18	41593.66
550.34	41628.77
550.51	41614.72
550.68	41469.61
550.84	41359.61
551.01	42033.68
551.18	41970.49
551.34	42021.98
551.51	41734.09
551.68	41607.70
551.84	41818.35
552.01	41879.21
552.18	42361.36
552.34	41956.44
552.51	42323.91
552.68	41778.56
552.84	42314.55
553.01	42167.09
553.18	42429.23
553.34	42026.66
553.51	42337.95
553.67	41982.19
553.84	42450.30
554.01	42373.06
554.17	42948.83
554.34	42969.90
554.51	42637.54
554.67	42892.66
554.84	42660.94
555.00	42253.69
555.17	42256.03
555.33	42548.60
555.50	42511.15
555.67	42564.98
555.83	42845.85
556.00	42646.90
556.16	43047.13
556.33	42728.82
556.50	43014.37
556.66	43000.32
556.83	42902.02
556.99	43058.84
557.16	43037.77
557.32	43105.65
557.49	42469.02
557.65	42349.65
557.82	42529.87
557.98	42674.99
558.15	42745.20
558.32	43122.03
558.48	43005.00
558.65	43040.11
558.81	43009.68
558.98	43229.69
559.14	43152.46
559.31	42726.48
559.47	43384.17
559.64	43295.23
559.80	43796.10
559.97	43332.68
560.13	42794.36
560.30	43269.48
560.46	43044.79
560.63	43372.47
560.79	43796.10
560.96	43351.40
561.12	43503.54
561.29	43316.29
561.45	43438.00
561.61	43793.76
561.78	43405.23
561.94	43161.82
562.11	43199.27
562.27	43164.16
562.44	43697.80
562.60	43728.23
562.77	43512.90
562.93	43461.41
563.10	43578.43
563.26	43019.05
563.42	43536.30
563.59	43466.09
563.75	43487.15
563.92	44133.14
564.08	43842.92
564.24	43129.05
564.41	43185.22
564.57	43866.32
564.74	43456.73
564.90	43868.66
565.07	43658.01
565.23	43735.25
565.39	43494.18
565.56	43604.18
565.72	43674.40
565.88	43732.91
566.05	43562.05
566.21	43730.57
566.38	43758.66
566.54	43491.83
566.70	44055.90
566.87	44048.88
567.03	44018.46
567.19	44226.76
567.36	43580.78
567.52	44037.18
567.68	44079.31
567.85	43522.26
568.01	43976.33
568.17	43412.26
568.34	44186.97
568.50	43721.21
568.66	44362.51
568.83	43948.24
568.99	43793.76
569.15	43856.96
569.32	44002.07
569.48	43791.42
569.64	44498.26
569.81	44341.45
569.97	43931.86
570.13	44126.12
570.30	43973.98
570.46	44147.18
570.62	43985.69
570.78	43920.15
570.95	43693.12
571.11	44591.89
571.27	43849.94
571.43	44055.90
571.60	44154.21
571.76	44081.65
571.92	43999.73
572.09	43913.13
572.25	44140.16
572.41	44273.57
572.57	43845.26
572.74	44266.55
572.90	44355.49
573.06	44020.80
573.22	44282.94
573.38	43936.54
573.55	43463.75
573.71	44533.37
573.87	43997.39
574.03	43749.29
574.20	44135.48
574.36	44282.94
574.52	44240.81
574.68	43955.26
574.84	44233.78
575.01	44013.77
575.17	43938.88
575.33	44404.64
575.49	44280.60
575.65	44383.58
575.82	44734.66
575.98	44360.17
576.14	44917.22
576.30	43966.96
576.46	44062.93
576.62	43990.37
576.79	44151.87
576.95	43545.67
577.11	44519.33
577.27	44629.34
577.43	44421.03
577.59	44385.92
577.75	44460.82
577.92	43945.90
578.08	44119.10
578.24	44039.52
578.40	43931.86
578.56	44201.02
578.72	44601.25
578.88	44493.58
579.04	44580.18
579.21	44500.61
579.37	44165.91
579.53	44231.44
579.69	44186.97
579.85	44030.16
580.01	44432.73
580.17	44470.18
580.33	44870.41
580.49	44563.80
580.65	44818.92
580.82	44596.57
580.98	44282.94
581.14	44203.36
581.30	44339.11
581.46	44414.01
581.62	44631.68
581.78	44294.64
581.94	44641.04
582.10	44687.85
582.26	44343.79
582.42	44470.18
582.58	44474.86
582.74	44318.04
582.90	44547.42
583.06	44964.03
583.22	44865.73
583.38	44650.40
583.54	44280.60
583.70	43765.68
583.86	44280.60
584.02	44027.82
584.18	44322.72
584.34	43976.33
584.50	44547.42
584.66	44589.55
584.82	44514.65
584.98	44582.52
585.14	44552.10
585.30	44215.06
585.46	44617.63
585.62	44547.42
585.78	44484.22
585.94	44619.97
586.10	44062.93
586.26	44313.36
586.42	44559.12
586.58	44928.92
586.74	44439.75
586.90	44589.55
587.06	44418.69
587.22	44411.67
587.38	44254.85
587.54	44521.67
587.70	44524.01
587.86	44559.12
588.02	44528.69
588.18	44638.70
588.34	44664.44
588.49	44343.79
588.65	44313.36
588.81	44030.16
588.97	44280.60
589.13	44360.17
589.29	44488.90
589.45	44914.88
589.61	44505.29
589.77	45022.54
589.93	44760.40
590.08	44378.90
590.24	44786.15
590.40	44790.83
590.56	44690.19
590.72	44720.62
590.88	44685.51
591.04	44774.45
591.20	45057.65
591.35	45326.81
591.51	45139.57
591.67	44734.66
591.83	44847.00
591.99	44697.21
592.15	44329.75
592.31	44505.29
592.46	45113.83
592.62	44428.05
592.78	45003.82
592.94	45120.85
593.10	44650.40
593.26	44985.10
593.41	44648.06
593.57	44912.54
593.73	44800.19
593.89	45333.84
594.05	44961.69
594.20	44493.58
594.36	44996.80
594.52	44671.46
594.68	44961.69
594.84	44800.19
594.99	45270.64
595.15	44189.31
595.31	45102.12
595.47	45146.59
595.62	44851.69
595.78	44889.13
595.94	45275.32
596.10	45097.44
596.25	44690.19
596.41	44933.60
596.57	44629.34
596.73	44634.02
596.88	45043.61
597.04	44830.62
597.20	44875.09
597.36	44460.82
597.51	45251.92
597.67	44739.34
597.83	45326.81
597.99	45387.67
598.14	45013.18
598.30	44580.18
598.46	44952.33
598.61	45024.89
598.77	44573.16
598.93	44919.56
599.09	44926.58
599.24	45446.18
599.40	45125.53
599.56	45228.51
599.71	45198.09
599.87	45563.21
600.03	44641.04
600.18	45244.90
600.34	45235.53
600.50	45186.38
600.65	45137.23
600.81	45064.67
600.97	45144.25
601.12	45268.30
601.28	45462.57
601.44	44987.44
601.59	44718.28
601.75	44814.24
601.91	44844.66
602.06	44729.98
602.22	44870.41
602.37	44563.80
602.53	45174.68
602.69	44952.33
602.84	45001.48
603.00	44973.39
603.16	44971.05
603.31	44900.84
603.47	44802.53
603.62	44694.87
603.78	45130.21
603.94	45118.51
604.09	45455.54
604.25	44790.83
604.40	44566.14
604.56	45029.57
604.71	45045.95
604.87	44549.76
605.03	45406.39
605.18	44802.53
605.34	45057.65
605.49	44692.53
605.65	44683.17
605.80	44535.71
605.96	45230.85
606.12	44734.66
606.27	45516.40
606.43	44935.95
606.58	45385.33
606.74	44809.56
606.89	44875.09
607.05	44722.96
607.20	44818.92
607.36	45052.97
607.51	45301.07
607.67	45296.39
607.82	44879.77
607.98	44484.22
608.13	44573.16
608.29	44369.54
608.44	44605.93
608.60	44540.39
608.75	44374.22
608.91	44322.72
609.06	44121.44
609.22	44882.11
609.37	44201.02
609.53	44472.52
609.68	44610.61
609.84	44758.06
609.99	44563.80
610.15	44935.95
610.30	44397.62
610.46	44449.11
610.61	44781.47
610.76	44292.30
610.92	44332.09
611.07	44229.10
611.23	44069.95
611.38	44058.24
611.54	44306.34
611.69	44079.31
611.84	44027.82
612.00	44156.55
612.15	43856.96
612.31	44168.25
612.46	44093.35
612.62	44107.40
612.77	44065.27
612.92	44289.96
613.08	44645.72
613.23	44168.25
613.39	44353.15
613.54	44121.44
613.69	43973.98
613.85	43835.89
614.00	44151.87
614.15	44009.09
614.31	44540.39
614.46	44502.95
614.62	44250.17
614.77	44114.42
614.92	44172.93
615.08	44224.42
615.23	43943.56
615.38	44023.14
615.54	43365.45
615.69	43742.27
615.84	43597.16
616.00	43700.14
616.15	43847.60
616.30	43981.01
616.46	43543.33
616.61	43335.02
616.76	43803.13
616.92	43489.49
617.07	43201.61
617.22	43248.42
617.37	43625.25
617.53	43927.17
617.68	43278.85
617.83	43718.87
617.99	43868.66
618.14	43714.19
618.29	43487.15
618.45	43086.92
618.60	43421.62
618.75	43576.09
618.90	43189.91
619.06	43655.67
619.21	43349.06
619.36	43650.99
619.51	43131.39
619.67	42960.53
619.82	43559.71
619.97	43433.32
620.12	43536.30
620.28	43150.12
620.43	42691.37
620.58	43000.32
620.73	42934.79
620.89	42789.67
621.04	43325.66
621.19	43122.03
621.34	42934.79
621.49	43328.00
621.65	42623.50
621.80	43021.39
621.95	43100.97
622.10	42787.33
622.25	42588.39
622.41	42499.45
622.56	42398.80
622.71	42899.68
622.86	42782.65
623.01	43107.99
623.16	42749.88
623.32	43138.41
623.47	43276.51
623.62	42820.10
623.77	42677.33
623.92	42562.64
624.07	42787.33
624.23	42260.71
624.38	42469.02
624.53	42703.07
624.68	42480.72
624.83	42401.14
624.98	42632.86
625.13	42312.20
625.29	42363.70
625.44	42333.27
625.59	41956.44
625.74	41820.69
625.89	41872.18
626.04	41893.25
626.19	42064.11
626.34	42841.17
626.49	42253.69
626.65	42120.28
626.80	42291.14
626.95	41851.12
627.10	41769.20
627.25	41928.36
627.40	41619.41
627.55	41481.31
627.70	41329.18
627.85	41242.58
628.00	41911.97
628.15	42436.25
628.30	41944.74
628.45	42113.26
628.60	42099.22
628.76	42202.20
628.91	41926.02
629.06	41825.37
629.21	41628.77
629.36	41242.58
629.51	41654.51
629.66	41333.86
629.81	41343.22
629.96	41551.53
630.11	41301.09
630.26	41333.86
630.41	41741.11
630.56	41439.18
630.71	41249.60
630.86	41495.36
631.01	41207.47
631.16	41298.75
631.31	41081.08
631.46	40870.43
631.61	41537.49
631.76	41235.56
631.91	41226.20
632.06	41153.64
632.21	41394.71
632.36	41258.96
632.51	41301.09
632.66	41605.36
632.81	40304.02
632.96	41310.46
633.10	40912.56
633.25	40517.01
633.40	40973.42
633.55	41235.56
633.70	41076.40
633.85	40526.38
634.00	41160.66
634.15	40444.46
634.30	40732.34
634.45	40634.04
634.60	40598.93
634.75	40615.32
634.90	40624.68
635.05	40584.89
635.19	40889.16
635.34	41127.89
635.49	40662.13
635.64	40568.51
635.79	40493.61
635.94	40313.39
636.09	40608.29
636.24	40304.02
636.39	40037.20
636.53	40079.33
636.68	39875.71
636.83	39889.75
636.98	40512.33
637.13	40236.15
637.28	40278.28
637.43	40165.93
637.57	40320.41
637.72	40208.06
637.87	40325.09
638.02	39903.79
638.17	40556.80
638.32	39899.11
638.46	39328.02
638.61	39594.84
638.76	39627.61
638.91	39665.06
639.06	40360.20
639.20	40048.91
639.35	40219.77
639.50	39782.09
639.65	40245.51
639.80	39983.37
639.94	39400.58
640.09	39784.43
640.24	39906.13
640.39	39505.90
640.54	39313.98
640.68	39421.64
640.83	39325.68
640.98	39545.69
641.13	39241.42
641.27	39627.61
641.42	39548.03
641.57	39634.63
641.72	39714.21
641.86	39110.35
642.01	38925.45
642.16	39328.02
642.31	38752.25
642.45	39285.89
642.60	38925.45
642.75	39215.68
642.90	39243.76
643.04	39346.75
643.19	39185.25
643.34	38815.44
643.48	39124.40
643.63	39051.84
643.78	38925.45
643.93	38869.28
644.07	38855.23
644.22	38642.24
644.37	38799.06
644.51	38686.71
644.66	39262.49
644.81	38873.96
644.95	38998.01
645.10	38745.23
645.25	39498.88
645.39	38890.34
645.54	39100.99
645.69	39070.56
645.83	38824.81
645.98	38906.73
646.13	38895.02
646.27	38923.11
646.42	38719.48
646.57	38871.62
646.71	38586.07
646.86	38705.44
647.00	38373.08
647.15	38567.35
647.30	38969.92
647.44	38541.60
647.59	38660.97
647.74	38684.37
647.88	38295.85
648.03	38387.13
648.17	38181.16
648.32	37923.70
648.47	38234.99
648.61	38251.38
648.76	38286.48
648.90	38295.85
649.05	38225.63
649.20	38253.72
649.34	38368.40
649.49	38038.39
649.63	38141.37
649.78	37914.34
649.92	38354.36
650.07	38410.53
650.21	38298.19
650.36	37986.89
650.51	37940.08
650.65	38667.99
650.80	38307.55
650.94	38366.06
651.09	38333.29
651.23	38316.91
651.38	37816.04
651.52	37820.72
651.67	37942.42
651.81	37998.60
651.96	37371.33
652.10	37717.73
652.25	37422.83
652.39	37809.01
652.54	37160.69
652.68	37591.34
652.83	38073.49
652.97	37530.49
653.12	37507.08
653.26	37673.26
653.41	37860.51
653.55	37350.27
653.70	37462.61
653.84	37387.72
653.99	37366.65
654.13	37378.36
654.27	37869.87
654.42	37376.01
654.56	37586.66
654.71	37216.86
654.85	37338.57
655.00	37471.98
655.14	37081.11
655.29	37240.26
655.43	37013.23
655.57	36762.79
655.72	37174.73
655.86	37186.43
656.01	37048.34
656.15	36919.61
656.30	37160.69
656.44	36767.48
656.58	36418.74
656.73	36479.59
656.87	36615.34
657.01	36851.73
657.16	36584.91
657.30	36587.25
657.45	36676.19
657.59	36821.31
657.73	36507.68
657.88	36814.29
658.02	36701.94
658.16	36622.36
658.31	37062.38
658.45	36624.70
658.60	36355.54
658.74	36353.20
658.88	36521.72
659.03	36334.48
659.17	36414.05
659.31	36259.58
659.46	35971.69
659.60	36432.78
659.74	35978.72
659.89	36095.74
660.03	36095.74
660.17	36517.04
660.32	35906.16
660.46	36055.95
660.60	36018.50
660.74	36023.19
660.89	36149.57
661.03	35597.21
661.17	35517.63
661.32	35278.89
661.46	35817.22
661.60	35316.34
661.74	35945.95
661.89	35379.54
662.03	35262.51
662.17	35498.91
662.31	35550.40
662.46	35405.28
662.60	35442.73
662.74	35150.17
662.88	35215.70
663.03	35112.72
663.17	35297.62
663.31	35271.87
663.45	35007.39
663.60	35157.19
663.74	34838.87
663.88	34663.33
664.02	34728.87
664.17	34756.96
664.31	34469.07
664.45	34714.83
664.59	34590.78
664.73	34976.97
664.88	34925.47
665.02	34455.03
665.16	34558.01
665.30	34239.70
665.44	34483.11
665.59	33846.49
665.73	34188.21
665.87	34064.16
666.01	33965.85
666.15	34017.35
666.29	34338.00
666.44	34143.74
666.58	33968.19
666.72	33890.96
666.86	34108.63
667.00	34239.70
667.14	33727.12
667.28	33729.46
667.43	33563.28
667.57	33303.48
667.71	33535.20
667.85	33357.32
667.99	33404.13
668.13	33081.13
668.27	33649.88
668.41	33589.03
668.56	33170.07
668.70	33132.62
668.84	33174.75
668.98	33259.01
669.12	33539.88
669.26	33469.66
669.40	32711.33
669.54	32809.63
669.68	33027.30
669.82	32982.83
669.96	32690.26
670.10	32687.92
670.25	32788.56
670.39	32603.66
670.53	32514.72
670.67	32411.74
670.81	32615.37
670.95	32531.11
671.09	32477.27
671.23	32046.62
671.37	32898.57
671.51	31981.08
671.65	31910.86
671.79	31871.07
671.93	31735.32
672.07	32004.49
672.21	31929.59
672.35	31957.67
672.49	31894.48
672.63	32156.62
672.77	32137.90
672.91	31477.86
673.05	31431.05
673.19	31517.65
673.33	31777.45
673.47	30843.58
673.61	31075.29
673.75	30663.36
673.89	31054.23
674.03	30721.87
674.17	30810.81
674.31	30918.48
674.45	31339.77
674.59	30899.75
674.73	31044.87
674.87	30513.56
675.01	30555.69
675.15	30862.30
675.29	30705.49
675.43	30511.22
675.56	30885.71
675.70	30464.41
675.84	30354.41
675.98	29252.02
676.12	29663.95
676.26	29998.65
676.40	29626.50
676.54	30022.05
676.68	29598.41
676.82	29259.04
676.96	29783.32
677.10	29345.64
677.23	29326.91
677.37	29493.09
677.51	29125.63
677.65	29481.39
677.79	28893.91
677.93	28898.59
678.07	28704.33
678.21	28699.65
678.34	28636.45
678.48	28247.93
678.62	28369.63
678.76	28407.08
678.90	28446.87
679.04	28027.92
679.18	28332.18
679.31	27887.48
679.45	27943.66
679.59	27796.20
679.73	27604.28
679.87	27555.13
680.00	27583.21
680.14	27363.20
680.28	27166.60
680.42	27204.05
680.56	27405.33
680.70	26998.08
680.83	27112.77
680.97	27220.43
681.11	27131.49
681.25	26719.56
681.39	26637.64
681.52	27080.00
681.66	26693.81
681.80	26733.60
681.94	26754.66
682.07	26735.94
682.21	26405.92
682.35	26415.29
682.49	26338.05
682.62	26300.60
682.76	25984.63
682.90	25537.59
683.04	25937.82
683.17	25958.88
683.31	25762.28
683.45	25802.07
683.59	25394.81
683.72	25481.41
683.86	25226.29
684.00	25184.16
684.13	25081.18
684.27	25205.23
684.41	25198.21
684.55	24940.75
684.68	24727.76
684.82	24919.68
684.96	24884.58
685.09	24783.93
685.23	24510.09
685.37	24381.36
685.50	24503.07
685.64	24489.03
685.78	24269.01
685.91	24056.03
686.05	23814.95
686.19	23536.43
686.32	23571.54
686.46	23637.07
686.60	23417.06
686.73	23723.67
686.87	23384.29
687.01	23566.85
687.14	23194.71
687.28	23068.32
687.42	22764.05
687.55	22794.48
687.69	22934.91
687.82	22979.38
687.96	22925.55
688.10	22422.33
688.23	22843.63
688.37	22359.14
688.50	22235.09
688.64	22136.79
688.78	22211.68
688.91	22354.46
689.05	22534.68
689.18	22111.04
689.32	21509.52
689.46	21766.98
689.59	22272.54
689.73	22281.90
689.86	21678.04
690.00	21603.14
690.13	21738.90
690.27	21455.69
690.41	21062.48
690.54	20915.03
690.68	21165.46
690.81	20996.95
690.95	20943.11
691.08	21149.08
691.22	20795.66
691.35	20872.90
691.49	21071.84
691.62	20659.91
691.76	20835.45
691.89	20664.59
692.03	20386.07
692.16	20107.54
692.30	20163.72
692.43	19967.11
692.57	19988.18
692.70	20163.72
692.84	20196.48
692.97	19922.64
693.11	19693.27
693.24	19552.84
693.38	19562.20
693.51	19302.40
693.65	19424.11
693.78	19510.71
693.92	19372.61
694.05	19286.01
694.19	19538.79
694.32	19126.86
694.45	19044.94
694.59	18902.17
694.72	18609.60
694.86	18834.29
694.99	18710.24
695.13	18766.42
695.26	18508.96
695.39	18244.48
695.53	18209.37
695.66	18293.63
695.80	18164.90
695.93	18059.57
696.07	17965.95
696.20	18230.43
696.33	17984.68
696.47	17652.32
696.60	17795.09
696.73	17907.44
696.87	17745.94
697.00	17685.09
697.14	17715.51
697.27	17535.29
697.40	17436.99
697.54	17507.21
697.67	17441.67
697.80	17341.03
697.94	17441.67
698.07	17008.67
698.21	16650.57
698.34	17221.66
698.47	17011.01
698.61	16453.97
698.74	16514.82
698.87	16772.28
699.01	16072.46
699.14	16381.41
699.27	16372.05
699.40	16217.57
699.54	15871.17
699.67	15985.86
699.80	16187.14
699.94	15960.11
700.07	15819.68
700.20	15950.75
700.34	15749.46
700.47	15922.66
700.60	16109.91
700.73	15899.26
700.87	15676.91
701.00	15571.58
701.13	15417.11
701.26	15527.11
701.40	15414.77
701.53	15566.90
701.66	15281.36
701.79	15138.58
701.93	15215.82
702.06	14885.81
702.19	14927.94
702.32	14703.25
702.46	14743.03
702.59	14656.43
702.72	14710.27
702.85	14628.35
702.99	14576.86
703.12	14417.70
703.25	14558.13
703.38	14274.93
703.51	14354.51
703.65	14228.12
703.78	14171.94
703.91	13949.59
704.04	14253.86
704.17	13802.14
704.31	13991.72
704.44	13699.16
704.57	13469.78
704.70	13593.83
704.83	13610.22
704.96	13479.15
705.10	13699.16
705.23	13678.09
>>>>>End Processed Spectral Data<<<<<
