SpectraSuite Data File
++++++++++++++++++++++++++++++++++++
Date: Fri Oct 25 10:44:02 EDT 2013
User: price-jones
Dark Spectrum Present: No
Reference Spectrum Present: No
Number of Sampled Component Spectra: 1
Spectrometers: USB2+H05261
Integration Time (usec): 100000 (USB2+H05261)
Spectra Averaged: 1 (USB2+H05261)
Boxcar Smoothing: 0 (USB2+H05261)
Correct for Electrical Dark: No (USB2+H05261)
Strobe/Lamp Enabled: No (USB2+H05261)
Correct for Detector Non-linearity: No (USB2+H05261)
Correct for Stray Light: No (USB2+H05261)
Number of Pixels in Processed Spectrum: 2048
>>>>>Begin Processed Spectral Data<<<<<
365.73	140.43
365.92	140.43
366.12	140.43
366.32	107.66
366.52	32.77
366.72	49.15
366.91	0.00
367.11	0.00
367.31	42.13
367.51	28.09
367.70	25.75
367.90	14.04
368.10	0.00
368.30	9.36
368.49	81.92
368.69	42.13
368.89	105.32
369.09	91.28
369.28	88.94
369.48	77.24
369.68	67.88
369.87	58.51
370.07	84.26
370.27	140.43
370.47	196.60
370.66	365.12
370.86	458.74
371.06	421.30
371.25	472.79
371.45	475.13
371.65	505.56
371.84	477.47
372.04	491.51
372.24	470.45
372.44	489.17
372.63	580.45
372.83	554.71
373.03	505.56
373.22	498.53
373.42	475.13
373.62	475.13
373.81	603.86
374.01	613.22
374.21	575.77
374.40	613.22
374.60	608.54
374.79	608.54
374.99	599.18
375.19	589.82
375.38	629.60
375.58	489.17
375.78	627.26
375.97	592.16
376.17	627.26
376.37	657.69
376.56	657.69
376.76	554.71
376.95	631.94
377.15	622.58
377.35	596.84
377.54	664.71
377.74	655.35
377.93	667.05
378.13	638.97
378.33	711.52
378.52	650.67
378.72	685.78
378.91	648.33
379.11	622.58
379.31	617.90
379.50	601.52
379.70	748.97
379.89	697.48
380.09	685.78
380.28	723.23
380.48	660.03
380.68	667.05
380.87	634.29
381.07	793.44
381.26	793.44
381.46	702.16
381.65	713.86
381.85	697.48
382.04	624.92
382.24	767.70
382.43	688.12
382.63	753.65
382.83	720.88
383.02	737.27
383.22	727.91
383.41	678.76
383.61	809.83
383.80	699.82
384.00	671.73
384.19	800.46
384.39	826.21
384.58	851.96
384.78	842.59
384.97	898.77
385.17	800.46
385.36	856.64
385.56	805.14
385.75	830.89
385.95	826.21
386.14	938.55
386.34	924.51
386.53	889.40
386.72	870.68
386.92	894.08
387.11	807.48
387.31	947.92
387.50	870.68
387.70	929.19
387.89	915.15
388.09	924.51
388.28	908.13
388.48	882.38
388.67	999.41
388.86	1022.81
389.06	1022.81
389.25	1027.50
389.45	1001.75
389.64	1039.20
389.84	1004.09
390.03	1086.01
390.22	1008.77
390.42	987.71
390.61	954.94
390.81	1111.75
391.00	1025.15
391.19	1067.28
391.39	1193.67
391.58	1036.86
391.78	1088.35
391.97	1069.62
392.16	1020.47
392.36	1121.12
392.55	1125.80
392.75	1100.05
392.94	968.98
393.13	978.34
393.33	1078.99
393.52	1217.08
393.71	1172.61
393.91	1029.84
394.10	1130.48
394.29	1167.93
394.49	1167.93
394.68	1289.64
394.88	1273.25
395.07	1322.40
395.26	1240.48
395.46	1245.16
395.65	1317.72
395.84	1219.42
396.04	1259.21
396.23	1224.10
396.42	1261.55
396.62	1240.48
396.81	1240.48
397.00	1284.95
397.19	1357.51
397.39	1423.05
397.58	1401.98
397.77	1392.62
397.97	1523.69
398.16	1460.49
398.35	1519.01
398.55	1455.81
398.74	1563.48
398.93	1542.41
399.12	1540.07
399.32	1568.16
399.51	1593.90
399.70	1605.61
399.90	1544.75
400.09	1626.67
400.28	1650.08
400.47	1563.48
400.67	1703.91
400.86	1748.38
401.05	1788.17
401.24	1764.76
401.44	1837.32
401.63	1771.79
401.82	1701.57
402.01	1729.66
402.21	1802.21
402.40	1809.23
402.59	1827.96
402.78	1851.36
402.97	1832.64
403.17	1865.41
403.36	1799.87
403.55	1881.79
403.74	1984.77
403.93	1884.13
404.13	1987.11
404.32	2001.16
404.51	1884.13
404.70	1947.33
404.89	1900.52
405.09	1970.73
405.28	2038.61
405.47	1998.82
405.66	2111.16
405.85	2090.10
406.05	2120.53
406.24	2050.31
406.43	2118.18
406.62	2064.35
406.81	2239.89
407.00	2040.95
407.20	2040.95
407.39	2153.29
407.58	2165.00
407.77	2221.17
407.96	2310.11
408.15	2375.64
408.34	2251.60
408.54	2342.88
408.73	2394.37
408.92	2347.56
409.11	2392.03
409.30	2445.86
409.49	2385.01
409.68	2324.15
409.87	2326.49
410.07	2300.75
410.26	2415.43
410.45	2417.77
410.64	2607.36
410.83	2670.55
411.02	2590.97
411.21	2731.41
411.40	2684.59
411.59	2658.85
411.78	2633.10
411.98	2649.49
412.17	2621.40
412.36	2752.47
412.55	2808.64
412.74	2747.79
412.93	2829.71
413.12	2827.37
413.31	2991.20
413.50	2836.73
413.69	2963.12
413.88	2984.18
414.07	2956.10
414.26	2979.50
414.45	3052.06
414.64	2991.20
414.83	3211.22
415.02	3178.45
415.22	3166.74
415.41	3138.66
415.60	3180.79
415.79	3246.32
415.98	3323.56
416.17	3323.56
416.36	3337.60
416.55	3276.75
416.74	3351.65
416.93	3346.97
417.12	3318.88
417.31	3377.39
417.50	3541.23
417.69	3618.47
417.88	3562.30
418.07	3405.48
418.26	3590.38
418.45	3524.85
418.64	3691.02
418.83	3644.21
419.02	3707.41
419.21	3819.75
419.39	3646.55
419.58	3765.92
419.77	3700.39
419.96	3838.48
420.15	3889.97
420.34	3761.24
420.53	3904.01
420.72	3791.67
420.91	4016.36
421.10	3969.55
421.29	4077.21
421.48	3875.93
421.67	3899.33
421.86	3829.12
422.05	3885.29
422.24	3925.08
422.43	3992.95
422.61	4046.79
422.80	4074.87
422.99	4053.81
423.18	4112.32
423.37	4128.70
423.56	4060.83
423.75	4060.83
423.94	4028.06
424.13	3751.88
424.32	3852.52
424.50	4133.39
424.69	4156.79
424.88	4049.13
425.07	3999.98
425.26	4051.47
425.45	4074.87
425.64	4124.02
425.83	4117.00
426.01	4138.07
426.20	4079.55
426.39	4065.51
426.58	4023.38
426.77	4119.34
426.96	4091.26
427.15	4056.15
427.33	4252.75
427.52	4152.11
427.71	4306.59
427.90	4077.21
428.09	4528.94
428.28	4053.81
428.46	4091.26
428.65	4320.63
428.84	4442.34
429.03	4421.27
429.22	4107.64
429.40	4393.19
429.59	4365.10
429.78	4100.62
429.97	4079.55
430.16	4077.21
430.34	4154.45
430.53	4238.71
430.72	4243.39
430.91	4315.95
431.10	4512.55
431.28	4844.91
431.47	4730.22
431.66	4706.82
431.85	4753.63
432.03	4781.71
432.22	4709.16
432.41	4774.69
432.60	4781.71
432.79	4947.89
432.97	4819.16
433.16	4961.94
433.35	4709.16
433.54	4842.57
433.72	4910.44
433.91	4652.98
434.10	4795.76
434.28	4966.62
434.47	5020.45
434.66	4950.23
434.85	5135.14
435.03	5004.07
435.22	5116.41
435.41	5369.19
435.59	5224.08
435.78	5200.67
435.97	5355.15
436.16	5348.12
436.34	5404.30
436.53	5207.69
436.72	5376.21
436.90	5416.00
437.09	5558.77
437.28	5149.18
437.46	5273.23
437.65	5256.84
437.84	5418.34
438.02	5401.96
438.21	5397.28
438.40	5324.72
438.58	5638.35
438.77	5582.18
438.96	5617.29
439.14	5631.33
439.33	5757.72
439.52	5912.19
439.70	5755.38
439.89	5921.56
440.08	5921.56
440.26	5987.09
440.45	5870.06
440.63	5851.34
440.82	6258.59
441.01	6078.37
441.19	6043.26
441.38	6260.93
441.57	6235.19
441.75	6328.81
441.94	6466.90
442.12	6396.68
442.31	6572.22
442.50	6569.88
442.68	6464.56
442.87	6544.14
443.05	6630.74
443.24	6581.59
443.43	6541.80
443.61	6518.39
443.80	6707.98
443.98	6635.42
444.17	6471.58
444.35	6668.19
444.54	6899.90
444.73	6892.88
444.91	6717.34
445.10	6640.10
445.28	6628.40
445.47	6569.88
445.65	6523.07
445.84	6663.51
446.02	6679.89
446.21	6768.83
446.39	6726.70
446.58	6918.62
446.77	6892.88
446.95	6729.04
447.14	6916.28
447.32	7047.35
447.51	6853.09
447.69	6923.30
447.88	6956.07
448.06	6869.47
448.25	7136.29
448.43	7068.42
448.62	7143.32
448.80	6913.94
448.99	7194.81
449.17	7016.93
449.36	7054.37
449.54	7007.56
449.73	7368.01
449.91	7365.67
450.10	7265.02
450.28	7571.63
450.46	7592.70
450.65	7339.92
450.83	7604.40
451.02	7353.96
451.20	7520.14
451.39	7487.37
451.57	7592.70
451.76	7627.81
451.94	7300.13
452.13	7552.91
452.31	7475.67
452.49	7293.11
452.68	7651.21
452.86	7515.46
453.05	7688.66
453.23	7517.80
453.42	7506.10
453.60	7414.82
453.78	7583.34
453.97	7602.06
454.15	7754.19
454.34	7555.25
454.52	7693.34
454.70	7569.29
454.89	7747.17
455.07	7873.56
455.26	7906.33
455.44	7761.22
455.62	8002.29
455.81	8074.85
455.99	7911.01
456.17	8109.96
456.36	7936.76
456.54	8154.43
456.73	8322.94
456.91	8243.37
457.09	8266.77
457.28	8716.16
457.46	8250.39
457.64	8404.86
457.83	8493.80
458.01	8557.00
458.19	8489.12
458.38	8355.71
458.56	8751.26
458.74	8362.73
458.93	8575.72
459.11	8477.42
459.29	8367.42
459.48	8512.53
459.66	8580.40
459.84	8779.35
460.03	8891.70
460.21	8933.82
460.39	8858.93
460.57	8795.73
460.76	8875.31
460.94	8915.10
461.12	8858.93
461.31	8847.22
461.49	9039.15
461.67	9015.74
461.85	9406.61
462.04	8990.00
462.22	9708.54
462.40	9228.73
462.59	8999.36
462.77	9034.47
462.95	9301.29
463.13	9163.20
463.32	9291.93
463.50	9170.22
463.68	9217.03
463.86	9284.91
464.05	9270.86
464.23	9224.05
464.41	9448.74
464.59	9249.80
464.78	9439.38
464.96	9352.78
465.14	9102.34
465.32	9635.99
465.50	9516.62
465.69	9682.80
465.87	9413.63
466.05	9626.62
466.23	9348.10
466.41	9472.15
466.60	9778.76
466.78	9444.06
466.96	9568.11
467.14	9722.59
467.32	9708.54
467.51	9870.04
467.69	9495.55
467.87	9561.09
468.05	9888.76
468.23	9731.95
468.41	9753.01
468.60	9736.63
468.78	9860.68
468.96	9846.63
469.14	10111.11
469.32	9935.57
469.50	9851.31
469.69	9865.36
469.87	10188.35
470.05	10054.94
470.23	10211.76
470.41	10150.90
470.59	10331.12
470.77	10092.39
470.95	10218.78
471.14	10509.01
471.32	10134.52
471.50	10729.02
471.68	10595.61
471.86	10654.12
472.04	10539.43
472.22	10712.63
472.40	10611.99
472.58	10686.89
472.77	10710.29
472.95	10899.87
473.13	11040.31
473.31	10792.21
473.49	10860.09
473.67	11028.60
473.85	11173.72
474.03	11201.80
474.21	11543.52
474.39	11417.13
474.57	11138.61
474.75	11307.13
474.93	11707.36
475.12	11126.91
475.30	11733.11
475.48	11363.30
475.66	11477.99
475.84	11751.83
476.02	11641.82
476.20	11779.92
476.38	11887.58
476.56	12219.94
476.74	12023.33
476.92	12131.00
477.10	12210.57
477.28	12571.02
477.46	12627.19
477.64	12659.96
477.82	12706.77
478.00	12943.16
478.18	12688.04
478.36	13004.02
478.54	13004.02
478.72	13130.41
478.90	13319.99
479.08	13708.52
479.26	13598.51
479.44	13645.32
479.62	13626.60
479.80	13717.88
479.98	13727.24
480.16	14008.11
480.34	13893.42
480.52	14218.75
480.70	14038.53
480.88	14054.92
481.06	14457.49
481.24	14279.61
481.41	14541.75
481.59	14920.92
481.77	14796.87
481.95	14946.66
482.13	15005.17
482.31	14970.07
482.49	15218.16
482.67	15452.22
482.85	15501.37
483.03	15447.54
483.21	15887.56
483.39	15613.71
483.57	15592.65
483.74	15864.15
483.92	15953.09
484.10	15988.20
484.28	16388.43
484.46	16493.76
484.64	17142.08
484.82	16376.73
485.00	16437.58
485.18	16989.95
485.35	16905.69
485.53	16613.12
485.71	16519.50
485.89	16851.86
486.07	17053.14
486.25	17144.42
486.43	17043.78
486.61	17851.27
486.78	17757.64
486.96	17687.43
487.14	18001.06
487.32	18214.05
487.50	18441.08
487.68	18445.76
487.85	19019.19
488.03	18930.25
488.21	18902.17
488.39	19337.51
488.57	19274.31
488.75	19171.33
488.92	19592.62
489.10	19934.34
489.28	19819.66
489.46	20201.16
489.64	20135.63
489.81	20669.27
489.99	20800.34
490.17	21088.23
490.35	21156.10
490.53	20802.68
490.70	20737.15
490.88	20938.43
491.06	21406.54
491.24	21310.58
491.41	21352.71
491.59	21392.50
491.77	21305.90
491.95	21610.17
492.13	21640.59
492.30	22085.30
492.48	22181.26
492.66	22682.13
492.84	22497.23
493.01	22424.67
493.19	22712.56
493.37	22534.68
493.54	22895.12
493.72	23201.73
493.90	23075.34
494.08	23515.36
494.25	24112.20
494.43	24123.90
494.61	24109.86
494.79	24208.16
494.96	24198.80
495.14	24350.93
495.32	24638.82
495.49	24238.59
495.67	24584.99
495.85	24837.76
496.02	24947.77
496.20	24996.92
496.38	24982.88
496.55	24917.34
496.73	25830.15
496.91	25610.14
497.09	25722.49
497.26	25905.05
497.44	25586.74
497.62	25944.84
497.79	25982.29
497.97	25710.78
498.14	25984.63
498.32	26214.00
498.50	26380.18
498.67	26789.77
498.85	26466.78
499.03	27000.42
499.20	26864.67
499.38	26965.31
499.56	27002.76
499.73	27089.36
499.91	27288.31
500.08	27435.76
500.26	27168.94
500.44	27346.82
500.61	27578.53
500.79	27363.20
500.97	27545.76
501.14	27784.50
501.32	27552.79
501.49	27887.48
501.67	28002.17
501.84	27852.38
502.02	28149.62
502.20	28102.81
502.37	28877.53
502.55	28313.46
502.72	28701.99
502.90	28954.77
503.07	28591.98
503.25	28889.23
503.43	28666.88
503.60	28776.89
503.78	28617.73
503.95	28980.51
504.13	29188.82
504.30	29663.95
504.48	29347.98
504.65	29687.36
504.83	29912.05
505.01	29958.86
505.18	29893.32
505.36	30211.64
505.53	30209.29
505.71	30459.73
505.88	30331.00
506.06	30096.95
506.23	30305.26
506.41	30359.09
506.58	30291.21
506.76	30895.07
506.93	30941.88
507.11	30918.48
507.28	30623.57
507.46	30731.23
507.63	30859.96
507.81	30822.51
507.98	30754.64
508.16	31133.81
508.33	30876.35
508.50	31400.63
508.68	32020.87
508.85	31737.66
509.03	31842.99
509.20	31597.23
509.38	31964.70
509.55	31983.42
509.73	31967.04
509.90	32182.37
510.08	32112.15
510.25	31791.50
510.42	31971.72
510.60	32542.81
510.77	32435.14
510.95	32875.16
511.12	32465.57
511.30	32601.32
511.47	33109.22
511.64	33013.26
511.82	33443.91
511.99	32903.25
512.17	32954.74
512.34	33207.52
512.51	33354.97
512.69	33401.79
512.86	33633.50
513.04	33713.08
513.21	33589.03
513.38	33820.74
513.56	33476.68
513.73	33315.19
513.90	33816.06
514.08	33755.21
514.25	33619.46
514.43	33902.66
514.60	34162.46
514.77	34401.19
514.95	34429.28
515.12	34532.26
515.29	34518.22
515.47	34508.86
515.64	34888.03
515.81	34719.51
515.99	34550.99
516.16	34218.63
516.33	34361.40
516.51	34377.79
516.68	34022.03
516.85	33521.15
517.03	34553.33
517.20	34803.77
517.37	34670.36
517.54	35199.32
517.72	34930.16
517.89	34410.56
518.06	34565.03
518.24	34841.21
518.41	35232.08
518.58	35402.94
518.75	35716.58
518.93	35756.36
519.10	35164.21
519.27	36196.38
519.45	35936.59
519.62	35833.60
519.79	36217.45
519.96	36102.76
520.14	36130.85
520.31	36095.74
520.48	36102.76
520.65	36093.40
520.83	36718.32
521.00	36580.23
521.17	36378.95
521.34	36811.95
521.52	36898.55
521.69	36769.82
521.86	37046.00
522.03	37368.99
522.20	37167.71
522.38	37111.53
522.55	36917.27
522.72	36891.52
522.89	37549.21
523.07	37493.04
523.24	37387.72
523.41	37656.88
523.58	37551.56
523.75	38483.09
523.92	38005.62
524.10	38089.88
524.27	38094.56
524.44	37865.19
524.61	38375.42
524.78	38148.39
524.96	38026.68
525.13	38703.10
525.30	38604.80
525.47	38569.69
525.64	38628.20
525.81	38256.06
525.98	38117.96
526.16	37759.86
526.33	37865.19
526.50	38384.79
526.67	37841.78
526.84	38110.94
527.01	38469.04
527.18	38401.17
527.36	38953.54
527.53	39009.71
527.70	39203.97
527.87	39140.78
528.04	39070.56
528.21	39009.71
528.38	39700.17
528.55	39529.31
528.72	39505.90
528.89	39704.85
529.07	39864.00
529.24	39391.22
529.41	39543.35
529.58	39480.16
529.75	39566.76
529.92	39833.58
530.09	39941.24
530.26	40168.27
530.43	40219.77
530.60	39812.51
530.77	40081.67
530.94	40278.28
531.11	39866.34
531.28	40582.55
531.46	40648.08
531.63	40587.23
531.80	40547.44
531.97	40109.76
532.14	40680.85
532.31	39793.79
532.48	40201.04
532.65	40519.35
532.82	40170.61
532.99	40732.34
533.16	40554.46
533.33	40685.53
533.50	40744.05
533.67	40942.99
533.84	40465.52
534.01	40797.88
534.18	40711.28
534.35	41237.90
534.52	40978.10
534.69	41713.03
534.86	41062.36
535.03	41057.68
535.20	41401.74
535.37	41787.92
535.54	42302.84
535.71	41453.23
535.88	41425.14
536.05	41202.79
536.22	41331.52
536.38	41748.14
536.55	41200.45
536.72	41469.61
536.89	41373.65
537.06	41469.61
537.23	41968.15
537.40	41904.95
537.57	41736.43
537.74	42206.88
537.91	41965.81
538.08	42082.83
538.25	41495.36
538.42	42401.14
538.59	42286.46
538.75	41888.57
538.92	42199.86
539.09	42335.61
539.26	42153.05
539.43	42256.03
539.60	41998.57
539.77	41895.59
539.94	42480.72
540.11	41853.46
540.28	42527.53
540.44	42501.79
540.61	42333.27
540.78	42012.62
540.95	42323.91
541.12	42237.31
541.29	42700.73
541.46	42351.99
541.62	42787.33
541.79	42869.25
541.96	42679.67
542.13	42682.01
542.30	43171.18
542.47	42895.00
542.63	42892.66
542.80	42871.59
542.97	43299.91
543.14	43201.61
543.31	43353.74
543.48	43360.76
543.64	43796.10
543.81	43723.55
543.98	43854.62
544.15	43810.15
544.32	43723.55
544.48	43936.54
544.65	43880.36
544.82	43882.70
544.99	43531.62
545.16	43742.27
545.32	43494.18
545.49	44360.17
545.66	43941.22
545.83	44477.20
546.00	44332.09
546.16	43920.15
546.33	43555.03
546.50	43819.51
546.67	44053.56
546.83	43470.77
547.00	44030.16
547.17	43639.29
547.34	44004.41
547.50	44119.10
547.67	44219.74
547.84	44301.66
548.00	44058.24
548.17	44505.29
548.34	44758.06
548.51	44692.53
548.67	44638.70
548.84	44619.97
549.01	44432.73
549.18	44432.73
549.34	44355.49
549.51	44914.88
549.68	44762.75
549.84	44999.14
550.01	44678.49
550.18	44491.24
550.34	45095.10
550.51	44615.29
550.68	44861.05
550.84	44346.13
551.01	44818.92
551.18	44947.65
551.34	44788.49
551.51	45221.49
551.68	45270.64
551.84	44893.82
552.01	45057.65
552.18	44739.34
552.34	45097.44
552.51	45020.20
552.68	44601.25
552.84	45280.00
553.01	45095.10
553.18	45502.35
553.34	45036.59
553.51	44858.71
553.67	45368.94
553.84	45539.80
554.01	45535.12
554.17	45715.34
554.34	45357.24
554.51	45319.79
554.67	45668.53
554.84	45375.97
555.00	45815.99
555.17	45462.57
555.33	45586.61
555.50	45595.98
555.67	45621.72
555.83	45244.90
556.00	45581.93
556.16	46073.45
556.33	45453.20
556.50	45745.77
556.66	45390.01
556.83	45085.74
556.99	45778.54
557.16	45853.44
557.32	45703.64
557.49	46050.04
557.65	45556.19
557.82	45640.45
557.98	45762.15
558.15	46146.00
558.32	45972.80
558.48	45736.41
558.65	45617.04
558.81	45830.03
558.98	45687.26
559.14	45607.68
559.31	45801.94
559.47	46099.19
559.64	46115.58
559.80	45975.14
559.97	46218.56
560.13	45979.82
560.30	45762.15
560.46	45815.99
560.63	46120.26
560.79	46279.41
560.96	46529.85
561.12	45958.76
561.29	45734.07
561.45	46124.94
561.61	46036.00
561.78	45947.06
561.94	45804.28
562.11	45837.05
562.27	46237.28
562.44	46176.43
562.60	46237.28
562.77	46415.16
562.93	46286.43
563.10	46717.09
563.26	46319.20
563.42	46368.35
563.59	46059.40
563.75	46054.72
563.92	46192.81
564.08	46763.90
564.24	46742.84
564.41	46689.01
564.57	46265.37
564.74	46216.22
564.90	46230.26
565.07	46141.32
565.23	46265.37
565.39	46433.89
565.56	46237.28
565.72	46146.00
565.88	46733.48
566.05	46316.86
566.21	46466.66
566.38	46518.15
566.54	46291.12
566.70	46866.89
566.87	46789.65
567.03	46351.97
567.19	46564.96
567.36	46571.98
567.52	46611.77
567.68	46691.35
567.85	46237.28
568.01	46911.36
568.17	46349.63
568.34	46618.79
568.50	46586.02
568.66	46665.60
568.83	46396.44
568.99	45834.71
569.15	46094.51
569.32	46440.91
569.48	46478.36
569.64	46667.94
569.81	46707.73
569.97	46382.40
570.13	46696.03
570.30	46075.79
570.46	46562.62
570.62	46075.79
570.78	46480.70
570.95	46089.83
571.11	46305.16
571.27	46653.90
571.43	46351.97
571.60	46714.75
571.76	46595.38
571.92	46522.83
572.09	46607.09
572.25	46614.11
572.41	47093.92
572.57	46630.49
572.74	46890.29
572.90	46955.83
573.06	46590.70
573.22	46394.10
573.38	46745.18
573.55	46464.32
573.71	46967.53
573.87	47365.42
574.03	46483.04
574.20	46337.93
574.36	46426.87
574.52	46667.94
574.68	46480.70
574.84	46911.36
575.01	46927.74
575.17	46511.13
575.33	46841.14
575.49	46471.34
575.65	47220.31
575.82	46646.88
575.98	46796.67
576.14	46520.49
576.30	47107.96
576.46	46485.38
576.62	46595.38
576.79	46550.91
576.95	46546.23
577.11	46490.06
577.27	46953.49
577.43	46871.57
577.59	46674.96
577.75	46567.30
577.92	46527.51
578.08	46635.17
578.24	46375.37
578.40	46707.73
578.56	46457.29
578.72	46869.23
578.88	46944.12
579.04	46775.61
579.21	46990.94
579.37	46869.23
579.53	47004.98
579.69	46312.18
579.85	46321.54
580.01	46623.47
580.17	46686.67
580.33	46490.06
580.49	47037.75
580.65	46679.64
580.82	46972.21
580.98	46576.66
581.14	46742.84
581.30	47079.88
581.46	46705.39
581.62	46770.93
581.78	46665.60
581.94	46745.18
582.10	47070.51
582.26	47215.63
582.42	46962.85
582.58	47363.08
582.74	46609.43
582.90	46883.27
583.06	46850.50
583.22	46813.05
583.38	47213.29
583.54	47257.76
583.70	46983.91
583.86	47112.64
584.02	46639.86
584.18	47124.35
584.34	47065.83
584.50	47147.75
584.66	46794.33
584.82	46696.03
584.98	47175.84
585.14	46878.59
585.30	46974.55
585.46	46747.52
585.62	46644.54
585.78	46719.43
585.94	46447.93
586.10	46452.61
586.26	46611.77
586.42	46696.03
586.58	47339.68
586.74	46831.78
586.90	46707.73
587.06	46986.25
587.22	46864.55
587.38	46883.27
587.54	46719.43
587.70	46988.60
587.86	47119.66
588.02	46405.80
588.18	47051.79
588.34	46567.30
588.49	46366.01
588.65	46110.89
588.81	46138.98
588.97	46499.42
589.13	46277.07
589.29	46546.23
589.45	46944.12
589.61	46916.04
589.77	46972.21
589.93	47232.01
590.08	46983.91
590.24	47402.87
590.40	47009.66
590.56	47519.90
590.72	47384.15
590.88	46976.89
591.04	46932.42
591.20	47379.46
591.35	46801.35
591.51	47407.55
591.67	46791.99
591.83	46967.53
591.99	46602.41
592.15	47168.82
592.31	47419.25
592.46	46983.91
592.62	47295.21
592.78	46672.62
592.94	47456.70
593.10	47140.73
593.26	46925.40
593.41	47028.38
593.57	46646.88
593.73	46873.91
593.89	46581.34
594.05	47229.67
594.20	46965.19
594.36	47002.64
594.52	46658.58
594.68	47089.24
594.84	46754.54
594.99	46993.28
595.15	46806.03
595.31	47274.14
595.47	47215.63
595.62	46738.16
595.78	46951.15
595.94	46916.04
596.10	47391.17
596.25	46904.34
596.41	46667.94
596.57	46820.08
596.73	47388.83
596.88	46897.31
597.04	46796.67
597.20	46831.78
597.36	46674.96
597.51	47210.95
597.67	47019.02
597.83	47129.03
597.99	47257.76
598.14	46691.35
598.30	46698.37
598.46	46691.35
598.61	47028.38
598.77	46553.26
598.93	47110.30
599.09	47077.54
599.24	47206.26
599.40	47194.56
599.56	47166.48
599.71	46869.23
599.87	46923.06
600.03	46733.48
600.18	47070.51
600.34	47077.54
600.50	46948.81
600.65	46756.88
600.81	47236.69
600.97	47140.73
601.12	47372.44
601.28	46990.94
601.44	47068.17
601.59	46902.00
601.75	46513.47
601.91	47033.07
602.06	46480.70
602.22	47061.15
602.37	46939.44
602.53	46511.13
602.69	47114.98
602.84	46904.34
603.00	46848.16
603.16	47026.04
603.31	46948.81
603.47	46686.67
603.62	46927.74
603.78	46623.47
603.94	47063.49
604.09	47379.46
604.25	47175.84
604.40	46747.52
604.56	47098.60
604.71	47175.84
604.87	46698.37
605.03	46534.53
605.18	46515.81
605.34	46623.47
605.49	46885.61
605.65	46799.01
605.80	46590.70
605.96	47133.71
606.12	46806.03
606.27	47201.58
606.43	47044.77
606.58	47063.49
606.74	46724.11
606.89	46761.56
607.05	46859.87
607.20	46834.12
607.36	46630.49
607.51	46993.28
607.67	46415.16
607.82	46693.69
607.98	46354.31
608.13	46885.61
608.29	46525.17
608.44	46576.66
608.60	46033.66
608.75	46721.77
608.91	46492.40
609.06	46803.69
609.22	46621.13
609.37	46354.31
609.53	46607.09
609.68	46803.69
609.84	46550.91
609.99	46232.60
610.15	45914.29
610.30	46241.96
610.46	46012.59
610.61	46246.65
610.76	46003.23
610.92	46225.58
611.07	46471.34
611.23	45923.65
611.38	46061.74
611.54	46064.08
611.69	46057.06
611.84	46078.13
612.00	45553.85
612.15	45687.26
612.31	46412.82
612.46	45656.83
612.62	45872.16
612.77	45937.69
612.92	46401.12
613.08	45799.60
613.23	46216.22
613.39	45986.85
613.54	45429.80
613.69	45514.06
613.85	45790.24
614.00	45624.06
614.15	45907.27
614.31	45682.58
614.46	45708.32
614.62	46000.89
614.77	45656.83
614.92	46155.36
615.08	45467.25
615.23	45617.04
615.38	45106.80
615.54	45495.33
615.69	45317.45
615.84	45415.76
616.00	45745.77
616.15	45179.36
616.30	45340.86
616.46	45338.52
616.61	45404.05
616.76	45170.00
616.92	44722.96
617.07	44938.29
617.22	45268.30
617.37	45055.31
617.53	45776.20
617.68	45361.92
617.83	45668.53
617.99	45546.82
618.14	45162.98
618.29	45067.02
618.45	44844.66
618.60	44720.62
618.75	44725.30
618.90	44844.66
619.06	44947.65
619.21	45132.55
619.36	45462.57
619.51	45052.97
619.67	44928.92
619.82	45088.08
619.97	45361.92
620.12	44535.71
620.28	44364.85
620.43	44989.78
620.58	45146.59
620.73	44786.15
620.89	44690.19
621.04	44912.54
621.19	44807.22
621.34	45045.95
621.49	44931.26
621.65	44608.27
621.80	44921.90
621.95	44531.03
622.10	44758.06
622.25	44369.54
622.41	43952.92
622.56	44364.85
622.71	45172.34
622.86	44381.24
623.01	44287.62
623.16	44584.86
623.32	44126.12
623.47	44268.89
623.62	44292.30
623.77	44215.06
623.92	44460.82
624.07	44109.74
624.23	43903.77
624.38	44133.14
624.53	44158.89
624.68	44322.72
624.83	43981.01
624.98	43976.33
625.13	43311.61
625.29	43981.01
625.44	43601.84
625.59	43402.89
625.74	43489.49
625.89	43639.29
626.04	44046.54
626.19	44023.14
626.34	43917.81
626.49	43917.81
626.65	44189.31
626.80	43835.89
626.95	43573.75
627.10	43304.59
627.25	43669.72
627.40	43037.77
627.55	42890.32
627.70	43091.60
627.85	43217.99
628.00	43349.06
628.15	43103.31
628.30	43072.88
628.45	43037.77
628.60	43274.16
628.76	43442.68
628.91	43349.06
629.06	42562.64
629.21	42873.93
629.36	43166.50
629.51	42979.26
629.66	42656.26
629.81	42698.39
629.96	43225.01
630.11	43075.22
630.26	43084.58
630.41	43199.27
630.56	43028.41
630.71	43091.60
630.86	42855.21
631.01	42944.15
631.16	42433.91
631.31	42593.07
631.46	42504.13
631.61	42597.75
631.76	43000.32
631.91	42487.74
632.06	42649.24
632.21	42759.25
632.36	42541.58
632.51	42611.79
632.66	42241.99
632.81	42600.09
632.96	42436.25
633.10	42347.31
633.25	42567.32
633.40	42351.99
633.55	42876.27
633.70	42286.46
633.85	41865.16
634.00	42630.52
634.15	42319.23
634.30	42246.67
634.45	42099.22
634.60	42073.47
634.75	41911.97
634.90	41832.39
635.05	41900.27
635.19	42178.79
635.34	42146.03
635.49	41743.45
635.64	41757.50
635.79	42309.86
635.94	41516.42
636.09	42241.99
636.24	41783.24
636.39	41631.11
636.53	41722.39
636.68	41933.04
636.83	41567.91
636.98	41813.67
637.13	41614.72
637.28	42227.95
637.43	41886.23
637.57	42017.30
637.72	41684.94
637.87	41387.69
638.02	41387.69
638.17	41464.93
638.32	41549.19
638.46	41563.23
638.61	41284.71
638.76	41200.45
638.91	41563.23
639.06	41710.69
639.20	41399.40
639.35	41855.80
639.50	41450.89
639.65	41368.97
639.80	41511.74
639.94	41127.89
640.09	41324.50
640.24	40690.21
640.39	40774.47
640.54	40907.88
640.68	41223.86
640.83	41006.19
640.98	40556.80
641.13	40638.72
641.27	41085.76
641.42	40741.71
641.57	40638.72
641.72	40517.01
641.86	40762.77
642.01	40292.32
642.16	40662.13
642.31	40470.20
642.45	40472.54
642.60	40933.63
642.75	40425.73
642.90	40678.51
643.04	40465.52
643.19	40430.41
643.34	40563.82
643.48	40512.33
643.63	40285.30
643.78	40189.34
643.93	40217.43
644.07	40381.26
644.22	40191.68
644.37	40156.57
644.51	40423.39
644.66	40229.13
644.81	40299.34
644.95	40411.69
645.10	40196.36
645.25	40538.08
645.39	40278.28
645.54	40481.91
645.69	40240.83
645.83	40076.99
645.98	40013.80
646.13	40102.74
646.27	40222.11
646.42	40130.83
646.57	39779.74
646.71	39564.42
646.86	39803.15
647.00	40172.96
647.15	40105.08
647.30	39952.94
647.44	39763.36
647.59	39519.95
647.74	39697.83
647.88	39143.12
648.03	39360.79
648.17	39739.96
648.32	39246.10
648.47	39374.83
648.61	39393.56
648.76	39723.57
648.90	39480.16
649.05	39737.62
649.20	39225.04
649.34	39709.53
649.49	39449.73
649.63	38768.63
649.78	39690.80
649.92	39592.50
650.07	39833.58
650.21	38810.76
650.36	39253.12
650.51	39793.79
650.65	39583.14
650.80	39662.72
650.94	39353.77
651.09	39103.33
651.23	39543.35
651.38	39196.95
651.52	38691.40
651.67	38944.17
651.81	38557.99
651.96	39103.33
652.10	39117.37
652.25	38857.57
652.39	39215.68
652.54	39054.18
652.68	38852.89
652.83	38974.60
652.97	38888.00
653.12	38904.38
653.26	38459.68
653.41	38487.77
653.55	38600.12
653.70	38520.54
653.84	39005.03
653.99	38321.59
654.13	38394.15
654.27	38160.09
654.42	38183.50
654.56	38160.09
654.71	38422.23
654.85	38202.22
655.00	38230.31
655.14	38543.94
655.29	37963.49
655.43	37872.21
655.57	37581.98
655.72	37619.43
655.86	37399.42
656.01	37621.77
656.15	37385.38
656.30	37471.98
656.44	37881.57
656.58	37738.80
656.73	37736.46
656.87	37961.15
657.01	37713.05
657.16	37668.58
657.30	37914.34
657.45	37305.80
657.59	37640.50
657.73	37528.15
657.88	38057.11
658.02	38117.96
658.16	38127.33
658.31	38010.30
658.45	37851.14
658.60	37373.67
658.74	37507.08
658.88	37085.79
659.03	37511.77
659.17	37308.14
659.31	37366.65
659.46	37490.70
659.60	37668.58
659.74	37450.91
659.89	37130.26
660.03	37200.47
660.17	37343.25
660.32	37212.18
660.46	37488.36
660.60	37207.50
660.74	37125.58
660.89	37186.43
661.03	36629.38
661.17	36664.49
661.32	36510.02
661.46	36921.95
661.60	36844.71
661.74	36390.65
661.89	36783.86
662.03	36825.99
662.17	36603.64
662.31	36378.95
662.46	36643.43
662.60	37034.30
662.74	36311.07
662.88	36318.09
663.03	35761.05
663.17	35931.90
663.31	35625.29
663.45	35985.74
663.60	35992.76
663.74	36161.28
663.88	36163.62
664.02	35964.67
664.17	35854.67
664.31	35739.98
664.45	35709.55
664.59	35978.72
664.73	35627.63
664.88	35803.17
665.02	35505.93
665.16	35447.41
665.30	35115.06
665.44	35292.94
665.59	35040.16
665.73	35187.61
665.87	35215.70
666.01	35061.22
666.15	35211.02
666.29	35012.07
666.44	35489.54
666.58	35192.30
666.72	34696.10
666.86	34787.38
667.00	34855.26
667.14	34593.12
667.28	34534.60
667.43	34639.93
667.57	34808.45
667.71	34532.26
667.85	34553.33
667.99	34639.93
668.13	34295.87
668.27	34644.61
668.41	34338.00
668.56	34349.70
668.70	34314.59
668.84	34061.82
668.98	33497.75
669.12	33724.78
669.26	33797.34
669.40	33890.96
669.54	33598.39
669.68	33479.02
669.82	33528.17
669.96	33326.89
670.10	33776.27
670.25	33563.28
670.39	33544.56
670.53	33350.29
670.67	33081.13
670.81	33464.98
670.95	33003.89
671.09	32999.21
671.23	32891.55
671.37	32982.83
671.51	33053.05
671.65	33141.99
671.79	32809.63
671.93	32830.69
672.07	32882.19
672.21	32664.52
672.35	32711.33
672.49	32470.25
672.63	32971.13
672.77	32039.59
672.91	32545.15
673.05	32652.81
673.19	32301.73
673.33	31934.27
673.47	31658.09
673.61	31630.00
673.75	31716.60
673.89	31370.20
674.03	31456.80
674.17	31714.26
674.31	32016.19
674.45	31826.60
674.59	31339.77
674.73	32053.64
674.87	31744.69
675.01	31225.09
675.15	31206.36
675.29	31299.98
675.43	31112.74
675.56	31470.84
675.70	30787.41
675.84	30735.92
675.98	30162.48
676.12	30682.08
676.26	30883.37
676.40	30581.44
676.54	30558.03
676.68	31051.89
676.82	30125.04
676.96	30143.76
677.10	30450.37
677.23	30398.88
677.37	29895.66
677.51	29862.90
677.65	29844.17
677.79	28940.72
677.93	29713.10
678.07	29575.01
678.21	29022.64
678.34	29343.30
678.48	29102.22
678.62	29102.22
678.76	28460.91
678.90	28496.02
679.04	28875.19
679.18	28428.15
679.31	28624.75
679.45	28652.84
679.59	28154.30
679.73	28353.25
679.87	28315.80
680.00	28402.40
680.14	28261.97
680.28	28219.84
680.42	28264.31
680.56	28187.07
680.70	27999.83
680.83	27885.14
680.97	27725.99
681.11	27835.99
681.25	27241.50
681.39	27711.94
681.52	27534.06
681.66	27218.09
681.80	27398.31
681.94	27534.06
682.07	27014.46
682.21	26892.76
682.35	26883.39
682.49	26714.87
682.62	26939.57
682.76	26157.83
682.90	26511.25
683.04	26347.41
683.17	26029.10
683.31	26136.76
683.45	26305.28
683.59	26059.52
683.72	25898.03
683.86	26216.34
684.00	26377.84
684.13	25743.55
684.27	25551.63
684.41	25380.77
684.55	25448.64
684.68	25654.61
684.82	25247.36
684.96	25418.22
685.09	25458.01
685.23	24907.98
685.37	24702.01
685.50	25256.72
685.64	24730.10
685.78	24556.90
685.91	24779.25
686.05	24577.97
686.19	24379.02
686.32	24114.54
686.46	23896.87
686.60	23585.58
686.73	23508.34
686.87	23143.22
687.01	23267.27
687.14	23012.15
687.28	23398.34
687.42	23147.90
687.55	23475.57
687.69	23283.65
687.82	23398.34
687.96	23580.90
688.10	23274.29
688.23	22731.28
688.37	22630.64
688.50	22602.55
688.64	22850.65
688.78	22424.67
688.91	22761.71
689.05	22600.21
689.18	22164.87
689.32	22132.11
689.46	22108.70
689.59	22321.69
689.73	22106.36
689.86	21914.44
690.00	21738.90
690.13	22146.15
690.27	21722.51
690.41	21518.89
690.54	21294.19
690.68	21649.96
690.81	21455.69
690.95	21724.85
691.08	21132.70
691.22	21507.18
691.35	21500.16
691.49	21582.08
691.62	21469.73
691.76	21008.65
691.89	21223.98
692.03	20982.90
692.16	20755.87
692.30	20816.72
692.43	20617.78
692.57	20615.44
692.70	20128.61
692.84	20524.16
692.97	20098.18
693.11	19878.17
693.24	19901.58
693.38	20210.53
693.51	19924.98
693.65	20163.72
693.78	19789.23
693.92	19688.59
694.05	19613.69
694.19	19613.69
694.32	19545.81
694.45	19421.77
694.59	19098.77
694.72	19075.37
694.86	19098.77
694.99	18878.76
695.13	19260.27
695.26	19124.52
695.39	18745.35
695.53	18941.96
695.66	18857.70
695.80	18838.97
695.93	18553.43
696.07	18434.06
696.20	18317.03
696.33	18546.40
696.47	18497.25
696.60	18136.81
696.73	18012.76
696.87	17869.99
697.00	18223.41
697.14	17954.25
697.27	17738.92
697.40	17818.50
697.54	17635.94
697.67	17476.78
697.80	17312.94
697.94	17233.36
698.07	17202.94
698.21	17179.53
698.34	17158.47
698.47	17015.69
698.61	16992.29
698.74	16662.27
698.87	17144.42
699.01	16423.54
699.14	16482.05
699.27	16549.93
699.40	16599.08
699.54	16418.86
699.67	16322.90
699.80	16421.20
699.94	16116.93
700.07	16175.44
700.20	16020.97
700.34	16205.87
700.47	16194.17
700.60	16269.06
700.73	15967.13
700.87	16149.70
701.00	15866.49
701.13	15552.86
701.26	15538.82
701.40	15576.27
701.53	15346.89
701.66	15332.85
701.79	15222.84
701.93	15054.33
702.06	15143.27
702.19	14988.79
702.32	14984.11
702.46	14916.23
702.59	14677.50
702.72	14857.72
702.85	14934.96
702.99	14670.48
703.12	14633.03
703.25	14567.49
703.38	14413.02
703.51	14480.89
703.65	14530.05
703.78	14441.11
703.91	14153.22
704.04	14118.11
704.17	14593.24
704.31	14183.65
704.44	13902.78
704.57	13783.41
704.70	13944.91
704.83	13844.27
704.96	13923.85
705.10	13813.84
705.23	13848.95
>>>>>End Processed Spectral Data<<<<<
