SpectraSuite Data File
++++++++++++++++++++++++++++++++++++
Date: Fri Oct 25 11:33:35 EDT 2013
User: price-jones
Dark Spectrum Present: No
Reference Spectrum Present: No
Number of Sampled Component Spectra: 1
Spectrometers: USB2+H05261
Integration Time (usec): 100000 (USB2+H05261)
Spectra Averaged: 1 (USB2+H05261)
Boxcar Smoothing: 0 (USB2+H05261)
Correct for Electrical Dark: No (USB2+H05261)
Strobe/Lamp Enabled: No (USB2+H05261)
Correct for Detector Non-linearity: No (USB2+H05261)
Correct for Stray Light: No (USB2+H05261)
Number of Pixels in Processed Spectrum: 2048
>>>>>Begin Processed Spectral Data<<<<<
365.73	266.82
365.92	266.82
366.12	266.82
366.32	154.48
366.52	196.60
366.72	147.45
366.91	177.88
367.11	245.76
367.31	133.41
367.51	180.22
367.70	180.22
367.90	210.65
368.10	140.43
368.30	220.01
368.49	173.20
368.69	243.42
368.89	222.35
369.09	201.29
369.28	154.48
369.48	227.03
369.68	231.71
369.87	173.20
370.07	252.78
370.27	203.63
370.47	287.89
370.66	386.19
370.86	477.47
371.06	594.50
371.25	557.05
371.45	491.51
371.65	559.39
371.84	510.24
372.04	531.30
372.24	547.69
372.44	552.37
372.63	535.98
372.83	610.88
373.03	596.84
373.22	568.75
373.42	587.47
373.62	613.22
373.81	599.18
374.01	688.12
374.21	631.94
374.40	669.39
374.60	662.37
374.79	699.82
374.99	615.56
375.19	643.65
375.38	664.71
375.58	655.35
375.78	683.44
375.97	720.88
376.17	704.50
376.37	674.07
376.56	617.90
376.76	636.63
376.95	608.54
377.15	709.18
377.35	704.50
377.54	711.52
377.74	613.22
377.93	641.31
378.13	709.18
378.33	653.01
378.52	645.99
378.72	676.41
378.91	837.91
379.11	676.41
379.31	777.06
379.50	660.03
379.70	730.25
379.89	798.12
380.09	718.54
380.28	748.97
380.48	727.91
380.68	741.95
380.87	648.33
381.07	683.44
381.26	702.16
381.46	741.95
381.65	772.38
381.85	835.57
382.04	755.99
382.24	814.51
382.43	791.10
382.63	788.76
382.83	777.06
383.02	809.83
383.22	851.96
383.41	791.10
383.61	866.00
383.80	816.85
384.00	854.30
384.19	770.04
384.39	830.89
384.58	833.23
384.78	781.74
384.97	734.93
385.17	844.93
385.36	807.48
385.56	849.61
385.75	781.74
385.95	861.32
386.14	866.00
386.34	774.72
386.53	823.87
386.72	833.23
386.92	887.06
387.11	870.68
387.31	849.61
387.50	844.93
387.70	882.38
387.89	807.48
388.09	866.00
388.28	912.81
388.48	919.83
388.67	919.83
388.86	903.45
389.06	947.92
389.25	959.62
389.45	896.43
389.64	908.13
389.84	957.28
390.03	1004.09
390.22	1004.09
390.42	912.81
390.61	866.00
390.81	884.72
391.00	1048.56
391.19	985.37
391.39	997.07
391.58	950.26
391.78	938.55
391.97	1057.92
392.16	1013.45
392.36	1069.62
392.55	1053.24
392.75	1064.94
392.94	1048.56
393.13	1069.62
393.33	1041.54
393.52	1130.48
393.71	1146.86
393.91	1081.33
394.10	1018.13
394.29	1034.52
394.49	1102.39
394.68	1151.54
394.88	1142.18
395.07	1142.18
395.26	1142.18
395.46	1158.57
395.65	1158.57
395.84	1172.61
396.04	1231.12
396.23	1203.04
396.42	1226.44
396.62	1186.65
396.81	1116.44
397.00	1156.22
397.19	1259.21
397.39	1172.61
397.58	1207.72
397.77	1149.20
397.97	1170.27
398.16	1313.04
398.35	1270.91
398.55	1334.11
398.74	1320.06
398.93	1277.93
399.12	1357.51
399.32	1294.32
399.51	1320.06
399.70	1364.53
399.90	1301.34
400.09	1308.36
400.28	1406.66
400.47	1352.83
400.67	1448.79
400.86	1441.77
401.05	1483.90
401.24	1430.07
401.44	1441.77
401.63	1418.36
401.82	1380.92
402.01	1488.58
402.21	1507.30
402.40	1432.41
402.59	1458.15
402.78	1535.39
402.97	1462.83
403.17	1551.78
403.36	1575.18
403.55	1483.90
403.74	1699.23
403.93	1472.20
404.13	1624.33
404.32	1547.09
404.51	1596.25
404.70	1671.14
404.89	1629.01
405.09	1701.57
405.28	1748.38
405.47	1715.61
405.66	1647.74
405.85	1671.14
406.05	1706.25
406.24	1739.02
406.43	1727.32
406.62	1760.08
406.81	1818.60
407.00	1827.96
407.20	1727.32
407.39	1795.19
407.58	1806.89
407.77	1818.60
407.96	1865.41
408.15	1832.64
408.34	1825.62
408.54	2029.24
408.73	1867.75
408.92	1933.28
409.11	2010.52
409.30	1994.14
409.49	1895.83
409.68	1987.11
409.87	2010.52
410.07	2059.67
410.26	2010.52
410.45	2062.01
410.64	2078.40
410.83	2127.55
411.02	2097.12
411.21	2118.18
411.40	2113.50
411.59	2132.23
411.78	2188.40
411.98	2157.97
412.17	2165.00
412.36	2380.32
412.55	2403.73
412.74	2282.02
412.93	2368.62
413.12	2256.28
413.31	2401.39
413.50	2417.77
413.69	2448.20
413.88	2424.80
414.07	2548.84
414.26	2523.10
414.45	2541.82
414.64	2562.89
414.83	2691.62
415.02	2658.85
415.22	2672.89
415.41	2686.94
415.60	2590.97
415.79	2583.95
415.98	2761.83
416.17	2670.55
416.36	2700.98
416.55	2719.70
416.74	2771.19
416.93	2689.28
417.12	2752.47
417.31	2864.82
417.50	2946.73
417.69	2939.71
417.88	3061.42
418.07	2895.24
418.26	2932.69
418.45	3026.31
418.64	3068.44
418.83	2991.20
419.02	2965.46
419.21	3084.83
419.39	3129.30
419.58	3143.34
419.77	3002.91
419.96	3073.12
420.15	3190.15
420.34	3239.30
420.53	3171.43
420.72	3332.92
420.91	3258.03
421.10	3269.73
421.29	3274.41
421.48	3255.69
421.67	3190.15
421.86	3393.78
422.05	3321.22
422.24	3232.28
422.43	3407.82
422.61	3440.59
422.80	3358.67
422.99	3253.34
423.18	3405.48
423.37	3555.27
423.56	3419.52
423.75	3304.84
423.94	3215.90
424.13	3260.37
424.32	3344.63
424.50	3524.85
424.69	3550.59
424.88	3618.47
425.07	3375.05
425.26	3375.05
425.45	3438.25
425.64	3396.12
425.83	3365.69
426.01	3478.04
426.20	3552.93
426.39	3410.16
426.58	3592.72
426.77	3454.63
426.96	3578.68
427.15	3559.95
427.33	3543.57
427.52	3503.78
427.71	3559.95
427.90	3691.02
428.09	3510.80
428.28	3597.40
428.46	3676.98
428.65	3669.96
428.84	3831.46
429.03	3805.71
429.22	3749.54
429.40	3751.88
429.59	3822.09
429.78	3712.09
429.97	3801.03
430.16	3702.73
430.34	3887.63
430.53	3796.35
430.72	3808.05
430.91	3859.54
431.10	3777.62
431.28	4065.51
431.47	3955.51
431.66	4065.51
431.85	3953.16
432.03	3976.57
432.22	4011.68
432.41	4098.28
432.60	4098.28
432.79	4063.17
432.97	4138.07
433.16	4301.90
433.35	4191.90
433.54	4086.58
433.72	4224.67
433.91	4238.71
434.10	4287.86
434.28	4098.28
434.47	4219.99
434.66	4243.39
434.85	4128.70
435.03	4337.01
435.22	4313.61
435.41	4463.40
435.59	4351.06
435.78	4318.29
435.97	4297.22
436.16	4414.25
436.34	4468.08
436.53	4550.00
436.72	4531.28
436.90	4432.97
437.09	4531.28
437.28	4432.97
437.46	4531.28
437.65	4468.08
437.84	4615.54
438.02	4685.75
438.21	4690.43
438.40	4517.23
438.58	4786.40
438.77	4704.48
438.96	4601.49
439.14	4826.18
439.33	4889.38
439.52	4875.34
439.70	4983.00
439.89	5076.62
440.08	4884.70
440.26	5004.07
440.45	5062.58
440.63	5088.32
440.82	5186.63
441.01	5184.29
441.19	5195.99
441.38	5193.65
441.57	5259.18
441.75	5305.99
441.94	5343.44
442.12	5392.59
442.31	5371.53
442.50	5537.71
442.68	5387.91
442.87	5390.25
443.05	5495.58
443.24	5533.03
443.43	5542.39
443.61	5502.60
443.80	5689.84
443.98	5563.45
444.17	5301.31
444.35	5689.84
444.54	5692.18
444.73	5598.56
444.91	5591.54
445.10	5558.77
445.28	5600.90
445.47	5568.13
445.65	5575.16
445.84	5654.73
446.02	5710.91
446.21	5643.03
446.39	5673.46
446.58	5764.74
446.77	5790.49
446.95	5605.58
447.14	5678.14
447.32	5802.19
447.51	5591.54
447.69	5746.02
447.88	5708.57
448.06	5605.58
448.25	5792.83
448.43	5746.02
448.62	5900.49
448.80	5872.40
448.99	5991.77
449.17	5975.39
449.36	5827.93
449.54	5863.04
449.73	6073.69
449.91	6092.41
450.10	6045.60
450.28	6106.46
450.46	6125.18
450.65	5881.77
450.83	6012.84
451.02	6019.86
451.20	6237.53
451.39	6092.41
451.57	6099.44
451.76	6029.22
451.94	6153.27
452.13	6338.17
452.31	6176.67
452.49	6092.41
452.68	6164.97
452.86	6197.74
453.05	6422.43
453.23	6394.34
453.42	6483.28
453.60	6366.26
453.78	6396.68
453.97	6331.15
454.15	6441.15
454.34	6228.17
454.52	6612.01
454.70	6506.69
454.89	6483.28
455.07	6595.63
455.26	6604.99
455.44	6600.31
455.62	6562.86
455.81	6803.94
455.99	6696.27
456.17	6740.74
456.36	6820.32
456.54	7023.95
456.73	6766.49
456.91	6913.94
457.09	6857.77
457.28	7131.61
457.46	6923.30
457.64	7080.12
457.83	6902.24
458.01	6965.43
458.19	7295.45
458.38	7136.29
458.56	7169.06
458.74	7145.66
458.93	7222.89
459.11	7215.87
459.29	7192.47
459.48	7208.85
459.66	7243.96
459.84	7414.82
460.03	7424.18
460.21	7435.88
460.39	7428.86
460.57	7382.05
460.76	7468.65
460.94	7630.15
461.12	7466.31
461.31	7494.40
461.49	7368.01
461.67	7515.46
461.85	7578.65
462.04	7555.25
462.22	8018.68
462.40	8006.97
462.59	7714.41
462.77	7777.60
462.95	7962.50
463.13	7831.43
463.32	7789.30
463.50	8077.19
463.68	7840.79
463.86	7761.22
464.05	7918.03
464.23	7808.03
464.41	7943.78
464.59	7660.57
464.78	8131.02
464.96	7925.05
465.14	7805.69
465.32	8021.02
465.50	8168.47
465.69	8098.25
465.87	8119.32
466.05	8271.45
466.23	8091.23
466.41	8105.28
466.60	8461.04
466.78	8100.59
466.96	8234.00
467.14	8173.15
467.32	8341.67
467.51	8493.80
467.69	8219.96
467.87	8301.88
468.05	8514.87
468.23	8243.37
468.41	8381.46
468.60	8449.33
468.78	8542.96
468.96	8456.36
469.14	8606.15
469.32	8531.25
469.50	8540.61
469.69	8683.39
469.87	8695.09
470.05	8617.85
470.23	8879.99
470.41	8580.40
470.59	8954.89
470.77	8784.03
470.95	8830.84
471.14	8938.51
471.32	8690.41
471.50	9039.15
471.68	9048.51
471.86	9008.72
472.04	9118.73
472.22	9390.23
472.40	9231.07
472.58	9284.91
472.77	9329.38
472.95	9254.48
473.13	9603.22
473.31	9483.85
473.49	9280.22
473.67	9294.27
473.85	9561.09
474.03	9617.26
474.21	9891.10
474.39	9603.22
474.57	9982.38
474.75	9944.94
474.93	9963.66
475.12	9867.70
475.30	10272.61
475.48	10167.29
475.66	10085.37
475.84	10068.98
476.02	10139.20
476.20	10246.87
476.38	10359.21
476.56	10431.77
476.74	10551.14
476.92	10448.15
477.10	10279.63
477.28	10686.89
477.46	10789.87
477.64	10778.17
477.82	10871.79
478.00	11105.84
478.18	11192.44
478.36	11286.06
478.54	11311.81
478.72	11375.00
478.90	11627.78
479.08	11669.91
479.26	11492.03
479.44	11653.53
479.62	11737.79
479.80	11737.79
479.98	11967.16
480.16	12147.38
480.34	12091.21
480.52	12432.93
480.70	12365.05
480.88	12276.11
481.06	12491.44
481.24	12397.82
481.41	12617.83
481.59	12662.30
481.77	12690.38
481.95	12980.61
482.13	12985.29
482.31	12931.46
482.49	13317.65
482.67	13273.18
482.85	13542.34
483.03	13743.63
483.21	13549.36
483.39	13848.95
483.57	13956.61
483.74	13834.91
483.92	14036.19
484.10	13900.44
484.28	14298.33
484.46	14469.19
484.64	14604.94
484.82	14455.15
485.00	14675.16
485.18	14656.43
485.35	15234.55
485.53	15325.83
485.71	15145.61
485.89	15559.88
486.07	15365.62
486.25	15124.54
486.43	15543.50
486.61	15604.35
486.78	15761.17
486.96	15955.43
487.14	16025.65
487.32	15995.22
487.50	16318.22
487.68	16456.31
487.85	16606.10
488.03	16793.34
488.21	17106.98
488.39	17205.28
488.57	17106.98
488.75	17097.61
488.92	17219.32
489.10	17708.49
489.28	17364.43
489.46	17905.10
489.64	17640.62
489.81	18061.91
489.99	18258.52
490.17	18075.96
490.35	18452.78
490.53	18607.26
490.70	18609.60
490.88	18785.14
491.06	19002.81
491.24	18883.44
491.41	18965.36
491.59	19204.10
491.77	19419.42
491.95	19110.47
492.13	19496.66
492.30	19772.85
492.48	19908.60
492.66	19765.82
492.84	19714.33
493.01	20313.51
493.19	20210.53
493.37	20130.95
493.54	20446.92
493.72	20917.37
493.90	20559.27
494.08	20884.60
494.25	20954.82
494.43	20893.96
494.61	21130.36
494.79	21326.96
494.96	21228.66
495.14	21249.72
495.32	21839.54
495.49	21600.80
495.67	21958.91
495.85	22066.57
496.02	22216.36
496.20	22642.34
496.38	22427.01
496.55	22129.77
496.73	22796.82
496.91	22602.55
497.09	22731.28
497.26	22923.21
497.44	23110.45
497.62	23089.38
497.79	23578.56
497.97	23094.07
498.14	23531.75
498.32	23639.41
498.50	23730.69
498.67	23859.42
498.85	23931.98
499.03	24095.82
499.20	24058.37
499.38	24217.52
499.56	24273.70
499.73	24915.00
499.91	24364.98
500.08	24603.71
500.26	24533.50
500.44	24645.84
500.61	24594.35
500.79	24753.51
500.97	25050.75
501.14	25259.06
501.32	25502.48
501.49	25443.96
501.67	25242.68
501.84	25652.27
502.02	25174.80
502.20	25507.16
502.37	26040.80
502.55	25720.15
502.72	25869.94
502.90	26089.95
503.07	25642.91
503.25	26340.39
503.43	25860.58
503.60	26125.06
503.78	26279.54
503.95	26384.86
504.13	26185.91
504.30	26885.73
504.48	26452.73
504.65	26874.03
504.83	26647.00
505.01	26909.14
505.18	26913.82
505.36	27421.72
505.53	27182.98
505.71	27278.94
505.88	27386.61
506.06	27063.61
506.23	27613.64
506.41	27494.27
506.58	27381.93
506.76	27770.46
506.93	28039.62
507.11	27992.81
507.28	28056.00
507.46	28264.31
507.63	27887.48
507.81	28400.06
507.98	28617.73
508.16	28353.25
508.33	28737.10
508.50	28559.22
508.68	28704.33
508.85	29165.42
509.03	28568.58
509.20	28713.69
509.38	29209.89
509.55	29457.98
509.73	29240.31
509.90	29467.34
510.08	29090.52
510.25	29350.32
510.42	29624.16
510.60	29729.48
510.77	30143.76
510.95	29783.32
511.12	30075.88
511.30	29923.75
511.47	29979.92
511.64	30316.96
511.82	30265.47
511.99	30471.43
512.17	31021.46
512.34	30546.33
512.51	30424.62
512.69	30995.71
512.86	30939.54
513.04	31117.42
513.21	31033.16
513.38	31260.20
513.56	31342.11
513.73	31405.31
513.90	31129.12
514.08	31192.32
514.25	31192.32
514.43	31285.94
514.60	31770.43
514.77	31618.30
514.95	31559.78
515.12	31934.27
515.29	32114.49
515.47	31627.66
515.64	32093.43
515.81	31456.80
515.99	31938.95
516.16	32517.06
516.33	32456.21
516.51	32137.90
516.68	32196.41
516.85	32428.12
517.03	32687.92
517.20	32826.01
517.37	32559.19
517.54	32783.88
517.72	33015.60
517.89	32872.82
518.06	33092.83
518.24	32924.32
518.41	32973.47
518.58	33022.62
518.75	32718.35
518.93	33373.70
519.10	33251.99
519.27	33460.30
519.45	33993.94
519.62	33811.38
519.79	33425.19
519.96	33640.52
520.14	33968.19
520.31	33909.68
520.48	34007.98
520.65	33820.74
520.83	33813.72
521.00	34359.06
521.17	34415.24
521.34	34635.25
521.52	34436.30
521.69	34440.98
521.86	34806.11
522.03	35164.21
522.20	35019.10
522.38	34946.54
522.55	35077.61
522.72	35218.04
522.89	34944.20
523.07	35335.07
523.24	35150.17
523.41	35454.44
523.58	35171.23
523.75	35489.54
523.92	35278.89
524.10	35852.33
524.27	35800.83
524.44	35693.17
524.61	35817.22
524.78	36304.05
524.96	36074.68
525.13	36343.84
525.30	36142.55
525.47	36147.23
525.64	35847.64
525.81	36240.86
525.98	36865.78
526.16	36060.63
526.33	36240.86
526.50	36575.55
526.67	36247.88
526.84	36971.10
527.01	36734.71
527.18	36807.26
527.36	36727.69
527.53	36835.35
527.70	37113.87
527.87	37317.50
528.04	36865.78
528.21	36854.08
528.38	37151.32
528.55	37408.78
528.72	37090.47
528.89	37216.86
529.07	37046.00
529.24	37207.50
529.41	37837.10
529.58	37436.87
529.75	37598.37
529.92	37677.94
530.09	37860.51
530.26	37443.89
530.43	37809.01
530.60	37099.83
530.77	37708.37
530.94	37968.17
531.11	37865.19
531.28	37841.78
531.46	37848.80
531.63	38345.00
531.80	37750.50
531.97	38373.08
532.14	37706.03
532.31	38464.36
532.48	38609.48
532.65	38609.48
532.82	38281.80
532.99	38471.39
533.16	38649.27
533.33	38588.41
533.50	38998.01
533.67	38787.36
533.84	38354.36
534.01	38803.74
534.18	38852.89
534.35	39124.40
534.52	39079.92
534.69	39140.78
534.86	39636.97
535.03	39215.68
535.20	39234.40
535.37	39295.25
535.54	39711.87
535.71	39372.49
535.88	39948.26
536.05	39580.80
536.22	39835.92
536.38	39639.31
536.55	39655.70
536.72	39639.31
536.89	39835.92
537.06	39845.28
537.23	39693.15
537.40	39819.53
537.57	39686.12
537.74	39793.79
537.91	40327.43
538.08	40060.61
538.25	40002.10
538.42	40194.02
538.59	40861.07
538.75	40044.23
538.92	40142.53
539.09	40900.86
539.26	39995.07
539.43	40175.30
539.60	40355.52
539.77	40292.32
539.94	40526.38
540.11	41078.74
540.28	40584.89
540.44	40774.47
540.61	40741.71
540.78	40514.67
540.95	41436.84
541.12	41050.66
541.29	40982.78
541.46	40872.78
541.62	41284.71
541.79	41216.83
541.96	40837.67
542.13	40954.69
542.30	40968.74
542.47	41174.70
542.63	40926.61
542.80	41511.74
542.97	41722.39
543.14	42277.10
543.31	41666.22
543.48	41415.78
543.64	42234.97
543.81	42403.49
543.98	41991.55
544.15	41883.89
544.32	42323.91
544.48	42347.31
544.65	41876.86
544.82	42443.27
544.99	41970.49
545.16	42122.62
545.32	42082.83
545.49	42326.25
545.66	42707.76
545.83	42478.38
546.00	42557.96
546.16	42602.43
546.33	42335.61
546.50	42007.94
546.67	42712.44
546.83	42106.24
547.00	42866.91
547.17	42567.32
547.34	42969.90
547.50	42677.33
547.67	43152.46
547.84	42934.79
548.00	43171.18
548.17	43524.60
548.34	43117.35
548.51	43288.21
548.67	42946.49
548.84	43508.22
549.01	42862.23
549.18	43164.16
549.34	43297.57
549.51	43700.14
549.68	43342.04
549.84	43435.66
550.01	43840.57
550.18	42939.47
550.34	43526.94
550.51	43985.69
550.68	44091.01
550.84	43283.53
551.01	43704.82
551.18	43576.09
551.34	43597.16
551.51	43433.32
551.68	43735.25
551.84	43854.62
552.01	43604.18
552.18	43615.88
552.34	43854.62
552.51	44299.32
552.68	43711.84
552.84	44226.76
553.01	44149.53
553.18	44215.06
553.34	44158.89
553.51	43901.43
553.67	44229.10
553.84	44369.54
554.01	44406.98
554.17	44186.97
554.34	44727.64
554.51	44280.60
554.67	44891.48
554.84	44533.37
555.00	44556.78
555.17	44638.70
555.33	44580.18
555.50	44587.21
555.67	44610.61
555.83	44790.83
556.00	44940.63
556.16	44765.09
556.33	44598.91
556.50	44942.97
556.66	45111.49
556.83	44994.46
556.99	45476.61
557.16	45420.44
557.32	45090.42
557.49	45200.43
557.65	44528.69
557.82	45301.07
557.98	45092.76
558.15	44816.58
558.32	45092.76
558.48	45015.52
558.65	45368.94
558.81	45251.92
558.98	44945.31
559.14	44676.15
559.31	44907.86
559.47	45399.37
559.64	45525.76
559.80	45481.29
559.97	45649.81
560.13	45324.47
560.30	44987.44
560.46	45223.83
560.63	45982.16
560.79	45757.47
560.96	46272.39
561.12	45923.65
561.29	45544.48
561.45	45776.20
561.61	45797.26
561.78	45977.48
561.94	45984.51
562.11	45757.47
562.27	45703.64
562.44	45823.01
562.60	45989.19
562.77	45900.25
562.93	45516.40
563.10	46131.96
563.26	45558.53
563.42	45979.82
563.59	46099.19
563.75	45425.12
563.92	46256.01
564.08	45776.20
564.24	46171.75
564.41	46356.65
564.57	45848.75
564.74	46115.58
564.90	45970.46
565.07	45904.93
565.23	46124.94
565.39	46120.26
565.56	46333.24
565.72	46106.21
565.88	46089.83
566.05	46038.34
566.21	46328.56
566.38	46136.64
566.54	46562.62
566.70	46281.75
566.87	46281.75
567.03	46307.50
567.19	46506.44
567.36	46272.39
567.52	46120.26
567.68	46656.24
567.85	46663.26
568.01	46679.64
568.17	46464.32
568.34	46501.76
568.50	46696.03
568.66	46417.50
568.83	46326.22
568.99	46541.55
569.15	46471.34
569.32	46188.13
569.48	46476.02
569.64	46827.10
569.81	46930.08
569.97	46878.59
570.13	46813.05
570.30	46380.06
570.46	46478.36
570.62	46930.08
570.78	46873.91
570.95	47012.00
571.11	47009.66
571.27	46454.95
571.43	46686.67
571.60	46808.37
571.76	46513.47
571.92	46611.77
572.09	46534.53
572.25	46581.34
572.41	46380.06
572.57	46625.81
572.74	47096.26
572.90	46494.74
573.06	47004.98
573.22	46719.43
573.38	47019.02
573.55	46930.08
573.71	47365.42
573.87	46883.27
574.03	46651.56
574.20	47065.83
574.36	47037.75
574.52	47079.88
574.68	46960.51
574.84	47173.50
575.01	46618.79
575.17	47327.97
575.33	47129.03
575.49	46560.28
575.65	47051.79
575.82	46794.33
575.98	46637.51
576.14	47302.23
576.30	47587.77
576.46	47452.02
576.62	47164.14
576.79	46997.96
576.95	46574.32
577.11	46733.48
577.27	47393.51
577.43	47182.86
577.59	47047.11
577.75	46733.48
577.92	46803.69
578.08	46588.36
578.24	46857.52
578.40	47089.24
578.56	47243.71
578.72	47093.92
578.88	47065.83
579.04	47147.75
579.21	47164.14
579.37	47206.26
579.53	47110.30
579.69	46918.38
579.85	47124.35
580.01	47327.97
580.17	46916.04
580.33	46864.55
580.49	47496.49
580.65	47206.26
580.82	47400.53
580.98	47215.63
581.14	46848.16
581.30	47243.71
581.46	47395.85
581.62	47189.88
581.78	47264.78
581.94	47304.57
582.10	47304.57
582.26	47512.88
582.42	47267.12
582.58	47452.02
582.74	47407.55
582.90	47428.62
583.06	47370.10
583.22	47175.84
583.38	47337.33
583.54	47330.31
583.70	47316.27
583.86	47327.97
584.02	47152.43
584.18	47695.44
584.34	47569.05
584.50	47473.09
584.66	46941.78
584.82	47662.67
584.98	47772.67
585.14	47629.90
585.30	47047.11
585.46	47676.71
585.62	47295.21
585.78	47426.28
585.94	47215.63
586.10	47573.73
586.26	47250.74
586.42	47290.52
586.58	47569.05
586.74	47152.43
586.90	47255.42
587.06	46983.91
587.22	47379.46
587.38	47262.44
587.54	47316.27
587.70	47487.13
587.86	47072.85
588.02	47620.54
588.18	47150.09
588.34	47475.43
588.49	47657.99
588.65	47313.93
588.81	47061.15
588.97	47674.37
589.13	47363.08
589.29	47934.17
589.45	47735.23
589.61	47487.13
589.77	47742.25
589.93	47576.07
590.08	47861.61
590.24	47753.95
590.40	48072.26
590.56	47971.62
590.72	47852.25
590.88	47863.96
591.04	47461.38
591.20	47686.07
591.35	47854.59
591.51	47828.85
591.67	47849.91
591.83	48170.57
591.99	47447.34
592.15	47908.43
592.31	47828.85
592.46	47973.96
592.62	47711.82
592.78	48090.99
592.94	47899.06
593.10	48002.05
593.26	48273.55
593.41	48233.76
593.57	48112.05
593.73	48130.78
593.89	48540.37
594.05	48121.41
594.20	48074.60
594.36	48535.69
594.52	48100.35
594.68	48231.42
594.84	47978.64
594.99	48465.47
595.15	48397.60
595.31	47976.30
595.47	48158.86
595.62	48123.75
595.78	48250.14
595.94	48034.81
596.10	48044.18
596.25	48109.71
596.41	48189.29
596.57	48186.95
596.73	48381.21
596.88	48280.57
597.04	48264.19
597.20	48364.83
597.36	48100.35
597.51	48350.79
597.67	48198.65
597.83	48086.31
597.99	47983.32
598.14	48135.46
598.30	48200.99
598.46	48205.67
598.61	48680.80
598.77	48186.95
598.93	48210.35
599.09	47817.14
599.24	48413.98
599.40	47945.87
599.56	48355.47
599.71	48678.46
599.87	48999.12
600.03	48538.03
600.18	48039.50
600.34	48055.88
600.50	48322.70
600.65	48350.79
600.81	48942.94
600.97	48196.31
601.12	48404.62
601.28	47988.00
601.44	48074.60
601.59	48556.75
601.75	48053.54
601.91	48739.32
602.06	48687.82
602.22	48240.78
602.37	48580.16
602.53	48163.54
602.69	48093.33
602.84	48250.14
603.00	48303.98
603.16	48446.75
603.31	48224.40
603.47	48208.01
603.62	48119.07
603.78	48381.21
603.94	48676.12
604.09	48341.42
604.25	48545.05
604.40	48397.60
604.56	48339.08
604.71	48488.88
604.87	48109.71
605.03	47985.66
605.18	48460.79
605.34	48594.20
605.49	47959.92
605.65	48198.65
605.80	48233.76
605.96	48030.13
606.12	48318.02
606.27	48502.92
606.43	47501.17
606.58	48374.19
606.74	48144.82
606.89	48402.28
607.05	48561.44
607.20	48273.55
607.36	47852.25
607.51	47976.30
607.67	48179.93
607.82	48121.41
607.98	48612.93
608.13	47873.32
608.29	47840.55
608.44	48254.82
608.60	47885.02
608.75	48278.23
608.91	48067.58
609.06	47576.07
609.22	47927.15
609.37	47980.98
609.53	48413.98
609.68	47966.94
609.84	48069.92
609.99	47697.78
610.15	48296.95
610.30	47929.49
610.46	48442.07
610.61	48179.93
610.76	48186.95
610.92	47791.40
611.07	47384.15
611.23	47775.02
611.38	47660.33
611.54	47812.46
611.69	47936.51
611.84	47859.27
612.00	47840.55
612.15	47484.79
612.31	47842.89
612.46	47393.51
612.62	47927.15
612.77	47859.27
612.92	48079.28
613.08	47543.30
613.23	48065.24
613.39	47842.89
613.54	47487.13
613.69	47941.19
613.85	47924.81
614.00	47690.76
614.15	47913.11
614.31	47409.89
614.46	47737.57
614.62	47615.86
614.77	47636.92
614.92	47611.18
615.08	47388.83
615.23	47700.12
615.38	47452.02
615.54	47557.35
615.69	47459.04
615.84	47365.42
616.00	47782.04
616.15	47803.10
616.30	47704.80
616.46	47452.02
616.61	47292.86
616.76	47257.76
616.92	47606.50
617.07	47728.20
617.22	47323.29
617.37	46836.46
617.53	47276.48
617.68	47297.55
617.83	47299.89
617.99	47653.31
618.14	47772.67
618.29	46927.74
618.45	47187.54
618.60	46600.07
618.75	46616.45
618.90	46885.61
619.06	47009.66
619.21	47175.84
619.36	47271.80
619.51	47339.68
619.67	46759.22
619.82	46742.84
619.97	47414.57
620.12	46838.80
620.28	46539.21
620.43	47260.10
620.58	47744.59
620.73	47215.63
620.89	47250.74
621.04	46983.91
621.19	46932.42
621.34	46803.69
621.49	46714.75
621.65	47063.49
621.80	47157.11
621.95	46820.08
622.10	46927.74
622.25	46560.28
622.41	46689.01
622.56	46714.75
622.71	46579.00
622.86	46681.98
623.01	46775.61
623.16	46466.66
623.32	46616.45
623.47	46557.94
623.62	46738.16
623.77	46302.82
623.92	46733.48
624.07	46597.73
624.23	46789.65
624.38	46588.36
624.53	46733.48
624.68	46094.51
624.83	46061.74
624.98	46162.39
625.13	46054.72
625.29	46546.23
625.44	46227.92
625.59	46696.03
625.74	46113.23
625.89	45986.85
626.04	45996.21
626.19	45949.40
626.34	45745.77
626.49	45748.11
626.65	45832.37
626.80	46319.20
626.95	46092.17
627.10	46080.47
627.25	45993.87
627.40	46265.37
627.55	46089.83
627.70	45696.62
627.85	45886.20
628.00	45930.67
628.15	46045.36
628.30	45490.65
628.45	45375.97
628.60	45177.02
628.76	45869.82
628.91	45837.05
629.06	45364.26
629.21	45425.12
629.36	45357.24
629.51	45860.46
629.66	45886.20
629.81	45605.34
629.96	45790.24
630.11	45495.33
630.26	45448.52
630.41	45696.62
630.56	45167.66
630.71	45514.06
630.86	45617.04
631.01	44870.41
631.16	45193.40
631.31	45172.34
631.46	45067.02
631.61	45469.59
631.76	45172.34
631.91	45104.46
632.06	45305.75
632.21	45488.31
632.36	45928.33
632.51	44795.51
632.66	45268.30
632.81	45017.86
632.96	44863.39
633.10	45450.86
633.25	45373.63
633.40	44994.46
633.55	45280.00
633.70	44802.53
633.85	44912.54
634.00	45034.25
634.15	45088.08
634.30	44818.92
634.45	45081.06
634.60	44804.88
634.75	45106.80
634.90	45216.81
635.05	44821.26
635.19	44678.49
635.34	45043.61
635.49	44528.69
635.64	44776.79
635.79	44591.89
635.94	44989.78
636.09	44685.51
636.24	45109.14
636.39	44804.88
636.53	44580.18
636.68	44296.98
636.83	44229.10
636.98	44098.03
637.13	44140.16
637.28	44196.34
637.43	44598.91
637.57	43983.35
637.72	43842.92
637.87	44477.20
638.02	44292.30
638.17	44554.44
638.32	43873.34
638.46	43627.59
638.61	44016.11
638.76	43840.57
638.91	44257.19
639.06	43906.11
639.20	43847.60
639.35	43562.05
639.50	43892.07
639.65	43681.42
639.80	44271.23
639.94	44088.67
640.09	44233.78
640.24	43934.20
640.39	43798.44
640.54	43323.32
640.68	44072.29
640.83	43784.40
640.98	43887.39
641.13	43503.54
641.27	44163.57
641.42	43978.67
641.57	43730.57
641.72	43564.39
641.86	43646.31
642.01	43236.72
642.16	43239.06
642.31	42885.64
642.45	43548.01
642.60	42859.89
642.75	43304.59
642.90	43543.33
643.04	43770.36
643.19	42988.62
643.34	43419.28
643.48	42831.80
643.63	43065.86
643.78	43388.85
643.93	43807.81
644.07	43105.65
644.22	43227.35
644.37	43103.31
644.51	43098.62
644.66	42440.93
644.81	43304.59
644.95	43220.33
645.10	43138.41
645.25	43049.47
645.39	42834.14
645.54	42742.86
645.69	42927.77
645.83	42394.12
645.98	42770.95
646.13	42796.70
646.27	42831.80
646.42	42445.62
646.57	43047.13
646.71	42611.79
646.86	42955.85
647.00	42728.82
647.15	42944.15
647.30	42749.88
647.44	42883.30
647.59	42583.71
647.74	42314.55
647.88	43040.11
648.03	42873.93
648.17	43381.83
648.32	42291.14
648.47	42862.23
648.61	42560.30
648.76	42499.45
648.90	42249.01
649.05	42426.89
649.20	42593.07
649.34	42913.72
649.49	42218.58
649.63	42621.16
649.78	42504.13
649.92	42609.45
650.07	42979.26
650.21	42796.70
650.36	42607.11
650.51	41776.22
650.65	42740.52
650.80	42497.11
650.94	42270.08
651.09	42293.48
651.23	42220.92
651.38	41881.55
651.52	41415.78
651.67	42071.13
651.81	42036.02
651.96	41890.91
652.10	41504.72
652.25	41708.35
652.39	41652.17
652.54	41783.24
652.68	41558.55
652.83	41818.35
652.97	42096.88
653.12	42148.37
653.26	41940.06
653.41	42223.26
653.55	41282.37
653.70	42232.63
653.84	42106.24
653.99	42548.60
654.13	41511.74
654.27	41668.56
654.42	41684.94
654.56	41621.75
654.71	41794.95
654.85	41748.14
655.00	41493.02
655.14	41867.50
655.29	41626.43
655.43	42040.70
655.57	41565.57
655.72	41305.77
655.86	40954.69
656.01	41418.12
656.15	40919.59
656.30	41118.53
656.44	41265.99
656.58	41373.65
656.73	41425.14
656.87	40971.08
657.01	40414.03
657.16	41174.70
657.30	40931.29
657.45	40800.22
657.59	40573.19
657.73	40655.11
657.88	40715.96
658.02	41017.89
658.16	41163.00
658.31	40533.40
658.45	40645.74
658.60	40559.14
658.74	40573.19
658.88	40783.83
659.03	40385.94
659.17	40416.37
659.31	40519.35
659.46	40163.59
659.60	40502.97
659.74	40238.49
659.89	39831.24
660.03	39779.74
660.17	40058.27
660.32	40456.16
660.46	40341.47
660.60	39754.00
660.74	40046.57
660.89	40376.58
661.03	39541.01
661.17	40048.91
661.32	39615.91
661.46	39234.40
661.60	39679.10
661.74	39199.29
661.89	39187.59
662.03	40156.57
662.17	39552.71
662.31	39510.58
662.46	39475.48
662.60	39358.45
662.74	39274.19
662.88	39260.15
663.03	38979.28
663.17	39119.71
663.31	38871.62
663.45	38941.83
663.60	39227.38
663.74	38667.99
663.88	38916.09
664.02	38787.36
664.17	39459.09
664.31	39007.37
664.45	38183.50
664.59	38796.72
664.73	38394.15
664.88	38682.03
665.02	38366.06
665.16	38398.83
665.30	38501.81
665.44	38483.09
665.59	38340.32
665.73	37729.44
665.87	37722.41
666.01	38607.14
666.15	37956.47
666.29	37818.38
666.44	38508.83
666.58	37797.31
666.72	38108.60
666.86	37914.34
667.00	37811.35
667.14	37635.81
667.28	37387.72
667.43	37322.18
667.57	37397.08
667.71	37762.20
667.85	37958.81
667.99	37509.43
668.13	37069.40
668.27	37088.13
668.41	37570.28
668.56	36669.17
668.70	36706.62
668.84	37095.15
668.98	36582.57
669.12	37048.34
669.26	36842.37
669.40	36570.87
669.54	36933.65
669.68	36868.12
669.82	36617.68
669.96	36212.77
670.10	35861.69
670.25	36315.75
670.39	36507.68
670.53	36503.00
670.67	36030.21
670.81	36374.27
670.95	36472.57
671.09	35627.63
671.23	35632.32
671.37	35950.63
671.51	35957.65
671.65	36062.97
671.79	35983.40
671.93	35611.25
672.07	35796.15
672.21	35695.51
672.35	35325.71
672.49	35732.96
672.63	35288.26
672.77	34845.90
672.91	35168.89
673.05	34932.50
673.19	34728.87
673.33	34569.71
673.47	35051.86
673.61	34920.79
673.75	34508.86
673.89	34696.10
674.03	34532.26
674.17	34616.52
674.31	34122.67
674.45	34281.83
674.59	33944.79
674.73	34012.66
674.87	33963.51
675.01	33598.39
675.15	33500.09
675.29	33553.92
675.43	33773.93
675.56	34082.88
675.70	33303.48
675.84	33179.43
675.98	32432.80
676.12	33109.22
676.26	33497.75
676.40	32938.36
676.54	32634.09
676.68	32730.05
676.82	32526.42
676.96	32823.67
677.10	32648.13
677.23	32617.71
677.37	32402.38
677.51	32048.96
677.65	32463.23
677.79	32009.17
677.93	32264.28
678.07	31562.12
678.21	31473.18
678.34	31672.13
678.48	31405.31
678.62	31477.86
678.76	31634.68
678.90	30939.54
679.04	31243.81
679.18	31381.90
679.31	31009.76
679.45	30841.24
679.59	30520.59
679.73	30876.35
679.87	30534.63
680.00	30307.60
680.14	30916.14
680.28	30710.17
680.42	30204.61
680.56	30249.08
680.70	29989.28
680.83	29759.91
680.97	29860.55
681.11	29907.37
681.25	29631.18
681.39	29694.38
681.52	29406.49
681.66	29240.31
681.80	28910.30
681.94	29146.69
682.07	29001.58
682.21	28573.26
682.35	28610.71
682.49	28863.49
682.62	28430.49
682.76	28994.56
682.90	28882.21
683.04	28556.88
683.17	28346.23
683.31	28126.22
683.45	27960.04
683.59	27791.52
683.72	27913.23
683.86	27882.80
684.00	27936.63
684.13	27866.42
684.27	27828.97
684.41	27398.31
684.55	27550.45
684.68	27328.10
684.82	27037.87
684.96	26958.29
685.09	27388.95
685.23	26951.27
685.37	27541.08
685.50	27321.07
685.64	26944.25
685.78	26457.42
685.91	26632.96
686.05	26239.75
686.19	26103.99
686.32	26047.82
686.46	25809.09
686.60	25666.31
686.73	25729.51
686.87	25577.37
687.01	25832.49
687.14	25591.42
687.28	25481.41
687.42	25591.42
687.55	25247.36
687.69	25319.92
687.82	24971.18
687.96	24978.20
688.10	25111.61
688.23	24966.49
688.37	25017.99
688.50	25017.99
688.64	24734.78
688.78	24587.33
688.91	24149.65
689.05	23833.68
689.18	24018.58
689.32	23789.20
689.46	23573.88
689.59	23901.55
689.73	24077.09
689.86	24098.16
690.00	23651.11
690.13	23709.63
690.27	23473.23
690.41	23770.48
690.54	23271.95
690.68	23159.60
690.81	23358.55
690.95	22752.35
691.08	23147.90
691.22	22726.60
691.35	22604.89
691.49	22700.86
691.62	22845.97
691.76	22239.77
691.89	22148.49
692.03	21965.93
692.16	21685.06
692.30	22207.00
692.43	22157.85
692.57	21900.39
692.70	21640.59
692.84	21621.87
692.97	21303.56
693.11	21586.76
693.24	21174.83
693.38	20947.79
693.51	20776.94
693.65	20931.41
693.78	20805.02
693.92	21032.05
694.05	20699.70
694.19	20552.24
694.32	20861.19
694.45	20692.68
694.59	20695.02
694.72	21055.46
694.86	20320.53
694.99	20058.39
695.13	19999.88
695.26	20030.30
695.39	19728.38
695.53	19669.86
695.66	19693.27
695.80	19761.14
695.93	19599.65
696.07	19433.47
696.20	18864.72
696.33	18340.44
696.47	18752.37
696.60	18841.31
696.73	19204.10
696.87	18995.79
697.00	18923.23
697.14	18735.99
697.27	18693.86
697.40	18480.87
697.54	18485.55
697.67	18525.34
697.80	18647.05
697.94	18148.51
698.07	18111.07
698.21	17841.90
698.34	18012.76
698.47	17839.56
698.61	17577.42
698.74	17724.88
698.87	17598.49
699.01	17502.53
699.14	17528.27
699.27	17575.08
699.40	17359.75
699.54	17511.89
699.67	17069.53
699.80	17359.75
699.94	16973.56
700.07	17076.55
700.20	16800.37
700.34	16889.31
700.47	16669.30
700.60	16734.83
700.73	16578.01
700.87	16505.46
701.00	16414.18
701.13	16070.12
701.26	16341.62
701.40	16107.57
701.53	15723.72
701.66	16067.78
701.79	16369.71
701.93	15571.58
702.06	15599.67
702.19	15665.21
702.32	15719.04
702.46	15662.86
702.59	15693.29
702.72	15880.53
702.85	15578.61
702.99	15524.77
703.12	15208.80
703.25	15077.73
703.38	14890.49
703.51	14984.11
703.65	14572.18
703.78	14679.84
703.91	14607.28
704.04	14616.65
704.17	14586.22
704.31	14394.29
704.44	14539.41
704.57	14218.75
704.70	14497.28
704.83	14113.43
704.96	13980.02
705.10	14005.77
705.23	13895.76
>>>>>End Processed Spectral Data<<<<<
