SpectraSuite Data File
++++++++++++++++++++++++++++++++++++
Date: Fri Oct 25 10:47:17 EDT 2013
User: price-jones
Dark Spectrum Present: No
Reference Spectrum Present: No
Number of Sampled Component Spectra: 1
Spectrometers: USB2+H05261
Integration Time (usec): 100000 (USB2+H05261)
Spectra Averaged: 1 (USB2+H05261)
Boxcar Smoothing: 0 (USB2+H05261)
Correct for Electrical Dark: No (USB2+H05261)
Strobe/Lamp Enabled: No (USB2+H05261)
Correct for Detector Non-linearity: No (USB2+H05261)
Correct for Stray Light: No (USB2+H05261)
Number of Pixels in Processed Spectrum: 2048
>>>>>Begin Processed Spectral Data<<<<<
365.73	173.20
365.92	173.20
366.12	173.20
366.32	11.70
366.52	28.09
366.72	25.75
366.91	0.00
367.11	39.79
367.31	79.58
367.51	105.32
367.70	32.77
367.90	23.41
368.10	65.54
368.30	39.79
368.49	7.02
368.69	35.11
368.89	56.17
369.09	0.00
369.28	114.69
369.48	110.01
369.68	93.62
369.87	100.64
370.07	105.32
370.27	119.37
370.47	208.31
370.66	369.80
370.86	346.40
371.06	442.36
371.25	489.17
371.45	411.93
371.65	402.57
371.84	449.38
372.04	423.64
372.24	425.98
372.44	500.87
372.63	472.79
372.83	458.74
373.03	489.17
373.22	416.62
373.42	512.58
373.62	524.28
373.81	489.17
374.01	648.33
374.21	557.05
374.40	533.64
374.60	575.77
374.79	521.94
374.99	505.56
375.19	465.77
375.38	491.51
375.58	554.71
375.78	571.09
375.97	580.45
376.17	594.50
376.37	578.11
376.56	629.60
376.76	575.77
376.95	512.58
377.15	587.47
377.35	505.56
377.54	631.94
377.74	566.41
377.93	589.82
378.13	601.52
378.33	615.56
378.52	550.03
378.72	528.96
378.91	622.58
379.11	582.79
379.31	603.86
379.50	517.26
379.70	671.73
379.89	645.99
380.09	585.13
380.28	638.97
380.48	547.69
380.68	594.50
380.87	631.94
381.07	634.29
381.26	638.97
381.46	690.46
381.65	699.82
381.85	648.33
382.04	713.86
382.24	688.12
382.43	608.54
382.63	631.94
382.83	751.31
383.02	681.10
383.22	732.59
383.41	655.35
383.61	734.93
383.80	709.18
384.00	657.69
384.19	709.18
384.39	695.14
384.58	748.97
384.78	720.88
384.97	784.08
385.17	732.59
385.36	723.23
385.56	653.01
385.75	662.37
385.95	795.78
386.14	809.83
386.34	805.14
386.53	720.88
386.72	697.48
386.92	798.12
387.11	828.55
387.31	779.40
387.50	854.30
387.70	791.10
387.89	779.40
388.09	772.38
388.28	875.36
388.48	800.46
388.67	854.30
388.86	884.72
389.06	866.00
389.25	830.89
389.45	837.91
389.64	875.36
389.84	844.93
390.03	833.23
390.22	889.40
390.42	805.14
390.61	784.08
390.81	833.23
391.00	851.96
391.19	933.87
391.39	950.26
391.58	959.62
391.78	983.02
391.97	912.81
392.16	929.19
392.36	924.51
392.55	938.55
392.75	929.19
392.94	940.90
393.13	912.81
393.33	882.38
393.52	954.94
393.71	903.45
393.91	994.73
394.10	973.66
394.29	1071.97
394.49	980.68
394.68	1074.31
394.88	1032.18
395.07	1041.54
395.26	1053.24
395.46	1076.65
395.65	1083.67
395.84	1149.20
396.04	1128.14
396.23	966.64
396.42	1015.79
396.62	1074.31
396.81	1090.69
397.00	1060.26
397.19	1086.01
397.39	1228.78
397.58	1203.04
397.77	1181.97
397.97	1247.51
398.16	1186.65
398.35	1158.57
398.55	1249.85
398.74	1289.64
398.93	1212.40
399.12	1217.08
399.32	1188.99
399.51	1331.76
399.70	1329.42
399.90	1299.00
400.09	1350.49
400.28	1284.95
400.47	1249.85
400.67	1331.76
400.86	1404.32
401.05	1472.20
401.24	1334.11
401.44	1467.52
401.63	1376.24
401.82	1455.81
402.01	1359.85
402.21	1369.21
402.40	1476.88
402.59	1476.88
402.78	1406.66
402.97	1467.52
403.17	1486.24
403.36	1511.99
403.55	1497.94
403.74	1490.92
403.93	1465.18
404.13	1636.03
404.32	1511.99
404.51	1523.69
404.70	1598.59
404.89	1540.07
405.09	1816.26
405.28	1614.97
405.47	1610.29
405.66	1650.08
405.85	1643.06
406.05	1666.46
406.24	1739.02
406.43	1647.74
406.62	1629.01
406.81	1771.79
407.00	1825.62
407.20	1802.21
407.39	1795.19
407.58	1877.11
407.77	1816.26
407.96	1928.60
408.15	1795.19
408.34	1947.33
408.54	1966.05
408.73	1898.17
408.92	1902.86
409.11	1975.41
409.30	1853.70
409.49	1820.94
409.68	1930.94
409.87	2010.52
410.07	1944.99
410.26	1987.11
410.45	1954.35
410.64	2146.27
410.83	2118.18
411.02	2097.12
411.21	2169.68
411.40	2200.10
411.59	2108.82
411.78	2221.17
411.98	2146.27
412.17	2122.87
412.36	2289.04
412.55	2291.38
412.74	2167.34
412.93	2401.39
413.12	2373.30
413.31	2415.43
413.50	2377.98
413.69	2424.80
413.88	2495.01
414.07	2429.48
414.26	2490.33
414.45	2495.01
414.64	2406.07
414.83	2497.35
415.02	2616.72
415.22	2635.44
415.41	2696.30
415.60	2539.48
415.79	2684.59
415.98	2792.26
416.17	2675.23
416.36	2750.13
416.55	2726.72
416.74	2764.17
416.93	2810.98
417.12	2775.88
417.31	2860.13
417.50	2775.88
417.69	2796.94
417.88	2902.26
418.07	2860.13
418.26	2883.54
418.45	2949.08
418.64	2977.16
418.83	3005.25
419.02	3019.29
419.21	3000.57
419.39	3005.25
419.58	3066.10
419.77	2986.52
419.96	3049.72
420.15	3103.55
420.34	3059.08
420.53	3122.27
420.72	3297.81
420.91	3288.45
421.10	3290.79
421.29	3194.83
421.48	3183.13
421.67	3295.47
421.86	3267.39
422.05	3229.94
422.24	3201.85
422.43	3370.37
422.61	3379.73
422.80	3461.65
422.99	3304.84
423.18	3311.86
423.37	3337.60
423.56	3398.46
423.75	3459.31
423.94	3344.63
424.13	3119.93
424.32	3349.31
424.50	3349.31
424.69	3463.99
424.88	3405.48
425.07	3442.93
425.26	3438.25
425.45	3297.81
425.64	3311.86
425.83	3372.71
426.01	3471.01
426.20	3447.61
426.39	3466.33
426.58	3461.65
426.77	3471.01
426.96	3445.27
427.15	3515.48
427.33	3524.85
427.52	3468.67
427.71	3471.01
427.90	3557.61
428.09	3480.38
428.28	3707.41
428.46	3566.98
428.65	3581.02
428.84	3686.34
429.03	3772.94
429.22	3510.80
429.40	3698.05
429.59	3655.92
429.78	3442.93
429.97	3574.00
430.16	3618.47
430.34	3824.44
430.53	3667.62
430.72	3838.48
430.91	3707.41
431.10	3747.20
431.28	3789.33
431.47	4058.49
431.66	3974.23
431.85	3911.04
432.03	4009.34
432.22	4067.85
432.41	4049.13
432.60	4030.40
432.79	3985.93
432.97	4028.06
433.16	4128.70
433.35	4086.58
433.54	4053.81
433.72	4065.51
433.91	4051.47
434.10	3992.95
434.28	4102.96
434.47	4187.22
434.66	4339.35
434.85	4236.37
435.03	4299.56
435.22	4257.43
435.41	4395.53
435.59	4252.75
435.78	4231.69
435.97	4252.75
436.16	4334.67
436.34	4437.66
436.53	4512.55
436.72	4456.38
436.90	4388.50
437.09	4468.08
437.28	4278.50
437.46	4456.38
437.65	4531.28
437.84	4369.78
438.02	4475.10
438.21	4592.13
438.40	4578.09
438.58	4568.73
438.77	4819.16
438.96	4573.41
439.14	4741.93
439.33	4966.62
439.52	4917.47
439.70	4978.32
439.89	4840.23
440.08	4821.50
440.26	4950.23
440.45	4912.78
440.63	4950.23
440.82	5081.30
441.01	5123.43
441.19	5249.82
441.38	5247.48
441.57	5224.08
441.75	5238.12
441.94	5284.93
442.12	5352.81
442.31	5481.53
442.50	5401.96
442.68	5366.85
442.87	5362.17
443.05	5430.04
443.24	5530.69
443.43	5528.35
443.61	5565.79
443.80	5762.40
443.98	5523.66
444.17	5455.79
444.35	5565.79
444.54	5617.29
444.73	5614.95
444.91	5476.85
445.10	5598.56
445.28	5584.52
445.47	5626.65
445.65	5516.64
445.84	5577.50
446.02	5628.99
446.21	5624.31
446.39	5659.42
446.58	5776.44
446.77	5783.46
446.95	5636.01
447.14	5696.86
447.32	5778.78
447.51	5511.96
447.69	5675.80
447.88	5743.67
448.06	5692.18
448.25	5727.29
448.43	5926.24
448.62	5872.40
448.80	5598.56
448.99	5783.46
449.17	5877.09
449.36	5846.66
449.54	5949.64
449.73	5942.62
449.91	6001.13
450.10	6047.94
450.28	6057.31
450.46	6122.84
450.65	6246.89
450.83	6083.05
451.02	6059.65
451.20	6181.35
451.39	6157.95
451.57	6127.52
451.76	6071.35
451.94	6167.31
452.13	6134.54
452.31	6221.14
452.49	6225.82
452.68	6256.25
452.86	6190.72
453.05	6274.98
453.23	6207.10
453.42	6314.77
453.60	6286.68
453.78	6443.49
453.97	6282.00
454.15	6211.78
454.34	6448.18
454.52	6518.39
454.70	6450.52
454.89	6457.54
455.07	6450.52
455.26	6700.95
455.44	6703.29
455.62	6546.48
455.81	6579.25
455.99	6736.06
456.17	6740.74
456.36	6881.18
456.54	6939.69
456.73	6745.42
456.91	6911.60
457.09	6939.69
457.28	7066.08
457.46	6759.47
457.64	6977.14
457.83	6899.90
458.01	6825.00
458.19	7054.37
458.38	7040.33
458.56	7073.10
458.74	7159.70
458.93	7190.13
459.11	7080.12
459.29	7148.00
459.48	7152.68
459.66	7164.38
459.84	7288.43
460.03	7382.05
460.21	7445.24
460.39	7300.13
460.57	7248.64
460.76	7517.80
460.94	7566.95
461.12	7571.63
461.31	7475.67
461.49	7414.82
461.67	7536.52
461.85	7573.97
462.04	7356.30
462.22	7885.26
462.40	7749.51
462.59	7456.95
462.77	7578.65
462.95	7613.76
463.13	7803.35
463.32	7676.96
463.50	7843.14
463.68	7934.42
463.86	7850.16
464.05	7770.58
464.23	7686.32
464.41	7934.42
464.59	7756.54
464.78	7911.01
464.96	7983.57
465.14	7887.61
465.32	7908.67
465.50	7920.37
465.69	8124.00
465.87	7892.29
466.05	7908.67
466.23	7894.63
466.41	7845.48
466.60	8093.57
466.78	8025.70
466.96	8051.44
467.14	8109.96
467.32	8273.79
467.51	8149.75
467.69	8060.80
467.87	8124.00
468.05	8334.65
468.23	8163.79
468.41	8222.30
468.60	8344.01
468.78	8477.42
468.96	8339.33
469.14	8526.57
469.32	8552.32
469.50	8278.47
469.69	8454.02
469.87	8610.83
470.05	8517.21
470.23	8620.19
470.41	8482.10
470.59	8636.58
470.77	8369.76
470.95	8617.85
471.14	8798.07
471.32	8617.85
471.50	8889.35
471.68	8674.03
471.86	9001.70
472.04	9036.81
472.22	9076.60
472.40	8999.36
472.58	8929.14
472.77	9233.41
472.95	9207.67
473.13	9430.02
473.31	8997.02
473.49	9252.14
473.67	9020.42
473.85	9245.12
474.03	9343.42
474.21	9645.35
474.39	9645.35
474.57	9671.09
474.75	9757.69
474.93	9731.95
475.12	9813.87
475.30	9619.60
475.48	9537.68
475.66	10162.61
475.84	9657.05
476.02	9863.02
476.20	10052.60
476.38	10225.80
476.56	10396.66
476.74	10246.87
476.92	10211.76
477.10	10319.42
477.28	10370.91
477.46	10562.84
477.64	10504.32
477.82	10918.60
478.00	10986.47
478.18	10949.03
478.36	11204.14
478.54	11178.40
478.72	11119.89
478.90	11232.23
479.08	11330.53
479.26	11403.09
479.44	11660.55
479.62	11683.95
479.80	11545.86
479.98	11665.23
480.16	11974.18
480.34	11967.16
480.52	11948.43
480.70	11845.45
480.88	11817.36
481.06	11997.59
481.24	12346.33
481.41	12465.69
481.59	12575.70
481.77	12748.90
481.95	12542.93
482.13	12791.03
482.31	12442.29
482.49	12886.99
482.67	12992.31
482.85	13132.75
483.03	13628.94
483.21	13437.02
483.39	13322.33
483.57	13422.97
483.74	13509.57
483.92	13834.91
484.10	13760.01
484.28	13837.25
484.46	13956.61
484.64	14527.71
484.82	14118.11
485.00	14387.27
485.18	14590.90
485.35	14796.87
485.53	14387.27
485.71	14853.04
485.89	14927.94
486.07	14841.34
486.25	14984.11
486.43	15080.07
486.61	15173.69
486.78	15384.34
486.96	15447.54
487.14	15852.45
487.32	15728.40
487.50	15899.26
487.68	15749.46
487.85	16472.69
488.03	16475.03
488.21	16416.52
488.39	16451.63
488.57	16358.00
488.75	16528.86
488.92	16664.61
489.10	16966.54
489.28	16926.75
489.46	17202.94
489.64	17226.34
489.81	17898.08
489.99	17570.40
490.17	17895.74
490.35	18209.37
490.53	17731.90
490.70	18342.78
490.88	18204.69
491.06	18288.95
491.24	18242.14
491.41	18656.41
491.59	18668.11
491.77	18518.32
491.95	18806.20
492.13	18934.93
492.30	19346.87
492.48	19484.96
492.66	19014.51
492.84	19396.02
493.01	19475.60
493.19	19470.92
493.37	19770.51
493.54	19763.48
493.72	19716.67
493.90	20056.05
494.08	20580.33
494.25	20666.93
494.43	20692.68
494.61	20783.96
494.79	20755.87
494.96	20723.10
495.14	21109.29
495.32	20879.92
495.49	21137.38
495.67	21546.97
495.85	21207.59
496.02	21741.24
496.20	21701.45
496.38	21542.29
496.55	21893.37
496.73	22239.77
496.91	22188.28
497.09	22202.32
497.26	22185.94
497.44	22099.34
497.62	22504.25
497.79	22604.89
497.97	22916.19
498.14	22607.23
498.32	22745.33
498.50	23058.96
498.67	23239.18
498.85	23110.45
499.03	23735.37
499.20	23311.74
499.38	23190.03
499.56	23391.31
499.73	23655.79
499.91	23576.22
500.08	23962.40
500.26	23501.32
500.44	24027.94
500.61	23791.55
500.79	23520.04
500.97	24210.50
501.14	24477.32
501.32	24465.62
501.49	24203.48
501.67	24627.12
501.84	24737.12
502.02	24662.22
502.20	24982.88
502.37	25034.37
502.55	24865.85
502.72	25315.23
502.90	24755.85
503.07	25036.71
503.25	25067.14
503.43	25106.93
503.60	25493.12
503.78	25462.69
503.95	25458.01
504.13	25432.26
504.30	25614.82
504.48	25916.75
504.65	25748.23
504.83	26068.89
505.01	26455.08
505.18	26169.53
505.36	26270.17
505.53	26242.09
505.71	26424.65
505.88	26747.64
506.06	26129.74
506.23	26342.73
506.41	26766.37
506.58	26836.58
506.76	26977.01
506.93	26920.84
507.11	26962.97
507.28	26803.82
507.46	27173.62
507.63	27201.71
507.81	27658.11
507.98	27281.28
508.16	27641.73
508.33	27651.09
508.50	27377.25
508.68	27714.28
508.85	28060.68
509.03	27864.08
509.20	27754.07
509.38	28570.92
509.55	28254.95
509.73	28376.66
509.90	28285.37
510.08	28549.85
510.25	28444.53
510.42	28261.97
510.60	28489.00
510.77	28662.20
510.95	29027.32
511.12	28474.96
511.30	29027.32
511.47	28917.32
511.64	29322.23
511.82	29003.92
511.99	28877.53
512.17	29369.04
512.34	29252.02
512.51	29640.54
512.69	29404.15
512.86	29490.75
513.04	29764.59
513.21	29666.29
513.38	29603.10
513.56	29848.85
513.73	29811.40
513.90	30176.53
514.08	30181.21
514.25	30204.61
514.43	30384.83
514.60	30394.20
514.77	30155.46
514.95	30485.48
515.12	30560.37
515.29	30469.09
515.47	30857.62
515.64	31381.90
515.81	30546.33
515.99	30726.55
516.16	30754.64
516.33	30806.13
516.51	31402.97
516.68	31220.41
516.85	30944.22
517.03	31189.98
517.20	31019.12
517.37	31323.39
517.54	31632.34
517.72	31388.92
517.89	31548.08
518.06	31669.79
518.24	31358.50
518.41	31351.48
518.58	31857.03
518.75	31431.05
518.93	31988.10
519.10	31960.02
519.27	31999.80
519.45	32037.25
519.62	32252.58
519.79	32435.14
519.96	32437.48
520.14	32673.88
520.31	32257.26
520.48	32704.31
520.65	32627.07
520.83	32685.58
521.00	32634.09
521.17	32594.30
521.34	33099.86
521.52	33060.07
521.69	32739.41
521.86	33315.19
522.03	33036.66
522.20	33099.86
522.38	33453.28
522.55	33354.97
522.72	33301.14
522.89	33123.26
523.07	33603.07
523.24	33684.99
523.41	33811.38
523.58	33254.33
523.75	33930.75
523.92	34153.10
524.10	33860.53
524.27	34089.90
524.44	34443.32
524.61	34422.26
524.78	34412.90
524.96	34232.68
525.13	34717.17
525.30	34096.92
525.47	34581.42
525.64	34543.97
525.81	34646.95
525.98	34618.86
526.16	34916.11
526.33	34586.10
526.50	34656.31
526.67	34672.70
526.84	34745.25
527.01	35070.59
527.18	35260.17
527.36	35194.64
527.53	35260.17
527.70	35269.53
527.87	35545.72
528.04	35325.71
528.21	35374.86
528.38	35047.18
528.55	35557.42
528.72	35206.34
528.89	35655.72
529.07	35618.27
529.24	35468.48
529.41	35828.92
529.58	35728.28
529.75	35859.35
529.92	36060.63
530.09	36121.49
530.26	36257.24
530.43	35791.47
530.60	35782.11
530.77	35672.10
530.94	36137.87
531.11	36107.44
531.28	36339.16
531.46	36730.03
531.63	35943.61
531.80	36472.57
531.97	36311.07
532.14	36397.67
532.31	36629.38
532.48	36720.66
532.65	36727.69
532.82	36334.48
532.99	36479.59
533.16	36587.25
533.33	36795.56
533.50	37099.83
533.67	36636.41
533.84	36931.31
534.01	37422.83
534.18	36676.19
534.35	37291.76
534.52	37661.56
534.69	36982.80
534.86	37350.27
535.03	37521.13
535.20	37570.28
535.37	37949.45
535.54	37794.97
535.71	37535.17
535.88	37556.24
536.05	37277.71
536.22	37490.70
536.38	37722.41
536.55	37603.05
536.72	38099.24
536.89	37329.20
537.06	37645.18
537.23	37778.59
537.40	37743.48
537.57	37979.87
537.74	37890.93
537.91	38326.27
538.08	38014.98
538.25	37764.54
538.42	38197.54
538.59	38120.31
538.75	37919.02
538.92	38178.82
539.09	38443.30
539.26	38593.09
539.43	38356.70
539.60	38696.08
539.77	38550.96
539.94	38607.14
540.11	38518.20
540.28	38164.78
540.44	38782.68
540.61	39281.21
540.78	38574.37
540.95	38817.78
541.12	38455.00
541.29	38742.89
541.46	38543.94
541.62	38895.02
541.79	39061.20
541.96	38820.13
542.13	38873.96
542.30	38735.87
542.47	39545.69
542.63	39384.19
542.80	39679.10
542.97	39749.32
543.14	39831.24
543.31	39917.84
543.48	39618.25
543.64	40367.22
543.81	39770.38
543.98	39648.68
544.15	39775.06
544.32	40280.62
544.48	40472.54
544.65	39744.64
544.82	39828.90
544.99	39381.85
545.16	39835.92
545.32	39835.92
545.49	39835.92
545.66	40346.15
545.83	39899.11
546.00	40505.31
546.16	40423.39
546.33	39842.94
546.50	39648.68
546.67	40547.44
546.83	39880.39
547.00	40598.93
547.17	40219.77
547.34	40210.40
547.50	40568.51
547.67	40666.81
547.84	40584.89
548.00	40629.36
548.17	40786.18
548.34	40486.59
548.51	40807.24
548.67	41230.88
548.84	40662.13
549.01	41057.68
549.18	40278.28
549.34	41177.04
549.51	41015.55
549.68	40851.71
549.84	40587.23
550.01	41235.56
550.18	40818.94
550.34	40847.03
550.51	41237.90
550.68	40931.29
550.84	40882.14
551.01	41478.97
551.18	40980.44
551.34	41345.56
551.51	41598.34
551.68	41343.22
551.84	41408.76
552.01	41546.85
552.18	41399.40
552.34	41502.38
552.51	41605.36
552.68	41354.93
552.84	41656.85
553.01	41708.35
553.18	41574.94
553.34	41612.38
553.51	41727.07
553.67	41837.08
553.84	41652.17
554.01	41785.58
554.17	41591.32
554.34	42230.29
554.51	41727.07
554.67	42146.03
554.84	41860.48
555.00	42071.13
555.17	41422.80
555.33	42291.14
555.50	41921.34
555.67	42157.73
555.83	42094.53
556.00	42232.63
556.16	42113.26
556.33	42632.86
556.50	42314.55
556.66	42794.36
556.83	42190.50
556.99	42316.89
557.16	42464.34
557.32	42621.16
557.49	42157.73
557.65	42543.92
557.82	41954.10
557.98	42377.74
558.15	42731.16
558.32	42642.22
558.48	42483.06
558.65	42440.93
558.81	42464.34
558.98	42595.41
559.14	42670.31
559.31	42717.12
559.47	42557.96
559.64	42843.51
559.80	42768.61
559.97	42733.50
560.13	42794.36
560.30	42897.34
560.46	42902.02
560.63	43199.27
560.79	42792.01
560.96	43152.46
561.12	42649.24
561.29	42873.93
561.45	42918.40
561.61	43070.54
561.78	42986.28
561.94	43107.99
562.11	42801.38
562.27	42909.04
562.44	42897.34
562.60	43473.11
562.77	43381.83
562.93	42934.79
563.10	43328.00
563.26	42864.57
563.42	43203.95
563.59	42958.19
563.75	42932.45
563.92	43330.34
564.08	43433.32
564.24	43707.16
564.41	42951.17
564.57	43136.07
564.74	43075.22
564.90	43473.11
565.07	43311.61
565.23	43658.01
565.39	43206.29
565.56	43477.79
565.72	43119.69
565.88	43372.47
566.05	43318.64
566.21	43283.53
566.38	43658.01
566.54	43487.15
566.70	43782.06
566.87	43648.65
567.03	43339.70
567.19	43765.68
567.36	43386.51
567.52	43122.03
567.68	44107.40
567.85	43173.52
568.01	43332.68
568.17	43489.49
568.34	43569.07
568.50	43283.53
568.66	43005.00
568.83	43625.25
568.99	43475.45
569.15	43358.42
569.32	43377.15
569.48	43248.42
569.64	43328.00
569.81	43941.22
569.97	43646.31
570.13	43311.61
570.30	43330.34
570.46	43562.05
570.62	43531.62
570.78	43442.68
570.95	43599.50
571.11	43875.68
571.27	43398.21
571.43	43845.26
571.60	44062.93
571.76	43777.38
571.92	43526.94
572.09	43805.47
572.25	43840.57
572.41	43718.87
572.57	43643.97
572.74	43973.98
572.90	43761.00
573.06	43332.68
573.22	43548.01
573.38	43793.76
573.55	43344.38
573.71	43779.72
573.87	43753.97
574.03	43597.16
574.20	43763.34
574.36	43700.14
574.52	43955.26
574.68	44280.60
574.84	44123.78
575.01	43777.38
575.17	43732.91
575.33	43725.89
575.49	43758.66
575.65	44151.87
575.82	44114.42
575.98	43772.70
576.14	44034.84
576.30	44093.35
576.46	43718.87
576.62	43948.24
576.79	43674.40
576.95	43491.83
577.11	43634.61
577.27	43943.56
577.43	44243.15
577.59	43913.13
577.75	43920.15
577.92	43772.70
578.08	43477.79
578.24	43723.55
578.40	44238.47
578.56	44086.33
578.72	44006.75
578.88	44201.02
579.04	44460.82
579.21	43625.25
579.37	43819.51
579.53	43761.00
579.69	43697.80
579.85	43428.64
580.01	44376.56
580.17	44395.28
580.33	43995.05
580.49	44231.44
580.65	43723.55
580.82	44093.35
580.98	44060.58
581.14	43938.88
581.30	44191.65
581.46	43908.45
581.62	44378.90
581.78	43852.28
581.94	44100.37
582.10	44039.52
582.26	43871.00
582.42	43973.98
582.58	44023.14
582.74	44034.84
582.90	43964.62
583.06	43936.54
583.22	44423.37
583.38	44306.34
583.54	44161.23
583.70	44292.30
583.86	43723.55
584.02	43779.72
584.18	44275.91
584.34	44100.37
584.50	43945.90
584.66	44264.21
584.82	43681.42
584.98	44301.66
585.14	44039.52
585.30	43718.87
585.46	43950.58
585.62	44292.30
585.78	44046.54
585.94	43763.34
586.10	44030.16
586.26	43791.42
586.42	44069.95
586.58	44395.28
586.74	44142.50
586.90	44273.57
587.06	43845.26
587.22	44343.79
587.38	44140.16
587.54	44673.81
587.70	44577.84
587.86	44589.55
588.02	44397.62
588.18	44336.77
588.34	43959.94
588.49	43901.43
588.65	44128.46
588.81	44273.57
588.97	44055.90
589.13	44065.27
589.29	44081.65
589.45	44142.50
589.61	44151.87
589.77	44596.57
589.93	44334.43
590.08	44645.72
590.24	44556.78
590.40	44189.31
590.56	44013.77
590.72	44313.36
590.88	44032.50
591.04	44002.07
591.20	44423.37
591.35	44835.30
591.51	44629.34
591.67	44847.00
591.83	44694.87
591.99	44217.40
592.15	43995.05
592.31	44201.02
592.46	44018.46
592.62	44254.85
592.78	44315.70
592.94	44477.20
593.10	44439.75
593.26	44598.91
593.41	44453.79
593.57	43976.33
593.73	44285.28
593.89	44563.80
594.05	44552.10
594.20	44102.71
594.36	44680.83
594.52	44694.87
594.68	44451.45
594.84	44376.56
594.99	44748.70
595.15	44615.29
595.31	44825.94
595.47	45144.25
595.62	44507.63
595.78	44552.10
595.94	45069.36
596.10	44783.81
596.25	44577.84
596.41	44711.25
596.57	44683.17
596.73	44531.03
596.88	44336.77
597.04	44353.15
597.20	44289.96
597.36	44739.34
597.51	44638.70
597.67	44856.37
597.83	44903.18
597.99	44788.49
598.14	44589.55
598.30	44390.60
598.46	44542.74
598.61	44203.36
598.77	44168.25
598.93	44376.56
599.09	44357.83
599.24	45141.91
599.40	44706.57
599.56	44891.48
599.71	44800.19
599.87	44933.60
600.03	44671.46
600.18	44568.48
600.34	44900.84
600.50	44636.36
600.65	44472.52
600.81	44385.92
600.97	44816.58
601.12	44966.37
601.28	44779.13
601.44	44729.98
601.59	44964.03
601.75	44051.22
601.91	44652.74
602.06	44402.30
602.22	44484.22
602.37	44598.91
602.53	44713.59
602.69	45088.08
602.84	44514.65
603.00	44580.18
603.16	44451.45
603.31	44732.32
603.47	44631.68
603.62	44144.84
603.78	44446.77
603.94	44589.55
604.09	44657.42
604.25	44910.20
604.40	44772.11
604.56	44304.00
604.71	44385.92
604.87	44341.45
605.03	44938.29
605.18	44245.49
605.34	44432.73
605.49	44458.48
605.65	44516.99
605.80	44495.92
605.96	44669.12
606.12	44994.46
606.27	44718.28
606.43	44713.59
606.58	44996.80
606.74	44144.84
606.89	44142.50
607.05	44608.27
607.20	44126.12
607.36	44334.43
607.51	44891.48
607.67	44495.92
607.82	44334.43
607.98	44800.19
608.13	43819.51
608.29	44250.17
608.44	43880.36
608.60	44044.20
608.75	44149.53
608.91	44067.61
609.06	44222.08
609.22	44430.39
609.37	43957.60
609.53	44289.96
609.68	44133.14
609.84	44140.16
609.99	44158.89
610.15	44023.14
610.30	44100.37
610.46	44133.14
610.61	43634.61
610.76	43908.45
610.92	44226.76
611.07	43683.76
611.23	44016.11
611.38	43899.09
611.54	43786.74
611.69	43772.70
611.84	44095.69
612.00	43676.74
612.15	43594.82
612.31	44105.06
612.46	43814.83
612.62	43924.83
612.77	44168.25
612.92	43936.54
613.08	43758.66
613.23	43784.40
613.39	43407.58
613.54	43608.86
613.69	43398.21
613.85	43665.03
614.00	43950.58
614.15	44287.62
614.31	43952.92
614.46	43672.06
614.62	43585.46
614.77	43875.68
614.92	43454.39
615.08	43707.16
615.23	43510.56
615.38	43386.51
615.54	43468.43
615.69	43276.51
615.84	43054.15
616.00	43702.48
616.15	43430.98
616.30	43756.32
616.46	43625.25
616.61	43040.11
616.76	43159.48
616.92	43058.84
617.07	43299.91
617.22	42883.30
617.37	43309.27
617.53	43339.70
617.68	43508.22
617.83	43182.88
617.99	43821.85
618.14	43468.43
618.29	43150.12
618.45	43267.14
618.60	43143.09
618.75	43154.80
618.90	42766.27
619.06	43629.93
619.21	42808.40
619.36	43257.78
619.51	42817.76
619.67	42710.10
619.82	42913.72
619.97	43061.18
620.12	42499.45
620.28	42344.97
620.43	42621.16
620.58	42918.40
620.73	42784.99
620.89	42499.45
621.04	43051.81
621.19	42359.02
621.34	42541.58
621.49	42593.07
621.65	42401.14
621.80	42562.64
621.95	42024.32
622.10	42815.42
622.25	42401.14
622.41	41968.15
622.56	42546.26
622.71	42593.07
622.86	42419.87
623.01	42738.18
623.16	42483.06
623.32	42787.33
623.47	42677.33
623.62	42895.00
623.77	42302.84
623.92	42298.16
624.07	42052.41
624.23	42043.04
624.38	42148.37
624.53	41930.70
624.68	42227.95
624.83	41645.15
624.98	42143.69
625.13	41834.74
625.29	42204.54
625.44	42284.12
625.59	41635.79
625.74	41708.35
625.89	41521.10
626.04	41457.91
626.19	41827.71
626.34	41724.73
626.49	41869.84
626.65	41663.88
626.80	42005.59
626.95	41738.77
627.10	41926.02
627.25	41574.94
627.40	41591.32
627.55	41233.22
627.70	41251.94
627.85	41319.82
628.00	41605.36
628.15	42160.07
628.30	41724.73
628.45	41659.20
628.60	41612.38
628.76	41067.04
628.91	41406.42
629.06	41743.45
629.21	41401.74
629.36	40971.08
629.51	40950.01
629.66	41055.34
629.81	41060.02
629.96	41127.89
630.11	41446.21
630.26	41291.73
630.41	41706.01
630.56	41329.18
630.71	41226.20
630.86	41057.68
631.01	40758.09
631.16	41322.16
631.31	40849.37
631.46	40641.06
631.61	40889.16
631.76	40924.27
631.91	40788.52
632.06	41013.21
632.21	40772.13
632.36	40870.43
632.51	40800.22
632.66	40884.48
632.81	40435.10
632.96	40872.78
633.10	40627.02
633.25	40289.98
633.40	40701.92
633.55	40804.90
633.70	40697.24
633.85	40620.00
634.00	40608.29
634.15	40177.64
634.30	40451.48
634.45	40481.91
634.60	40311.05
634.75	40542.76
634.90	40538.08
635.05	40465.52
635.19	40322.75
635.34	40498.29
635.49	40418.71
635.64	40861.07
635.79	40271.26
635.94	40158.91
636.09	40313.39
636.24	40086.36
636.39	39842.94
636.53	39782.09
636.68	39885.07
636.83	40039.54
636.98	40177.64
637.13	39587.82
637.28	40278.28
637.43	39660.38
637.57	40053.59
637.72	40112.10
637.87	40006.78
638.02	39882.73
638.17	39962.31
638.32	39662.72
638.46	39737.62
638.61	39978.69
638.76	39386.54
638.91	39454.41
639.06	40250.19
639.20	39800.81
639.35	39831.24
639.50	39379.51
639.65	40430.41
639.80	39730.59
639.94	39552.71
640.09	39615.91
640.24	38958.22
640.39	39122.05
640.54	39276.53
640.68	39187.59
640.83	39159.50
640.98	39487.18
641.13	39456.75
641.27	39746.98
641.42	39063.54
641.57	39505.90
641.72	39393.56
641.86	39030.77
642.01	39096.31
642.16	39119.71
642.31	38770.97
642.45	39178.23
642.60	39049.50
642.75	38658.63
642.90	39213.34
643.04	38780.34
643.19	39482.50
643.34	39328.02
643.48	38974.60
643.63	38880.98
643.78	39143.12
643.93	38768.63
644.07	38473.73
644.22	38682.03
644.37	38422.23
644.51	38525.22
644.66	38831.83
644.81	38504.15
644.95	39131.42
645.10	38738.21
645.25	38927.79
645.39	38969.92
645.54	38834.17
645.69	38747.57
645.83	38670.33
645.98	38216.27
646.13	38653.95
646.27	38738.21
646.42	38642.24
646.57	38546.28
646.71	38768.63
646.86	38529.90
647.00	38450.32
647.15	38391.81
647.30	38515.86
647.44	38216.27
647.59	38368.40
647.74	38284.14
647.88	38387.13
648.03	38094.56
648.17	38209.25
648.32	37928.38
648.47	38251.38
648.61	37633.47
648.76	38511.17
648.90	38197.54
649.05	37823.06
649.20	38356.70
649.34	38337.98
649.49	37848.80
649.63	38356.70
649.78	38476.07
649.92	37921.36
650.07	38440.96
650.21	37787.95
650.36	38288.82
650.51	37638.15
650.65	38047.75
650.80	38132.01
650.94	38244.35
651.09	37689.65
651.23	37483.68
651.38	37811.35
651.52	37649.86
651.67	37832.42
651.81	38068.81
651.96	37572.62
652.10	37670.92
652.25	37130.26
652.39	37177.07
652.54	37376.01
652.68	37691.99
652.83	37778.59
652.97	37605.39
653.12	37284.73
653.26	37315.16
653.41	37574.96
653.55	37394.74
653.70	37174.73
653.84	37745.82
653.99	37408.78
654.13	37682.62
654.27	37537.51
654.42	37230.90
654.56	37584.32
654.71	37682.62
654.85	37141.96
655.00	37563.26
655.14	37413.46
655.29	36715.98
655.43	36776.84
655.57	37022.59
655.72	37106.85
655.86	36587.25
656.01	36458.52
656.15	36861.10
656.30	36718.32
656.44	36851.73
656.58	36828.33
656.73	36659.81
656.87	36402.35
657.01	36680.88
657.16	36308.73
657.30	36538.10
657.45	36259.58
657.59	36615.34
657.73	36126.17
657.88	36800.24
658.02	36549.81
658.16	36690.24
658.31	36268.94
658.45	36833.01
658.60	35957.65
658.74	36643.43
658.88	36549.81
659.03	36067.66
659.17	36325.11
659.31	35810.20
659.46	35948.29
659.60	35908.50
659.74	35988.08
659.89	35569.12
660.03	35660.40
660.17	36046.59
660.32	35906.16
660.46	35833.60
660.60	35990.42
660.74	35899.14
660.89	35775.09
661.03	35669.76
661.17	35377.20
661.32	35356.13
661.46	35328.05
661.60	34707.80
661.74	35723.60
661.89	35363.15
662.03	35433.37
662.17	35318.68
662.31	35421.67
662.46	35709.55
662.60	35157.19
662.74	35019.10
662.88	34761.64
663.03	34806.11
663.17	34995.69
663.31	34937.18
663.45	35016.75
663.60	34717.17
663.74	34504.18
663.88	34651.63
664.02	34319.28
664.17	34541.63
664.31	34632.91
664.45	34455.03
664.59	34548.65
664.73	34843.56
664.88	34206.93
665.02	33699.03
665.16	34431.62
665.30	34335.66
665.44	34164.80
665.59	33479.02
665.73	33736.48
665.87	33427.53
666.01	33926.07
666.15	33757.55
666.29	34363.75
666.44	33766.91
666.58	33455.62
666.72	33804.36
666.86	33663.93
667.00	33727.12
667.14	33675.63
667.28	33504.77
667.43	33659.24
667.57	33486.04
667.71	33415.83
667.85	33184.12
667.99	33532.86
668.13	33305.82
668.27	33261.35
668.41	33535.20
668.56	32943.04
668.70	33460.30
668.84	32905.59
668.98	32582.60
669.12	33116.24
669.26	32669.20
669.40	32587.28
669.54	32968.79
669.68	32631.75
669.82	32645.79
669.96	32664.52
670.10	32598.98
670.25	32620.05
670.39	32793.25
670.53	32657.49
670.67	32105.13
670.81	32439.82
670.95	32381.31
671.09	32659.84
671.23	32081.72
671.37	32615.37
671.51	32126.19
671.65	31758.73
671.79	31679.15
671.93	31517.65
672.07	32231.52
672.21	32058.32
672.35	31288.28
672.49	31683.83
672.63	31742.35
672.77	31388.92
672.91	31072.95
673.05	31126.78
673.19	31016.78
673.33	31117.42
673.47	31000.40
673.61	30939.54
673.75	30930.18
673.89	30686.76
674.03	30621.23
674.17	30621.23
674.31	30857.62
674.45	30775.70
674.59	30871.67
674.73	31026.14
674.87	30661.02
675.01	30593.14
675.15	30766.34
675.29	30616.55
675.43	30169.51
675.56	30286.53
675.70	29996.31
675.84	30171.85
675.98	28996.90
676.12	29591.39
676.26	30061.84
676.40	29340.96
676.54	29228.61
676.68	29696.72
676.82	29347.98
676.96	29525.86
677.10	29266.06
677.23	29163.08
677.37	29275.42
677.51	29249.67
677.65	29099.88
677.79	28350.91
677.93	28701.99
678.07	28617.73
678.21	28383.68
678.34	28514.75
678.48	28297.08
678.62	28292.40
678.76	28144.94
678.90	28058.34
679.04	28521.77
679.18	27960.04
679.31	27665.13
679.45	27529.38
679.59	27716.62
679.73	27566.83
679.87	27608.96
680.00	27646.41
680.14	27344.48
680.28	27250.86
680.42	27180.64
680.56	27555.13
680.70	27152.55
680.83	26815.52
680.97	26764.03
681.11	26693.81
681.25	26724.24
681.39	26698.49
681.52	26764.03
681.66	26553.38
681.80	26724.24
681.94	26202.30
682.07	26211.66
682.21	26223.36
682.35	26080.59
682.49	26321.66
682.62	26195.28
682.76	25858.24
682.90	26071.23
683.04	25582.06
683.17	25708.44
683.31	25671.00
683.45	25755.26
683.59	25612.48
683.72	25219.27
683.86	25113.95
684.00	24996.92
684.13	25041.39
684.27	24919.68
684.41	25085.86
684.55	24833.08
684.68	24746.48
684.82	24364.98
684.96	24437.53
685.09	24439.87
685.23	24315.83
685.37	24374.34
685.50	24292.42
685.64	24093.47
685.78	24116.88
685.91	24084.11
686.05	23878.15
686.19	23456.85
686.32	23606.64
686.46	23351.52
686.60	23225.14
686.73	23836.02
686.87	23229.82
687.01	23276.63
687.14	23026.19
687.28	22862.35
687.42	23171.30
687.55	22841.29
687.69	22647.02
687.82	23197.05
687.96	22637.66
688.10	22291.26
688.23	22576.81
688.37	22480.85
688.50	22305.31
688.64	22319.35
688.78	22295.94
688.91	22066.57
689.05	22288.92
689.18	21825.50
689.32	21788.05
689.46	21984.65
689.59	21825.50
689.73	22015.08
689.86	21820.81
690.00	21621.87
690.13	21731.87
690.27	21184.19
690.41	21645.27
690.54	21015.67
690.68	20821.41
690.81	21048.44
690.95	21010.99
691.08	21032.05
691.22	20863.54
691.35	20821.41
691.49	20650.55
691.62	20849.49
691.76	20671.61
691.89	20428.20
692.03	19922.64
692.16	20390.75
692.30	20325.21
692.43	19711.99
692.57	19824.34
692.70	19887.53
692.84	19749.44
692.97	19784.55
693.11	19482.62
693.24	19290.70
693.38	19597.31
693.51	19400.70
693.65	19587.94
693.78	19215.80
693.92	19323.46
694.05	19482.62
694.19	19337.51
694.32	19016.85
694.45	19054.30
694.59	19023.87
694.72	18848.33
694.86	18661.09
694.99	18841.31
695.13	18384.91
695.26	18515.98
695.39	18178.94
695.53	18216.39
695.66	18317.03
695.80	18223.41
695.93	18068.94
696.07	18050.21
696.20	17645.30
696.33	17823.18
696.47	17834.88
696.60	17701.47
696.73	17678.07
696.87	17736.58
697.00	17696.79
697.14	17530.61
697.27	17434.65
697.40	17476.78
697.54	17493.16
697.67	17177.19
697.80	17151.45
697.94	17104.64
698.07	16847.18
698.21	17209.96
698.34	16964.20
698.47	17062.51
698.61	16442.26
698.74	16580.36
698.87	16294.81
699.01	16451.63
699.14	15983.52
699.27	15985.86
699.40	16189.49
699.54	15894.58
699.67	15686.27
699.80	16355.66
699.94	15793.94
700.07	15864.15
700.20	15915.64
700.34	15896.92
700.47	15492.01
700.60	15789.25
700.73	15740.10
700.87	15496.69
701.00	15335.19
701.13	15686.27
701.26	15293.06
701.40	15377.32
701.53	15131.56
701.66	14822.61
701.79	15220.50
701.93	14956.02
702.06	14642.39
702.19	14548.77
702.32	14871.76
702.46	14796.87
702.59	14576.86
702.72	14586.22
702.85	14300.67
702.99	14576.86
703.12	14534.73
703.25	14401.32
703.38	14401.32
703.51	14061.94
703.65	14223.44
703.78	14249.18
703.91	13862.99
704.04	14010.45
704.17	14008.11
704.31	13951.93
704.44	13439.36
704.57	13392.55
704.70	13582.13
704.83	13392.55
704.96	13453.40
705.10	13357.44
705.23	13563.40
>>>>>End Processed Spectral Data<<<<<
