SpectraSuite Data File
++++++++++++++++++++++++++++++++++++
Date: Fri Oct 25 10:48:36 EDT 2013
User: price-jones
Dark Spectrum Present: No
Reference Spectrum Present: No
Number of Sampled Component Spectra: 1
Spectrometers: USB2+H05261
Integration Time (usec): 100000 (USB2+H05261)
Spectra Averaged: 1 (USB2+H05261)
Boxcar Smoothing: 0 (USB2+H05261)
Correct for Electrical Dark: No (USB2+H05261)
Strobe/Lamp Enabled: No (USB2+H05261)
Correct for Detector Non-linearity: No (USB2+H05261)
Correct for Stray Light: No (USB2+H05261)
Number of Pixels in Processed Spectrum: 2048
>>>>>Begin Processed Spectral Data<<<<<
365.73	135.75
365.92	135.75
366.12	135.75
366.32	18.72
366.52	60.85
366.72	49.15
366.91	102.98
367.11	42.13
367.31	0.00
367.51	42.13
367.70	70.22
367.90	135.75
368.10	35.11
368.30	88.94
368.49	124.05
368.69	117.03
368.89	74.90
369.09	18.72
369.28	133.41
369.48	30.43
369.68	163.84
369.87	102.98
370.07	65.54
370.27	149.79
370.47	212.99
370.66	341.72
370.86	461.09
371.06	477.47
371.25	465.77
371.45	472.79
371.65	582.79
371.84	463.43
372.04	489.17
372.24	468.11
372.44	608.54
372.63	613.22
372.83	535.98
373.03	589.82
373.22	669.39
373.42	653.01
373.62	550.03
373.81	559.39
374.01	622.58
374.21	596.84
374.40	554.71
374.60	641.31
374.79	627.26
374.99	608.54
375.19	648.33
375.38	601.52
375.58	720.88
375.78	662.37
375.97	681.10
376.17	711.52
376.37	648.33
376.56	674.07
376.76	645.99
376.95	608.54
377.15	716.20
377.35	676.41
377.54	692.80
377.74	704.50
377.93	763.01
378.13	755.99
378.33	723.23
378.52	758.33
378.72	727.91
378.91	662.37
379.11	655.35
379.31	650.67
379.50	648.33
379.70	727.91
379.89	723.23
380.09	732.59
380.28	758.33
380.48	784.08
380.68	814.51
380.87	744.29
381.07	725.57
381.26	866.00
381.46	753.65
381.65	812.17
381.85	674.07
382.04	713.86
382.24	765.36
382.43	835.57
382.63	746.63
382.83	720.88
383.02	830.89
383.22	748.97
383.41	763.01
383.61	767.70
383.80	755.99
384.00	800.46
384.19	819.19
384.39	842.59
384.58	823.87
384.78	837.91
384.97	821.53
385.17	882.38
385.36	816.85
385.56	821.53
385.75	800.46
385.95	835.57
386.14	903.45
386.34	966.64
386.53	868.34
386.72	856.64
386.92	929.19
387.11	964.30
387.31	915.15
387.50	952.60
387.70	917.49
387.89	950.26
388.09	922.17
388.28	828.55
388.48	898.77
388.67	1025.15
388.86	961.96
389.06	1029.84
389.25	1015.79
389.45	1048.56
389.64	1036.86
389.84	1062.60
390.03	1111.75
390.22	1160.91
390.42	990.05
390.61	1041.54
390.81	1048.56
391.00	1102.39
391.19	1137.50
391.39	1109.41
391.58	1050.90
391.78	1109.41
391.97	1100.05
392.16	1160.91
392.36	1184.31
392.55	1048.56
392.75	1156.22
392.94	1102.39
393.13	1022.81
393.33	1008.77
393.52	1128.14
393.71	1118.78
393.91	1191.33
394.10	1181.97
394.29	1219.42
394.49	1291.98
394.68	1313.04
394.88	1324.74
395.07	1268.57
395.26	1352.83
395.46	1289.64
395.65	1308.36
395.84	1252.19
396.04	1259.21
396.23	1196.01
396.42	1184.31
396.62	1291.98
396.81	1357.51
397.00	1270.91
397.19	1418.36
397.39	1432.41
397.58	1584.54
397.77	1519.01
397.97	1460.49
398.16	1540.07
398.35	1533.05
398.55	1544.75
398.74	1603.27
398.93	1645.40
399.12	1666.46
399.32	1511.99
399.51	1650.08
399.70	1685.19
399.90	1577.52
400.09	1692.21
400.28	1764.76
400.47	1631.35
400.67	1715.61
400.86	1856.04
401.05	1799.87
401.24	1781.15
401.44	1832.64
401.63	1853.70
401.82	1849.02
402.01	1781.15
402.21	1865.41
402.40	1842.00
402.59	1849.02
402.78	1891.15
402.97	1907.54
403.17	1853.70
403.36	1895.83
403.55	1984.77
403.74	1902.86
403.93	1942.64
404.13	1937.96
404.32	1961.37
404.51	1984.77
404.70	2132.23
404.89	1935.62
405.09	2153.29
405.28	2069.03
405.47	1966.05
405.66	2043.29
405.85	2122.87
406.05	2108.82
406.24	2162.66
406.43	2221.17
406.62	2289.04
406.81	2293.72
407.00	2167.34
407.20	2195.42
407.39	2155.63
407.58	2253.94
407.77	2331.17
407.96	2377.98
408.15	2228.19
408.34	2342.88
408.54	2324.15
408.73	2462.24
408.92	2342.88
409.11	2380.32
409.30	2258.62
409.49	2541.82
409.68	2441.18
409.87	2462.24
410.07	2392.03
410.26	2413.09
410.45	2448.20
410.64	2520.76
410.83	2612.04
411.02	2651.83
411.21	2820.35
411.40	2708.00
411.59	2705.66
411.78	2740.77
411.98	2693.96
412.17	2722.04
412.36	2803.96
412.55	2836.73
412.74	2949.08
412.93	2810.98
413.12	2810.98
413.31	3028.65
413.50	2846.09
413.69	2970.14
413.88	3026.31
414.07	3148.02
414.26	3016.95
414.45	3061.42
414.64	3173.77
414.83	3077.80
415.02	3213.56
415.22	3279.09
415.41	3323.56
415.60	3180.79
415.79	3304.84
415.98	3412.50
416.17	3370.37
416.36	3492.08
416.55	3325.90
416.74	3393.78
416.93	3503.78
417.12	3489.74
417.31	3456.97
417.50	3428.88
417.69	3485.06
417.88	3644.21
418.07	3623.15
418.26	3602.08
418.45	3611.45
418.64	3735.50
418.83	3812.73
419.02	3714.43
419.21	3772.94
419.39	3824.44
419.58	3625.49
419.77	3534.21
419.96	3712.09
420.15	3833.80
420.34	3906.35
420.53	3880.61
420.72	3969.55
420.91	3854.86
421.10	3964.87
421.29	4095.94
421.48	3997.64
421.67	3971.89
421.86	4004.66
422.05	3861.88
422.24	3988.27
422.43	3964.87
422.61	3967.21
422.80	3946.14
422.99	4194.24
423.18	4269.14
423.37	4095.94
423.56	4049.13
423.75	4037.42
423.94	3943.80
424.13	3794.01
424.32	4011.68
424.50	4128.70
424.69	4194.24
424.88	4210.62
425.07	4025.72
425.26	3934.44
425.45	3997.64
425.64	4117.00
425.83	4222.33
426.01	4196.58
426.20	4173.18
426.39	4297.22
426.58	4042.11
426.77	4119.34
426.96	4152.11
427.15	4156.79
427.33	4325.31
427.52	4397.87
427.71	4173.18
427.90	4262.12
428.09	4259.78
428.28	4217.65
428.46	4339.35
428.65	4334.67
428.84	4564.04
429.03	4454.04
429.22	4156.79
429.40	4365.10
429.59	4329.99
429.78	4194.24
429.97	4067.85
430.16	4133.39
430.34	4299.56
430.53	4334.67
430.72	4561.70
430.91	4451.70
431.10	4482.13
431.28	4578.09
431.47	4844.91
431.66	4964.28
431.85	4805.12
432.03	4903.42
432.22	4940.87
432.41	4765.33
432.60	4805.12
432.79	4671.71
432.97	5046.20
433.16	4926.83
433.35	4873.00
433.54	4940.87
433.72	4793.42
433.91	4936.19
434.10	4933.85
434.28	4929.17
434.47	5060.24
434.66	5156.20
434.85	5116.41
435.03	5130.45
435.22	5308.34
435.41	5291.95
435.59	5153.86
435.78	5336.42
435.97	5228.76
436.16	5296.63
436.34	5275.57
436.53	5341.10
436.72	5479.19
436.90	5254.50
437.09	5411.32
437.28	5338.76
437.46	5385.57
437.65	5411.32
437.84	5331.74
438.02	5423.02
438.21	5291.95
438.40	5593.88
438.58	5617.29
438.77	5626.65
438.96	5554.09
439.14	5708.57
439.33	5940.28
439.52	5930.92
439.70	5724.95
439.89	5748.36
440.08	5914.53
440.26	5921.56
440.45	5998.79
440.63	6064.33
440.82	6272.64
441.01	6242.21
441.19	6253.91
441.38	6401.37
441.57	6202.42
441.75	6422.43
441.94	6626.06
442.12	6459.88
442.31	6523.07
442.50	6581.59
442.68	6569.88
442.87	6567.54
443.05	6581.59
443.24	6602.65
443.43	6654.14
443.61	6722.02
443.80	6832.02
443.98	6553.50
444.17	6431.79
444.35	6658.82
444.54	6944.37
444.73	6888.20
444.91	6876.49
445.10	6707.98
445.28	6745.42
445.47	6768.83
445.65	6612.01
445.84	6722.02
446.02	6729.04
446.21	6731.38
446.39	6876.49
446.58	6883.52
446.77	6988.84
446.95	6988.84
447.14	6935.01
447.32	6977.14
447.51	6967.77
447.69	6890.54
447.88	7117.57
448.06	7037.99
448.25	7157.36
448.43	6892.88
448.62	6977.14
448.80	6944.37
448.99	7140.97
449.17	7199.49
449.36	7110.55
449.54	7194.81
449.73	7267.36
449.91	7407.80
450.10	7353.96
450.28	7602.06
450.46	7499.08
450.65	7655.89
450.83	7414.82
451.02	7590.36
451.20	7688.66
451.39	7531.84
451.57	7604.40
451.76	7548.23
451.94	7461.63
452.13	7424.18
452.31	7485.03
452.49	7531.84
452.68	7433.54
452.86	7480.35
453.05	7517.80
453.23	7681.64
453.42	7613.76
453.60	7789.30
453.78	7805.69
453.97	7611.42
454.15	7555.25
454.34	7655.89
454.52	7896.97
454.70	7896.97
454.89	7824.41
455.07	7857.18
455.26	7866.54
455.44	8063.15
455.62	7906.33
455.81	7861.86
455.99	8145.06
456.17	8131.02
456.36	8065.49
456.54	8285.50
456.73	8245.71
456.91	8676.37
457.09	8400.18
457.28	8734.88
457.46	8346.35
457.64	8404.86
457.83	8615.51
458.01	8318.26
458.19	8655.30
458.38	8461.04
458.56	8594.45
458.74	8669.34
458.93	8601.47
459.11	8470.40
459.29	8772.33
459.48	8634.24
459.66	8699.77
459.84	8858.93
460.03	8882.33
460.21	8746.58
460.39	8737.22
460.57	8706.79
460.76	8823.82
460.94	9011.06
461.12	8823.82
461.31	9085.96
461.49	8999.36
461.67	8999.36
461.85	9071.92
462.04	9006.38
462.22	9769.40
462.40	9240.44
462.59	9184.26
462.77	9324.69
462.95	9315.33
463.13	9207.67
463.32	9364.48
463.50	9465.13
463.68	9415.98
463.86	9481.51
464.05	9249.80
464.23	9303.63
464.41	9437.04
464.59	9245.12
464.78	9420.66
464.96	9535.34
465.14	9188.94
465.32	9540.02
465.50	9509.60
465.69	9741.31
465.87	9647.69
466.05	9465.13
466.23	9633.64
466.41	9589.17
466.60	9895.78
466.78	9493.21
466.96	9589.17
467.14	9724.93
467.32	9771.74
467.51	9895.78
467.69	9701.52
467.87	9767.06
468.05	9729.61
468.23	9767.06
468.41	9802.16
468.60	9877.06
468.78	10031.54
468.96	9802.16
469.14	10197.71
469.32	10195.37
469.50	10040.90
469.69	10146.22
469.87	9963.66
470.05	10125.16
470.23	10356.87
470.41	9944.94
470.59	10452.83
470.77	10186.01
470.95	10487.94
471.14	10806.25
471.32	10157.92
471.50	10586.24
471.68	10705.61
471.86	10867.11
472.04	10822.64
472.22	10953.71
472.40	10822.64
472.58	10916.26
472.77	10656.46
472.95	10895.19
473.13	11337.56
473.31	10757.10
473.49	10981.79
473.67	10883.49
473.85	11194.78
474.03	11332.87
474.21	11634.80
474.39	11269.68
474.57	11351.60
474.75	11761.19
474.93	11669.91
475.12	11637.14
475.30	11903.96
475.48	11740.13
475.66	11756.51
475.84	11948.43
476.02	12044.40
476.20	11941.41
476.38	12182.49
476.56	12203.55
476.74	12231.64
476.92	12430.59
477.10	12472.71
477.28	12444.63
477.46	12571.02
477.64	12737.20
477.82	12884.65
478.00	13062.53
478.18	13034.44
478.36	13069.55
478.54	13046.15
478.72	13184.24
478.90	13472.12
479.08	13495.53
479.26	13692.13
479.44	13692.13
479.62	13858.31
479.80	13860.65
479.98	13781.07
480.16	14162.58
480.34	14307.69
480.52	14115.77
480.70	14342.80
480.88	14228.12
481.06	14518.34
481.24	14436.42
481.41	14806.23
481.59	14824.95
481.77	14902.19
481.95	14984.11
482.13	15192.42
482.31	15213.48
482.49	15564.56
482.67	15239.23
482.85	15676.91
483.03	15700.31
483.21	16006.92
483.39	15843.09
483.57	16093.52
483.74	16046.71
483.92	16163.74
484.10	16269.06
484.28	16404.81
484.46	16657.59
484.64	16898.67
484.82	16648.23
485.00	16872.92
485.18	17034.42
485.35	17130.38
485.53	16814.41
485.71	16858.88
485.89	16940.80
486.07	17186.55
486.25	17404.22
486.43	17378.48
486.61	17547.00
486.78	18012.76
486.96	18326.39
487.14	18551.09
487.32	18347.46
487.50	18466.83
487.68	18899.83
487.85	18843.65
488.03	19323.46
488.21	19482.62
488.39	19215.80
488.57	19274.31
488.75	19309.42
488.92	19531.77
489.10	19997.54
489.28	20175.42
489.46	20430.54
489.64	20290.10
489.81	21144.40
489.99	20950.14
490.17	21057.80
490.35	21092.91
490.53	21020.35
490.70	21350.37
490.88	21661.66
491.06	21720.17
491.24	21675.70
491.41	21486.12
491.59	21280.15
491.77	21425.26
491.95	21710.81
492.13	22274.88
492.30	22429.35
492.48	22539.36
492.66	22771.07
492.84	22487.87
493.01	22747.67
493.19	22817.88
493.37	22895.12
493.54	23037.89
493.72	23620.69
493.90	23686.22
494.08	23786.86
494.25	23749.42
494.43	24095.82
494.61	24631.80
494.79	24350.93
494.96	24276.04
495.14	24357.96
495.32	24549.88
495.49	24547.54
495.67	24608.39
495.85	24797.98
496.02	25113.95
496.20	25252.04
496.38	25090.54
496.55	25303.53
496.73	26026.76
496.91	25455.67
497.09	26003.35
497.26	25764.62
497.44	25949.52
497.62	25766.96
497.79	25804.41
497.97	26125.06
498.14	26515.93
498.32	26668.06
498.50	26789.77
498.67	26775.73
498.85	26703.17
499.03	27623.00
499.20	27194.68
499.38	27182.98
499.56	27555.13
499.73	27498.95
499.91	27440.44
500.08	27353.84
500.26	27288.31
500.44	27831.31
500.61	27821.95
500.79	27363.20
500.97	27541.08
501.14	28231.54
501.32	28196.43
501.49	28039.62
501.67	28404.74
501.84	28332.18
502.02	28463.25
502.20	28669.22
502.37	28680.92
502.55	28999.24
502.72	28889.23
502.90	29057.75
503.07	28936.04
503.25	29488.41
503.43	29032.00
503.60	29116.26
503.78	29401.81
503.95	29228.61
504.13	29834.81
504.30	29876.94
504.48	29514.16
504.65	29706.08
504.83	30167.16
505.01	29827.79
505.18	30010.35
505.36	30551.01
505.53	30309.94
505.71	30967.63
505.88	30417.60
506.06	30696.13
506.23	30897.41
506.41	30436.33
506.58	30749.96
506.76	31019.12
506.93	30630.59
507.11	31395.95
507.28	31152.53
507.46	31173.60
507.63	30897.41
507.81	31669.79
507.98	31131.47
508.16	31653.40
508.33	31597.23
508.50	31660.43
508.68	31789.16
508.85	31999.80
509.03	32156.62
509.20	32058.32
509.38	32147.26
509.55	32797.93
509.73	32173.00
509.90	32407.06
510.08	32568.55
510.25	32496.00
510.42	32652.81
510.60	32329.82
510.77	32744.09
510.95	33373.70
511.12	33308.16
511.30	33251.99
511.47	33312.84
511.64	33509.45
511.82	33420.51
511.99	33095.18
512.17	33624.14
512.34	32992.19
512.51	33556.26
512.69	33865.21
512.86	33963.51
513.04	34490.13
513.21	33867.55
513.38	33921.38
513.56	34073.52
513.73	34075.86
513.90	33736.48
514.08	34125.01
514.25	34394.17
514.43	34183.52
514.60	34251.40
514.77	34501.84
514.95	34335.66
515.12	34735.89
515.29	34738.23
515.47	35145.48
515.64	34747.59
515.81	34754.61
515.99	34958.24
516.16	34962.92
516.33	34464.39
516.51	34623.54
516.68	34345.02
516.85	34588.44
517.03	34883.34
517.20	34785.04
517.37	35206.34
517.54	35739.98
517.72	35236.77
517.89	35063.57
518.06	35208.68
518.24	35274.21
518.41	35562.10
518.58	35580.82
518.75	35784.45
518.93	35978.72
519.10	35849.99
519.27	36081.70
519.45	36334.48
519.62	36240.86
519.79	36364.90
519.96	36591.94
520.14	36690.24
520.31	36416.40
520.48	37132.60
520.65	36788.54
520.83	36961.74
521.00	36943.02
521.17	36959.40
521.34	37301.12
521.52	37581.98
521.69	37474.32
521.86	37642.84
522.03	37127.92
522.20	37481.34
522.38	37661.56
522.55	37628.79
522.72	37736.46
522.89	37801.99
523.07	38099.24
523.24	37762.20
523.41	37996.26
523.58	37912.00
523.75	38527.56
523.92	38534.58
524.10	38632.88
524.27	38560.33
524.44	38625.86
524.61	38471.39
524.78	38866.94
524.96	38684.37
525.13	39199.29
525.30	38728.84
525.47	39131.42
525.64	38920.77
525.81	39030.77
525.98	38923.11
526.16	38749.91
526.33	38637.56
526.50	38675.01
526.67	38527.56
526.84	38782.68
527.01	38754.59
527.18	39014.39
527.36	39328.02
527.53	39662.72
527.70	39583.14
527.87	40072.31
528.04	39489.52
528.21	40189.34
528.38	40224.45
528.55	40711.28
528.72	40123.80
528.89	40271.26
529.07	40444.46
529.24	39601.86
529.41	40177.64
529.58	40140.19
529.75	39997.41
529.92	40575.53
530.09	40399.99
530.26	40781.49
530.43	40722.98
530.60	40229.13
530.77	40788.52
530.94	40835.33
531.11	40594.25
531.28	40552.12
531.46	40821.28
531.63	40961.72
531.80	40725.32
531.97	40690.21
532.14	40556.80
532.31	40430.41
532.48	40968.74
532.65	40975.76
532.82	40865.75
532.99	41404.08
533.16	40474.88
533.33	41155.98
533.50	41202.79
533.67	41420.46
533.84	41153.64
534.01	41148.96
534.18	41507.06
534.35	41904.95
534.52	41450.89
534.69	41909.63
534.86	41855.80
535.03	41661.54
535.20	42398.80
535.37	42314.55
535.54	42213.90
535.71	42309.86
535.88	41823.03
536.05	42522.85
536.22	41984.53
536.38	41867.50
536.55	41900.27
536.72	42005.59
536.89	42220.92
537.06	41848.78
537.23	42155.39
537.40	41738.77
537.57	42131.98
537.74	42302.84
537.91	42607.11
538.08	42689.03
538.25	42625.84
538.42	42981.60
538.59	42962.87
538.75	42349.65
538.92	42450.30
539.09	42543.92
539.26	42602.43
539.43	42749.88
539.60	43040.11
539.77	42698.39
539.94	42443.27
540.11	42934.79
540.28	42576.69
540.44	42768.61
540.61	42768.61
540.78	42611.79
540.95	42761.59
541.12	43260.12
541.29	42880.95
541.46	42904.36
541.62	43484.81
541.79	43763.34
541.96	42789.67
542.13	43285.87
542.30	43154.80
542.47	43917.81
542.63	43281.19
542.80	43625.25
542.97	43999.73
543.14	43859.30
543.31	43847.60
543.48	43608.86
543.64	44744.02
543.81	44390.60
543.98	44264.21
544.15	43753.97
544.32	43812.49
544.48	44474.86
544.65	44025.48
544.82	44825.94
544.99	43995.05
545.16	44053.56
545.32	44271.23
545.49	44474.86
545.66	44458.48
545.83	44442.09
546.00	44533.37
546.16	44797.85
546.33	44631.68
546.50	44296.98
546.67	44538.05
546.83	44095.69
547.00	44933.60
547.17	44135.48
547.34	44980.42
547.50	44741.68
547.67	44655.08
547.84	44744.02
548.00	45088.08
548.17	45680.24
548.34	44545.08
548.51	45118.51
548.67	45481.29
548.84	45317.45
549.01	44973.39
549.18	44879.77
549.34	45186.38
549.51	44905.52
549.68	45413.41
549.84	44774.45
550.01	45626.40
550.18	45055.31
550.34	45511.72
550.51	45132.55
550.68	44818.92
550.84	45130.21
551.01	45638.11
551.18	45490.65
551.34	45500.01
551.51	45720.02
551.68	45048.29
551.84	45766.84
552.01	45258.94
552.18	45684.92
552.34	45675.55
552.51	45773.86
552.68	45574.91
552.84	45675.55
553.01	46309.84
553.18	45642.79
553.34	45717.68
553.51	45720.02
553.67	45736.41
553.84	46232.60
554.01	46064.08
554.17	46534.53
554.34	46087.49
554.51	45869.82
554.67	46429.21
554.84	46082.81
555.00	45954.08
555.17	46031.32
555.33	46040.68
555.50	45893.22
555.67	46150.68
555.83	46073.45
556.00	46354.31
556.16	46588.36
556.33	46321.54
556.50	46478.36
556.66	46588.36
556.83	45668.53
556.99	46609.43
557.16	46265.37
557.32	46588.36
557.49	46391.76
557.65	46426.87
557.82	46312.18
557.98	46471.34
558.15	46066.42
558.32	46403.46
558.48	46539.21
558.65	45998.55
558.81	46443.25
558.98	46639.86
559.14	46101.53
559.31	46293.46
559.47	46415.16
559.64	46939.44
559.80	46721.77
559.97	46583.68
560.13	45989.19
560.30	46480.70
560.46	46525.17
560.63	46698.37
560.79	46892.63
560.96	46742.84
561.12	46799.01
561.29	46124.94
561.45	46597.73
561.61	46773.27
561.78	46408.14
561.94	46536.87
562.11	46361.33
562.27	46569.64
562.44	46752.20
562.60	47201.58
562.77	46780.29
562.93	46443.25
563.10	47154.77
563.26	46600.07
563.42	47407.55
563.59	46567.30
563.75	46672.62
563.92	47276.48
564.08	47208.61
564.24	47445.00
564.41	47063.49
564.57	46705.39
564.74	46923.06
564.90	46817.74
565.07	47360.74
565.23	46639.86
565.39	46918.38
565.56	47086.90
565.72	47014.34
565.88	46733.48
566.05	46843.48
566.21	47098.60
566.38	46857.52
566.54	46483.04
566.70	47316.27
566.87	47306.91
567.03	47047.11
567.19	47608.84
567.36	47075.19
567.52	46892.63
567.68	47051.79
567.85	47182.86
568.01	46969.87
568.17	47012.00
568.34	47234.35
568.50	47363.08
568.66	46981.57
568.83	47129.03
568.99	46976.89
569.15	47583.09
569.32	47208.61
569.48	47384.15
569.64	47573.73
569.81	47351.38
569.97	47004.98
570.13	47426.28
570.30	46546.23
570.46	46930.08
570.62	46831.78
570.78	46770.93
570.95	46831.78
571.11	47342.02
571.27	47178.18
571.43	47049.45
571.60	47391.17
571.76	47353.72
571.92	47171.16
572.09	47131.37
572.25	47351.38
572.41	47129.03
572.57	47290.52
572.74	47531.60
572.90	47318.61
573.06	47248.39
573.22	47688.42
573.38	47599.47
573.55	47405.21
573.71	47459.04
573.87	47166.48
574.03	47068.17
574.20	47466.06
574.36	47342.02
574.52	47564.37
574.68	47180.52
574.84	47285.84
575.01	47412.23
575.17	47297.55
575.33	47014.34
575.49	47302.23
575.65	47512.88
575.82	47569.05
575.98	47299.89
576.14	47812.46
576.30	47468.40
576.46	47098.60
576.62	47000.30
576.79	47346.70
576.95	47007.32
577.11	47150.09
577.27	47512.88
577.43	47051.79
577.59	47187.54
577.75	47313.93
577.92	47126.69
578.08	46981.57
578.24	47124.35
578.40	47533.94
578.56	47004.98
578.72	47159.45
578.88	47648.63
579.04	47437.98
579.21	47117.32
579.37	47718.84
579.53	47227.33
579.69	47157.11
579.85	47180.52
580.01	47821.83
580.17	47269.46
580.33	47683.73
580.49	47185.20
580.65	47742.25
580.82	47484.79
580.98	47114.98
581.14	47395.85
581.30	47339.68
581.46	47213.29
581.62	47311.59
581.78	47646.29
581.94	47988.00
582.10	47316.27
582.26	47608.84
582.42	47592.45
582.58	47564.37
582.74	47594.79
582.90	47241.37
583.06	47852.25
583.22	47445.00
583.38	47660.33
583.54	47707.14
583.70	47260.10
583.86	47646.29
584.02	47512.88
584.18	47463.72
584.34	47423.93
584.50	47578.41
584.66	47203.92
584.82	47192.22
584.98	47657.99
585.14	47199.24
585.30	47400.53
585.46	47187.54
585.62	47239.03
585.78	47782.04
585.94	46986.25
586.10	47414.57
586.26	47529.26
586.42	47786.72
586.58	47943.53
586.74	47943.53
586.90	47496.49
587.06	47239.03
587.22	47461.38
587.38	46955.83
587.54	47473.09
587.70	47695.44
587.86	47543.30
588.02	47786.72
588.18	47498.83
588.34	47400.53
588.49	47566.71
588.65	46990.94
588.81	46660.92
588.97	46934.76
589.13	46801.35
589.29	46824.76
589.45	46824.76
589.61	47449.68
589.77	47749.27
589.93	47342.02
590.08	47782.04
590.24	47964.60
590.40	47702.46
590.56	47957.58
590.72	47358.40
590.88	47227.33
591.04	47409.89
591.20	47859.27
591.35	47618.20
591.51	47763.31
591.67	47419.25
591.83	47627.56
591.99	47229.67
592.15	47435.64
592.31	47363.08
592.46	47501.17
592.62	47288.18
592.78	47679.05
592.94	47763.31
593.10	47772.67
593.26	47910.77
593.41	47587.77
593.57	47657.99
593.73	47365.42
593.89	47650.97
594.05	47618.20
594.20	47751.61
594.36	47737.57
594.52	47803.10
594.68	47714.16
594.84	47924.81
594.99	47824.17
595.15	47690.76
595.31	47604.16
595.47	47786.72
595.62	47295.21
595.78	47931.83
595.94	47950.56
596.10	47908.43
596.25	47667.35
596.41	47978.64
596.57	47236.69
596.73	47798.42
596.88	47299.89
597.04	47899.06
597.20	47817.14
597.36	47737.57
597.51	47814.80
597.67	47758.63
597.83	47501.17
597.99	47473.09
598.14	47636.92
598.30	47398.19
598.46	47473.09
598.61	47627.56
598.77	47763.31
598.93	47267.12
599.09	47512.88
599.24	48051.20
599.40	48193.97
599.56	47725.86
599.71	47627.56
599.87	48027.79
600.03	47470.75
600.18	47510.53
600.34	47639.26
600.50	47489.47
600.65	47732.89
600.81	48006.73
600.97	47852.25
601.12	48102.69
601.28	47613.52
601.44	47742.25
601.59	47732.89
601.75	47538.62
601.91	47662.67
602.06	47386.49
602.22	47533.94
602.37	47547.98
602.53	47559.69
602.69	47702.46
602.84	47772.67
603.00	47384.15
603.16	47463.72
603.31	47482.45
603.47	47332.65
603.62	47599.47
603.78	47320.95
603.94	47952.90
604.09	47709.48
604.25	47913.11
604.40	47597.13
604.56	47756.29
604.71	47693.10
604.87	47423.93
605.03	47508.19
605.18	47330.31
605.34	47660.33
605.49	46649.22
605.65	47592.45
605.80	47550.32
605.96	47606.50
606.12	47709.48
606.27	47751.61
606.43	47442.66
606.58	47821.83
606.74	47250.74
606.89	47454.36
607.05	46965.19
607.20	47159.45
607.36	47550.32
607.51	47529.26
607.67	47484.79
607.82	47388.83
607.98	47480.11
608.13	47639.26
608.29	47379.46
608.44	46761.56
608.60	47379.46
608.75	46646.88
608.91	46822.42
609.06	47489.47
609.22	47330.31
609.37	46941.78
609.53	47547.98
609.68	47107.96
609.84	47065.83
609.99	47063.49
610.15	46705.39
610.30	46611.77
610.46	46660.92
610.61	47075.19
610.76	46801.35
610.92	46967.53
611.07	47339.68
611.23	46967.53
611.38	46997.96
611.54	46562.62
611.69	47035.41
611.84	46625.81
612.00	46974.55
612.15	46752.20
612.31	47042.43
612.46	46906.68
612.62	46667.94
612.77	46902.00
612.92	47234.35
613.08	46590.70
613.23	46658.58
613.39	46700.71
613.54	46153.02
613.69	46321.54
613.85	45975.14
614.00	46717.09
614.15	46681.98
614.31	46511.13
614.46	47002.64
614.62	46211.54
614.77	46466.66
614.92	46309.84
615.08	46368.35
615.23	46300.48
615.38	46375.37
615.54	45808.96
615.69	45865.14
615.84	45858.12
616.00	46248.99
616.15	45827.69
616.30	46583.68
616.46	46293.46
616.61	45977.48
616.76	46426.87
616.92	45734.07
617.07	45818.33
617.22	46000.89
617.37	45933.01
617.53	46213.88
617.68	45698.96
617.83	45940.04
617.99	46487.72
618.14	46057.06
618.29	46122.60
618.45	45757.47
618.60	45804.28
618.75	45649.81
618.90	45935.35
619.06	45993.87
619.21	46241.96
619.36	45780.88
619.51	45523.42
619.67	45745.77
619.82	45890.88
619.97	46176.43
620.12	45607.68
620.28	45780.88
620.43	45727.05
620.58	45478.95
620.73	45240.21
620.89	45663.85
621.04	45666.19
621.19	45324.47
621.34	45771.52
621.49	45034.25
621.65	45551.51
621.80	45226.17
621.95	45078.72
622.10	45223.83
622.25	45020.20
622.41	44949.99
622.56	45188.72
622.71	45593.64
622.86	45291.71
623.01	44896.16
623.16	45013.18
623.32	45048.29
623.47	45530.44
623.62	45102.12
623.77	45001.48
623.92	44891.48
624.07	45062.33
624.23	44580.18
624.38	44676.15
624.53	44495.92
624.68	44863.39
624.83	44741.68
624.98	44411.67
625.13	44854.03
625.29	44580.18
625.44	44519.33
625.59	44346.13
625.74	44575.50
625.89	44612.95
626.04	44311.02
626.19	44659.76
626.34	44919.56
626.49	44322.72
626.65	44254.85
626.80	44416.35
626.95	44538.05
627.10	44458.48
627.25	43896.75
627.40	43566.73
627.55	44006.75
627.70	43274.16
627.85	43512.90
628.00	43871.00
628.15	44449.11
628.30	43641.63
628.45	44072.29
628.60	43784.40
628.76	43950.58
628.91	43878.02
629.06	43973.98
629.21	43768.02
629.36	43569.07
629.51	43473.11
629.66	43484.81
629.81	43842.92
629.96	43728.23
630.11	43517.58
630.26	43796.10
630.41	43772.70
630.56	43288.21
630.71	43796.10
630.86	43653.33
631.01	43353.74
631.16	43648.65
631.31	43107.99
631.46	42979.26
631.61	43220.33
631.76	43274.16
631.91	43426.30
632.06	43449.70
632.21	43709.50
632.36	43847.60
632.51	43077.56
632.66	43587.80
632.81	42817.76
632.96	43075.22
633.10	43295.23
633.25	42562.64
633.40	42586.05
633.55	42997.98
633.70	43126.71
633.85	43042.45
634.00	42953.51
634.15	42850.53
634.30	42447.96
634.45	43056.50
634.60	43012.02
634.75	43058.84
634.90	42906.70
635.05	42983.94
635.19	42649.24
635.34	43241.40
635.49	42745.20
635.64	42579.03
635.79	42419.87
635.94	42843.51
636.09	42731.16
636.24	42298.16
636.39	42209.22
636.53	42520.51
636.68	42293.48
636.83	42518.17
636.98	42831.80
637.13	42459.66
637.28	42883.30
637.43	42536.90
637.57	42576.69
637.72	42738.18
637.87	42251.35
638.02	42508.81
638.17	42609.45
638.32	42150.71
638.46	42029.00
638.61	42155.39
638.76	42026.66
638.91	42466.68
639.06	42246.67
639.20	42148.37
639.35	42019.64
639.50	41876.86
639.65	42265.39
639.80	42354.33
639.94	41942.40
640.09	41757.50
640.24	41425.14
640.39	41640.47
640.54	41633.45
640.68	41392.37
640.83	41708.35
640.98	41497.70
641.13	41511.74
641.27	41701.32
641.42	41610.04
641.57	41635.79
641.72	41926.02
641.86	41195.77
642.01	41640.47
642.16	41790.27
642.31	41273.01
642.45	41762.18
642.60	41223.86
642.75	41258.96
642.90	41570.25
643.04	41450.89
643.19	40851.71
643.34	41607.70
643.48	41418.12
643.63	41310.46
643.78	41029.59
643.93	40456.16
644.07	41064.70
644.22	40987.46
644.37	40788.52
644.51	40942.99
644.66	41029.59
644.81	41099.81
644.95	41170.02
645.10	41504.72
645.25	41031.93
645.39	40966.40
645.54	41277.69
645.69	41109.17
645.83	40975.76
645.98	40879.80
646.13	40863.41
646.27	41060.02
646.42	40507.65
646.57	40669.15
646.71	40821.28
646.86	40704.26
647.00	40879.80
647.15	40634.04
647.30	40823.62
647.44	40194.02
647.59	40362.54
647.74	40205.72
647.88	39985.71
648.03	40341.47
648.17	40025.50
648.32	40095.72
648.47	40268.92
648.61	39981.03
648.76	40882.14
648.90	40203.38
649.05	40435.10
649.20	40685.53
649.34	40034.86
649.49	39812.51
649.63	40467.86
649.78	39894.43
649.92	40388.28
650.07	40425.73
650.21	40135.51
650.36	40208.06
650.51	39824.22
650.65	39995.07
650.80	40624.68
650.94	40308.71
651.09	40341.47
651.23	39849.96
651.38	39583.14
651.52	39358.45
651.67	39533.99
651.81	39711.87
651.96	39566.76
652.10	39543.35
652.25	39636.97
652.39	39491.86
652.54	39477.82
652.68	39653.36
652.83	40137.85
652.97	39812.51
653.12	39948.26
653.26	39765.70
653.41	39679.10
653.55	38857.57
653.70	39267.17
653.84	39187.59
653.99	39608.89
654.13	38796.72
654.27	39192.27
654.42	39393.56
654.56	38906.73
654.71	39276.53
654.85	39278.87
655.00	39159.50
655.14	38967.58
655.29	38443.30
655.43	39290.57
655.57	38602.46
655.72	38270.10
655.86	38813.10
656.01	38590.75
656.15	38012.64
656.30	38462.02
656.44	38639.90
656.58	38302.87
656.73	38487.77
656.87	38586.07
657.01	38117.96
657.16	38026.68
657.30	38326.27
657.45	38347.34
657.59	38223.29
657.73	38354.36
657.88	38024.34
658.02	38731.18
658.16	38375.42
658.31	38298.19
658.45	38534.58
658.60	38323.93
658.74	38515.86
658.88	38007.96
659.03	38433.94
659.17	37963.49
659.31	37853.48
659.46	37860.51
659.60	38195.20
659.74	37598.37
659.89	37734.12
660.03	38024.34
660.17	38127.33
660.32	37794.97
660.46	38073.49
660.60	37710.71
660.74	37628.79
660.89	38089.88
661.03	37097.49
661.17	37617.09
661.32	37256.65
661.46	37535.17
661.60	37446.23
661.74	36994.51
661.89	37308.14
662.03	37226.22
662.17	36959.40
662.31	37237.92
662.46	37071.75
662.60	37186.43
662.74	37029.62
662.88	36847.05
663.03	36875.14
663.17	36711.30
663.31	36432.78
663.45	36617.68
663.60	36788.54
663.74	36320.43
663.88	36725.35
664.02	36353.20
664.17	36589.59
664.31	36378.95
664.45	36306.39
664.59	36605.98
664.73	36198.73
664.88	36407.03
665.02	36346.18
665.16	36299.37
665.30	35967.01
665.44	36051.27
665.59	35494.22
665.73	36020.84
665.87	35772.75
666.01	35629.98
666.15	36121.49
666.29	35791.47
666.44	35981.06
666.58	35440.39
666.72	35321.02
666.86	35590.19
667.00	35959.99
667.14	35833.60
667.28	35086.97
667.43	35276.55
667.57	35398.26
667.71	35288.26
667.85	35491.88
667.99	35318.68
668.13	35091.65
668.27	35023.78
668.41	35283.58
668.56	34904.41
668.70	34890.37
668.84	34792.06
668.98	34401.19
669.12	35023.78
669.26	34719.51
669.40	34771.00
669.54	34258.42
669.68	34469.07
669.82	34225.65
669.96	33823.08
670.10	33677.97
670.25	34579.07
670.39	34197.57
670.53	34251.40
670.67	33867.55
670.81	34059.48
670.95	34012.66
671.09	34073.52
671.23	33919.04
671.37	33755.21
671.51	33666.27
671.65	33607.75
671.79	33331.57
671.93	33170.07
672.07	33448.60
672.21	33385.40
672.35	32926.66
672.49	33425.19
672.63	33202.84
672.77	33282.42
672.91	33357.32
673.05	33188.80
673.19	32989.85
673.33	32987.51
673.47	32685.58
673.61	32961.76
673.75	32280.67
673.89	32446.85
674.03	32371.95
674.17	32559.19
674.31	32182.37
674.45	32264.28
674.59	32486.64
674.73	32060.66
674.87	32362.59
675.01	32135.56
675.15	32144.92
675.29	32322.80
675.43	31943.63
675.56	31882.78
675.70	31845.33
675.84	31611.28
675.98	30651.66
676.12	31489.57
676.26	31667.45
676.40	31372.54
676.54	31182.96
676.68	31433.39
676.82	30539.31
676.96	30728.89
677.10	30698.47
677.23	30382.49
677.37	30979.33
677.51	30513.56
677.65	30775.70
677.79	29872.26
677.93	30281.85
678.07	30059.50
678.21	30101.63
678.34	29970.56
678.48	29792.68
678.62	29874.60
678.76	29549.26
678.90	29788.00
679.04	29778.64
679.18	29202.86
679.31	29053.07
679.45	29130.31
679.59	29284.78
679.73	28940.72
679.87	29291.80
680.00	29069.45
680.14	29017.96
680.28	28753.48
680.42	28285.37
680.56	28418.78
680.70	28517.09
680.83	28627.09
680.97	28107.49
681.11	28236.22
681.25	27545.76
681.39	27723.65
681.52	27777.48
681.66	27861.74
681.80	27882.80
681.94	27756.41
682.07	27463.85
682.21	27555.13
682.35	27541.08
682.49	27187.66
682.62	27559.81
682.76	27489.59
682.90	26913.82
683.04	26906.80
683.17	26918.50
683.31	27159.58
683.45	27194.68
683.59	26333.37
683.72	26558.06
683.86	26103.99
684.00	26157.83
684.13	26532.31
684.27	26742.96
684.41	26218.68
684.55	26139.10
684.68	25493.12
684.82	26094.63
684.96	25771.64
685.09	25837.17
685.23	25399.49
685.37	25621.84
685.50	25535.24
685.64	25376.09
685.78	25439.28
685.91	25350.34
686.05	25383.11
686.19	25252.04
686.32	25020.33
686.46	24840.11
686.60	24245.61
686.73	24446.90
686.87	24198.80
687.01	24173.05
687.14	24013.90
687.28	23824.31
687.42	23522.38
687.55	23660.48
687.69	23653.45
687.82	23730.69
687.96	23632.39
688.10	23714.31
688.23	23697.92
688.37	23232.16
688.50	22740.64
688.64	23435.78
688.78	22710.22
688.91	22787.46
689.05	22703.20
689.18	22815.54
689.32	22860.01
689.46	22773.41
689.59	23150.24
689.73	23058.96
689.86	22565.10
690.00	22780.43
690.13	22824.90
690.27	22295.94
690.41	22279.56
690.54	22115.72
690.68	21797.41
690.81	22174.24
690.95	21827.84
691.08	21385.47
691.22	21893.37
691.35	21720.17
691.49	21724.85
691.62	21696.77
691.76	21830.18
691.89	21273.13
692.03	21312.92
692.16	21095.25
692.30	21048.44
692.43	21027.37
692.57	20931.41
692.70	21050.78
692.84	20816.72
692.97	20634.16
693.11	20526.50
693.24	20528.84
693.38	20257.34
693.51	20301.81
693.65	20353.30
693.78	20547.56
693.92	20170.74
694.05	20208.19
694.19	20142.65
694.32	19906.26
694.45	19917.96
694.59	19744.76
694.72	19665.18
694.86	19662.84
694.99	19606.67
695.13	19424.11
695.26	19412.40
695.39	19033.24
695.53	19194.73
695.66	19278.99
695.80	19061.32
695.93	18785.14
696.07	18911.53
696.20	19070.68
696.33	18745.35
696.47	18501.93
696.60	18530.02
696.73	18661.09
696.87	18359.16
697.00	18464.49
697.14	18197.67
697.27	18064.25
697.40	18192.98
697.54	18228.09
697.67	17568.06
697.80	17710.83
697.94	17497.84
698.07	18001.06
698.21	17745.94
698.34	17692.11
698.47	17518.91
698.61	17376.14
698.74	17448.69
698.87	17397.20
699.01	17205.28
699.14	17158.47
699.27	17083.57
699.40	17153.79
699.54	16882.28
699.67	16727.81
699.80	16683.34
699.94	16517.16
700.07	16695.04
700.20	16507.80
700.34	16416.52
700.47	16545.25
700.60	16617.80
700.73	16409.50
700.87	16519.50
701.00	16187.14
701.13	16020.97
701.26	16044.37
701.40	15917.98
701.53	15836.06
701.66	15693.29
701.79	15810.32
701.93	15737.76
702.06	15571.58
702.19	15337.53
702.32	15372.64
702.46	15143.27
702.59	15279.02
702.72	15180.71
702.85	15389.02
702.99	15030.92
703.12	15199.44
703.25	15176.03
703.38	15033.26
703.51	14895.17
703.65	14974.75
703.78	14782.82
703.91	14513.66
704.04	14487.92
704.17	14239.82
704.31	14284.29
704.44	14033.85
704.57	14111.09
704.70	14001.08
704.83	14153.22
704.96	14457.49
705.10	14075.98
705.23	14281.95
>>>>>End Processed Spectral Data<<<<<
