SpectraSuite Data File
++++++++++++++++++++++++++++++++++++
Date: Fri Oct 25 11:33:17 EDT 2013
User: price-jones
Dark Spectrum Present: No
Reference Spectrum Present: No
Number of Sampled Component Spectra: 1
Spectrometers: USB2+H05261
Integration Time (usec): 100000 (USB2+H05261)
Spectra Averaged: 1 (USB2+H05261)
Boxcar Smoothing: 0 (USB2+H05261)
Correct for Electrical Dark: No (USB2+H05261)
Strobe/Lamp Enabled: No (USB2+H05261)
Correct for Detector Non-linearity: No (USB2+H05261)
Correct for Stray Light: No (USB2+H05261)
Number of Pixels in Processed Spectrum: 2048
>>>>>Begin Processed Spectral Data<<<<<
365.73	330.02
365.92	330.02
366.12	330.02
366.32	257.46
366.52	147.45
366.72	194.26
366.91	147.45
367.11	180.22
367.31	201.29
367.51	114.69
367.70	177.88
367.90	203.63
368.10	152.13
368.30	121.71
368.49	166.18
368.69	227.03
368.89	168.52
369.09	138.09
369.28	184.90
369.48	238.73
369.68	194.26
369.87	255.12
370.07	243.42
370.27	337.04
370.47	283.20
370.66	489.17
370.86	578.11
371.06	571.09
371.25	550.03
371.45	470.45
371.65	575.77
371.84	496.19
372.04	538.32
372.24	603.86
372.44	554.71
372.63	557.05
372.83	636.63
373.03	585.13
373.22	568.75
373.42	606.20
373.62	627.26
373.81	678.76
374.01	737.27
374.21	664.71
374.40	655.35
374.60	751.31
374.79	601.52
374.99	573.43
375.19	667.05
375.38	631.94
375.58	641.31
375.78	653.01
375.97	744.29
376.17	688.12
376.37	695.14
376.56	711.52
376.76	711.52
376.95	713.86
377.15	653.01
377.35	678.76
377.54	697.48
377.74	690.46
377.93	653.01
378.13	704.50
378.33	695.14
378.52	723.23
378.72	739.61
378.91	692.80
379.11	711.52
379.31	716.20
379.50	720.88
379.70	772.38
379.89	772.38
380.09	706.84
380.28	793.44
380.48	727.91
380.68	690.46
380.87	725.57
381.07	734.93
381.26	767.70
381.46	800.46
381.65	770.04
381.85	772.38
382.04	704.50
382.24	755.99
382.43	739.61
382.63	795.78
382.83	809.83
383.02	887.06
383.22	844.93
383.41	849.61
383.61	814.51
383.80	826.21
384.00	842.59
384.19	744.29
384.39	774.72
384.58	800.46
384.78	814.51
384.97	830.89
385.17	784.08
385.36	821.53
385.56	863.66
385.75	856.64
385.95	905.79
386.14	840.25
386.34	912.81
386.53	877.70
386.72	938.55
386.92	851.96
387.11	903.45
387.31	868.34
387.50	924.51
387.70	978.34
387.89	863.66
388.09	919.83
388.28	926.85
388.48	866.00
388.67	950.26
388.86	912.81
389.06	997.07
389.25	952.60
389.45	943.24
389.64	933.87
389.84	1076.65
390.03	1006.43
390.22	1029.84
390.42	947.92
390.61	987.71
390.81	926.85
391.00	992.39
391.19	1043.88
391.39	1046.22
391.58	1022.81
391.78	1053.24
391.97	1093.03
392.16	1020.47
392.36	1022.81
392.55	1086.01
392.75	1041.54
392.94	1069.62
393.13	1093.03
393.33	1062.60
393.52	1062.60
393.71	1128.14
393.91	1165.59
394.10	1107.07
394.29	1111.75
394.49	1086.01
394.68	1095.37
394.88	1104.73
395.07	1158.57
395.26	1228.78
395.46	1273.25
395.65	1114.10
395.84	1137.50
396.04	1277.93
396.23	1233.46
396.42	1107.07
396.62	1198.35
396.81	1179.63
397.00	1240.48
397.19	1203.04
397.39	1245.16
397.58	1247.51
397.77	1207.72
397.97	1273.25
398.16	1284.95
398.35	1334.11
398.55	1226.44
398.74	1343.47
398.93	1343.47
399.12	1317.72
399.32	1266.23
399.51	1256.87
399.70	1214.74
399.90	1380.92
400.09	1355.17
400.28	1385.60
400.47	1383.26
400.67	1474.54
400.86	1401.98
401.05	1465.18
401.24	1469.86
401.44	1376.24
401.63	1383.26
401.82	1535.39
402.01	1488.58
402.21	1497.94
402.40	1465.18
402.59	1427.73
402.78	1540.07
402.97	1526.03
403.17	1497.94
403.36	1572.84
403.55	1610.29
403.74	1582.20
403.93	1556.46
404.13	1600.93
404.32	1509.65
404.51	1647.74
404.70	1575.18
404.89	1739.02
405.09	1678.16
405.28	1699.23
405.47	1729.66
405.66	1619.65
405.85	1710.93
406.05	1668.80
406.24	1703.91
406.43	1699.23
406.62	1823.28
406.81	1797.53
407.00	1860.73
407.20	1802.21
407.39	1879.45
407.58	1811.57
407.77	1874.77
407.96	1914.56
408.15	1970.73
408.34	1863.07
408.54	1898.17
408.73	1947.33
408.92	2045.63
409.11	2001.16
409.30	2001.16
409.49	1921.58
409.68	2012.86
409.87	2054.99
410.07	2120.53
410.26	2118.18
410.45	2022.22
410.64	2031.58
410.83	2036.27
411.02	2040.95
411.21	2197.76
411.40	2251.60
411.59	2218.83
411.78	2031.58
411.98	2155.63
412.17	2155.63
412.36	2267.98
412.55	2253.94
412.74	2312.45
412.93	2410.75
413.12	2328.83
413.31	2516.08
413.50	2349.90
413.69	2462.24
413.88	2509.05
414.07	2429.48
414.26	2574.59
414.45	2553.52
414.64	2525.44
414.83	2553.52
415.02	2614.38
415.22	2656.51
415.41	2572.25
415.60	2663.53
415.79	2689.28
415.98	2705.66
416.17	2722.04
416.36	2708.00
416.55	2738.43
416.74	2977.16
416.93	2736.09
417.12	2782.90
417.31	2860.13
417.50	2846.09
417.69	2871.84
417.88	2956.10
418.07	3087.17
418.26	3045.04
418.45	2935.03
418.64	3148.02
418.83	3028.65
419.02	3056.74
419.21	3112.91
419.39	3000.57
419.58	3005.25
419.77	3112.91
419.96	3211.22
420.15	3180.79
420.34	3213.56
420.53	3185.47
420.72	3173.77
420.91	3211.22
421.10	3194.83
421.29	3335.26
421.48	3185.47
421.67	3391.44
421.86	3260.37
422.05	3435.91
422.24	3279.09
422.43	3339.94
422.61	3339.94
422.80	3442.93
422.99	3384.41
423.18	3405.48
423.37	3583.36
423.56	3442.93
423.75	3471.01
423.94	3417.18
424.13	3236.96
424.32	3236.96
424.50	3428.88
424.69	3595.06
424.88	3459.31
425.07	3475.70
425.26	3478.04
425.45	3414.84
425.64	3405.48
425.83	3344.63
426.01	3581.02
426.20	3478.04
426.39	3503.78
426.58	3471.01
426.77	3595.06
426.96	3449.95
427.15	3632.51
427.33	3541.23
427.52	3435.91
427.71	3618.47
427.90	3688.68
428.09	3695.71
428.28	3672.30
428.46	3782.31
428.65	3702.73
428.84	3604.42
429.03	3817.41
429.22	3782.31
429.40	3651.24
429.59	3836.14
429.78	3737.84
429.97	3723.79
430.16	3744.86
430.34	3901.67
430.53	3960.19
430.72	3920.40
430.91	3964.87
431.10	3913.38
431.28	3939.12
431.47	4046.79
431.66	4016.36
431.85	3953.16
432.03	4046.79
432.22	4119.34
432.41	4079.55
432.60	4084.23
432.79	4182.54
432.97	4311.27
433.16	4241.05
433.35	4056.15
433.54	4208.28
433.72	4276.16
433.91	4046.79
434.10	4243.39
434.28	4184.88
434.47	4283.18
434.66	4327.65
434.85	4241.05
435.03	4362.76
435.22	4372.12
435.41	4547.66
435.59	4381.48
435.78	4538.30
435.97	4360.42
436.16	4397.87
436.34	4432.97
436.53	4400.21
436.72	4542.98
436.90	4376.80
437.09	4528.94
437.28	4376.80
437.46	4542.98
437.65	4683.41
437.84	4650.64
438.02	4741.93
438.21	4692.77
438.40	4545.32
438.58	4812.14
438.77	4765.33
438.96	4638.94
439.14	4847.25
439.33	4959.60
439.52	5006.41
439.70	4992.36
439.89	5039.17
440.08	5085.98
440.26	5109.39
440.45	5137.48
440.63	5153.86
440.82	5181.95
441.01	5055.56
441.19	5228.76
441.38	5303.65
441.57	5275.57
441.75	5301.31
441.94	5444.09
442.12	5507.28
442.31	5561.11
442.50	5376.21
442.68	5383.23
442.87	5533.03
443.05	5614.95
443.24	5530.69
443.43	5738.99
443.61	5633.67
443.80	5638.35
443.98	5685.16
444.17	5416.00
444.35	5441.75
444.54	5753.04
444.73	5666.44
444.91	5610.26
445.10	5621.97
445.28	5841.98
445.47	5673.46
445.65	5682.82
445.84	5643.03
446.02	5893.47
446.21	5645.37
446.39	5757.72
446.58	5778.78
446.77	5886.45
446.95	5582.18
447.14	5741.33
447.32	5863.04
447.51	5743.67
447.69	5853.68
447.88	5738.99
448.06	5783.46
448.25	5930.92
448.43	5947.30
448.62	5893.47
448.80	5727.29
448.99	5818.57
449.17	5886.45
449.36	5907.51
449.54	6108.80
449.73	6066.67
449.91	6211.78
450.10	6127.52
450.28	6113.48
450.46	6183.70
450.65	6221.14
450.83	6085.39
451.02	6260.93
451.20	6305.40
451.39	6094.76
451.57	6296.04
451.76	6057.31
451.94	6410.73
452.13	6321.79
452.31	6445.84
452.49	6228.17
452.68	6513.71
452.86	6494.99
453.05	6459.88
453.23	6375.62
453.42	6296.04
453.60	6384.98
453.78	6483.28
453.97	6420.09
454.15	6480.94
454.34	6274.98
454.52	6766.49
454.70	6684.57
454.89	6565.20
455.07	6607.33
455.26	6691.59
455.44	6717.34
455.62	6806.28
455.81	6825.00
455.99	6986.50
456.17	6808.62
456.36	6862.45
456.54	6871.81
456.73	6932.67
456.91	6965.43
457.09	7108.21
457.28	7080.12
457.46	6850.75
457.64	7173.74
457.83	7155.02
458.01	7059.06
458.19	7227.57
458.38	7295.45
458.56	7187.79
458.74	7215.87
458.93	7356.30
459.11	7396.09
459.29	7136.29
459.48	7243.96
459.66	7414.82
459.84	7419.50
460.03	7360.98
460.21	7433.54
460.39	7414.82
460.57	7508.44
460.76	7548.23
460.94	7545.89
461.12	7581.00
461.31	7756.54
461.49	7634.83
461.67	7581.00
461.85	7536.52
462.04	7590.36
462.22	8236.35
462.40	7934.42
462.59	7796.32
462.77	7845.48
462.95	7894.63
463.13	7922.71
463.32	7836.11
463.50	8086.55
463.68	8009.31
463.86	7955.48
464.05	7838.45
464.23	7854.84
464.41	7857.18
464.59	7943.78
464.78	8372.10
464.96	8196.56
465.14	7948.46
465.32	8140.38
465.50	8140.38
465.69	8390.82
465.87	8278.47
466.05	8149.75
466.23	8292.52
466.41	8250.39
466.60	8416.57
466.78	8414.23
466.96	8119.32
467.14	8318.26
467.32	8301.88
467.51	8524.23
467.69	8318.26
467.87	8369.76
468.05	8617.85
468.23	8510.19
468.41	8510.19
468.60	8418.91
468.78	8702.11
468.96	8489.12
469.14	8603.81
469.32	8699.77
469.50	8402.52
469.69	8657.64
469.87	8779.35
470.05	8760.63
470.23	8894.04
470.41	9015.74
470.59	8992.34
470.77	8891.70
470.95	8994.68
471.14	9240.44
471.32	8966.59
471.50	9156.18
471.68	9034.47
471.86	9327.03
472.04	9135.11
472.22	9329.38
472.40	9390.23
472.58	9357.46
472.77	9291.93
472.95	9481.51
473.13	9738.97
473.31	9490.87
473.49	9437.04
473.67	9252.14
473.85	9605.56
474.03	9860.68
474.21	9701.52
474.39	9975.36
474.57	9820.89
474.75	9975.36
474.93	10054.94
475.12	10115.80
475.30	9937.91
475.48	10204.74
475.66	10335.81
475.84	10277.29
476.02	10183.67
476.20	10211.76
476.38	10422.41
476.56	10452.83
476.74	10682.20
476.92	10745.40
477.10	10602.63
477.28	10810.93
477.46	10794.55
477.64	10998.18
477.82	11211.17
478.00	11365.64
478.18	11077.76
478.36	11342.24
478.54	11349.26
478.72	11328.19
478.90	11611.40
479.08	11737.79
479.26	11721.40
479.44	11988.22
479.62	12079.50
479.80	12042.06
479.98	12126.32
480.16	12465.69
480.34	12217.60
480.52	12243.34
480.70	12479.74
480.88	12252.70
481.06	12510.16
481.24	12685.70
481.41	12800.39
481.59	12854.22
481.77	13062.53
481.95	12835.50
482.13	12975.93
482.31	13373.82
482.49	13638.30
482.67	13455.74
482.85	13694.47
483.03	13626.60
483.21	13774.05
483.39	13769.37
483.57	13488.51
483.74	13891.08
483.92	14047.90
484.10	14059.60
484.28	14539.41
484.46	14417.70
484.64	14768.78
484.82	14642.39
485.00	14642.39
485.18	14820.27
485.35	15073.05
485.53	14920.92
485.71	15180.71
485.89	15534.14
486.07	15356.25
486.25	15669.89
486.43	15775.21
486.61	15730.74
486.78	16002.24
486.96	15974.16
487.14	16372.05
487.32	16142.67
487.50	16547.59
487.68	16666.95
487.85	16772.28
488.03	16872.92
488.21	17149.11
488.39	16950.16
488.57	17221.66
488.75	17385.50
488.92	17413.59
489.10	17554.02
489.28	17441.67
489.46	17717.86
489.64	17898.08
489.81	18469.17
489.99	18160.22
490.17	18424.70
490.35	18506.62
490.53	18801.52
490.70	18668.11
490.88	18686.84
491.06	18918.55
491.24	19480.28
491.41	19386.66
491.59	19461.55
491.77	19281.33
491.95	19634.75
492.13	19812.63
492.30	19866.47
492.48	19798.59
492.66	20058.39
492.84	20350.96
493.01	20460.96
493.19	20175.42
493.37	20332.23
493.54	20849.49
493.72	20903.32
493.90	20893.96
494.08	20788.64
494.25	21282.49
494.43	21132.70
494.61	21619.53
494.79	21579.74
494.96	21771.66
495.14	21799.75
495.32	22286.58
495.49	22225.73
495.67	21935.50
495.85	22218.71
496.02	22398.93
496.20	22429.35
496.38	22609.58
496.55	22920.87
496.73	23178.33
496.91	23016.83
497.09	23157.26
497.26	23211.09
497.44	22948.95
497.62	23356.21
497.79	23601.96
497.97	23386.63
498.14	23637.07
498.32	23931.98
498.50	23962.40
498.67	24320.51
498.85	24292.42
499.03	24362.64
499.20	24166.03
499.38	24584.99
499.56	24566.26
499.73	24690.31
499.91	24460.94
500.08	25233.32
500.26	24816.70
500.44	25008.62
500.61	24924.36
500.79	25275.45
500.97	25198.21
501.14	25345.66
501.32	25638.23
501.49	25500.14
501.67	25675.68
501.84	26066.55
502.02	25570.35
502.20	26031.44
502.37	26113.36
502.55	25970.58
502.72	26155.49
502.90	26300.60
503.07	26492.52
503.25	26511.25
503.43	26382.52
503.60	26579.12
503.78	26609.55
503.95	26565.08
504.13	26469.12
504.30	27072.98
504.48	27063.61
504.65	26630.62
504.83	27318.73
505.01	27419.38
505.18	27538.74
505.36	27655.77
505.53	27353.84
505.71	27566.83
505.88	27871.10
506.06	27180.64
506.23	28208.14
506.41	28264.31
506.58	28107.49
506.76	27866.42
506.93	28425.81
507.11	28402.40
507.28	28566.24
507.46	28123.88
507.63	28566.24
507.81	28727.74
507.98	28629.43
508.16	28610.71
508.33	28531.13
508.50	29266.06
508.68	28933.70
508.85	29221.59
509.03	29039.03
509.20	29575.01
509.38	29734.17
509.55	29724.80
509.73	29586.71
509.90	29560.97
510.08	29895.66
510.25	29778.64
510.42	29965.88
510.60	29600.76
510.77	30331.00
510.95	30551.01
511.12	30286.53
511.30	30171.85
511.47	30349.73
511.64	30579.10
511.82	30682.08
511.99	30171.85
512.17	30930.18
512.34	30930.18
512.51	31115.08
512.69	30998.06
512.86	31267.22
513.04	31524.68
513.21	31157.21
513.38	31204.02
513.56	31417.01
513.73	31110.40
513.90	31641.70
514.08	30958.27
514.25	31749.37
514.43	31693.19
514.60	31892.14
514.77	31990.44
514.95	32465.57
515.12	32041.93
515.29	32556.85
515.47	32041.93
515.64	32414.08
515.81	31927.25
515.99	32484.30
516.16	32725.37
516.33	32966.45
516.51	32980.49
516.68	32807.29
516.85	32641.11
517.03	32912.61
517.20	33226.24
517.37	32751.12
517.54	33244.97
517.72	33312.84
517.89	33378.38
518.06	33486.04
518.24	33422.85
518.41	33369.02
518.58	33069.43
518.75	33411.15
518.93	33724.78
519.10	33378.38
519.27	33886.28
519.45	33834.78
519.62	33706.05
519.79	34120.33
519.96	34015.01
520.14	34401.19
520.31	34019.69
520.48	34436.30
520.65	34251.40
520.83	34848.24
521.00	34918.45
521.17	34693.76
521.34	34745.25
521.52	34960.58
521.69	35054.20
521.86	34927.81
522.03	35051.86
522.20	35005.05
522.38	35709.55
522.55	35576.14
522.72	35047.18
522.89	35316.34
523.07	35901.48
523.24	35447.41
523.41	36048.93
523.58	35637.00
523.75	35983.40
523.92	35896.80
524.10	35793.81
524.27	35758.70
524.44	36084.04
524.61	36350.86
524.78	36194.04
524.96	36767.48
525.13	36411.71
525.30	36624.70
525.47	36411.71
525.64	36458.52
525.81	36479.59
525.98	37050.68
526.16	36610.66
526.33	36854.08
526.50	36741.73
526.67	36781.52
526.84	37020.25
527.01	37001.53
527.18	36830.67
527.36	37495.38
527.53	37141.96
527.70	37673.26
527.87	37607.73
528.04	37251.97
528.21	37521.13
528.38	37521.13
528.55	37656.88
528.72	37518.79
528.89	37797.31
529.07	37315.16
529.24	37848.80
529.41	37684.97
529.58	37900.29
529.75	37965.83
529.92	37598.37
530.09	37769.22
530.26	38045.41
530.43	38029.02
530.60	37710.71
530.77	38110.94
530.94	38300.53
531.11	38155.41
531.28	38478.41
531.46	38389.47
531.63	38197.54
531.80	38373.08
531.97	38890.34
532.14	38815.44
532.31	38527.56
532.48	39157.16
532.65	38951.20
532.82	38923.11
532.99	39428.66
533.16	38993.32
533.33	39210.99
533.50	39622.93
533.67	38955.88
533.84	38909.07
534.01	39072.90
534.18	39136.10
534.35	39370.15
534.52	39484.84
534.69	39421.64
534.86	39651.02
535.03	39536.33
535.20	40149.55
535.37	39929.54
535.54	40161.25
535.71	39646.33
535.88	39873.37
536.05	40051.25
536.22	40289.98
536.38	39618.25
536.55	39531.65
536.72	40247.85
536.89	40002.10
537.06	40219.77
537.23	40535.74
537.40	40226.79
537.57	40474.88
537.74	40278.28
537.91	40971.08
538.08	40554.46
538.25	40446.80
538.42	40985.12
538.59	40699.58
538.75	40259.55
538.92	40847.03
539.09	41158.32
539.26	41020.23
539.43	40603.61
539.60	41074.06
539.77	40704.26
539.94	41158.32
540.11	41006.19
540.28	41488.34
540.44	40968.74
540.61	41549.19
540.78	41207.47
540.95	41191.09
541.12	40708.94
541.29	41158.32
541.46	41233.22
541.62	41228.54
541.79	41612.38
541.96	40879.80
542.13	41420.46
542.30	41729.41
542.47	41504.72
542.63	41474.29
542.80	42043.04
542.97	42370.72
543.14	42036.02
543.31	42342.63
543.48	42087.51
543.64	42906.70
543.81	42616.47
543.98	42181.13
544.15	42330.93
544.32	42621.16
544.48	42916.06
544.65	42792.01
544.82	42944.15
544.99	42419.87
545.16	42508.81
545.32	42682.01
545.49	43115.01
545.66	43115.01
545.83	42983.94
546.00	42799.04
546.16	42904.36
546.33	42639.88
546.50	42698.39
546.67	42969.90
546.83	42593.07
547.00	43213.31
547.17	43203.95
547.34	42972.24
547.50	43489.49
547.67	43723.55
547.84	43189.91
548.00	43236.72
548.17	43840.57
548.34	43491.83
548.51	43573.75
548.67	43599.50
548.84	43784.40
549.01	43269.48
549.18	43779.72
549.34	43793.76
549.51	43842.92
549.68	43789.08
549.84	43538.65
550.01	43791.42
550.18	43665.03
550.34	43789.08
550.51	44287.62
550.68	44498.26
550.84	43735.25
551.01	44238.47
551.18	44126.12
551.34	43915.47
551.51	44442.09
551.68	44151.87
551.84	44261.87
552.01	44151.87
552.18	44360.17
552.34	44226.76
552.51	44198.68
552.68	44355.49
552.84	44292.30
553.01	44622.31
553.18	44643.38
553.34	44877.43
553.51	43878.02
553.67	44746.36
553.84	44832.96
554.01	44851.69
554.17	45038.93
554.34	44891.48
554.51	44542.74
554.67	45272.98
554.84	44931.26
555.00	44835.30
555.17	44877.43
555.33	45198.09
555.50	45081.06
555.67	45090.42
555.83	45399.37
556.00	45223.83
556.16	45741.09
556.33	45490.65
556.50	45200.43
556.66	45090.42
556.83	44825.94
556.99	45408.73
557.16	45579.59
557.32	45502.35
557.49	45663.85
557.65	45024.89
557.82	45382.99
557.98	45439.16
558.15	45289.37
558.32	45591.30
558.48	45574.91
558.65	45570.23
558.81	45722.37
558.98	45673.21
559.14	45624.06
559.31	45563.21
559.47	45855.78
559.64	46071.10
559.80	46092.17
559.97	46216.22
560.13	45783.22
560.30	45511.72
560.46	45780.88
560.63	46181.11
560.79	46164.73
560.96	46274.73
561.12	46110.89
561.29	45914.29
561.45	46277.07
561.61	45783.22
561.78	46424.53
561.94	45862.80
562.11	45982.16
562.27	46277.07
562.44	46089.83
562.60	46375.37
562.77	46209.20
562.93	46244.30
563.10	46457.29
563.26	46206.86
563.42	46438.57
563.59	46576.66
563.75	46153.02
563.92	46440.91
564.08	46623.47
564.24	46321.54
564.41	46206.86
564.57	46527.51
564.74	46487.72
564.90	46644.54
565.07	46408.14
565.23	46679.64
565.39	46457.29
565.56	46527.51
565.72	46494.74
565.88	46567.30
566.05	46733.48
566.21	46756.88
566.38	46567.30
566.54	46799.01
566.70	46740.50
566.87	46880.93
567.03	46492.40
567.19	46480.70
567.36	47072.85
567.52	46859.87
567.68	47267.12
567.85	46843.48
568.01	46763.90
568.17	46555.60
568.34	46909.02
568.50	47337.33
568.66	46609.43
568.83	47313.93
568.99	46478.36
569.15	46909.02
569.32	46808.37
569.48	47002.64
569.64	47360.74
569.81	47229.67
569.97	46658.58
570.13	47196.90
570.30	46892.63
570.46	46946.47
570.62	47229.67
570.78	47227.33
570.95	47222.65
571.11	47356.06
571.27	47232.01
571.43	46614.11
571.60	47145.41
571.76	47098.60
571.92	47182.86
572.09	46894.97
572.25	47241.37
572.41	47360.74
572.57	47260.10
572.74	47620.54
572.90	47344.36
573.06	47257.76
573.22	47323.29
573.38	47243.71
573.55	47227.33
573.71	47461.38
573.87	47334.99
574.03	47236.69
574.20	47124.35
574.36	47271.80
574.52	47639.26
574.68	47107.96
574.84	47409.89
575.01	47260.10
575.17	47618.20
575.33	47334.99
575.49	47526.92
575.65	47819.49
575.82	47510.53
575.98	47334.99
576.14	47966.94
576.30	47686.07
576.46	47363.08
576.62	47285.84
576.79	47405.21
576.95	47402.87
577.11	47285.84
577.27	47657.99
577.43	47201.58
577.59	47709.48
577.75	47615.86
577.92	47487.13
578.08	47730.54
578.24	47344.36
578.40	47566.71
578.56	47576.07
578.72	47337.33
578.88	47601.82
579.04	47477.77
579.21	47562.03
579.37	47760.97
579.53	47412.23
579.69	47220.31
579.85	47615.86
580.01	47360.74
580.17	47356.06
580.33	47494.15
580.49	47519.90
580.65	47751.61
580.82	47775.02
580.98	47522.24
581.14	47552.66
581.30	47840.55
581.46	47533.94
581.62	47990.34
581.78	47426.28
581.94	47370.10
582.10	47597.13
582.26	48062.90
582.42	47730.54
582.58	47875.66
582.74	47763.31
582.90	47625.22
583.06	48154.18
583.22	47716.50
583.38	47697.78
583.54	47749.27
583.70	48100.35
583.86	48002.05
584.02	47660.33
584.18	47861.61
584.34	47990.34
584.50	48184.61
584.66	47896.72
584.82	47831.19
584.98	48481.86
585.14	47767.99
585.30	47468.40
585.46	47859.27
585.62	47674.37
585.78	48093.33
585.94	47353.72
586.10	47931.83
586.26	47611.18
586.42	47702.46
586.58	48004.39
586.74	47789.06
586.90	47353.72
587.06	47632.24
587.22	47973.96
587.38	47866.30
587.54	47828.85
587.70	48189.29
587.86	47873.32
588.02	47604.16
588.18	47608.84
588.34	47992.68
588.49	48074.60
588.65	47861.61
588.81	47807.78
588.97	47969.28
589.13	47604.16
589.29	48198.65
589.45	48374.19
589.61	48175.25
589.77	48289.93
589.93	47966.94
590.08	48212.70
590.24	48481.86
590.40	48292.27
590.56	48442.07
590.72	48224.40
590.88	47878.00
591.04	47758.63
591.20	48713.57
591.35	47999.71
591.51	48584.84
591.67	48245.46
591.83	48587.18
591.99	48205.67
592.15	47980.98
592.31	48128.44
592.46	48116.73
592.62	48650.38
592.78	48376.53
592.94	48664.42
593.10	48839.96
593.26	48442.07
593.41	48587.18
593.57	48411.64
593.73	48559.09
593.89	48765.06
594.05	48170.57
594.20	48371.85
594.36	49165.29
594.52	48449.09
594.68	48339.08
594.84	48552.07
594.99	48706.55
595.15	48580.16
595.31	48289.93
595.47	48388.24
595.62	48964.01
595.78	48334.40
595.94	48823.58
596.10	48013.75
596.25	48626.97
596.41	48704.21
596.57	48353.13
596.73	48708.89
596.88	48692.50
597.04	48591.86
597.20	48835.28
597.36	48645.69
597.51	48891.45
597.67	48641.01
597.83	48594.20
597.99	48699.53
598.14	48236.10
598.30	48739.32
598.46	48610.59
598.61	49066.99
598.77	49006.14
598.93	49034.22
599.09	48746.34
599.24	48807.19
599.40	48790.81
599.56	48753.36
599.71	48727.61
599.87	49055.29
600.03	48744.00
600.18	48736.98
600.34	48687.82
600.50	48573.14
600.65	48680.80
600.81	48905.49
600.97	48802.51
601.12	48641.01
601.28	48559.09
601.44	48954.64
601.59	48882.09
601.75	48519.31
601.91	48694.85
602.06	48795.49
602.22	48942.94
602.37	48589.52
602.53	48664.42
602.69	48795.49
602.84	48224.40
603.00	48636.33
603.16	48343.77
603.31	48713.57
603.47	48868.05
603.62	48729.95
603.78	49036.56
603.94	48961.67
604.09	48917.20
604.25	48699.53
604.40	48488.88
604.56	48575.48
604.71	48905.49
604.87	48968.69
605.03	48432.71
605.18	48521.65
605.34	48573.14
605.49	48428.02
605.65	49233.17
605.80	48404.62
605.96	48809.53
606.12	48278.23
606.27	48795.49
606.43	48406.96
606.58	49013.16
606.74	48589.52
606.89	48584.84
607.05	48924.22
607.20	48552.07
607.36	48741.66
607.51	48701.87
607.67	48535.69
607.82	48460.79
607.98	48411.64
608.13	48619.95
608.29	48460.79
608.44	48648.03
608.60	48315.68
608.75	48486.54
608.91	48589.52
609.06	48287.59
609.22	48893.79
609.37	48271.21
609.53	48451.43
609.68	48685.48
609.84	48535.69
609.99	48559.09
610.15	48582.50
610.30	48811.87
610.46	48570.80
610.61	48315.68
610.76	48549.73
610.92	48208.01
611.07	48161.20
611.23	48273.55
611.38	48303.98
611.54	48252.48
611.69	48325.04
611.84	48809.53
612.00	48229.08
612.15	47966.94
612.31	48566.12
612.46	47686.07
612.62	48041.84
612.77	48308.66
612.92	48495.90
613.08	47997.37
613.23	48044.18
613.39	48009.07
613.54	48004.39
613.69	48203.33
613.85	48034.81
614.00	48100.35
614.15	48027.79
614.31	48074.60
614.46	47798.42
614.62	47789.06
614.77	47828.85
614.92	48215.04
615.08	48086.31
615.23	48203.33
615.38	48023.11
615.54	47861.61
615.69	48074.60
615.84	47826.51
616.00	48144.82
616.15	47875.66
616.30	48226.74
616.46	47573.73
616.61	47775.02
616.76	47842.89
616.92	47739.91
617.07	47908.43
617.22	47641.60
617.37	47835.87
617.53	48044.18
617.68	47789.06
617.83	47674.37
617.99	48065.24
618.14	47742.25
618.29	47688.42
618.45	47241.37
618.60	47391.17
618.75	47150.09
618.90	47473.09
619.06	47044.77
619.21	47746.93
619.36	47887.36
619.51	47445.00
619.67	47292.86
619.82	47646.29
619.97	47730.54
620.12	47337.33
620.28	47526.92
620.43	47494.15
620.58	47517.56
620.73	47632.24
620.89	47578.41
621.04	47505.85
621.19	47154.77
621.34	47461.38
621.49	47194.56
621.65	47241.37
621.80	47835.87
621.95	47421.59
622.10	47725.86
622.25	46869.23
622.41	46918.38
622.56	47269.46
622.71	47428.62
622.86	47217.97
623.01	47033.07
623.16	47138.39
623.32	47222.65
623.47	47372.44
623.62	47437.98
623.77	47210.95
623.92	47049.45
624.07	46997.96
624.23	46923.06
624.38	47288.18
624.53	46630.49
624.68	46450.27
624.83	46419.84
624.98	46873.91
625.13	46789.65
625.29	46476.02
625.44	47033.07
625.59	46906.68
625.74	46541.55
625.89	46824.76
626.04	46651.56
626.19	46731.14
626.34	46529.85
626.49	46417.50
626.65	46129.62
626.80	46230.26
626.95	46073.45
627.10	46202.18
627.25	45818.33
627.40	46553.26
627.55	46471.34
627.70	46361.33
627.85	46225.58
628.00	46146.00
628.15	46501.76
628.30	46113.23
628.45	45830.03
628.60	45956.42
628.76	45696.62
628.91	46045.36
629.06	45989.19
629.21	45851.09
629.36	45806.62
629.51	45792.58
629.66	46548.57
629.81	45815.99
629.96	46241.96
630.11	46260.69
630.26	45970.46
630.41	45872.16
630.56	45918.97
630.71	45785.56
630.86	46110.89
631.01	45745.77
631.16	45495.33
631.31	45705.98
631.46	45525.76
631.61	46267.71
631.76	45818.33
631.91	45500.01
632.06	46263.03
632.21	45977.48
632.36	45947.06
632.51	45331.50
632.66	45776.20
632.81	45146.59
632.96	45565.55
633.10	45375.97
633.25	45244.90
633.40	45532.78
633.55	45511.72
633.70	45563.21
633.85	45109.14
634.00	44905.52
634.15	45315.11
634.30	45235.53
634.45	45422.78
634.60	45270.64
634.75	45516.40
634.90	45170.00
635.05	45450.86
635.19	44903.18
635.34	45158.30
635.49	45027.23
635.64	45263.62
635.79	45041.27
635.94	45242.56
636.09	45284.68
636.24	45408.73
636.39	45329.16
636.53	45380.65
636.68	44928.92
636.83	44566.14
636.98	44306.34
637.13	44563.80
637.28	44306.34
637.43	44495.92
637.57	44912.54
637.72	44774.45
637.87	44793.17
638.02	44847.00
638.17	44556.78
638.32	44430.39
638.46	44671.46
638.61	44486.56
638.76	44341.45
638.91	44692.53
639.06	44161.23
639.20	44079.31
639.35	44100.37
639.50	44034.84
639.65	44186.97
639.80	44589.55
639.94	44409.32
640.09	44245.49
640.24	44615.29
640.39	44512.31
640.54	43859.30
640.68	44327.41
640.83	44430.39
640.98	44533.37
641.13	44018.46
641.27	44301.66
641.42	44259.53
641.57	44411.67
641.72	44402.30
641.86	43702.48
642.01	44009.09
642.16	44065.27
642.31	43658.01
642.45	44137.82
642.60	43709.50
642.75	43583.12
642.90	44184.63
643.04	43812.49
643.19	43711.84
643.34	43407.58
643.48	43517.58
643.63	43831.21
643.78	43697.80
643.93	43533.96
644.07	43775.04
644.22	43576.09
644.37	43452.05
644.51	43606.52
644.66	43239.06
644.81	43463.75
644.95	43253.10
645.10	43557.37
645.25	43178.20
645.39	43569.07
645.54	43510.56
645.69	43283.53
645.83	42930.11
645.98	43557.37
646.13	43250.76
646.27	43014.37
646.42	43250.76
646.57	42890.32
646.71	43899.09
646.86	43152.46
647.00	42995.64
647.15	43260.12
647.30	43302.25
647.44	43360.76
647.59	43234.38
647.74	43086.92
647.88	42883.30
648.03	43206.29
648.17	43398.21
648.32	43070.54
648.47	43281.19
648.61	43171.18
648.76	42855.21
648.90	42719.46
649.05	42686.69
649.20	42827.12
649.34	43133.73
649.49	42384.76
649.63	43138.41
649.78	42796.70
649.92	42920.74
650.07	43012.02
650.21	43145.44
650.36	43309.27
650.51	42801.38
650.65	43079.90
650.80	42717.12
650.94	42679.67
651.09	42869.25
651.23	42218.58
651.38	42176.45
651.52	42202.20
651.67	42359.02
651.81	42361.36
651.96	42459.66
652.10	41867.50
652.25	42351.99
652.39	42305.18
652.54	42103.90
652.68	42396.46
652.83	42082.83
652.97	42597.75
653.12	42031.34
653.26	42108.58
653.41	42127.30
653.55	42300.50
653.70	42253.69
653.84	42167.09
653.99	42302.84
654.13	42047.72
654.27	42234.97
654.42	42234.97
654.56	41691.96
654.71	42480.72
654.85	41940.06
655.00	41930.70
655.14	41841.76
655.29	42504.13
655.43	42047.72
655.57	41471.95
655.72	41818.35
655.86	41603.02
656.01	41710.69
656.15	41205.13
656.30	41385.35
656.44	41813.67
656.58	41336.20
656.73	41771.54
656.87	41315.14
657.01	40975.76
657.16	41443.87
657.30	41816.01
657.45	41378.33
657.59	41331.52
657.73	40966.40
657.88	41099.81
658.02	41455.57
658.16	41448.55
658.31	41240.24
658.45	41450.89
658.60	40732.34
658.74	41415.78
658.88	41294.07
659.03	40917.25
659.17	41256.62
659.31	40872.78
659.46	40631.70
659.60	41092.79
659.74	40708.94
659.89	40465.52
660.03	40013.80
660.17	40573.19
660.32	40168.27
660.46	40643.40
660.60	39889.75
660.74	40313.39
660.89	40397.65
661.03	40053.59
661.17	39945.92
661.32	40065.29
661.46	40399.99
661.60	40055.93
661.74	39966.99
661.89	39892.09
662.03	40109.76
662.17	39515.26
662.31	39856.98
662.46	39983.37
662.60	39847.62
662.74	39501.22
662.88	39473.13
663.03	39351.43
663.17	39189.93
663.31	39461.43
663.45	39494.20
663.60	39660.38
663.74	39505.90
663.88	39505.90
664.02	39255.46
664.17	39477.82
664.31	38981.62
664.45	38642.24
664.59	38845.87
664.73	39122.05
664.88	39173.55
665.02	38876.30
665.16	38511.17
665.30	38756.93
665.44	38820.13
665.59	38281.80
665.73	38979.28
665.87	38305.21
666.01	38391.81
666.15	38597.77
666.29	38639.90
666.44	38749.91
666.58	38267.76
666.72	37904.98
666.86	38050.09
667.00	38267.76
667.14	37933.06
667.28	38073.49
667.43	37963.49
667.57	38232.65
667.71	38057.11
667.85	38045.41
667.99	37479.00
668.13	37462.61
668.27	37153.66
668.41	37827.74
668.56	36680.88
668.70	37280.05
668.84	36985.15
668.98	37123.24
669.12	37221.54
669.26	37226.22
669.40	37390.06
669.54	37221.54
669.68	37439.21
669.82	37432.19
669.96	36779.18
670.10	36748.75
670.25	36704.28
670.39	36657.47
670.53	36683.22
670.67	36594.28
670.81	36879.82
670.95	36793.22
671.09	36156.60
671.23	35990.42
671.37	36472.57
671.51	36299.37
671.65	36285.33
671.79	36105.10
671.93	36381.29
672.07	36175.32
672.21	35674.45
672.35	35601.89
672.49	35613.59
672.63	35426.35
672.77	35578.48
672.91	35735.30
673.05	35522.31
673.19	35180.59
673.33	35037.82
673.47	35246.13
673.61	34983.99
673.75	34855.26
673.89	34829.51
674.03	34778.02
674.17	34375.45
674.31	34415.24
674.45	34478.43
674.59	34295.87
674.73	34405.88
674.87	34548.65
675.01	34202.25
675.15	33897.98
675.29	33689.67
675.43	33888.62
675.56	33591.37
675.70	33802.02
675.84	33446.26
675.98	32449.19
676.12	33900.32
676.26	33780.95
676.40	33280.08
676.54	33006.23
676.68	33151.35
676.82	32849.42
676.96	33003.89
677.10	32769.84
677.23	32790.91
677.37	32425.78
677.51	32718.35
677.65	32395.35
677.79	32636.43
677.93	32404.72
678.07	31983.42
678.21	32435.14
678.34	32217.47
678.48	31798.52
678.62	31779.79
678.76	31896.82
678.90	32016.19
679.04	31292.96
679.18	31599.57
679.31	31049.55
679.45	31051.89
679.59	31168.91
679.73	30834.22
679.87	31037.84
680.00	30909.11
680.14	31070.61
680.28	30817.83
680.42	30749.96
680.56	30232.70
680.70	30436.33
680.83	30206.95
680.97	30181.21
681.11	29996.31
681.25	29928.43
681.39	29802.04
681.52	30024.39
681.66	29619.48
681.80	29237.97
681.94	29174.78
682.07	29268.40
682.21	29205.20
682.35	28547.51
682.49	29146.69
682.62	28638.80
682.76	29172.44
682.90	28741.78
683.04	28610.71
683.17	28917.32
683.31	28257.29
683.45	28449.21
683.59	28208.14
683.72	28266.65
683.86	28334.53
684.00	27821.95
684.13	28173.03
684.27	27821.95
684.41	27917.91
684.55	27910.89
684.68	27730.67
684.82	27330.44
684.96	27419.38
685.09	27094.04
685.23	27323.41
685.37	27711.94
685.50	27180.64
685.64	27147.87
685.78	26703.17
685.91	26469.12
686.05	26387.20
686.19	26120.38
686.32	26417.63
686.46	25811.43
686.60	25818.45
686.73	26230.38
686.87	25804.41
687.01	26244.43
687.14	25991.65
687.28	25949.52
687.42	25855.90
687.55	25671.00
687.69	25352.68
687.82	25408.86
687.96	24875.21
688.10	25392.47
688.23	25338.64
688.37	25333.96
688.50	25582.06
688.64	24723.08
688.78	24854.15
688.91	24751.17
689.05	24692.65
689.18	24467.96
689.32	24133.26
689.46	23992.83
689.59	24091.13
689.73	24067.73
689.86	24119.22
690.00	24287.74
690.13	23988.15
690.27	23630.05
690.41	23475.57
690.54	23150.24
690.68	23463.87
690.81	23297.69
690.95	23026.19
691.08	23077.68
691.22	22986.40
691.35	22939.59
691.49	23236.84
691.62	22960.66
691.76	22530.00
691.89	22436.38
692.03	22279.56
692.16	22047.85
692.30	21958.91
692.43	21970.61
692.57	21928.48
692.70	22099.34
692.84	21724.85
692.97	21546.97
693.11	21792.73
693.24	21413.56
693.38	20915.03
693.51	21123.33
693.65	21619.53
693.78	21212.28
693.92	20999.29
694.05	21231.00
694.19	20711.40
694.32	21123.33
694.45	21212.28
694.59	20819.07
694.72	20919.71
694.86	20678.63
694.99	20402.45
695.13	20086.48
695.26	19861.79
695.39	19960.09
695.53	20130.95
695.66	19948.39
695.80	19491.98
695.93	19613.69
696.07	19599.65
696.20	19126.86
696.33	19213.46
696.47	19204.10
696.60	19356.23
696.73	19353.89
696.87	19477.94
697.00	19021.53
697.14	19115.16
697.27	18752.37
697.40	18834.29
697.54	18630.66
697.67	18558.11
697.80	18625.98
697.94	18466.83
698.07	18405.97
698.21	18340.44
698.34	18200.01
698.47	18012.76
698.61	17722.54
698.74	17839.56
698.87	17930.84
699.01	17406.56
699.14	17879.35
699.27	17823.18
699.40	17722.54
699.54	17572.74
699.67	17444.01
699.80	17549.34
699.94	17268.47
700.07	17373.80
700.20	17235.70
700.34	16690.36
700.47	16961.86
700.60	17130.38
700.73	17003.99
700.87	16517.16
701.00	16278.43
701.13	16666.95
701.26	16613.12
701.40	16203.53
701.53	16608.44
701.66	15934.37
701.79	16170.76
701.93	15735.42
702.06	15716.70
702.19	15590.31
702.32	15826.70
702.46	15868.83
702.59	15796.28
702.72	15995.22
702.85	15407.75
702.99	15775.21
703.12	15222.84
703.25	15192.42
703.38	15339.87
703.51	14918.57
703.65	15143.27
703.78	14841.34
703.91	14869.42
704.04	14881.13
704.17	14815.59
704.31	14480.89
704.44	14586.22
704.57	14424.72
704.70	14466.85
704.83	14281.95
704.96	14228.12
705.10	14225.78
705.23	14111.09
>>>>>End Processed Spectral Data<<<<<
