SpectraSuite Data File
++++++++++++++++++++++++++++++++++++
Date: Fri Oct 25 10:47:54 EDT 2013
User: price-jones
Dark Spectrum Present: No
Reference Spectrum Present: No
Number of Sampled Component Spectra: 1
Spectrometers: USB2+H05261
Integration Time (usec): 100000 (USB2+H05261)
Spectra Averaged: 1 (USB2+H05261)
Boxcar Smoothing: 0 (USB2+H05261)
Correct for Electrical Dark: No (USB2+H05261)
Strobe/Lamp Enabled: No (USB2+H05261)
Correct for Detector Non-linearity: No (USB2+H05261)
Correct for Stray Light: No (USB2+H05261)
Number of Pixels in Processed Spectrum: 2048
>>>>>Begin Processed Spectral Data<<<<<
365.73	166.18
365.92	166.18
366.12	166.18
366.32	84.26
366.52	32.77
366.72	28.09
366.91	0.00
367.11	21.06
367.31	4.68
367.51	28.09
367.70	39.79
367.90	72.56
368.10	0.00
368.30	65.54
368.49	74.90
368.69	88.94
368.89	58.51
369.09	35.11
369.28	79.58
369.48	46.81
369.68	60.85
369.87	133.41
370.07	102.98
370.27	98.30
370.47	257.46
370.66	376.83
370.86	510.24
371.06	475.13
371.25	493.85
371.45	409.59
371.65	519.60
371.84	423.64
372.04	440.02
372.24	454.06
372.44	383.85
372.63	477.47
372.83	461.09
373.03	454.06
373.22	489.17
373.42	503.22
373.62	533.64
373.81	493.85
374.01	571.09
374.21	533.64
374.40	510.24
374.60	578.11
374.79	540.66
374.99	573.43
375.19	571.09
375.38	575.77
375.58	596.84
375.78	533.64
375.97	575.77
376.17	636.63
376.37	603.86
376.56	531.30
376.76	526.62
376.95	564.07
377.15	596.84
377.35	671.73
377.54	657.69
377.74	606.20
377.93	615.56
378.13	617.90
378.33	580.45
378.52	610.88
378.72	617.90
378.91	662.37
379.11	603.86
379.31	533.64
379.50	641.31
379.70	660.03
379.89	730.25
380.09	716.20
380.28	685.78
380.48	578.11
380.68	650.67
380.87	660.03
381.07	645.99
381.26	732.59
381.46	599.18
381.65	695.14
381.85	697.48
382.04	631.94
382.24	685.78
382.43	678.76
382.63	648.33
382.83	720.88
383.02	650.67
383.22	755.99
383.41	720.88
383.61	727.91
383.80	828.55
384.00	709.18
384.19	594.50
384.39	730.25
384.58	748.97
384.78	765.36
384.97	772.38
385.17	763.01
385.36	746.63
385.56	723.23
385.75	713.86
385.95	791.10
386.14	800.46
386.34	800.46
386.53	856.64
386.72	786.42
386.92	807.48
387.11	753.65
387.31	856.64
387.50	786.42
387.70	833.23
387.89	837.91
388.09	915.15
388.28	894.08
388.48	830.89
388.67	866.00
388.86	894.08
389.06	828.55
389.25	861.32
389.45	854.30
389.64	910.47
389.84	894.08
390.03	924.51
390.22	919.83
390.42	968.98
390.61	901.11
390.81	1001.75
391.00	978.34
391.19	976.00
391.39	898.77
391.58	980.68
391.78	947.92
391.97	926.85
392.16	880.04
392.36	987.71
392.55	947.92
392.75	976.00
392.94	929.19
393.13	938.55
393.33	880.04
393.52	1013.45
393.71	1013.45
393.91	957.28
394.10	1034.52
394.29	1078.99
394.49	987.71
394.68	1064.94
394.88	1086.01
395.07	1078.99
395.26	1078.99
395.46	1125.80
395.65	1163.25
395.84	1144.52
396.04	1163.25
396.23	1200.69
396.42	1064.94
396.62	1090.69
396.81	1074.31
397.00	1156.22
397.19	1132.82
397.39	1156.22
397.58	1203.04
397.77	1233.46
397.97	1296.66
398.16	1266.23
398.35	1203.04
398.55	1287.29
398.74	1301.34
398.93	1387.94
399.12	1228.78
399.32	1280.27
399.51	1268.57
399.70	1380.92
399.90	1359.85
400.09	1327.08
400.28	1465.18
400.47	1432.41
400.67	1483.90
400.86	1502.62
401.05	1418.36
401.24	1528.37
401.44	1472.20
401.63	1565.82
401.82	1394.96
402.01	1490.92
402.21	1488.58
402.40	1537.73
402.59	1479.22
402.78	1575.18
402.97	1514.33
403.17	1554.12
403.36	1514.33
403.55	1610.29
403.74	1699.23
403.93	1629.01
404.13	1582.20
404.32	1617.31
404.51	1661.78
404.70	1577.52
404.89	1706.25
405.09	1673.48
405.28	1788.17
405.47	1776.47
405.66	1717.95
405.85	1720.29
406.05	1771.79
406.24	1783.49
406.43	1717.95
406.62	1764.76
406.81	1900.52
407.00	1837.32
407.20	1823.28
407.39	1736.68
407.58	1902.86
407.77	1928.60
407.96	1930.94
408.15	1982.43
408.34	1994.14
408.54	1994.14
408.73	1959.03
408.92	1905.20
409.11	2059.67
409.30	2106.48
409.49	1989.46
409.68	2036.27
409.87	2092.44
410.07	2036.27
410.26	2059.67
410.45	2129.89
410.64	2066.69
410.83	2275.00
411.02	2319.47
411.21	2228.19
411.40	2235.21
411.59	2204.78
411.78	2370.96
411.98	2305.43
412.17	2429.48
412.36	2354.58
412.55	2499.69
412.74	2410.75
412.93	2286.70
413.12	2338.20
413.31	2541.82
413.50	2448.20
413.69	2452.88
413.88	2670.55
414.07	2630.76
414.26	2619.06
414.45	2534.80
414.64	2607.36
414.83	2675.23
415.02	2717.36
415.22	2780.56
415.41	2780.56
415.60	2696.30
415.79	2792.26
415.98	2897.58
416.17	2759.49
416.36	2839.07
416.55	2932.69
416.74	2963.12
416.93	2820.35
417.12	2991.20
417.31	3035.67
417.50	2965.46
417.69	3075.46
417.88	3091.85
418.07	3030.99
418.26	3068.44
418.45	3141.00
418.64	3211.22
418.83	3171.43
419.02	3103.55
419.21	3234.62
419.39	3176.11
419.58	3204.19
419.77	3267.39
419.96	3267.39
420.15	3323.56
420.34	3255.69
420.53	3300.16
420.72	3445.27
420.91	3463.99
421.10	3435.91
421.29	3480.38
421.48	3361.01
421.67	3543.57
421.86	3386.76
422.05	3421.86
422.24	3452.29
422.43	3473.36
422.61	3529.53
422.80	3463.99
422.99	3552.93
423.18	3482.72
423.37	3510.80
423.56	3557.61
423.75	3538.89
423.94	3541.23
424.13	3365.69
424.32	3342.28
424.50	3655.92
424.69	3492.08
424.88	3583.36
425.07	3602.08
425.26	3410.16
425.45	3456.97
425.64	3576.34
425.83	3588.04
426.01	3531.87
426.20	3550.59
426.39	3552.93
426.58	3595.06
426.77	3569.32
426.96	3475.70
427.15	3616.13
427.33	3634.85
427.52	3705.07
427.71	3735.50
427.90	3684.00
428.09	3705.07
428.28	3815.07
428.46	3805.71
428.65	3873.59
428.84	3887.63
429.03	3779.97
429.22	3794.01
429.40	3866.56
429.59	3779.97
429.78	3700.39
429.97	3688.68
430.16	3740.18
430.34	3576.34
430.53	3831.46
430.72	3770.60
430.91	3908.69
431.10	4037.42
431.28	3974.23
431.47	4201.26
431.66	4109.98
431.85	4079.55
432.03	4093.60
432.22	4077.21
432.41	4067.85
432.60	4114.66
432.79	4238.71
432.97	4229.35
433.16	4259.78
433.35	4128.70
433.54	4287.86
433.72	4142.75
433.91	4194.24
434.10	4325.31
434.28	4348.72
434.47	4329.99
434.66	4423.61
434.85	4423.61
435.03	4491.49
435.22	4437.66
435.41	4559.36
435.59	4519.57
435.78	4601.49
435.97	4620.22
436.16	4720.86
436.34	4594.47
436.53	4645.96
436.72	4580.43
436.90	4528.94
437.09	4671.71
437.28	4622.56
437.46	4564.04
437.65	4660.01
437.84	4842.57
438.02	4547.66
438.21	4645.96
438.40	4770.01
438.58	4833.21
438.77	5011.09
438.96	4912.78
439.14	5163.22
439.33	5018.11
439.52	4901.08
439.70	5088.32
439.89	5114.07
440.08	5179.61
440.26	5160.88
440.45	5060.24
440.63	5303.65
440.82	5455.79
441.01	5320.04
441.19	5373.87
441.38	5373.87
441.57	5481.53
441.75	5486.22
441.94	5558.77
442.12	5549.41
442.31	5713.25
442.50	5652.39
442.68	5598.56
442.87	5624.31
443.05	5633.67
443.24	5839.64
443.43	5799.85
443.61	5790.49
443.80	5792.83
443.98	5710.91
444.17	5600.90
444.35	5680.48
444.54	5881.77
444.73	5692.18
444.91	5928.58
445.10	5806.87
445.28	5811.55
445.47	5743.67
445.65	5825.59
445.84	5820.91
446.02	5783.46
446.21	5895.81
446.39	5926.24
446.58	6054.97
446.77	5940.28
446.95	5781.12
447.14	6033.90
447.32	6012.84
447.51	5893.47
447.69	6066.67
447.88	5947.30
448.06	6085.39
448.25	5940.28
448.43	6040.92
448.62	5898.15
448.80	5947.30
448.99	6193.06
449.17	6101.78
449.36	6019.86
449.54	6270.30
449.73	6211.78
449.91	6335.83
450.10	6342.85
450.28	6331.15
450.46	6464.56
450.65	6520.73
450.83	6602.65
451.02	6424.77
451.20	6455.20
451.39	6445.84
451.57	6377.96
451.76	6438.81
451.94	6401.37
452.13	6745.42
452.31	6640.10
452.49	6504.35
452.68	6511.37
452.86	6485.62
453.05	6712.66
453.23	6586.27
453.42	6541.80
453.60	6455.20
453.78	6661.16
453.97	6548.82
454.15	6480.94
454.34	6518.39
454.52	6672.87
454.70	6684.57
454.89	6881.18
455.07	6738.40
455.26	6808.62
455.44	6899.90
455.62	6963.09
455.81	7019.27
455.99	7148.00
456.17	6902.24
456.36	7115.23
456.54	7084.80
456.73	7087.14
456.91	7201.83
457.09	7272.04
457.28	7426.52
457.46	7265.02
457.64	7377.37
457.83	7283.75
458.01	7346.94
458.19	7342.26
458.38	7215.87
458.56	7262.68
458.74	7499.08
458.93	7508.44
459.11	7438.22
459.29	7475.67
459.48	7447.58
459.66	7499.08
459.84	7634.83
460.03	7705.04
460.21	7452.27
460.39	7623.12
460.57	7653.55
460.76	7749.51
460.94	7758.88
461.12	7644.19
461.31	7801.01
461.49	7702.70
461.67	7751.85
461.85	7922.71
462.04	7920.37
462.22	8365.07
462.40	7962.50
462.59	8021.02
462.77	7882.92
462.95	7957.82
463.13	7971.86
463.32	8133.36
463.50	7985.91
463.68	8250.39
463.86	8009.31
464.05	8039.74
464.23	8025.70
464.41	8175.49
464.59	8067.83
464.78	8222.30
464.96	8231.66
465.14	8189.53
465.32	8142.72
465.50	8231.66
465.69	8285.50
465.87	8334.65
466.05	8395.50
466.23	8432.95
466.41	8554.66
466.60	8610.83
466.78	8374.44
466.96	8360.39
467.14	8290.18
467.32	8599.13
467.51	8575.72
467.69	8341.67
467.87	8484.44
468.05	8706.79
468.23	8561.68
468.41	8482.10
468.60	8493.80
468.78	8620.19
468.96	8496.14
469.14	8947.87
469.32	8994.68
469.50	8760.63
469.69	8727.86
469.87	8732.54
470.05	8777.01
470.23	8982.98
470.41	8695.09
470.59	9060.21
470.77	8943.19
470.95	8936.17
471.14	9186.60
471.32	9055.53
471.50	9298.95
471.68	9275.54
471.86	9284.91
472.04	9282.56
472.22	9638.33
472.40	9153.84
472.58	9191.28
472.77	9298.95
472.95	9558.75
473.13	9851.31
473.31	9521.30
473.49	9605.56
473.67	9530.66
473.85	9769.40
474.03	9895.78
474.21	9951.96
474.39	10010.47
474.57	10078.35
474.75	10157.92
474.93	10029.20
475.12	9996.43
475.30	10335.81
475.48	10181.33
475.66	10361.55
475.84	10092.39
476.02	10464.54
476.20	10214.10
476.38	10677.52
476.56	10607.31
476.74	10684.55
476.92	10614.33
477.10	10850.72
477.28	10974.77
477.46	10883.49
477.64	10974.77
477.82	11201.80
478.00	11316.49
478.18	11454.58
478.36	11171.38
478.54	11447.56
478.72	11482.67
478.90	11686.29
479.08	11669.91
479.26	11845.45
479.44	11852.47
479.62	11995.25
479.80	12161.42
479.98	11995.25
480.16	12521.87
480.34	12542.93
480.52	12568.68
480.70	12545.27
480.88	12306.54
481.06	12395.48
481.24	12365.05
481.41	12886.99
481.59	12905.71
481.77	12856.56
481.95	13095.30
482.13	13095.30
482.31	13256.79
482.49	13319.99
482.67	13626.60
482.85	13752.99
483.03	13984.70
483.21	13886.40
483.39	13748.31
483.57	13848.95
483.74	14216.41
483.92	14202.37
484.10	14083.00
484.28	14293.65
484.46	14988.79
484.64	14881.13
484.82	14677.50
485.00	14923.26
485.18	15349.23
485.35	15075.39
485.53	15026.24
485.71	15101.14
485.89	15548.18
486.07	15344.55
486.25	15510.73
486.43	15403.07
486.61	15728.40
486.78	15660.52
486.96	16046.71
487.14	16182.46
487.32	16350.98
487.50	16271.40
487.68	16636.53
487.85	16587.38
488.03	16741.85
488.21	17303.58
488.39	17057.82
488.57	17291.88
488.75	17448.69
488.92	17462.74
489.10	17607.85
489.28	17530.61
489.46	17886.37
489.64	17671.04
489.81	18445.76
489.99	18331.08
490.17	18422.36
490.35	18853.02
490.53	18633.00
490.70	18607.26
490.88	18977.06
491.06	19262.61
491.24	18864.72
491.41	19122.18
491.59	19253.25
491.77	19293.04
491.95	19644.12
492.13	19665.18
492.30	19723.69
492.48	20063.07
492.66	20093.50
492.84	20072.43
493.01	20336.91
493.19	20053.71
493.37	20505.43
493.54	20706.72
493.72	20856.51
493.90	20936.09
494.08	20680.97
494.25	21167.80
494.43	21336.32
494.61	21191.21
494.79	21296.53
494.96	21546.97
495.14	21743.58
495.32	21656.98
495.49	21666.34
495.67	21972.95
495.85	22345.09
496.02	22099.34
496.20	22125.08
496.38	22600.21
496.55	22576.81
496.73	22677.45
496.91	22750.01
497.09	22761.71
497.26	22808.52
497.44	22916.19
497.62	22955.97
497.79	23260.24
497.97	23204.07
498.14	23442.81
498.32	23676.86
498.50	23498.98
498.67	23545.79
498.85	23789.20
499.03	24119.22
499.20	24123.90
499.38	24292.42
499.56	24208.16
499.73	24346.25
499.91	24521.79
500.08	24704.35
500.26	24521.79
500.44	24643.50
500.61	24769.89
500.79	24774.57
500.97	24816.70
501.14	25539.93
501.32	25254.38
501.49	25191.19
501.67	25467.37
501.84	25390.13
502.02	25488.43
502.20	25752.91
502.37	25612.48
502.55	26096.97
502.72	25469.71
502.90	25577.37
503.07	25881.64
503.25	26284.22
503.43	25729.51
503.60	25972.92
503.78	26169.53
503.95	26412.95
504.13	26335.71
504.30	26389.54
504.48	26625.93
504.65	27042.55
504.83	26946.59
505.01	26759.34
505.18	26572.10
505.36	27159.58
505.53	27117.45
505.71	27414.69
505.88	27365.54
506.06	26991.06
506.23	27592.58
506.41	27285.97
506.58	27676.83
506.76	27569.17
506.93	27749.39
507.11	27681.52
507.28	27887.48
507.46	27679.18
507.63	27819.61
507.81	28100.47
507.98	28133.24
508.16	28011.53
508.33	28301.76
508.50	28484.32
508.68	28664.54
508.85	29158.39
509.03	28849.44
509.20	28730.08
509.38	28814.34
509.55	29048.39
509.73	29106.90
509.90	28975.83
510.08	29020.30
510.25	29062.43
510.42	29563.31
510.60	29612.46
510.77	29441.60
510.95	29935.45
511.12	29453.30
511.30	29802.04
511.47	30099.29
511.64	29881.62
511.82	30064.18
511.99	29809.06
512.17	30354.41
512.34	30314.62
512.51	30279.51
512.69	30551.01
512.86	30541.65
513.04	30473.78
513.21	31054.23
513.38	30363.77
513.56	30780.39
513.73	30679.74
513.90	31061.25
514.08	30881.03
514.25	30902.09
514.43	31063.59
514.60	31192.32
514.77	31075.29
514.95	31599.57
515.12	31101.04
515.29	31028.48
515.47	31494.25
515.64	31660.43
515.81	31648.72
515.99	31592.55
516.16	31885.12
516.33	31580.85
516.51	31915.54
516.68	31702.56
516.85	31356.16
517.03	32006.83
517.20	31821.92
517.37	31964.70
517.54	32133.21
517.72	32364.93
517.89	31922.57
518.06	32002.14
518.24	32046.62
518.41	32203.43
518.58	32400.04
518.75	32304.07
518.93	32254.92
519.10	32664.52
519.27	32868.14
519.45	32641.11
519.62	32811.97
519.79	32933.68
519.96	33195.82
520.14	33404.13
520.31	33254.33
520.48	33130.28
520.65	33322.21
520.83	33806.70
521.00	33607.75
521.17	33701.37
521.34	33647.54
521.52	33699.03
521.69	34157.78
521.86	33785.63
522.03	33919.04
522.20	34167.14
522.38	34415.24
522.55	34256.08
522.72	34174.16
522.89	34487.79
523.07	34499.50
523.24	33853.51
523.41	34679.72
523.58	34581.42
523.75	34726.53
523.92	34471.41
524.10	34700.78
524.27	35232.08
524.44	34857.60
524.61	35023.78
524.78	34876.32
524.96	35388.90
525.13	35484.86
525.30	35606.57
525.47	35459.12
525.64	35608.91
525.81	35292.94
525.98	35295.28
526.16	35377.20
526.33	35314.00
526.50	35512.95
526.67	35129.10
526.84	35831.26
527.01	35468.48
527.18	35419.33
527.36	35971.69
527.53	35861.69
527.70	36488.95
527.87	36130.85
528.04	36414.05
528.21	36051.27
528.38	35964.67
528.55	36158.94
528.72	36407.03
528.89	36591.94
529.07	36325.11
529.24	35988.08
529.41	36643.43
529.58	36142.55
529.75	36474.91
529.92	36713.64
530.09	36687.90
530.26	36643.43
530.43	36814.29
530.60	36697.26
530.77	36622.36
530.94	37170.05
531.11	37198.13
531.28	37172.39
531.46	37064.72
531.63	37060.04
531.80	37160.69
531.97	37769.22
532.14	37228.56
532.31	36985.15
532.48	37139.62
532.65	37371.33
532.82	37497.72
532.99	37535.17
533.16	37881.57
533.33	37759.86
533.50	37907.32
533.67	37689.65
533.84	37696.67
534.01	37556.24
534.18	37205.16
534.35	37872.21
534.52	37769.22
534.69	37940.08
534.86	38237.33
535.03	37965.83
535.20	38279.46
535.37	38581.39
535.54	38670.33
535.71	38036.05
535.88	38272.44
536.05	38157.75
536.22	38337.98
536.38	38267.76
536.55	38724.16
536.72	38494.79
536.89	38391.81
537.06	38565.01
537.23	38609.48
537.40	38939.49
537.57	38670.33
537.74	38782.68
537.91	39580.80
538.08	38885.66
538.25	38614.16
538.42	38754.59
538.59	39173.55
538.75	38890.34
538.92	38838.85
539.09	39030.77
539.26	39009.71
539.43	39019.07
539.60	38857.57
539.77	39068.22
539.94	39295.25
540.11	39477.82
540.28	39452.07
540.44	39281.21
540.61	39416.96
540.78	39138.44
540.95	39585.48
541.12	39136.10
541.29	40102.74
541.46	39447.39
541.62	39597.18
541.79	39828.90
541.96	39592.50
542.13	39962.31
542.30	39777.40
542.47	40201.04
542.63	39838.26
542.80	40332.11
542.97	40304.02
543.14	40931.29
543.31	40566.16
543.48	40617.66
543.64	40893.84
543.81	40589.57
543.98	40573.19
544.15	40587.23
544.32	41048.32
544.48	41015.55
544.65	40811.92
544.82	40701.92
544.99	40301.68
545.16	40081.67
545.32	40460.84
545.49	40671.49
545.66	40715.96
545.83	41151.30
546.00	41401.74
546.16	41366.63
546.33	41170.02
546.50	41001.50
546.67	41195.77
546.83	40657.45
547.00	41193.43
547.17	40980.44
547.34	41083.42
547.50	41450.89
547.67	41481.31
547.84	41289.39
548.00	41696.64
548.17	41759.84
548.34	41148.96
548.51	41883.89
548.67	41617.07
548.84	42021.98
549.01	41687.28
549.18	41511.74
549.34	41677.92
549.51	41834.74
549.68	41949.42
549.84	42190.50
550.01	41830.05
550.18	41748.14
550.34	41844.10
550.51	41792.61
550.68	41860.48
550.84	41635.79
551.01	41825.37
551.18	41916.65
551.34	42064.11
551.51	42078.15
551.68	42176.45
551.84	42504.13
552.01	42110.92
552.18	42260.71
552.34	41989.21
552.51	42602.43
552.68	42579.03
552.84	42562.64
553.01	43021.39
553.18	42541.58
553.34	42534.56
553.51	42440.93
553.67	42684.35
553.84	42937.13
554.01	42815.42
554.17	42618.81
554.34	42953.51
554.51	42684.35
554.67	42586.05
554.84	42712.44
555.00	42752.23
555.17	42609.45
555.33	43054.15
555.50	43054.15
555.67	43264.80
555.83	42962.87
556.00	42649.24
556.16	43295.23
556.33	43166.50
556.50	42808.40
556.66	43227.35
556.83	43119.69
556.99	42810.74
557.16	43311.61
557.32	43243.74
557.49	43236.72
557.65	42403.49
557.82	43103.31
557.98	42983.94
558.15	43131.39
558.32	43107.99
558.48	43463.75
558.65	43328.00
558.81	43061.18
558.98	43248.42
559.14	43185.22
559.31	43292.89
559.47	42562.64
559.64	43454.39
559.80	43761.00
559.97	43548.01
560.13	43384.17
560.30	43587.80
560.46	43384.17
560.63	43559.71
560.79	43962.28
560.96	43988.03
561.12	43555.03
561.29	43728.23
561.45	43636.95
561.61	43798.44
561.78	43817.17
561.94	43328.00
562.11	43871.00
562.27	43290.55
562.44	43723.55
562.60	43826.53
562.77	43873.34
562.93	43723.55
563.10	44189.31
563.26	43395.87
563.42	43957.60
563.59	43833.55
563.75	43641.63
563.92	43728.23
564.08	43819.51
564.24	43803.13
564.41	44252.51
564.57	44217.40
564.74	43863.98
564.90	43768.02
565.07	44172.93
565.23	44048.88
565.39	43861.64
565.56	44514.65
565.72	43845.26
565.88	44053.56
566.05	44004.41
566.21	43782.06
566.38	43765.68
566.54	44231.44
566.70	44210.38
566.87	44481.88
567.03	44287.62
567.19	44470.18
567.36	44526.35
567.52	43863.98
567.68	44418.69
567.85	44144.84
568.01	44254.85
568.17	43943.56
568.34	44062.93
568.50	44004.41
568.66	44294.64
568.83	44332.09
568.99	44203.36
569.15	44467.84
569.32	44018.46
569.48	44191.65
569.64	44891.48
569.81	44222.08
569.97	44076.97
570.13	44542.74
570.30	44261.87
570.46	44135.48
570.62	44236.12
570.78	44102.71
570.95	44229.10
571.11	44137.82
571.27	43915.47
571.43	44460.82
571.60	44854.03
571.76	44818.92
571.92	44294.64
572.09	44411.67
572.25	44041.86
572.41	43945.90
572.57	44589.55
572.74	44711.25
572.90	44481.88
573.06	44301.66
573.22	44414.01
573.38	44598.91
573.55	44313.36
573.71	44732.32
573.87	44493.58
574.03	44463.16
574.20	44526.35
574.36	44287.62
574.52	44687.85
574.68	44390.60
574.84	44575.50
575.01	44362.51
575.17	44151.87
575.33	44247.83
575.49	44516.99
575.65	44772.11
575.82	44491.24
575.98	44868.07
576.14	45001.48
576.30	44526.35
576.46	44158.89
576.62	44659.76
576.79	44168.25
576.95	44374.22
577.11	44802.53
577.27	44706.57
577.43	44634.02
577.59	44348.47
577.75	44638.70
577.92	44051.22
578.08	44411.67
578.24	44411.67
578.40	44458.48
578.56	44687.85
578.72	44383.58
578.88	44814.24
579.04	44795.51
579.21	44350.81
579.37	44428.05
579.53	44587.21
579.69	44364.85
579.85	44072.29
580.01	45097.44
580.17	44495.92
580.33	44837.64
580.49	44870.41
580.65	44584.86
580.82	44481.88
580.98	44430.39
581.14	44591.89
581.30	44987.44
581.46	44271.23
581.62	44683.17
581.78	44610.61
581.94	44868.07
582.10	44561.46
582.26	45174.68
582.42	44966.37
582.58	44854.03
582.74	44942.97
582.90	44856.37
583.06	44823.60
583.22	44687.85
583.38	44732.32
583.54	44807.22
583.70	44959.35
583.86	44725.30
584.02	44376.56
584.18	44634.02
584.34	44802.53
584.50	44811.90
584.66	44758.06
584.82	44430.39
584.98	45003.82
585.14	44549.76
585.30	44676.15
585.46	44718.28
585.62	44535.71
585.78	44722.96
585.94	44156.55
586.10	44360.17
586.26	44477.20
586.42	44765.09
586.58	44713.59
586.74	44863.39
586.90	44598.91
587.06	44636.36
587.22	44722.96
587.38	44556.78
587.54	45024.89
587.70	44863.39
587.86	44935.95
588.02	45081.06
588.18	44781.47
588.34	44800.19
588.49	44486.56
588.65	44350.81
588.81	44287.62
588.97	44704.23
589.13	44378.90
589.29	44900.84
589.45	44982.76
589.61	44900.84
589.77	45485.97
589.93	45228.51
590.08	45151.27
590.24	44687.85
590.40	45139.57
590.56	45020.20
590.72	45488.31
590.88	44886.79
591.04	44900.84
591.20	45361.92
591.35	45118.51
591.51	45521.08
591.67	45247.24
591.83	45029.57
591.99	45071.70
592.15	44566.14
592.31	44797.85
592.46	44861.05
592.62	45055.31
592.78	45198.09
592.94	45120.85
593.10	44978.07
593.26	45549.17
593.41	45195.74
593.57	44898.50
593.73	44215.06
593.89	44891.48
594.05	45027.23
594.20	44884.45
594.36	45270.64
594.52	44903.18
594.68	44898.50
594.84	45179.36
594.99	45052.97
595.15	44989.78
595.31	45134.89
595.47	45195.74
595.62	44507.63
595.78	45296.39
595.94	45315.11
596.10	45340.86
596.25	45469.59
596.41	45359.58
596.57	44783.81
596.73	45385.33
596.88	45427.46
597.04	45116.17
597.20	45191.06
597.36	44959.35
597.51	45687.26
597.67	45006.16
597.83	45525.76
597.99	45497.67
598.14	45382.99
598.30	45523.42
598.46	44858.71
598.61	45188.72
598.77	45045.95
598.93	44917.22
599.09	44987.44
599.24	45385.33
599.40	45394.69
599.56	45483.63
599.71	45071.70
599.87	45151.27
600.03	45324.47
600.18	45359.58
600.34	45067.02
600.50	45165.32
600.65	44992.12
600.81	45265.96
600.97	45497.67
601.12	45677.90
601.28	45703.64
601.44	45038.93
601.59	45214.47
601.75	44886.79
601.91	44947.65
602.06	44987.44
602.22	45205.11
602.37	45352.56
602.53	45287.03
602.69	45546.82
602.84	45059.99
603.00	45125.53
603.16	45120.85
603.31	44891.48
603.47	44762.75
603.62	44718.28
603.78	45265.96
603.94	45296.39
604.09	45364.26
604.25	45340.86
604.40	45116.17
604.56	45275.32
604.71	44832.96
604.87	45008.50
605.03	45256.60
605.18	45118.51
605.34	45235.53
605.49	44854.03
605.65	44641.04
605.80	45216.81
605.96	44968.71
606.12	45294.05
606.27	45090.42
606.43	45015.52
606.58	45265.96
606.74	44577.84
606.89	44966.37
607.05	45071.70
607.20	45202.77
607.36	45216.81
607.51	45174.68
607.67	45055.31
607.82	45184.04
607.98	45420.44
608.13	44877.43
608.29	44697.21
608.44	44425.71
608.60	44751.04
608.75	44395.28
608.91	44690.19
609.06	44811.90
609.22	45076.38
609.37	44451.45
609.53	44694.87
609.68	44816.58
609.84	44884.45
609.99	44500.61
610.15	44596.57
610.30	44362.51
610.46	44318.04
610.61	44346.13
610.76	44999.14
610.92	44313.36
611.07	44495.92
611.23	44542.74
611.38	44622.31
611.54	44364.85
611.69	44697.21
611.84	44259.53
612.00	44505.29
612.15	44409.32
612.31	44477.20
612.46	44301.66
612.62	44912.54
612.77	44294.64
612.92	44512.31
613.08	44451.45
613.23	44837.64
613.39	44163.57
613.54	44690.19
613.69	43749.29
613.85	44116.76
614.00	44917.22
614.15	44545.08
614.31	44177.61
614.46	44596.57
614.62	44369.54
614.77	44018.46
614.92	43971.64
615.08	44100.37
615.23	43929.51
615.38	43917.81
615.54	43470.77
615.69	43990.37
615.84	44163.57
616.00	43655.67
616.15	43992.71
616.30	44257.19
616.46	44002.07
616.61	43206.29
616.76	43981.01
616.92	43639.29
617.07	43098.62
617.22	43124.37
617.37	43402.89
617.53	44158.89
617.68	44186.97
617.83	43943.56
617.99	44011.43
618.14	43606.52
618.29	43669.72
618.45	43721.21
618.60	43515.24
618.75	43466.09
618.90	43901.43
619.06	43711.84
619.21	43578.43
619.36	43634.61
619.51	43295.23
619.67	43173.52
619.82	43707.16
619.97	43756.32
620.12	42990.96
620.28	43110.33
620.43	43210.97
620.58	43571.41
620.73	42983.94
620.89	42976.92
621.04	43477.79
621.19	43115.01
621.34	42801.38
621.49	42892.66
621.65	42834.14
621.80	43260.12
621.95	43606.52
622.10	43498.86
622.25	43456.73
622.41	42892.66
622.56	42948.83
622.71	43583.12
622.86	42820.10
623.01	43068.20
623.16	43012.02
623.32	43185.22
623.47	43058.84
623.62	42663.28
623.77	42663.28
623.92	42801.38
624.07	42618.81
624.23	42120.28
624.38	42124.96
624.53	42590.73
624.68	42993.30
624.83	42302.84
624.98	42916.06
625.13	42220.92
625.29	42642.22
625.44	42747.54
625.59	42029.00
625.74	42014.96
625.89	41958.78
626.04	42302.84
626.19	42246.67
626.34	42302.84
626.49	42110.92
626.65	42141.35
626.80	42010.28
626.95	41855.80
627.10	42333.27
627.25	42094.53
627.40	41610.04
627.55	41687.28
627.70	41605.36
627.85	41518.76
628.00	41476.63
628.15	42059.43
628.30	41790.27
628.45	41897.93
628.60	41713.03
628.76	42284.12
628.91	42344.97
629.06	41736.43
629.21	41509.40
629.36	41668.56
629.51	41322.16
629.66	41977.51
629.81	41214.49
629.96	41481.31
630.11	41415.78
630.26	41544.51
630.41	41614.72
630.56	41818.35
630.71	41467.27
630.86	41729.41
631.01	41275.35
631.16	41989.21
631.31	41331.52
631.46	40886.82
631.61	41701.32
631.76	41137.26
631.91	41673.24
632.06	41310.46
632.21	41588.98
632.36	41776.22
632.51	41155.98
632.66	41511.74
632.81	40910.22
632.96	41345.56
633.10	41188.75
633.25	40502.97
633.40	40821.28
633.55	41160.66
633.70	40760.43
633.85	40760.43
634.00	40823.62
634.15	41184.07
634.30	41315.14
634.45	41024.91
634.60	41048.32
634.75	41045.97
634.90	41001.50
635.05	41230.88
635.19	40334.45
635.34	41022.57
635.49	40797.88
635.64	40481.91
635.79	40898.52
635.94	40690.21
636.09	40795.54
636.24	41064.70
636.39	40538.08
636.53	40507.65
636.68	40620.00
636.83	40498.29
636.98	40676.17
637.13	40545.10
637.28	40699.58
637.43	40697.24
637.57	40318.07
637.72	40369.56
637.87	40348.50
638.02	40594.25
638.17	40739.36
638.32	40507.65
638.46	40114.44
638.61	39854.64
638.76	40154.23
638.91	40261.90
639.06	40161.25
639.20	40144.87
639.35	40575.53
639.50	40526.38
639.65	40566.16
639.80	39880.39
639.94	39859.32
640.09	39842.94
640.24	40048.91
640.39	39454.41
640.54	39791.45
640.68	39552.71
640.83	39871.03
640.98	39564.42
641.13	39636.97
641.27	40032.52
641.42	40018.48
641.57	40074.65
641.72	39651.02
641.86	40189.34
642.01	39711.87
642.16	40058.27
642.31	39407.60
642.45	40044.23
642.60	39005.03
642.75	39328.02
642.90	39749.32
643.04	39147.80
643.19	39510.58
643.34	39679.10
643.48	39524.63
643.63	39028.43
643.78	38948.85
643.93	39325.68
644.07	38925.45
644.22	39407.60
644.37	39356.11
644.51	39100.99
644.66	38932.47
644.81	39496.54
644.95	39271.85
645.10	39541.01
645.25	38876.30
645.39	38979.28
645.54	39414.62
645.69	39597.18
645.83	38859.91
645.98	38906.73
646.13	39016.73
646.27	38932.47
646.42	39267.17
646.57	39178.23
646.71	38752.25
646.86	39175.89
647.00	38906.73
647.15	38529.90
647.30	38880.98
647.44	38525.22
647.59	38419.89
647.74	38459.68
647.88	38600.12
648.03	38038.39
648.17	38653.95
648.32	38403.51
648.47	38534.58
648.61	38227.97
648.76	38501.81
648.90	38539.26
649.05	38534.58
649.20	39103.33
649.34	38534.58
649.49	38593.09
649.63	38539.26
649.78	38326.27
649.92	38717.14
650.07	38480.75
650.21	38249.03
650.36	38464.36
650.51	38401.17
650.65	38651.61
650.80	38459.68
650.94	38272.44
651.09	38342.66
651.23	37523.47
651.38	38146.05
651.52	37813.70
651.67	38012.64
651.81	37736.46
651.96	38071.15
652.10	38153.07
652.25	37773.91
652.39	37720.07
652.54	38380.10
652.68	38227.97
652.83	37900.29
652.97	38000.94
653.12	37455.59
653.26	37830.08
653.41	37881.57
653.55	37902.64
653.70	37731.78
653.84	37656.88
653.99	37574.96
654.13	37776.25
654.27	37659.22
654.42	37497.72
654.56	37748.16
654.71	37694.33
654.85	37296.44
655.00	37619.43
655.14	37368.99
655.29	37120.90
655.43	37172.39
655.57	37137.28
655.72	37345.59
655.86	37205.16
656.01	36870.46
656.15	37298.78
656.30	37237.92
656.44	36804.92
656.58	37024.93
656.73	36451.50
656.87	36858.76
657.01	36755.77
657.16	36694.92
657.30	36861.10
657.45	36240.86
657.59	36641.09
657.73	36367.24
657.88	36924.29
658.02	36397.67
658.16	36669.17
658.31	36645.77
658.45	36781.52
658.60	37212.18
658.74	36465.55
658.88	37029.62
659.03	36818.97
659.17	36055.95
659.31	36432.78
659.46	36339.16
659.60	36339.16
659.74	36158.94
659.89	36353.20
660.03	36292.35
660.17	36432.78
660.32	36407.03
660.46	36268.94
660.60	36341.50
660.74	36346.18
660.89	36376.61
661.03	35826.58
661.17	35892.12
661.32	35562.10
661.46	36009.14
661.60	35318.68
661.74	35688.49
661.89	35882.75
662.03	35892.12
662.17	35583.16
662.31	35819.56
662.46	35386.56
662.60	35660.40
662.74	35491.88
662.88	35662.74
663.03	35363.15
663.17	35445.07
663.31	34740.57
663.45	34946.54
663.60	34607.16
663.74	35180.59
663.88	35000.37
664.02	34841.21
664.17	35187.61
664.31	34689.08
664.45	34843.56
664.59	34763.98
664.73	34892.71
664.88	35005.05
665.02	34771.00
665.16	34464.39
665.30	34579.07
665.44	34508.86
665.59	34426.94
665.73	34478.43
665.87	34050.11
666.01	34466.73
666.15	34356.72
666.29	34225.65
666.44	34518.22
666.58	34305.23
666.72	34508.86
666.86	34607.16
667.00	34157.78
667.14	33699.03
667.28	33759.89
667.43	33958.83
667.57	33909.68
667.71	33823.08
667.85	33860.53
667.99	33572.64
668.13	33366.68
668.27	33394.76
668.41	33474.34
668.56	33436.89
668.70	33394.76
668.84	33563.28
668.98	33429.87
669.12	33448.60
669.26	32875.16
669.40	33085.81
669.54	33149.01
669.68	32945.38
669.82	32861.12
669.96	32788.56
670.10	32584.94
670.25	32795.59
670.39	32903.25
670.53	32505.36
670.67	32608.34
670.81	32685.58
670.95	32613.02
671.09	32961.76
671.23	32465.57
671.37	32851.76
671.51	32217.47
671.65	32451.53
671.79	32292.37
671.93	31793.84
672.07	32201.09
672.21	32203.43
672.35	31960.02
672.49	31840.65
672.63	32126.19
672.77	31927.25
672.91	31646.38
673.05	31784.48
673.19	31784.48
673.33	31569.15
673.47	31330.41
673.61	30890.39
673.75	31087.00
673.89	31047.21
674.03	31009.76
674.17	31065.93
674.31	30988.69
674.45	31351.48
674.59	30986.35
674.73	31157.21
674.87	30658.68
675.01	30852.94
675.15	30866.98
675.29	30476.12
675.43	30700.81
675.56	30333.34
675.70	30253.76
675.84	30146.10
675.98	29172.44
676.12	30024.39
676.26	29727.14
676.40	30029.07
676.54	30082.91
676.68	29890.98
676.82	29392.45
676.96	29944.81
677.10	29179.46
677.23	29420.53
677.37	29366.70
677.51	29315.21
677.65	29408.83
677.79	28748.80
677.93	29205.20
678.07	28898.59
678.21	28711.35
678.34	28615.39
678.48	28584.96
678.62	28521.77
678.76	28030.26
678.90	28418.78
679.04	28144.94
679.18	28421.13
679.31	27861.74
679.45	27835.99
679.59	27662.79
679.73	28074.73
679.87	27761.09
680.00	27828.97
680.14	27824.29
680.28	27489.59
680.42	27447.46
680.56	27412.35
680.70	26972.33
680.83	27112.77
680.97	27105.74
681.11	27140.85
681.25	26799.13
681.39	26948.93
681.52	27068.30
681.66	26621.25
681.80	26518.27
681.94	26457.42
682.07	26635.30
682.21	26497.20
682.35	26249.11
682.49	26066.55
682.62	26635.30
682.76	25565.67
682.90	25708.44
683.04	25759.94
683.17	25886.32
683.31	25481.41
683.45	25867.60
683.59	25654.61
683.72	25441.62
683.86	25369.07
684.00	25443.96
684.13	25565.67
684.27	25448.64
684.41	24992.24
684.55	24865.85
684.68	24734.78
684.82	24554.56
684.96	24690.31
685.09	24570.94
685.23	24533.50
685.37	24678.61
685.50	24629.46
685.64	24657.54
685.78	24081.77
685.91	24470.30
686.05	24018.58
686.19	23880.49
686.32	23929.64
686.46	23611.32
686.60	23864.10
686.73	23524.72
686.87	23016.83
687.01	23601.96
687.14	23335.14
687.28	23241.52
687.42	23218.11
687.55	23157.26
687.69	23005.13
687.82	22731.28
687.96	22977.04
688.10	22682.13
688.23	22457.44
688.37	22424.67
688.50	22373.18
688.64	22518.29
688.78	22101.68
688.91	21919.12
689.05	22209.34
689.18	21909.75
689.32	21649.96
689.46	22068.91
689.59	21970.61
689.73	21809.11
689.86	21809.11
690.00	21912.10
690.13	22082.95
690.27	21612.51
690.41	21607.83
690.54	21095.25
690.68	21209.93
690.81	21015.67
690.95	20830.77
691.08	20737.15
691.22	21008.65
691.35	20816.72
691.49	21118.65
691.62	20945.45
691.76	20858.85
691.89	20851.83
692.03	20657.57
692.16	20247.97
692.30	20210.53
692.43	20266.70
692.57	20058.39
692.70	20355.64
692.84	20042.01
692.97	19838.38
693.11	19983.49
693.24	19644.12
693.38	19522.41
693.51	19349.21
693.65	19838.38
693.78	19585.60
693.92	19503.68
694.05	19204.10
694.19	19278.99
694.32	19293.04
694.45	19482.62
694.59	19084.73
694.72	19077.71
694.86	18958.34
694.99	18340.44
695.13	18551.09
695.26	18504.28
695.39	18359.16
695.53	18581.51
695.66	18562.79
695.80	18370.86
695.93	18232.77
696.07	18132.13
696.20	18118.09
696.33	17954.25
696.47	18291.29
696.60	17851.27
696.73	17895.74
696.87	17797.43
697.00	17998.72
697.14	17685.09
697.27	17542.32
697.40	17858.29
697.54	17617.21
697.67	17273.15
697.80	17341.03
697.94	17305.92
698.07	17167.83
698.21	17099.95
698.34	16964.20
698.47	17149.11
698.61	16582.70
698.74	16690.36
698.87	16198.85
699.01	16414.18
699.14	16510.14
699.27	16437.58
699.40	16276.09
699.54	16063.10
699.67	16180.12
699.80	15997.56
699.94	15854.79
700.07	15784.57
700.20	15943.73
700.34	15822.02
700.47	16013.95
700.60	16191.83
700.73	15580.95
700.87	15704.99
701.00	15468.60
701.13	15527.11
701.26	15438.17
701.40	15421.79
701.53	15321.15
701.66	15454.56
701.79	15257.95
701.93	15030.92
702.06	14920.92
702.19	14963.04
702.32	14984.11
702.46	14764.10
702.59	14579.20
702.72	14628.35
702.85	14618.99
702.99	14892.83
703.12	14581.54
703.25	14590.90
703.38	14345.14
703.51	14422.38
703.65	14242.16
703.78	14305.35
703.91	14235.14
704.04	14115.77
704.17	14085.34
704.31	13795.12
704.44	13781.07
704.57	13448.72
704.70	13598.51
704.83	13692.13
704.96	13706.18
705.10	13767.03
705.23	13757.67
>>>>>End Processed Spectral Data<<<<<
