SpectraSuite Data File
++++++++++++++++++++++++++++++++++++
Date: Fri Oct 25 10:48:11 EDT 2013
User: price-jones
Dark Spectrum Present: No
Reference Spectrum Present: No
Number of Sampled Component Spectra: 1
Spectrometers: USB2+H05261
Integration Time (usec): 100000 (USB2+H05261)
Spectra Averaged: 1 (USB2+H05261)
Boxcar Smoothing: 0 (USB2+H05261)
Correct for Electrical Dark: No (USB2+H05261)
Strobe/Lamp Enabled: No (USB2+H05261)
Correct for Detector Non-linearity: No (USB2+H05261)
Correct for Stray Light: No (USB2+H05261)
Number of Pixels in Processed Spectrum: 2048
>>>>>Begin Processed Spectral Data<<<<<
365.73	100.64
365.92	100.64
366.12	100.64
366.32	110.01
366.52	93.62
366.72	65.54
366.91	32.77
367.11	131.07
367.31	0.00
367.51	91.28
367.70	63.19
367.90	56.17
368.10	37.45
368.30	74.90
368.49	102.98
368.69	72.56
368.89	14.04
369.09	49.15
369.28	0.00
369.48	156.82
369.68	135.75
369.87	95.96
370.07	105.32
370.27	105.32
370.47	196.60
370.66	444.70
370.86	425.98
371.06	372.15
371.25	519.60
371.45	500.87
371.65	524.28
371.84	393.21
372.04	468.11
372.24	425.98
372.44	500.87
372.63	519.60
372.83	568.75
373.03	517.26
373.22	493.85
373.42	538.32
373.62	482.15
373.81	505.56
374.01	601.52
374.21	512.58
374.40	521.94
374.60	631.94
374.79	575.77
374.99	580.45
375.19	622.58
375.38	594.50
375.58	582.79
375.78	500.87
375.97	559.39
376.17	592.16
376.37	622.58
376.56	603.86
376.76	599.18
376.95	540.66
377.15	564.07
377.35	589.82
377.54	643.65
377.74	725.57
377.93	617.90
378.13	575.77
378.33	667.05
378.52	636.63
378.72	631.94
378.91	655.35
379.11	627.26
379.31	613.22
379.50	615.56
379.70	650.67
379.89	713.86
380.09	723.23
380.28	674.07
380.48	620.24
380.68	620.24
380.87	634.29
381.07	718.54
381.26	744.29
381.46	699.82
381.65	711.52
381.85	699.82
382.04	784.08
382.24	645.99
382.43	725.57
382.63	697.48
382.83	767.70
383.02	732.59
383.22	741.95
383.41	723.23
383.61	641.31
383.80	755.99
384.00	636.63
384.19	706.84
384.39	802.80
384.58	653.01
384.78	784.08
384.97	758.33
385.17	889.40
385.36	779.40
385.56	713.86
385.75	851.96
385.95	716.20
386.14	786.42
386.34	786.42
386.53	763.01
386.72	730.25
386.92	849.61
387.11	814.51
387.31	821.53
387.50	798.12
387.70	798.12
387.89	816.85
388.09	774.72
388.28	826.21
388.48	833.23
388.67	812.17
388.86	931.53
389.06	840.25
389.25	880.04
389.45	868.34
389.64	954.94
389.84	957.28
390.03	898.77
390.22	954.94
390.42	903.45
390.61	851.96
390.81	898.77
391.00	919.83
391.19	919.83
391.39	954.94
391.58	950.26
391.78	964.30
391.97	1025.15
392.16	997.07
392.36	1027.50
392.55	894.08
392.75	1018.13
392.94	1004.09
393.13	959.62
393.33	985.37
393.52	985.37
393.71	976.00
393.91	1034.52
394.10	1093.03
394.29	1114.10
394.49	1064.94
394.68	1160.91
394.88	1111.75
395.07	1064.94
395.26	1135.16
395.46	1153.88
395.65	1179.63
395.84	1125.80
396.04	1163.25
396.23	1083.67
396.42	1121.12
396.62	1104.73
396.81	1207.72
397.00	1053.24
397.19	1132.82
397.39	1205.38
397.58	1275.59
397.77	1233.46
397.97	1296.66
398.16	1226.44
398.35	1380.92
398.55	1371.55
398.74	1254.53
398.93	1352.83
399.12	1287.29
399.32	1306.02
399.51	1303.68
399.70	1387.94
399.90	1413.68
400.09	1423.05
400.28	1409.00
400.47	1371.55
400.67	1528.37
400.86	1411.34
401.05	1411.34
401.24	1516.67
401.44	1544.75
401.63	1462.83
401.82	1500.28
402.01	1486.24
402.21	1582.20
402.40	1577.52
402.59	1516.67
402.78	1420.71
402.97	1533.05
403.17	1561.14
403.36	1664.12
403.55	1631.35
403.74	1694.55
403.93	1558.80
404.13	1694.55
404.32	1610.29
404.51	1675.82
404.70	1732.00
404.89	1755.40
405.09	1753.06
405.28	1720.29
405.47	1703.91
405.66	1746.04
405.85	1858.39
406.05	1694.55
406.24	1813.92
406.43	1809.23
406.62	1902.86
406.81	1973.07
407.00	1792.85
407.20	1823.28
407.39	1856.04
407.58	1818.60
407.77	1912.22
407.96	1895.83
408.15	1886.47
408.34	1977.75
408.54	2008.18
408.73	2033.93
408.92	1952.01
409.11	2050.31
409.30	1998.82
409.49	1980.09
409.68	2097.12
409.87	2087.76
410.07	2087.76
410.26	2120.53
410.45	2146.27
410.64	2153.29
410.83	2071.37
411.02	2228.19
411.21	2165.00
411.40	2310.11
411.59	2218.83
411.78	2335.85
411.98	2333.51
412.17	2403.73
412.36	2345.22
412.55	2368.62
412.74	2415.43
412.93	2413.09
413.12	2443.52
413.31	2541.82
413.50	2471.61
413.69	2424.80
413.88	2654.17
414.07	2492.67
414.26	2635.44
414.45	2661.19
414.64	2658.85
414.83	2600.34
415.02	2698.64
415.22	2745.45
415.41	2656.51
415.60	2729.06
415.79	2822.69
415.98	2803.96
416.17	2874.18
416.36	2839.07
416.55	2937.37
416.74	2881.20
416.93	2810.98
417.12	2867.16
417.31	2972.48
417.50	2928.01
417.69	3082.49
417.88	3087.17
418.07	3026.31
418.26	3033.33
418.45	3035.67
418.64	3122.27
418.83	3197.17
419.02	3143.34
419.21	3297.81
419.39	3346.97
419.58	3225.26
419.77	3145.68
419.96	3300.16
420.15	3353.99
420.34	3330.58
420.53	3265.05
420.72	3232.28
420.91	3562.30
421.10	3414.84
421.29	3398.46
421.48	3300.16
421.67	3466.33
421.86	3332.92
422.05	3417.18
422.24	3426.54
422.43	3585.70
422.61	3403.14
422.80	3487.40
422.99	3606.77
423.18	3566.98
423.37	3595.06
423.56	3461.65
423.75	3524.85
423.94	3442.93
424.13	3311.86
424.32	3660.60
424.50	3555.27
424.69	3625.49
424.88	3660.60
425.07	3501.44
425.26	3545.91
425.45	3651.24
425.64	3651.24
425.83	3461.65
426.01	3660.60
426.20	3639.53
426.39	3459.31
426.58	3538.89
426.77	3604.42
426.96	3590.38
427.15	3459.31
427.33	3716.77
427.52	3712.09
427.71	3604.42
427.90	3618.47
428.09	3707.41
428.28	3782.31
428.46	3840.82
428.65	3808.05
428.84	3857.20
429.03	3896.99
429.22	3779.97
429.40	3899.33
429.59	3712.09
429.78	3566.98
429.97	3585.70
430.16	3669.96
430.34	3934.44
430.53	3976.57
430.72	3901.67
430.91	3861.88
431.10	4065.51
431.28	4255.09
431.47	4086.58
431.66	4095.94
431.85	4107.64
432.03	4046.79
432.22	4250.41
432.41	4077.21
432.60	4297.22
432.79	4259.78
432.97	4325.31
433.16	4318.29
433.35	4109.98
433.54	4304.25
433.72	4222.33
433.91	4194.24
434.10	4133.39
434.28	4147.43
434.47	4367.44
434.66	4367.44
434.85	4416.59
435.03	4376.80
435.22	4386.16
435.41	4451.70
435.59	4512.55
435.78	4585.11
435.97	4723.20
436.16	4559.36
436.34	4477.44
436.53	4578.09
436.72	4676.39
436.90	4550.00
437.09	4538.30
437.28	4585.11
437.46	4683.41
437.65	4521.92
437.84	4727.88
438.02	4704.48
438.21	4727.88
438.40	4702.14
438.58	4744.27
438.77	4905.76
438.96	4880.02
439.14	5071.94
439.33	4971.30
439.52	5011.09
439.70	5053.22
439.89	5217.05
440.08	5165.56
440.26	5081.30
440.45	5210.03
440.63	5233.44
440.82	5390.25
441.01	5153.86
441.19	5476.85
441.38	5320.04
441.57	5479.19
441.75	5504.94
441.94	5628.99
442.12	5636.01
442.31	5743.67
442.50	5699.20
442.68	5619.63
442.87	5579.84
443.05	5727.29
443.24	5767.08
443.43	5729.63
443.61	5722.61
443.80	5930.92
443.98	5626.65
444.17	5628.99
444.35	5755.38
444.54	5914.53
444.73	5764.74
444.91	5720.27
445.10	5888.79
445.28	5820.91
445.47	5692.18
445.65	5746.02
445.84	5818.57
446.02	5912.19
446.21	5696.86
446.39	5856.02
446.58	5966.03
446.77	5865.38
446.95	5816.23
447.14	5837.30
447.32	6092.41
447.51	5895.81
447.69	5795.17
447.88	6061.99
448.06	6054.97
448.25	5809.21
448.43	6057.31
448.62	5991.77
448.80	6193.06
448.99	6162.63
449.17	5996.45
449.36	6134.54
449.54	6118.16
449.73	6190.72
449.91	6118.16
450.10	6366.26
450.28	6244.55
450.46	6296.04
450.65	6328.81
450.83	6389.66
451.02	6445.84
451.20	6237.53
451.39	6473.92
451.57	6354.55
451.76	6370.94
451.94	6553.50
452.13	6546.48
452.31	6384.98
452.49	6324.13
452.68	6642.44
452.86	6487.96
453.05	6473.92
453.23	6616.69
453.42	6651.80
453.60	6506.69
453.78	6717.34
453.97	6616.69
454.15	6621.38
454.34	6621.38
454.52	6761.81
454.70	6743.08
454.89	6689.25
455.07	6876.49
455.26	6841.39
455.44	6722.02
455.62	6820.32
455.81	6920.96
455.99	6986.50
456.17	6944.37
456.36	6995.86
456.54	7061.40
456.73	7222.89
456.91	7314.17
457.09	7295.45
457.28	7307.15
457.46	7225.23
457.64	7513.12
457.83	7344.60
458.01	7145.66
458.19	7386.73
458.38	7274.38
458.56	7424.18
458.74	7232.26
458.93	7325.88
459.11	7389.07
459.29	7433.54
459.48	7536.52
459.66	7480.35
459.84	7627.81
460.03	7555.25
460.21	7466.31
460.39	7606.74
460.57	7634.83
460.76	7700.36
460.94	7609.08
461.12	7768.24
461.31	7761.22
461.49	7573.97
461.67	7681.64
461.85	7936.76
462.04	7796.32
462.22	8390.82
462.40	8121.66
462.59	7964.84
462.77	8004.63
462.95	7960.16
463.13	8072.51
463.32	8046.76
463.50	8098.25
463.68	8280.82
463.86	8046.76
464.05	7852.50
464.23	7939.10
464.41	8100.59
464.59	7964.84
464.78	8341.67
464.96	8215.28
465.14	8243.37
465.32	8327.63
465.50	8276.13
465.69	8271.45
465.87	8421.25
466.05	8418.91
466.23	8198.90
466.41	8423.59
466.60	8482.10
466.78	8156.77
466.96	8374.44
467.14	8351.03
467.32	8435.29
467.51	8627.21
467.69	8351.03
467.87	8395.50
468.05	8554.66
468.23	8528.91
468.41	8489.12
468.60	8631.90
468.78	8641.26
468.96	8439.97
469.14	8837.86
469.32	8823.82
469.50	8374.44
469.69	8795.73
469.87	9046.17
470.05	8861.27
470.23	8795.73
470.41	8957.23
470.59	9018.08
470.77	8901.06
470.95	9001.70
471.14	9041.49
471.32	9123.41
471.50	9359.80
471.68	9188.94
471.86	9174.90
472.04	9448.74
472.22	9551.73
472.40	9336.40
472.58	9291.93
472.77	9493.21
472.95	9659.39
473.13	9832.59
473.31	9540.02
473.49	9387.89
473.67	9544.70
473.85	9717.90
474.03	9870.04
474.21	9783.44
474.39	9926.21
474.57	9982.38
474.75	10106.43
474.93	10003.45
475.12	9987.07
475.30	10176.65
475.48	10106.43
475.66	10221.12
475.84	10155.58
476.02	10366.23
476.20	10317.08
476.38	10541.77
476.56	10682.20
476.74	10773.49
476.92	10630.71
477.10	10560.50
477.28	10813.28
477.46	10862.43
477.64	11049.67
477.82	11082.44
478.00	11461.60
478.18	11140.95
478.36	11332.87
478.54	11627.78
478.72	11510.75
478.90	11566.93
479.08	11555.22
479.26	11758.85
479.44	12210.57
479.62	12002.27
479.80	11974.18
479.98	12166.10
480.16	12346.33
480.34	12390.80
480.52	12489.10
480.70	12435.27
480.88	12318.24
481.06	12631.87
481.24	12645.91
481.41	12940.82
481.59	13048.49
481.77	12830.82
481.95	13029.76
482.13	13083.59
482.31	13027.42
482.49	13589.15
482.67	13380.84
482.85	13483.83
483.03	13884.06
483.21	13631.28
483.39	13980.02
483.57	13752.99
483.74	14125.13
483.92	14188.33
484.10	14057.26
484.28	14600.26
484.46	14511.32
484.64	14867.08
484.82	14635.37
485.00	14714.95
485.18	15044.96
485.35	15108.16
485.53	15171.35
485.71	14963.04
485.89	15164.33
486.07	15044.96
486.25	15489.67
486.43	15433.49
486.61	15737.76
486.78	15653.50
486.96	15887.56
487.14	16271.40
487.32	16255.02
487.50	16439.92
487.68	16753.55
487.85	16826.11
488.03	16872.92
488.21	17013.35
488.39	17109.32
488.57	17118.68
488.75	17235.70
488.92	17284.86
489.10	17778.71
489.28	17514.23
489.46	17767.01
489.64	17930.84
489.81	18324.05
489.99	18150.85
490.17	18586.19
490.35	18539.38
490.53	18302.99
490.70	18555.77
490.88	18991.11
491.06	18991.11
491.24	18827.27
491.41	19201.76
491.59	18897.49
491.77	19154.94
491.95	19183.03
492.13	19569.22
492.30	19857.10
492.48	19873.49
492.66	20133.29
492.84	20191.80
493.01	19981.15
493.19	19941.36
493.37	20322.87
493.54	20819.07
493.72	20809.70
493.90	20678.63
494.08	21027.37
494.25	21209.93
494.43	20982.90
494.61	21392.50
494.79	21350.37
494.96	21518.89
495.14	21106.95
495.32	22094.66
495.49	21830.18
495.67	21741.24
495.85	22071.25
496.02	22129.77
496.20	22288.92
496.38	22258.49
496.55	22794.48
496.73	23040.23
496.91	22670.43
497.09	22986.40
497.26	22778.09
497.44	22871.72
497.62	23447.49
497.79	23314.08
497.97	23037.89
498.14	23704.95
498.32	23623.03
498.50	23491.96
498.67	23644.09
498.85	23992.83
499.03	24247.95
499.20	24510.09
499.38	24191.78
499.56	24386.04
499.73	24599.03
499.91	24739.46
500.08	24395.40
500.26	24652.86
500.44	24411.79
500.61	24615.41
500.79	25125.65
500.97	24954.79
501.14	25436.94
501.32	25144.38
501.49	25116.29
501.67	25397.15
501.84	25766.96
502.02	25390.13
502.20	25692.06
502.37	25446.30
502.55	25469.71
502.72	26082.93
502.90	26202.30
503.07	25827.81
503.25	25865.26
503.43	26094.63
503.60	26115.70
503.78	26410.60
503.95	26047.82
504.13	26424.65
504.30	26422.31
504.48	26485.50
504.65	26778.07
504.83	26623.59
505.01	27103.40
505.18	27115.11
505.36	27377.25
505.53	26663.38
505.71	27070.64
505.88	27262.56
506.06	27012.12
506.23	27477.89
506.41	27328.10
506.58	27288.31
506.76	27522.36
506.93	27569.17
507.11	27644.07
507.28	27990.47
507.46	28166.01
507.63	27742.37
507.81	28095.79
507.98	28163.67
508.16	28402.40
508.33	28222.18
508.50	28451.55
508.68	28439.85
508.85	28964.13
509.03	28900.94
509.20	29170.10
509.38	28531.13
509.55	29149.03
509.73	29046.05
509.90	29230.95
510.08	29083.50
510.25	29097.54
510.42	29324.57
510.60	29443.94
510.77	29476.71
510.95	29537.56
511.12	29713.10
511.30	29701.40
511.47	29748.21
511.64	30181.21
511.82	30080.56
511.99	29738.85
512.17	29692.04
512.34	30148.44
512.51	30321.64
512.69	30394.20
512.86	30911.46
513.04	30855.28
513.21	30780.39
513.38	30213.98
513.56	30728.89
513.73	30499.52
513.90	30632.93
514.08	30810.81
514.25	31260.20
514.43	31058.91
514.60	31040.18
514.77	31199.34
514.95	31180.62
515.12	31154.87
515.29	31299.98
515.47	31690.85
515.64	31810.22
515.81	31810.22
515.99	31250.83
516.16	31508.29
516.33	31702.56
516.51	31868.73
516.68	31349.14
516.85	31590.21
517.03	31583.19
517.20	32086.40
517.37	31842.99
517.54	32081.72
517.72	31971.72
517.89	32484.30
518.06	32378.97
518.24	32533.45
518.41	32205.77
518.58	32217.47
518.75	32844.74
518.93	32657.49
519.10	32797.93
519.27	32598.98
519.45	32488.98
519.62	32741.75
519.79	33174.75
519.96	33081.13
520.14	33188.80
520.31	33277.74
520.48	33619.46
520.65	33324.55
520.83	33441.57
521.00	33436.89
521.17	33277.74
521.34	33773.93
521.52	33921.38
521.69	34291.19
521.86	33942.45
522.03	34270.12
522.20	34197.57
522.38	34164.80
522.55	34396.51
522.72	34251.40
522.89	34132.03
523.07	34548.65
523.24	34593.12
523.41	34785.04
523.58	34354.38
523.75	34866.96
523.92	34700.78
524.10	34857.60
524.27	35208.68
524.44	35082.29
524.61	35185.27
524.78	35243.79
524.96	35136.12
525.13	35264.85
525.30	35613.59
525.47	35634.66
525.64	35419.33
525.81	35564.44
525.98	35306.98
526.16	35358.47
526.33	35388.90
526.50	35716.58
526.67	35494.22
526.84	35433.37
527.01	35637.00
527.18	35597.21
527.36	35873.39
527.53	36252.56
527.70	36203.41
527.87	36400.01
528.04	35899.14
528.21	35988.08
528.38	36488.95
528.55	36584.91
528.72	36194.04
528.89	36776.84
529.07	36542.78
529.24	36294.69
529.41	36704.28
529.58	36556.83
529.75	36624.70
529.92	36561.51
530.09	36818.97
530.26	36634.06
530.43	36912.59
530.60	36531.08
530.77	37027.28
530.94	37228.56
531.11	36837.69
531.28	37113.87
531.46	37514.11
531.63	37219.20
531.80	36947.70
531.97	37144.30
532.14	37284.73
532.31	37443.89
532.48	37755.18
532.65	37715.39
532.82	37167.71
532.99	37539.85
533.16	37036.64
533.33	37539.85
533.50	37888.59
533.67	38054.77
533.84	37844.12
534.01	37961.15
534.18	38139.03
534.35	38162.43
534.52	38253.72
534.69	38211.59
534.86	38291.16
535.03	37715.39
535.20	38403.51
535.37	38735.87
535.54	38806.08
535.71	38234.99
535.88	38113.28
536.05	37844.12
536.22	38408.19
536.38	38637.56
536.55	38588.41
536.72	38731.18
536.89	38314.57
537.06	38508.83
537.23	38979.28
537.40	38415.21
537.57	38408.19
537.74	38902.04
537.91	38986.30
538.08	39061.20
538.25	38714.80
538.42	38993.32
538.59	38895.02
538.75	38614.16
538.92	39196.95
539.09	38927.79
539.26	39543.35
539.43	39243.76
539.60	39583.14
539.77	39105.67
539.94	39431.01
540.11	39096.31
540.28	39201.63
540.44	39103.33
540.61	39112.69
540.78	39618.25
540.95	39225.04
541.12	39564.42
541.29	39321.00
541.46	39810.17
541.62	39470.79
541.79	40107.42
541.96	39461.43
542.13	40161.25
542.30	39864.00
542.47	40137.85
542.63	39765.70
542.80	40067.63
542.97	40502.97
543.14	40577.87
543.31	40399.99
543.48	40580.21
543.64	41099.81
543.81	40760.43
543.98	40725.32
544.15	40442.12
544.32	40463.18
544.48	40818.94
544.65	40732.34
544.82	40933.63
544.99	40240.83
545.16	40804.90
545.32	41022.57
545.49	41338.54
545.66	41268.33
545.83	41209.81
546.00	41064.70
546.16	41343.22
546.33	40921.93
546.50	40734.68
546.67	41261.30
546.83	41153.64
547.00	41137.26
547.17	41422.80
547.34	41090.44
547.50	41488.34
547.67	41390.03
547.84	41249.60
548.00	41516.42
548.17	41708.35
548.34	41205.13
548.51	42131.98
548.67	41766.86
548.84	41893.25
549.01	41731.75
549.18	41682.60
549.34	41759.84
549.51	41839.42
549.68	42092.19
549.84	41921.34
550.01	42330.93
550.18	41804.31
550.34	42232.63
550.51	41841.76
550.68	41394.71
550.84	41467.27
551.01	42260.71
551.18	41902.61
551.34	41537.49
551.51	42164.75
551.68	42141.35
551.84	42527.53
552.01	42492.43
552.18	42370.72
552.34	41797.29
552.51	42347.31
552.68	42616.47
552.84	42536.90
553.01	42850.53
553.18	42312.20
553.34	42239.65
553.51	42377.74
553.67	42583.71
553.84	42623.50
554.01	43182.88
554.17	42878.61
554.34	42824.78
554.51	42890.32
554.67	43159.48
554.84	42890.32
555.00	42490.09
555.17	42195.18
555.33	43105.65
555.50	42630.52
555.67	42775.63
555.83	42632.86
556.00	43440.34
556.16	43182.88
556.33	43597.16
556.50	42955.85
556.66	43330.34
556.83	42672.65
556.99	42796.70
557.16	43571.41
557.32	43051.81
557.49	43519.92
557.65	43098.62
557.82	43168.84
557.98	43093.94
558.15	42955.85
558.32	43622.90
558.48	42859.89
558.65	43608.86
558.81	43044.79
558.98	43688.44
559.14	43585.46
559.31	43100.97
559.47	43765.68
559.64	43360.76
559.80	43714.19
559.97	43842.92
560.13	43861.64
560.30	43438.00
560.46	43540.99
560.63	43543.33
560.79	43395.87
560.96	43875.68
561.12	43559.71
561.29	43398.21
561.45	43775.04
561.61	43735.25
561.78	43407.58
561.94	43356.08
562.11	43475.45
562.27	43519.92
562.44	43501.20
562.60	43735.25
562.77	43988.03
562.93	43812.49
563.10	43817.17
563.26	43548.01
563.42	44140.16
563.59	43835.89
563.75	43749.29
563.92	44177.61
564.08	44287.62
564.24	44135.48
564.41	43732.91
564.57	44086.33
564.74	43985.69
564.90	43597.16
565.07	44011.43
565.23	44039.52
565.39	43807.81
565.56	44301.66
565.72	44168.25
565.88	44231.44
566.05	44079.31
566.21	44067.61
566.38	43899.09
566.54	44046.54
566.70	44371.88
566.87	44512.31
567.03	44472.52
567.19	44619.97
567.36	43917.81
567.52	44009.09
567.68	44266.55
567.85	43903.77
568.01	44399.96
568.17	44259.53
568.34	44076.97
568.50	44105.06
568.66	44175.27
568.83	44299.32
568.99	44151.87
569.15	43959.94
569.32	44170.59
569.48	43995.05
569.64	44451.45
569.81	44219.74
569.97	44261.87
570.13	44437.41
570.30	44140.16
570.46	44395.28
570.62	44444.43
570.78	44210.38
570.95	44257.19
571.11	44252.51
571.27	44444.43
571.43	44002.07
571.60	44479.54
571.76	44226.76
571.92	44746.36
572.09	44598.91
572.25	44165.91
572.41	44191.65
572.57	44797.85
572.74	44903.18
572.90	44781.47
573.06	44650.40
573.22	44648.06
573.38	44617.63
573.55	43976.33
573.71	44598.91
573.87	44294.64
574.03	44079.31
574.20	44676.15
574.36	44451.45
574.52	44989.78
574.68	44751.04
574.84	44924.24
575.01	44524.01
575.17	44727.64
575.33	44243.15
575.49	44140.16
575.65	44994.46
575.82	44678.49
575.98	44547.42
576.14	45031.91
576.30	44825.94
576.46	44442.09
576.62	44619.97
576.79	44650.40
576.95	43861.64
577.11	44142.50
577.27	44692.53
577.43	44732.32
577.59	44425.71
577.75	44673.81
577.92	44076.97
578.08	44208.04
578.24	44114.42
578.40	44397.62
578.56	44779.13
578.72	44652.74
578.88	44601.25
579.04	44655.08
579.21	44371.88
579.37	44456.14
579.53	44786.15
579.69	44390.60
579.85	44596.57
580.01	44854.03
580.17	44973.39
580.33	44676.15
580.49	44589.55
580.65	45003.82
580.82	44392.94
580.98	44563.80
581.14	44374.22
581.30	44737.00
581.46	45177.02
581.62	44746.36
581.78	44772.11
581.94	44762.75
582.10	44811.90
582.26	44863.39
582.42	44680.83
582.58	44994.46
582.74	44619.97
582.90	44580.18
583.06	44825.94
583.22	44832.96
583.38	44842.32
583.54	44531.03
583.70	44521.67
583.86	44804.88
584.02	44456.14
584.18	44722.96
584.34	44678.49
584.50	44666.78
584.66	44809.56
584.82	45006.16
584.98	44788.49
585.14	44980.42
585.30	44556.78
585.46	44905.52
585.62	44603.59
585.78	44285.28
585.94	44280.60
586.10	44631.68
586.26	44626.99
586.42	44966.37
586.58	45280.00
586.74	44559.12
586.90	44683.17
587.06	44718.28
587.22	44619.97
587.38	44767.43
587.54	45350.22
587.70	45448.52
587.86	45090.42
588.02	44563.80
588.18	44961.69
588.34	44809.56
588.49	44322.72
588.65	44362.51
588.81	44334.43
588.97	44690.19
589.13	44444.43
589.29	44596.57
589.45	44978.07
589.61	45067.02
589.77	45251.92
589.93	45256.60
590.08	45385.33
590.24	44989.78
590.40	45256.60
590.56	45209.79
590.72	45221.49
590.88	44858.71
591.04	45003.82
591.20	45076.38
591.35	45104.46
591.51	45848.75
591.67	45050.63
591.83	44987.44
591.99	44776.79
592.15	45010.84
592.31	45062.33
592.46	45191.06
592.62	45305.75
592.78	45434.48
592.94	45298.73
593.10	44900.84
593.26	44863.39
593.41	45090.42
593.57	45052.97
593.73	44942.97
593.89	45233.19
594.05	44863.39
594.20	44898.50
594.36	45207.45
594.52	45221.49
594.68	45001.48
594.84	45375.97
594.99	45488.31
595.15	45102.12
595.31	45263.62
595.47	44992.12
595.62	45382.99
595.78	45106.80
595.94	45303.41
596.10	45614.70
596.25	45481.29
596.41	45298.73
596.57	45298.73
596.73	45045.95
596.88	45230.85
597.04	45717.68
597.20	44685.51
597.36	45221.49
597.51	45542.14
597.67	45310.43
597.83	45380.65
597.99	45504.70
598.14	45631.08
598.30	45083.40
598.46	44898.50
598.61	45294.05
598.77	44538.05
598.93	45202.77
599.09	45256.60
599.24	45558.53
599.40	45268.30
599.56	45280.00
599.71	45354.90
599.87	45542.14
600.03	45282.34
600.18	45132.55
600.34	45062.33
600.50	45397.03
600.65	45081.06
600.81	45317.45
600.97	45488.31
601.12	45436.82
601.28	45265.96
601.44	45148.93
601.59	45277.66
601.75	44903.18
601.91	45387.67
602.06	45507.04
602.22	45514.06
602.37	45041.27
602.53	44758.06
602.69	45593.64
602.84	45280.00
603.00	45448.52
603.16	44774.45
603.31	45113.83
603.47	45167.66
603.62	45083.40
603.78	45048.29
603.94	44973.39
604.09	45008.50
604.25	45478.95
604.40	45153.62
604.56	45436.82
604.71	45329.16
604.87	45357.24
605.03	45132.55
605.18	45090.42
605.34	45202.77
605.49	44910.20
605.65	45258.94
605.80	45516.40
605.96	45207.45
606.12	45230.85
606.27	45198.09
606.43	44849.35
606.58	45240.21
606.74	45076.38
606.89	45027.23
607.05	44919.56
607.20	45205.11
607.36	44982.76
607.51	45401.71
607.67	44898.50
607.82	45057.65
607.98	45074.04
608.13	45282.34
608.29	45052.97
608.44	44769.77
608.60	44498.26
608.75	44697.21
608.91	44580.18
609.06	44561.46
609.22	44664.44
609.37	44509.97
609.53	44694.87
609.68	44865.73
609.84	44425.71
609.99	44783.81
610.15	44898.50
610.30	44524.01
610.46	44458.48
610.61	44261.87
610.76	44495.92
610.92	44744.02
611.07	44809.56
611.23	44741.68
611.38	44577.84
611.54	44484.22
611.69	44788.49
611.84	44142.50
612.00	45078.72
612.15	44055.90
612.31	44383.58
612.46	44381.24
612.62	44554.44
612.77	44570.82
612.92	44732.32
613.08	44238.47
613.23	44458.48
613.39	44051.22
613.54	44046.54
613.69	44102.71
613.85	44299.32
614.00	44542.74
614.15	44435.07
614.31	44062.93
614.46	44477.20
614.62	43777.38
614.77	44215.06
614.92	44437.41
615.08	43662.69
615.23	44023.14
615.38	44364.85
615.54	43374.81
615.69	43793.76
615.84	43934.20
616.00	44074.63
616.15	44271.23
616.30	43952.92
616.46	43725.89
616.61	44027.82
616.76	44116.76
616.92	44133.14
617.07	43749.29
617.22	43854.62
617.37	43775.04
617.53	43775.04
617.68	43983.35
617.83	44128.46
617.99	44044.20
618.14	43854.62
618.29	43463.75
618.45	43653.33
618.60	43835.89
618.75	43632.27
618.90	43428.64
619.06	43653.33
619.21	43510.56
619.36	44116.76
619.51	43608.86
619.67	43526.94
619.82	43744.61
619.97	43449.70
620.12	43182.88
620.28	42967.55
620.43	43742.27
620.58	43531.62
620.73	43583.12
620.89	43402.89
621.04	42871.59
621.19	43374.81
621.34	43152.46
621.49	43309.27
621.65	42792.01
621.80	43524.60
621.95	43426.30
622.10	43051.81
622.25	42852.87
622.41	42934.79
622.56	43208.63
622.71	43271.82
622.86	42806.06
623.01	43409.92
623.16	42904.36
623.32	43215.65
623.47	43384.17
623.62	42946.49
623.77	42726.48
623.92	42939.47
624.07	42906.70
624.23	42373.06
624.38	42497.11
624.53	42775.63
624.68	42763.93
624.83	43030.75
624.98	42951.17
625.13	42726.48
625.29	42843.51
625.44	42555.62
625.59	42506.47
625.74	42368.38
625.89	42052.41
626.04	42101.56
626.19	42223.26
626.34	42363.70
626.49	42157.73
626.65	42525.19
626.80	42206.88
626.95	41911.97
627.10	42279.44
627.25	42541.58
627.40	41652.17
627.55	42164.75
627.70	41722.39
627.85	42043.04
628.00	42019.64
628.15	41998.57
628.30	41963.46
628.45	41855.80
628.60	42146.03
628.76	42249.01
628.91	41904.95
629.06	42281.78
629.21	41593.66
629.36	41628.77
629.51	41708.35
629.66	41469.61
629.81	41514.08
629.96	41897.93
630.11	41855.80
630.26	41736.43
630.41	41832.39
630.56	41518.76
630.71	41584.30
630.86	41542.17
631.01	41209.81
631.16	41280.03
631.31	41151.30
631.46	41298.75
631.61	41448.55
631.76	41378.33
631.91	41340.88
632.06	41504.72
632.21	41797.29
632.36	41998.57
632.51	41504.72
632.66	41429.82
632.81	41256.62
632.96	41045.97
633.10	40919.59
633.25	41076.40
633.40	41394.71
633.55	41324.50
633.70	41111.51
633.85	40879.80
634.00	40746.39
634.15	41294.07
634.30	41326.84
634.45	41038.95
634.60	40917.25
634.75	41069.38
634.90	41263.64
635.05	40758.09
635.19	40889.16
635.34	41076.40
635.49	40818.94
635.64	40725.32
635.79	40449.14
635.94	40856.39
636.09	40624.68
636.24	40854.05
636.39	40456.16
636.53	40381.26
636.68	40381.26
636.83	40720.64
636.98	40863.41
637.13	40357.86
637.28	40353.18
637.43	40486.59
637.57	40779.15
637.72	40610.64
637.87	40748.73
638.02	40844.69
638.17	40189.34
638.32	39959.97
638.46	40451.48
638.61	40404.67
638.76	40037.20
638.91	40395.31
639.06	39948.26
639.20	39913.16
639.35	40320.41
639.50	40165.93
639.65	40421.05
639.80	40371.90
639.94	39852.30
640.09	40030.18
640.24	39484.84
640.39	39672.08
640.54	39690.80
640.68	39885.07
640.83	39992.73
640.98	39550.37
641.13	39578.46
641.27	39903.79
641.42	39688.46
641.57	39892.09
641.72	39683.78
641.86	39302.28
642.01	39800.81
642.16	39466.11
642.31	39227.38
642.45	39672.08
642.60	38775.66
642.75	39625.27
642.90	39608.89
643.04	39440.37
643.19	39470.79
643.34	39536.33
643.48	39658.04
643.63	39374.83
643.78	39260.15
643.93	39318.66
644.07	39136.10
644.22	39150.14
644.37	38869.28
644.51	39206.31
644.66	39105.67
644.81	39257.81
644.95	39608.89
645.10	39660.38
645.25	39454.41
645.39	39257.81
645.54	39548.03
645.69	39157.16
645.83	38953.54
645.98	39222.70
646.13	39267.17
646.27	38934.81
646.42	39154.82
646.57	39255.46
646.71	38972.26
646.86	39051.84
647.00	39112.69
647.15	38979.28
647.30	38817.78
647.44	38993.32
647.59	38525.22
647.74	38433.94
647.88	38239.67
648.03	38298.19
648.17	38600.12
648.32	38096.90
648.47	38588.41
648.61	38497.13
648.76	38581.39
648.90	38256.06
649.05	38450.32
649.20	38705.44
649.34	38588.41
649.49	38700.76
649.63	38813.10
649.78	38370.74
649.92	38794.38
650.07	38436.28
650.21	38092.22
650.36	38265.42
650.51	37965.83
650.65	38445.64
650.80	38499.47
650.94	38291.16
651.09	38548.62
651.23	38401.17
651.38	38024.34
651.52	37965.83
651.67	38073.49
651.81	38597.77
651.96	37991.58
652.10	37787.95
652.25	38146.05
652.39	37820.72
652.54	37762.20
652.68	38061.79
652.83	38117.96
652.97	38312.23
653.12	38195.20
653.26	37792.63
653.41	37837.10
653.55	37357.29
653.70	37209.84
653.84	37488.36
653.99	37907.32
654.13	37794.97
654.27	37439.21
654.42	37523.47
654.56	37872.21
654.71	37876.89
654.85	37659.22
655.00	37483.68
655.14	36865.78
655.29	37336.23
655.43	37441.55
655.57	37078.77
655.72	36704.28
655.86	37085.79
656.01	37202.82
656.15	37022.59
656.30	36989.83
656.44	36931.31
656.58	37130.26
656.73	37029.62
656.87	36814.29
657.01	36598.96
657.16	36891.52
657.30	36517.04
657.45	36837.69
657.59	37317.50
657.73	37123.24
657.88	36919.61
658.02	37172.39
658.16	36818.97
658.31	36905.57
658.45	37134.94
658.60	36891.52
658.74	37053.02
658.88	37053.02
659.03	36517.04
659.17	36334.48
659.31	36512.36
659.46	36318.09
659.60	36472.57
659.74	36362.56
659.89	36308.73
660.03	36055.95
660.17	36428.10
660.32	36535.76
660.46	36800.24
660.60	36704.28
660.74	36573.21
660.89	36002.12
661.03	35782.11
661.17	35648.70
661.32	35672.10
661.46	36168.30
661.60	35842.96
661.74	36119.15
661.89	36093.40
662.03	35950.63
662.17	35466.14
662.31	35637.00
662.46	35620.61
662.60	35707.21
662.74	35461.46
662.88	35882.75
663.03	35189.95
663.17	35424.01
663.31	34906.75
663.45	35058.88
663.60	35519.97
663.74	35096.33
663.88	35285.92
664.02	34911.43
664.17	35143.14
664.31	34731.21
664.45	35051.86
664.59	35232.08
664.73	34635.25
664.88	35058.88
665.02	34270.12
665.16	34747.59
665.30	34665.67
665.44	34780.36
665.59	34316.93
665.73	34300.55
665.87	34209.27
666.01	34426.94
666.15	34279.49
666.29	34724.19
666.44	34773.34
666.58	34185.86
666.72	34080.54
666.86	34129.69
667.00	34340.34
667.14	33944.79
667.28	33771.59
667.43	33785.63
667.57	34115.65
667.71	33645.20
667.85	33851.17
667.99	33542.22
668.13	33333.91
668.27	33429.87
668.41	33436.89
668.56	33282.42
668.70	33287.10
668.84	33149.01
668.98	33071.77
669.12	33682.65
669.26	33528.17
669.40	32896.23
669.54	32980.49
669.68	32793.25
669.82	33039.00
669.96	32971.13
670.10	32594.30
670.25	32830.69
670.39	32774.52
670.53	32669.20
670.67	32617.71
670.81	32727.71
670.95	32982.83
671.09	32566.21
671.23	32746.44
671.37	32701.96
671.51	32128.53
671.65	32570.90
671.79	32259.60
671.93	32498.34
672.07	32163.64
672.21	32067.68
672.35	31983.42
672.49	31915.54
672.63	32215.13
672.77	32098.11
672.91	31714.26
673.05	31592.55
673.19	31728.30
673.33	31630.00
673.47	31658.09
673.61	31505.95
673.75	31101.04
673.89	30859.96
674.03	30913.80
674.17	31007.42
674.31	31049.55
674.45	30904.43
674.59	30946.56
674.73	30799.11
674.87	30941.88
675.01	31192.32
675.15	31126.78
675.29	30764.00
675.43	30892.73
675.56	30836.56
675.70	30375.47
675.84	30665.70
675.98	29640.54
676.12	29902.68
676.26	29834.81
676.40	29811.40
676.54	29916.73
676.68	30118.01
676.82	29226.27
676.96	29823.11
677.10	29273.08
677.23	29362.02
677.37	29088.18
677.51	29102.22
677.65	29429.90
677.79	29088.18
677.93	29010.94
678.07	28945.41
678.21	28428.15
678.34	28797.95
678.48	28559.22
678.62	28842.42
678.76	28346.23
678.90	28552.20
679.04	28252.61
679.18	28245.58
679.31	28395.38
679.45	28002.17
679.59	27828.97
679.73	27955.36
679.87	28189.41
680.00	27962.38
680.14	27672.15
680.28	27630.02
680.42	27552.79
680.56	27410.01
680.70	27358.52
680.83	27335.12
680.97	27019.14
681.11	26888.07
681.25	26733.60
681.39	26738.28
681.52	26625.93
681.66	26773.39
681.80	26738.28
681.94	26787.43
682.07	26820.20
682.21	26492.52
682.35	26679.77
682.49	26321.66
682.62	26384.86
682.76	26103.99
682.90	25968.24
683.04	26029.10
683.17	25759.94
683.31	25982.29
683.45	25909.73
683.59	25844.20
683.72	25420.56
683.86	25486.09
684.00	25427.58
684.13	25795.04
684.27	25085.86
684.41	25422.90
684.55	25163.10
684.68	24687.97
684.82	24432.85
684.96	24617.75
685.09	24947.77
685.23	24631.80
685.37	24395.40
685.50	24659.88
685.64	24592.01
685.78	24697.33
685.91	24416.47
686.05	24009.22
686.19	23950.70
686.32	24196.46
686.46	23683.88
686.60	23604.30
686.73	23798.57
686.87	23494.30
687.01	23152.58
687.14	23065.98
687.28	23063.64
687.42	23260.24
687.55	22934.91
687.69	22888.10
687.82	22658.73
687.96	22909.16
688.10	22745.33
688.23	22693.83
688.37	22441.06
688.50	22363.82
688.64	22600.21
688.78	22511.27
688.91	21895.71
689.05	22038.48
689.18	22253.81
689.32	21640.59
689.46	22078.27
689.59	21979.97
689.73	21778.68
689.86	21738.90
690.00	21982.31
690.13	21685.06
690.27	21771.66
690.41	21605.49
690.54	21001.63
690.68	21095.25
690.81	21156.10
690.95	21029.71
691.08	20996.95
691.22	20790.98
691.35	21067.16
691.49	21055.46
691.62	21202.91
691.76	20739.49
691.89	20563.95
692.03	20472.67
692.16	20238.61
692.30	20498.41
692.43	20091.16
692.57	19922.64
692.70	20273.72
692.84	20173.08
692.97	20224.57
693.11	19679.22
693.24	19728.38
693.38	19587.94
693.51	19384.32
693.65	19557.52
693.78	19728.38
693.92	19527.09
694.05	19400.70
694.19	19166.65
694.32	19255.59
694.45	19241.54
694.59	19325.80
694.72	18948.98
694.86	18581.51
694.99	18558.11
695.13	18326.39
695.26	18176.60
695.39	18403.63
695.53	18464.49
695.66	18305.33
695.80	18548.75
695.93	18038.51
696.07	18202.35
696.20	18108.72
696.33	17888.71
696.47	18200.01
696.60	17858.29
696.73	17832.54
696.87	17785.73
697.00	17827.86
697.14	17659.34
697.27	17748.28
697.40	17774.03
697.54	17394.86
697.67	17343.37
697.80	17142.08
697.94	17198.26
698.07	17181.87
698.21	16968.88
698.34	16702.06
698.47	17128.04
698.61	16484.39
698.74	16673.98
698.87	16489.07
699.01	16383.75
699.14	16367.37
699.27	16425.88
699.40	16322.90
699.54	16135.65
699.67	16081.82
699.80	15992.88
699.94	15871.17
700.07	16149.70
700.20	15791.59
700.34	15866.49
700.47	15620.74
700.60	15896.92
700.73	16051.39
700.87	15695.63
701.00	15524.77
701.13	15529.45
701.26	15435.83
701.40	15138.58
701.53	15028.58
701.66	15410.09
701.79	15077.73
701.93	15119.86
702.06	14808.57
702.19	14658.78
702.32	14806.23
702.46	14803.89
702.59	14698.56
702.72	14801.55
702.85	14726.65
702.99	14998.15
703.12	14822.61
703.25	14476.21
703.38	14478.55
703.51	14410.68
703.65	14466.85
703.78	14342.80
703.91	13846.61
704.04	14277.27
704.17	14178.97
704.31	14178.97
704.44	13694.47
704.57	13603.19
704.70	13668.73
704.83	13729.58
704.96	13811.50
705.10	13891.08
705.23	13949.59
>>>>>End Processed Spectral Data<<<<<
