SpectraSuite Data File
++++++++++++++++++++++++++++++++++++
Date: Fri Oct 25 11:34:26 EDT 2013
User: price-jones
Dark Spectrum Present: No
Reference Spectrum Present: No
Number of Sampled Component Spectra: 1
Spectrometers: USB2+H05261
Integration Time (usec): 100000 (USB2+H05261)
Spectra Averaged: 1 (USB2+H05261)
Boxcar Smoothing: 0 (USB2+H05261)
Correct for Electrical Dark: No (USB2+H05261)
Strobe/Lamp Enabled: No (USB2+H05261)
Correct for Detector Non-linearity: No (USB2+H05261)
Correct for Stray Light: No (USB2+H05261)
Number of Pixels in Processed Spectrum: 2048
>>>>>Begin Processed Spectral Data<<<<<
365.73	278.52
365.92	278.52
366.12	278.52
366.32	224.69
366.52	114.69
366.72	205.97
366.91	135.75
367.11	175.54
367.31	126.39
367.51	191.92
367.70	177.88
367.90	215.33
368.10	196.60
368.30	170.86
368.49	156.82
368.69	175.54
368.89	245.76
369.09	203.63
369.28	198.95
369.48	205.97
369.68	269.16
369.87	210.65
370.07	252.78
370.27	259.80
370.47	355.76
370.66	451.72
370.86	528.96
371.06	503.22
371.25	566.41
371.45	608.54
371.65	557.05
371.84	564.07
372.04	603.86
372.24	554.71
372.44	587.47
372.63	599.18
372.83	561.73
373.03	587.47
373.22	634.29
373.42	528.96
373.62	638.97
373.81	669.39
374.01	596.84
374.21	594.50
374.40	653.01
374.60	667.05
374.79	620.24
374.99	678.76
375.19	645.99
375.38	571.09
375.58	631.94
375.78	676.41
375.97	690.46
376.17	610.88
376.37	538.32
376.56	699.82
376.76	606.20
376.95	671.73
377.15	664.71
377.35	622.58
377.54	706.84
377.74	716.20
377.93	643.65
378.13	753.65
378.33	741.95
378.52	765.36
378.72	716.20
378.91	699.82
379.11	634.29
379.31	706.84
379.50	711.52
379.70	720.88
379.89	718.54
380.09	697.48
380.28	697.48
380.48	772.38
380.68	683.44
380.87	699.82
381.07	741.95
381.26	723.23
381.46	777.06
381.65	713.86
381.85	704.50
382.04	784.08
382.24	809.83
382.43	765.36
382.63	758.33
382.83	695.14
383.02	809.83
383.22	837.91
383.41	823.87
383.61	823.87
383.80	772.38
384.00	730.25
384.19	763.01
384.39	746.63
384.58	894.08
384.78	805.14
384.97	763.01
385.17	793.44
385.36	844.93
385.56	781.74
385.75	763.01
385.95	807.48
386.14	863.66
386.34	903.45
386.53	802.80
386.72	873.02
386.92	823.87
387.11	903.45
387.31	777.06
387.50	840.25
387.70	835.57
387.89	795.78
388.09	908.13
388.28	833.23
388.48	903.45
388.67	1004.09
388.86	847.27
389.06	861.32
389.25	971.32
389.45	901.11
389.64	957.28
389.84	919.83
390.03	926.85
390.22	968.98
390.42	912.81
390.61	924.51
390.81	959.62
391.00	1011.11
391.19	959.62
391.39	961.96
391.58	964.30
391.78	1008.77
391.97	1083.67
392.16	990.05
392.36	1043.88
392.55	1069.62
392.75	1048.56
392.94	1046.22
393.13	1025.15
393.33	1046.22
393.52	1008.77
393.71	1118.78
393.91	1036.86
394.10	1029.84
394.29	1121.12
394.49	1137.50
394.68	1181.97
394.88	1107.07
395.07	1095.37
395.26	1086.01
395.46	1064.94
395.65	1109.41
395.84	1121.12
396.04	1219.42
396.23	1060.26
396.42	1151.54
396.62	1200.69
396.81	1226.44
397.00	1226.44
397.19	1149.20
397.39	1165.59
397.58	1193.67
397.77	1219.42
397.97	1203.04
398.16	1207.72
398.35	1268.57
398.55	1196.01
398.74	1275.59
398.93	1387.94
399.12	1320.06
399.32	1303.68
399.51	1343.47
399.70	1327.08
399.90	1256.87
400.09	1266.23
400.28	1383.26
400.47	1289.64
400.67	1345.81
400.86	1455.81
401.05	1359.85
401.24	1294.32
401.44	1432.41
401.63	1329.42
401.82	1397.30
402.01	1350.49
402.21	1549.43
402.40	1516.67
402.59	1448.79
402.78	1528.37
402.97	1500.28
403.17	1472.20
403.36	1521.35
403.55	1467.52
403.74	1537.73
403.93	1579.86
404.13	1509.65
404.32	1533.05
404.51	1554.12
404.70	1572.84
404.89	1636.03
405.09	1661.78
405.28	1621.99
405.47	1643.06
405.66	1664.12
405.85	1607.95
406.05	1680.50
406.24	1643.06
406.43	1664.12
406.62	1701.57
406.81	1827.96
407.00	1732.00
407.20	1710.93
407.39	1687.53
407.58	1795.19
407.77	1769.44
407.96	1781.15
408.15	1799.87
408.34	1802.21
408.54	1853.70
408.73	1818.60
408.92	1778.81
409.11	1863.07
409.30	1987.11
409.49	1856.04
409.68	1963.71
409.87	1949.67
410.07	1935.62
410.26	2052.65
410.45	1926.26
410.64	1956.69
410.83	2029.24
411.02	2054.99
411.21	2062.01
411.40	2155.63
411.59	2143.93
411.78	2029.24
411.98	2106.48
412.17	2129.89
412.36	2186.06
412.55	2169.68
412.74	2190.74
412.93	2179.04
413.12	2310.11
413.31	2422.45
413.50	2232.87
413.69	2279.68
413.88	2399.05
414.07	2368.62
414.26	2399.05
414.45	2373.30
414.64	2588.63
414.83	2558.21
415.02	2490.33
415.22	2586.29
415.41	2616.72
415.60	2569.91
415.79	2726.72
415.98	2668.21
416.17	2635.44
416.36	2696.30
416.55	2637.78
416.74	2686.94
416.93	2719.70
417.12	2808.64
417.31	2867.16
417.50	2743.11
417.69	2789.92
417.88	2752.47
418.07	2892.90
418.26	2925.67
418.45	2869.50
418.64	2878.86
418.83	2977.16
419.02	2843.75
419.21	2937.37
419.39	3070.78
419.58	2988.86
419.77	2988.86
419.96	2977.16
420.15	3087.17
420.34	3028.65
420.53	2970.14
420.72	3066.10
420.91	3080.14
421.10	3176.11
421.29	3176.11
421.48	3084.83
421.67	3187.81
421.86	3119.93
422.05	3148.02
422.24	3276.75
422.43	3276.75
422.61	3213.56
422.80	3323.56
422.99	3304.84
423.18	3274.41
423.37	3283.77
423.56	3283.77
423.75	3297.81
423.94	3239.30
424.13	3108.23
424.32	3129.30
424.50	3325.90
424.69	3356.33
424.88	3391.44
425.07	3335.26
425.26	3307.18
425.45	3318.88
425.64	3194.83
425.83	3258.03
426.01	3288.45
426.20	3332.92
426.39	3330.58
426.58	3316.54
426.77	3351.65
426.96	3466.33
427.15	3487.40
427.33	3398.46
427.52	3370.37
427.71	3524.85
427.90	3435.91
428.09	3569.32
428.28	3513.14
428.46	3515.48
428.65	3478.04
428.84	3716.77
429.03	3646.55
429.22	3534.21
429.40	3674.64
429.59	3562.30
429.78	3487.40
429.97	3602.08
430.16	3534.21
430.34	3735.50
430.53	3695.71
430.72	3735.50
430.91	3693.37
431.10	3679.32
431.28	3817.41
431.47	3824.44
431.66	3815.07
431.85	3817.41
432.03	3992.95
432.22	3971.89
432.41	3887.63
432.60	3992.95
432.79	3906.35
432.97	3826.78
433.16	3971.89
433.35	3838.48
433.54	3878.27
433.72	3962.53
433.91	4126.36
434.10	3967.21
434.28	4051.47
434.47	4079.55
434.66	4105.30
434.85	4290.20
435.03	4219.99
435.22	4100.62
435.41	4166.15
435.59	4271.48
435.78	4280.84
435.97	4100.62
436.16	4294.88
436.34	4152.11
436.53	4311.27
436.72	4182.54
436.90	4236.37
437.09	4383.82
437.28	4320.63
437.46	4234.03
437.65	4416.59
437.84	4547.66
438.02	4430.63
438.21	4215.30
438.40	4461.06
438.58	4559.36
438.77	4615.54
438.96	4435.32
439.14	4784.06
439.33	4755.97
439.52	4748.95
439.70	4734.90
439.89	4858.95
440.08	4809.80
440.26	4898.74
440.45	4777.03
440.63	4851.93
440.82	4975.98
441.01	4828.53
441.19	5013.43
441.38	5097.69
441.57	5160.88
441.75	5041.51
441.94	5156.20
442.12	5270.89
442.31	5308.34
442.50	5177.26
442.68	5341.10
442.87	5207.69
443.05	5329.40
443.24	5448.77
443.43	5383.23
443.61	5392.59
443.80	5636.01
443.98	5228.76
444.17	5102.37
444.35	5404.30
444.54	5441.75
444.73	5357.49
444.91	5432.38
445.10	5334.08
445.28	5350.46
445.47	5259.18
445.65	5404.30
445.84	5348.12
446.02	5327.06
446.21	5589.20
446.39	5514.30
446.58	5568.13
446.77	5551.75
446.95	5411.32
447.14	5465.15
447.32	5708.57
447.51	5497.92
447.69	5507.28
447.88	5434.72
448.06	5497.92
448.25	5687.50
448.43	5526.00
448.62	5621.97
448.80	5518.98
448.99	5516.64
449.17	5760.06
449.36	5589.20
449.54	5769.42
449.73	5774.10
449.91	5996.45
450.10	5909.85
450.28	5818.57
450.46	5968.37
450.65	5738.99
450.83	5881.77
451.02	5909.85
451.20	5888.79
451.39	5872.40
451.57	6071.35
451.76	5912.19
451.94	5856.02
452.13	6029.22
452.31	6054.97
452.49	5968.37
452.68	6038.58
452.86	5937.94
453.05	6153.27
453.23	6242.21
453.42	6141.57
453.60	6232.85
453.78	6331.15
453.97	6066.67
454.15	6193.06
454.34	5980.07
454.52	6274.98
454.70	6122.84
454.89	6394.34
455.07	6211.78
455.26	6403.71
455.44	6530.09
455.62	6368.60
455.81	6506.69
455.99	6459.88
456.17	6574.56
456.36	6516.05
456.54	6670.53
456.73	6745.42
456.91	6794.58
457.09	6759.47
457.28	6909.26
457.46	6647.12
457.64	6698.61
457.83	6881.18
458.01	6691.59
458.19	6942.03
458.38	6703.29
458.56	6902.24
458.74	6827.34
458.93	6956.07
459.11	6916.28
459.29	7026.29
459.48	6892.88
459.66	6932.67
459.84	7117.57
460.03	7119.91
460.21	7192.47
460.39	7136.29
460.57	7157.36
460.76	7073.10
460.94	7070.76
461.12	7180.76
461.31	7201.83
461.49	7098.84
461.67	7232.26
461.85	7316.51
462.04	7358.64
462.22	7798.66
462.40	7513.12
462.59	7426.52
462.77	7468.65
462.95	7634.83
463.13	7566.95
463.32	7410.14
463.50	7571.63
463.68	7503.76
463.86	7681.64
464.05	7709.72
464.23	7515.46
464.41	7700.36
464.59	7527.16
464.78	7777.60
464.96	7634.83
465.14	7681.64
465.32	7709.72
465.50	7756.54
465.69	7946.12
465.87	7934.42
466.05	7616.10
466.23	7819.73
466.41	7793.98
466.60	7969.52
466.78	7885.26
466.96	7903.99
467.14	7861.86
467.32	7843.14
467.51	8109.96
467.69	7946.12
467.87	8074.85
468.05	8152.09
468.23	8018.68
468.41	8077.19
468.60	8095.91
468.78	8238.69
468.96	7967.18
469.14	8327.63
469.32	8355.71
469.50	8011.65
469.69	8147.40
469.87	8404.86
470.05	8255.07
470.23	8430.61
470.41	8306.56
470.59	8472.74
470.77	8379.12
470.95	8456.36
471.14	8650.62
471.32	8587.43
471.50	8819.14
471.68	8622.53
471.86	8816.80
472.04	8699.77
472.22	8835.52
472.40	8774.67
472.58	8912.76
472.77	8952.55
472.95	8830.84
473.13	9275.54
473.31	8865.95
473.49	8912.76
473.67	9074.26
473.85	9114.05
474.03	9390.23
474.21	9570.45
474.39	9427.68
474.57	9544.70
474.75	9554.07
474.93	9659.39
475.12	9427.68
475.30	9434.70
475.48	9640.67
475.66	9701.52
475.84	9582.15
476.02	9640.67
476.20	10029.20
476.38	9848.97
476.56	10352.19
476.74	10017.49
476.92	10167.29
477.10	10104.09
477.28	10253.89
477.46	10284.31
477.64	10249.21
477.82	10640.08
478.00	10829.66
478.18	10703.27
478.36	10757.10
478.54	10906.90
478.72	11080.10
478.90	11042.65
479.08	11091.80
479.26	11372.66
479.44	11227.55
479.62	11234.57
479.80	11396.07
479.98	11447.56
480.16	11730.76
480.34	11524.80
480.52	11758.85
480.70	11974.18
480.88	11674.59
481.06	11758.85
481.24	11861.84
481.41	11929.71
481.59	12233.98
481.77	12437.61
481.95	12397.82
482.13	12100.57
482.31	12461.01
482.49	12814.43
482.67	12683.36
482.85	12821.45
483.03	12975.93
483.21	13238.07
483.39	13518.93
483.57	13156.15
483.74	13619.58
483.92	13373.82
484.10	13151.47
484.28	13612.56
484.46	14101.73
484.64	13963.64
484.82	13820.86
485.00	14111.09
485.18	14445.79
485.35	14209.39
485.53	14420.04
485.71	14366.21
485.89	14724.31
486.07	14640.05
486.25	15047.30
486.43	14757.08
486.61	15269.66
486.78	15379.66
486.96	15171.35
487.14	15470.94
487.32	15510.73
487.50	15775.21
487.68	15695.63
487.85	15915.64
488.03	16198.85
488.21	16388.43
488.39	16070.12
488.57	16194.17
488.75	16397.79
488.92	16716.11
489.10	16992.29
489.28	16793.34
489.46	16978.25
489.64	17099.95
489.81	17032.08
489.99	17530.61
490.17	17392.52
490.35	18094.68
490.53	17841.90
490.70	18045.53
490.88	17919.14
491.06	18139.15
491.24	17954.25
491.41	18415.34
491.59	18457.46
491.77	18230.43
491.95	18773.44
492.13	18677.48
492.30	18857.70
492.48	18913.87
492.66	18967.70
492.84	19068.34
493.01	19133.88
493.19	19527.09
493.37	19524.75
493.54	19393.68
493.72	19840.72
493.90	19517.73
494.08	19892.21
494.25	20002.22
494.43	19943.70
494.61	20673.95
494.79	20458.62
494.96	20580.33
495.14	20563.95
495.32	20891.62
495.49	20680.97
495.67	20783.96
495.85	21170.15
496.02	21151.42
496.20	21294.19
496.38	21453.35
496.55	21399.52
496.73	22204.66
496.91	21635.91
497.09	21729.53
497.26	21813.79
497.44	21956.57
497.62	22188.28
497.79	22342.75
497.97	22436.38
498.14	22588.51
498.32	22726.60
498.50	22576.81
498.67	22778.09
498.85	22843.63
499.03	22824.90
499.20	23058.96
499.38	23033.21
499.56	23452.17
499.73	23585.58
499.91	23321.10
500.08	23400.68
500.26	23501.32
500.44	23852.40
500.61	23683.88
500.79	23482.59
500.97	24046.66
501.14	24219.86
501.32	24261.99
501.49	24086.45
501.67	24379.02
501.84	24500.73
502.02	24421.15
502.20	24526.47
502.37	24559.24
502.55	24678.61
502.72	24538.18
502.90	24865.85
503.07	24446.90
503.25	24989.90
503.43	24900.96
503.60	25205.23
503.78	25228.63
503.95	25221.61
504.13	25713.13
504.30	25345.66
504.48	25689.72
504.65	26078.25
504.83	26047.82
505.01	25748.23
505.18	25876.96
505.36	26300.60
505.53	25881.64
505.71	26195.28
505.88	26312.30
506.06	26188.25
506.23	26373.16
506.41	26536.99
506.58	26707.85
506.76	26515.93
506.93	26356.77
507.11	26710.19
507.28	26888.07
507.46	27054.25
507.63	27030.85
507.81	27342.14
507.98	27068.30
508.16	27182.98
508.33	27178.30
508.50	27508.32
508.68	27255.54
508.85	27718.96
509.03	27835.99
509.20	27840.67
509.38	28109.83
509.55	27950.68
509.73	28212.82
509.90	27812.59
510.08	28332.18
510.25	28240.90
510.42	28332.18
510.60	28315.80
510.77	28610.71
510.95	29022.64
511.12	28460.91
511.30	28889.23
511.47	28982.85
511.64	28807.31
511.82	28790.93
511.99	28947.75
512.17	29034.35
512.34	28931.36
512.51	29500.11
512.69	29495.43
512.86	29825.45
513.04	29268.40
513.21	29549.26
513.38	29893.32
513.56	29694.38
513.73	29769.27
513.90	30033.75
514.08	29713.10
514.25	29876.94
514.43	30216.32
514.60	30424.62
514.77	30279.51
514.95	30654.00
515.12	30312.28
515.29	30185.89
515.47	30661.02
515.64	30597.82
515.81	30366.11
515.99	30738.26
516.16	31204.02
516.33	30930.18
516.51	31164.23
516.68	31101.04
516.85	30948.90
517.03	31634.68
517.20	31175.94
517.37	31620.64
517.54	31346.79
517.72	31466.16
517.89	31419.35
518.06	31613.62
518.24	31917.89
518.41	31433.39
518.58	31625.32
518.75	31763.41
518.93	31929.59
519.10	31943.63
519.27	31756.39
519.45	32226.84
519.62	32250.24
519.79	32112.15
519.96	32144.92
520.14	32573.24
520.31	32208.11
520.48	32720.69
520.65	32615.37
520.83	32790.91
521.00	32685.58
521.17	32765.16
521.34	32863.46
521.52	33029.64
521.69	33022.62
521.86	33099.86
522.03	33553.92
522.20	33350.29
522.38	33589.03
522.55	33284.76
522.72	33364.34
522.89	33535.20
523.07	34007.98
523.24	33778.61
523.41	33780.95
523.58	33867.55
523.75	33989.26
523.92	33935.43
524.10	33972.88
524.27	34197.57
524.44	34223.31
524.61	34246.72
524.78	34368.43
524.96	34284.17
525.13	34452.69
525.30	34955.90
525.47	34511.20
525.64	34651.63
525.81	34873.98
525.98	34831.85
526.16	34508.86
526.33	34635.25
526.50	35030.80
526.67	34728.87
526.84	35077.61
527.01	35056.54
527.18	34745.25
527.36	35126.76
527.53	35187.61
527.70	35543.38
527.87	35604.23
528.04	34983.99
528.21	35370.18
528.38	35405.28
528.55	35459.12
528.72	35737.64
528.89	35646.36
529.07	35763.39
529.24	35187.61
529.41	35997.44
529.58	35840.62
529.75	35901.48
529.92	35800.83
530.09	36203.41
530.26	35915.52
530.43	36177.66
530.60	36273.62
530.77	36046.59
530.94	36327.45
531.11	36172.98
531.28	36657.47
531.46	36107.44
531.63	36896.20
531.80	36250.22
531.97	36503.00
532.14	36978.12
532.31	36629.38
532.48	37078.77
532.65	37146.64
532.82	36800.24
532.99	36718.32
533.16	37038.98
533.33	37160.69
533.50	37202.82
533.67	36992.17
533.84	36928.97
534.01	37640.50
534.18	37092.81
534.35	37401.76
534.52	37504.74
534.69	37603.05
534.86	37792.63
535.03	37628.79
535.20	38047.75
535.37	37778.59
535.54	38211.59
535.71	37926.04
535.88	37680.28
536.05	37904.98
536.22	38394.15
536.38	38192.86
536.55	38277.12
536.72	38080.52
536.89	38419.89
537.06	38136.69
537.23	38576.71
537.40	38178.82
537.57	38478.41
537.74	38251.38
537.91	38466.70
538.08	38483.09
538.25	38169.46
538.42	38440.96
538.59	38883.32
538.75	38560.33
538.92	38728.84
539.09	39051.84
539.26	38843.53
539.43	38885.66
539.60	38754.59
539.77	39089.29
539.94	39274.19
540.11	39152.48
540.28	39133.76
540.44	39082.27
540.61	38829.49
540.78	39054.18
540.95	39234.40
541.12	38843.53
541.29	39189.93
541.46	39412.28
541.62	39194.61
541.79	39910.82
541.96	39269.51
542.13	39234.40
542.30	39372.49
542.47	39438.03
542.63	39688.46
542.80	39833.58
542.97	40217.43
543.14	40100.40
543.31	40041.88
543.48	40074.65
543.64	40664.47
543.81	40072.31
543.98	40517.01
544.15	40224.45
544.32	40091.04
544.48	40886.82
544.65	40601.27
544.82	40767.45
544.99	40311.05
545.16	40879.80
545.32	39952.94
545.49	40875.12
545.66	40687.87
545.83	40945.33
546.00	40879.80
546.16	40828.30
546.33	40488.93
546.50	40713.62
546.67	40870.43
546.83	39943.58
547.00	40762.77
547.17	40732.34
547.34	41074.06
547.50	41008.53
547.67	41354.93
547.84	41265.99
548.00	41436.84
548.17	42117.94
548.34	41525.78
548.51	41418.12
548.67	41701.32
548.84	41460.25
549.01	41427.48
549.18	41549.19
549.34	41502.38
549.51	41420.46
549.68	41804.31
549.84	41509.40
550.01	42110.92
550.18	41706.01
550.34	41713.03
550.51	41605.36
550.68	42202.20
550.84	41689.62
551.01	42232.63
551.18	41900.27
551.34	41584.30
551.51	41886.23
551.68	41724.73
551.84	41825.37
552.01	42050.06
552.18	42080.49
552.34	42244.33
552.51	42515.83
552.68	41820.69
552.84	42274.76
553.01	42188.16
553.18	42148.37
553.34	42469.02
553.51	42094.53
553.67	42359.02
553.84	42988.62
554.01	42389.44
554.17	42134.32
554.34	42923.08
554.51	42712.44
554.67	42909.04
554.84	42745.20
555.00	42878.61
555.17	42962.87
555.33	43021.39
555.50	42948.83
555.67	42822.44
555.83	42810.74
556.00	43140.75
556.16	43861.64
556.33	42976.92
556.50	43306.93
556.66	43049.47
556.83	42937.13
556.99	43508.22
557.16	43489.49
557.32	43555.03
557.49	43529.28
557.65	42941.81
557.82	43299.91
557.98	43332.68
558.15	43346.72
558.32	43330.34
558.48	43313.95
558.65	43377.15
558.81	43374.81
558.98	43264.80
559.14	43278.85
559.31	43704.82
559.47	43800.79
559.64	43505.88
559.80	43606.52
559.97	43529.28
560.13	43611.20
560.30	43159.48
560.46	43878.02
560.63	44374.22
560.79	43821.85
560.96	43660.35
561.12	44198.68
561.29	43634.61
561.45	44116.76
561.61	43856.96
561.78	43805.47
561.94	43501.20
562.11	43430.98
562.27	44385.92
562.44	43896.75
562.60	43803.13
562.77	43826.53
562.93	43753.97
563.10	44116.76
563.26	44074.63
563.42	44215.06
563.59	43688.44
563.75	44121.44
563.92	44048.88
564.08	44095.69
564.24	43929.51
564.41	44072.29
564.57	43896.75
564.74	44425.71
564.90	44091.01
565.07	44257.19
565.23	44460.82
565.39	44388.26
565.56	44493.58
565.72	44498.26
565.88	44378.90
566.05	44292.30
566.21	44229.10
566.38	44243.15
566.54	44170.59
566.70	44320.38
566.87	44367.20
567.03	44601.25
567.19	44500.61
567.36	44257.19
567.52	44474.86
567.68	44376.56
567.85	43929.51
568.01	44531.03
568.17	44624.65
568.34	44662.10
568.50	44444.43
568.66	44086.33
568.83	44467.84
568.99	44893.82
569.15	44559.12
569.32	44657.42
569.48	44364.85
569.64	44734.66
569.81	44540.39
569.97	44744.02
570.13	44987.44
570.30	44376.56
570.46	44664.44
570.62	44619.97
570.78	44638.70
570.95	44699.55
571.11	45247.24
571.27	44996.80
571.43	44629.34
571.60	44568.48
571.76	44711.25
571.92	44889.13
572.09	44863.39
572.25	44692.53
572.41	45141.91
572.57	44903.18
572.74	45404.05
572.90	44872.75
573.06	45015.52
573.22	45301.07
573.38	45434.48
573.55	45132.55
573.71	45251.92
573.87	45390.01
574.03	45057.65
574.20	45233.19
574.36	44839.98
574.52	45434.48
574.68	45333.84
574.84	45001.48
575.01	45319.79
575.17	44938.29
575.33	45081.06
575.49	44989.78
575.65	45102.12
575.82	45024.89
575.98	45226.17
576.14	45357.24
576.30	45270.64
576.46	45392.35
576.62	45099.78
576.79	45509.38
576.95	45006.16
577.11	44676.15
577.27	45167.66
577.43	45326.81
577.59	45104.46
577.75	44947.65
577.92	44830.62
578.08	45277.66
578.24	45254.26
578.40	45549.17
578.56	45476.61
578.72	45382.99
578.88	45558.53
579.04	45385.33
579.21	45013.18
579.37	45696.62
579.53	45338.52
579.69	45170.00
579.85	45310.43
580.01	44893.82
580.17	45074.04
580.33	45663.85
580.49	45490.65
580.65	45277.66
580.82	45177.02
580.98	45151.27
581.14	45188.72
581.30	45687.26
581.46	45525.76
581.62	45406.39
581.78	45336.18
581.94	45394.69
582.10	45464.91
582.26	45198.09
582.42	45361.92
582.58	45359.58
582.74	45698.96
582.90	45071.70
583.06	45492.99
583.22	45455.54
583.38	45481.29
583.54	45432.14
583.70	45785.56
583.86	45485.97
584.02	45797.26
584.18	46190.47
584.34	45794.92
584.50	45792.58
584.66	45778.54
584.82	45677.90
584.98	45741.09
585.14	45773.86
585.30	45401.71
585.46	45495.33
585.62	45647.47
585.78	45713.00
585.94	45462.57
586.10	45317.45
586.26	45368.94
586.42	45488.31
586.58	45815.99
586.74	45659.17
586.90	45296.39
587.06	45464.91
587.22	45514.06
587.38	45485.97
587.54	46036.00
587.70	45762.15
587.86	45918.97
588.02	45397.03
588.18	45514.06
588.34	45841.73
588.49	45682.58
588.65	45191.06
588.81	45797.26
588.97	45626.40
589.13	45682.58
589.29	45338.52
589.45	46120.26
589.61	45626.40
589.77	46113.23
589.93	45748.11
590.08	46134.30
590.24	45806.62
590.40	46344.95
590.56	45925.99
590.72	46040.68
590.88	45986.85
591.04	45717.68
591.20	45930.67
591.35	46019.61
591.51	46646.88
591.67	45904.93
591.83	46150.68
591.99	46457.29
592.15	46162.39
592.31	45996.21
592.46	45818.33
592.62	45975.14
592.78	46110.89
592.94	46564.96
593.10	46335.59
593.26	46349.63
593.41	46213.88
593.57	46136.64
593.73	45846.41
593.89	46815.40
594.05	46504.10
594.20	46391.76
594.36	46504.10
594.52	46799.01
594.68	46146.00
594.84	46078.13
594.99	46417.50
595.15	45855.78
595.31	46340.27
595.47	46031.32
595.62	46274.73
595.78	46120.26
595.94	46373.03
596.10	46394.10
596.25	46241.96
596.41	46925.40
596.57	46061.74
596.73	46272.39
596.88	46653.90
597.04	46286.43
597.20	46375.37
597.36	46281.75
597.51	46466.66
597.67	46415.16
597.83	46382.40
597.99	46733.48
598.14	45815.99
598.30	46330.90
598.46	46387.08
598.61	46260.69
598.77	46328.56
598.93	46410.48
599.09	46288.77
599.24	46471.34
599.40	46550.91
599.56	46590.70
599.71	46534.53
599.87	46700.71
600.03	46410.48
600.18	46742.84
600.34	46071.10
600.50	46829.44
600.65	46131.96
600.81	46674.96
600.97	46909.02
601.12	46618.79
601.28	46663.26
601.44	46628.15
601.59	46319.20
601.75	46260.69
601.91	46541.55
602.06	46763.90
602.22	46543.89
602.37	46366.01
602.53	46784.97
602.69	46602.41
602.84	46281.75
603.00	46363.67
603.16	46295.80
603.31	46546.23
603.47	46513.47
603.62	46597.73
603.78	46684.33
603.94	46728.80
604.09	46305.16
604.25	46326.22
604.40	46609.43
604.56	46326.22
604.71	46639.86
604.87	46508.79
605.03	46445.59
605.18	46021.95
605.34	46658.58
605.49	46314.52
605.65	46595.38
605.80	46185.79
605.96	46124.94
606.12	46213.88
606.27	46621.13
606.43	45970.46
606.58	46803.69
606.74	46426.87
606.89	46429.21
607.05	46581.34
607.20	46550.91
607.36	46258.35
607.51	46454.95
607.67	46087.49
607.82	46394.10
607.98	46267.71
608.13	46216.22
608.29	46609.43
608.44	46183.45
608.60	46469.00
608.75	46122.60
608.91	46206.86
609.06	46321.54
609.22	46396.44
609.37	46129.62
609.53	46543.89
609.68	46316.86
609.84	45975.14
609.99	46415.16
610.15	46131.96
610.30	46443.25
610.46	45680.24
610.61	46281.75
610.76	46206.86
610.92	46021.95
611.07	46155.36
611.23	45626.40
611.38	45762.15
611.54	46190.47
611.69	46183.45
611.84	46188.13
612.00	45956.42
612.15	45914.29
612.31	45787.90
612.46	45787.90
612.62	45806.62
612.77	45684.92
612.92	45902.59
613.08	45853.44
613.23	45787.90
613.39	45450.86
613.54	45808.96
613.69	45876.84
613.85	45797.26
614.00	45420.44
614.15	46052.38
614.31	45773.86
614.46	45256.60
614.62	45422.78
614.77	45668.53
614.92	45801.94
615.08	45645.13
615.23	45797.26
615.38	45661.51
615.54	45165.32
615.69	45453.20
615.84	45361.92
616.00	46188.13
616.15	45336.18
616.30	45476.61
616.46	45523.42
616.61	45481.29
616.76	45663.85
616.92	45558.53
617.07	45366.60
617.22	45343.20
617.37	44865.73
617.53	45352.56
617.68	45572.57
617.83	45640.45
617.99	45844.07
618.14	45663.85
618.29	44872.75
618.45	44783.81
618.60	45116.17
618.75	44704.23
618.90	44816.58
619.06	45200.43
619.21	44868.07
619.36	45544.48
619.51	45249.58
619.67	44697.21
619.82	44797.85
619.97	45476.61
620.12	44996.80
620.28	44800.19
620.43	45268.30
620.58	45099.78
620.73	45027.23
620.89	45272.98
621.04	45345.54
621.19	45118.51
621.34	45162.98
621.49	45045.95
621.65	45036.59
621.80	45500.01
621.95	44776.79
622.10	45188.72
622.25	44671.46
622.41	44821.26
622.56	44706.57
622.71	44776.79
622.86	44825.94
623.01	44832.96
623.16	45249.58
623.32	44210.38
623.47	44839.98
623.62	44643.38
623.77	44378.90
623.92	44119.10
624.07	44732.32
624.23	44884.45
624.38	44804.88
624.53	44250.17
624.68	44100.37
624.83	44280.60
624.98	44364.85
625.13	44285.28
625.29	44189.31
625.44	44282.94
625.59	44294.64
625.74	44598.91
625.89	44189.31
626.04	43992.71
626.19	44023.14
626.34	44404.64
626.49	44130.80
626.65	43990.37
626.80	44147.18
626.95	43842.92
627.10	43978.67
627.25	44467.84
627.40	44388.26
627.55	44093.35
627.70	44079.31
627.85	44474.86
628.00	44294.64
628.15	43648.65
628.30	43756.32
628.45	43290.55
628.60	43236.72
628.76	43353.74
628.91	43433.32
629.06	43583.12
629.21	43573.75
629.36	43707.16
629.51	43505.88
629.66	43796.10
629.81	43929.51
629.96	43681.42
630.11	43934.20
630.26	43611.20
630.41	43627.59
630.56	43627.59
630.71	43725.89
630.86	43330.34
631.01	43653.33
631.16	43302.25
631.31	43098.62
631.46	43288.21
631.61	44069.95
631.76	43562.05
631.91	43632.27
632.06	43533.96
632.21	43686.10
632.36	43325.66
632.51	43295.23
632.66	43089.26
632.81	43126.71
632.96	43159.48
633.10	43512.90
633.25	42925.42
633.40	42799.04
633.55	42632.86
633.70	42923.08
633.85	43035.43
634.00	42883.30
634.15	42871.59
634.30	42813.08
634.45	42504.13
634.60	42813.08
634.75	43070.54
634.90	42876.27
635.05	43075.22
635.19	42789.67
635.34	43208.63
635.49	42511.15
635.64	42438.59
635.79	42962.87
635.94	42803.72
636.09	42637.54
636.24	42424.55
636.39	42436.25
636.53	42820.10
636.68	42539.24
636.83	42204.54
636.98	42557.96
637.13	42129.64
637.28	42232.63
637.43	42462.00
637.57	42464.34
637.72	41979.85
637.87	42433.91
638.02	42518.17
638.17	42103.90
638.32	42160.07
638.46	42019.64
638.61	41911.97
638.76	41977.51
638.91	42480.72
639.06	41970.49
639.20	41741.11
639.35	42059.43
639.50	41916.65
639.65	42043.04
639.80	42206.88
639.94	42174.11
640.09	42337.95
640.24	41975.17
640.39	41631.11
640.54	41406.42
640.68	41865.16
640.83	42450.30
640.98	41556.21
641.13	41687.28
641.27	41841.76
641.42	41801.97
641.57	41642.81
641.72	41780.90
641.86	41373.65
642.01	41254.28
642.16	41500.04
642.31	41223.86
642.45	41818.35
642.60	41237.90
642.75	41727.07
642.90	41813.67
643.04	41415.78
643.19	41638.13
643.34	41425.14
643.48	41167.68
643.63	41455.57
643.78	41275.35
643.93	41563.23
644.07	41633.45
644.22	41596.00
644.37	41055.34
644.51	41347.90
644.66	41251.94
644.81	40947.67
644.95	41593.66
645.10	41085.76
645.25	40907.88
645.39	40645.74
645.54	40875.12
645.69	40989.80
645.83	40905.54
645.98	40884.48
646.13	40418.71
646.27	40776.81
646.42	40725.32
646.57	40877.46
646.71	40779.15
646.86	41181.73
647.00	41172.36
647.15	40711.28
647.30	41312.80
647.44	40577.87
647.59	40898.52
647.74	40877.46
647.88	40755.75
648.03	41588.98
648.17	41191.09
648.32	40751.07
648.47	40989.80
648.61	40835.33
648.76	40666.81
648.90	40870.43
649.05	40699.58
649.20	40741.71
649.34	40765.11
649.49	40495.95
649.63	40868.09
649.78	41022.57
649.92	40259.55
650.07	40825.96
650.21	40509.99
650.36	40694.89
650.51	40271.26
650.65	40617.66
650.80	40362.54
650.94	40713.62
651.09	39957.63
651.23	39934.22
651.38	39871.03
651.52	39791.45
651.67	39852.30
651.81	40105.08
651.96	40020.82
652.10	39868.69
652.25	39611.23
652.39	39981.03
652.54	40259.55
652.68	40212.74
652.83	40238.49
652.97	39945.92
653.12	40002.10
653.26	39508.24
653.41	40219.77
653.55	39831.24
653.70	39999.76
653.84	40428.07
653.99	39770.38
654.13	39969.33
654.27	39667.40
654.42	39737.62
654.56	39620.59
654.71	39662.72
654.85	39800.81
655.00	39770.38
655.14	39770.38
655.29	39833.58
655.43	40154.23
655.57	39669.74
655.72	39578.46
655.86	39536.33
656.01	39295.25
656.15	39613.57
656.30	39147.80
656.44	39215.68
656.58	39541.01
656.73	39077.58
656.87	39201.63
657.01	39047.16
657.16	39477.82
657.30	39028.43
657.45	39409.94
657.59	39000.35
657.73	38763.95
657.88	39110.35
658.02	39276.53
658.16	39054.18
658.31	38728.84
658.45	39276.53
658.60	38892.68
658.74	39063.54
658.88	38869.28
659.03	38829.49
659.17	38841.19
659.31	38122.65
659.46	38408.19
659.60	38829.49
659.74	38305.21
659.89	38122.65
660.03	37909.66
660.17	38436.28
660.32	38075.84
660.46	38260.74
660.60	38174.14
660.74	38293.50
660.89	38408.19
661.03	37790.29
661.17	37940.08
661.32	37813.70
661.46	37827.74
661.60	37895.61
661.74	37687.31
661.89	37406.44
662.03	37780.93
662.17	37343.25
662.31	37626.45
662.46	37827.74
662.60	37574.96
662.74	37184.09
662.88	37488.36
663.03	37277.71
663.17	36968.76
663.31	37088.13
663.45	37397.08
663.60	37551.56
663.74	36945.36
663.88	37160.69
664.02	36739.39
664.17	37347.93
664.31	36739.39
664.45	37251.97
664.59	36734.71
664.73	36542.78
664.88	36603.64
665.02	36460.87
665.16	36957.06
665.30	36559.17
665.44	36715.98
665.59	36257.24
665.73	36488.95
665.87	35950.63
666.01	36397.67
666.15	36123.83
666.29	36032.55
666.44	36292.35
666.58	35988.08
666.72	36100.42
666.86	35892.12
667.00	35959.99
667.14	36020.84
667.28	35981.06
667.43	36187.02
667.57	35777.43
667.71	35838.28
667.85	35915.52
667.99	35297.62
668.13	35454.44
668.27	35232.08
668.41	35346.77
668.56	35138.46
668.70	35236.77
668.84	35093.99
668.98	34885.68
669.12	34930.16
669.26	34754.61
669.40	34787.38
669.54	35356.13
669.68	35054.20
669.82	35199.32
669.96	34499.50
670.10	34375.45
670.25	34728.87
670.39	34841.21
670.53	34740.57
670.67	34686.74
670.81	34759.30
670.95	34352.04
671.09	34333.32
671.23	33989.26
671.37	34288.85
671.51	34448.00
671.65	34073.52
671.79	34101.61
671.93	33954.15
672.07	34349.70
672.21	33720.10
672.35	33675.63
672.49	33773.93
672.63	33841.81
672.77	33507.11
672.91	33326.89
673.05	33401.79
673.19	33401.79
673.33	33326.89
673.47	33118.58
673.61	33081.13
673.75	32779.20
673.89	32491.32
674.03	32788.56
674.17	32596.64
674.31	32669.20
674.45	32168.32
674.59	32428.12
674.73	32100.45
674.87	32236.20
675.01	32048.96
675.15	31945.97
675.29	31604.25
675.43	32116.83
675.56	31803.20
675.70	31779.79
675.84	31372.54
675.98	30445.69
676.12	31419.35
676.26	31906.18
676.40	31122.10
676.54	31222.75
676.68	31360.84
676.82	30684.42
676.96	30939.54
677.10	31318.71
677.23	30993.37
677.37	30848.26
677.51	30532.29
677.65	30553.35
677.79	30691.44
677.93	30253.76
678.07	30471.43
678.21	30424.62
678.34	30075.88
678.48	30054.82
678.62	29986.94
678.76	29717.78
678.90	29685.01
679.04	29867.58
679.18	29865.24
679.31	29511.81
679.45	29254.36
679.59	29015.62
679.73	29296.49
679.87	29301.17
680.00	28994.56
680.14	29156.05
680.28	28802.63
680.42	28793.27
680.56	28802.63
680.70	28741.78
680.83	28594.32
680.97	28489.00
681.11	28453.89
681.25	27990.47
681.39	27814.93
681.52	27885.14
681.66	27885.14
681.80	27754.07
681.94	27435.76
682.07	27861.74
682.21	27524.70
682.35	27393.63
682.49	27290.65
682.62	27208.73
682.76	26925.52
682.90	27229.79
683.04	26937.23
683.17	26789.77
683.31	26932.54
683.45	26684.45
683.59	26497.20
683.72	26647.00
683.86	26576.78
684.00	26324.01
684.13	26368.48
684.27	26005.69
684.41	25865.26
684.55	26267.83
684.68	25900.37
684.82	25614.82
684.96	25834.83
685.09	25551.63
685.23	25628.87
685.37	25799.73
685.50	26092.29
685.64	25596.10
685.78	25060.12
685.91	25099.90
686.05	25046.07
686.19	24524.13
686.32	24343.91
686.46	24292.42
686.60	24643.50
686.73	24414.13
686.87	24313.48
687.01	24861.17
687.14	24159.01
687.28	23908.57
687.42	23999.85
687.55	24091.13
687.69	24002.19
687.82	23686.22
687.96	23833.68
688.10	23627.71
688.23	23690.90
688.37	23522.38
688.50	23847.72
688.64	23506.00
688.78	23110.45
688.91	23133.86
689.05	23204.07
689.18	22775.75
689.32	22412.97
689.46	22707.88
689.59	22632.98
689.73	22623.62
689.86	22705.54
690.00	22572.13
690.13	22747.67
690.27	22602.55
690.41	22445.74
690.54	22106.36
690.68	22075.93
690.81	21867.63
690.95	21661.66
691.08	21591.44
691.22	21427.60
691.35	21429.94
691.49	21907.41
691.62	21371.43
691.76	21254.40
691.89	20931.41
692.03	20622.46
692.16	20893.96
692.30	20737.15
692.43	20608.42
692.57	20732.47
692.70	20891.62
692.84	20856.51
692.97	20432.88
693.11	20444.58
693.24	20224.57
693.38	19941.36
693.51	19826.68
693.65	20247.97
693.78	20095.84
693.92	19545.81
694.05	19910.94
694.19	19466.24
694.32	19454.53
694.45	20133.29
694.59	19480.28
694.72	19915.62
694.86	19157.28
694.99	19183.03
695.13	19246.23
695.26	19073.03
695.39	18874.08
695.53	18595.56
695.66	18743.01
695.80	18663.43
695.93	18438.74
696.07	18494.91
696.20	18263.20
696.33	18073.62
696.47	18160.22
696.60	18272.56
696.73	18169.58
696.87	18302.99
697.00	18092.34
697.14	17982.34
697.27	17767.01
697.40	17621.89
697.54	17535.29
697.67	17521.25
697.80	17462.74
697.94	17256.77
698.07	17245.07
698.21	17092.93
698.34	17191.23
698.47	17039.10
698.61	16446.94
698.74	17069.53
698.87	16650.57
699.01	16781.64
699.14	16514.82
699.27	16035.01
699.40	16627.17
699.54	16198.85
699.67	16390.77
699.80	16414.18
699.94	16318.22
700.07	16210.55
700.20	15908.62
700.34	16098.20
700.47	16088.84
700.60	16140.33
700.73	15901.60
700.87	15662.86
701.00	15634.78
701.13	15515.41
701.26	15407.75
701.40	15426.47
701.53	15185.40
701.66	15225.18
701.79	15407.75
701.93	14855.38
702.06	14799.21
702.19	14494.94
702.32	14911.55
702.46	14843.68
702.59	14897.51
702.72	15115.18
702.85	14850.70
702.99	14864.74
703.12	14611.96
703.25	14228.12
703.38	14497.28
703.51	14321.74
703.65	14169.60
703.78	13951.93
703.91	13771.71
704.04	13975.34
704.17	13736.60
704.31	13823.20
704.44	13823.20
704.57	13914.48
704.70	13497.87
704.83	13474.46
704.96	13507.23
705.10	13345.73
705.23	13270.84
>>>>>End Processed Spectral Data<<<<<
