SpectraSuite Data File
++++++++++++++++++++++++++++++++++++
Date: Fri Oct 25 11:33:10 EDT 2013
User: price-jones
Dark Spectrum Present: No
Reference Spectrum Present: No
Number of Sampled Component Spectra: 1
Spectrometers: USB2+H05261
Integration Time (usec): 100000 (USB2+H05261)
Spectra Averaged: 1 (USB2+H05261)
Boxcar Smoothing: 0 (USB2+H05261)
Correct for Electrical Dark: No (USB2+H05261)
Strobe/Lamp Enabled: No (USB2+H05261)
Correct for Detector Non-linearity: No (USB2+H05261)
Correct for Stray Light: No (USB2+H05261)
Number of Pixels in Processed Spectrum: 2048
>>>>>Begin Processed Spectral Data<<<<<
365.73	297.25
365.92	297.25
366.12	297.25
366.32	208.31
366.52	187.24
366.72	236.39
366.91	128.73
367.11	81.92
367.31	168.52
367.51	194.26
367.70	100.64
367.90	182.56
368.10	224.69
368.30	117.03
368.49	166.18
368.69	194.26
368.89	196.60
369.09	170.86
369.28	191.92
369.48	173.20
369.68	166.18
369.87	271.50
370.07	203.63
370.27	276.18
370.47	362.78
370.66	409.59
370.86	491.51
371.06	545.34
371.25	547.69
371.45	561.73
371.65	524.28
371.84	463.43
372.04	538.32
372.24	601.52
372.44	554.71
372.63	557.05
372.83	578.11
373.03	566.41
373.22	634.29
373.42	636.63
373.62	589.82
373.81	645.99
374.01	580.45
374.21	683.44
374.40	606.20
374.60	643.65
374.79	643.65
374.99	645.99
375.19	704.50
375.38	711.52
375.58	718.54
375.78	641.31
375.97	653.01
376.17	725.57
376.37	695.14
376.56	760.67
376.76	627.26
376.95	732.59
377.15	748.97
377.35	681.10
377.54	704.50
377.74	711.52
377.93	709.18
378.13	669.39
378.33	711.52
378.52	788.76
378.72	760.67
378.91	758.33
379.11	709.18
379.31	765.36
379.50	610.88
379.70	727.91
379.89	732.59
380.09	760.67
380.28	741.95
380.48	746.63
380.68	695.14
380.87	772.38
381.07	748.97
381.26	807.48
381.46	772.38
381.65	772.38
381.85	690.46
382.04	699.82
382.24	746.63
382.43	765.36
382.63	777.06
382.83	809.83
383.02	880.04
383.22	882.38
383.41	781.74
383.61	826.21
383.80	837.91
384.00	784.08
384.19	849.61
384.39	819.19
384.58	770.04
384.78	791.10
384.97	835.57
385.17	880.04
385.36	851.96
385.56	877.70
385.75	866.00
385.95	851.96
386.14	835.57
386.34	830.89
386.53	868.34
386.72	905.79
386.92	877.70
387.11	861.32
387.31	873.02
387.50	894.08
387.70	912.81
387.89	898.77
388.09	854.30
388.28	858.98
388.48	880.04
388.67	884.72
388.86	840.25
389.06	987.71
389.25	919.83
389.45	968.98
389.64	931.53
389.84	1018.13
390.03	926.85
390.22	924.51
390.42	976.00
390.61	1008.77
390.81	896.43
391.00	1048.56
391.19	1032.18
391.39	973.66
391.58	976.00
391.78	1048.56
391.97	1067.28
392.16	957.28
392.36	1088.35
392.55	1144.52
392.75	1036.86
392.94	1041.54
393.13	1015.79
393.33	1057.92
393.52	1114.10
393.71	1104.73
393.91	1029.84
394.10	1088.35
394.29	976.00
394.49	1114.10
394.68	1203.04
394.88	1142.18
395.07	1064.94
395.26	1135.16
395.46	1256.87
395.65	1219.42
395.84	1200.69
396.04	1256.87
396.23	1170.27
396.42	1146.86
396.62	1219.42
396.81	1231.12
397.00	1193.67
397.19	1217.08
397.39	1233.46
397.58	1259.21
397.77	1268.57
397.97	1233.46
398.16	1352.83
398.35	1249.85
398.55	1238.14
398.74	1277.93
398.93	1277.93
399.12	1329.42
399.32	1338.79
399.51	1315.38
399.70	1380.92
399.90	1413.68
400.09	1317.72
400.28	1394.96
400.47	1362.19
400.67	1416.02
400.86	1453.47
401.05	1434.75
401.24	1504.96
401.44	1455.81
401.63	1533.05
401.82	1441.77
402.01	1406.66
402.21	1441.77
402.40	1514.33
402.59	1610.29
402.78	1507.30
402.97	1589.22
403.17	1500.28
403.36	1582.20
403.55	1556.46
403.74	1575.18
403.93	1572.84
404.13	1629.01
404.32	1694.55
404.51	1621.99
404.70	1645.40
404.89	1607.95
405.09	1661.78
405.28	1664.12
405.47	1640.72
405.66	1769.44
405.85	1741.36
406.05	1699.23
406.24	1795.19
406.43	1778.81
406.62	1746.04
406.81	1811.57
407.00	1764.76
407.20	1802.21
407.39	1767.10
407.58	1877.11
407.77	1858.39
407.96	1902.86
408.15	1839.66
408.34	2012.86
408.54	1991.80
408.73	1907.54
408.92	1933.28
409.11	1902.86
409.30	1973.07
409.49	1980.09
409.68	1959.03
409.87	2010.52
410.07	1952.01
410.26	2092.44
410.45	2076.06
410.64	2045.63
410.83	2136.91
411.02	2193.08
411.21	2270.32
411.40	2228.19
411.59	2242.23
411.78	2230.53
411.98	2193.08
412.17	2317.13
412.36	2167.34
412.55	2312.45
412.74	2342.88
412.93	2347.56
413.12	2359.26
413.31	2452.88
413.50	2396.71
413.69	2389.69
413.88	2408.41
414.07	2516.08
414.26	2520.76
414.45	2602.68
414.64	2396.71
414.83	2562.89
415.02	2663.53
415.22	2665.87
415.41	2642.46
415.60	2738.43
415.79	2796.94
415.98	2750.13
416.17	2712.68
416.36	2710.34
416.55	2773.53
416.74	2747.79
416.93	2806.30
417.12	2883.54
417.31	2984.18
417.50	2953.76
417.69	3073.12
417.88	3066.10
418.07	2935.03
418.26	2916.31
418.45	2981.84
418.64	3089.51
418.83	3002.91
419.02	3005.25
419.21	3026.31
419.39	3201.85
419.58	3108.23
419.77	3103.55
419.96	3087.17
420.15	3066.10
420.34	3162.06
420.53	3262.71
420.72	3183.13
420.91	3356.33
421.10	3251.00
421.29	3211.22
421.48	3220.58
421.67	3197.17
421.86	3365.69
422.05	3351.65
422.24	3344.63
422.43	3349.31
422.61	3452.29
422.80	3433.57
422.99	3564.64
423.18	3419.52
423.37	3496.76
423.56	3541.23
423.75	3496.76
423.94	3438.25
424.13	3164.40
424.32	3358.67
424.50	3517.83
424.69	3520.17
424.88	3543.57
425.07	3316.54
425.26	3396.12
425.45	3480.38
425.64	3501.44
425.83	3513.14
426.01	3473.36
426.20	3552.93
426.39	3564.64
426.58	3557.61
426.77	3555.27
426.96	3655.92
427.15	3606.77
427.33	3667.62
427.52	3494.42
427.71	3714.43
427.90	3761.24
428.09	3674.64
428.28	3632.51
428.46	3782.31
428.65	3707.41
428.84	3789.33
429.03	3843.16
429.22	3733.15
429.40	3803.37
429.59	3775.28
429.78	3684.00
429.97	3625.49
430.16	3698.05
430.34	3805.71
430.53	3859.54
430.72	3824.44
430.91	3962.53
431.10	3716.77
431.28	3875.93
431.47	3901.67
431.66	4182.54
431.85	3929.76
432.03	4133.39
432.22	4140.41
432.41	4025.72
432.60	4126.36
432.79	4079.55
432.97	4234.03
433.16	4187.22
433.35	4060.83
433.54	4252.75
433.72	4215.30
433.91	4156.79
434.10	4327.65
434.28	4217.65
434.47	4297.22
434.66	4344.03
434.85	4318.29
435.03	4358.08
435.22	4337.01
435.41	4414.25
435.59	4447.02
435.78	4390.84
435.97	4498.51
436.16	4451.70
436.34	4486.81
436.53	4580.43
436.72	4620.22
436.90	4381.48
437.09	4425.95
437.28	4582.77
437.46	4533.62
437.65	4512.55
437.84	4603.83
438.02	4587.45
438.21	4606.17
438.40	4531.28
438.58	4751.29
438.77	4805.12
438.96	4671.71
439.14	4954.91
439.33	4858.95
439.52	4863.63
439.70	5081.30
439.89	5219.39
440.08	4990.02
440.26	5116.41
440.45	5041.51
440.63	5160.88
440.82	5446.43
441.01	5142.16
441.19	5167.90
441.38	5195.99
441.57	5322.38
441.75	5460.47
441.94	5411.32
442.12	5362.17
442.31	5526.00
442.50	5355.15
442.68	5502.60
442.87	5547.07
443.05	5544.73
443.24	5551.75
443.43	5479.19
443.61	5633.67
443.80	5886.45
443.98	5540.05
444.17	5336.42
444.35	5720.27
444.54	5631.33
444.73	5741.33
444.91	5682.82
445.10	5729.63
445.28	5628.99
445.47	5474.51
445.65	5607.92
445.84	5951.98
446.02	5870.06
446.21	5909.85
446.39	5596.22
446.58	5781.12
446.77	5926.24
446.95	5572.82
447.14	5863.04
447.32	5914.53
447.51	5928.58
447.69	5746.02
447.88	5994.11
448.06	5811.55
448.25	5713.25
448.43	5933.26
448.62	5921.56
448.80	5736.65
448.99	5923.90
449.17	5790.49
449.36	5802.19
449.54	5984.75
449.73	6038.58
449.91	6195.40
450.10	6228.17
450.28	6136.88
450.46	6242.21
450.65	6099.44
450.83	6307.74
451.02	6387.32
451.20	6223.48
451.39	6202.42
451.57	6141.57
451.76	6167.31
451.94	6237.53
452.13	6289.02
452.31	6370.94
452.49	6157.95
452.68	6494.99
452.86	6272.64
453.05	6387.32
453.23	6338.17
453.42	6265.61
453.60	6392.00
453.78	6586.27
453.97	6408.39
454.15	6443.49
454.34	6270.30
454.52	6590.95
454.70	6745.42
454.89	6574.56
455.07	6691.59
455.26	6670.53
455.44	6764.15
455.62	6595.63
455.81	6738.40
455.99	6867.13
456.17	6750.10
456.36	6803.94
456.54	6956.07
456.73	6998.20
456.91	7080.12
457.09	7108.21
457.28	7117.57
457.46	6970.12
457.64	7040.33
457.83	7258.00
458.01	7087.14
458.19	7194.81
458.38	7332.90
458.56	7255.66
458.74	7234.60
458.93	7321.20
459.11	7265.02
459.29	7007.56
459.48	7424.18
459.66	7283.75
459.84	7377.37
460.03	7478.01
460.21	7398.43
460.39	7419.50
460.57	7576.31
460.76	7606.74
460.94	7541.21
461.12	7599.72
461.31	7775.26
461.49	7370.35
461.67	7536.52
461.85	7662.91
462.04	7616.10
462.22	8086.55
462.40	7843.14
462.59	7878.24
462.77	7878.24
462.95	7960.16
463.13	7765.90
463.32	7833.77
463.50	7939.10
463.68	7974.21
463.86	7925.05
464.05	7824.41
464.23	7925.05
464.41	7812.71
464.59	7957.82
464.78	8269.11
464.96	8116.98
465.14	7943.78
465.32	8067.83
465.50	8100.59
465.69	8299.54
465.87	8241.03
466.05	8201.24
466.23	8238.69
466.41	8446.99
466.60	8297.20
466.78	8184.85
466.96	8383.80
467.14	8259.75
467.32	8332.31
467.51	8327.63
467.69	8451.67
467.87	8341.67
468.05	8395.50
468.23	8524.23
468.41	8451.67
468.60	8297.20
468.78	8657.64
468.96	8594.45
469.14	8704.45
469.32	8746.58
469.50	8484.44
469.69	8716.16
469.87	8812.12
470.05	8805.10
470.23	8884.67
470.41	8901.06
470.59	8762.97
470.77	8795.73
470.95	8884.67
471.14	9125.75
471.32	8954.89
471.50	9214.69
471.68	9078.94
471.86	9383.21
472.04	9261.50
472.22	9533.00
472.40	9153.84
472.58	9383.21
472.77	9413.63
472.95	9572.79
473.13	9755.35
473.31	9373.85
473.49	9441.72
473.67	9701.52
473.85	9584.49
474.03	9926.21
474.21	9771.74
474.39	9867.70
474.57	9785.78
474.75	10085.37
474.93	10047.92
475.12	10073.67
475.30	10150.90
475.48	10139.20
475.66	10068.98
475.84	10136.86
476.02	10246.87
476.20	10342.83
476.38	10459.85
476.56	10703.27
476.74	10757.10
476.92	10700.93
477.10	10754.76
477.28	10937.32
477.46	10883.49
477.64	10998.18
477.82	10897.53
478.00	11255.64
478.18	11143.29
478.36	11424.15
478.54	11559.91
478.72	11552.88
478.90	11599.70
479.08	11627.78
479.26	11875.88
479.44	11943.75
479.62	11569.27
479.80	11885.24
479.98	12091.21
480.16	12236.32
480.34	12173.13
480.52	12205.89
480.70	12198.87
480.88	12215.26
481.06	12521.87
481.24	12465.69
481.41	12802.73
481.59	12774.64
481.77	12751.24
481.95	13415.95
482.13	13184.24
482.31	13001.68
482.49	13488.51
482.67	13614.90
482.85	13647.66
483.03	13701.50
483.21	13706.18
483.39	13977.68
483.57	13760.01
483.74	14083.00
483.92	14295.99
484.10	14031.51
484.28	14387.27
484.46	14717.29
484.64	14930.28
484.82	14602.60
485.00	14820.27
485.18	14941.98
485.35	15091.77
485.53	15180.71
485.71	15311.78
485.89	15459.24
486.07	15445.20
486.25	15721.38
486.43	15716.70
486.61	15946.07
486.78	16039.69
486.96	15922.66
487.14	16212.89
487.32	16336.94
487.50	16741.85
487.68	16601.42
487.85	16681.00
488.03	16851.86
488.21	17165.49
488.39	16950.16
488.57	17174.85
488.75	17603.17
488.92	17776.37
489.10	17762.33
489.28	17582.10
489.46	17958.93
489.64	17909.78
489.81	18045.53
489.99	18649.39
490.17	18377.89
490.35	18883.44
490.53	18995.79
490.70	18775.78
490.88	18862.38
491.06	19019.19
491.24	18764.07
491.41	19454.53
491.59	19414.74
491.77	19426.45
491.95	19700.29
492.13	19655.82
492.30	19807.95
492.48	20159.03
492.66	20114.56
492.84	20194.14
493.01	20393.09
493.19	20416.49
493.37	20409.47
493.54	20697.36
493.72	20552.24
493.90	21088.23
494.08	20870.56
494.25	20982.90
494.43	21495.48
494.61	21565.70
494.79	21586.76
494.96	21500.16
495.14	21757.62
495.32	21998.70
495.49	22075.93
495.67	22204.66
495.85	22291.26
496.02	22183.60
496.20	22525.32
496.38	22806.18
496.55	22682.13
496.73	23140.88
496.91	22761.71
497.09	23014.49
497.26	23356.21
497.44	23166.62
497.62	23555.15
497.79	23351.52
497.97	23489.62
498.14	23742.39
498.32	23924.96
498.50	23573.88
498.67	24374.34
498.85	24151.99
499.03	23894.53
499.20	24364.98
499.38	24383.70
499.56	24844.79
499.73	24772.23
499.91	24760.53
500.08	24854.15
500.26	24584.99
500.44	25060.12
500.61	25296.51
500.79	25088.20
500.97	25167.78
501.14	25748.23
501.32	25422.90
501.49	25558.65
501.67	25678.02
501.84	25872.28
502.02	25771.64
502.20	25647.59
502.37	26265.49
502.55	26101.65
502.72	25839.51
502.90	26476.14
503.07	26129.74
503.25	26272.51
503.43	26370.82
503.60	26415.29
503.78	26637.64
503.95	26373.16
504.13	26867.01
504.30	27058.93
504.48	26850.63
504.65	27274.26
504.83	27438.10
505.01	27136.17
505.18	27466.19
505.36	27938.97
505.53	27740.03
505.71	27957.70
505.88	27838.33
506.06	27466.19
506.23	27744.71
506.41	27866.42
506.58	28215.16
506.76	28037.28
506.93	28606.03
507.11	28208.14
507.28	28383.68
507.46	28374.31
507.63	28664.54
507.81	28687.95
507.98	28730.08
508.16	28814.34
508.33	28924.34
508.50	28910.30
508.68	29043.71
508.85	29305.85
509.03	29200.52
509.20	29221.59
509.38	29832.47
509.55	29708.42
509.73	29450.96
509.90	29865.24
510.08	29362.02
510.25	29848.85
510.42	29727.14
510.60	29841.83
510.77	30127.38
510.95	30197.59
511.12	30122.69
511.30	30691.44
511.47	30558.03
511.64	30206.95
511.82	30754.64
511.99	30806.13
512.17	30803.79
512.34	30778.04
512.51	31033.16
512.69	30991.03
512.86	31110.40
513.04	31178.28
513.21	31232.11
513.38	31634.68
513.56	31363.18
513.73	31562.12
513.90	31517.65
514.08	31358.50
514.25	31346.79
514.43	31730.64
514.60	31784.48
514.77	31686.17
514.95	32002.14
515.12	31782.13
515.29	31901.50
515.47	32741.75
515.64	32444.51
515.81	32404.72
515.99	32772.18
516.16	32931.34
516.33	32975.81
516.51	33130.28
516.68	33139.65
516.85	32947.72
517.03	33097.52
517.20	32982.83
517.37	32823.67
517.54	33006.23
517.72	33570.30
517.89	33343.27
518.06	33338.59
518.24	33205.18
518.41	33909.68
518.58	33514.13
518.75	33249.65
518.93	33867.55
519.10	33474.34
519.27	33715.42
519.45	33816.06
519.62	34471.41
519.79	34263.10
519.96	33752.87
520.14	34377.79
520.31	34141.39
520.48	34738.23
520.65	34408.22
520.83	34693.76
521.00	34948.88
521.17	34359.06
521.34	34902.07
521.52	34520.56
521.69	34602.48
521.86	34838.87
522.03	35047.18
522.20	35318.68
522.38	35089.31
522.55	35466.14
522.72	35409.96
522.89	35597.21
523.07	35798.49
523.24	35648.70
523.41	35847.64
523.58	35082.29
523.75	35981.06
523.92	35842.96
524.10	36048.93
524.27	36041.91
524.44	36201.07
524.61	36175.32
524.78	36243.20
524.96	36107.44
525.13	36615.34
525.30	36400.01
525.47	36931.31
525.64	36362.56
525.81	36266.60
525.98	36739.39
526.16	36512.36
526.33	36435.12
526.50	37317.50
526.67	36273.62
526.84	37036.64
527.01	37160.69
527.18	37453.25
527.36	37134.94
527.53	37097.49
527.70	37589.00
527.87	37722.41
528.04	37048.34
528.21	37619.43
528.38	37874.55
528.55	37755.18
528.72	37567.94
528.89	37904.98
529.07	37420.48
529.24	37745.82
529.41	38120.31
529.58	37979.87
529.75	37598.37
529.92	38007.96
530.09	37851.14
530.26	37830.08
530.43	38155.41
530.60	37771.57
530.77	38426.92
530.94	38087.54
531.11	38546.28
531.28	38054.77
531.46	38787.36
531.63	38433.94
531.80	38639.90
531.97	39173.55
532.14	38998.01
532.31	38778.00
532.48	39042.48
532.65	39110.35
532.82	38916.09
532.99	39187.59
533.16	38686.71
533.33	39349.09
533.50	39232.06
533.67	39206.31
533.84	39480.16
534.01	39271.85
534.18	39608.89
534.35	39531.65
534.52	39929.54
534.69	39725.91
534.86	39660.38
535.03	39807.83
535.20	39800.81
535.37	39835.92
535.54	39866.34
535.71	39445.05
535.88	40308.71
536.05	40217.43
536.22	40198.70
536.38	40128.48
536.55	39966.99
536.72	40418.71
536.89	39971.67
537.06	40233.81
537.23	40722.98
537.40	40334.45
537.57	40205.72
537.74	40271.26
537.91	40573.19
538.08	40692.55
538.25	40570.85
538.42	40432.75
538.59	40720.64
538.75	40596.59
538.92	40868.09
539.09	41315.14
539.26	41280.03
539.43	40481.91
539.60	41324.50
539.77	40643.40
539.94	41113.85
540.11	41324.50
540.28	41467.27
540.44	41090.44
540.61	41387.69
540.78	41207.47
540.95	41006.19
541.12	41530.47
541.29	41357.27
541.46	41638.13
541.62	41696.64
541.79	41563.23
541.96	40961.72
542.13	41413.44
542.30	41497.70
542.47	41661.54
542.63	41942.40
542.80	41603.02
542.97	42218.58
543.14	42326.25
543.31	42115.60
543.48	42443.27
543.64	42623.50
543.81	42387.10
543.98	42466.68
544.15	41926.02
544.32	42583.71
544.48	43182.88
544.65	42983.94
544.82	42918.40
544.99	42529.87
545.16	43068.20
545.32	42148.37
545.49	43332.68
545.66	43564.39
545.83	42969.90
546.00	43311.61
546.16	42885.64
546.33	42740.52
546.50	42845.85
546.67	42845.85
546.83	43093.94
547.00	43292.89
547.17	43587.80
547.34	42838.83
547.50	43379.49
547.67	43466.09
547.84	43323.32
548.00	43409.92
548.17	43863.98
548.34	43487.15
548.51	43955.26
548.67	43225.01
548.84	43545.67
549.01	43475.45
549.18	43524.60
549.34	43856.96
549.51	43838.23
549.68	43861.64
549.84	43604.18
550.01	43948.24
550.18	43704.82
550.34	44208.04
550.51	44226.76
550.68	44091.01
550.84	43995.05
551.01	44285.28
551.18	44456.14
551.34	44615.29
551.51	43899.09
551.68	44481.88
551.84	44051.22
552.01	44121.44
552.18	44208.04
552.34	44222.08
552.51	44376.56
552.68	44423.37
552.84	44320.38
553.01	44566.14
553.18	44486.56
553.34	44701.89
553.51	44395.28
553.67	44762.75
553.84	45191.06
554.01	45158.30
554.17	44624.65
554.34	44938.29
554.51	44542.74
554.67	45146.59
554.84	44964.03
555.00	44870.41
555.17	45219.15
555.33	45059.99
555.50	45546.82
555.67	45010.84
555.83	44807.22
556.00	45057.65
556.16	45413.41
556.33	45439.16
556.50	45689.60
556.66	45184.04
556.83	45598.32
556.99	45310.43
557.16	45659.17
557.32	45694.28
557.49	45778.54
557.65	45603.00
557.82	45600.66
557.98	45727.05
558.15	45315.11
558.32	45467.25
558.48	45404.05
558.65	45673.21
558.81	45860.46
558.98	45467.25
559.14	45315.11
559.31	46064.08
559.47	45455.54
559.64	46085.15
559.80	45736.41
559.97	46211.54
560.13	45968.12
560.30	46162.39
560.46	46497.08
560.63	46389.42
560.79	46234.94
560.96	46237.28
561.12	46445.59
561.29	46174.09
561.45	46110.89
561.61	46124.94
561.78	46122.60
561.94	46007.91
562.11	46115.58
562.27	45701.30
562.44	46487.72
562.60	46422.19
562.77	45965.78
562.93	46127.28
563.10	46328.56
563.26	46075.79
563.42	46770.93
563.59	46064.08
563.75	46298.14
563.92	46534.53
564.08	46174.09
564.24	46110.89
564.41	46789.65
564.57	46309.84
564.74	46693.69
564.90	46225.58
565.07	46550.91
565.23	46190.47
565.39	46279.41
565.56	46885.61
565.72	46307.50
565.88	46490.06
566.05	46960.51
566.21	46791.99
566.38	47049.45
566.54	46923.06
566.70	46799.01
566.87	46763.90
567.03	47009.66
567.19	46693.69
567.36	46616.45
567.52	46595.38
567.68	47295.21
567.85	46894.97
568.01	46902.00
568.17	46848.16
568.34	47122.01
568.50	47033.07
568.66	46473.68
568.83	47122.01
568.99	46958.17
569.15	46918.38
569.32	46801.35
569.48	47215.63
569.64	46902.00
569.81	47421.59
569.97	47264.78
570.13	47264.78
570.30	46689.01
570.46	47112.64
570.62	47004.98
570.78	47136.05
570.95	47019.02
571.11	46925.40
571.27	46618.79
571.43	47152.43
571.60	47285.84
571.76	47246.05
571.92	47159.45
572.09	47409.89
572.25	47103.28
572.41	46946.47
572.57	47264.78
572.74	47793.74
572.90	47047.11
573.06	47051.79
573.22	47299.89
573.38	47344.36
573.55	47267.12
573.71	47723.52
573.87	47676.71
574.03	47313.93
574.20	47330.31
574.36	47243.71
574.52	47437.98
574.68	47150.09
574.84	47681.39
575.01	47583.09
575.17	47681.39
575.33	47175.84
575.49	47419.25
575.65	47674.37
575.82	47435.64
575.98	47349.04
576.14	47555.00
576.30	47578.41
576.46	47363.08
576.62	47899.06
576.79	47445.00
576.95	47239.03
577.11	46869.23
577.27	47384.15
577.43	47388.83
577.59	47276.48
577.75	47356.06
577.92	47297.55
578.08	47316.27
578.24	47274.14
578.40	47854.59
578.56	47337.33
578.72	47498.83
578.88	47512.88
579.04	47753.95
579.21	47545.64
579.37	47550.32
579.53	47384.15
579.69	47047.11
579.85	47304.57
580.01	47552.66
580.17	47445.00
580.33	47896.72
580.49	47524.58
580.65	47880.34
580.82	47468.40
580.98	47409.89
581.14	47157.11
581.30	47861.61
581.46	47407.55
581.62	47400.53
581.78	47236.69
581.94	47730.54
582.10	47334.99
582.26	47971.62
582.42	47922.47
582.58	47391.17
582.74	47831.19
582.90	47849.91
583.06	47997.37
583.22	47693.10
583.38	47686.07
583.54	47725.86
583.70	47601.82
583.86	48039.50
584.02	47573.73
584.18	48098.01
584.34	47512.88
584.50	47936.51
584.66	47775.02
584.82	47760.97
584.98	48355.47
585.14	47760.97
585.30	47674.37
585.46	47459.04
585.62	47529.26
585.78	48065.24
585.94	47494.15
586.10	47863.96
586.26	47625.22
586.42	47915.45
586.58	47379.46
586.74	48006.73
586.90	47550.32
587.06	47173.50
587.22	48090.99
587.38	47983.32
587.54	48072.26
587.70	48163.54
587.86	48034.81
588.02	48058.22
588.18	48100.35
588.34	47985.66
588.49	48009.07
588.65	47917.79
588.81	48009.07
588.97	48690.16
589.13	47641.60
589.29	47590.11
589.45	48177.59
589.61	47922.47
589.77	48212.70
589.93	48226.74
590.08	48264.19
590.24	48109.71
590.40	48708.89
590.56	48540.37
590.72	48329.72
590.88	48186.95
591.04	48273.55
591.20	48528.67
591.35	48676.12
591.51	49031.88
591.67	47824.17
591.83	48882.09
591.99	48217.38
592.15	48458.45
592.31	48030.13
592.46	48135.46
592.62	47908.43
592.78	48406.96
592.94	48655.06
593.10	48671.44
593.26	48713.57
593.41	48575.48
593.57	48783.79
593.73	48657.40
593.89	48678.46
594.05	48671.44
594.20	48308.66
594.36	48582.50
594.52	48617.61
594.68	48697.19
594.84	48360.15
594.99	48587.18
595.15	48474.84
595.31	48575.48
595.47	48523.99
595.62	48411.64
595.78	48238.44
595.94	49008.48
596.10	48210.35
596.25	48795.49
596.41	48732.29
596.57	48692.50
596.73	48718.25
596.88	48603.56
597.04	48652.72
597.20	48669.10
597.36	48633.99
597.51	48570.80
597.67	48364.83
597.83	48612.93
597.99	49104.44
598.14	48633.99
598.30	48591.86
598.46	48800.17
598.61	48758.04
598.77	48650.38
598.93	48687.82
599.09	48533.35
599.24	48931.24
599.40	48669.10
599.56	48694.85
599.71	49151.25
599.87	49319.77
600.03	48917.20
600.18	48949.96
600.34	48711.23
600.50	48753.36
600.65	48992.09
600.81	48807.19
600.97	49174.66
601.12	48690.16
601.28	48992.09
601.44	48643.35
601.59	48959.33
601.75	48636.33
601.91	48870.39
602.06	48488.88
602.22	49052.95
602.37	48573.14
602.53	48865.70
602.69	48844.64
602.84	48818.89
603.00	48783.79
603.16	48734.63
603.31	48720.59
603.47	48760.38
603.62	48664.42
603.78	48985.07
603.94	48584.84
604.09	49013.16
604.25	48861.02
604.40	48516.96
604.56	48772.08
604.71	49027.20
604.87	49050.61
605.03	48570.80
605.18	48949.96
605.34	49020.18
605.49	48528.67
605.65	48804.85
605.80	48638.67
605.96	48481.86
606.12	48584.84
606.27	48596.54
606.43	48322.70
606.58	48357.81
606.74	48655.06
606.89	48680.80
607.05	48889.11
607.20	48753.36
607.36	48755.70
607.51	48718.25
607.67	48364.83
607.82	48413.98
607.98	48680.80
608.13	48229.08
608.29	48303.98
608.44	48320.36
608.60	48406.96
608.75	48713.57
608.91	48559.09
609.06	48282.91
609.22	48868.05
609.37	48413.98
609.53	48652.72
609.68	49081.03
609.84	48376.53
609.99	48165.88
610.15	48144.82
610.30	48519.31
610.46	48322.70
610.61	48655.06
610.76	48746.34
610.92	48116.73
611.07	47950.56
611.23	48463.13
611.38	48282.91
611.54	48851.66
611.69	48416.32
611.84	48741.66
612.00	47988.00
612.15	48177.59
612.31	48385.89
612.46	48231.42
612.62	47997.37
612.77	48294.61
612.92	48453.77
613.08	48229.08
613.23	48608.25
613.39	47826.51
613.54	47737.57
613.69	48292.27
613.85	47842.89
614.00	47964.60
614.15	48423.34
614.31	47831.19
614.46	48273.55
614.62	47749.27
614.77	47679.05
614.92	48135.46
615.08	47894.38
615.23	47957.58
615.38	48259.51
615.54	48046.52
615.69	47854.59
615.84	47557.35
616.00	47796.08
616.15	47866.30
616.30	48144.82
616.46	47569.05
616.61	47913.11
616.76	47840.55
616.92	48205.67
617.07	47924.81
617.22	47934.17
617.37	47615.86
617.53	47934.17
617.68	47501.17
617.83	48016.09
617.99	47648.63
618.14	47934.17
618.29	48011.41
618.45	47405.21
618.60	47887.36
618.75	47096.26
618.90	47524.58
619.06	47725.86
619.21	47435.64
619.36	47725.86
619.51	47512.88
619.67	47054.13
619.82	47517.56
619.97	47697.78
620.12	47723.52
620.28	47433.30
620.43	47353.72
620.58	47660.33
620.73	47505.85
620.89	47817.14
621.04	47498.83
621.19	47730.54
621.34	47618.20
621.49	47491.81
621.65	47103.28
621.80	47285.84
621.95	47297.55
622.10	47543.30
622.25	47606.50
622.41	46962.85
622.56	47019.02
622.71	47475.43
622.86	47501.17
623.01	47573.73
623.16	47009.66
623.32	46972.21
623.47	47063.49
623.62	46803.69
623.77	47009.66
623.92	47077.54
624.07	47342.02
624.23	47262.44
624.38	47023.70
624.53	46986.25
624.68	46581.34
624.83	46822.42
624.98	47026.04
625.13	46513.47
625.29	46415.16
625.44	46546.23
625.59	46829.44
625.74	46178.77
625.89	46642.20
626.04	46522.83
626.19	46398.78
626.34	46450.27
626.49	46429.21
626.65	46363.67
626.80	46897.31
626.95	46019.61
627.10	46131.96
627.25	46422.19
627.40	46660.92
627.55	46579.00
627.70	46473.68
627.85	46728.80
628.00	46380.06
628.15	46183.45
628.30	45909.61
628.45	46120.26
628.60	45617.04
628.76	46286.43
628.91	45914.29
629.06	46134.30
629.21	45675.55
629.36	46410.48
629.51	46073.45
629.66	46454.95
629.81	46445.59
629.96	46120.26
630.11	46064.08
630.26	45621.72
630.41	45851.09
630.56	46005.57
630.71	45942.38
630.86	45628.74
631.01	45462.57
631.16	45446.18
631.31	45815.99
631.46	45745.77
631.61	46181.11
631.76	45984.51
631.91	45691.94
632.06	46291.12
632.21	45839.39
632.36	46363.67
632.51	45048.29
632.66	45874.50
632.81	45500.01
632.96	45755.13
633.10	45258.94
633.25	45434.48
633.40	45600.66
633.55	46136.64
633.70	45375.97
633.85	45713.00
634.00	45467.25
634.15	45586.61
634.30	45366.60
634.45	45015.52
634.60	45228.51
634.75	45780.88
634.90	45387.67
635.05	45382.99
635.19	45200.43
635.34	45230.85
635.49	45373.63
635.64	45125.53
635.79	45317.45
635.94	45439.16
636.09	45226.17
636.24	45282.34
636.39	45359.58
636.53	45172.34
636.68	44905.52
636.83	44809.56
636.98	44779.13
637.13	44727.64
637.28	44594.23
637.43	44507.63
637.57	45244.90
637.72	44332.09
637.87	44596.57
638.02	45064.67
638.17	44781.47
638.32	44425.71
638.46	44425.71
638.61	44516.99
638.76	44573.16
638.91	44327.41
639.06	44079.31
639.20	43931.86
639.35	44474.86
639.50	44172.93
639.65	44390.60
639.80	44524.01
639.94	44875.09
640.09	44224.42
640.24	44182.29
640.39	44219.74
640.54	43723.55
640.68	44250.17
640.83	44538.05
640.98	44502.95
641.13	43819.51
641.27	44617.63
641.42	44332.09
641.57	43770.36
641.72	44149.53
641.86	43826.53
642.01	43615.88
642.16	44065.27
642.31	43299.91
642.45	44254.85
642.60	43796.10
642.75	43810.15
642.90	43985.69
643.04	44147.18
643.19	43828.87
643.34	43508.22
643.48	43487.15
643.63	43641.63
643.78	43716.53
643.93	43817.17
644.07	43735.25
644.22	43693.12
644.37	43299.91
644.51	43831.21
644.66	43489.49
644.81	43550.35
644.95	44105.06
645.10	43854.62
645.25	43051.81
645.39	43335.02
645.54	43395.87
645.69	43203.95
645.83	43217.99
645.98	43398.21
646.13	42792.01
646.27	43007.34
646.42	42948.83
646.57	43281.19
646.71	43414.60
646.86	43409.92
647.00	43210.97
647.15	43236.72
647.30	43405.23
647.44	43133.73
647.59	42703.07
647.74	43068.20
647.88	43203.95
648.03	43463.75
648.17	43274.16
648.32	43136.07
648.47	43203.95
648.61	42988.62
648.76	42883.30
648.90	43049.47
649.05	42693.71
649.20	43187.56
649.34	42909.04
649.49	42590.73
649.63	42892.66
649.78	42880.95
649.92	43058.84
650.07	43524.60
650.21	43072.88
650.36	42986.28
650.51	42883.30
650.65	42855.21
650.80	43173.52
650.94	42419.87
651.09	42574.34
651.23	42583.71
651.38	42553.28
651.52	42312.20
651.67	42267.73
651.81	42923.08
651.96	42178.79
652.10	42218.58
652.25	42396.46
652.39	42153.05
652.54	42323.91
652.68	42150.71
652.83	42227.95
652.97	42021.98
653.12	42251.35
653.26	42286.46
653.41	41904.95
653.55	42181.13
653.70	42347.31
653.84	42527.53
653.99	42380.08
654.13	42277.10
654.27	41811.33
654.42	42305.18
654.56	42405.83
654.71	41914.31
654.85	42506.47
655.00	42108.58
655.14	41748.14
655.29	42361.36
655.43	41794.95
655.57	41914.31
655.72	41713.03
655.86	41549.19
656.01	41640.47
656.15	41502.38
656.30	41422.80
656.44	41511.74
656.58	41357.27
656.73	41511.74
656.87	41366.63
657.01	41352.58
657.16	42344.97
657.30	41469.61
657.45	41441.53
657.59	40964.06
657.73	41017.89
657.88	41057.68
658.02	41354.93
658.16	41872.18
658.31	41378.33
658.45	41511.74
658.60	41001.50
658.74	41294.07
658.88	41443.87
659.03	41060.02
659.17	40940.65
659.31	40444.46
659.46	40825.96
659.60	41256.62
659.74	40697.24
659.89	40472.54
660.03	40395.31
660.17	40938.31
660.32	40603.61
660.46	40580.21
660.60	40245.51
660.74	40495.95
660.89	40294.66
661.03	39873.37
661.17	40149.55
661.32	39817.19
661.46	40105.08
661.60	40006.78
661.74	40037.20
661.89	40065.29
662.03	40130.83
662.17	39683.78
662.31	39810.17
662.46	39880.39
662.60	39725.91
662.74	39700.17
662.88	39571.44
663.03	39590.16
663.17	39356.11
663.31	39215.68
663.45	39494.20
663.60	39882.73
663.74	39313.98
663.88	39541.01
664.02	39082.27
664.17	39803.15
664.31	38946.51
664.45	38962.90
664.59	39164.18
664.73	38960.56
664.88	39316.32
665.02	39264.83
665.16	38677.35
665.30	38724.16
665.44	38532.24
665.59	38450.32
665.73	38429.26
665.87	38590.75
666.01	38696.08
666.15	38412.87
666.29	38562.67
666.44	38649.27
666.58	38710.12
666.72	38408.19
666.86	37755.18
667.00	38043.07
667.14	37961.15
667.28	37853.48
667.43	38148.39
667.57	38635.22
667.71	38234.99
667.85	38220.95
667.99	38167.12
668.13	37968.17
668.27	37443.89
668.41	37427.51
668.56	37095.15
668.70	37837.10
668.84	36713.64
668.98	37191.11
669.12	37518.79
669.26	37429.85
669.40	36919.61
669.54	37399.42
669.68	37284.73
669.82	36863.44
669.96	36662.15
670.10	36376.61
670.25	36769.82
670.39	36552.15
670.53	36879.82
670.67	36851.73
670.81	36886.84
670.95	36290.01
671.09	36524.06
671.23	36165.96
671.37	36378.95
671.51	36339.16
671.65	36105.10
671.79	36030.21
671.93	36318.09
672.07	36673.85
672.21	35772.75
672.35	35644.02
672.49	36165.96
672.63	35882.75
672.77	35332.73
672.91	35552.74
673.05	35501.25
673.19	35248.47
673.33	35086.97
673.47	35145.48
673.61	34593.12
673.75	34927.81
673.89	34785.04
674.03	34976.97
674.17	34621.20
674.31	34635.25
674.45	34380.13
674.59	34555.67
674.73	34309.91
674.87	34220.97
675.01	34174.16
675.15	33809.04
675.29	33734.14
675.43	34033.73
675.56	34054.79
675.70	34050.11
675.84	33949.47
675.98	33092.83
676.12	33785.63
676.26	33663.93
676.40	33539.88
676.54	33034.32
676.68	33401.79
676.82	32657.49
676.96	33081.13
677.10	33048.36
677.23	32608.34
677.37	32730.05
677.51	32730.05
677.65	32613.02
677.79	32378.97
677.93	32315.78
678.07	32486.64
678.21	31737.66
678.34	31800.86
678.48	32086.40
678.62	32222.16
678.76	31683.83
678.90	31615.96
679.04	31894.48
679.18	31842.99
679.31	31484.89
679.45	31199.34
679.59	31309.35
679.73	30878.69
679.87	30794.43
680.00	31187.64
680.14	31129.12
680.28	30625.91
680.42	30438.67
680.56	30731.23
680.70	30429.30
680.83	29876.94
680.97	29968.22
681.11	30008.01
681.25	30141.42
681.39	29757.57
681.52	29841.83
681.66	29699.06
681.80	29179.46
681.94	29610.12
682.07	29174.78
682.21	29020.30
682.35	29165.42
682.49	29041.37
682.62	29055.41
682.76	29322.23
682.90	28917.32
683.04	29020.30
683.17	28868.17
683.31	28687.95
683.45	28112.17
683.59	27955.36
683.72	28287.71
683.86	28203.46
684.00	28257.29
684.13	28332.18
684.27	27864.08
684.41	27946.00
684.55	27946.00
684.68	27803.22
684.82	27363.20
684.96	27428.74
685.09	27283.62
685.23	27417.04
685.37	27573.85
685.50	27236.81
685.64	27274.26
685.78	26841.26
685.91	26766.37
686.05	26328.69
686.19	26204.64
686.32	26096.97
686.46	25827.81
686.60	25977.61
686.73	26064.21
686.87	25783.34
687.01	26263.15
687.14	25516.52
687.28	25652.27
687.42	25699.08
687.55	25177.14
687.69	25813.77
687.82	25453.33
687.96	25027.35
688.10	24891.60
688.23	25186.50
688.37	25289.49
688.50	25219.27
688.64	25228.63
688.78	24643.50
688.91	24788.61
689.05	24812.02
689.18	24297.10
689.32	23941.34
689.46	24034.96
689.59	24222.20
689.73	24198.80
689.86	24147.31
690.00	24222.20
690.13	24196.46
690.27	23747.08
690.41	23655.79
690.54	23393.65
690.68	23276.63
690.81	23604.30
690.95	23377.27
691.08	23049.60
691.22	22764.05
691.35	22932.57
691.49	22869.37
691.62	23136.20
691.76	22588.51
691.89	22590.85
692.03	22314.67
692.16	22111.04
692.30	21907.41
692.43	21865.28
692.57	21855.92
692.70	22052.53
692.84	21872.31
692.97	21741.24
693.11	22118.06
693.24	21259.09
693.38	21167.80
693.51	21151.42
693.65	21043.76
693.78	21193.55
693.92	21216.96
694.05	21177.17
694.19	20964.18
694.32	20805.02
694.45	21158.44
694.59	20805.02
694.72	20793.32
694.86	20812.04
694.99	20418.83
695.13	20287.76
695.26	19960.09
695.39	20002.22
695.53	20093.50
695.66	19915.62
695.80	19845.40
695.93	20130.95
696.07	19342.19
696.20	19449.85
696.33	19089.41
696.47	19110.47
696.60	19288.35
696.73	19358.57
696.87	19171.33
697.00	19264.95
697.14	19283.67
697.27	18958.34
697.40	19044.94
697.54	19016.85
697.67	18850.67
697.80	18775.78
697.94	18293.63
698.07	18302.99
698.21	18373.21
698.34	18515.98
698.47	18050.21
698.61	17788.07
698.74	18118.09
698.87	17783.39
699.01	17694.45
699.14	17558.70
699.27	17884.03
699.40	17600.83
699.54	17673.39
699.67	17413.59
699.80	17247.41
699.94	17205.28
700.07	17116.34
700.20	17158.47
700.34	16973.56
700.47	17071.87
700.60	17062.51
700.73	17165.49
700.87	16709.08
701.00	16381.41
701.13	16512.48
701.26	16620.14
701.40	16374.39
701.53	16051.39
701.66	16278.43
701.79	16374.39
701.93	15772.87
702.06	15704.99
702.19	15543.50
702.32	15925.00
702.46	15709.68
702.59	15903.94
702.72	15786.91
702.85	15779.89
702.99	15803.30
703.12	15456.90
703.25	15112.84
703.38	15080.07
703.51	15140.93
703.65	14806.23
703.78	14801.55
703.91	14633.03
704.04	14822.61
704.17	14750.06
704.31	14864.74
704.44	14665.80
704.57	14595.58
704.70	14611.96
704.83	14530.05
704.96	14293.65
705.10	14324.08
705.23	14071.30
>>>>>End Processed Spectral Data<<<<<
