SpectraSuite Data File
++++++++++++++++++++++++++++++++++++
Date: Fri Oct 25 10:48:34 EDT 2013
User: price-jones
Dark Spectrum Present: No
Reference Spectrum Present: No
Number of Sampled Component Spectra: 1
Spectrometers: USB2+H05261
Integration Time (usec): 100000 (USB2+H05261)
Spectra Averaged: 1 (USB2+H05261)
Boxcar Smoothing: 0 (USB2+H05261)
Correct for Electrical Dark: No (USB2+H05261)
Strobe/Lamp Enabled: No (USB2+H05261)
Correct for Detector Non-linearity: No (USB2+H05261)
Correct for Stray Light: No (USB2+H05261)
Number of Pixels in Processed Spectrum: 2048
>>>>>Begin Processed Spectral Data<<<<<
365.73	198.95
365.92	198.95
366.12	198.95
366.32	105.32
366.52	28.09
366.72	21.06
366.91	42.13
367.11	49.15
367.31	49.15
367.51	70.22
367.70	16.38
367.90	98.30
368.10	51.49
368.30	23.41
368.49	11.70
368.69	16.38
368.89	74.90
369.09	84.26
369.28	98.30
369.48	49.15
369.68	117.03
369.87	53.83
370.07	114.69
370.27	177.88
370.47	255.12
370.66	423.64
370.86	482.15
371.06	528.96
371.25	477.47
371.45	526.62
371.65	547.69
371.84	451.72
372.04	491.51
372.24	603.86
372.44	428.32
372.63	554.71
372.83	526.62
373.03	550.03
373.22	629.60
373.42	580.45
373.62	566.41
373.81	550.03
374.01	627.26
374.21	589.82
374.40	557.05
374.60	667.05
374.79	615.56
374.99	667.05
375.19	667.05
375.38	695.14
375.58	688.12
375.78	690.46
375.97	671.73
376.17	660.03
376.37	709.18
376.56	624.92
376.76	697.48
376.95	699.82
377.15	692.80
377.35	650.67
377.54	716.20
377.74	669.39
377.93	737.27
378.13	660.03
378.33	765.36
378.52	711.52
378.72	697.48
378.91	751.31
379.11	685.78
379.31	702.16
379.50	685.78
379.70	711.52
379.89	753.65
380.09	704.50
380.28	671.73
380.48	765.36
380.68	744.29
380.87	692.80
381.07	741.95
381.26	711.52
381.46	725.57
381.65	748.97
381.85	772.38
382.04	753.65
382.24	748.97
382.43	746.63
382.63	709.18
382.83	753.65
383.02	868.34
383.22	774.72
383.41	809.83
383.61	793.44
383.80	781.74
384.00	770.04
384.19	784.08
384.39	800.46
384.58	828.55
384.78	816.85
384.97	887.06
385.17	800.46
385.36	826.21
385.56	835.57
385.75	842.59
385.95	821.53
386.14	957.28
386.34	901.11
386.53	837.91
386.72	835.57
386.92	898.77
387.11	978.34
387.31	947.92
387.50	901.11
387.70	863.66
387.89	908.13
388.09	966.64
388.28	1008.77
388.48	950.26
388.67	943.24
388.86	992.39
389.06	985.37
389.25	1067.28
389.45	950.26
389.64	992.39
389.84	1020.47
390.03	1081.33
390.22	1142.18
390.42	1088.35
390.61	1006.43
390.81	1109.41
391.00	1095.37
391.19	1165.59
391.39	1048.56
391.58	1132.82
391.78	1118.78
391.97	1102.39
392.16	999.41
392.36	1109.41
392.55	1053.24
392.75	1114.10
392.94	1018.13
393.13	1036.86
393.33	1039.20
393.52	1090.69
393.71	1128.14
393.91	1235.80
394.10	1221.76
394.29	1132.82
394.49	1203.04
394.68	1294.32
394.88	1235.80
395.07	1284.95
395.26	1273.25
395.46	1273.25
395.65	1266.23
395.84	1320.06
396.04	1331.76
396.23	1259.21
396.42	1235.80
396.62	1270.91
396.81	1219.42
397.00	1301.34
397.19	1341.13
397.39	1324.74
397.58	1390.28
397.77	1284.95
397.97	1511.99
398.16	1486.24
398.35	1444.11
398.55	1568.16
398.74	1591.56
398.93	1579.86
399.12	1502.62
399.32	1617.31
399.51	1568.16
399.70	1638.38
399.90	1692.21
400.09	1680.50
400.28	1790.51
400.47	1694.55
400.67	1724.97
400.86	1710.93
401.05	1753.06
401.24	1666.46
401.44	1748.38
401.63	1753.06
401.82	1783.49
402.01	1722.63
402.21	1858.39
402.40	1806.89
402.59	1884.13
402.78	1825.62
402.97	1825.62
403.17	1891.15
403.36	1921.58
403.55	1834.98
403.74	2087.76
403.93	1956.69
404.13	2010.52
404.32	2005.84
404.51	1916.90
404.70	1984.77
404.89	1973.07
405.09	2052.65
405.28	2043.29
405.47	2054.99
405.66	2094.78
405.85	2052.65
406.05	2080.74
406.24	2127.55
406.43	2260.96
406.62	2207.13
406.81	2211.81
407.00	2111.16
407.20	2148.61
407.39	2160.31
407.58	2289.04
407.77	2214.15
407.96	2296.07
408.15	2340.54
408.34	2413.09
408.54	2413.09
408.73	2319.47
408.92	2415.43
409.11	2401.39
409.30	2361.60
409.49	2284.36
409.68	2415.43
409.87	2499.69
410.07	2497.35
410.26	2509.05
410.45	2485.65
410.64	2511.39
410.83	2558.21
411.02	2693.96
411.21	2668.21
411.40	2600.34
411.59	2712.68
411.78	2619.06
411.98	2651.83
412.17	2661.19
412.36	2759.49
412.55	2675.23
412.74	2815.66
412.93	2775.88
413.12	2904.60
413.31	3000.57
413.50	2839.07
413.69	2974.82
413.88	2928.01
414.07	2911.63
414.26	3075.46
414.45	3150.36
414.64	3070.78
414.83	3087.17
415.02	3136.32
415.22	3241.64
415.41	3248.66
415.60	3351.65
415.79	3281.43
415.98	3225.26
416.17	3403.14
416.36	3363.35
416.55	3309.52
416.74	3316.54
416.93	3318.88
417.12	3438.25
417.31	3400.80
417.50	3372.71
417.69	3480.38
417.88	3552.93
418.07	3475.70
418.26	3473.36
418.45	3574.00
418.64	3679.32
418.83	3712.09
419.02	3606.77
419.21	3789.33
419.39	3674.64
419.58	3726.13
419.77	3655.92
419.96	3770.60
420.15	3768.26
420.34	3742.52
420.53	3852.52
420.72	3868.91
420.91	3892.31
421.10	4060.83
421.29	3955.51
421.48	3971.89
421.67	4065.51
421.86	3913.38
422.05	3847.84
422.24	3943.80
422.43	3868.91
422.61	3983.59
422.80	4053.81
422.99	4140.41
423.18	4107.64
423.37	4163.81
423.56	4098.28
423.75	4091.26
423.94	3969.55
424.13	3824.44
424.32	3948.48
424.50	4084.23
424.69	4112.32
424.88	4126.36
425.07	4070.19
425.26	4018.70
425.45	4074.87
425.64	4191.90
425.83	3915.72
426.01	4285.52
426.20	4107.64
426.39	4203.60
426.58	4044.45
426.77	4138.07
426.96	4124.02
427.15	4074.87
427.33	4161.47
427.52	4142.75
427.71	4212.96
427.90	4219.99
428.09	4344.03
428.28	4241.05
428.46	4367.44
428.65	4325.31
428.84	4578.09
429.03	4528.94
429.22	4280.84
429.40	4189.56
429.59	4163.81
429.78	4236.37
429.97	4035.08
430.16	4131.05
430.34	4149.77
430.53	4358.08
430.72	4472.76
430.91	4339.35
431.10	4386.16
431.28	4561.70
431.47	4723.20
431.66	4814.48
431.85	4606.17
432.03	4781.71
432.22	4826.18
432.41	4819.16
432.60	4732.56
432.79	4922.15
432.97	4997.04
433.16	5039.17
433.35	4725.54
433.54	4793.42
433.72	4826.18
433.91	4870.65
434.10	4922.15
434.28	4816.82
434.47	5102.37
434.66	4943.21
434.85	4985.34
435.03	5217.05
435.22	5249.82
435.41	5376.21
435.59	5357.49
435.78	5284.93
435.97	5338.76
436.16	5266.21
436.34	5291.95
436.53	5373.87
436.72	5355.15
436.90	5165.56
437.09	5329.40
437.28	5158.54
437.46	5481.53
437.65	5341.10
437.84	5310.68
438.02	5245.14
438.21	5277.91
438.40	5296.63
438.58	5486.22
438.77	5617.29
438.96	5551.75
439.14	5720.27
439.33	5851.34
439.52	5956.66
439.70	5750.70
439.89	5998.79
440.08	5785.80
440.26	5792.83
440.45	5703.89
440.63	5879.43
440.82	6253.91
441.01	6328.81
441.19	6162.63
441.38	6277.32
441.57	6370.94
441.75	6253.91
441.94	6504.35
442.12	6525.41
442.31	6443.49
442.50	6518.39
442.68	6506.69
442.87	6527.75
443.05	6562.86
443.24	6661.16
443.43	6740.74
443.61	6677.55
443.80	6717.34
443.98	6553.50
444.17	6422.43
444.35	6717.34
444.54	6775.85
444.73	6836.70
444.91	6731.38
445.10	6909.26
445.28	6768.83
445.47	6626.06
445.65	6583.93
445.84	6766.49
446.02	6787.55
446.21	6869.47
446.39	6956.07
446.58	6855.43
446.77	6827.34
446.95	6782.87
447.14	6857.77
447.32	7016.93
447.51	6874.15
447.69	7042.67
447.88	6810.96
448.06	7012.24
448.25	6820.32
448.43	7009.90
448.62	7035.65
448.80	6965.43
448.99	7056.72
449.17	7045.01
449.36	7089.48
449.54	7286.09
449.73	7276.73
449.91	7234.60
450.10	7382.05
450.28	7632.49
450.46	7503.76
450.65	7335.24
450.83	7405.46
451.02	7337.58
451.20	7499.08
451.39	7482.69
451.57	7290.77
451.76	7475.67
451.94	7520.14
452.13	7536.52
452.31	7442.90
452.49	7321.20
452.68	7470.99
452.86	7559.93
453.05	7548.23
453.23	7541.21
453.42	7541.21
453.60	7665.25
453.78	7805.69
453.97	7588.02
454.15	7611.42
454.34	7756.54
454.52	7889.95
454.70	7868.88
454.89	7784.62
455.07	7824.41
455.26	7971.86
455.44	7899.31
455.62	7969.52
455.81	7997.61
455.99	8140.38
456.17	8203.58
456.36	8154.43
456.54	8102.93
456.73	8332.31
456.91	8386.14
457.09	8191.88
457.28	8589.77
457.46	8201.24
457.64	8442.31
457.83	8409.54
458.01	8259.75
458.19	8362.73
458.38	8475.08
458.56	8540.61
458.74	8500.83
458.93	8402.52
459.11	8435.29
459.29	8554.66
459.48	8547.64
459.66	8805.10
459.84	8821.48
460.03	8823.82
460.21	8657.64
460.39	8800.41
460.57	8681.05
460.76	8889.35
460.94	8999.36
461.12	8952.55
461.31	8990.00
461.49	9069.58
461.67	8875.31
461.85	9207.67
462.04	8842.54
462.22	9652.37
462.40	9345.76
462.59	9240.44
462.77	9078.94
462.95	9338.74
463.13	8994.68
463.32	9118.73
463.50	9315.33
463.68	9212.35
463.86	9214.69
464.05	9273.20
464.23	9184.26
464.41	9291.93
464.59	9132.77
464.78	9551.73
464.96	9359.80
465.14	9352.78
465.32	9540.02
465.50	9465.13
465.69	9638.33
465.87	9448.74
466.05	9415.98
466.23	9366.82
466.41	9614.92
466.60	9851.31
466.78	9425.34
466.96	9472.15
467.14	9743.65
467.32	9495.55
467.51	9757.69
467.69	9624.28
467.87	9867.70
468.05	9884.08
468.23	9858.34
468.41	9778.76
468.60	9837.27
468.78	9841.95
468.96	9947.28
469.14	9916.85
469.32	10087.71
469.50	10005.79
469.69	9954.30
469.87	10141.54
470.05	9954.30
470.23	10115.80
470.41	10258.57
470.59	10377.94
470.77	10022.17
470.95	10221.12
471.14	10450.49
471.32	10457.51
471.50	10740.72
471.68	10539.43
471.86	10555.82
472.04	10579.22
472.22	10810.93
472.40	10462.19
472.58	10604.97
472.77	10691.57
472.95	11042.65
473.13	11190.10
473.31	10939.66
473.49	10813.28
473.67	10857.75
473.85	10932.64
474.03	11073.07
474.21	11508.41
474.39	11358.62
474.57	11410.11
474.75	11489.69
474.93	11580.97
475.12	11576.29
475.30	11688.64
475.48	11604.38
475.66	11779.92
475.84	11543.52
476.02	11744.81
476.20	11796.30
476.38	12147.38
476.56	12255.04
476.74	12205.89
476.92	12100.57
477.10	12159.08
477.28	12545.27
477.46	12400.16
477.64	12627.19
477.82	12720.81
478.00	12931.46
478.18	12657.62
478.36	13121.04
478.54	13179.56
478.72	12905.71
478.90	13378.50
479.08	13486.17
479.26	13642.98
479.44	13699.16
479.62	13722.56
479.80	13678.09
479.98	14033.85
480.16	14167.26
480.34	14113.43
480.52	14111.09
480.70	14038.53
480.88	14216.41
481.06	14370.89
481.24	14317.06
481.41	14403.66
481.59	14888.15
481.77	15073.05
481.95	14792.19
482.13	14899.85
482.31	15026.24
482.49	15428.81
482.67	15419.45
482.85	15545.84
483.03	15527.11
483.21	15793.94
483.39	15878.19
483.57	15697.97
483.74	15936.71
483.92	16121.61
484.10	16100.55
484.28	16442.26
484.46	16430.56
484.64	16994.63
484.82	16407.16
485.00	16559.29
485.18	16954.84
485.35	16975.91
485.53	16636.53
485.71	16734.83
485.89	16980.59
486.07	16982.93
486.25	16931.44
486.43	17401.88
486.61	17532.95
486.78	17727.22
486.96	17839.56
487.14	18377.89
487.32	18092.34
487.50	18335.76
487.68	18679.82
487.85	19293.04
488.03	19131.54
488.21	19012.17
488.39	19126.86
488.57	19396.02
488.75	19302.40
488.92	19829.02
489.10	20100.52
489.28	19831.36
489.46	20435.22
489.64	20388.41
489.81	20648.21
489.99	20790.98
490.17	20695.02
490.35	20982.90
490.53	21018.01
490.70	20912.69
490.88	21034.39
491.06	21460.37
491.24	21245.04
491.41	21324.62
491.59	21476.76
491.77	21422.92
491.95	21853.58
492.13	22104.02
492.30	22256.15
492.48	22094.66
492.66	22450.42
492.84	22576.81
493.01	22892.78
493.19	22911.50
493.37	23101.09
493.54	23009.81
493.72	23213.43
493.90	23152.58
494.08	23480.25
494.25	23763.46
494.43	24142.63
494.61	24084.11
494.79	24063.05
494.96	24086.45
495.14	24051.34
495.32	24339.23
495.49	24505.41
495.67	24503.07
495.85	24748.82
496.02	25001.60
496.20	25179.48
496.38	25003.94
496.55	25809.09
496.73	25804.41
496.91	25294.17
497.09	26022.08
497.26	26099.31
497.44	25652.27
497.62	25748.23
497.79	26284.22
497.97	26029.10
498.14	26368.48
498.32	26391.88
498.50	26419.97
498.67	26838.92
498.85	27112.77
499.03	27168.94
499.20	27042.55
499.38	27056.59
499.56	27552.79
499.73	27585.55
499.91	27227.45
500.08	27449.80
500.26	27330.44
500.44	27857.06
500.61	27742.37
500.79	27513.00
500.97	27913.23
501.14	27770.46
501.32	28247.93
501.49	28205.80
501.67	28154.30
501.84	28362.61
502.02	28474.96
502.20	28547.51
502.37	28861.15
502.55	28268.99
502.72	28591.98
502.90	28968.81
503.07	28837.74
503.25	29172.44
503.43	28802.63
503.60	29081.16
503.78	29099.88
503.95	29074.13
504.13	29315.21
504.30	29795.02
504.48	29336.27
504.65	30012.69
504.83	30167.16
505.01	30087.59
505.18	29898.00
505.36	30352.07
505.53	30562.72
505.71	30614.21
505.88	30389.52
506.06	30436.33
506.23	30733.57
506.41	30314.62
506.58	30438.67
506.76	30543.99
506.93	30888.05
507.11	30820.17
507.28	31019.12
507.46	30771.02
507.63	31079.97
507.81	31267.22
507.98	31311.69
508.16	31304.67
508.33	31269.56
508.50	31732.98
508.68	31473.18
508.85	31868.73
509.03	32165.98
509.20	31857.03
509.38	32072.36
509.55	31997.46
509.73	32362.59
509.90	32201.09
510.08	32268.97
510.25	32716.01
510.42	32105.13
510.60	32804.95
510.77	32437.48
510.95	32989.85
511.12	32987.51
511.30	33041.34
511.47	33532.86
511.64	33640.52
511.82	33373.70
511.99	33216.88
512.17	33528.17
512.34	33057.73
512.51	33034.32
512.69	33420.51
512.86	33820.74
513.04	34082.88
513.21	33745.84
513.38	33811.38
513.56	34038.41
513.73	33638.18
513.90	33694.35
514.08	33970.54
514.25	34148.42
514.43	34363.75
514.60	34391.83
514.77	34293.53
514.95	34384.81
515.12	34319.28
515.29	34651.63
515.47	34749.93
515.64	34866.96
515.81	34630.57
515.99	35014.41
516.16	34239.70
516.33	34279.49
516.51	34937.18
516.68	34450.35
516.85	33942.45
517.03	34857.60
517.20	34684.40
517.37	35220.38
517.54	35709.55
517.72	35204.00
517.89	34857.60
518.06	35005.05
518.24	35145.48
518.41	35761.05
518.58	35470.82
518.75	35592.53
518.93	36109.78
519.10	35957.65
519.27	35751.68
519.45	36311.07
519.62	36500.65
519.79	36233.83
519.96	36311.07
520.14	36627.04
520.31	36212.77
520.48	36636.41
520.65	36378.95
520.83	37081.11
521.00	36957.06
521.17	37003.87
521.34	36865.78
521.52	37165.37
521.69	37158.34
521.86	37209.84
522.03	37282.39
522.20	37078.77
522.38	37118.56
522.55	37287.07
522.72	37041.32
522.89	37404.10
523.07	37956.47
523.24	37572.62
523.41	37916.68
523.58	37872.21
523.75	38162.43
523.92	38110.94
524.10	38169.46
524.27	37904.98
524.44	38059.45
524.61	38038.39
524.78	38508.83
524.96	38529.90
525.13	38043.07
525.30	38677.35
525.47	38483.09
525.64	38249.03
525.81	38986.30
525.98	38628.20
526.16	38185.84
526.33	38323.93
526.50	38534.58
526.67	38293.50
526.84	38436.28
527.01	38471.39
527.18	38789.70
527.36	39075.24
527.53	39243.76
527.70	39824.22
527.87	39690.80
528.04	39529.31
528.21	40285.30
528.38	39929.54
528.55	39683.78
528.72	39859.32
528.89	40526.38
529.07	39955.29
529.24	39744.64
529.41	39718.89
529.58	39938.90
529.75	39861.66
529.92	40334.45
530.09	40449.14
530.26	40261.90
530.43	40507.65
530.60	40320.41
530.77	40301.68
530.94	40617.66
531.11	40219.77
531.28	40402.33
531.46	40620.00
531.63	40641.06
531.80	40381.26
531.97	40491.27
532.14	40348.50
532.31	40004.44
532.48	40793.20
532.65	40601.27
532.82	40533.40
532.99	40985.12
533.16	40910.22
533.33	40502.97
533.50	41067.04
533.67	41090.44
533.84	40790.86
534.01	40900.86
534.18	41532.81
534.35	41832.39
534.52	41523.44
534.69	41661.54
534.86	41813.67
535.03	41170.02
535.20	41638.13
535.37	41780.90
535.54	42043.04
535.71	41670.90
535.88	41544.51
536.05	41598.34
536.22	41867.50
536.38	41886.23
536.55	41593.66
536.72	42148.37
536.89	41469.61
537.06	41902.61
537.23	42232.63
537.40	42012.62
537.57	41855.80
537.74	42424.55
537.91	42607.11
538.08	42590.73
538.25	42087.51
538.42	42213.90
538.59	42108.58
538.75	42405.83
538.92	42522.85
539.09	42623.50
539.26	42501.79
539.43	42672.65
539.60	42506.47
539.77	42127.30
539.94	42586.05
540.11	42452.64
540.28	42195.18
540.44	42174.11
540.61	42696.05
540.78	42305.18
540.95	43030.75
541.12	42646.90
541.29	42820.10
541.46	43082.24
541.62	43014.37
541.79	43049.47
541.96	42843.51
542.13	42766.27
542.30	43182.88
542.47	43473.11
542.63	42834.14
542.80	43454.39
542.97	43798.44
543.14	43917.81
543.31	43976.33
543.48	43438.00
543.64	44114.42
543.81	43992.71
543.98	43634.61
544.15	43910.79
544.32	44065.27
544.48	44516.99
544.65	44100.37
544.82	44004.41
544.99	43756.32
545.16	44397.62
545.32	43854.62
545.49	44191.65
545.66	44505.29
545.83	44502.95
546.00	44435.07
546.16	44203.36
546.33	44563.80
546.50	44172.93
546.67	44046.54
546.83	43878.02
547.00	44460.82
547.17	44240.81
547.34	44528.69
547.50	44243.15
547.67	44589.55
547.84	44179.95
548.00	44680.83
548.17	45249.58
548.34	44809.56
548.51	44872.75
548.67	45434.48
548.84	44844.66
549.01	45111.49
549.18	44912.54
549.34	44477.20
549.51	45207.45
549.68	45141.91
549.84	45043.61
550.01	45195.74
550.18	45113.83
550.34	45287.03
550.51	45092.76
550.68	45020.20
550.84	44830.62
551.01	45179.36
551.18	45319.79
551.34	45312.77
551.51	45315.11
551.68	45635.77
551.84	45350.22
552.01	45195.74
552.18	45081.06
552.34	44809.56
552.51	45572.57
552.68	45558.53
552.84	45621.72
553.01	45811.31
553.18	45404.05
553.34	45485.97
553.51	45525.76
553.67	45551.51
553.84	45963.44
554.01	46047.70
554.17	45954.08
554.34	46101.53
554.51	46220.90
554.67	45916.63
554.84	45979.82
555.00	46047.70
555.17	45972.80
555.33	45621.72
555.50	46028.98
555.67	45928.33
555.83	45713.00
556.00	46230.26
556.16	46366.01
556.33	46071.10
556.50	46017.27
556.66	46323.88
556.83	46014.93
556.99	46211.54
557.16	46564.96
557.32	46560.28
557.49	46534.53
557.65	46131.96
557.82	45909.61
557.98	46485.38
558.15	45940.04
558.32	46504.10
558.48	46071.10
558.65	46452.61
558.81	46284.09
558.98	46169.41
559.14	46071.10
559.31	45656.83
559.47	46258.35
559.64	46258.35
559.80	46691.35
559.97	46394.10
560.13	46417.50
560.30	46501.76
560.46	46698.37
560.63	46211.54
560.79	46609.43
560.96	47086.90
561.12	46731.14
561.29	46630.49
561.45	46445.59
561.61	46733.48
561.78	46478.36
561.94	46733.48
562.11	46656.24
562.27	46686.67
562.44	46471.34
562.60	46534.53
562.77	46340.27
562.93	46660.92
563.10	46948.81
563.26	46251.33
563.42	47182.86
563.59	46696.03
563.75	47208.61
563.92	46738.16
564.08	46909.02
564.24	46939.44
564.41	46946.47
564.57	46506.44
564.74	46625.81
564.90	47154.77
565.07	46766.24
565.23	46768.58
565.39	46787.31
565.56	47157.11
565.72	46663.26
565.88	47150.09
566.05	47206.26
566.21	46904.34
566.38	47000.30
566.54	47253.08
566.70	47086.90
566.87	47262.44
567.03	46803.69
567.19	47189.88
567.36	47234.35
567.52	47306.91
567.68	47377.12
567.85	46887.95
568.01	47330.31
568.17	47133.71
568.34	46843.48
568.50	46717.09
568.66	46820.08
568.83	46986.25
568.99	46803.69
569.15	47077.54
569.32	46906.68
569.48	46618.79
569.64	47110.30
569.81	46850.50
569.97	46791.99
570.13	47185.20
570.30	46862.21
570.46	46770.93
570.62	46672.62
570.78	46644.54
570.95	46672.62
571.11	47180.52
571.27	46955.83
571.43	46876.25
571.60	47290.52
571.76	47044.77
571.92	47487.13
572.09	47304.57
572.25	47000.30
572.41	46728.80
572.57	47278.82
572.74	47767.99
572.90	47278.82
573.06	47276.48
573.22	47356.06
573.38	47248.39
573.55	47363.08
573.71	47487.13
573.87	47583.09
574.03	47035.41
574.20	47220.31
574.36	46962.85
574.52	47283.50
574.68	47398.19
574.84	47325.63
575.01	47419.25
575.17	47243.71
575.33	47246.05
575.49	46894.97
575.65	47239.03
575.82	47477.77
575.98	47189.88
576.14	47379.46
576.30	47030.72
576.46	46948.81
576.62	47489.47
576.79	47054.13
576.95	46869.23
577.11	47157.11
577.27	47213.29
577.43	46979.23
577.59	47435.64
577.75	46836.46
577.92	47150.09
578.08	46894.97
578.24	46838.80
578.40	47157.11
578.56	47255.42
578.72	46721.77
578.88	47356.06
579.04	47461.38
579.21	47129.03
579.37	47173.50
579.53	46995.62
579.69	46934.76
579.85	47157.11
580.01	47236.69
580.17	47199.24
580.33	47536.28
580.49	47346.70
580.65	47405.21
580.82	47241.37
580.98	47100.94
581.14	47065.83
581.30	47508.19
581.46	47346.70
581.62	47306.91
581.78	47386.49
581.94	47669.69
582.10	47531.60
582.26	47529.26
582.42	47342.02
582.58	47494.15
582.74	47334.99
582.90	47405.21
583.06	47622.88
583.22	47430.96
583.38	47592.45
583.54	47461.38
583.70	47449.68
583.86	47292.86
584.02	47374.78
584.18	47374.78
584.34	47239.03
584.50	47496.49
584.66	47459.04
584.82	46930.08
584.98	47124.35
585.14	47082.22
585.30	47302.23
585.46	47456.70
585.62	46691.35
585.78	46909.02
585.94	46806.03
586.10	47412.23
586.26	47587.77
586.42	47327.97
586.58	47208.61
586.74	47653.31
586.90	47587.77
587.06	47145.41
587.22	47147.75
587.38	47267.12
587.54	47744.59
587.70	47145.41
587.86	47063.49
588.02	47077.54
588.18	47522.24
588.34	47470.75
588.49	46567.30
588.65	47021.36
588.81	47016.68
588.97	47213.29
589.13	47070.51
589.29	46777.95
589.45	47180.52
589.61	47426.28
589.77	47297.55
589.93	47667.35
590.08	47447.34
590.24	47459.04
590.40	47501.17
590.56	47400.53
590.72	47576.07
590.88	47292.86
591.04	47351.38
591.20	48018.43
591.35	47416.91
591.51	47906.08
591.67	47430.96
591.83	47767.99
591.99	47669.69
592.15	47337.33
592.31	47555.00
592.46	47767.99
592.62	47512.88
592.78	47222.65
592.94	47564.37
593.10	47107.96
593.26	47718.84
593.41	47744.59
593.57	47297.55
593.73	47330.31
593.89	47505.85
594.05	47484.79
594.20	47519.90
594.36	47693.10
594.52	47557.35
594.68	47648.63
594.84	47234.35
594.99	47325.63
595.15	46939.44
595.31	47709.48
595.47	47412.23
595.62	47622.88
595.78	47959.92
595.94	47700.12
596.10	47772.67
596.25	47849.91
596.41	47749.27
596.57	47627.56
596.73	47735.23
596.88	47276.48
597.04	47714.16
597.20	47510.53
597.36	47531.60
597.51	47875.66
597.67	47824.17
597.83	47426.28
597.99	47772.67
598.14	47826.51
598.30	47690.76
598.46	47473.09
598.61	47744.59
598.77	47400.53
598.93	47435.64
599.09	47952.90
599.24	48121.41
599.40	47702.46
599.56	47849.91
599.71	47569.05
599.87	47704.80
600.03	47744.59
600.18	47559.69
600.34	47215.63
600.50	47522.24
600.65	47737.57
600.81	47594.79
600.97	47547.98
601.12	47618.20
601.28	47653.31
601.44	47892.04
601.59	47721.18
601.75	47206.26
601.91	47629.90
602.06	47358.40
602.22	47262.44
602.37	47559.69
602.53	47447.34
602.69	47456.70
602.84	47639.26
603.00	47487.13
603.16	47622.88
603.31	47562.03
603.47	47669.69
603.62	47454.36
603.78	47702.46
603.94	47789.06
604.09	47693.10
604.25	47721.18
604.40	47491.81
604.56	47721.18
604.71	47540.96
604.87	47372.44
605.03	47358.40
605.18	47175.84
605.34	47136.05
605.49	47236.69
605.65	47498.83
605.80	47440.32
605.96	47604.16
606.12	47192.22
606.27	47711.82
606.43	47044.77
606.58	47388.83
606.74	46885.61
606.89	47379.46
607.05	47426.28
607.20	47388.83
607.36	47154.77
607.51	47477.77
607.67	47459.04
607.82	47082.22
607.98	47428.62
608.13	46834.12
608.29	47304.57
608.44	47117.32
608.60	46834.12
608.75	46916.04
608.91	46761.56
609.06	47143.07
609.22	47234.35
609.37	47047.11
609.53	46892.63
609.68	46817.74
609.84	47138.39
609.99	47114.98
610.15	46953.49
610.30	47014.34
610.46	46644.54
610.61	46672.62
610.76	47201.58
610.92	46756.88
611.07	46635.17
611.23	46485.38
611.38	46635.17
611.54	46700.71
611.69	46759.22
611.84	46808.37
612.00	46660.92
612.15	46630.49
612.31	46520.49
612.46	46705.39
612.62	46614.11
612.77	46522.83
612.92	47007.32
613.08	46525.17
613.23	46604.75
613.39	46017.27
613.54	46129.62
613.69	46354.31
613.85	46260.69
614.00	46253.67
614.15	46794.33
614.31	46649.22
614.46	46724.11
614.62	46307.50
614.77	46171.75
614.92	46457.29
615.08	46028.98
615.23	46028.98
615.38	46384.74
615.54	46234.94
615.69	46096.85
615.84	46017.27
616.00	46197.49
616.15	46153.02
616.30	45907.27
616.46	45771.52
616.61	45635.77
616.76	46564.96
616.92	45996.21
617.07	45778.54
617.22	45722.37
617.37	45893.22
617.53	46380.06
617.68	46436.23
617.83	46251.33
617.99	45708.32
618.14	45846.41
618.29	45839.39
618.45	45830.03
618.60	45794.92
618.75	45497.67
618.90	45581.93
619.06	45883.86
619.21	45600.66
619.36	46309.84
619.51	45701.30
619.67	45525.76
619.82	45848.75
619.97	46038.34
620.12	44989.78
620.28	45485.97
620.43	45336.18
620.58	45226.17
620.73	45930.67
620.89	44982.76
621.04	45673.21
621.19	45151.27
621.34	44758.06
621.49	45022.54
621.65	45357.24
621.80	45621.72
621.95	45017.86
622.10	45263.62
622.25	45544.48
622.41	44872.75
622.56	44704.23
622.71	44985.10
622.86	44575.50
623.01	45067.02
623.16	44900.84
623.32	45027.23
623.47	44982.76
623.62	44577.84
623.77	44353.15
623.92	44788.49
624.07	44402.30
624.23	44971.05
624.38	44732.32
624.53	44566.14
624.68	44900.84
624.83	44509.97
624.98	44676.15
625.13	44390.60
625.29	44509.97
625.44	44626.99
625.59	44172.93
625.74	44259.53
625.89	43800.79
626.04	43824.19
626.19	43915.47
626.34	43999.73
626.49	44074.63
626.65	44381.24
626.80	44437.41
626.95	44229.10
627.10	44250.17
627.25	43838.23
627.40	43913.13
627.55	43440.34
627.70	43143.09
627.85	43503.54
628.00	43721.21
628.15	43826.53
628.30	43648.65
628.45	43845.26
628.60	44278.25
628.76	44055.90
628.91	44360.17
629.06	44034.84
629.21	43590.14
629.36	43391.19
629.51	43346.72
629.66	43374.81
629.81	43669.72
629.96	43742.27
630.11	43981.01
630.26	43407.58
630.41	43611.20
630.56	43695.46
630.71	43611.20
630.86	43210.97
631.01	43433.32
631.16	43360.76
631.31	43131.39
631.46	42997.98
631.61	43473.11
631.76	43318.64
631.91	43358.42
632.06	43349.06
632.21	43257.78
632.36	43353.74
632.51	43014.37
632.66	42927.77
632.81	42454.98
632.96	43318.64
633.10	43051.81
633.25	43058.84
633.40	43098.62
633.55	43206.29
633.70	42887.98
633.85	43089.26
634.00	42595.41
634.15	43040.11
634.30	42494.77
634.45	42607.11
634.60	42579.03
634.75	43323.32
634.90	42852.87
635.05	42789.67
635.19	42691.37
635.34	43009.68
635.49	43016.71
635.64	42787.33
635.79	42698.39
635.94	42401.14
636.09	42838.83
636.24	42483.06
636.39	42143.69
636.53	42139.00
636.68	42270.08
636.83	42349.65
636.98	42576.69
637.13	42019.64
637.28	42534.56
637.43	42646.90
637.57	42359.02
637.72	41933.04
637.87	41776.22
638.02	42295.82
638.17	42021.98
638.32	41710.69
638.46	41897.93
638.61	42127.30
638.76	41752.82
638.91	41801.97
639.06	42415.19
639.20	42244.33
639.35	42323.91
639.50	41766.86
639.65	41872.18
639.80	41542.17
639.94	41895.59
640.09	41902.61
640.24	41511.74
640.39	41633.45
640.54	41890.91
640.68	41443.87
640.83	41675.58
640.98	41691.96
641.13	41205.13
641.27	41881.55
641.42	41497.70
641.57	41493.02
641.72	41460.25
641.86	41546.85
642.01	41659.20
642.16	40811.92
642.31	40818.94
642.45	40847.03
642.60	41043.63
642.75	41151.30
642.90	41163.00
643.04	40903.20
643.19	41148.96
643.34	41111.51
643.48	41404.08
643.63	40996.82
643.78	41041.29
643.93	40900.86
644.07	40940.65
644.22	40828.30
644.37	40641.06
644.51	40877.46
644.66	40849.37
644.81	40844.69
644.95	40954.69
645.10	40811.92
645.25	41177.04
645.39	40933.63
645.54	41420.46
645.69	41083.42
645.83	40620.00
645.98	40671.49
646.13	40772.13
646.27	40638.72
646.42	40161.25
646.57	40409.35
646.71	40549.78
646.86	40556.80
647.00	40942.99
647.15	40952.35
647.30	40669.15
647.44	40378.92
647.59	40486.59
647.74	40102.74
647.88	40257.21
648.03	40060.61
648.17	40334.45
648.32	40041.88
648.47	40247.85
648.61	39847.62
648.76	40444.46
648.90	40067.63
649.05	40311.05
649.20	40095.72
649.34	40084.01
649.49	39899.11
649.63	39798.47
649.78	40247.85
649.92	39906.13
650.07	40596.59
650.21	39082.27
650.36	39985.71
650.51	39913.16
650.65	40109.76
650.80	40301.68
650.94	39800.81
651.09	39423.98
651.23	39679.10
651.38	39800.81
651.52	39716.55
651.67	39770.38
651.81	39335.04
651.96	39686.12
652.10	39761.02
652.25	39426.32
652.39	39592.50
652.54	39856.98
652.68	39931.88
652.83	39658.04
652.97	39665.06
653.12	39728.25
653.26	39206.31
653.41	39548.03
653.55	39098.65
653.70	39260.15
653.84	39175.89
653.99	39049.50
654.13	39356.11
654.27	38691.40
654.42	38672.67
654.56	38628.20
654.71	39374.83
654.85	39014.39
655.00	39585.48
655.14	38855.23
655.29	38565.01
655.43	38347.34
655.57	38359.04
655.72	38380.10
655.86	38417.55
656.01	37876.89
656.15	37947.11
656.30	38356.70
656.44	38621.18
656.58	38298.19
656.73	38171.80
656.87	38300.53
657.01	38127.33
657.16	38342.66
657.30	38459.68
657.45	38232.65
657.59	38501.81
657.73	38319.25
657.88	38658.63
658.02	38323.93
658.16	38281.80
658.31	38726.50
658.45	37954.13
658.60	38576.71
658.74	38415.21
658.88	38043.07
659.03	37872.21
659.17	37715.39
659.31	37989.24
659.46	37713.05
659.60	38162.43
659.74	37841.78
659.89	37553.90
660.03	37806.67
660.17	37820.72
660.32	37654.54
660.46	37888.59
660.60	37703.69
660.74	37347.93
660.89	37483.68
661.03	36870.46
661.17	37046.00
661.32	36818.97
661.46	37237.92
661.60	37825.40
661.74	37188.77
661.89	37310.48
662.03	37247.29
662.17	37179.41
662.31	37502.40
662.46	37441.55
662.60	36762.79
662.74	36561.51
662.88	37069.40
663.03	36526.40
663.17	36943.02
663.31	36666.83
663.45	36381.29
663.60	36680.88
663.74	36666.83
663.88	36208.09
664.02	36329.80
664.17	36500.65
664.31	35819.56
664.45	36011.48
664.59	36032.55
664.73	35819.56
664.88	36329.80
665.02	36287.67
665.16	36095.74
665.30	36172.98
665.44	36196.38
665.59	35646.36
665.73	35487.20
665.87	35529.33
666.01	35660.40
666.15	35601.89
666.29	35791.47
666.44	35791.47
666.58	35335.07
666.72	35564.44
666.86	35510.61
667.00	35655.72
667.14	35449.75
667.28	35770.41
667.43	35257.83
667.57	35192.30
667.71	34691.42
667.85	35288.26
667.99	34602.48
668.13	34469.07
668.27	34897.39
668.41	34782.70
668.56	34679.72
668.70	34789.72
668.84	34609.50
668.98	34703.12
669.12	34740.57
669.26	34658.65
669.40	34436.30
669.54	34541.63
669.68	34113.31
669.82	34394.17
669.96	34122.67
670.10	34185.86
670.25	34401.19
670.39	34066.50
670.53	33797.34
670.67	33708.40
670.81	33956.49
670.95	34122.67
671.09	34139.05
671.23	33486.04
671.37	33617.11
671.51	33418.17
671.65	33511.79
671.79	33242.63
671.93	33198.16
672.07	33542.22
672.21	33186.46
672.35	33043.68
672.49	33413.49
672.63	33392.42
672.77	33013.26
672.91	32903.25
673.05	33024.96
673.19	32954.74
673.33	32608.34
673.47	32517.06
673.61	32566.21
673.75	32376.63
673.89	32446.85
674.03	32533.45
674.17	32205.77
674.31	31859.37
674.45	32505.36
674.59	32198.75
674.73	32273.65
674.87	32173.00
675.01	31857.03
675.15	32165.98
675.29	32011.51
675.43	31749.37
675.56	32025.55
675.70	31786.82
675.84	31688.51
675.98	30513.56
676.12	31541.06
676.26	31278.92
676.40	31213.38
676.54	31002.74
676.68	31065.93
676.82	30560.37
676.96	30890.39
677.10	30831.88
677.23	30693.79
677.37	30583.78
677.51	30459.73
677.65	30581.44
677.79	29851.19
677.93	29865.24
678.07	29682.67
678.21	29621.82
678.34	30026.73
678.48	29160.73
678.62	29933.11
678.76	29713.10
678.90	29252.02
679.04	29144.35
679.18	29366.70
679.31	29123.29
679.45	29125.63
679.59	28753.48
679.73	28889.23
679.87	28858.81
680.00	29067.11
680.14	28526.45
680.28	28692.63
680.42	28247.93
680.56	28283.03
680.70	28369.63
680.83	28259.63
680.97	28280.69
681.11	28666.88
681.25	27714.28
681.39	27835.99
681.52	27868.76
681.66	27702.58
681.80	27587.89
681.94	27754.07
682.07	27470.87
682.21	27786.84
682.35	27461.51
682.49	27321.07
682.62	27147.87
682.76	27012.12
682.90	26867.01
683.04	27171.28
683.17	27075.32
683.31	26487.84
683.45	26508.91
683.59	26696.15
683.72	26497.20
683.86	26553.38
684.00	26181.23
684.13	26426.99
684.27	26345.07
684.41	26022.08
684.55	26139.10
684.68	25596.10
684.82	25692.06
684.96	25699.08
685.09	25666.31
685.23	25661.63
685.37	25493.12
685.50	25563.33
685.64	25549.29
685.78	25345.66
685.91	25270.76
686.05	24877.55
686.19	24610.73
686.32	24781.59
686.46	24858.83
686.60	24353.27
686.73	24074.75
686.87	24095.82
687.01	24112.20
687.14	23896.87
687.28	23566.85
687.42	23700.26
687.55	23648.77
687.69	23852.40
687.82	23463.87
687.96	23564.51
688.10	23522.38
688.23	23157.26
688.37	23068.32
688.50	22883.42
688.64	22937.25
688.78	22731.28
688.91	22871.72
689.05	22902.14
689.18	22817.88
689.32	22473.82
689.46	22864.69
689.59	22778.09
689.73	22918.53
689.86	22515.95
690.00	22384.88
690.13	22719.58
690.27	22204.66
690.41	22600.21
690.54	22148.49
690.68	21937.84
690.81	22258.49
690.95	21755.28
691.08	21776.34
691.22	21848.90
691.35	21743.58
691.49	21748.26
691.62	22075.93
691.76	21806.77
691.89	21647.61
692.03	21532.93
692.16	21209.93
692.30	20870.56
692.43	20957.16
692.57	20751.19
692.70	20922.05
692.84	20556.93
692.97	20498.41
693.11	20231.59
693.24	20418.83
693.38	20182.44
693.51	20013.92
693.65	20229.25
693.78	20397.77
693.92	20292.44
694.05	20224.57
694.19	19826.68
694.32	20159.03
694.45	19927.32
694.59	19730.72
694.72	19679.22
694.86	19330.48
694.99	19590.28
695.13	19271.97
695.26	18707.90
695.39	18897.49
695.53	19307.08
695.66	19094.09
695.80	18831.95
695.93	19075.37
696.07	18848.33
696.20	19204.10
696.33	18789.82
696.47	18735.99
696.60	18398.95
696.73	18597.90
696.87	18600.24
697.00	18644.71
697.14	18375.55
697.27	18239.79
697.40	18183.62
697.54	17893.40
697.67	17699.13
697.80	17877.01
697.94	17706.15
698.07	17729.56
698.21	17418.27
698.34	17741.26
698.47	17582.10
698.61	17490.82
698.74	17326.99
698.87	17191.23
699.01	17046.12
699.14	17373.80
699.27	16940.80
699.40	16821.43
699.54	16746.53
699.67	16538.23
699.80	16720.79
699.94	16468.01
700.07	16568.65
700.20	16615.46
700.34	16421.20
700.47	16404.81
700.60	16542.91
700.73	16292.47
700.87	16004.58
701.00	16056.08
701.13	16290.13
701.26	15997.56
701.40	16093.52
701.53	15616.05
701.66	15854.79
701.79	15454.56
701.93	15594.99
702.06	15250.93
702.19	15257.95
702.32	15311.78
702.46	15396.04
702.59	15520.09
702.72	15417.11
702.85	15105.82
702.99	15276.68
703.12	15103.48
703.25	14899.85
703.38	14920.92
703.51	14848.36
703.65	14771.12
703.78	14651.75
703.91	14310.04
704.04	14469.19
704.17	14525.36
704.31	14279.61
704.44	14029.17
704.57	14183.65
704.70	14150.88
704.83	14436.42
704.96	14169.60
705.10	14160.24
705.23	13844.27
>>>>>End Processed Spectral Data<<<<<
