SpectraSuite Data File
++++++++++++++++++++++++++++++++++++
Date: Fri Oct 25 10:47:40 EDT 2013
User: price-jones
Dark Spectrum Present: No
Reference Spectrum Present: No
Number of Sampled Component Spectra: 1
Spectrometers: USB2+H05261
Integration Time (usec): 100000 (USB2+H05261)
Spectra Averaged: 1 (USB2+H05261)
Boxcar Smoothing: 0 (USB2+H05261)
Correct for Electrical Dark: No (USB2+H05261)
Strobe/Lamp Enabled: No (USB2+H05261)
Correct for Detector Non-linearity: No (USB2+H05261)
Correct for Stray Light: No (USB2+H05261)
Number of Pixels in Processed Spectrum: 2048
>>>>>Begin Processed Spectral Data<<<<<
365.73	159.16
365.92	159.16
366.12	159.16
366.32	60.85
366.52	72.56
366.72	0.00
366.91	37.45
367.11	39.79
367.31	65.54
367.51	25.75
367.70	25.75
367.90	30.43
368.10	0.00
368.30	74.90
368.49	44.47
368.69	84.26
368.89	60.85
369.09	32.77
369.28	189.58
369.48	21.06
369.68	84.26
369.87	110.01
370.07	117.03
370.27	133.41
370.47	227.03
370.66	444.70
370.86	407.25
371.06	449.38
371.25	428.32
371.45	451.72
371.65	444.70
371.84	353.42
372.04	463.43
372.24	430.66
372.44	484.49
372.63	514.92
372.83	587.47
373.03	491.51
373.22	454.06
373.42	447.04
373.62	540.66
373.81	514.92
374.01	533.64
374.21	617.90
374.40	433.00
374.60	596.84
374.79	510.24
374.99	582.79
375.19	606.20
375.38	622.58
375.58	547.69
375.78	580.45
375.97	566.41
376.17	568.75
376.37	575.77
376.56	564.07
376.76	484.49
376.95	615.56
377.15	571.09
377.35	596.84
377.54	638.97
377.74	557.05
377.93	620.24
378.13	643.65
378.33	636.63
378.52	601.52
378.72	678.76
378.91	674.07
379.11	617.90
379.31	655.35
379.50	552.37
379.70	636.63
379.89	650.67
380.09	648.33
380.28	606.20
380.48	671.73
380.68	655.35
380.87	674.07
381.07	702.16
381.26	697.48
381.46	674.07
381.65	692.80
381.85	690.46
382.04	641.31
382.24	624.92
382.43	720.88
382.63	587.47
382.83	624.92
383.02	631.94
383.22	695.14
383.41	676.41
383.61	683.44
383.80	777.06
384.00	720.88
384.19	737.27
384.39	723.23
384.58	739.61
384.78	702.16
384.97	732.59
385.17	655.35
385.36	713.86
385.56	725.57
385.75	718.54
385.95	777.06
386.14	837.91
386.34	741.95
386.53	781.74
386.72	751.31
386.92	763.01
387.11	884.72
387.31	849.61
387.50	800.46
387.70	877.70
387.89	833.23
388.09	877.70
388.28	706.84
388.48	842.59
388.67	898.77
388.86	823.87
389.06	854.30
389.25	905.79
389.45	877.70
389.64	866.00
389.84	950.26
390.03	999.41
390.22	873.02
390.42	992.39
390.61	779.40
390.81	866.00
391.00	959.62
391.19	968.98
391.39	940.90
391.58	957.28
391.78	983.02
391.97	999.41
392.16	940.90
392.36	936.21
392.55	1034.52
392.75	999.41
392.94	1069.62
393.13	1006.43
393.33	947.92
393.52	999.41
393.71	1048.56
393.91	983.02
394.10	978.34
394.29	1039.20
394.49	1083.67
394.68	1043.88
394.88	1125.80
395.07	1139.84
395.26	1142.18
395.46	1055.58
395.65	1090.69
395.84	1210.06
396.04	1186.65
396.23	1179.63
396.42	1121.12
396.62	1181.97
396.81	1156.22
397.00	1151.54
397.19	1224.10
397.39	1132.82
397.58	1231.12
397.77	1109.41
397.97	1287.29
398.16	1289.64
398.35	1245.16
398.55	1350.49
398.74	1329.42
398.93	1308.36
399.12	1308.36
399.32	1331.76
399.51	1362.19
399.70	1364.53
399.90	1336.45
400.09	1453.47
400.28	1486.24
400.47	1451.13
400.67	1551.78
400.86	1439.43
401.05	1441.77
401.24	1511.99
401.44	1577.52
401.63	1483.90
401.82	1542.41
402.01	1423.05
402.21	1526.03
402.40	1500.28
402.59	1596.25
402.78	1537.73
402.97	1575.18
403.17	1680.50
403.36	1652.42
403.55	1626.67
403.74	1643.06
403.93	1614.97
404.13	1734.34
404.32	1652.42
404.51	1685.19
404.70	1701.57
404.89	1753.06
405.09	1741.36
405.28	1778.81
405.47	1771.79
405.66	1755.40
405.85	1802.21
406.05	1762.42
406.24	1802.21
406.43	1750.72
406.62	1853.70
406.81	1933.28
407.00	1802.21
407.20	1842.00
407.39	1802.21
407.58	1895.83
407.77	1949.67
407.96	1998.82
408.15	2005.84
408.34	1881.79
408.54	2001.16
408.73	1940.30
408.92	1872.43
409.11	2087.76
409.30	2015.20
409.49	2036.27
409.68	2069.03
409.87	2094.78
410.07	2022.22
410.26	2153.29
410.45	2078.40
410.64	2221.17
410.83	2143.93
411.02	2237.55
411.21	2279.68
411.40	2204.78
411.59	2333.51
411.78	2340.54
411.98	2363.94
412.17	2291.38
412.36	2485.65
412.55	2457.56
412.74	2422.45
412.93	2366.28
413.12	2349.90
413.31	2541.82
413.50	2462.24
413.69	2495.01
413.88	2572.25
414.07	2708.00
414.26	2759.49
414.45	2593.31
414.64	2693.96
414.83	2696.30
415.02	2698.64
415.22	2754.81
415.41	2871.84
415.60	2773.53
415.79	2897.58
415.98	2920.99
416.17	2862.48
416.36	2885.88
416.55	3049.72
416.74	2967.80
416.93	2974.82
417.12	3056.74
417.31	2942.05
417.50	2965.46
417.69	3159.72
417.88	3087.17
418.07	3052.06
418.26	3087.17
418.45	3164.40
418.64	3279.09
418.83	3276.75
419.02	3260.37
419.21	3309.52
419.39	3248.66
419.58	3096.53
419.77	3218.24
419.96	3295.47
420.15	3389.10
420.34	3248.66
420.53	3328.24
420.72	3325.90
420.91	3307.18
421.10	3403.14
421.29	3452.29
421.48	3478.04
421.67	3363.35
421.86	3459.31
422.05	3454.63
422.24	3407.82
422.43	3583.36
422.61	3454.63
422.80	3552.93
422.99	3421.86
423.18	3555.27
423.37	3522.51
423.56	3562.30
423.75	3574.00
423.94	3548.25
424.13	3353.99
424.32	3393.78
424.50	3403.14
424.69	3688.68
424.88	3735.50
425.07	3471.01
425.26	3445.27
425.45	3688.68
425.64	3426.54
425.83	3522.51
426.01	3588.04
426.20	3641.87
426.39	3716.77
426.58	3515.48
426.77	3623.15
426.96	3684.00
427.15	3695.71
427.33	3592.72
427.52	3819.75
427.71	3749.54
427.90	3805.71
428.09	3714.43
428.28	3768.26
428.46	3812.73
428.65	3772.94
428.84	3992.95
429.03	4072.53
429.22	3829.12
429.40	3936.78
429.59	3845.50
429.78	3695.71
429.97	3707.41
430.16	3777.62
430.34	3960.19
430.53	3882.95
430.72	3948.48
430.91	3843.16
431.10	3901.67
431.28	4065.51
431.47	4212.96
431.66	4351.06
431.85	4058.49
432.03	4145.09
432.22	4257.43
432.41	4091.26
432.60	4159.13
432.79	4344.03
432.97	4287.86
433.16	4414.25
433.35	4283.18
433.54	4222.33
433.72	4231.69
433.91	4264.46
434.10	4458.72
434.28	4329.99
434.47	4329.99
434.66	4479.79
434.85	4493.83
435.03	4498.51
435.22	4447.02
435.41	4566.39
435.59	4655.33
435.78	4491.49
435.97	4723.20
436.16	4582.77
436.34	4542.98
436.53	4587.45
436.72	4863.63
436.90	4589.79
437.09	4685.75
437.28	4528.94
437.46	4657.67
437.65	4580.43
437.84	4781.71
438.02	4772.35
438.21	4812.14
438.40	4688.09
438.58	4760.65
438.77	4959.60
438.96	4912.78
439.14	5018.11
439.33	5036.83
439.52	5053.22
439.70	4978.32
439.89	5114.07
440.08	5036.83
440.26	5294.29
440.45	5102.37
440.63	5327.06
440.82	5397.28
441.01	5275.57
441.19	5460.47
441.38	5549.41
441.57	5607.92
441.75	5504.94
441.94	5551.75
442.12	5488.56
442.31	5727.29
442.50	5753.04
442.68	5738.99
442.87	5652.39
443.05	5621.97
443.24	5790.49
443.43	5783.46
443.61	5895.81
443.80	5853.68
443.98	5652.39
444.17	5603.24
444.35	5851.34
444.54	5959.00
444.73	5818.57
444.91	5846.66
445.10	5846.66
445.28	5937.94
445.47	5839.64
445.65	6061.99
445.84	5949.64
446.02	5956.66
446.21	5996.45
446.39	6012.84
446.58	6111.14
446.77	6057.31
446.95	5926.24
447.14	6066.67
447.32	6094.76
447.51	6026.88
447.69	5956.66
447.88	6092.41
448.06	6066.67
448.25	6064.33
448.43	6078.37
448.62	6094.76
448.80	6026.88
448.99	6040.92
449.17	6167.31
449.36	6132.20
449.54	6218.80
449.73	6324.13
449.91	6284.34
450.10	6366.26
450.28	6448.18
450.46	6490.31
450.65	6427.11
450.83	6473.92
451.02	6422.43
451.20	6546.48
451.39	6506.69
451.57	6434.13
451.76	6408.39
451.94	6602.65
452.13	6647.12
452.31	6569.88
452.49	6450.52
452.68	6649.46
452.86	6523.07
453.05	6516.05
453.23	6665.85
453.42	6593.29
453.60	6579.25
453.78	6656.48
453.97	6754.79
454.15	6658.82
454.34	6672.87
454.52	6813.30
454.70	6916.28
454.89	6775.85
455.07	6897.56
455.26	6970.12
455.44	6991.18
455.62	6843.73
455.81	7040.33
455.99	7040.33
456.17	7009.90
456.36	6909.26
456.54	7070.76
456.73	7311.83
456.91	7360.98
457.09	7389.07
457.28	7337.58
457.46	7138.63
457.64	7304.81
457.83	7309.49
458.01	7283.75
458.19	7365.67
458.38	7143.32
458.56	7499.08
458.74	7360.98
458.93	7510.78
459.11	7527.16
459.29	7470.99
459.48	7449.93
459.66	7566.95
459.84	7583.34
460.03	7637.17
460.21	7552.91
460.39	7597.38
460.57	7737.81
460.76	7864.20
460.94	7714.41
461.12	7889.95
461.31	7913.35
461.49	7782.28
461.67	7836.11
461.85	8030.38
462.04	7985.91
462.22	8355.71
462.40	8283.16
462.59	7957.82
462.77	8039.74
462.95	8016.33
463.13	8070.17
463.32	8091.23
463.50	8262.09
463.68	8255.07
463.86	8208.26
464.05	8077.19
464.23	8056.12
464.41	8351.03
464.59	8212.94
464.78	8353.37
464.96	8423.59
465.14	8271.45
465.32	8156.77
465.50	8287.84
465.69	8219.96
465.87	8329.97
466.05	8439.97
466.23	8388.48
466.41	8306.56
466.60	8568.70
466.78	8285.50
466.96	8269.11
467.14	8477.42
467.32	8250.39
467.51	8662.32
467.69	8355.71
467.87	8582.74
468.05	8636.58
468.23	8659.98
468.41	8365.07
468.60	8781.69
468.78	8952.55
468.96	8704.45
469.14	8947.87
469.32	8835.52
469.50	8662.32
469.69	8870.63
469.87	8868.29
470.05	8901.06
470.23	8903.40
470.41	9025.11
470.59	9123.41
470.77	9104.68
470.95	9291.93
471.14	9090.64
471.32	9055.53
471.50	9605.56
471.68	9607.90
471.86	9469.81
472.04	9607.90
472.22	9673.43
472.40	9324.69
472.58	9481.51
472.77	9401.93
472.95	9589.17
473.13	9844.29
473.31	9774.08
473.49	9600.88
473.67	9767.06
473.85	9638.33
474.03	10024.51
474.21	9937.91
474.39	10120.48
474.57	10015.15
474.75	10150.90
474.93	10157.92
475.12	10108.77
475.30	10382.62
475.48	10319.42
475.66	10410.70
475.84	10399.00
476.02	10429.43
476.20	10230.48
476.38	10719.65
476.56	10878.81
476.74	11037.97
476.92	10623.69
477.10	10878.81
477.28	11234.57
477.46	10796.89
477.64	11269.68
477.82	11283.72
478.00	11229.89
478.18	11393.73
478.36	11618.42
478.54	11992.90
478.72	11843.11
478.90	11826.73
479.08	12035.03
479.26	11957.80
479.44	12102.91
479.62	12011.63
479.80	11969.50
479.98	12306.54
480.16	12446.97
480.34	12404.84
480.52	12358.03
480.70	12645.91
480.88	12411.86
481.06	12594.42
481.24	12868.27
481.41	12889.33
481.59	12996.99
481.77	13249.77
481.95	13111.68
482.13	13282.54
482.31	13116.36
482.49	13689.79
482.67	13603.19
482.85	13429.99
483.03	13741.29
483.21	13715.54
483.39	14104.07
483.57	14251.52
483.74	14239.82
483.92	14298.33
484.10	14211.73
484.28	14878.79
484.46	14530.05
484.64	15140.93
484.82	14820.27
485.00	15044.96
485.18	15197.10
485.35	15243.91
485.53	15080.07
485.71	15002.83
485.89	15250.93
486.07	15342.21
486.25	15197.10
486.43	15847.77
486.61	15323.49
486.78	16077.14
486.96	16093.52
487.14	16219.91
487.32	16233.96
487.50	16493.76
487.68	16603.76
487.85	16561.63
488.03	17137.40
488.21	16940.80
488.39	17151.45
488.57	17303.58
488.75	17303.58
488.92	17748.28
489.10	17750.62
489.28	17813.82
489.46	18001.06
489.64	18260.86
489.81	18588.53
489.99	18162.56
490.17	18258.52
490.35	18916.21
490.53	18707.90
490.70	18862.38
490.88	18759.39
491.06	19190.05
491.24	18939.62
491.41	19264.95
491.59	19194.73
491.77	19513.05
491.95	19531.77
492.13	19854.76
492.30	19943.70
492.48	20189.46
492.66	20123.93
492.84	20308.83
493.01	20133.29
493.19	20486.71
493.37	20671.61
493.54	20346.28
493.72	20903.32
493.90	20465.64
494.08	21036.74
494.25	21193.55
494.43	21345.69
494.61	21446.33
494.79	21811.45
494.96	21436.97
495.14	21649.96
495.32	22192.96
495.49	22024.44
495.67	22188.28
495.85	22050.19
496.02	22492.55
496.20	22562.76
496.38	22628.30
496.55	22827.24
496.73	22974.70
496.91	22506.59
497.09	23302.37
497.26	23147.90
497.44	23337.48
497.62	23417.06
497.79	23484.94
497.97	23316.42
498.14	23693.24
498.32	23606.64
498.50	23906.23
498.67	24173.05
498.85	24128.58
499.03	24126.24
499.20	24292.42
499.38	23920.28
499.56	24458.60
499.73	24156.67
499.91	24334.55
500.08	24449.24
500.26	24474.98
500.44	24903.30
500.61	24662.22
500.79	24627.12
500.97	25219.27
501.14	25404.17
501.32	25322.26
501.49	25067.14
501.67	25308.21
501.84	25642.91
502.02	25743.55
502.20	25781.00
502.37	25933.14
502.55	25694.40
502.72	26129.74
502.90	26260.81
503.07	26061.87
503.25	26111.02
503.43	26363.79
503.60	26410.60
503.78	26228.04
503.95	26050.16
504.13	26632.96
504.30	26546.36
504.48	26728.92
504.65	26993.40
504.83	27295.33
505.01	27213.41
505.18	27290.65
505.36	27498.95
505.53	27283.62
505.71	27580.87
505.88	27447.46
506.06	27307.03
506.23	27683.86
506.41	27330.44
506.58	27618.32
506.76	27702.58
506.93	27983.44
507.11	28056.00
507.28	28072.39
507.46	27927.27
507.63	27943.66
507.81	28250.27
507.98	27995.15
508.16	28428.15
508.33	28526.45
508.50	28793.27
508.68	28657.52
508.85	28744.12
509.03	28898.59
509.20	29151.37
509.38	29024.98
509.55	28992.22
509.73	29427.56
509.90	29062.43
510.08	29191.16
510.25	29280.10
510.42	29326.91
510.60	29453.30
510.77	29645.23
510.95	29958.86
511.12	29659.27
511.30	30213.98
511.47	30050.14
511.64	30153.12
511.82	30033.75
511.99	29923.75
512.17	30338.02
512.34	30209.29
512.51	30649.32
512.69	30756.98
512.86	30480.80
513.04	30771.02
513.21	30738.26
513.38	30712.51
513.56	30754.64
513.73	30504.20
513.90	31299.98
514.08	31101.04
514.25	31140.83
514.43	30881.03
514.60	31005.08
514.77	31225.09
514.95	31882.78
515.12	31211.04
515.29	31498.93
515.47	31391.26
515.64	31929.59
515.81	31573.83
515.99	32077.04
516.16	31861.71
516.33	31651.06
516.51	32079.38
516.68	31119.76
516.85	31431.05
517.03	31768.09
517.20	32217.47
517.37	31871.07
517.54	32535.79
517.72	32332.16
517.89	32161.30
518.06	32397.70
518.24	32362.59
518.41	32121.51
518.58	32456.21
518.75	32465.57
518.93	33053.05
519.10	32687.92
519.27	32786.22
519.45	33116.24
519.62	32835.38
519.79	33244.97
519.96	33191.14
520.14	33589.03
520.31	33172.41
520.48	33572.64
520.65	33532.86
520.83	33986.92
521.00	33940.11
521.17	34007.98
521.34	33972.88
521.52	34045.43
521.69	34075.86
521.86	33963.51
522.03	34298.21
522.20	34485.45
522.38	34588.44
522.55	34600.14
522.72	34110.97
522.89	34183.52
523.07	34778.02
523.24	34061.82
523.41	34417.58
523.58	34728.87
523.75	35026.12
523.92	35093.99
524.10	34759.30
524.27	35110.38
524.44	35470.82
524.61	35227.40
524.78	35147.82
524.96	35679.13
525.13	35667.42
525.30	35892.12
525.47	35566.78
525.64	35555.08
525.81	35332.73
525.98	35824.24
526.16	35501.25
526.33	34923.13
526.50	35653.38
526.67	35409.96
526.84	35578.48
527.01	35360.81
527.18	35653.38
527.36	36201.07
527.53	36175.32
527.70	36458.52
527.87	36376.61
528.04	36449.16
528.21	36477.25
528.38	36290.01
528.55	36973.44
528.72	36657.47
528.89	36575.55
529.07	36512.36
529.24	36334.48
529.41	37088.13
529.58	36584.91
529.75	36790.88
529.92	36510.02
530.09	36854.08
530.26	36627.04
530.43	36971.10
530.60	37034.30
530.77	37188.77
530.94	37474.32
531.11	36950.04
531.28	37497.72
531.46	37275.37
531.63	37317.50
531.80	36905.57
531.97	37441.55
532.14	37317.50
532.31	37109.19
532.48	37258.99
532.65	37844.12
532.82	37528.15
532.99	37851.14
533.16	37319.84
533.33	37914.34
533.50	37984.55
533.67	37818.38
533.84	37949.45
534.01	38192.86
534.18	38000.94
534.35	38169.46
534.52	37949.45
534.69	38256.06
534.86	37858.17
535.03	38513.52
535.20	37958.81
535.37	38960.56
535.54	38785.02
535.71	38143.71
535.88	38206.90
536.05	38431.60
536.22	38677.35
536.38	38895.02
536.55	38450.32
536.72	38780.34
536.89	38368.40
537.06	38630.54
537.23	38965.24
537.40	38745.23
537.57	38895.02
537.74	39096.31
537.91	39257.81
538.08	39133.76
538.25	39014.39
538.42	39608.89
538.59	39210.99
538.75	38787.36
538.92	39171.21
539.09	39529.31
539.26	39405.26
539.43	40076.99
539.60	39742.30
539.77	39597.18
539.94	39353.77
540.11	39363.13
540.28	39475.48
540.44	39480.16
540.61	39737.62
540.78	39290.57
540.95	39653.36
541.12	39498.88
541.29	39470.79
541.46	39690.80
541.62	39718.89
541.79	39992.73
541.96	39791.45
542.13	40116.78
542.30	40353.18
542.47	39995.07
542.63	40123.80
542.80	40388.28
542.97	40591.91
543.14	40758.09
543.31	40528.72
543.48	40449.14
543.64	41113.85
543.81	40725.32
543.98	40575.53
544.15	40390.62
544.32	40978.10
544.48	41619.41
544.65	40734.68
544.82	40844.69
544.99	40528.72
545.16	40968.74
545.32	40795.54
545.49	41076.40
545.66	41013.21
545.83	41443.87
546.00	41273.01
546.16	41439.18
546.33	41200.45
546.50	40861.07
546.67	41099.81
546.83	40957.03
547.00	41139.60
547.17	41050.66
547.34	41375.99
547.50	41280.03
547.67	41631.11
547.84	41930.70
548.00	41310.46
548.17	41996.23
548.34	41528.13
548.51	41797.29
548.67	41792.61
548.84	41652.17
549.01	41926.02
549.18	41717.71
549.34	41958.78
549.51	41811.33
549.68	42057.09
549.84	42029.00
550.01	42143.69
550.18	42251.35
550.34	42003.25
550.51	41958.78
550.68	42103.90
550.84	42239.65
551.01	41944.74
551.18	42117.94
551.34	42756.91
551.51	42504.13
551.68	42281.78
551.84	42216.24
552.01	41879.21
552.18	42026.66
552.34	42101.56
552.51	42412.85
552.68	42356.67
552.84	42899.68
553.01	42920.74
553.18	42651.58
553.34	42887.98
553.51	42508.81
553.67	42639.88
553.84	42918.40
554.01	43093.94
554.17	43171.18
554.34	43166.50
554.51	42937.13
554.67	42555.62
554.84	43000.32
555.00	42892.66
555.17	43185.22
555.33	43136.07
555.50	42836.48
555.67	42677.33
555.83	42834.14
556.00	43271.82
556.16	43653.33
556.33	42869.25
556.50	43269.48
556.66	43503.54
556.83	43143.09
556.99	43665.03
557.16	43414.60
557.32	43459.07
557.49	43578.43
557.65	43124.37
557.82	42649.24
557.98	43608.86
558.15	43372.47
558.32	43690.78
558.48	43278.85
558.65	43459.07
558.81	43278.85
558.98	43515.24
559.14	43716.53
559.31	43552.69
559.47	43456.73
559.64	44130.80
559.80	43683.76
559.97	43927.17
560.13	43519.92
560.30	43342.04
560.46	43480.13
560.63	43442.68
560.79	43473.11
560.96	43943.56
561.12	43398.21
561.29	43796.10
561.45	43707.16
561.61	43798.44
561.78	44081.65
561.94	43536.30
562.11	43751.63
562.27	43402.89
562.44	43952.92
562.60	44002.07
562.77	43981.01
562.93	43945.90
563.10	44053.56
563.26	43812.49
563.42	43938.88
563.59	43791.42
563.75	43658.01
563.92	43761.00
564.08	44318.04
564.24	44126.12
564.41	44081.65
564.57	44074.63
564.74	44296.98
564.90	44526.35
565.07	44332.09
565.23	43845.26
565.39	43852.28
565.56	44409.32
565.72	44446.77
565.88	43981.01
566.05	44226.76
566.21	44259.53
566.38	44062.93
566.54	44105.06
566.70	44130.80
566.87	44374.22
567.03	43885.04
567.19	44816.58
567.36	44744.02
567.52	44414.01
567.68	44343.79
567.85	44322.72
568.01	44423.37
568.17	43915.47
568.34	44610.61
568.50	44636.36
568.66	44308.68
568.83	44528.69
568.99	44044.20
569.15	44203.36
569.32	44156.55
569.48	44020.80
569.64	44360.17
569.81	44755.72
569.97	44275.91
570.13	44296.98
570.30	44325.07
570.46	44123.78
570.62	43831.21
570.78	43976.33
570.95	44126.12
571.11	44669.12
571.27	44301.66
571.43	44332.09
571.60	44528.69
571.76	44060.58
571.92	44215.06
572.09	44779.13
572.25	44664.44
572.41	44350.81
572.57	44327.41
572.74	44802.53
572.90	44891.48
573.06	44959.35
573.22	44479.54
573.38	44456.14
573.55	44746.36
573.71	44701.89
573.87	44484.22
574.03	44463.16
574.20	44493.58
574.36	44470.18
574.52	44814.24
574.68	44189.31
574.84	44692.53
575.01	44051.22
575.17	44774.45
575.33	44449.11
575.49	44343.79
575.65	44474.86
575.82	45137.23
575.98	44343.79
576.14	44924.24
576.30	44582.52
576.46	44772.11
576.62	44502.95
576.79	44339.11
576.95	44224.42
577.11	44966.37
577.27	44680.83
577.43	44907.86
577.59	44385.92
577.75	44423.37
577.92	44598.91
578.08	44411.67
578.24	44392.94
578.40	44795.51
578.56	44692.53
578.72	44580.18
578.88	44774.45
579.04	44542.74
579.21	44612.95
579.37	44470.18
579.53	44715.93
579.69	44320.38
579.85	44692.53
580.01	44718.28
580.17	44629.34
580.33	45008.50
580.49	45127.87
580.65	44903.18
580.82	44797.85
580.98	44556.78
581.14	44652.74
581.30	44940.63
581.46	44928.92
581.62	44718.28
581.78	44823.60
581.94	44987.44
582.10	44715.93
582.26	45301.07
582.42	44938.29
582.58	44594.23
582.74	44697.21
582.90	44814.24
583.06	44772.11
583.22	45198.09
583.38	45048.29
583.54	44701.89
583.70	44666.78
583.86	44715.93
584.02	44060.58
584.18	44987.44
584.34	45137.23
584.50	44781.47
584.66	44858.71
584.82	44818.92
584.98	45277.66
585.14	44945.31
585.30	44493.58
585.46	44856.37
585.62	44561.46
585.78	44811.90
585.94	44053.56
586.10	44985.10
586.26	44514.65
586.42	45104.46
586.58	44837.64
586.74	44292.30
586.90	44781.47
587.06	44910.20
587.22	44886.79
587.38	44507.63
587.54	44711.25
587.70	44928.92
587.86	44945.31
588.02	44662.10
588.18	45078.72
588.34	44516.99
588.49	45057.65
588.65	44374.22
588.81	44697.21
588.97	44285.28
589.13	44662.10
589.29	44781.47
589.45	44650.40
589.61	44694.87
589.77	45134.89
589.93	45069.36
590.08	45158.30
590.24	45017.86
590.40	45287.03
590.56	45666.19
590.72	45155.96
590.88	44980.42
591.04	44964.03
591.20	45151.27
591.35	44823.60
591.51	45488.31
591.67	45083.40
591.83	45024.89
591.99	44423.37
592.15	44910.20
592.31	45048.29
592.46	45209.79
592.62	44832.96
592.78	45160.64
592.94	45195.74
593.10	45287.03
593.26	45219.15
593.41	45127.87
593.57	45198.09
593.73	44872.75
593.89	45027.23
594.05	44587.21
594.20	45390.01
594.36	45478.95
594.52	45212.13
594.68	45228.51
594.84	45191.06
594.99	45221.49
595.15	45329.16
595.31	45380.65
595.47	44879.77
595.62	45745.77
595.78	45095.10
595.94	45481.29
596.10	45600.66
596.25	45820.67
596.41	45429.80
596.57	45350.22
596.73	45085.74
596.88	44861.05
597.04	45153.62
597.20	45448.52
597.36	45474.27
597.51	45635.77
597.67	45282.34
597.83	45104.46
597.99	45420.44
598.14	45521.08
598.30	45305.75
598.46	45022.54
598.61	45076.38
598.77	45364.26
598.93	44964.03
599.09	44797.85
599.24	45556.19
599.40	45663.85
599.56	45455.54
599.71	45500.01
599.87	45202.77
600.03	45153.62
600.18	45326.81
600.34	45366.60
600.50	44828.28
600.65	45172.34
600.81	45492.99
600.97	45511.72
601.12	46148.34
601.28	45371.28
601.44	45116.17
601.59	45525.76
601.75	45174.68
601.91	45088.08
602.06	45184.04
602.22	45310.43
602.37	45359.58
602.53	45102.12
602.69	45567.89
602.84	45729.39
603.00	44865.73
603.16	44786.15
603.31	45427.46
603.47	45048.29
603.62	44994.46
603.78	45577.25
603.94	45137.23
604.09	45188.72
604.25	45106.80
604.40	45064.67
604.56	45181.70
604.71	45099.78
604.87	45354.90
605.03	45137.23
605.18	45310.43
605.34	45078.72
605.49	45043.61
605.65	45099.78
605.80	44957.01
605.96	45219.15
606.12	45184.04
606.27	45427.46
606.43	45013.18
606.58	45415.76
606.74	44793.17
606.89	45036.59
607.05	45151.27
607.20	44999.14
607.36	45017.86
607.51	45422.78
607.67	45151.27
607.82	44989.78
607.98	44582.52
608.13	44905.52
608.29	45045.95
608.44	44823.60
608.60	44701.89
608.75	44584.86
608.91	44460.82
609.06	44858.71
609.22	45074.04
609.37	44772.11
609.53	44605.93
609.68	44636.36
609.84	44720.62
609.99	44636.36
610.15	44395.28
610.30	44753.38
610.46	44549.76
610.61	44561.46
610.76	44704.23
610.92	44343.79
611.07	44715.93
611.23	44516.99
611.38	44772.11
611.54	44245.49
611.69	44493.58
611.84	44587.21
612.00	44254.85
612.15	44446.77
612.31	44765.09
612.46	44233.78
612.62	44699.55
612.77	44350.81
612.92	44617.63
613.08	44299.32
613.23	44617.63
613.39	44439.75
613.54	43669.72
613.69	44280.60
613.85	44215.06
614.00	44390.60
614.15	44575.50
614.31	44718.28
614.46	44477.20
614.62	43999.73
614.77	44055.90
614.92	44355.49
615.08	44369.54
615.23	44079.31
615.38	43936.54
615.54	43880.36
615.69	43810.15
615.84	44088.67
616.00	43856.96
616.15	44219.74
616.30	44392.94
616.46	43545.67
616.61	44252.51
616.76	44194.00
616.92	43526.94
617.07	43957.60
617.22	43784.40
617.37	43555.03
617.53	43920.15
617.68	43779.72
617.83	43716.53
617.99	44163.57
618.14	43545.67
618.29	43533.96
618.45	43711.84
618.60	43559.71
618.75	44023.14
618.90	43828.87
619.06	44011.43
619.21	43543.33
619.36	44163.57
619.51	43540.99
619.67	43512.90
619.82	43768.02
619.97	43749.29
620.12	43337.36
620.28	43129.05
620.43	43576.09
620.58	43414.60
620.73	43236.72
620.89	43398.21
621.04	43320.98
621.19	42981.60
621.34	43131.39
621.49	43157.14
621.65	43122.03
621.80	43452.05
621.95	43225.01
622.10	43182.88
622.25	43255.44
622.41	42848.19
622.56	42864.57
622.71	43126.71
622.86	42714.78
623.01	43093.94
623.16	42885.64
623.32	43220.33
623.47	43217.99
623.62	43030.75
623.77	42614.13
623.92	42808.40
624.07	42124.96
624.23	42724.14
624.38	42632.86
624.53	42717.12
624.68	42969.90
624.83	42719.46
624.98	42459.66
625.13	42286.46
625.29	42454.98
625.44	43047.13
625.59	42438.59
625.74	41982.19
625.89	42117.94
626.04	42171.77
626.19	42066.45
626.34	42408.17
626.49	42560.30
626.65	42550.94
626.80	42375.40
626.95	42017.30
627.10	42085.17
627.25	42099.22
627.40	42010.28
627.55	41935.38
627.70	41691.96
627.85	41963.46
628.00	41804.31
628.15	42459.66
628.30	42029.00
628.45	42246.67
628.60	41806.65
628.76	42052.41
628.91	42216.24
629.06	41916.65
629.21	41635.79
629.36	41748.14
629.51	41883.89
629.66	41752.82
629.81	41916.65
629.96	41607.70
630.11	41539.83
630.26	41588.98
630.41	41996.23
630.56	41741.11
630.71	41806.65
630.86	41333.86
631.01	41649.83
631.16	41322.16
631.31	41427.48
631.46	41029.59
631.61	41565.57
631.76	41333.86
631.91	41488.34
632.06	41549.19
632.21	41565.57
632.36	41762.18
632.51	41408.76
632.66	41294.07
632.81	40627.02
632.96	41106.83
633.10	41399.40
633.25	40704.26
633.40	40563.82
633.55	41528.13
633.70	41106.83
633.85	40594.25
634.00	40884.48
634.15	41212.15
634.30	40914.90
634.45	40722.98
634.60	40903.20
634.75	40912.56
634.90	40774.47
635.05	41331.52
635.19	41099.81
635.34	40961.72
635.49	41146.62
635.64	40910.22
635.79	40659.79
635.94	40187.00
636.09	40678.51
636.24	40751.07
636.39	40411.69
636.53	40081.67
636.68	40208.06
636.83	40187.00
636.98	40751.07
637.13	40020.82
637.28	40603.61
637.43	40858.73
637.57	40547.44
637.72	40189.34
637.87	40198.70
638.02	40163.59
638.17	40137.85
638.32	40105.08
638.46	40334.45
638.61	40240.83
638.76	40168.27
638.91	40339.13
639.06	40151.89
639.20	40439.78
639.35	40540.42
639.50	40467.86
639.65	40531.06
639.80	40533.40
639.94	40306.37
640.09	39763.36
640.24	39510.58
640.39	39702.51
640.54	40107.42
640.68	39761.02
640.83	39735.27
640.98	39768.04
641.13	39697.83
641.27	40065.29
641.42	40002.10
641.57	40072.31
641.72	39810.17
641.86	39550.37
642.01	39613.57
642.16	39636.97
642.31	39115.03
642.45	39225.04
642.60	39599.52
642.75	39337.38
642.90	39377.17
643.04	39264.83
643.19	39503.56
643.34	39805.49
643.48	39082.27
643.63	38986.30
643.78	39150.14
643.93	39079.92
644.07	39445.05
644.22	39379.51
644.37	39185.25
644.51	38873.96
644.66	39299.94
644.81	39377.17
644.95	39246.10
645.10	39166.52
645.25	39323.34
645.39	39187.59
645.54	39339.72
645.69	38866.94
645.83	39129.08
645.98	38876.30
646.13	39243.76
646.27	39302.28
646.42	38602.46
646.57	38902.04
646.71	39037.80
646.86	38841.19
647.00	38649.27
647.15	38885.66
647.30	39250.78
647.44	38759.27
647.59	38728.84
647.74	38684.37
647.88	38705.44
648.03	38892.68
648.17	38455.00
648.32	38377.76
648.47	38508.83
648.61	38335.63
648.76	38663.31
648.90	38628.20
649.05	38740.55
649.20	38534.58
649.34	38761.61
649.49	38169.46
649.63	38234.99
649.78	38609.48
649.92	38478.41
650.07	38281.80
650.21	37846.46
650.36	38471.39
650.51	38333.29
650.65	38785.02
650.80	38691.40
650.94	38892.68
651.09	38462.02
651.23	38249.03
651.38	38143.71
651.52	38539.26
651.67	38178.82
651.81	38417.55
651.96	38036.05
652.10	38059.45
652.25	37797.31
652.39	37715.39
652.54	38000.94
652.68	37975.19
652.83	38188.18
652.97	37998.60
653.12	38174.14
653.26	37963.49
653.41	38300.53
653.55	37713.05
653.70	37633.47
653.84	37851.14
653.99	37677.94
654.13	37706.03
654.27	37886.25
654.42	37729.44
654.56	37376.01
654.71	37860.51
654.85	37717.73
655.00	37546.87
655.14	37106.85
655.29	37488.36
655.43	37137.28
655.57	36987.49
655.72	37500.06
655.86	36912.59
656.01	37326.86
656.15	36893.86
656.30	37350.27
656.44	37209.84
656.58	37083.45
656.73	36725.35
656.87	36882.16
657.01	36811.95
657.16	37160.69
657.30	36861.10
657.45	36493.63
657.59	36605.98
657.73	36371.92
657.88	37207.50
658.02	36748.75
658.16	36414.05
658.31	36638.75
658.45	36919.61
658.60	37221.54
658.74	37113.87
658.88	36648.11
659.03	36676.19
659.17	36587.25
659.31	36627.04
659.46	36273.62
659.60	36788.54
659.74	36409.37
659.89	35981.06
660.03	36458.52
660.17	36535.76
660.32	36240.86
660.46	36664.49
660.60	36315.75
660.74	36259.58
660.89	36392.99
661.03	36086.38
661.17	35983.40
661.32	35679.13
661.46	35419.33
661.60	35662.74
661.74	35653.38
661.89	35772.75
662.03	35868.71
662.17	35711.89
662.31	35292.94
662.46	35260.17
662.60	35381.88
662.74	35414.65
662.88	35290.60
663.03	35290.60
663.17	35470.82
663.31	35330.39
663.45	35545.72
663.60	35225.06
663.74	35391.24
663.88	35250.81
664.02	34934.84
664.17	35016.75
664.31	34843.56
664.45	35234.42
664.59	34948.88
664.73	34827.17
664.88	34885.68
665.02	34396.51
665.16	34955.90
665.30	34895.05
665.44	34635.25
665.59	33605.41
665.73	34412.90
665.87	34562.69
666.01	34534.60
666.15	34096.92
666.29	34253.74
666.44	34155.44
666.58	34632.91
666.72	34110.97
666.86	34380.13
667.00	34043.09
667.14	33991.60
667.28	33605.41
667.43	33647.54
667.57	33755.21
667.71	33228.59
667.85	33633.50
667.99	33797.34
668.13	33434.55
668.27	33383.06
668.41	33612.43
668.56	33354.97
668.70	33652.22
668.84	33195.82
668.98	33675.63
669.12	33305.82
669.26	33158.37
669.40	32783.88
669.54	32840.06
669.68	32982.83
669.82	33062.41
669.96	32989.85
670.10	32685.58
670.25	33053.05
670.39	33064.75
670.53	32676.22
670.67	32676.22
670.81	32622.39
670.95	32732.39
671.09	32957.08
671.23	32645.79
671.37	32807.29
671.51	32507.70
671.65	32306.41
671.79	32100.45
671.93	31714.26
672.07	32252.58
672.21	32067.68
672.35	31740.00
672.49	31489.57
672.63	31674.47
672.77	31702.56
672.91	32074.70
673.05	31765.75
673.19	31721.28
673.33	31725.96
673.47	31545.74
673.61	31276.58
673.75	31058.91
673.89	31014.44
674.03	30766.34
674.17	30988.69
674.31	31049.55
674.45	31012.10
674.59	31063.59
674.73	30981.67
674.87	30892.73
675.01	30972.31
675.15	30742.94
675.29	30962.95
675.43	30635.27
675.56	30803.79
675.70	30527.61
675.84	30382.49
675.98	29488.41
676.12	30167.16
676.26	29890.98
676.40	29638.20
676.54	29867.58
676.68	29776.30
676.82	29413.51
676.96	29495.43
677.10	29425.22
677.23	29443.94
677.37	29970.56
677.51	29280.10
677.65	28992.22
677.79	28910.30
677.93	29179.46
678.07	28737.10
678.21	28531.13
678.34	28615.39
678.48	28362.61
678.62	28673.90
678.76	28446.87
678.90	28453.89
679.04	28395.38
679.18	28364.95
679.31	28203.46
679.45	28112.17
679.59	27761.09
679.73	27875.78
679.87	27763.43
680.00	27709.60
680.14	27700.24
680.28	27440.44
680.42	27405.33
680.56	27548.11
680.70	27374.91
680.83	27339.80
680.97	27000.42
681.11	27087.02
681.25	26984.04
681.39	26923.18
681.52	26759.34
681.66	27016.80
681.80	26939.57
681.94	26984.04
682.07	26600.19
682.21	26361.45
682.35	26279.54
682.49	26478.48
682.62	26506.57
682.76	25968.24
682.90	26127.40
683.04	26111.02
683.17	26223.36
683.31	25907.39
683.45	25942.50
683.59	25439.28
683.72	25490.77
683.86	25338.64
684.00	25486.09
684.13	25507.16
684.27	25476.73
684.41	25118.63
684.55	25029.69
684.68	24732.44
684.82	24697.33
684.96	24755.85
685.09	24533.50
685.23	24568.60
685.37	24884.58
685.50	24783.93
685.64	24421.15
685.78	24254.97
685.91	24168.37
686.05	24233.91
686.19	23623.03
686.32	23866.44
686.46	23576.22
686.60	23379.61
686.73	23522.38
686.87	23520.04
687.01	23442.81
687.14	23112.79
687.28	22862.35
687.42	22948.95
687.55	22714.90
687.69	23234.50
687.82	23264.92
687.96	23002.78
688.10	22628.30
688.23	22565.10
688.37	22335.73
688.50	22473.82
688.64	22263.18
688.78	22333.39
688.91	22284.24
689.05	22277.22
689.18	22094.66
689.32	21654.64
689.46	22092.32
689.59	22232.75
689.73	21979.97
689.86	21507.18
690.00	21696.77
690.13	22038.48
690.27	21472.07
690.41	21493.14
690.54	21294.19
690.68	21144.40
690.81	21039.08
690.95	21050.78
691.08	20900.98
691.22	21078.86
691.35	21263.77
691.49	20840.13
691.62	20697.36
691.76	20748.85
691.89	20601.40
692.03	20460.96
692.16	20285.42
692.30	20482.03
692.43	20446.92
692.57	20198.82
692.70	19901.58
692.84	20091.16
692.97	19770.51
693.11	19740.08
693.24	19592.62
693.38	19772.85
693.51	19562.20
693.65	20018.60
693.78	19243.88
693.92	19592.62
694.05	19307.08
694.19	19021.53
694.32	19084.73
694.45	19204.10
694.59	19424.11
694.72	18972.38
694.86	18824.93
694.99	18314.69
695.13	18789.82
695.26	18513.64
695.39	18157.88
695.53	18288.95
695.66	18560.45
695.80	18380.23
695.93	18204.69
696.07	18211.71
696.20	18572.15
696.33	18022.12
696.47	18019.78
696.60	18033.83
696.73	17734.24
696.87	17539.97
697.00	18033.83
697.14	17774.03
697.27	17788.07
697.40	17507.21
697.54	17504.87
697.67	17188.89
697.80	17481.46
697.94	16947.82
698.07	17048.46
698.21	17184.21
698.34	16947.82
698.47	16889.31
698.61	16727.81
698.74	16514.82
698.87	16652.91
699.01	16329.92
699.14	16432.90
699.27	16603.76
699.40	16442.26
699.54	16063.10
699.67	16044.37
699.80	16369.71
699.94	16173.10
700.07	15913.30
700.20	16259.70
700.34	15669.89
700.47	15779.89
700.60	16388.43
700.73	15894.58
700.87	15908.62
701.00	15405.41
701.13	15578.61
701.26	15644.14
701.40	15461.58
701.53	15342.21
701.66	15555.20
701.79	15234.55
701.93	14977.09
702.06	14752.40
702.19	14899.85
702.32	14974.75
702.46	14600.26
702.59	14876.44
702.72	14860.06
702.85	14530.05
702.99	14778.14
703.12	14703.25
703.25	14611.96
703.38	14595.58
703.51	14347.48
703.65	14171.94
703.78	14258.54
703.91	14073.64
704.04	13963.64
704.17	13745.97
704.31	13820.86
704.44	13799.80
704.57	13774.05
704.70	13518.93
704.83	13654.69
704.96	13699.16
705.10	13429.99
705.23	13743.63
>>>>>End Processed Spectral Data<<<<<
