SpectraSuite Data File
++++++++++++++++++++++++++++++++++++
Date: Fri Oct 25 10:47:08 EDT 2013
User: price-jones
Dark Spectrum Present: No
Reference Spectrum Present: No
Number of Sampled Component Spectra: 1
Spectrometers: USB2+H05261
Integration Time (usec): 100000 (USB2+H05261)
Spectra Averaged: 1 (USB2+H05261)
Boxcar Smoothing: 0 (USB2+H05261)
Correct for Electrical Dark: No (USB2+H05261)
Strobe/Lamp Enabled: No (USB2+H05261)
Correct for Detector Non-linearity: No (USB2+H05261)
Correct for Stray Light: No (USB2+H05261)
Number of Pixels in Processed Spectrum: 2048
>>>>>Begin Processed Spectral Data<<<<<
365.73	119.37
365.92	119.37
366.12	119.37
366.32	49.15
366.52	21.06
366.72	72.56
366.91	39.79
367.11	60.85
367.31	0.00
367.51	0.00
367.70	0.00
367.90	46.81
368.10	28.09
368.30	32.77
368.49	0.00
368.69	63.19
368.89	42.13
369.09	86.60
369.28	46.81
369.48	105.32
369.68	133.41
369.87	67.88
370.07	114.69
370.27	121.71
370.47	201.29
370.66	390.87
370.86	454.06
371.06	383.85
371.25	416.62
371.45	433.00
371.65	435.34
371.84	461.09
372.04	386.19
372.24	430.66
372.44	496.19
372.63	442.36
372.83	505.56
373.03	507.90
373.22	557.05
373.42	456.40
373.62	465.77
373.81	550.03
374.01	589.82
374.21	486.83
374.40	589.82
374.60	622.58
374.79	517.26
374.99	514.92
375.19	573.43
375.38	496.19
375.58	547.69
375.78	564.07
375.97	545.34
376.17	601.52
376.37	463.43
376.56	601.52
376.76	622.58
376.95	594.50
377.15	559.39
377.35	587.47
377.54	624.92
377.74	608.54
377.93	641.31
378.13	650.67
378.33	650.67
378.52	599.18
378.72	603.86
378.91	645.99
379.11	589.82
379.31	585.13
379.50	587.47
379.70	655.35
379.89	643.65
380.09	697.48
380.28	638.97
380.48	610.88
380.68	613.22
380.87	660.03
381.07	645.99
381.26	662.37
381.46	620.24
381.65	688.12
381.85	676.41
382.04	692.80
382.24	725.57
382.43	678.76
382.63	660.03
382.83	655.35
383.02	772.38
383.22	751.31
383.41	674.07
383.61	805.14
383.80	704.50
384.00	697.48
384.19	751.31
384.39	777.06
384.58	709.18
384.78	725.57
384.97	793.44
385.17	727.91
385.36	802.80
385.56	674.07
385.75	727.91
385.95	791.10
386.14	760.67
386.34	833.23
386.53	858.98
386.72	758.33
386.92	791.10
387.11	772.38
387.31	791.10
387.50	837.91
387.70	706.84
387.89	779.40
388.09	788.76
388.28	781.74
388.48	947.92
388.67	882.38
388.86	856.64
389.06	889.40
389.25	851.96
389.45	779.40
389.64	868.34
389.84	840.25
390.03	973.66
390.22	830.89
390.42	924.51
390.61	987.71
390.81	950.26
391.00	985.37
391.19	1008.77
391.39	926.85
391.58	938.55
391.78	915.15
391.97	959.62
392.16	840.25
392.36	994.73
392.55	898.77
392.75	959.62
392.94	980.68
393.13	926.85
393.33	936.21
393.52	1008.77
393.71	1039.20
393.91	950.26
394.10	1032.18
394.29	964.30
394.49	957.28
394.68	1109.41
394.88	1053.24
395.07	1088.35
395.26	1095.37
395.46	1078.99
395.65	1238.14
395.84	1144.52
396.04	1146.86
396.23	1048.56
396.42	1125.80
396.62	1069.62
396.81	1191.33
397.00	1095.37
397.19	1111.75
397.39	1118.78
397.58	1224.10
397.77	1118.78
397.97	1235.80
398.16	1284.95
398.35	1299.00
398.55	1203.04
398.74	1252.19
398.93	1376.24
399.12	1350.49
399.32	1322.40
399.51	1322.40
399.70	1392.62
399.90	1359.85
400.09	1345.81
400.28	1329.42
400.47	1287.29
400.67	1493.26
400.86	1455.81
401.05	1479.22
401.24	1371.55
401.44	1509.65
401.63	1441.77
401.82	1495.60
402.01	1394.96
402.21	1514.33
402.40	1549.43
402.59	1605.61
402.78	1514.33
402.97	1589.22
403.17	1563.48
403.36	1591.56
403.55	1626.67
403.74	1572.84
403.93	1526.03
404.13	1633.69
404.32	1610.29
404.51	1706.25
404.70	1717.95
404.89	1554.12
405.09	1664.12
405.28	1603.27
405.47	1746.04
405.66	1767.10
405.85	1739.02
406.05	1694.55
406.24	1783.49
406.43	1776.47
406.62	1837.32
406.81	1806.89
407.00	1743.70
407.20	1785.83
407.39	1881.79
407.58	1748.38
407.77	1975.41
407.96	1956.69
408.15	1877.11
408.34	1977.75
408.54	1844.34
408.73	1902.86
408.92	2022.22
409.11	1975.41
409.30	2059.67
409.49	2017.54
409.68	2019.88
409.87	2015.20
410.07	1998.82
410.26	1982.43
410.45	2225.85
410.64	2148.61
410.83	2195.42
411.02	2200.10
411.21	2165.00
411.40	2083.08
411.59	2225.85
411.78	2230.53
411.98	2317.13
412.17	2349.90
412.36	2314.79
412.55	2289.04
412.74	2345.22
412.93	2368.62
413.12	2277.34
413.31	2532.46
413.50	2443.52
413.69	2459.90
413.88	2450.54
414.07	2637.78
414.26	2415.43
414.45	2607.36
414.64	2478.63
414.83	2661.19
415.02	2619.06
415.22	2787.58
415.41	2668.21
415.60	2724.38
415.79	2684.59
415.98	2750.13
416.17	2890.56
416.36	2883.54
416.55	2708.00
416.74	2949.08
416.93	2801.62
417.12	2850.77
417.31	2869.50
417.50	2960.78
417.69	3047.38
417.88	3042.70
418.07	3009.93
418.26	2944.39
418.45	3059.08
418.64	3222.92
418.83	3045.04
419.02	3103.55
419.21	3290.79
419.39	3171.43
419.58	3141.00
419.77	3096.53
419.96	3246.32
420.15	3206.53
420.34	3304.84
420.53	3204.19
420.72	3295.47
420.91	3267.39
421.10	3112.91
421.29	3426.54
421.48	3302.50
421.67	3353.99
421.86	3300.16
422.05	3269.73
422.24	3290.79
422.43	3389.10
422.61	3382.07
422.80	3468.67
422.99	3386.76
423.18	3492.08
423.37	3529.53
423.56	3372.71
423.75	3496.76
423.94	3520.17
424.13	3122.27
424.32	3222.92
424.50	3426.54
424.69	3541.23
424.88	3499.10
425.07	3485.06
425.26	3407.82
425.45	3548.25
425.64	3456.97
425.83	3552.93
426.01	3606.77
426.20	3503.78
426.39	3506.12
426.58	3632.51
426.77	3569.32
426.96	3524.85
427.15	3599.74
427.33	3632.51
427.52	3555.27
427.71	3674.64
427.90	3808.05
428.09	3672.30
428.28	3761.24
428.46	3779.97
428.65	3609.11
428.84	3861.88
429.03	3950.82
429.22	3688.68
429.40	3749.54
429.59	3850.18
429.78	3604.42
429.97	3698.05
430.16	3709.75
430.34	3676.98
430.53	3761.24
430.72	3927.42
430.91	3763.58
431.10	3836.14
431.28	3981.25
431.47	4173.18
431.66	4030.40
431.85	3976.57
432.03	4124.02
432.22	4236.37
432.41	4074.87
432.60	4093.60
432.79	4067.85
432.97	4297.22
433.16	4325.31
433.35	4117.00
433.54	4166.15
433.72	4208.28
433.91	4159.13
434.10	4278.50
434.28	4283.18
434.47	4266.80
434.66	4355.74
434.85	4358.08
435.03	4299.56
435.22	4348.72
435.41	4561.70
435.59	4477.44
435.78	4631.92
435.97	4550.00
436.16	4568.73
436.34	4664.69
436.53	4547.66
436.72	4587.45
436.90	4564.04
437.09	4781.71
437.28	4613.20
437.46	4547.66
437.65	4594.47
437.84	4650.64
438.02	4627.24
438.21	4641.28
438.40	4695.11
438.58	4713.84
438.77	4856.61
438.96	4772.35
439.14	4971.30
439.33	4957.25
439.52	5081.30
439.70	5036.83
439.89	5032.15
440.08	5207.69
440.26	5198.33
440.45	5048.54
440.63	5210.03
440.82	5195.99
441.01	5228.76
441.19	5221.74
441.38	5371.53
441.57	5137.48
441.75	5537.71
441.94	5488.56
442.12	5380.89
442.31	5769.42
442.50	5540.05
442.68	5603.24
442.87	5329.40
443.05	5640.69
443.24	5673.46
443.43	5643.03
443.61	5767.08
443.80	5860.70
443.98	5540.05
444.17	5448.77
444.35	5586.86
444.54	5746.02
444.73	5661.76
444.91	5673.46
445.10	5643.03
445.28	5785.80
445.47	5605.58
445.65	5776.44
445.84	5762.40
446.02	5696.86
446.21	5668.78
446.39	5825.59
446.58	5902.83
446.77	5905.17
446.95	5764.74
447.14	5909.85
447.32	5774.10
447.51	5865.38
447.69	5743.67
447.88	5895.81
448.06	5947.30
448.25	6057.31
448.43	5902.83
448.62	5816.23
448.80	5818.57
448.99	5991.77
449.17	5813.89
449.36	5975.39
449.54	6092.41
449.73	6160.29
449.91	6176.67
450.10	6296.04
450.28	6291.36
450.46	6164.97
450.65	6291.36
450.83	6256.25
451.02	6403.71
451.20	6387.32
451.39	6494.99
451.57	6242.21
451.76	6396.68
451.94	6340.51
452.13	6558.18
452.31	6420.09
452.49	6370.94
452.68	6464.56
452.86	6401.37
453.05	6387.32
453.23	6399.02
453.42	6422.43
453.60	6562.86
453.78	6656.48
453.97	6455.20
454.15	6457.54
454.34	6490.31
454.52	6583.93
454.70	6614.35
454.89	6895.22
455.07	6527.75
455.26	6700.95
455.44	6827.34
455.62	6864.79
455.81	6829.68
455.99	6796.92
456.17	6906.92
456.36	6855.43
456.54	7068.42
456.73	6871.81
456.91	7194.81
457.09	7119.91
457.28	7335.24
457.46	7040.33
457.64	7204.17
457.83	7185.44
458.01	7096.50
458.19	7396.09
458.38	7140.97
458.56	7330.56
458.74	7199.49
458.93	7323.54
459.11	7197.15
459.29	7330.56
459.48	7454.61
459.66	7295.45
459.84	7599.72
460.03	7515.46
460.21	7435.88
460.39	7557.59
460.57	7620.78
460.76	7665.25
460.94	7578.65
461.12	7709.72
461.31	7660.57
461.49	7707.38
461.67	7775.26
461.85	7733.13
462.04	7714.41
462.22	8236.35
462.40	7653.55
462.59	7552.91
462.77	7899.31
462.95	7953.14
463.13	7822.07
463.32	8028.04
463.50	8023.36
463.68	7962.50
463.86	7957.82
464.05	7784.62
464.23	7894.63
464.41	8102.93
464.59	8021.02
464.78	8159.11
464.96	7955.48
465.14	8119.32
465.32	8182.51
465.50	8341.67
465.69	8114.64
465.87	8231.66
466.05	8329.97
466.23	8208.26
466.41	8187.19
466.60	8507.85
466.78	8065.49
466.96	8243.37
467.14	8306.56
467.32	8404.86
467.51	8713.81
467.69	7955.48
467.87	8444.65
468.05	8407.20
468.23	8376.78
468.41	8348.69
468.60	8414.23
468.78	8667.00
468.96	8472.74
469.14	8772.33
469.32	8762.97
469.50	8416.57
469.69	8655.30
469.87	8730.20
470.05	8805.10
470.23	9053.19
470.41	8718.50
470.59	9011.06
470.77	8870.63
470.95	8908.08
471.14	9085.96
471.32	8933.82
471.50	9186.60
471.68	9186.60
471.86	9202.99
472.04	9053.19
472.22	9357.46
472.40	9240.44
472.58	9202.99
472.77	9083.62
472.95	9394.91
473.13	9713.22
473.31	9408.95
473.49	9565.77
473.67	9533.00
473.85	9355.12
474.03	9802.16
474.21	9511.94
474.39	9589.17
474.57	9799.82
474.75	10031.54
474.93	10078.35
475.12	9923.87
475.30	10134.52
475.48	10066.64
475.66	10263.25
475.84	10073.67
476.02	10211.76
476.20	10197.71
476.38	10347.51
476.56	10501.98
476.74	10576.88
476.92	10534.75
477.10	10534.75
477.28	10778.17
477.46	10710.29
477.64	11026.26
477.82	10970.09
478.00	11073.07
478.18	11021.58
478.36	11433.52
478.54	11384.37
478.72	11513.10
478.90	11288.40
479.08	11595.01
479.26	11754.17
479.44	11843.11
479.62	11906.31
479.80	11910.99
479.98	11868.86
480.16	12042.06
480.34	12051.42
480.52	12304.20
480.70	12425.90
480.88	12006.95
481.06	12425.90
481.24	12566.34
481.41	12622.51
481.59	12901.03
481.77	12849.54
481.95	13022.74
482.13	13118.70
482.31	13132.75
482.49	13357.44
482.67	13385.52
482.85	13275.52
483.03	13504.89
483.21	13687.45
483.39	13937.89
483.57	13748.31
483.74	13870.01
483.92	13855.97
484.10	14104.07
484.28	14354.51
484.46	14602.60
484.64	14614.30
484.82	14611.96
485.00	14370.89
485.18	14925.60
485.35	14925.60
485.53	14974.75
485.71	15049.64
485.89	15009.86
486.07	15096.46
486.25	15204.12
486.43	15445.20
486.61	15597.33
486.78	15559.88
486.96	15744.78
487.14	16037.35
487.32	16037.35
487.50	16229.27
487.68	16416.52
487.85	16402.47
488.03	16606.10
488.21	16826.11
488.39	16690.36
488.57	16812.07
488.75	16781.64
488.92	17128.04
489.10	17315.28
489.28	17511.89
489.46	17912.12
489.64	17591.47
489.81	18073.62
489.99	18054.89
490.17	18389.59
490.35	18380.23
490.53	18396.61
490.70	18628.32
490.88	18251.50
491.06	18677.48
491.24	18714.92
491.41	18649.39
491.59	18860.04
491.77	19000.47
491.95	19227.50
492.13	19337.51
492.30	19403.04
492.48	19491.98
492.66	19793.91
492.84	19590.28
493.01	19800.93
493.19	19814.98
493.37	20184.78
493.54	20505.43
493.72	20442.24
493.90	20655.23
494.08	20535.86
494.25	21081.21
494.43	21088.23
494.61	20999.29
494.79	21273.13
494.96	20879.92
495.14	21392.50
495.32	21446.33
495.49	21525.91
495.67	21694.43
495.85	22012.74
496.02	21781.03
496.20	21900.39
496.38	22066.57
496.55	22115.72
496.73	22677.45
496.91	22265.52
497.09	22321.69
497.26	22773.41
497.44	22644.68
497.62	23021.51
497.79	22831.93
497.97	23065.98
498.14	23009.81
498.32	23290.67
498.50	23541.11
498.67	23735.37
498.85	23646.43
499.03	23683.88
499.20	23737.71
499.38	23941.34
499.56	24046.66
499.73	24224.54
499.91	24414.13
500.08	24372.00
500.26	24430.51
500.44	24259.65
500.61	24432.85
500.79	24615.41
500.97	24624.78
501.14	24643.50
501.32	24973.52
501.49	24903.30
501.67	25181.82
501.84	25158.42
502.02	25001.60
502.20	25268.42
502.37	25586.74
502.55	25289.49
502.72	25348.00
502.90	25542.27
503.07	25560.99
503.25	26101.65
503.43	25493.12
503.60	26010.37
503.78	25919.09
503.95	26045.48
504.13	26389.54
504.30	26490.18
504.48	26164.85
504.65	26419.97
504.83	26780.41
505.01	26569.76
505.18	26768.71
505.36	27304.69
505.53	26604.87
505.71	26796.79
505.88	26991.06
506.06	27037.87
506.23	27175.96
506.41	26984.04
506.58	27274.26
506.76	27295.33
506.93	27192.34
507.11	27440.44
507.28	27154.90
507.46	27613.64
507.63	27501.29
507.81	27938.97
507.98	27725.99
508.16	27938.97
508.33	28264.31
508.50	28554.54
508.68	28519.43
508.85	28631.77
509.03	28357.93
509.20	28273.67
509.38	28662.20
509.55	28922.00
509.73	28498.36
509.90	28666.88
510.08	28760.50
510.25	29036.69
510.42	29076.48
510.60	29149.03
510.77	29469.69
510.95	29567.99
511.12	29336.27
511.30	29923.75
511.47	29883.96
511.64	29750.55
511.82	29764.59
511.99	29516.50
512.17	29933.11
512.34	29720.12
512.51	29692.04
512.69	29727.14
512.86	29963.54
513.04	30195.25
513.21	30253.76
513.38	30286.53
513.56	30256.11
513.73	30216.32
513.90	30487.82
514.08	30553.35
514.25	30820.17
514.43	30937.20
514.60	30738.26
514.77	30710.17
514.95	30735.92
515.12	31122.10
515.29	30796.77
515.47	31449.78
515.64	31725.96
515.81	31248.49
515.99	31283.60
516.16	31274.24
516.33	31105.72
516.51	31328.07
516.68	31222.75
516.85	30759.32
517.03	31360.84
517.20	31826.60
517.37	32044.27
517.54	31793.84
517.72	32006.83
517.89	31786.82
518.06	31955.33
518.24	31838.31
518.41	32095.77
518.58	32128.53
518.75	32393.01
518.93	32655.15
519.10	32275.99
519.27	32793.25
519.45	32854.10
519.62	33006.23
519.79	32716.01
519.96	32804.95
520.14	32994.53
520.31	33111.56
520.48	32952.40
520.65	32926.66
520.83	33132.62
521.00	33310.50
521.17	33537.54
521.34	33429.87
521.52	33425.19
521.69	33954.15
521.86	33446.26
522.03	33553.92
522.20	33507.11
522.38	33989.26
522.55	34087.56
522.72	34036.07
522.89	33741.16
523.07	34087.56
523.24	33986.92
523.41	34370.77
523.58	34485.45
523.75	34714.83
523.92	34747.59
524.10	34141.39
524.27	34771.00
524.44	34354.38
524.61	34883.34
524.78	34925.47
524.96	34747.59
525.13	34803.77
525.30	34916.11
525.47	35442.73
525.64	35367.84
525.81	34735.89
525.98	35072.93
526.16	35007.39
526.33	35145.48
526.50	35332.73
526.67	34974.63
526.84	35000.37
527.01	35124.42
527.18	35236.77
527.36	35744.66
527.53	35728.28
527.70	35597.21
527.87	35786.79
528.04	35861.69
528.21	35901.48
528.38	35988.08
528.55	35924.88
528.72	35821.90
528.89	35943.61
529.07	35959.99
529.24	36011.48
529.41	36196.38
529.58	35938.93
529.75	35997.44
529.92	36175.32
530.09	36458.52
530.26	36194.04
530.43	36577.89
530.60	36201.07
530.77	36416.40
530.94	36493.63
531.11	36273.62
531.28	36884.50
531.46	36935.99
531.63	36837.69
531.80	37156.00
531.97	36622.36
532.14	37010.89
532.31	36645.77
532.48	37205.16
532.65	37308.14
532.82	36861.10
532.99	37158.34
533.16	36746.41
533.33	37364.31
533.50	37816.04
533.67	37394.74
533.84	37603.05
534.01	37518.79
534.18	37558.58
534.35	37766.88
534.52	37586.66
534.69	37539.85
534.86	37947.11
535.03	37813.70
535.20	37832.42
535.37	38309.89
535.54	38424.57
535.71	37977.53
535.88	38305.21
536.05	37696.67
536.22	38270.10
536.38	37888.59
536.55	38075.84
536.72	38246.69
536.89	37797.31
537.06	38106.26
537.23	38258.40
537.40	38368.40
537.57	38698.42
537.74	38440.96
537.91	39407.60
538.08	38766.29
538.25	38588.41
538.42	38752.25
538.59	39061.20
538.75	38630.54
538.92	38752.25
539.09	38658.63
539.26	38836.51
539.43	38951.20
539.60	39187.59
539.77	38724.16
539.94	39065.88
540.11	39136.10
540.28	38904.38
540.44	38911.41
540.61	39140.78
540.78	38789.70
540.95	39009.71
541.12	38747.57
541.29	38834.17
541.46	39480.16
541.62	39372.49
541.79	39533.99
541.96	39337.38
542.13	39871.03
542.30	39725.91
542.47	39763.36
542.63	39934.22
542.80	39948.26
542.97	40196.36
543.14	40304.02
543.31	39786.77
543.48	40252.53
543.64	40762.77
543.81	40156.57
543.98	40194.02
544.15	40041.88
544.32	40746.39
544.48	40669.15
544.65	40477.22
544.82	39931.88
544.99	39938.90
545.16	40495.95
545.32	40458.50
545.49	40552.12
545.66	40926.61
545.83	41308.11
546.00	40914.90
546.16	40605.95
546.33	40598.93
546.50	40236.15
546.67	40730.00
546.83	40917.25
547.00	40622.34
547.17	40620.00
547.34	40802.56
547.50	40868.09
547.67	40783.83
547.84	40755.75
548.00	41067.04
548.17	41457.91
548.34	41177.04
548.51	41102.15
548.67	40982.78
548.84	41652.17
549.01	41427.48
549.18	41198.11
549.34	41626.43
549.51	41317.48
549.68	41387.69
549.84	41404.08
550.01	42073.47
550.18	41420.46
550.34	41294.07
550.51	41469.61
550.68	41270.67
550.84	41481.31
551.01	41270.67
551.18	41572.60
551.34	41965.81
551.51	41949.42
551.68	41993.89
551.84	41954.10
552.01	42124.96
552.18	41687.28
552.34	41682.60
552.51	42192.84
552.68	41902.61
552.84	42110.92
553.01	42258.37
553.18	42197.52
553.34	41776.22
553.51	42085.17
553.67	42590.73
553.84	42831.80
554.01	42227.95
554.17	42377.74
554.34	42466.68
554.51	42513.49
554.67	42649.24
554.84	42326.25
555.00	42298.16
555.17	42169.43
555.33	42323.91
555.50	42490.09
555.67	42396.46
555.83	42171.77
556.00	42773.29
556.16	42550.94
556.33	42541.58
556.50	42855.21
556.66	42569.66
556.83	43232.04
556.99	42997.98
557.16	43047.13
557.32	43199.27
557.49	42639.88
557.65	42934.79
557.82	42775.63
557.98	42834.14
558.15	42632.86
558.32	42948.83
558.48	42841.17
558.65	43356.08
558.81	42663.28
558.98	43110.33
559.14	43236.72
559.31	43192.25
559.47	43056.50
559.64	43454.39
559.80	43248.42
559.97	43363.11
560.13	42759.25
560.30	42534.56
560.46	43543.33
560.63	43124.37
560.79	43398.21
560.96	43459.07
561.12	43166.50
561.29	43299.91
561.45	43531.62
561.61	43133.73
561.78	43515.24
561.94	43405.23
562.11	43576.09
562.27	43564.39
562.44	43072.88
562.60	43634.61
562.77	43339.70
562.93	43585.46
563.10	43536.30
563.26	43210.97
563.42	43391.19
563.59	43487.15
563.75	43524.60
563.92	44039.52
564.08	43810.15
564.24	43885.04
564.41	43856.96
564.57	43573.75
564.74	43920.15
564.90	43688.44
565.07	43737.59
565.23	43391.19
565.39	43452.05
565.56	43716.53
565.72	43463.75
565.88	43566.73
566.05	43889.73
566.21	43576.09
566.38	43585.46
566.54	43606.52
566.70	43966.96
566.87	44552.10
567.03	43562.05
567.19	44250.17
567.36	43639.29
567.52	44086.33
567.68	43934.20
567.85	43569.07
568.01	44364.85
568.17	43758.66
568.34	43978.67
568.50	44289.96
568.66	43842.92
568.83	43973.98
568.99	43482.47
569.15	43466.09
569.32	43959.94
569.48	43887.39
569.64	44243.15
569.81	44030.16
569.97	44041.86
570.13	44374.22
570.30	43812.49
570.46	43854.62
570.62	43936.54
570.78	43973.98
570.95	43569.07
571.11	44346.13
571.27	43810.15
571.43	44058.24
571.60	44203.36
571.76	43906.11
571.92	43793.76
572.09	44179.95
572.25	44170.59
572.41	43805.47
572.57	43910.79
572.74	44568.48
572.90	44479.54
573.06	44226.76
573.22	43732.91
573.38	43856.96
573.55	43761.00
573.71	44533.37
573.87	44484.22
574.03	44245.49
574.20	44360.17
574.36	44053.56
574.52	44428.05
574.68	44416.35
574.84	44369.54
575.01	44093.35
575.17	44055.90
575.33	43917.81
575.49	44083.99
575.65	44776.79
575.82	44793.17
575.98	44453.79
576.14	44734.66
576.30	44561.46
576.46	44189.31
576.62	43763.34
576.79	43873.34
576.95	43828.87
577.11	44491.24
577.27	44545.08
577.43	44304.00
577.59	44191.65
577.75	44271.23
577.92	44381.24
578.08	44088.67
578.24	43906.11
578.40	44126.12
578.56	44376.56
578.72	44385.92
578.88	44584.86
579.04	44648.06
579.21	44360.17
579.37	44186.97
579.53	43906.11
579.69	44404.64
579.85	44339.11
580.01	44905.52
580.17	44374.22
580.33	44577.84
580.49	44114.42
580.65	44243.15
580.82	44563.80
580.98	44650.40
581.14	44275.91
581.30	44596.57
581.46	44687.85
581.62	44313.36
581.78	44261.87
581.94	44601.25
582.10	44369.54
582.26	44732.32
582.42	44699.55
582.58	44308.68
582.74	44102.71
582.90	44451.45
583.06	44275.91
583.22	44559.12
583.38	44978.07
583.54	44713.59
583.70	44718.28
583.86	44470.18
584.02	43875.68
584.18	44687.85
584.34	44147.18
584.50	44325.07
584.66	44584.86
584.82	44610.61
584.98	44610.61
585.14	44072.29
585.30	44336.77
585.46	44332.09
585.62	44605.93
585.78	44409.32
585.94	44516.99
586.10	44259.53
586.26	44154.21
586.42	44580.18
586.58	44406.98
586.74	44406.98
586.90	44554.44
587.06	44041.86
587.22	44865.73
587.38	44182.29
587.54	44968.71
587.70	44673.81
587.86	44535.71
588.02	44444.43
588.18	44673.81
588.34	44601.25
588.49	44348.47
588.65	43906.11
588.81	43931.86
588.97	44648.06
589.13	44201.02
589.29	44472.52
589.45	44655.08
589.61	44423.37
589.77	44706.57
589.93	44444.43
590.08	44697.21
590.24	44769.77
590.40	44772.11
590.56	44907.86
590.72	44598.91
590.88	44128.46
591.04	44634.02
591.20	45221.49
591.35	44753.38
591.51	44893.82
591.67	44495.92
591.83	44577.84
591.99	44542.74
592.15	44811.90
592.31	45048.29
592.46	44149.53
592.62	44858.71
592.78	44744.02
592.94	44741.68
593.10	44641.04
593.26	44680.83
593.41	44879.77
593.57	44481.88
593.73	44423.37
593.89	44816.58
594.05	44769.77
594.20	44528.69
594.36	45258.94
594.52	44858.71
594.68	44704.23
594.84	44500.61
594.99	44727.64
595.15	44811.90
595.31	44821.26
595.47	44985.10
595.62	44945.31
595.78	44533.37
595.94	44910.20
596.10	44900.84
596.25	45001.48
596.41	45085.74
596.57	44966.37
596.73	45003.82
596.88	44851.69
597.04	45191.06
597.20	44744.02
597.36	44804.88
597.51	45216.81
597.67	45244.90
597.83	44896.16
597.99	45315.11
598.14	44858.71
598.30	44666.78
598.46	44542.74
598.61	44900.84
598.77	44643.38
598.93	44957.01
599.09	44713.59
599.24	45397.03
599.40	45125.53
599.56	45584.27
599.71	44985.10
599.87	44844.66
600.03	44945.31
600.18	44570.82
600.34	44900.84
600.50	44893.82
600.65	44638.70
600.81	44947.65
600.97	45240.21
601.12	45443.84
601.28	45563.21
601.44	44945.31
601.59	45137.23
601.75	45083.40
601.91	44882.11
602.06	44711.25
602.22	44875.09
602.37	45022.54
602.53	45010.84
602.69	45088.08
602.84	44870.41
603.00	44919.56
603.16	45151.27
603.31	44959.35
603.47	44804.88
603.62	44416.35
603.78	44863.39
603.94	45071.70
604.09	44849.35
604.25	45380.65
604.40	45099.78
604.56	45099.78
604.71	44729.98
604.87	45006.16
605.03	44814.24
605.18	45071.70
605.34	44704.23
605.49	44797.85
605.65	44624.65
605.80	44800.19
605.96	44821.26
606.12	45165.32
606.27	44807.22
606.43	45036.59
606.58	45130.21
606.74	44774.45
606.89	44882.11
607.05	45141.91
607.20	44638.70
607.36	44685.51
607.51	44837.64
607.67	44978.07
607.82	44671.46
607.98	44538.05
608.13	44676.15
608.29	44404.64
608.44	44432.73
608.60	43882.70
608.75	44540.39
608.91	44336.77
609.06	44608.27
609.22	44699.55
609.37	44285.28
609.53	44289.96
609.68	44484.22
609.84	44474.86
609.99	44643.38
610.15	44762.75
610.30	44273.57
610.46	44275.91
610.61	44519.33
610.76	44069.95
610.92	44657.42
611.07	44318.04
611.23	44694.87
611.38	44308.68
611.54	43868.66
611.69	43672.06
611.84	44332.09
612.00	44198.68
612.15	44261.87
612.31	44151.87
612.46	44334.43
612.62	44378.90
612.77	44472.52
612.92	44603.59
613.08	43943.56
613.23	44067.61
613.39	44158.89
613.54	43990.37
613.69	43927.17
613.85	44353.15
614.00	44479.54
614.15	44105.06
614.31	44294.64
614.46	44165.91
614.62	44194.00
614.77	43878.02
614.92	43931.86
615.08	43730.57
615.23	44105.06
615.38	43625.25
615.54	43157.14
615.69	44002.07
615.84	43943.56
616.00	43807.81
616.15	43990.37
616.30	43803.13
616.46	43346.72
616.61	43510.56
616.76	43840.57
616.92	43461.41
617.07	43402.89
617.22	43519.92
617.37	43346.72
617.53	43627.59
617.68	43313.95
617.83	43695.46
617.99	43775.04
618.14	43365.45
618.29	43466.09
618.45	43075.22
618.60	43484.81
618.75	43533.96
618.90	43016.71
619.06	43665.03
619.21	43629.93
619.36	43519.92
619.51	43012.02
619.67	42796.70
619.82	43360.76
619.97	43517.58
620.12	42885.64
620.28	42895.00
620.43	42981.60
620.58	43061.18
620.73	43009.68
620.89	43131.39
621.04	43058.84
621.19	43159.48
621.34	42829.46
621.49	42946.49
621.65	42726.48
621.80	42859.89
621.95	42822.44
622.10	42410.51
622.25	42728.82
622.41	42436.25
622.56	42820.10
622.71	42911.38
622.86	42700.73
623.01	43072.88
623.16	42836.48
623.32	42646.90
623.47	42965.21
623.62	42794.36
623.77	42557.96
623.92	42312.20
624.07	42183.48
624.23	42382.42
624.38	42211.56
624.53	42396.46
624.68	42553.28
624.83	42476.04
624.98	42052.41
625.13	42787.33
625.29	42424.55
625.44	42611.79
625.59	41951.76
625.74	42057.09
625.89	41881.55
626.04	41624.09
626.19	42082.83
626.34	42302.84
626.49	42267.73
626.65	42190.50
626.80	42656.26
626.95	41771.54
627.10	41926.02
627.25	41958.78
627.40	41785.58
627.55	41235.56
627.70	41502.38
627.85	41228.54
628.00	41675.58
628.15	41820.69
628.30	42139.00
628.45	41801.97
628.60	41881.55
628.76	41942.40
628.91	41907.29
629.06	41710.69
629.21	41794.95
629.36	41303.43
629.51	41408.76
629.66	41525.78
629.81	41476.63
629.96	41504.72
630.11	41509.40
630.26	41493.02
630.41	41535.15
630.56	41392.37
630.71	41869.84
630.86	41429.82
631.01	41254.28
631.16	41813.67
631.31	41375.99
631.46	40793.20
631.61	41151.30
631.76	41179.39
631.91	41380.67
632.06	40975.76
632.21	41404.08
632.36	41106.83
632.51	40935.97
632.66	41036.61
632.81	40975.76
632.96	41057.68
633.10	40535.74
633.25	40617.66
633.40	40524.04
633.55	41308.11
633.70	40664.47
633.85	40636.38
634.00	40559.14
634.15	41024.91
634.30	40266.58
634.45	40350.84
634.60	40816.60
634.75	41024.91
634.90	40760.43
635.05	40477.22
635.19	40711.28
635.34	40882.14
635.49	40973.42
635.64	40327.43
635.79	40378.92
635.94	40102.74
636.09	40381.26
636.24	40093.38
636.39	40320.41
636.53	40313.39
636.68	39674.42
636.83	40156.57
636.98	40203.38
637.13	39833.58
637.28	40170.61
637.43	40526.38
637.57	40397.65
637.72	40479.57
637.87	40336.79
638.02	40687.87
638.17	40144.87
638.32	39988.05
638.46	39662.72
638.61	39697.83
638.76	39929.54
638.91	39852.30
639.06	40318.07
639.20	39651.02
639.35	40025.50
639.50	39632.29
639.65	40252.53
639.80	39861.66
639.94	39643.99
640.09	39634.63
640.24	39697.83
640.39	39552.71
640.54	39730.59
640.68	39550.37
640.83	39971.67
640.98	39351.43
641.13	39236.74
641.27	39948.26
641.42	39552.71
641.57	40123.80
641.72	40091.04
641.86	39419.30
642.01	39374.83
642.16	39225.04
642.31	39187.59
642.45	39143.12
642.60	39194.61
642.75	39068.22
642.90	39407.60
643.04	39363.13
643.19	39189.93
643.34	39501.22
643.48	39150.14
643.63	39159.50
643.78	38876.30
643.93	38705.44
644.07	38911.41
644.22	38895.02
644.37	38410.53
644.51	38794.38
644.66	38883.32
644.81	39126.74
644.95	39241.42
645.10	38820.13
645.25	39047.16
645.39	39122.05
645.54	39143.12
645.69	39159.50
645.83	39203.97
645.98	38855.23
646.13	38988.64
646.27	38794.38
646.42	38923.11
646.57	38885.66
646.71	39108.01
646.86	38508.83
647.00	38611.82
647.15	38597.77
647.30	38759.27
647.44	38614.16
647.59	38485.43
647.74	38656.29
647.88	38068.81
648.03	38370.74
648.17	38553.30
648.32	38017.32
648.47	38150.73
648.61	37869.87
648.76	38227.97
648.90	38429.26
649.05	38136.69
649.20	38340.32
649.34	38249.03
649.49	38122.65
649.63	38284.14
649.78	38375.42
649.92	37881.57
650.07	38630.54
650.21	37879.23
650.36	38426.92
650.51	37991.58
650.65	38293.50
650.80	38124.99
650.94	38237.33
651.09	37766.88
651.23	37811.35
651.38	37743.48
651.52	37954.13
651.67	37783.27
651.81	38108.60
651.96	37476.66
652.10	38082.86
652.25	37701.35
652.39	38108.60
652.54	37853.48
652.68	38139.03
652.83	37577.30
652.97	38230.31
653.12	37521.13
653.26	37635.81
653.41	37743.48
653.55	37722.41
653.70	37427.51
653.84	37542.19
653.99	36928.97
654.13	37535.17
654.27	37717.73
654.42	37942.42
654.56	37357.29
654.71	37483.68
654.85	37303.46
655.00	37151.32
655.14	37057.70
655.29	36706.62
655.43	37317.50
655.57	37198.13
655.72	37247.29
655.86	36905.57
656.01	37095.15
656.15	36903.23
656.30	36898.55
656.44	37139.62
656.58	36769.82
656.73	36603.64
656.87	36889.18
657.01	36254.90
657.16	36828.33
657.30	36638.75
657.45	36704.28
657.59	36486.61
657.73	36013.82
657.88	36872.80
658.02	36493.63
658.16	36622.36
658.31	36830.67
658.45	36748.75
658.60	36219.79
658.74	36769.82
658.88	36629.38
659.03	36067.66
659.17	36561.51
659.31	35903.82
659.46	36339.16
659.60	35833.60
659.74	35903.82
659.89	35840.62
660.03	35985.74
660.17	36123.83
660.32	35641.68
660.46	36392.99
660.60	35995.10
660.74	36247.88
660.89	36011.48
661.03	35854.67
661.17	35959.99
661.32	35269.53
661.46	35503.59
661.60	35578.48
661.74	35573.80
661.89	35849.99
662.03	35690.83
662.17	35250.81
662.31	35433.37
662.46	35489.54
662.60	35402.94
662.74	35566.78
662.88	35178.25
663.03	35147.82
663.17	35335.07
663.31	35028.46
663.45	34876.32
663.60	35147.82
663.74	34651.63
663.88	34684.40
664.02	34354.38
664.17	34998.03
664.31	34754.61
664.45	34962.92
664.59	34754.61
664.73	34876.32
664.88	34801.43
665.02	34408.22
665.16	34513.54
665.30	34122.67
665.44	34230.33
665.59	34089.90
665.73	33654.56
665.87	34155.44
666.01	34298.21
666.15	34204.59
666.29	33832.44
666.44	34448.00
666.58	34047.77
666.72	33965.85
666.86	34064.16
667.00	33958.83
667.14	34110.97
667.28	33656.90
667.43	33392.42
667.57	33869.89
667.71	33605.41
667.85	33472.00
667.99	33230.93
668.13	33291.78
668.27	33184.12
668.41	33750.52
668.56	33310.50
668.70	33460.30
668.84	33193.48
668.98	33240.29
669.12	32711.33
669.26	33097.52
669.40	33116.24
669.54	32559.19
669.68	32940.70
669.82	32830.69
669.96	32577.92
670.10	32519.40
670.25	32875.16
670.39	32552.17
670.53	32868.14
670.67	32402.38
670.81	32591.96
670.95	32402.38
671.09	32479.61
671.23	32481.95
671.37	32472.59
671.51	32400.04
671.65	31978.74
671.79	31934.27
671.93	31896.82
672.07	32091.09
672.21	32109.81
672.35	31508.29
672.49	31889.80
672.63	32070.02
672.77	31573.83
672.91	31494.25
673.05	31543.40
673.19	31255.51
673.33	31276.58
673.47	31138.49
673.61	31007.42
673.75	30986.35
673.89	30892.73
674.03	31409.99
674.17	31147.85
674.31	31000.40
674.45	30756.98
674.59	30742.94
674.73	31302.32
674.87	30785.07
675.01	30822.51
675.15	30974.65
675.29	30670.38
675.43	30579.10
675.56	30604.84
675.70	30213.98
675.84	29984.60
675.98	29120.95
676.12	29968.22
676.26	29542.24
676.40	29965.88
676.54	29706.08
676.68	29675.65
676.82	29397.13
676.96	29453.30
677.10	29287.12
677.23	29254.36
677.37	28779.23
677.51	29158.39
677.65	28924.34
677.79	28903.28
677.93	28830.72
678.07	28872.85
678.21	28465.60
678.34	28606.03
678.48	28093.45
678.62	28664.54
678.76	28666.88
678.90	28105.15
679.04	28301.76
679.18	28400.06
679.31	27751.73
679.45	27754.07
679.59	27447.46
679.73	27812.59
679.87	27700.24
680.00	27360.86
680.14	27662.79
680.28	27489.59
680.42	27424.06
680.56	27482.57
680.70	27405.33
680.83	27316.39
680.97	27190.00
681.11	26761.69
681.25	26684.45
681.39	26761.69
681.52	26607.21
681.66	26661.04
681.80	26504.23
681.94	26314.64
682.07	26771.05
682.21	26120.38
682.35	25923.77
682.49	26108.68
682.62	26342.73
682.76	26064.21
682.90	26281.88
683.04	25879.30
683.17	25820.79
683.31	25589.08
683.45	25600.78
683.59	25881.64
683.72	25525.88
683.86	25294.17
684.00	24919.68
684.13	25333.96
684.27	25301.19
684.41	24755.85
684.55	25057.78
684.68	24900.96
684.82	24765.21
684.96	24610.73
685.09	24355.61
685.23	24519.45
685.37	24194.12
685.50	24175.39
685.64	24105.18
685.78	24301.78
685.91	24077.09
686.05	24194.12
686.19	23751.76
686.32	23924.96
686.46	23555.15
686.60	23477.91
686.73	23707.29
686.87	23459.19
687.01	23311.74
687.14	23194.71
687.28	23105.77
687.42	22970.02
687.55	22459.78
687.69	22946.61
687.82	22834.27
687.96	23005.13
688.10	22590.85
688.23	22253.81
688.37	22466.80
688.50	22263.18
688.64	22099.34
688.78	22082.95
688.91	22293.60
689.05	22160.19
689.18	22015.08
689.32	21652.30
689.46	21900.39
689.59	21867.63
689.73	22143.81
689.86	21640.59
690.00	21315.26
690.13	21582.08
690.27	21497.82
690.41	21647.61
690.54	21280.15
690.68	21018.01
690.81	21050.78
690.95	21074.18
691.08	20692.68
691.22	20650.55
691.35	21123.33
691.49	20772.25
691.62	20599.05
691.76	20690.34
691.89	20585.01
692.03	20446.92
692.16	20102.86
692.30	20276.06
692.43	20135.63
692.57	19939.02
692.70	19840.72
692.84	20100.52
692.97	19868.81
693.11	19569.22
693.24	19913.28
693.38	19454.53
693.51	19508.37
693.65	19655.82
693.78	18953.66
693.92	19246.23
694.05	19047.28
694.19	19344.53
694.32	19286.01
694.45	19295.38
694.59	19049.62
694.72	18932.59
694.86	18838.97
694.99	19012.17
695.13	18693.86
695.26	18099.36
695.39	18721.95
695.53	18373.21
695.66	18221.07
695.80	18452.78
695.93	18148.51
696.07	17888.71
696.20	17937.87
696.33	18015.10
696.47	17893.40
696.60	17635.94
696.73	17778.71
696.87	17565.72
697.00	17561.04
697.14	17680.41
697.27	17544.66
697.40	17476.78
697.54	17649.98
697.67	17518.91
697.80	16968.88
697.94	17207.62
698.07	17174.85
698.21	16933.78
698.34	16975.91
698.47	16889.31
698.61	16519.50
698.74	16477.37
698.87	16751.21
699.01	16355.66
699.14	16360.34
699.27	16070.12
699.40	16343.96
699.54	16161.40
699.67	15662.86
699.80	15962.45
699.94	15854.79
700.07	15789.25
700.20	15873.51
700.34	15548.18
700.47	15702.65
700.60	15807.98
700.73	15999.90
700.87	15358.60
701.00	15616.05
701.13	15494.35
701.26	15372.64
701.40	15419.45
701.53	15115.18
701.66	15452.22
701.79	15122.20
701.93	14888.15
702.06	14766.44
702.19	14658.78
702.32	14888.15
702.46	14750.06
702.59	14553.45
702.72	14682.18
702.85	14689.20
702.99	14675.16
703.12	14277.27
703.25	14324.08
703.38	14452.81
703.51	14054.92
703.65	14225.78
703.78	14122.79
703.91	14143.86
704.04	14015.13
704.17	14022.15
704.31	13729.58
704.44	13692.13
704.57	13806.82
704.70	13563.40
704.83	13420.63
704.96	13694.47
705.10	13724.90
705.23	13757.67
>>>>>End Processed Spectral Data<<<<<
