SpectraSuite Data File
++++++++++++++++++++++++++++++++++++
Date: Fri Oct 25 11:34:10 EDT 2013
User: price-jones
Dark Spectrum Present: No
Reference Spectrum Present: No
Number of Sampled Component Spectra: 1
Spectrometers: USB2+H05261
Integration Time (usec): 100000 (USB2+H05261)
Spectra Averaged: 1 (USB2+H05261)
Boxcar Smoothing: 0 (USB2+H05261)
Correct for Electrical Dark: No (USB2+H05261)
Strobe/Lamp Enabled: No (USB2+H05261)
Correct for Detector Non-linearity: No (USB2+H05261)
Correct for Stray Light: No (USB2+H05261)
Number of Pixels in Processed Spectrum: 2048
>>>>>Begin Processed Spectral Data<<<<<
365.73	299.59
365.92	299.59
366.12	299.59
366.32	229.37
366.52	177.88
366.72	208.31
366.91	128.73
367.11	177.88
367.31	107.66
367.51	191.92
367.70	224.69
367.90	189.58
368.10	182.56
368.30	98.30
368.49	161.50
368.69	163.84
368.89	266.82
369.09	250.44
369.28	238.73
369.48	212.99
369.68	227.03
369.87	196.60
370.07	205.97
370.27	257.46
370.47	353.42
370.66	472.79
370.86	456.40
371.06	535.98
371.25	543.00
371.45	496.19
371.65	585.13
371.84	557.05
372.04	512.58
372.24	482.15
372.44	486.83
372.63	631.94
372.83	599.18
373.03	608.54
373.22	547.69
373.42	641.31
373.62	585.13
373.81	589.82
374.01	610.88
374.21	596.84
374.40	631.94
374.60	641.31
374.79	650.67
374.99	603.86
375.19	683.44
375.38	664.71
375.58	596.84
375.78	697.48
375.97	690.46
376.17	716.20
376.37	695.14
376.56	641.31
376.76	713.86
376.95	660.03
377.15	676.41
377.35	641.31
377.54	688.12
377.74	660.03
377.93	765.36
378.13	664.71
378.33	697.48
378.52	645.99
378.72	671.73
378.91	723.23
379.11	727.91
379.31	734.93
379.50	676.41
379.70	730.25
379.89	774.72
380.09	737.27
380.28	697.48
380.48	688.12
380.68	688.12
380.87	727.91
381.07	713.86
381.26	784.08
381.46	662.37
381.65	702.16
381.85	760.67
382.04	798.12
382.24	791.10
382.43	688.12
382.63	732.59
382.83	704.50
383.02	727.91
383.22	819.19
383.41	716.20
383.61	730.25
383.80	875.36
384.00	777.06
384.19	741.95
384.39	802.80
384.58	868.34
384.78	772.38
384.97	833.23
385.17	812.17
385.36	819.19
385.56	805.14
385.75	788.76
385.95	795.78
386.14	795.78
386.34	842.59
386.53	901.11
386.72	751.31
386.92	788.76
387.11	880.04
387.31	844.93
387.50	763.01
387.70	816.85
387.89	968.98
388.09	931.53
388.28	929.19
388.48	875.36
388.67	896.43
388.86	908.13
389.06	830.89
389.25	961.96
389.45	980.68
389.64	1004.09
389.84	936.21
390.03	976.00
390.22	887.06
390.42	898.77
390.61	945.58
390.81	873.02
391.00	1011.11
391.19	999.41
391.39	985.37
391.58	1004.09
391.78	1036.86
391.97	1069.62
392.16	1039.20
392.36	1069.62
392.55	1039.20
392.75	1046.22
392.94	980.68
393.13	1008.77
393.33	1013.45
393.52	1053.24
393.71	1008.77
393.91	1081.33
394.10	1018.13
394.29	1053.24
394.49	1046.22
394.68	1050.90
394.88	1181.97
395.07	1172.61
395.26	1111.75
395.46	1139.84
395.65	1109.41
395.84	1130.48
396.04	1221.76
396.23	1219.42
396.42	1149.20
396.62	1238.14
396.81	1233.46
397.00	1188.99
397.19	1282.61
397.39	1184.31
397.58	1191.33
397.77	1226.44
397.97	1252.19
398.16	1270.91
398.35	1212.40
398.55	1179.63
398.74	1280.27
398.93	1252.19
399.12	1170.27
399.32	1228.78
399.51	1277.93
399.70	1247.51
399.90	1432.41
400.09	1327.08
400.28	1385.60
400.47	1329.42
400.67	1425.39
400.86	1404.32
401.05	1296.66
401.24	1350.49
401.44	1394.96
401.63	1397.30
401.82	1411.34
402.01	1439.43
402.21	1366.87
402.40	1430.07
402.59	1476.88
402.78	1432.41
402.97	1509.65
403.17	1446.45
403.36	1472.20
403.55	1453.47
403.74	1544.75
403.93	1540.07
404.13	1593.90
404.32	1647.74
404.51	1643.06
404.70	1624.33
404.89	1617.31
405.09	1713.27
405.28	1614.97
405.47	1614.97
405.66	1713.27
405.85	1703.91
406.05	1664.12
406.24	1652.42
406.43	1696.89
406.62	1783.49
406.81	1792.85
407.00	1729.66
407.20	1720.29
407.39	1804.55
407.58	1767.10
407.77	1818.60
407.96	1804.55
408.15	1811.57
408.34	1837.32
408.54	1846.68
408.73	1926.26
408.92	1902.86
409.11	1959.03
409.30	1994.14
409.49	1872.43
409.68	2017.54
409.87	2064.35
410.07	1921.58
410.26	1937.96
410.45	1968.39
410.64	2057.33
410.83	2111.16
411.02	1952.01
411.21	2092.44
411.40	2099.46
411.59	2150.95
411.78	2104.14
411.98	2104.14
412.17	2235.21
412.36	2258.62
412.55	2324.15
412.74	2399.05
412.93	2239.89
413.12	2277.34
413.31	2377.98
413.50	2211.81
413.69	2352.24
413.88	2429.48
414.07	2487.99
414.26	2452.88
414.45	2464.58
414.64	2452.88
414.83	2511.39
415.02	2495.01
415.22	2569.91
415.41	2551.18
415.60	2630.76
415.79	2633.10
415.98	2705.66
416.17	2644.81
416.36	2705.66
416.55	2668.21
416.74	2818.00
416.93	2745.45
417.12	2745.45
417.31	2668.21
417.50	2874.18
417.69	2953.76
417.88	2848.43
418.07	2853.11
418.26	2839.07
418.45	3068.44
418.64	3023.97
418.83	2906.95
419.02	2895.24
419.21	2963.12
419.39	3054.40
419.58	3009.93
419.77	2981.84
419.96	3089.51
420.15	3115.25
420.34	3150.36
420.53	3152.70
420.72	3309.52
420.91	3133.98
421.10	3157.38
421.29	3178.45
421.48	3131.64
421.67	3066.10
421.86	3180.79
422.05	3110.57
422.24	3124.62
422.43	3307.18
422.61	3346.97
422.80	3372.71
422.99	3307.18
423.18	3435.91
423.37	3459.31
423.56	3272.07
423.75	3304.84
423.94	3204.19
424.13	3180.79
424.32	3225.26
424.50	3344.63
424.69	3508.46
424.88	3456.97
425.07	3304.84
425.26	3361.01
425.45	3269.73
425.64	3365.69
425.83	3421.86
426.01	3407.82
426.20	3442.93
426.39	3459.31
426.58	3361.01
426.77	3428.88
426.96	3478.04
427.15	3576.34
427.33	3400.80
427.52	3452.29
427.71	3555.27
427.90	3503.78
428.09	3445.27
428.28	3552.93
428.46	3571.66
428.65	3641.87
428.84	3716.77
429.03	3847.84
429.22	3819.75
429.40	3763.58
429.59	3714.43
429.78	3588.04
429.97	3559.95
430.16	3595.06
430.34	3618.47
430.53	3906.35
430.72	3730.81
430.91	3686.34
431.10	3829.12
431.28	4014.02
431.47	3901.67
431.66	4009.34
431.85	3803.37
432.03	3978.91
432.22	3957.85
432.41	3936.78
432.60	3887.63
432.79	3880.61
432.97	4004.66
433.16	4053.81
433.35	4009.34
433.54	4053.81
433.72	4219.99
433.91	4128.70
434.10	4145.09
434.28	3978.91
434.47	4112.32
434.66	4227.01
434.85	4154.45
435.03	4217.65
435.22	4266.80
435.41	4236.37
435.59	4315.95
435.78	4383.82
435.97	4360.42
436.16	4269.14
436.34	4325.31
436.53	4468.08
436.72	4395.53
436.90	4325.31
437.09	4409.57
437.28	4407.23
437.46	4367.44
437.65	4388.50
437.84	4571.07
438.02	4496.17
438.21	4498.51
438.40	4447.02
438.58	4526.60
438.77	4762.99
438.96	4774.69
439.14	4645.96
439.33	4777.03
439.52	4737.24
439.70	4751.29
439.89	4725.54
440.08	4844.91
440.26	4887.04
440.45	4840.23
440.63	4999.38
440.82	5041.51
441.01	4929.17
441.19	4964.28
441.38	5083.64
441.57	5184.29
441.75	5071.94
441.94	5273.23
442.12	5254.50
442.31	5186.63
442.50	5263.86
442.68	5252.16
442.87	5392.59
443.05	5247.48
443.24	5399.62
443.43	5397.28
443.61	5472.17
443.80	5507.28
443.98	5437.06
444.17	5313.02
444.35	5411.32
444.54	5493.24
444.73	5645.37
444.91	5453.45
445.10	5607.92
445.28	5458.13
445.47	5465.15
445.65	5626.65
445.84	5558.77
446.02	5596.22
446.21	5666.44
446.39	5607.92
446.58	5645.37
446.77	5582.18
446.95	5465.15
447.14	5481.53
447.32	5500.26
447.51	5565.79
447.69	5561.11
447.88	5526.00
448.06	5715.59
448.25	5633.67
448.43	5736.65
448.62	5650.05
448.80	5678.14
448.99	5671.12
449.17	5710.91
449.36	5753.04
449.54	5570.48
449.73	5806.87
449.91	5853.68
450.10	5916.87
450.28	6003.47
450.46	5987.09
450.65	6092.41
450.83	6019.86
451.02	5937.94
451.20	6155.61
451.39	6141.57
451.57	6040.92
451.76	5991.77
451.94	6097.10
452.13	6244.55
452.31	6209.44
452.49	5879.43
452.68	6282.00
452.86	6155.61
453.05	6141.57
453.23	6244.55
453.42	6083.05
453.60	6008.16
453.78	6354.55
453.97	6228.17
454.15	6216.46
454.34	6171.99
454.52	6333.49
454.70	6352.21
454.89	6420.09
455.07	6380.30
455.26	6478.60
455.44	6647.12
455.62	6457.54
455.81	6473.92
455.99	6525.41
456.17	6675.21
456.36	6604.99
456.54	6619.04
456.73	6766.49
456.91	7222.89
457.09	6958.41
457.28	6829.68
457.46	6834.36
457.64	6911.60
457.83	6944.37
458.01	6918.62
458.19	6993.52
458.38	6789.89
458.56	7098.84
458.74	6965.43
458.93	7061.40
459.11	7070.76
459.29	7101.19
459.48	7040.33
459.66	7229.91
459.84	7063.74
460.03	7213.53
460.21	7379.71
460.39	7213.53
460.57	7272.04
460.76	7066.08
460.94	7346.94
461.12	7342.26
461.31	7447.58
461.49	7236.94
461.67	7234.60
461.85	7452.27
462.04	7379.71
462.22	7967.18
462.40	7564.61
462.59	7674.62
462.77	7494.40
462.95	7618.44
463.13	7602.06
463.32	7784.62
463.50	7627.81
463.68	7604.40
463.86	7864.20
464.05	7613.76
464.23	7578.65
464.41	7700.36
464.59	7737.81
464.78	7726.11
464.96	7911.01
465.14	7735.47
465.32	7899.31
465.50	8128.68
465.69	7861.86
465.87	8112.30
466.05	7864.20
466.23	7995.27
466.41	8116.98
466.60	8201.24
466.78	7985.91
466.96	8002.29
467.14	8149.75
467.32	8201.24
467.51	8149.75
467.69	8032.72
467.87	8131.02
468.05	8252.73
468.23	8018.68
468.41	8025.70
468.60	8269.11
468.78	8219.96
468.96	8149.75
469.14	8404.86
469.32	8475.08
469.50	8390.82
469.69	8648.28
469.87	8393.16
470.05	8505.51
470.23	8416.57
470.41	8439.97
470.59	8634.24
470.77	8713.81
470.95	8695.09
471.14	8936.17
471.32	8498.49
471.50	8994.68
471.68	8730.20
471.86	9039.15
472.04	9060.21
472.22	9137.45
472.40	8875.31
472.58	9327.03
472.77	9046.17
472.95	9170.22
473.13	9544.70
473.31	9097.66
473.49	9284.91
473.67	9289.59
473.85	9387.89
474.03	9451.08
474.21	9411.29
474.39	9633.64
474.57	9582.15
474.75	9699.18
474.93	9575.13
475.12	9745.99
475.30	9703.86
475.48	9554.07
475.66	9856.00
475.84	9916.85
476.02	10108.77
476.20	10146.22
476.38	10176.65
476.56	10120.48
476.74	10431.77
476.92	10265.59
477.10	10342.83
477.28	10445.81
477.46	10457.51
477.64	10541.77
477.82	10899.87
478.00	10923.28
478.18	10675.18
478.36	10824.98
478.54	11002.86
478.72	11054.35
478.90	11066.05
479.08	11466.28
479.26	11342.24
479.44	11417.13
479.62	11538.84
479.80	11543.52
479.98	11866.52
480.16	11669.91
480.34	12009.29
480.52	12138.02
480.70	11833.75
480.88	12002.27
481.06	12039.72
481.24	12287.81
481.41	12194.19
481.59	12512.50
481.77	12402.50
481.95	12601.44
482.13	12821.45
482.31	12549.95
482.49	12868.27
482.67	12788.69
482.85	13137.43
483.03	13088.28
483.21	13425.31
483.39	13240.41
483.57	13495.53
483.74	13481.49
483.92	13797.46
484.10	13743.63
484.28	13933.21
484.46	14200.03
484.64	14150.88
484.82	14176.62
485.00	14202.37
485.18	14555.79
485.35	14654.09
485.53	14747.72
485.71	14541.75
485.89	14864.74
486.07	15129.22
486.25	15117.52
486.43	15190.08
486.61	15250.93
486.78	15445.20
486.96	15183.06
487.14	15688.61
487.32	15550.52
487.50	16098.20
487.68	15990.54
487.85	16123.95
488.03	16313.53
488.21	16449.28
488.39	16332.26
488.57	16798.02
488.75	16879.94
488.92	16875.26
489.10	17055.48
489.28	17160.81
489.46	17432.31
489.64	17205.28
489.81	17741.26
489.99	17502.53
490.17	17717.86
490.35	18017.44
490.53	17970.63
490.70	18349.80
490.88	18052.55
491.06	18345.12
491.24	18291.29
491.41	18469.17
491.59	18869.40
491.77	18827.27
491.95	18960.68
492.13	18965.36
492.30	19044.94
492.48	19070.68
492.66	19316.44
492.84	19410.06
493.01	19775.19
493.19	19442.83
493.37	20034.99
493.54	19873.49
493.72	20004.56
493.90	19950.73
494.08	19901.58
494.25	20203.50
494.43	20697.36
494.61	20599.05
494.79	20716.08
494.96	20753.53
495.14	20961.84
495.32	21046.10
495.49	21235.68
495.67	20931.41
495.85	21371.43
496.02	21570.38
496.20	21565.70
496.38	21708.47
496.55	21975.29
496.73	22242.11
496.91	22087.64
497.09	21975.29
497.26	22251.47
497.44	22478.50
497.62	22522.98
497.79	22876.40
497.97	22946.61
498.14	23080.02
498.32	23147.90
498.50	23007.47
498.67	23498.98
498.85	23204.07
499.03	23599.62
499.20	23274.29
499.38	23779.84
499.56	23475.57
499.73	23943.68
499.91	24091.13
500.08	24149.65
500.26	23625.37
500.44	24393.06
500.61	24018.58
500.79	24212.84
500.97	24421.15
501.14	24739.46
501.32	24599.03
501.49	24748.82
501.67	24816.70
501.84	25413.54
502.02	24685.63
502.20	24959.47
502.37	24671.59
502.55	24851.81
502.72	25348.00
502.90	25097.56
503.07	25343.32
503.25	25195.87
503.43	25558.65
503.60	25659.29
503.78	26043.14
503.95	25593.76
504.13	25783.34
504.30	25949.52
504.48	25907.39
504.65	26101.65
504.83	26111.02
505.01	26527.63
505.18	26621.25
505.36	26773.39
505.53	26382.52
505.71	26625.93
505.88	27278.94
506.06	26569.76
506.23	27208.73
506.41	26565.08
506.58	26801.47
506.76	27026.17
506.93	27136.17
507.11	27145.53
507.28	27229.79
507.46	27374.91
507.63	27658.11
507.81	27721.30
507.98	27335.12
508.16	27784.50
508.33	27517.68
508.50	27828.97
508.68	28355.59
508.85	28357.93
509.03	27974.08
509.20	28421.13
509.38	28498.36
509.55	28638.80
509.73	28652.84
509.90	28367.29
510.08	28545.17
510.25	28701.99
510.42	28933.70
510.60	28631.77
510.77	28961.79
510.95	29633.52
511.12	28828.38
511.30	29266.06
511.47	28924.34
511.64	29340.96
511.82	29771.61
511.99	29535.22
512.17	29731.83
512.34	29312.87
512.51	29586.71
512.69	30199.93
512.86	29844.17
513.04	30139.08
513.21	29902.68
513.38	30349.73
513.56	30213.98
513.73	30108.65
513.90	30728.89
514.08	30213.98
514.25	30356.75
514.43	30436.33
514.60	30684.42
514.77	30710.17
514.95	31070.61
515.12	30597.82
515.29	30663.36
515.47	31070.61
515.64	30974.65
515.81	30969.97
515.99	31531.70
516.16	31704.90
516.33	31330.41
516.51	31426.37
516.68	31707.24
516.85	31571.49
517.03	31503.61
517.20	32238.54
517.37	31592.55
517.54	31791.50
517.72	31826.60
517.89	31978.74
518.06	32196.41
518.24	32369.61
518.41	32294.71
518.58	32332.16
518.75	32484.30
518.93	32917.29
519.10	32238.54
519.27	32802.61
519.45	32676.22
519.62	32788.56
519.79	32842.40
519.96	32896.23
520.14	32964.10
520.31	32488.98
520.48	33284.76
520.65	33156.03
520.83	33429.87
521.00	32886.87
521.17	33582.01
521.34	33757.55
521.52	33621.80
521.69	33710.74
521.86	33692.01
522.03	33472.00
522.20	34148.42
522.38	33982.24
522.55	34064.16
522.72	34267.78
522.89	34197.57
523.07	34251.40
523.24	34384.81
523.41	34529.92
523.58	34366.09
523.75	34567.37
523.92	34328.64
524.10	34703.12
524.27	34724.19
524.44	34845.90
524.61	34909.09
524.78	34991.01
524.96	35105.70
525.13	35349.11
525.30	34670.36
525.47	35358.47
525.64	35370.18
525.81	35538.69
525.98	35239.11
526.16	35342.09
526.33	35400.60
526.50	35370.18
526.67	35571.46
526.84	35927.22
527.01	35744.66
527.18	35732.96
527.36	35477.84
527.53	35833.60
527.70	35854.67
527.87	35859.35
528.04	35744.66
528.21	36479.59
528.38	36070.00
528.55	36245.54
528.72	36278.30
528.89	35999.78
529.07	36229.15
529.24	35903.82
529.41	36446.82
529.58	36371.92
529.75	36636.41
529.92	36631.72
530.09	36694.92
530.26	36671.51
530.43	36596.62
530.60	36559.17
530.77	36987.49
530.94	36575.55
531.11	36842.37
531.28	36786.20
531.46	36762.79
531.63	37469.64
531.80	36966.42
531.97	37146.64
532.14	37525.81
532.31	37326.86
532.48	37750.50
532.65	37801.99
532.82	37336.23
532.99	37764.54
533.16	37479.00
533.33	37710.71
533.50	37507.08
533.67	37652.20
533.84	37502.40
534.01	38183.50
534.18	37553.90
534.35	38700.76
534.52	38080.52
534.69	38778.00
534.86	38326.27
535.03	38298.19
535.20	38295.85
535.37	37963.49
535.54	38670.33
535.71	38398.83
535.88	38307.55
536.05	38480.75
536.22	38574.37
536.38	39000.35
536.55	38728.84
536.72	38780.34
536.89	38909.07
537.06	39145.46
537.23	39203.97
537.40	38557.99
537.57	38838.85
537.74	38974.60
537.91	39225.04
538.08	38689.06
538.25	39100.99
538.42	39192.27
538.59	39042.48
538.75	39030.77
538.92	39438.03
539.09	39302.28
539.26	39318.66
539.43	39463.77
539.60	39646.33
539.77	39468.45
539.94	40243.17
540.11	39601.86
540.28	39590.16
540.44	39786.77
540.61	39784.43
540.78	39531.65
540.95	39653.36
541.12	39927.20
541.29	39903.79
541.46	39821.87
541.62	39962.31
541.79	40194.02
541.96	39950.60
542.13	40105.08
542.30	40500.63
542.47	39938.90
542.63	39955.29
542.80	40182.32
542.97	40816.60
543.14	41228.54
543.31	40699.58
543.48	40821.28
543.64	41148.96
543.81	40985.12
543.98	41043.63
544.15	41191.09
544.32	40928.95
544.48	41251.94
544.65	41045.97
544.82	41474.29
544.99	41174.70
545.16	41415.78
545.32	41212.15
545.49	41546.85
545.66	41706.01
545.83	41415.78
546.00	41535.15
546.16	41127.89
546.33	41626.43
546.50	41017.89
546.67	41720.05
546.83	41141.94
547.00	41701.32
547.17	41572.60
547.34	41691.96
547.50	41727.07
547.67	41996.23
547.84	42019.64
548.00	41584.30
548.17	42380.08
548.34	42256.03
548.51	41956.44
548.67	42202.20
548.84	41855.80
549.01	41970.49
549.18	41930.70
549.34	42443.27
549.51	42223.26
549.68	42192.84
549.84	42335.61
550.01	42504.13
550.18	42141.35
550.34	42597.75
550.51	42698.39
550.68	42637.54
550.84	42342.63
551.01	42588.39
551.18	42380.08
551.34	42382.42
551.51	42625.84
551.68	42813.08
551.84	42925.42
552.01	42389.44
552.18	42930.11
552.34	42710.10
552.51	43168.84
552.68	42696.05
552.84	43290.55
553.01	42972.24
553.18	43133.73
553.34	43086.92
553.51	42782.65
553.67	43161.82
553.84	43328.00
554.01	43430.98
554.17	43243.74
554.34	43594.82
554.51	43171.18
554.67	43452.05
554.84	43524.60
555.00	43428.64
555.17	43569.07
555.33	43749.29
555.50	44158.89
555.67	43344.38
555.83	43608.86
556.00	43871.00
556.16	44116.76
556.33	43489.49
556.50	43856.96
556.66	43681.42
556.83	43847.60
556.99	43805.47
557.16	43964.62
557.32	43711.84
557.49	44025.48
557.65	43695.46
557.82	43496.52
557.98	44250.17
558.15	44191.65
558.32	43854.62
558.48	43992.71
558.65	43922.49
558.81	44006.75
558.98	43861.64
559.14	43803.13
559.31	43920.15
559.47	43983.35
559.64	44374.22
559.80	44095.69
559.97	44524.01
560.13	43875.68
560.30	43917.81
560.46	44732.32
560.63	44353.15
560.79	44748.70
560.96	44748.70
561.12	44406.98
561.29	44460.82
561.45	44748.70
561.61	44378.90
561.78	44559.12
561.94	44456.14
562.11	44559.12
562.27	44374.22
562.44	44318.04
562.60	44498.26
562.77	44968.71
562.93	44411.67
563.10	44903.18
563.26	44823.60
563.42	45331.50
563.59	44680.83
563.75	44467.84
563.92	44739.34
564.08	44971.05
564.24	44788.49
564.41	45043.61
564.57	44839.98
564.74	45045.95
564.90	44985.10
565.07	44732.32
565.23	44563.80
565.39	45020.20
565.56	45160.64
565.72	45118.51
565.88	44868.07
566.05	45336.18
566.21	45001.48
566.38	45165.32
566.54	45385.33
566.70	45090.42
566.87	45436.82
567.03	44842.32
567.19	45464.91
567.36	45151.27
567.52	45003.82
567.68	45528.10
567.85	45488.31
568.01	45497.67
568.17	45074.04
568.34	45406.39
568.50	45925.99
568.66	45275.32
568.83	45504.70
568.99	45382.99
569.15	45221.49
569.32	44933.60
569.48	45287.03
569.64	45291.71
569.81	45542.14
569.97	45577.25
570.13	45340.86
570.30	45022.54
570.46	45614.70
570.62	45432.14
570.78	45783.22
570.95	45425.12
571.11	45975.14
571.27	45656.83
571.43	45221.49
571.60	45352.56
571.76	45780.88
571.92	45663.85
572.09	45654.49
572.25	45586.61
572.41	45294.05
572.57	45659.17
572.74	46012.59
572.90	45715.34
573.06	45813.65
573.22	45895.56
573.38	46127.28
573.55	45825.35
573.71	45893.22
573.87	45881.52
574.03	45848.75
574.20	46064.08
574.36	45806.62
574.52	46071.10
574.68	45764.49
574.84	46036.00
575.01	46244.30
575.17	45687.26
575.33	46052.38
575.49	45827.69
575.65	45869.82
575.82	45687.26
575.98	45420.44
576.14	46548.57
576.30	46028.98
576.46	46021.95
576.62	46066.42
576.79	46148.34
576.95	45476.61
577.11	45827.69
577.27	45607.68
577.43	45666.19
577.59	46064.08
577.75	45996.21
577.92	45617.04
578.08	46204.52
578.24	46085.15
578.40	46096.85
578.56	46066.42
578.72	46017.27
578.88	46281.75
579.04	45942.38
579.21	45710.66
579.37	46185.79
579.53	46012.59
579.69	45937.69
579.85	46000.89
580.01	46192.81
580.17	45743.43
580.33	46227.92
580.49	46305.16
580.65	46211.54
580.82	46078.13
580.98	45621.72
581.14	45764.49
581.30	46330.90
581.46	46265.37
581.62	46005.57
581.78	46131.96
581.94	46092.17
582.10	46110.89
582.26	45895.56
582.42	46232.60
582.58	46256.01
582.74	45975.14
582.90	45869.82
583.06	46199.83
583.22	45874.50
583.38	46195.15
583.54	46527.51
583.70	46066.42
583.86	46459.63
584.02	46291.12
584.18	46000.89
584.34	46328.56
584.50	46597.73
584.66	46354.31
584.82	46408.14
584.98	46461.97
585.14	46370.69
585.30	46103.87
585.46	46335.59
585.62	46333.24
585.78	45965.78
585.94	46136.64
586.10	46321.54
586.26	46071.10
586.42	46216.22
586.58	46614.11
586.74	46124.94
586.90	45876.84
587.06	46064.08
587.22	46515.81
587.38	45944.72
587.54	46167.07
587.70	47042.43
587.86	46780.29
588.02	46333.24
588.18	46433.89
588.34	46387.08
588.49	46656.24
588.65	45848.75
588.81	46202.18
588.97	46412.82
589.13	46141.32
589.29	46382.40
589.45	46939.44
589.61	46504.10
589.77	46595.38
589.93	46499.42
590.08	46674.96
590.24	46651.56
590.40	46902.00
590.56	47126.69
590.72	46742.84
590.88	46459.63
591.04	46747.52
591.20	46941.78
591.35	46494.74
591.51	47430.96
591.67	46913.70
591.83	47309.25
591.99	46632.83
592.15	46508.79
592.31	46775.61
592.46	46742.84
592.62	46768.58
592.78	46897.31
592.94	46948.81
593.10	46906.68
593.26	47206.26
593.41	47093.92
593.57	46948.81
593.73	47072.85
593.89	47138.39
594.05	47098.60
594.20	46883.27
594.36	47358.40
594.52	46602.41
594.68	46941.78
594.84	46859.87
594.99	47154.77
595.15	46944.12
595.31	46951.15
595.47	46808.37
595.62	46789.65
595.78	46848.16
595.94	47208.61
596.10	46604.75
596.25	46665.60
596.41	46902.00
596.57	46586.02
596.73	46852.84
596.88	47154.77
597.04	47196.90
597.20	46768.58
597.36	47026.04
597.51	47178.18
597.67	46836.46
597.83	46897.31
597.99	46958.17
598.14	46838.80
598.30	47122.01
598.46	46820.08
598.61	47131.37
598.77	47007.32
598.93	47587.77
599.09	47419.25
599.24	47704.80
599.40	47290.52
599.56	47461.38
599.71	47604.16
599.87	47601.82
600.03	47353.72
600.18	47346.70
600.34	47241.37
600.50	47313.93
600.65	46960.51
600.81	47571.39
600.97	47110.30
601.12	47217.97
601.28	47236.69
601.44	46988.60
601.59	46997.96
601.75	47138.39
601.91	47484.79
602.06	47030.72
602.22	47267.12
602.37	47014.34
602.53	47189.88
602.69	47224.99
602.84	47061.15
603.00	47386.49
603.16	47323.29
603.31	47192.22
603.47	47203.92
603.62	47285.84
603.78	47538.62
603.94	47253.08
604.09	47133.71
604.25	47313.93
604.40	47138.39
604.56	47068.17
604.71	47318.61
604.87	47042.43
605.03	46859.87
605.18	47337.33
605.34	46986.25
605.49	46583.68
605.65	47157.11
605.80	46887.95
605.96	47147.75
606.12	46920.72
606.27	47234.35
606.43	46642.20
606.58	47220.31
606.74	47054.13
606.89	47004.98
607.05	46883.27
607.20	46740.50
607.36	47021.36
607.51	47033.07
607.67	46768.58
607.82	47264.78
607.98	47049.45
608.13	46733.48
608.29	46995.62
608.44	46967.53
608.60	47107.96
608.75	47058.81
608.91	46946.47
609.06	47040.09
609.22	47004.98
609.37	46422.19
609.53	47227.33
609.68	47365.42
609.84	46791.99
609.99	47056.47
610.15	47203.92
610.30	46726.46
610.46	46780.29
610.61	47063.49
610.76	46967.53
610.92	46263.03
611.07	46649.22
611.23	46410.48
611.38	46387.08
611.54	46862.21
611.69	46930.08
611.84	47077.54
612.00	46705.39
612.15	46497.08
612.31	46897.31
612.46	46660.92
612.62	46897.31
612.77	46562.62
612.92	47185.20
613.08	46773.27
613.23	46579.00
613.39	46506.44
613.54	46136.64
613.69	46787.31
613.85	46635.17
614.00	46415.16
614.15	46932.42
614.31	46225.58
614.46	46607.09
614.62	46358.99
614.77	46632.83
614.92	46387.08
615.08	46553.26
615.23	46689.01
615.38	46642.20
615.54	46220.90
615.69	46295.80
615.84	46497.08
616.00	46513.47
616.15	46377.72
616.30	46761.56
616.46	46375.37
616.61	45942.38
616.76	46307.50
616.92	46391.76
617.07	46188.13
617.22	45827.69
617.37	45947.06
617.53	46183.45
617.68	46384.74
617.83	46241.96
617.99	46621.13
618.14	46164.73
618.29	45757.47
618.45	45619.38
618.60	45933.01
618.75	45815.99
618.90	45862.80
619.06	45574.91
619.21	45642.79
619.36	46562.62
619.51	45694.28
619.67	45691.94
619.82	45815.99
619.97	46087.49
620.12	45471.93
620.28	45502.35
620.43	46499.42
620.58	45483.63
620.73	46206.86
620.89	46061.74
621.04	46124.94
621.19	46057.06
621.34	45598.32
621.49	45347.88
621.65	45715.34
621.80	45689.60
621.95	46153.02
622.10	45722.37
622.25	45397.03
622.41	45741.09
622.56	45823.01
622.71	45378.31
622.86	45570.23
623.01	45071.70
623.16	45350.22
623.32	45603.00
623.47	45525.76
623.62	45677.90
623.77	45535.12
623.92	45525.76
624.07	45890.88
624.23	45258.94
624.38	45280.00
624.53	45375.97
624.68	44900.84
624.83	45118.51
624.98	45261.28
625.13	44837.64
625.29	44952.33
625.44	45113.83
625.59	45034.25
625.74	45031.91
625.89	44854.03
626.04	45155.96
626.19	45027.23
626.34	44769.77
626.49	44781.47
626.65	44713.59
626.80	44737.00
626.95	44016.11
627.10	44205.70
627.25	45008.50
627.40	44456.14
627.55	44830.62
627.70	44580.18
627.85	45010.84
628.00	44732.32
628.15	44994.46
628.30	44493.58
628.45	44275.91
628.60	44287.62
628.76	44612.95
628.91	44332.09
629.06	44399.96
629.21	44224.42
629.36	44376.56
629.51	44194.00
629.66	44622.31
629.81	44662.10
629.96	44308.68
630.11	44119.10
630.26	44575.50
630.41	44392.94
630.56	44179.95
630.71	44142.50
630.86	44105.06
631.01	44074.63
631.16	44201.02
631.31	44392.94
631.46	43856.96
631.61	44322.72
631.76	44212.72
631.91	43894.41
632.06	44360.17
632.21	44189.31
632.36	44198.68
632.51	43519.92
632.66	43580.78
632.81	43973.98
632.96	44121.44
633.10	43714.19
633.25	44065.27
633.40	43840.57
633.55	44392.94
633.70	43700.14
633.85	43690.78
634.00	43519.92
634.15	44030.16
634.30	43445.02
634.45	43449.70
634.60	43503.54
634.75	43842.92
634.90	43683.76
635.05	43533.96
635.19	43358.42
635.34	43447.36
635.49	43709.50
635.64	43842.92
635.79	43859.30
635.94	43543.33
636.09	43370.13
636.24	43636.95
636.39	43098.62
636.53	43782.06
636.68	43164.16
636.83	43175.86
636.98	43232.04
637.13	42946.49
637.28	43093.94
637.43	43234.38
637.57	43339.70
637.72	42941.81
637.87	43173.52
638.02	43100.97
638.17	42909.04
638.32	42597.75
638.46	42447.96
638.61	43056.50
638.76	42616.47
638.91	42878.61
639.06	42827.12
639.20	42415.19
639.35	42600.09
639.50	42721.80
639.65	42834.14
639.80	43072.88
639.94	43000.32
640.09	43049.47
640.24	42885.64
640.39	42562.64
640.54	42232.63
640.68	42419.87
640.83	42768.61
640.98	42483.06
641.13	42272.42
641.27	42934.79
641.42	43009.68
641.57	42366.04
641.72	42618.81
641.86	42405.83
642.01	42267.73
642.16	42366.04
642.31	42014.96
642.45	42129.64
642.60	41762.18
642.75	42141.35
642.90	42586.05
643.04	42288.80
643.19	41715.37
643.34	41696.64
643.48	41256.62
643.63	42319.23
643.78	41748.14
643.93	42426.89
644.07	42108.58
644.22	42157.73
644.37	41984.53
644.51	42567.32
644.66	41677.92
644.81	42375.40
644.95	41869.84
645.10	41844.10
645.25	41949.42
645.39	41663.88
645.54	41698.98
645.69	41411.10
645.83	41296.41
645.98	41666.22
646.13	41722.39
646.27	41743.45
646.42	41460.25
646.57	41212.15
646.71	41766.86
646.86	42007.94
647.00	41907.29
647.15	41958.78
647.30	41708.35
647.44	41469.61
647.59	41600.68
647.74	41120.87
647.88	41399.40
648.03	41851.12
648.17	42174.11
648.32	41717.71
648.47	41900.27
648.61	41588.98
648.76	41155.98
648.90	41383.01
649.05	41151.30
649.20	41404.08
649.34	41380.67
649.49	41406.42
649.63	41132.57
649.78	41282.37
649.92	41177.04
650.07	41495.36
650.21	41296.41
650.36	41357.27
650.51	40722.98
650.65	41137.26
650.80	41298.75
650.94	41387.69
651.09	41127.89
651.23	40465.52
651.38	40886.82
651.52	40325.09
651.67	40924.27
651.81	40814.26
651.96	40758.09
652.10	40711.28
652.25	40168.27
652.39	40680.85
652.54	40512.33
652.68	40376.58
652.83	40652.76
652.97	41036.61
653.12	40657.45
653.26	40559.14
653.41	40297.00
653.55	40697.24
653.70	41013.21
653.84	40898.52
653.99	40650.42
654.13	40828.30
654.27	40467.86
654.42	40797.88
654.56	40168.27
654.71	40453.82
654.85	40692.55
655.00	40554.46
655.14	40252.53
655.29	40861.07
655.43	40610.64
655.57	40058.27
655.72	39840.60
655.86	40116.78
656.01	40002.10
656.15	40062.95
656.30	40095.72
656.44	40121.46
656.58	39974.01
656.73	40123.80
656.87	39777.40
657.01	39821.87
657.16	39875.71
657.30	40102.74
657.45	39714.21
657.59	39636.97
657.73	39292.91
657.88	39812.51
658.02	40196.36
658.16	40058.27
658.31	39562.08
658.45	39730.59
658.60	39440.37
658.74	39700.17
658.88	39772.72
659.03	39452.07
659.17	39220.36
659.31	39267.17
659.46	39421.64
659.60	39536.33
659.74	38939.49
659.89	38572.03
660.03	38958.22
660.17	39283.55
660.32	38618.84
660.46	38880.98
660.60	38319.25
660.74	38960.56
660.89	38930.13
661.03	38330.95
661.17	38440.96
661.32	38567.35
661.46	38560.33
661.60	38197.54
661.74	38616.50
661.89	38663.31
662.03	38630.54
662.17	38185.84
662.31	38763.95
662.46	38632.88
662.60	38204.56
662.74	38087.54
662.88	38213.93
663.03	37893.27
663.17	37741.14
663.31	37710.71
663.45	38017.32
663.60	37991.58
663.74	38380.10
663.88	37874.55
664.02	37549.21
664.17	38012.64
664.31	37722.41
664.45	37500.06
664.59	37572.62
664.73	37689.65
664.88	37504.74
665.02	37092.81
665.16	37273.03
665.30	37584.32
665.44	37675.60
665.59	36987.49
665.73	36783.86
665.87	36975.78
666.01	37081.11
666.15	37202.82
666.29	36865.78
666.44	37280.05
666.58	37165.37
666.72	36767.48
666.86	36641.09
667.00	36840.03
667.14	36554.49
667.28	36362.56
667.43	36535.76
667.57	36821.31
667.71	36582.57
667.85	36772.16
667.99	36486.61
668.13	36332.14
668.27	36172.98
668.41	36243.20
668.56	35529.33
668.70	35910.84
668.84	35613.59
668.98	35620.61
669.12	35688.49
669.26	36168.30
669.40	35721.26
669.54	35424.01
669.68	35529.33
669.82	35901.48
669.96	35501.25
670.10	34981.65
670.25	35220.38
670.39	34967.60
670.53	35014.41
670.67	34869.30
670.81	35105.70
670.95	35101.01
671.09	34799.08
671.23	34820.15
671.37	34955.90
671.51	34890.37
671.65	34796.74
671.79	34204.59
671.93	34567.37
672.07	34417.58
672.21	34562.69
672.35	34347.36
672.49	34536.94
672.63	34483.11
672.77	34132.03
672.91	34206.93
673.05	34438.64
673.19	33907.34
673.33	33649.88
673.47	33530.51
673.61	33610.09
673.75	33399.44
673.89	33631.16
674.03	33247.31
674.17	33242.63
674.31	33329.23
674.45	33160.71
674.59	32973.47
674.73	33141.99
674.87	33034.32
675.01	32793.25
675.15	32411.74
675.29	32676.22
675.43	32348.54
675.56	32446.85
675.70	32687.92
675.84	32547.49
675.98	31489.57
676.12	32063.00
676.26	32657.49
676.40	32315.78
676.54	31903.84
676.68	31864.05
676.82	31407.65
676.96	31562.12
677.10	31990.44
677.23	31269.56
677.37	31569.15
677.51	31276.58
677.65	31484.89
677.79	31323.39
677.93	31393.61
678.07	31173.60
678.21	30724.21
678.34	30855.28
678.48	30223.34
678.62	30326.32
678.76	30040.78
678.90	30661.02
679.04	30572.08
679.18	30597.82
679.31	29881.62
679.45	29970.56
679.59	29965.88
679.73	29876.94
679.87	29865.24
680.00	29670.97
680.14	29509.47
680.28	29848.85
680.42	29511.81
680.56	29223.93
680.70	29235.63
680.83	29184.14
680.97	28982.85
681.11	28746.46
681.25	28276.01
681.39	28500.70
681.52	28606.03
681.66	28112.17
681.80	27962.38
681.94	28472.62
682.07	27850.03
682.21	28030.26
682.35	27920.25
682.49	27686.20
682.62	27784.50
682.76	27929.61
682.90	27791.52
683.04	27557.47
683.17	27522.36
683.31	27180.64
683.45	27515.34
683.59	26878.71
683.72	26778.07
683.86	26864.67
684.00	26635.30
684.13	27033.19
684.27	26665.72
684.41	26527.63
684.55	26668.06
684.68	26302.94
684.82	26302.94
684.96	26047.82
685.09	25834.83
685.23	26153.15
685.37	26031.44
685.50	26403.58
685.64	26242.09
685.78	25802.07
685.91	25518.86
686.05	25500.14
686.19	25109.27
686.32	25427.58
686.46	25083.52
686.60	24755.85
686.73	24931.39
686.87	24797.98
687.01	24849.47
687.14	24936.07
687.28	24554.56
687.42	25057.78
687.55	24151.99
687.69	24236.25
687.82	24439.87
687.96	24416.47
688.10	24177.73
688.23	24114.54
688.37	24114.54
688.50	24346.25
688.64	23988.15
688.78	23805.59
688.91	23735.37
689.05	23578.56
689.18	23084.70
689.32	22925.55
689.46	23000.44
689.59	23049.60
689.73	23480.25
689.86	23058.96
690.00	23363.23
690.13	22906.82
690.27	22712.56
690.41	22920.87
690.54	22279.56
690.68	22546.38
690.81	22001.04
690.95	22085.30
691.08	22087.64
691.22	21792.73
691.35	21951.88
691.49	22015.08
691.62	21675.70
691.76	21696.77
691.89	21572.72
692.03	21481.44
692.16	21273.13
692.30	21195.89
692.43	21462.71
692.57	21116.31
692.70	20957.16
692.84	20835.45
692.97	20608.42
693.11	20910.35
693.24	20629.48
693.38	20353.30
693.51	20439.90
693.65	20737.15
693.78	20187.12
693.92	20545.22
694.05	20133.29
694.19	20109.88
694.32	20100.52
694.45	19978.81
694.59	20144.99
694.72	20233.93
694.86	19585.60
694.99	19571.56
695.13	19239.20
695.26	19499.00
695.39	19372.61
695.53	19014.51
695.66	19042.60
695.80	19307.08
695.93	19044.94
696.07	18663.43
696.20	18459.81
696.33	18211.71
696.47	18721.95
696.60	18321.71
696.73	18656.41
696.87	18398.95
697.00	18286.61
697.14	17830.20
697.27	18246.82
697.40	18075.96
697.54	18045.53
697.67	17706.15
697.80	17797.43
697.94	17628.92
698.07	17469.76
698.21	17289.54
698.34	17532.95
698.47	17364.43
698.61	17167.83
698.74	17074.21
698.87	16915.05
699.01	17008.67
699.14	16826.11
699.27	16830.79
699.40	16922.07
699.54	16786.32
699.67	16613.12
699.80	16608.44
699.94	16599.08
700.07	16439.92
700.20	16575.67
700.34	16086.50
700.47	16308.85
700.60	16524.18
700.73	16154.38
700.87	16315.87
701.00	15775.21
701.13	15889.90
701.26	15613.71
701.40	15651.16
701.53	15393.70
701.66	15515.41
701.79	15393.70
701.93	14944.32
702.06	14923.26
702.19	14885.81
702.32	15101.14
702.46	15407.75
702.59	15300.08
702.72	15452.22
702.85	15187.74
702.99	15077.73
703.12	14691.54
703.25	14700.90
703.38	14698.56
703.51	14377.91
703.65	14546.43
703.78	14286.63
703.91	14108.75
704.04	14300.67
704.17	14209.39
704.31	14277.27
704.44	13937.89
704.57	13818.52
704.70	14092.37
704.83	13657.03
704.96	13619.58
705.10	13654.69
705.23	13284.88
>>>>>End Processed Spectral Data<<<<<
