SpectraSuite Data File
++++++++++++++++++++++++++++++++++++
Date: Fri Oct 25 10:48:27 EDT 2013
User: price-jones
Dark Spectrum Present: No
Reference Spectrum Present: No
Number of Sampled Component Spectra: 1
Spectrometers: USB2+H05261
Integration Time (usec): 100000 (USB2+H05261)
Spectra Averaged: 1 (USB2+H05261)
Boxcar Smoothing: 0 (USB2+H05261)
Correct for Electrical Dark: No (USB2+H05261)
Strobe/Lamp Enabled: No (USB2+H05261)
Correct for Detector Non-linearity: No (USB2+H05261)
Correct for Stray Light: No (USB2+H05261)
Number of Pixels in Processed Spectrum: 2048
>>>>>Begin Processed Spectral Data<<<<<
365.73	81.92
365.92	81.92
366.12	81.92
366.32	91.28
366.52	72.56
366.72	112.35
366.91	2.34
367.11	58.51
367.31	51.49
367.51	81.92
367.70	100.64
367.90	51.49
368.10	28.09
368.30	44.47
368.49	0.00
368.69	14.04
368.89	0.00
369.09	84.26
369.28	53.83
369.48	91.28
369.68	44.47
369.87	152.13
370.07	74.90
370.27	168.52
370.47	208.31
370.66	355.76
370.86	442.36
371.06	535.98
371.25	571.09
371.45	435.34
371.65	496.19
371.84	496.19
372.04	524.28
372.24	538.32
372.44	503.22
372.63	594.50
372.83	507.90
373.03	564.07
373.22	479.81
373.42	533.64
373.62	592.16
373.81	550.03
374.01	580.45
374.21	608.54
374.40	561.73
374.60	606.20
374.79	627.26
374.99	601.52
375.19	580.45
375.38	617.90
375.58	578.11
375.78	608.54
375.97	660.03
376.17	683.44
376.37	657.69
376.56	650.67
376.76	545.34
376.95	622.58
377.15	648.33
377.35	599.18
377.54	599.18
377.74	608.54
377.93	648.33
378.13	692.80
378.33	657.69
378.52	594.50
378.72	669.39
378.91	678.76
379.11	606.20
379.31	627.26
379.50	688.12
379.70	629.60
379.89	732.59
380.09	678.76
380.28	739.61
380.48	683.44
380.68	702.16
380.87	709.18
381.07	753.65
381.26	702.16
381.46	671.73
381.65	718.54
381.85	830.89
382.04	692.80
382.24	746.63
382.43	720.88
382.63	690.46
382.83	842.59
383.02	741.95
383.22	741.95
383.41	695.14
383.61	709.18
383.80	791.10
384.00	821.53
384.19	767.70
384.39	725.57
384.58	788.76
384.78	837.91
384.97	788.76
385.17	809.83
385.36	716.20
385.56	858.98
385.75	807.48
385.95	739.61
386.14	861.32
386.34	807.48
386.53	847.27
386.72	835.57
386.92	891.74
387.11	725.57
387.31	882.38
387.50	980.68
387.70	854.30
387.89	880.04
388.09	912.81
388.28	891.74
388.48	849.61
388.67	952.60
388.86	1071.97
389.06	957.28
389.25	945.58
389.45	842.59
389.64	987.71
389.84	884.72
390.03	950.26
390.22	997.07
390.42	999.41
390.61	1071.97
390.81	1076.65
391.00	1064.94
391.19	1071.97
391.39	987.71
391.58	1100.05
391.78	1137.50
391.97	1097.71
392.16	997.07
392.36	1015.79
392.55	1090.69
392.75	971.32
392.94	1001.75
393.13	1060.26
393.33	1039.20
393.52	1067.28
393.71	1121.12
393.91	1130.48
394.10	1088.35
394.29	1153.88
394.49	1174.95
394.68	1193.67
394.88	1174.95
395.07	1261.55
395.26	1231.12
395.46	1263.89
395.65	1301.34
395.84	1217.08
396.04	1282.61
396.23	1308.36
396.42	1139.84
396.62	1235.80
396.81	1252.19
397.00	1317.72
397.19	1324.74
397.39	1341.13
397.58	1373.89
397.77	1371.55
397.97	1366.87
398.16	1371.55
398.35	1472.20
398.55	1418.36
398.74	1369.21
398.93	1554.12
399.12	1394.96
399.32	1495.60
399.51	1540.07
399.70	1652.42
399.90	1497.94
400.09	1469.86
400.28	1596.25
400.47	1474.54
400.67	1675.82
400.86	1633.69
401.05	1675.82
401.24	1666.46
401.44	1692.21
401.63	1633.69
401.82	1720.29
402.01	1671.14
402.21	1593.90
402.40	1732.00
402.59	1797.53
402.78	1666.46
402.97	1762.42
403.17	1703.91
403.36	1874.77
403.55	1825.62
403.74	1888.81
403.93	1781.15
404.13	1795.19
404.32	1790.51
404.51	1863.07
404.70	1795.19
404.89	1870.09
405.09	1914.56
405.28	1942.64
405.47	1912.22
405.66	1947.33
405.85	1982.43
406.05	1937.96
406.24	1930.94
406.43	2029.24
406.62	2057.33
406.81	2179.04
407.00	2040.95
407.20	1947.33
407.39	1980.09
407.58	2230.53
407.77	2153.29
407.96	2242.23
408.15	2230.53
408.34	2235.21
408.54	2174.36
408.73	2097.12
408.92	2176.70
409.11	2270.32
409.30	2345.22
409.49	2179.04
409.68	2125.21
409.87	2303.09
410.07	2169.68
410.26	2328.83
410.45	2303.09
410.64	2441.18
410.83	2293.72
411.02	2370.96
411.21	2586.29
411.40	2464.58
411.59	2562.89
411.78	2546.50
411.98	2506.71
412.17	2574.59
412.36	2590.97
412.55	2668.21
412.74	2726.72
412.93	2778.22
413.12	2661.19
413.31	2862.48
413.50	2860.13
413.69	2750.13
413.88	2773.53
414.07	2911.63
414.26	2813.32
414.45	2918.65
414.64	2888.22
414.83	2991.20
415.02	2897.58
415.22	3112.91
415.41	3094.19
415.60	3098.87
415.79	3138.66
415.98	3171.43
416.17	3183.13
416.36	3115.25
416.55	3236.96
416.74	3108.23
416.93	3190.15
417.12	3265.05
417.31	3269.73
417.50	3194.83
417.69	3403.14
417.88	3274.41
418.07	3368.03
418.26	3412.50
418.45	3398.46
418.64	3534.21
418.83	3475.70
419.02	3562.30
419.21	3524.85
419.39	3482.72
419.58	3581.02
419.77	3515.48
419.96	3499.10
420.15	3655.92
420.34	3698.05
420.53	3541.23
420.72	3852.52
420.91	3709.75
421.10	3644.21
421.29	3749.54
421.48	3728.47
421.67	3798.69
421.86	3742.52
422.05	3679.32
422.24	3630.17
422.43	3824.44
422.61	3899.33
422.80	3691.02
422.99	3838.48
423.18	3896.99
423.37	4009.34
423.56	3875.93
423.75	3819.75
423.94	3810.39
424.13	3627.83
424.32	3735.50
424.50	3911.04
424.69	3934.44
424.88	4088.92
425.07	3796.35
425.26	3815.07
425.45	3936.78
425.64	3794.01
425.83	3955.51
426.01	3990.61
426.20	3946.14
426.39	3866.56
426.58	3742.52
426.77	3836.14
426.96	3985.93
427.15	3971.89
427.33	4002.32
427.52	3939.12
427.71	4042.11
427.90	4170.83
428.09	4121.68
428.28	4007.00
428.46	4086.58
428.65	4004.66
428.84	4142.75
429.03	4236.37
429.22	3904.01
429.40	4046.79
429.59	3957.85
429.78	3957.85
429.97	3913.38
430.16	3976.57
430.34	4009.34
430.53	4173.18
430.72	4297.22
430.91	4065.51
431.10	4269.14
431.28	4360.42
431.47	4540.64
431.66	4519.57
431.85	4449.36
432.03	4428.29
432.22	4486.81
432.41	4624.90
432.60	4580.43
432.79	4526.60
432.97	4802.78
433.16	4760.65
433.35	4547.66
433.54	4664.69
433.72	4594.47
433.91	4674.05
434.10	4629.58
434.28	4751.29
434.47	4725.54
434.66	4954.91
434.85	4999.38
435.03	4898.74
435.22	4858.95
435.41	5036.83
435.59	4910.44
435.78	5053.22
435.97	4903.42
436.16	5025.13
436.34	5039.17
436.53	5008.75
436.72	5177.26
436.90	5114.07
437.09	5233.44
437.28	4959.60
437.46	5100.03
437.65	5277.91
437.84	5235.78
438.02	5149.18
438.21	5184.29
438.40	5071.94
438.58	5240.46
438.77	5327.06
438.96	5259.18
439.14	5504.94
439.33	5369.19
439.52	5472.17
439.70	5565.79
439.89	5694.52
440.08	5563.45
440.26	5675.80
440.45	5605.58
440.63	5643.03
440.82	5811.55
441.01	5748.36
441.19	5881.77
441.38	5844.32
441.57	6136.88
441.75	6092.41
441.94	6207.10
442.12	6108.80
442.31	6099.44
442.50	6118.16
442.68	6125.18
442.87	6305.40
443.05	6171.99
443.24	6312.42
443.43	6377.96
443.61	6319.45
443.80	6635.42
443.98	6258.59
444.17	6099.44
444.35	6265.61
444.54	6539.46
444.73	6462.22
444.91	6438.81
445.10	6471.58
445.28	6356.90
445.47	6265.61
445.65	6284.34
445.84	6462.22
446.02	6455.20
446.21	6537.12
446.39	6392.00
446.58	6375.62
446.77	6478.60
446.95	6366.26
447.14	6574.56
447.32	6726.70
447.51	6527.75
447.69	6562.86
447.88	6593.29
448.06	6511.37
448.25	6609.67
448.43	6710.32
448.62	6590.95
448.80	6466.90
448.99	6729.04
449.17	6581.59
449.36	6810.96
449.54	6860.11
449.73	6876.49
449.91	7023.95
450.10	7063.74
450.28	7045.01
450.46	7035.65
450.65	7110.55
450.83	6932.67
451.02	7052.03
451.20	7049.69
451.39	7101.19
451.57	7246.30
451.76	6899.90
451.94	7176.08
452.13	7222.89
452.31	7117.57
452.49	6981.82
452.68	6895.22
452.86	7201.83
453.05	7190.13
453.23	7286.09
453.42	7073.10
453.60	7410.14
453.78	7236.94
453.97	7241.62
454.15	7442.90
454.34	7258.00
454.52	7557.59
454.70	7475.67
454.89	7473.33
455.07	7449.93
455.26	7606.74
455.44	7840.79
455.62	7506.10
455.81	7513.12
455.99	7922.71
456.17	7829.09
456.36	7585.68
456.54	7751.85
456.73	7974.21
456.91	7997.61
457.09	7950.80
457.28	8112.30
457.46	7960.16
457.64	7992.93
457.83	7878.24
458.01	7857.18
458.19	8159.11
458.38	8093.57
458.56	8060.80
458.74	8166.13
458.93	8187.19
459.11	8159.11
459.29	8149.75
459.48	8311.24
459.66	8292.52
459.84	8196.56
460.03	8454.02
460.21	8327.63
460.39	8297.20
460.57	8372.10
460.76	8381.46
460.94	8472.74
461.12	8397.84
461.31	8587.43
461.49	8477.42
461.67	8346.35
461.85	8638.92
462.04	8386.14
462.22	9170.22
462.40	8748.92
462.59	8645.94
462.77	8879.99
462.95	8730.20
463.13	8547.64
463.32	8922.12
463.50	8767.65
463.68	8830.84
463.86	8849.57
464.05	8711.47
464.23	8868.29
464.41	9018.08
464.59	8992.34
464.78	8875.31
464.96	8966.59
465.14	8816.80
465.32	9170.22
465.50	9062.55
465.69	8992.34
465.87	8982.98
466.05	9128.09
466.23	9043.83
466.41	9034.47
466.60	9315.33
466.78	9060.21
466.96	9135.11
467.14	9114.05
467.32	9212.35
467.51	9448.74
467.69	9060.21
467.87	9186.60
468.05	9331.72
468.23	9210.01
468.41	9137.45
468.60	9247.46
468.78	9472.15
468.96	9533.00
469.14	9432.36
469.32	9535.34
469.50	9666.41
469.69	9533.00
469.87	9659.39
470.05	9610.24
470.23	9717.90
470.41	9687.48
470.59	9666.41
470.77	9743.65
470.95	9717.90
471.14	9970.68
471.32	9708.54
471.50	10094.73
471.68	10162.61
471.86	10504.32
472.04	10281.97
472.22	10298.36
472.40	10195.37
472.58	10228.14
472.77	10090.05
472.95	10417.72
473.13	10824.98
473.31	10303.04
473.49	10333.47
473.67	10661.14
473.85	10600.29
474.03	10677.52
474.21	10766.46
474.39	10885.83
474.57	10677.52
474.75	10927.96
474.93	11052.01
475.12	10867.11
475.30	11136.27
475.48	11115.20
475.66	11180.74
475.84	10932.64
476.02	11239.25
476.20	11396.07
476.38	11517.78
476.56	11672.25
476.74	11655.87
476.92	11510.75
477.10	11564.59
477.28	11763.53
477.46	11840.77
477.64	11805.66
477.82	12119.29
478.00	12484.42
478.18	12425.90
478.36	12255.04
478.54	12411.86
478.72	12587.40
478.90	12615.49
479.08	12697.41
479.26	12973.59
479.44	13128.06
479.62	12973.59
479.80	13261.48
479.98	13107.00
480.16	13504.89
480.34	13371.48
480.52	13600.85
480.70	13624.26
480.88	13610.22
481.06	13795.12
481.24	13645.32
481.41	13947.25
481.59	14253.86
481.77	14118.11
481.95	14047.90
482.13	14483.24
482.31	14286.63
482.49	14670.48
482.67	14766.44
482.85	14745.38
483.03	15119.86
483.21	14963.04
483.39	15311.78
483.57	15089.43
483.74	15585.63
483.92	15335.19
484.10	14988.79
484.28	15634.78
484.46	15901.60
484.64	16266.72
484.82	15784.57
485.00	15964.79
485.18	16264.38
485.35	16016.29
485.53	15995.22
485.71	16404.81
485.89	16479.71
486.07	16580.36
486.25	16456.31
486.43	16889.31
486.61	16835.47
486.78	16973.56
486.96	17525.93
487.14	17694.45
487.32	17334.01
487.50	17776.37
487.68	17893.40
487.85	18008.08
488.03	18288.95
488.21	18239.79
488.39	18265.54
488.57	18242.14
488.75	18581.51
488.92	18848.33
489.10	19002.81
489.28	19164.31
489.46	19475.60
489.64	19353.89
489.81	19674.54
489.99	19917.96
490.17	20042.01
490.35	20212.87
490.53	19843.06
490.70	20269.04
490.88	20287.76
491.06	20299.47
491.24	20769.91
491.41	20519.48
491.59	20575.65
491.77	20739.49
491.95	21029.71
492.13	21153.76
492.30	21387.82
492.48	21451.01
492.66	21179.51
492.84	21577.40
493.01	21783.37
493.19	21532.93
493.37	21954.22
493.54	22029.12
493.72	22331.05
493.90	22424.67
494.08	22707.88
494.25	22974.70
494.43	23007.47
494.61	23115.13
494.79	23040.23
494.96	23513.02
495.14	23456.85
495.32	23676.86
495.49	23714.31
495.67	23772.82
495.85	23651.11
496.02	24018.58
496.20	24091.13
496.38	23990.49
496.55	24198.80
496.73	25118.63
496.91	24531.15
497.09	24683.29
497.26	24835.42
497.44	24744.14
497.62	24971.18
497.79	25097.56
497.97	24919.68
498.14	25495.46
498.32	25450.99
498.50	25518.86
498.67	25570.35
498.85	25750.57
499.03	25823.13
499.20	26068.89
499.38	26176.55
499.56	26003.35
499.73	26375.50
499.91	26223.36
500.08	26445.71
500.26	25989.31
500.44	26532.31
500.61	26761.69
500.79	26450.39
500.97	26607.21
501.14	26946.59
501.32	26927.86
501.49	26888.07
501.67	27218.09
501.84	27218.09
502.02	27002.76
502.20	27358.52
502.37	27552.79
502.55	27424.06
502.72	27915.57
502.90	27625.34
503.07	27843.01
503.25	27882.80
503.43	27955.36
503.60	28196.43
503.78	28109.83
503.95	27910.89
504.13	28355.59
504.30	28563.90
504.48	28547.51
504.65	28561.56
504.83	28943.06
505.01	28774.55
505.18	28779.23
505.36	29249.67
505.53	29081.16
505.71	29593.73
505.88	29340.96
506.06	29392.45
506.23	29715.44
506.41	28994.56
506.58	29532.88
506.76	29998.65
506.93	29771.61
507.11	29610.12
507.28	29984.60
507.46	29900.34
507.63	29895.66
507.81	30094.61
507.98	29886.30
508.16	30314.62
508.33	30314.62
508.50	30316.96
508.68	30347.39
508.85	31019.12
509.03	30808.47
509.20	30866.98
509.38	31316.37
509.55	31253.17
509.73	30951.24
509.90	31302.32
510.08	31372.54
510.25	31557.44
510.42	31718.94
510.60	31531.70
510.77	31466.16
510.95	32077.04
511.12	31707.24
511.30	31941.29
511.47	31864.05
511.64	32348.54
511.82	32311.10
511.99	31943.63
512.17	32273.65
512.34	31798.52
512.51	32577.92
512.69	32463.23
512.86	32203.43
513.04	33034.32
513.21	32818.99
513.38	32842.40
513.56	32865.80
513.73	32669.20
513.90	32613.02
514.08	33120.92
514.25	32804.95
514.43	32957.08
514.60	32943.04
514.77	32971.13
514.95	33425.19
515.12	33460.30
515.29	33301.14
515.47	34000.96
515.64	34040.75
515.81	33446.26
515.99	33432.21
516.16	33549.24
516.33	33731.80
516.51	33567.96
516.68	33422.85
516.85	32809.63
517.03	33766.91
517.20	33841.81
517.37	33862.87
517.54	34511.20
517.72	33773.93
517.89	34047.77
518.06	34148.42
518.24	34307.57
518.41	34387.15
518.58	34244.38
518.75	34356.72
518.93	34590.78
519.10	34646.95
519.27	35063.57
519.45	34803.77
519.62	35250.81
519.79	35101.01
519.96	35189.95
520.14	35735.30
520.31	35227.40
520.48	35285.92
520.65	35496.56
520.83	35557.42
521.00	35761.05
521.17	36144.89
521.34	35559.76
521.52	36348.52
521.69	36364.90
521.86	35976.37
522.03	36301.71
522.20	36292.35
522.38	36355.54
522.55	36318.09
522.72	36381.29
522.89	36512.36
523.07	36538.10
523.24	36219.79
523.41	36751.09
523.58	36687.90
523.75	36982.80
523.92	37422.83
524.10	37235.58
524.27	37186.43
524.44	37228.56
524.61	37029.62
524.78	37354.95
524.96	37401.76
525.13	37771.57
525.30	37729.44
525.47	37521.13
525.64	37677.94
525.81	37827.74
525.98	37504.74
526.16	37287.07
526.33	37038.98
526.50	37706.03
526.67	37266.01
526.84	37457.93
527.01	37186.43
527.18	37823.06
527.36	37727.10
527.53	38071.15
527.70	38251.38
527.87	38424.57
528.04	38211.59
528.21	38068.81
528.38	38644.59
528.55	38660.97
528.72	39122.05
528.89	38714.80
529.07	38628.20
529.24	38382.45
529.41	38588.41
529.58	38178.82
529.75	38815.44
529.92	38871.62
530.09	38967.58
530.26	38902.04
530.43	39096.31
530.60	39274.19
530.77	39335.04
530.94	39421.64
531.11	39454.41
531.28	39374.83
531.46	39571.44
531.63	39601.86
531.80	39084.61
531.97	39391.22
532.14	39379.51
532.31	39482.50
532.48	39222.70
532.65	39330.36
532.82	39702.51
532.99	40231.47
533.16	39800.81
533.33	39824.22
533.50	39959.97
533.67	40109.76
533.84	39777.40
534.01	40306.37
534.18	40095.72
534.35	40147.21
534.52	40364.88
534.69	40198.70
534.86	40086.36
535.03	40584.89
535.20	40669.15
535.37	40662.13
535.54	40238.49
535.71	40636.38
535.88	40753.41
536.05	40692.55
536.22	40634.04
536.38	40549.78
536.55	40746.39
536.72	40673.83
536.89	40397.65
537.06	40505.31
537.23	41041.29
537.40	40486.59
537.57	40912.56
537.74	40966.40
537.91	41191.09
538.08	41401.74
538.25	41116.19
538.42	41289.39
538.59	41640.47
538.75	41144.28
538.92	41195.77
539.09	41874.52
539.26	41446.21
539.43	41865.16
539.60	41453.23
539.77	41727.07
539.94	41434.50
540.11	41347.90
540.28	41713.03
540.44	41280.03
540.61	41251.94
540.78	41476.63
540.95	41244.92
541.12	41598.34
541.29	41509.40
541.46	41862.82
541.62	41811.33
541.79	42309.86
541.96	41818.35
542.13	42075.81
542.30	41963.46
542.47	41972.83
542.63	42061.77
542.80	42351.99
542.97	42433.91
543.14	42679.67
543.31	42719.46
543.48	42740.52
543.64	43133.73
543.81	42745.20
543.98	42665.63
544.15	42632.86
544.32	43192.25
544.48	42864.57
544.65	42731.16
544.82	42911.38
544.99	42965.21
545.16	43180.54
545.32	43040.11
545.49	43072.88
545.66	43206.29
545.83	43173.52
546.00	43501.20
546.16	43571.41
546.33	42841.17
546.50	42581.37
546.67	43250.76
546.83	42890.32
547.00	43381.83
547.17	43133.73
547.34	42845.85
547.50	43395.87
547.67	43840.57
547.84	43468.43
548.00	43835.89
548.17	43594.82
548.34	43845.26
548.51	43990.37
548.67	44172.93
548.84	44055.90
549.01	43779.72
549.18	43555.03
549.34	44018.46
549.51	43952.92
549.68	43634.61
549.84	43840.57
550.01	43723.55
550.18	43887.39
550.34	44004.41
550.51	44079.31
550.68	43868.66
550.84	43716.53
551.01	43920.15
551.18	44355.49
551.34	44210.38
551.51	44261.87
551.68	44411.67
551.84	44524.01
552.01	44161.23
552.18	44002.07
552.34	44282.94
552.51	44451.45
552.68	44556.78
552.84	44554.44
553.01	44910.20
553.18	44495.92
553.34	44296.98
553.51	44453.79
553.67	44722.96
553.84	45038.93
554.01	45294.05
554.17	44816.58
554.34	44903.18
554.51	44961.69
554.67	45106.80
554.84	44839.98
555.00	44641.04
555.17	44533.37
555.33	44425.71
555.50	45069.36
555.67	45184.04
555.83	45069.36
556.00	45048.29
556.16	45408.73
556.33	45081.06
556.50	44903.18
556.66	45233.19
556.83	44882.11
556.99	45631.08
557.16	44828.28
557.32	45202.77
557.49	45537.46
557.65	45371.28
557.82	45146.59
557.98	45226.17
558.15	45354.90
558.32	45184.04
558.48	44755.72
558.65	45207.45
558.81	44900.84
558.98	45155.96
559.14	44971.05
559.31	45118.51
559.47	45474.27
559.64	45780.88
559.80	45535.12
559.97	45890.88
560.13	45612.36
560.30	45455.54
560.46	45448.52
560.63	45200.43
560.79	45287.03
560.96	45518.74
561.12	45425.12
561.29	45467.25
561.45	45675.55
561.61	45621.72
561.78	45553.85
561.94	45397.03
562.11	45373.63
562.27	45738.75
562.44	45418.10
562.60	45956.42
562.77	45991.53
562.93	45722.37
563.10	46087.49
563.26	45455.54
563.42	45848.75
563.59	45670.87
563.75	46213.88
563.92	45638.11
564.08	45958.76
564.24	46408.14
564.41	45947.06
564.57	45757.47
564.74	45422.78
564.90	45881.52
565.07	45808.96
565.23	45713.00
565.39	45837.05
565.56	46073.45
565.72	45408.73
565.88	45914.29
566.05	45675.55
566.21	46094.51
566.38	45790.24
566.54	45837.05
566.70	46150.68
566.87	46483.04
567.03	46050.04
567.19	46354.31
567.36	46373.03
567.52	46047.70
567.68	45984.51
567.85	45914.29
568.01	45876.84
568.17	45947.06
568.34	46199.83
568.50	46146.00
568.66	45752.79
568.83	46358.99
568.99	45649.81
569.15	45790.24
569.32	45738.75
569.48	45813.65
569.64	46092.17
569.81	46609.43
569.97	46256.01
570.13	45855.78
570.30	46089.83
570.46	45680.24
570.62	45406.39
570.78	45893.22
570.95	45879.18
571.11	46066.42
571.27	46293.46
571.43	46312.18
571.60	46335.59
571.76	46138.98
571.92	46146.00
572.09	46550.91
572.25	46429.21
572.41	46213.88
572.57	46251.33
572.74	46768.58
572.90	46375.37
573.06	46576.66
573.22	46211.54
573.38	46052.38
573.55	45998.55
573.71	46270.05
573.87	46138.98
574.03	45944.72
574.20	45785.56
574.36	46204.52
574.52	46438.57
574.68	46019.61
574.84	46483.04
575.01	46061.74
575.17	46419.84
575.33	45750.45
575.49	46094.51
575.65	46560.28
575.82	46843.48
575.98	46590.70
576.14	46459.63
576.30	46660.92
576.46	46047.70
576.62	46312.18
576.79	45937.69
576.95	46061.74
577.11	46129.62
577.27	46239.62
577.43	46501.76
577.59	46120.26
577.75	46106.21
577.92	45663.85
578.08	45902.59
578.24	45743.43
578.40	46253.67
578.56	46361.33
578.72	46539.21
578.88	46312.18
579.04	46487.72
579.21	46571.98
579.37	46122.60
579.53	46248.99
579.69	46391.76
579.85	46314.52
580.01	46384.74
580.17	46644.54
580.33	46443.25
580.49	46508.79
580.65	46387.08
580.82	46745.18
580.98	46344.95
581.14	45993.87
581.30	46745.18
581.46	46574.32
581.62	46600.07
581.78	45996.21
581.94	47026.04
582.10	46068.76
582.26	46183.45
582.42	46263.03
582.58	46447.93
582.74	46586.02
582.90	46504.10
583.06	46761.56
583.22	46726.46
583.38	46424.53
583.54	46256.01
583.70	46548.57
583.86	46153.02
584.02	46869.23
584.18	46424.53
584.34	46527.51
584.50	46663.26
584.66	46380.06
584.82	46096.85
584.98	46660.92
585.14	46302.82
585.30	46199.83
585.46	46581.34
585.62	46103.87
585.78	46593.04
585.94	46075.79
586.10	46445.59
586.26	46099.19
586.42	46447.93
586.58	46703.05
586.74	46141.32
586.90	46387.08
587.06	46227.92
587.22	46569.64
587.38	46050.04
587.54	47096.26
587.70	46628.15
587.86	46761.56
588.02	46373.03
588.18	46679.64
588.34	46417.50
588.49	46143.66
588.65	46464.32
588.81	45883.86
588.97	45989.19
589.13	45806.62
589.29	45982.16
589.45	46136.64
589.61	46291.12
589.77	46291.12
589.93	47054.13
590.08	46696.03
590.24	46667.94
590.40	47030.72
590.56	46466.66
590.72	46609.43
590.88	46291.12
591.04	46642.20
591.20	46799.01
591.35	46756.88
591.51	47164.14
591.67	46740.50
591.83	46667.94
591.99	46192.81
592.15	46260.69
592.31	46714.75
592.46	46777.95
592.62	46976.89
592.78	47009.66
592.94	46784.97
593.10	46515.81
593.26	46873.91
593.41	46665.60
593.57	46712.41
593.73	46555.60
593.89	46658.58
594.05	46440.91
594.20	46314.52
594.36	47271.80
594.52	46689.01
594.68	46581.34
594.84	46806.03
594.99	46707.73
595.15	46710.07
595.31	46883.27
595.47	46677.30
595.62	47299.89
595.78	47012.00
595.94	46969.87
596.10	47112.64
596.25	47276.48
596.41	46707.73
596.57	46855.18
596.73	46756.88
596.88	46761.56
597.04	46621.13
597.20	46684.33
597.36	46899.65
597.51	46906.68
597.67	46766.24
597.83	46822.42
597.99	46948.81
598.14	46953.49
598.30	46628.15
598.46	46679.64
598.61	46703.05
598.77	46733.48
598.93	47278.82
599.09	46471.34
599.24	47044.77
599.40	46965.19
599.56	46700.71
599.71	46602.41
599.87	47023.70
600.03	46770.93
600.18	46761.56
600.34	46361.33
600.50	46497.08
600.65	46728.80
600.81	47000.30
600.97	46934.76
601.12	47131.37
601.28	46693.69
601.44	46560.28
601.59	46677.30
601.75	46401.12
601.91	46546.23
602.06	46871.57
602.22	46887.95
602.37	46497.08
602.53	46976.89
602.69	47084.56
602.84	46822.42
603.00	46349.63
603.16	46787.31
603.31	46899.65
603.47	46639.86
603.62	46775.61
603.78	46738.16
603.94	46403.46
604.09	46724.11
604.25	46962.85
604.40	46855.18
604.56	46518.15
604.71	46906.68
604.87	46630.49
605.03	46759.22
605.18	46656.24
605.34	46756.88
605.49	46370.69
605.65	46569.64
605.80	46344.95
605.96	46422.19
606.12	46728.80
606.27	46707.73
606.43	46277.07
606.58	46836.46
606.74	46597.73
606.89	46557.94
607.05	46314.52
607.20	46595.38
607.36	46461.97
607.51	47061.15
607.67	46752.20
607.82	46476.02
607.98	46445.59
608.13	46356.65
608.29	46433.89
608.44	46298.14
608.60	45928.33
608.75	46401.12
608.91	46127.28
609.06	46288.77
609.22	46471.34
609.37	46569.64
609.53	46412.82
609.68	46361.33
609.84	46358.99
609.99	46417.50
610.15	46190.47
610.30	46103.87
610.46	45815.99
610.61	46230.26
610.76	46288.77
610.92	46089.83
611.07	45713.00
611.23	45918.97
611.38	46059.40
611.54	45591.30
611.69	46068.76
611.84	45457.88
612.00	45897.91
612.15	46178.77
612.31	45766.84
612.46	45963.44
612.62	46131.96
612.77	45808.96
612.92	46094.51
613.08	45762.15
613.23	45893.22
613.39	45200.43
613.54	45626.40
613.69	45705.98
613.85	45771.52
614.00	45869.82
614.15	45867.48
614.31	46223.24
614.46	45872.16
614.62	46153.02
614.77	45535.12
614.92	45680.24
615.08	45565.55
615.23	45811.31
615.38	45916.63
615.54	45296.39
615.69	45368.94
615.84	45036.59
616.00	45755.13
616.15	45502.35
616.30	45432.14
616.46	45111.49
616.61	45179.36
616.76	44886.79
616.92	44680.83
617.07	45373.63
617.22	44744.02
617.37	45200.43
617.53	45434.48
617.68	45324.47
617.83	45308.09
617.99	45553.85
618.14	45460.23
618.29	45263.62
618.45	44886.79
618.60	45172.34
618.75	45170.00
618.90	44823.60
619.06	45457.88
619.21	45294.05
619.36	45226.17
619.51	45001.48
619.67	44889.13
619.82	44718.28
619.97	44924.24
620.12	44795.51
620.28	44685.51
620.43	44718.28
620.58	44753.38
620.73	44715.93
620.89	44259.53
621.04	44507.63
621.19	44701.89
621.34	44598.91
621.49	44612.95
621.65	44294.64
621.80	44641.04
621.95	44629.34
622.10	44493.58
622.25	44304.00
622.41	44074.63
622.56	44294.64
622.71	44123.78
622.86	44353.15
623.01	44512.31
623.16	44582.52
623.32	44353.15
623.47	44301.66
623.62	44484.22
623.77	44313.36
623.92	44336.77
624.07	44128.46
624.23	43831.21
624.38	43873.34
624.53	44030.16
624.68	43913.13
624.83	44154.21
624.98	44725.30
625.13	43831.21
625.29	43929.51
625.44	44048.88
625.59	43449.70
625.74	43737.59
625.89	43447.36
626.04	43636.95
626.19	44048.88
626.34	43803.13
626.49	43414.60
626.65	43573.75
626.80	43571.41
626.95	43309.27
627.10	43442.68
627.25	43714.19
627.40	43386.51
627.55	42897.34
627.70	42724.14
627.85	42717.12
628.00	43402.89
628.15	43477.79
628.30	43548.01
628.45	43161.82
628.60	43346.72
628.76	43484.81
628.91	43494.18
629.06	43388.85
629.21	42951.17
629.36	42972.24
629.51	42583.71
629.66	42693.71
629.81	42972.24
629.96	42848.19
630.11	43222.67
630.26	42845.85
630.41	43171.18
630.56	42663.28
630.71	42838.83
630.86	42499.45
631.01	42541.58
631.16	42768.61
631.31	42602.43
631.46	42052.41
631.61	42644.56
631.76	43217.99
631.91	42763.93
632.06	43342.04
632.21	42382.42
632.36	43145.44
632.51	42710.10
632.66	42871.59
632.81	42424.55
632.96	42466.68
633.10	42415.19
633.25	42361.36
633.40	42415.19
633.55	42911.38
633.70	42501.79
633.85	42000.91
634.00	42220.92
634.15	42139.00
634.30	42050.06
634.45	42543.92
634.60	42014.96
634.75	42082.83
634.90	42038.36
635.05	42417.53
635.19	41684.94
635.34	42457.32
635.49	41933.04
635.64	42337.95
635.79	41579.62
635.94	41818.35
636.09	41984.53
636.24	41881.55
636.39	41647.49
636.53	41886.23
636.68	41478.97
636.83	42155.39
636.98	41881.55
637.13	41420.46
637.28	42335.61
637.43	42234.97
637.57	41956.44
637.72	41750.48
637.87	42036.02
638.02	41591.32
638.17	41930.70
638.32	41493.02
638.46	41273.01
638.61	41570.25
638.76	41280.03
638.91	41476.63
639.06	41521.10
639.20	41478.97
639.35	41432.16
639.50	41371.31
639.65	41876.86
639.80	41806.65
639.94	41373.65
640.09	41294.07
640.24	41235.56
640.39	41170.02
640.54	41003.85
640.68	40561.48
640.83	40985.12
640.98	40907.88
641.13	41064.70
641.27	41104.49
641.42	41200.45
641.57	40907.88
641.72	40727.66
641.86	40952.35
642.01	40989.80
642.16	40856.39
642.31	40126.14
642.45	41263.64
642.60	40289.98
642.75	40582.55
642.90	40821.28
643.04	40598.93
643.19	40722.98
643.34	40421.05
643.48	40287.64
643.63	40748.73
643.78	40016.14
643.93	40460.84
644.07	40151.89
644.22	40297.00
644.37	40009.12
644.51	40051.25
644.66	40552.12
644.81	40268.92
644.95	40486.59
645.10	40844.69
645.25	40407.01
645.39	40903.20
645.54	40318.07
645.69	40224.45
645.83	39945.92
645.98	40432.75
646.13	40278.28
646.27	40245.51
646.42	40231.47
646.57	40371.90
646.71	40165.93
646.86	40257.21
647.00	40025.50
647.15	39974.01
647.30	40208.06
647.44	39936.56
647.59	39807.83
647.74	40051.25
647.88	39913.16
648.03	39885.07
648.17	40044.23
648.32	39775.06
648.47	39934.22
648.61	39541.01
648.76	40280.62
648.90	39501.22
649.05	39515.26
649.20	39873.37
649.34	40039.54
649.49	39414.62
649.63	39461.43
649.78	39503.56
649.92	39154.82
650.07	39306.96
650.21	38976.94
650.36	39122.05
650.51	39306.96
650.65	39805.49
650.80	40088.70
650.94	39732.93
651.09	39564.42
651.23	39508.24
651.38	39353.77
651.52	39068.22
651.67	39124.40
651.81	39723.57
651.96	38733.53
652.10	38878.64
652.25	39159.50
652.39	38792.04
652.54	38892.68
652.68	39225.04
652.83	39171.21
652.97	39517.60
653.12	39082.27
653.26	38897.36
653.41	39337.38
653.55	38735.87
653.70	38565.01
653.84	38630.54
653.99	38899.70
654.13	38459.68
654.27	38562.67
654.42	38628.20
654.56	38712.46
654.71	38721.82
654.85	38738.21
655.00	39157.16
655.14	38799.06
655.29	38110.94
655.43	38333.29
655.57	37937.74
655.72	38073.49
655.86	37998.60
656.01	38160.09
656.15	38017.32
656.30	37347.93
656.44	38087.54
656.58	38040.73
656.73	37642.84
656.87	37841.78
657.01	37820.72
657.16	37652.20
657.30	37469.64
657.45	37724.75
657.59	37546.87
657.73	38012.64
657.88	37694.33
658.02	38195.20
658.16	37769.22
658.31	38141.37
658.45	38000.94
658.60	38146.05
658.74	37919.02
658.88	37710.71
659.03	37771.57
659.17	37303.46
659.31	37525.81
659.46	37528.15
659.60	37399.42
659.74	37289.42
659.89	37022.59
660.03	37523.47
660.17	37425.17
660.32	37359.63
660.46	37336.23
660.60	37654.54
660.74	37289.42
660.89	37027.28
661.03	37015.57
661.17	36877.48
661.32	36744.07
661.46	36657.47
661.60	37179.41
661.74	36807.26
661.89	36966.42
662.03	37116.22
662.17	36854.08
662.31	36388.31
662.46	36680.88
662.60	36348.52
662.74	36458.52
662.88	36437.46
663.03	35931.90
663.17	36512.36
663.31	36196.38
663.45	36311.07
663.60	36292.35
663.74	36486.61
663.88	36346.18
664.02	35840.62
664.17	35995.10
664.31	35791.47
664.45	35735.30
664.59	35849.99
664.73	35873.39
664.88	36151.91
665.02	35281.24
665.16	36156.60
665.30	35709.55
665.44	35924.88
665.59	35667.42
665.73	35768.07
665.87	35147.82
666.01	35115.06
666.15	35168.89
666.29	35267.19
666.44	35557.42
666.58	35421.67
666.72	35182.93
666.86	34670.36
667.00	35346.77
667.14	35047.18
667.28	34836.53
667.43	34752.27
667.57	34794.40
667.71	34536.94
667.85	34838.87
667.99	34106.29
668.13	34391.83
668.27	34485.45
668.41	34735.89
668.56	34590.78
668.70	34022.03
668.84	34099.26
668.98	34352.04
669.12	34078.20
669.26	34595.46
669.40	33942.45
669.54	33809.04
669.68	33771.59
669.82	33827.76
669.96	33670.95
670.10	33303.48
670.25	33544.56
670.39	33837.12
670.53	33677.97
670.67	33422.85
670.81	33563.28
670.95	33659.24
671.09	33900.32
671.23	33429.87
671.37	33530.51
671.51	33713.08
671.65	32992.19
671.79	33031.98
671.93	32929.00
672.07	32929.00
672.21	32964.10
672.35	33039.00
672.49	32638.77
672.63	32575.58
672.77	32893.89
672.91	32833.04
673.05	32446.85
673.19	32708.99
673.33	32596.64
673.47	32554.51
673.61	32308.76
673.75	31854.69
673.89	31807.88
674.03	31630.00
674.17	31515.31
674.31	31573.83
674.45	31314.03
674.59	31646.38
674.73	31875.76
674.87	31754.05
675.01	31580.85
675.15	31597.23
675.29	32011.51
675.43	31185.30
675.56	31431.05
675.70	31218.07
675.84	30836.56
675.98	30377.81
676.12	31101.04
676.26	30902.09
676.40	30347.39
676.54	30483.14
676.68	30733.57
676.82	30237.38
676.96	30534.63
677.10	30408.24
677.23	30092.27
677.37	30536.97
677.51	30038.44
677.65	30033.75
677.79	30277.17
677.93	29804.38
678.07	29556.28
678.21	29528.20
678.34	29577.35
678.48	29462.66
678.62	29743.53
678.76	29188.82
678.90	29397.13
679.04	28896.25
679.18	29289.46
679.31	28877.53
679.45	28723.05
679.59	28390.70
679.73	28554.54
679.87	28512.41
680.00	28774.55
680.14	28470.28
680.28	28063.02
680.42	28276.01
680.56	28240.90
680.70	28095.79
680.83	27866.42
680.97	27627.68
681.11	27452.14
681.25	27569.17
681.39	27880.46
681.52	27672.15
681.66	27412.35
681.80	27016.80
681.94	27192.34
682.07	27505.98
682.21	27049.57
682.35	27166.60
682.49	26719.56
682.62	26988.72
682.76	26654.02
682.90	26742.96
683.04	26581.46
683.17	26785.09
683.31	26316.98
683.45	26799.13
683.59	25891.01
683.72	26075.91
683.86	25696.74
684.00	26094.63
684.13	25979.95
684.27	26127.40
684.41	25535.24
684.55	25696.74
684.68	25479.07
684.82	25338.64
684.96	25596.10
685.09	25645.25
685.23	25394.81
685.37	25338.64
685.50	25069.48
685.64	24952.45
685.78	24889.26
685.91	24875.21
686.05	25144.38
686.19	24442.21
686.32	24238.59
686.46	24409.45
686.60	24093.47
686.73	23796.23
686.87	23892.19
687.01	23742.39
687.14	23758.78
687.28	23475.57
687.42	23264.92
687.55	23623.03
687.69	23747.08
687.82	23356.21
687.96	23101.09
688.10	23204.07
688.23	23250.88
688.37	22965.34
688.50	22761.71
688.64	22787.46
688.78	22862.35
688.91	22801.50
689.05	22651.70
689.18	22422.33
689.32	22298.28
689.46	22293.60
689.59	22567.45
689.73	22530.00
689.86	22195.30
690.00	22075.93
690.13	22588.51
690.27	22094.66
690.41	22349.78
690.54	21834.86
690.68	21406.54
690.81	21364.41
690.95	21415.90
691.08	21610.17
691.22	21252.06
691.35	21766.98
691.49	21326.96
691.62	21596.12
691.76	21214.62
691.89	21212.28
692.03	21238.02
692.16	20961.84
692.30	20929.07
692.43	20774.60
692.57	20704.38
692.70	20655.23
692.84	20528.84
692.97	20357.98
693.11	20411.81
693.24	20470.33
693.38	20355.64
693.51	19782.21
693.65	19943.70
693.78	19974.13
693.92	19971.79
694.05	19576.24
694.19	19356.23
694.32	19527.09
694.45	19866.47
694.59	19484.96
694.72	19487.30
694.86	19449.85
694.99	19080.05
695.13	19023.87
695.26	18824.93
695.39	18934.93
695.53	19098.77
695.66	19026.21
695.80	18628.32
695.93	18691.52
696.07	18515.98
696.20	18801.52
696.33	18462.15
696.47	18658.75
696.60	18396.61
696.73	18412.99
696.87	18047.87
697.00	18118.09
697.14	18162.56
697.27	17759.98
697.40	17991.70
697.54	17853.61
697.67	18066.60
697.80	17626.57
697.94	17678.07
698.07	17425.29
698.21	17612.53
698.34	17516.57
698.47	17371.46
698.61	16922.07
698.74	16926.75
698.87	17188.89
699.01	17013.35
699.14	16774.62
699.27	16966.54
699.40	16769.94
699.54	16662.27
699.67	16521.84
699.80	16774.62
699.94	16472.69
700.07	16716.11
700.20	16133.31
700.34	16264.38
700.47	16137.99
700.60	16011.60
700.73	16044.37
700.87	16152.04
701.00	15812.66
701.13	15829.04
701.26	16009.26
701.40	15929.69
701.53	15882.88
701.66	15587.97
701.79	15517.75
701.93	15311.78
702.06	15480.30
702.19	15047.30
702.32	15267.31
702.46	15199.44
702.59	15241.57
702.72	15002.83
702.85	15028.58
702.99	15119.86
703.12	15133.90
703.25	14878.79
703.38	15119.86
703.51	14532.39
703.65	14703.25
703.78	14572.18
703.91	14516.00
704.04	14562.81
704.17	14310.04
704.31	14157.90
704.44	14176.62
704.57	13984.70
704.70	14134.50
704.83	13980.02
704.96	13858.31
705.10	14141.52
705.23	14190.67
>>>>>End Processed Spectral Data<<<<<
