SpectraSuite Data File
++++++++++++++++++++++++++++++++++++
Date: Fri Oct 25 11:33:40 EDT 2013
User: price-jones
Dark Spectrum Present: No
Reference Spectrum Present: No
Number of Sampled Component Spectra: 1
Spectrometers: USB2+H05261
Integration Time (usec): 100000 (USB2+H05261)
Spectra Averaged: 1 (USB2+H05261)
Boxcar Smoothing: 0 (USB2+H05261)
Correct for Electrical Dark: No (USB2+H05261)
Strobe/Lamp Enabled: No (USB2+H05261)
Correct for Detector Non-linearity: No (USB2+H05261)
Correct for Stray Light: No (USB2+H05261)
Number of Pixels in Processed Spectrum: 2048
>>>>>Begin Processed Spectral Data<<<<<
365.73	320.65
365.92	320.65
366.12	320.65
366.32	222.35
366.52	98.30
366.72	198.95
366.91	131.07
367.11	147.45
367.31	147.45
367.51	149.79
367.70	138.09
367.90	166.18
368.10	114.69
368.30	187.24
368.49	128.73
368.69	170.86
368.89	145.11
369.09	210.65
369.28	234.05
369.48	159.16
369.68	194.26
369.87	257.46
370.07	187.24
370.27	205.97
370.47	290.23
370.66	496.19
370.86	458.74
371.06	496.19
371.25	472.79
371.45	535.98
371.65	528.96
371.84	526.62
372.04	489.17
372.24	603.86
372.44	552.37
372.63	568.75
372.83	510.24
373.03	601.52
373.22	594.50
373.42	629.60
373.62	627.26
373.81	631.94
374.01	636.63
374.21	636.63
374.40	631.94
374.60	667.05
374.79	624.92
374.99	653.01
375.19	690.46
375.38	676.41
375.58	697.48
375.78	676.41
375.97	683.44
376.17	685.78
376.37	758.33
376.56	676.41
376.76	737.27
376.95	664.71
377.15	660.03
377.35	695.14
377.54	655.35
377.74	629.60
377.93	697.48
378.13	660.03
378.33	725.57
378.52	725.57
378.72	772.38
378.91	699.82
379.11	692.80
379.31	709.18
379.50	755.99
379.70	826.21
379.89	653.01
380.09	697.48
380.28	643.65
380.48	760.67
380.68	688.12
380.87	767.70
381.07	819.19
381.26	802.80
381.46	713.86
381.65	821.53
381.85	798.12
382.04	784.08
382.24	760.67
382.43	805.14
382.63	774.72
382.83	814.51
383.02	833.23
383.22	861.32
383.41	793.44
383.61	826.21
383.80	819.19
384.00	816.85
384.19	896.43
384.39	840.25
384.58	821.53
384.78	788.76
384.97	763.01
385.17	866.00
385.36	866.00
385.56	849.61
385.75	868.34
385.95	861.32
386.14	880.04
386.34	866.00
386.53	837.91
386.72	816.85
386.92	945.58
387.11	868.34
387.31	868.34
387.50	849.61
387.70	800.46
387.89	856.64
388.09	933.87
388.28	866.00
388.48	912.81
388.67	992.39
388.86	924.51
389.06	924.51
389.25	954.94
389.45	877.70
389.64	978.34
389.84	992.39
390.03	919.83
390.22	971.32
390.42	931.53
390.61	980.68
390.81	994.73
391.00	1006.43
391.19	985.37
391.39	1013.45
391.58	971.32
391.78	992.39
391.97	990.05
392.16	980.68
392.36	1132.82
392.55	1086.01
392.75	994.73
392.94	1022.81
393.13	987.71
393.33	1071.97
393.52	1064.94
393.71	1083.67
393.91	1071.97
394.10	1069.62
394.29	1062.60
394.49	1132.82
394.68	1181.97
394.88	1076.65
395.07	1153.88
395.26	1174.95
395.46	1109.41
395.65	1177.29
395.84	1200.69
396.04	1245.16
396.23	1275.59
396.42	1277.93
396.62	1313.04
396.81	1263.89
397.00	1167.93
397.19	1174.95
397.39	1188.99
397.58	1224.10
397.77	1219.42
397.97	1245.16
398.16	1334.11
398.35	1369.21
398.55	1306.02
398.74	1235.80
398.93	1369.21
399.12	1357.51
399.32	1394.96
399.51	1263.89
399.70	1371.55
399.90	1317.72
400.09	1397.30
400.28	1430.07
400.47	1418.36
400.67	1394.96
400.86	1397.30
401.05	1458.15
401.24	1397.30
401.44	1418.36
401.63	1502.62
401.82	1434.75
402.01	1479.22
402.21	1479.22
402.40	1486.24
402.59	1481.56
402.78	1519.01
402.97	1483.90
403.17	1521.35
403.36	1516.67
403.55	1598.59
403.74	1664.12
403.93	1607.95
404.13	1624.33
404.32	1692.21
404.51	1612.63
404.70	1640.72
404.89	1579.86
405.09	1701.57
405.28	1661.78
405.47	1696.89
405.66	1661.78
405.85	1682.85
406.05	1820.94
406.24	1804.55
406.43	1764.76
406.62	1732.00
406.81	1846.68
407.00	1811.57
407.20	1746.04
407.39	1863.07
407.58	1858.39
407.77	1893.49
407.96	1914.56
408.15	1905.20
408.34	1842.00
408.54	1968.39
408.73	2005.84
408.92	1968.39
409.11	1973.07
409.30	2085.42
409.49	1991.80
409.68	1961.37
409.87	2062.01
410.07	2062.01
410.26	2054.99
410.45	2033.93
410.64	1977.75
410.83	2085.42
411.02	2218.83
411.21	2132.23
411.40	2090.10
411.59	2090.10
411.78	2324.15
411.98	2277.34
412.17	2183.72
412.36	2319.47
412.55	2399.05
412.74	2333.51
412.93	2286.70
413.12	2235.21
413.31	2324.15
413.50	2321.81
413.69	2445.86
413.88	2424.80
414.07	2469.27
414.26	2502.03
414.45	2558.21
414.64	2504.37
414.83	2495.01
415.02	2597.99
415.22	2654.17
415.41	2626.08
415.60	2612.04
415.79	2684.59
415.98	2700.98
416.17	2715.02
416.36	2677.57
416.55	2787.58
416.74	2750.13
416.93	2736.09
417.12	2892.90
417.31	2869.50
417.50	2883.54
417.69	2883.54
417.88	3054.40
418.07	2946.73
418.26	2932.69
418.45	3016.95
418.64	3152.70
418.83	3030.99
419.02	3222.92
419.21	3133.98
419.39	3045.04
419.58	3033.33
419.77	3007.59
419.96	3101.21
420.15	3251.00
420.34	3126.96
420.53	3157.38
420.72	3302.50
420.91	3258.03
421.10	3229.94
421.29	3253.34
421.48	3243.98
421.67	3199.51
421.86	3255.69
422.05	3274.41
422.24	3311.86
422.43	3368.03
422.61	3283.77
422.80	3449.95
422.99	3356.33
423.18	3426.54
423.37	3538.89
423.56	3496.76
423.75	3419.52
423.94	3339.94
424.13	3269.73
424.32	3358.67
424.50	3386.76
424.69	3583.36
424.88	3440.59
425.07	3475.70
425.26	3346.97
425.45	3382.07
425.64	3569.32
425.83	3527.19
426.01	3559.95
426.20	3396.12
426.39	3438.25
426.58	3419.52
426.77	3456.97
426.96	3538.89
427.15	3604.42
427.33	3646.55
427.52	3585.70
427.71	3655.92
427.90	3536.55
428.09	3510.80
428.28	3632.51
428.46	3634.85
428.65	3609.11
428.84	3768.26
429.03	3817.41
429.22	3604.42
429.40	3775.28
429.59	3744.86
429.78	3674.64
429.97	3684.00
430.16	3815.07
430.34	3882.95
430.53	3976.57
430.72	3889.97
430.91	3918.06
431.10	3845.50
431.28	4004.66
431.47	3794.01
431.66	3999.98
431.85	3889.97
432.03	4011.68
432.22	4156.79
432.41	4203.60
432.60	4168.49
432.79	4208.28
432.97	4191.90
433.16	4128.70
433.35	4095.94
433.54	4215.30
433.72	4163.81
433.91	4198.92
434.10	4227.01
434.28	4107.64
434.47	4325.31
434.66	4348.72
434.85	4353.40
435.03	4372.12
435.22	4257.43
435.41	4550.00
435.59	4325.31
435.78	4409.57
435.97	4397.87
436.16	4418.93
436.34	4456.38
436.53	4510.21
436.72	4613.20
436.90	4421.27
437.09	4678.73
437.28	4432.97
437.46	4533.62
437.65	4585.11
437.84	4709.16
438.02	4540.64
438.21	4645.96
438.40	4772.35
438.58	4737.24
438.77	4945.55
438.96	4704.48
439.14	4819.16
439.33	4903.42
439.52	4753.63
439.70	4933.85
439.89	5153.86
440.08	5102.37
440.26	5034.49
440.45	5004.07
440.63	5135.14
440.82	5076.62
441.01	5135.14
441.19	5233.44
441.38	5200.67
441.57	5324.72
441.75	5221.74
441.94	5448.77
442.12	5317.70
442.31	5387.91
442.50	5577.50
442.68	5355.15
442.87	5472.17
443.05	5582.18
443.24	5612.60
443.43	5345.78
443.61	5493.24
443.80	5937.94
443.98	5493.24
444.17	5289.61
444.35	5521.32
444.54	5748.36
444.73	5638.35
444.91	5584.52
445.10	5614.95
445.28	5717.93
445.47	5668.78
445.65	5849.00
445.84	5750.70
446.02	5675.80
446.21	5610.26
446.39	5591.54
446.58	5682.82
446.77	5746.02
446.95	5715.59
447.14	5743.67
447.32	5746.02
447.51	5947.30
447.69	5659.42
447.88	5767.08
448.06	5696.86
448.25	5809.21
448.43	5898.15
448.62	5844.32
448.80	5921.56
448.99	5781.12
449.17	5802.19
449.36	5837.30
449.54	5963.68
449.73	6143.91
449.91	6153.27
450.10	6064.33
450.28	6169.65
450.46	6284.34
450.65	6141.57
450.83	6190.72
451.02	5930.92
451.20	6225.82
451.39	6214.12
451.57	6263.27
451.76	6272.64
451.94	6274.98
452.13	6237.53
452.31	6207.10
452.49	6188.38
452.68	6216.46
452.86	6366.26
453.05	6396.68
453.23	6375.62
453.42	6267.95
453.60	6326.47
453.78	6509.03
453.97	6417.75
454.15	6502.01
454.34	6333.49
454.52	6551.16
454.70	6537.12
454.89	6658.82
455.07	6651.80
455.26	6640.10
455.44	6764.15
455.62	6661.16
455.81	6649.46
455.99	6726.70
456.17	6820.32
456.36	6909.26
456.54	6913.94
456.73	6911.60
456.91	7030.97
457.09	7049.69
457.28	7227.57
457.46	6935.01
457.64	7204.17
457.83	7232.26
458.01	7063.74
458.19	7243.96
458.38	7281.41
458.56	7014.59
458.74	7108.21
458.93	7330.56
459.11	7330.56
459.29	7304.81
459.48	7300.13
459.66	7236.94
459.84	7353.96
460.03	7571.63
460.21	7349.28
460.39	7325.88
460.57	7414.82
460.76	7531.84
460.94	7461.63
461.12	7527.16
461.31	7602.06
461.49	7569.29
461.67	7515.46
461.85	7737.81
462.04	7639.51
462.22	8018.68
462.40	7747.17
462.59	7810.37
462.77	7583.34
462.95	7943.78
463.13	7754.19
463.32	7786.96
463.50	7889.95
463.68	7838.45
463.86	8088.89
464.05	7922.71
464.23	7864.20
464.41	7962.50
464.59	7936.76
464.78	8074.85
464.96	8217.62
465.14	7889.95
465.32	8191.88
465.50	8147.40
465.69	8112.30
465.87	7999.95
466.05	8182.51
466.23	7927.39
466.41	8297.20
466.60	8276.13
466.78	8173.15
466.96	8353.37
467.14	8276.13
467.32	8306.56
467.51	8521.89
467.69	8273.79
467.87	8285.50
468.05	8482.10
468.23	8430.61
468.41	8367.42
468.60	8402.52
468.78	8486.78
468.96	8489.12
469.14	8383.80
469.32	8786.37
469.50	8545.30
469.69	8592.11
469.87	8650.62
470.05	8898.72
470.23	8936.17
470.41	8940.85
470.59	8985.32
470.77	8826.16
470.95	8938.51
471.14	9015.74
471.32	8931.48
471.50	9186.60
471.68	9198.31
471.86	9167.88
472.04	9057.87
472.22	9301.29
472.40	9074.26
472.58	9254.48
472.77	9341.08
472.95	9245.12
473.13	9621.94
473.31	9366.82
473.49	9554.07
473.67	9427.68
473.85	9439.38
474.03	9729.61
474.21	9603.22
474.39	9776.42
474.57	9912.17
474.75	9767.06
474.93	10153.24
475.12	10040.90
475.30	10211.76
475.48	10047.92
475.66	10256.23
475.84	10108.77
476.02	10214.10
476.20	10232.82
476.38	10438.79
476.56	10649.44
476.74	10595.61
476.92	10441.13
477.10	10438.79
477.28	10703.27
477.46	10832.00
477.64	10944.34
477.82	10764.12
478.00	11382.03
478.18	11290.74
478.36	11105.84
478.54	11367.98
478.72	11335.21
478.90	11520.12
479.08	11676.93
479.26	11756.51
479.44	11639.48
479.62	11899.28
479.80	11960.14
479.98	12032.69
480.16	12159.08
480.34	12081.85
480.52	12262.07
480.70	12517.18
480.88	12210.57
481.06	12299.52
481.24	12400.16
481.41	12390.80
481.59	12732.51
481.77	12929.12
481.95	13048.49
482.13	13053.17
482.31	12936.14
482.49	13537.66
482.67	13294.24
482.85	13621.92
483.03	13591.49
483.21	13797.46
483.39	13652.34
483.57	13462.76
483.74	13956.61
483.92	14094.71
484.10	13947.25
484.28	14239.82
484.46	14401.32
484.64	14637.71
484.82	14464.51
485.00	14590.90
485.18	15023.90
485.35	14923.26
485.53	14972.41
485.71	15192.42
485.89	15447.54
486.07	15250.93
486.25	15515.41
486.43	15836.06
486.61	15463.92
486.78	15707.34
486.96	16046.71
487.14	16257.36
487.32	16173.10
487.50	16175.44
487.68	16711.42
487.85	16854.20
488.03	17092.93
488.21	17090.59
488.39	17216.98
488.57	16943.14
488.75	17034.42
488.92	17205.28
489.10	17614.87
489.28	17434.65
489.46	17963.61
489.64	17617.21
489.81	18249.16
489.99	18073.62
490.17	18649.39
490.35	18455.12
490.53	18368.52
490.70	18677.48
490.88	18595.56
491.06	19051.96
491.24	18876.42
491.41	18871.74
491.59	19552.84
491.77	18991.11
491.95	19391.34
492.13	19470.92
492.30	19789.23
492.48	19660.50
492.66	19999.88
492.84	19962.43
493.01	20222.23
493.19	20027.96
493.37	20212.87
493.54	20325.21
493.72	20849.49
493.90	20486.71
494.08	20634.16
494.25	20999.29
494.43	21128.02
494.61	21102.27
494.79	21240.36
494.96	21462.71
495.14	21575.06
495.32	21774.00
495.49	21598.46
495.67	22008.06
495.85	21792.73
496.02	21977.63
496.20	22398.93
496.38	22293.60
496.55	22466.80
496.73	22843.63
496.91	22843.63
497.09	23047.26
497.26	22855.33
497.44	22902.14
497.62	23145.56
497.79	23388.97
497.97	23271.95
498.14	23847.72
498.32	23943.68
498.50	24041.98
498.67	24123.90
498.85	24238.59
499.03	23981.13
499.20	24348.59
499.38	24374.34
499.56	24400.08
499.73	24900.96
499.91	24411.79
500.08	24577.97
500.26	24737.12
500.44	24800.32
500.61	24739.46
500.79	24919.68
500.97	24950.11
501.14	25546.95
501.32	25355.02
501.49	25090.54
501.67	25418.22
501.84	25458.01
502.02	25542.27
502.20	25493.12
502.37	26003.35
502.55	25813.77
502.72	25584.40
502.90	25811.43
503.07	26136.76
503.25	26174.21
503.43	26394.22
503.60	26724.24
503.78	26548.70
503.95	26834.24
504.13	26541.68
504.30	26632.96
504.48	26766.37
504.65	26670.40
504.83	27222.77
505.01	27232.13
505.18	27243.84
505.36	27201.71
505.53	27517.68
505.71	27615.98
505.88	27819.61
506.06	27016.80
506.23	27782.16
506.41	27424.06
506.58	27592.58
506.76	27955.36
506.93	28002.17
507.11	28224.52
507.28	28507.72
507.46	28287.71
507.63	28140.26
507.81	28379.00
507.98	28374.31
508.16	28861.15
508.33	28599.01
508.50	28943.06
508.68	28528.79
508.85	28954.77
509.03	29064.77
509.20	29106.90
509.38	29427.56
509.55	29261.38
509.73	29516.50
509.90	29549.26
510.08	29565.65
510.25	29991.62
510.42	29846.51
510.60	29771.61
510.77	29614.80
510.95	30525.27
511.12	30181.21
511.30	29958.86
511.47	30265.47
511.64	29961.20
511.82	30813.15
511.99	30110.99
512.17	30342.70
512.34	30457.39
512.51	30857.62
512.69	30969.97
512.86	30728.89
513.04	31260.20
513.21	31187.64
513.38	31257.85
513.56	31503.61
513.73	31136.15
513.90	31435.74
514.08	31290.62
514.25	31578.51
514.43	31824.26
514.60	31716.60
514.77	31765.75
514.95	31452.12
515.12	31814.90
515.29	31842.99
515.47	32201.09
515.64	32053.64
515.81	31826.60
515.99	32240.88
516.16	32437.48
516.33	32510.04
516.51	32849.42
516.68	32465.57
516.85	32463.23
517.03	32673.88
517.20	32802.61
517.37	33165.39
517.54	32683.24
517.72	32746.44
517.89	32996.87
518.06	33158.37
518.24	32826.01
518.41	33242.63
518.58	33139.65
518.75	33422.85
518.93	33408.81
519.10	33516.47
519.27	33930.75
519.45	33841.81
519.62	33703.71
519.79	33951.81
519.96	33916.70
520.14	34066.50
520.31	34279.49
520.48	33937.77
520.65	34068.84
520.83	34237.36
521.00	34457.37
521.17	34389.49
521.34	34899.73
521.52	34677.38
521.69	34660.99
521.86	34660.99
522.03	34555.67
522.20	34946.54
522.38	35447.41
522.55	34815.47
522.72	34735.89
522.89	35051.86
523.07	35515.29
523.24	35597.21
523.41	35641.68
523.58	35269.53
523.75	35683.81
523.92	35704.87
524.10	35629.98
524.27	35534.01
524.44	35828.92
524.61	36023.19
524.78	35805.52
524.96	36032.55
525.13	36165.96
525.30	36400.01
525.47	36201.07
525.64	35915.52
525.81	36594.28
525.98	36666.83
526.16	36772.16
526.33	36486.61
526.50	36622.36
526.67	36346.18
526.84	36715.98
527.01	36804.92
527.18	37081.11
527.36	36673.85
527.53	37209.84
527.70	37600.71
527.87	37376.01
528.04	37186.43
528.21	37230.90
528.38	37361.97
528.55	37481.34
528.72	37046.00
528.89	37361.97
529.07	37394.74
529.24	37310.48
529.41	37996.26
529.58	37617.09
529.75	37301.12
529.92	37837.10
530.09	37546.87
530.26	37619.43
530.43	37940.08
530.60	37455.59
530.77	37640.50
530.94	38117.96
531.11	37970.51
531.28	38146.05
531.46	38302.87
531.63	38274.78
531.80	38202.22
531.97	38384.79
532.14	38565.01
532.31	38560.33
532.48	38576.71
532.65	38424.57
532.82	38604.80
532.99	38728.84
533.16	38883.32
533.33	38979.28
533.50	39026.09
533.67	38960.56
533.84	38656.29
534.01	39302.28
534.18	39037.80
534.35	39868.69
534.52	38979.28
534.69	39267.17
534.86	39620.59
535.03	39529.31
535.20	39255.46
535.37	39868.69
535.54	40048.91
535.71	39690.80
535.88	39842.94
536.05	39473.13
536.22	39929.54
536.38	39737.62
536.55	39803.15
536.72	39943.58
536.89	39735.27
537.06	40009.12
537.23	40219.77
537.40	39576.12
537.57	39576.12
537.74	39871.03
537.91	40112.10
538.08	39859.32
538.25	39803.15
538.42	40428.07
538.59	40493.61
538.75	40318.07
538.92	40718.30
539.09	40561.48
539.26	40261.90
539.43	40732.34
539.60	40603.61
539.77	40807.24
539.94	40924.27
540.11	40596.59
540.28	41090.44
540.44	40697.24
540.61	40760.43
540.78	41041.29
540.95	40741.71
541.12	40753.41
541.29	41020.23
541.46	41319.82
541.62	41333.86
541.79	41663.88
541.96	40882.14
542.13	41097.47
542.30	41469.61
542.47	41715.37
542.63	41394.71
542.80	41825.37
542.97	41443.87
543.14	41968.15
543.31	42117.94
543.48	41888.57
543.64	42557.96
543.81	42302.84
543.98	42005.59
544.15	42134.32
544.32	42040.70
544.48	42445.62
544.65	42036.02
544.82	42251.35
544.99	42220.92
545.16	42426.89
545.32	41848.78
545.49	42714.78
545.66	42822.44
545.83	42471.36
546.00	42871.59
546.16	43079.90
546.33	42667.97
546.50	42148.37
546.67	42733.50
546.83	42291.14
547.00	42703.07
547.17	42761.59
547.34	42885.64
547.50	43185.22
547.67	43005.00
547.84	42838.83
548.00	42955.85
548.17	43243.74
548.34	43704.82
548.51	43379.49
548.67	43112.67
548.84	43328.00
549.01	43381.83
549.18	43672.06
549.34	43325.66
549.51	43278.85
549.68	43426.30
549.84	43370.13
550.01	43349.06
550.18	43477.79
550.34	43765.68
550.51	43739.93
550.68	43873.34
550.84	43571.41
551.01	43835.89
551.18	43707.16
551.34	44254.85
551.51	44154.21
551.68	44083.99
551.84	43826.53
552.01	43943.56
552.18	44182.29
552.34	43971.64
552.51	43782.06
552.68	44100.37
552.84	44343.79
553.01	44144.84
553.18	44137.82
553.34	44486.56
553.51	44486.56
553.67	44254.85
553.84	44641.04
554.01	44470.18
554.17	44439.75
554.34	44519.33
554.51	44999.14
554.67	44828.28
554.84	44774.45
555.00	44650.40
555.17	44650.40
555.33	44708.91
555.50	44919.56
555.67	44563.80
555.83	44868.07
556.00	44779.13
556.16	45301.07
556.33	45081.06
556.50	44818.92
556.66	44959.35
556.83	44671.46
556.99	45422.78
557.16	45144.25
557.32	45205.11
557.49	45462.57
557.65	45153.62
557.82	45298.73
557.98	45083.40
558.15	45291.71
558.32	45581.93
558.48	45043.61
558.65	45268.30
558.81	45064.67
558.98	45441.50
559.14	45432.14
559.31	45434.48
559.47	45511.72
559.64	45298.73
559.80	45425.12
559.97	45752.79
560.13	45404.05
560.30	45492.99
560.46	46120.26
560.63	45434.48
560.79	46195.15
560.96	45944.72
561.12	46017.27
561.29	46066.42
561.45	45827.69
561.61	45815.99
561.78	45909.61
561.94	45820.67
562.11	46071.10
562.27	45705.98
562.44	45450.86
562.60	46178.77
562.77	45893.22
562.93	45914.29
563.10	46300.48
563.26	45970.46
563.42	46291.12
563.59	45708.32
563.75	46373.03
563.92	45933.01
564.08	45666.19
564.24	46628.15
564.41	46120.26
564.57	46401.12
564.74	46220.90
564.90	46232.60
565.07	46171.75
565.23	46017.27
565.39	46454.95
565.56	46564.96
565.72	46185.79
565.88	45961.10
566.05	46164.73
566.21	46576.66
566.38	46064.08
566.54	46312.18
566.70	46323.88
566.87	46646.88
567.03	46024.29
567.19	46642.20
567.36	46490.06
567.52	46508.79
567.68	46476.02
567.85	46614.11
568.01	46960.51
568.17	46120.26
568.34	47178.18
568.50	46003.23
568.66	46286.43
568.83	46782.63
568.99	46649.22
569.15	46637.51
569.32	46595.38
569.48	46714.75
569.64	46887.95
569.81	46733.48
569.97	46831.78
570.13	47136.05
570.30	46272.39
570.46	46714.75
570.62	46738.16
570.78	46677.30
570.95	46871.57
571.11	47107.96
571.27	46967.53
571.43	47009.66
571.60	46616.45
571.76	46663.26
571.92	46508.79
572.09	46415.16
572.25	46632.83
572.41	46485.38
572.57	46520.49
572.74	47007.32
572.90	47131.37
573.06	46780.29
573.22	47140.73
573.38	46932.42
573.55	47236.69
573.71	47812.46
573.87	47239.03
574.03	47051.79
574.20	47426.28
574.36	47522.24
574.52	47037.75
574.68	47051.79
574.84	47288.18
575.01	47232.01
575.17	47227.33
575.33	47288.18
575.49	46869.23
575.65	47056.47
575.82	47168.82
575.98	47079.88
576.14	47049.45
576.30	47232.01
576.46	47021.36
576.62	47358.40
576.79	46983.91
576.95	46976.89
577.11	47159.45
577.27	46698.37
577.43	47402.87
577.59	47356.06
577.75	47021.36
577.92	47292.86
578.08	47105.62
578.24	47033.07
578.40	47459.04
578.56	47393.51
578.72	47154.77
578.88	47068.17
579.04	47611.18
579.21	46810.71
579.37	47236.69
579.53	47929.49
579.69	47019.02
579.85	46918.38
580.01	47203.92
580.17	47288.18
580.33	47435.64
580.49	47604.16
580.65	47578.41
580.82	46962.85
580.98	47173.50
581.14	46848.16
581.30	47395.85
581.46	47461.38
581.62	47072.85
581.78	47019.02
581.94	47639.26
582.10	47655.65
582.26	47386.49
582.42	47295.21
582.58	47531.60
582.74	47529.26
582.90	47224.99
583.06	47309.25
583.22	47196.90
583.38	47320.95
583.54	47393.51
583.70	47636.92
583.86	47550.32
584.02	47339.68
584.18	47725.86
584.34	47510.53
584.50	47777.36
584.66	47665.01
584.82	47613.52
584.98	47732.89
585.14	47679.05
585.30	47452.02
585.46	47435.64
585.62	47117.32
585.78	47545.64
585.94	47171.16
586.10	47943.53
586.26	47440.32
586.42	47583.09
586.58	47489.47
586.74	47281.16
586.90	47782.04
587.06	47381.80
587.22	47437.98
587.38	47159.45
587.54	47702.46
587.70	47859.27
587.86	47707.14
588.02	47461.38
588.18	47868.64
588.34	47419.25
588.49	47447.34
588.65	47667.35
588.81	47683.73
588.97	47580.75
589.13	47370.10
589.29	47906.08
589.45	48231.42
589.61	47849.91
589.77	47927.15
589.93	47817.14
590.08	47775.02
590.24	47756.29
590.40	48182.27
590.56	48301.64
590.72	47882.68
590.88	47992.68
591.04	47524.58
591.20	48020.77
591.35	48058.22
591.51	48142.48
591.67	47866.30
591.83	48226.74
591.99	47980.98
592.15	47810.12
592.31	47938.85
592.46	47863.96
592.62	47978.64
592.78	48069.92
592.94	48154.18
593.10	48261.85
593.26	48285.25
593.41	48531.01
593.57	48051.20
593.73	48371.85
593.89	48294.61
594.05	48430.36
594.20	48367.17
594.36	48102.69
594.52	48385.89
594.68	48051.20
594.84	48374.19
594.99	48093.33
595.15	47728.20
595.31	48165.88
595.47	48107.37
595.62	48079.28
595.78	47910.77
595.94	48193.97
596.10	48114.39
596.25	48322.70
596.41	48339.08
596.57	48498.24
596.73	48584.84
596.88	48264.19
597.04	48182.27
597.20	48404.62
597.36	48301.64
597.51	48325.04
597.67	48355.47
597.83	48179.93
597.99	48362.49
598.14	48191.63
598.30	48311.00
598.46	47716.50
598.61	48514.62
598.77	48446.75
598.93	48491.22
599.09	48378.87
599.24	48655.06
599.40	48355.47
599.56	48615.27
599.71	48788.47
599.87	48809.53
600.03	48814.21
600.18	48500.58
600.34	48301.64
600.50	48467.81
600.65	48353.13
600.81	48488.88
600.97	48633.99
601.12	48451.43
601.28	48631.65
601.44	48486.54
601.59	48474.84
601.75	48465.47
601.91	48795.49
602.06	48652.72
602.22	48725.27
602.37	48193.97
602.53	48556.75
602.69	48348.45
602.84	48222.06
603.00	48638.67
603.16	48264.19
603.31	48196.31
603.47	48584.84
603.62	49066.99
603.78	48952.30
603.94	48385.89
604.09	48257.17
604.25	48156.52
604.40	48238.44
604.56	48360.15
604.71	48528.67
604.87	48329.72
605.03	47803.10
605.18	48182.27
605.34	48659.74
605.49	48149.50
605.65	48570.80
605.80	48453.77
605.96	48638.67
606.12	48425.68
606.27	48531.01
606.43	48128.44
606.58	48502.92
606.74	47786.72
606.89	48275.89
607.05	48376.53
607.20	48353.13
607.36	48109.71
607.51	48362.49
607.67	47856.93
607.82	48404.62
607.98	48004.39
608.13	47892.04
608.29	48135.46
608.44	48126.10
608.60	48034.81
608.75	47861.61
608.91	48107.37
609.06	48053.54
609.22	48374.19
609.37	48224.40
609.53	48205.67
609.68	48425.68
609.84	47800.76
609.99	48360.15
610.15	48451.43
610.30	48222.06
610.46	48301.64
610.61	48079.28
610.76	48123.75
610.92	47576.07
611.07	47690.76
611.23	48088.65
611.38	47950.56
611.54	48055.88
611.69	47922.47
611.84	47988.00
612.00	47789.06
612.15	48168.22
612.31	47868.64
612.46	47482.45
612.62	47955.24
612.77	48177.59
612.92	47997.37
613.08	48051.20
613.23	47784.38
613.39	48020.77
613.54	47672.03
613.69	47828.85
613.85	47782.04
614.00	47789.06
614.15	47824.17
614.31	47526.92
614.46	47599.47
614.62	47133.71
614.77	47842.89
614.92	47540.96
615.08	47728.20
615.23	47688.42
615.38	47833.53
615.54	47753.95
615.69	47786.72
615.84	47533.94
616.00	48090.99
616.15	47688.42
616.30	47709.48
616.46	47498.83
616.61	47681.39
616.76	47683.73
616.92	47334.99
617.07	47487.13
617.22	47475.43
617.37	47019.02
617.53	47262.44
617.68	47402.87
617.83	47445.00
617.99	47456.70
618.14	48215.04
618.29	47248.39
618.45	47325.63
618.60	46941.78
618.75	46946.47
618.90	46862.21
619.06	47075.19
619.21	47089.24
619.36	47187.54
619.51	47192.22
619.67	46997.96
619.82	47112.64
619.97	47302.23
620.12	46841.14
620.28	47110.30
620.43	47365.42
620.58	47044.77
620.73	46880.93
620.89	47599.47
621.04	46918.38
621.19	47147.75
621.34	46916.04
621.49	46408.14
621.65	47033.07
621.80	47278.82
621.95	47075.19
622.10	47119.66
622.25	46777.95
622.41	46330.90
622.56	46476.02
622.71	47119.66
622.86	47290.52
623.01	46782.63
623.16	46571.98
623.32	46801.35
623.47	46911.36
623.62	47058.81
623.77	46904.34
623.92	46569.64
624.07	46766.24
624.23	46382.40
624.38	46742.84
624.53	46939.44
624.68	46595.38
624.83	46534.53
624.98	46698.37
625.13	46099.19
625.29	46518.15
625.44	46373.03
625.59	46391.76
625.74	46431.55
625.89	46569.64
626.04	45916.63
626.19	46646.88
626.34	45727.05
626.49	46122.60
626.65	45890.88
626.80	45806.62
626.95	45888.54
627.10	45851.09
627.25	46281.75
627.40	46136.64
627.55	46089.83
627.70	45923.65
627.85	46230.26
628.00	46284.09
628.15	46197.49
628.30	45539.80
628.45	45628.74
628.60	45558.53
628.76	45661.51
628.91	45771.52
629.06	45617.04
629.21	45326.81
629.36	45598.32
629.51	46024.29
629.66	45958.76
629.81	45874.50
629.96	45549.17
630.11	45329.16
630.26	45347.88
630.41	45109.14
630.56	45326.81
630.71	45722.37
630.86	45385.33
631.01	44961.69
631.16	45067.02
631.31	45617.04
631.46	45305.75
631.61	45387.67
631.76	45523.42
631.91	45705.98
632.06	45972.80
632.21	45132.55
632.36	45354.90
632.51	44961.69
632.66	45574.91
632.81	45132.55
632.96	45303.41
633.10	44924.24
633.25	45111.49
633.40	45069.36
633.55	45425.12
633.70	45251.92
633.85	45116.17
634.00	44769.77
634.15	44870.41
634.30	45258.94
634.45	45088.08
634.60	45289.37
634.75	45268.30
634.90	44744.02
635.05	45296.39
635.19	44568.48
635.34	44978.07
635.49	45059.99
635.64	44933.60
635.79	44907.86
635.94	45069.36
636.09	44877.43
636.24	44741.68
636.39	45010.84
636.53	44601.25
636.68	44224.42
636.83	44575.50
636.98	43976.33
637.13	44421.03
637.28	44282.94
637.43	44245.49
637.57	44332.09
637.72	44318.04
637.87	44168.25
638.02	44561.46
638.17	44109.74
638.32	44399.96
638.46	43861.64
638.61	44058.24
638.76	44332.09
638.91	44243.15
639.06	44332.09
639.20	43548.01
639.35	43618.22
639.50	43840.57
639.65	44119.10
639.80	44156.55
639.94	44266.55
640.09	44067.61
640.24	43871.00
640.39	43650.99
640.54	43388.85
640.68	43852.28
640.83	44168.25
640.98	43707.16
641.13	43693.12
641.27	43838.23
641.42	43896.75
641.57	44004.41
641.72	44034.84
641.86	44067.61
642.01	43435.66
642.16	43650.99
642.31	43395.87
642.45	43620.56
642.60	43381.83
642.75	43320.98
642.90	43674.40
643.04	43985.69
643.19	43550.35
643.34	43573.75
643.48	43288.21
643.63	43030.75
643.78	43222.67
643.93	43669.72
644.07	43466.09
644.22	43433.32
644.37	43056.50
644.51	43243.74
644.66	43421.62
644.81	43377.15
644.95	43529.28
645.10	43239.06
645.25	42981.60
645.39	42967.55
645.54	43058.84
645.69	43051.81
645.83	42906.70
645.98	42590.73
646.13	42344.97
646.27	42754.57
646.42	42506.47
646.57	42895.00
646.71	42799.04
646.86	43026.07
647.00	42895.00
647.15	42635.20
647.30	42506.47
647.44	42895.00
647.59	42672.65
647.74	42464.34
647.88	42686.69
648.03	42906.70
648.17	43117.35
648.32	43091.60
648.47	42897.34
648.61	42955.85
648.76	42642.22
648.90	42492.43
649.05	42724.14
649.20	42181.13
649.34	42574.34
649.49	42438.59
649.63	43117.35
649.78	42572.00
649.92	42824.78
650.07	42930.11
650.21	42330.93
650.36	42539.24
650.51	42639.88
650.65	42684.35
650.80	42361.36
650.94	42391.78
651.09	41546.85
651.23	41881.55
651.38	42124.96
651.52	41881.55
651.67	42270.08
651.81	42043.04
651.96	42043.04
652.10	41977.51
652.25	41928.36
652.39	41827.71
652.54	42277.10
652.68	41970.49
652.83	42220.92
652.97	42061.77
653.12	41766.86
653.26	41797.29
653.41	41773.88
653.55	42344.97
653.70	42000.91
653.84	42122.62
653.99	41703.67
654.13	41565.57
654.27	41848.78
654.42	42103.90
654.56	41537.49
654.71	41933.04
654.85	41560.89
655.00	41736.43
655.14	41682.60
655.29	41638.13
655.43	41666.22
655.57	41097.47
655.72	41027.25
655.86	41261.30
656.01	41170.02
656.15	41200.45
656.30	41263.64
656.44	41233.22
656.58	41301.09
656.73	40755.75
656.87	40673.83
657.01	41060.02
657.16	41373.65
657.30	41284.71
657.45	40896.18
657.59	41193.43
657.73	40664.47
657.88	40765.11
658.02	40779.15
658.16	41331.52
658.31	40818.94
658.45	40999.16
658.60	40517.01
658.74	40947.67
658.88	40622.34
659.03	40605.95
659.17	40804.90
659.31	40603.61
659.46	40711.28
659.60	40678.51
659.74	40081.67
659.89	40245.51
660.03	40016.14
660.17	40264.24
660.32	39922.52
660.46	40027.84
660.60	39941.24
660.74	40327.43
660.89	40327.43
661.03	39620.59
661.17	39924.86
661.32	39817.19
661.46	40039.54
661.60	39569.10
661.74	39892.09
661.89	39285.89
662.03	39445.05
662.17	39065.88
662.31	39454.41
662.46	39470.79
662.60	39510.58
662.74	39016.73
662.88	39005.03
663.03	39449.73
663.17	38925.45
663.31	38845.87
663.45	39026.09
663.60	39426.32
663.74	38653.95
663.88	39150.14
664.02	38682.03
664.17	39365.47
664.31	38693.74
664.45	38864.60
664.59	38815.44
664.73	38480.75
664.88	38485.43
665.02	38410.53
665.16	37963.49
665.30	38583.73
665.44	38443.30
665.59	38000.94
665.73	37610.07
665.87	37691.99
666.01	38192.86
666.15	38106.26
666.29	37975.19
666.44	38066.47
666.58	37951.79
666.72	37811.35
666.86	37787.95
667.00	37673.26
667.14	37404.10
667.28	37654.54
667.43	37818.38
667.57	37439.21
667.71	37722.41
667.85	37907.32
667.99	37794.97
668.13	37368.99
668.27	37198.13
668.41	37062.38
668.56	36671.51
668.70	36985.15
668.84	36416.40
668.98	36746.41
669.12	37284.73
669.26	37031.96
669.40	37048.34
669.54	36870.46
669.68	36353.20
669.82	36884.50
669.96	36194.04
670.10	36423.42
670.25	36495.97
670.39	36261.92
670.53	36676.19
670.67	36598.96
670.81	36444.48
670.95	36378.95
671.09	36009.14
671.23	35718.92
671.37	35936.59
671.51	35995.10
671.65	35732.96
671.79	35814.88
671.93	35807.86
672.07	35707.21
672.21	35538.69
672.35	35150.17
672.49	35536.35
672.63	35033.14
672.77	35049.52
672.91	35442.73
673.05	35508.27
673.19	35194.64
673.33	34834.19
673.47	34628.23
673.61	34607.16
673.75	34511.20
673.89	34457.37
674.03	34567.37
674.17	34199.91
674.31	34253.74
674.45	33930.75
674.59	34305.23
674.73	34000.96
674.87	33790.31
675.01	33706.05
675.15	33525.83
675.29	33532.86
675.43	33460.30
675.56	33596.05
675.70	33387.74
675.84	33315.19
675.98	32165.98
676.12	33521.15
676.26	33441.57
676.40	32793.25
676.54	32760.48
676.68	32919.63
676.82	32498.34
676.96	32659.84
677.10	32807.29
677.23	32390.67
677.37	32783.88
677.51	31945.97
677.65	32414.08
677.79	32503.02
677.93	31978.74
678.07	32088.74
678.21	31798.52
678.34	31644.04
678.48	31838.31
678.62	31967.04
678.76	31711.92
678.90	31096.36
679.04	31079.97
679.18	31344.45
679.31	31302.32
679.45	31199.34
679.59	30412.92
679.73	30848.26
679.87	30808.47
680.00	30569.74
680.14	30670.38
680.28	30569.74
680.42	30745.28
680.56	30235.04
680.70	30209.29
680.83	29930.77
680.97	29715.44
681.11	30064.18
681.25	29724.80
681.39	29284.78
681.52	29455.64
681.66	29268.40
681.80	29088.18
681.94	28772.21
682.07	28816.68
682.21	28912.64
682.35	28629.43
682.49	29041.37
682.62	28844.76
682.76	28875.19
682.90	28767.52
683.04	28479.64
683.17	28423.47
683.31	28095.79
683.45	28257.29
683.59	27957.70
683.72	27744.71
683.86	27585.55
684.00	28002.17
684.13	27688.54
684.27	27491.93
684.41	27463.85
684.55	27435.76
684.68	27185.32
684.82	27435.76
684.96	27178.30
685.09	27229.79
685.23	27171.28
685.37	27360.86
685.50	27482.57
685.64	26625.93
685.78	26831.90
685.91	26494.86
686.05	26265.49
686.19	25820.79
686.32	25970.58
686.46	25834.83
686.60	25455.67
686.73	25729.51
686.87	25717.81
687.01	25568.01
687.14	25898.03
687.28	25565.67
687.42	25324.60
687.55	25469.71
687.69	25249.70
687.82	25298.85
687.96	25111.61
688.10	24765.21
688.23	24903.30
688.37	25036.71
688.50	24748.82
688.64	24718.40
688.78	24641.16
688.91	24056.03
689.05	24159.01
689.18	24133.26
689.32	23789.20
689.46	23784.52
689.59	24336.89
689.73	23854.74
689.86	24168.37
690.00	23754.10
690.13	23805.59
690.27	23269.61
690.41	23517.70
690.54	23271.95
690.68	23566.85
690.81	23302.37
690.95	22789.80
691.08	22764.05
691.22	22707.88
691.35	22569.79
691.49	23138.54
691.62	22909.16
691.76	21804.43
691.89	22419.99
692.03	22118.06
692.16	21893.37
692.30	21799.75
692.43	21785.71
692.57	21717.83
692.70	21895.71
692.84	21706.13
692.97	21771.66
693.11	21481.44
693.24	21366.75
693.38	21109.29
693.51	21125.68
693.65	20655.23
693.78	20989.92
693.92	20559.27
694.05	20952.48
694.19	20486.71
694.32	20868.22
694.45	20992.26
694.59	20638.84
694.72	20847.15
694.86	20343.94
694.99	20184.78
695.13	20292.44
695.26	19999.88
695.39	19768.16
695.53	19702.63
695.66	20060.73
695.80	19672.20
695.93	19508.37
696.07	19264.95
696.20	18941.96
696.33	19042.60
696.47	19047.28
696.60	19264.95
696.73	19185.37
696.87	19215.80
697.00	19030.90
697.14	18480.87
697.27	18633.00
697.40	18721.95
697.54	18410.65
697.67	18527.68
697.80	18581.51
697.94	18235.11
698.07	18370.86
698.21	18017.44
698.34	18153.20
698.47	17685.09
698.61	17607.85
698.74	17575.08
698.87	17598.49
699.01	17549.34
699.14	17781.05
699.27	17427.63
699.40	17319.96
699.54	17373.80
699.67	17357.41
699.80	17458.06
699.94	17165.49
700.07	17256.77
700.20	17043.78
700.34	16704.40
700.47	16805.05
700.60	16727.81
700.73	16526.52
700.87	16329.92
701.00	16439.92
701.13	16365.03
701.26	16201.19
701.40	16035.01
701.53	16187.14
701.66	16273.74
701.79	15894.58
701.93	15819.68
702.06	15421.79
702.19	15396.04
702.32	15747.12
702.46	15569.24
702.59	15779.89
702.72	15714.36
702.85	15632.44
702.99	15295.40
703.12	15030.92
703.25	15077.73
703.38	15241.57
703.51	15169.01
703.65	14703.25
703.78	14850.70
703.91	14457.49
704.04	14590.90
704.17	14331.10
704.31	14623.67
704.44	14480.89
704.57	14307.69
704.70	14317.06
704.83	14188.33
704.96	13914.48
705.10	13947.25
705.23	13891.08
>>>>>End Processed Spectral Data<<<<<
