SpectraSuite Data File
++++++++++++++++++++++++++++++++++++
Date: Fri Oct 25 10:48:06 EDT 2013
User: price-jones
Dark Spectrum Present: No
Reference Spectrum Present: No
Number of Sampled Component Spectra: 1
Spectrometers: USB2+H05261
Integration Time (usec): 100000 (USB2+H05261)
Spectra Averaged: 1 (USB2+H05261)
Boxcar Smoothing: 0 (USB2+H05261)
Correct for Electrical Dark: No (USB2+H05261)
Strobe/Lamp Enabled: No (USB2+H05261)
Correct for Detector Non-linearity: No (USB2+H05261)
Correct for Stray Light: No (USB2+H05261)
Number of Pixels in Processed Spectrum: 2048
>>>>>Begin Processed Spectral Data<<<<<
365.73	135.75
365.92	135.75
366.12	135.75
366.32	42.13
366.52	56.17
366.72	25.75
366.91	23.41
367.11	0.00
367.31	16.38
367.51	79.58
367.70	37.45
367.90	0.00
368.10	39.79
368.30	95.96
368.49	53.83
368.69	70.22
368.89	30.43
369.09	63.19
369.28	53.83
369.48	145.11
369.68	35.11
369.87	107.66
370.07	175.54
370.27	184.90
370.47	301.93
370.66	341.72
370.86	421.30
371.06	400.23
371.25	423.64
371.45	374.49
371.65	465.77
371.84	475.13
372.04	428.32
372.24	573.43
372.44	482.15
372.63	409.59
372.83	465.77
373.03	465.77
373.22	449.38
373.42	465.77
373.62	444.70
373.81	493.85
374.01	599.18
374.21	454.06
374.40	486.83
374.60	559.39
374.79	545.34
374.99	531.30
375.19	547.69
375.38	587.47
375.58	521.94
375.78	582.79
375.97	568.75
376.17	641.31
376.37	566.41
376.56	636.63
376.76	580.45
376.95	503.22
377.15	631.94
377.35	620.24
377.54	603.86
377.74	631.94
377.93	650.67
378.13	601.52
378.33	587.47
378.52	585.13
378.72	603.86
378.91	669.39
379.11	631.94
379.31	538.32
379.50	610.88
379.70	713.86
379.89	669.39
380.09	622.58
380.28	599.18
380.48	648.33
380.68	725.57
380.87	629.60
381.07	697.48
381.26	730.25
381.46	650.67
381.65	690.46
381.85	741.95
382.04	638.97
382.24	681.10
382.43	741.95
382.63	643.65
382.83	755.99
383.02	671.73
383.22	695.14
383.41	699.82
383.61	713.86
383.80	650.67
384.00	755.99
384.19	772.38
384.39	751.31
384.58	809.83
384.78	737.27
384.97	669.39
385.17	760.67
385.36	833.23
385.56	791.10
385.75	753.65
385.95	763.01
386.14	777.06
386.34	814.51
386.53	746.63
386.72	751.31
386.92	765.36
387.11	758.33
387.31	786.42
387.50	809.83
387.70	711.52
387.89	828.55
388.09	873.02
388.28	821.53
388.48	772.38
388.67	945.58
388.86	880.04
389.06	884.72
389.25	821.53
389.45	905.79
389.64	931.53
389.84	866.00
390.03	898.77
390.22	983.02
390.42	870.68
390.61	924.51
390.81	1006.43
391.00	997.07
391.19	973.66
391.39	936.21
391.58	898.77
391.78	929.19
391.97	887.06
392.16	854.30
392.36	983.02
392.55	976.00
392.75	936.21
392.94	954.94
393.13	950.26
393.33	898.77
393.52	929.19
393.71	1032.18
393.91	1076.65
394.10	1034.52
394.29	1048.56
394.49	1034.52
394.68	1060.26
394.88	1097.71
395.07	1128.14
395.26	1067.28
395.46	1086.01
395.65	1109.41
395.84	1149.20
396.04	1156.22
396.23	1104.73
396.42	1060.26
396.62	1081.33
396.81	1130.48
397.00	1088.35
397.19	1163.25
397.39	1177.29
397.58	1233.46
397.77	1196.01
397.97	1343.47
398.16	1207.72
398.35	1252.19
398.55	1301.34
398.74	1287.29
398.93	1401.98
399.12	1324.74
399.32	1320.06
399.51	1320.06
399.70	1394.96
399.90	1338.79
400.09	1411.34
400.28	1409.00
400.47	1233.46
400.67	1357.51
400.86	1441.77
401.05	1479.22
401.24	1409.00
401.44	1444.11
401.63	1383.26
401.82	1474.54
402.01	1432.41
402.21	1509.65
402.40	1458.15
402.59	1439.43
402.78	1476.88
402.97	1514.33
403.17	1610.29
403.36	1504.96
403.55	1568.16
403.74	1570.50
403.93	1619.65
404.13	1621.99
404.32	1668.80
404.51	1549.43
404.70	1717.95
404.89	1521.35
405.09	1673.48
405.28	1664.12
405.47	1652.42
405.66	1661.78
405.85	1748.38
406.05	1631.35
406.24	1827.96
406.43	1661.78
406.62	1806.89
406.81	1849.02
407.00	1827.96
407.20	1820.94
407.39	1781.15
407.58	1874.77
407.77	1860.73
407.96	1858.39
408.15	1916.90
408.34	1877.11
408.54	1952.01
408.73	1888.81
408.92	1940.30
409.11	1944.99
409.30	2017.54
409.49	2003.50
409.68	2026.90
409.87	1980.09
410.07	2087.76
410.26	2036.27
410.45	2003.50
410.64	2090.10
410.83	2160.31
411.02	2097.12
411.21	2214.15
411.40	2204.78
411.59	2204.78
411.78	2328.83
411.98	2080.74
412.17	2312.45
412.36	2303.09
412.55	2347.56
412.74	2410.75
412.93	2389.69
413.12	2335.85
413.31	2595.65
413.50	2363.94
413.69	2527.78
413.88	2495.01
414.07	2485.65
414.26	2525.44
414.45	2726.72
414.64	2530.12
414.83	2593.31
415.02	2602.68
415.22	2665.87
415.41	2693.96
415.60	2736.09
415.79	2700.98
415.98	2813.32
416.17	2722.04
416.36	2708.00
416.55	2853.11
416.74	2864.82
416.93	3042.70
417.12	2878.86
417.31	2792.26
417.50	2977.16
417.69	2965.46
417.88	2970.14
418.07	2853.11
418.26	3026.31
418.45	3049.72
418.64	3143.34
418.83	3038.02
419.02	3110.57
419.21	3215.90
419.39	3101.21
419.58	3073.12
419.77	3192.49
419.96	3229.94
420.15	3138.66
420.34	3302.50
420.53	3255.69
420.72	3391.44
420.91	3386.76
421.10	3265.05
421.29	3295.47
421.48	3344.63
421.67	3389.10
421.86	3353.99
422.05	3368.03
422.24	3337.60
422.43	3358.67
422.61	3417.18
422.80	3389.10
422.99	3328.24
423.18	3552.93
423.37	3452.29
423.56	3485.06
423.75	3363.35
423.94	3475.70
424.13	3201.85
424.32	3304.84
424.50	3475.70
424.69	3520.17
424.88	3487.40
425.07	3515.48
425.26	3225.26
425.45	3487.40
425.64	3499.10
425.83	3585.70
426.01	3482.72
426.20	3475.70
426.39	3531.87
426.58	3473.36
426.77	3595.06
426.96	3672.30
427.15	3456.97
427.33	3571.66
427.52	3609.11
427.71	3726.13
427.90	3770.60
428.09	3524.85
428.28	3761.24
428.46	3665.28
428.65	3627.83
428.84	3768.26
429.03	3838.48
429.22	3702.73
429.40	3772.94
429.59	3786.99
429.78	3644.21
429.97	3616.13
430.16	3822.09
430.34	3765.92
430.53	3758.90
430.72	3770.60
430.91	3829.12
431.10	3866.56
431.28	4159.13
431.47	4042.11
431.66	4170.83
431.85	3922.74
432.03	4152.11
432.22	4121.68
432.41	4121.68
432.60	4166.15
432.79	4070.19
432.97	4215.30
433.16	4109.98
433.35	4168.49
433.54	4234.03
433.72	4100.62
433.91	4236.37
434.10	4145.09
434.28	4259.78
434.47	4173.18
434.66	4210.62
434.85	4351.06
435.03	4341.69
435.22	4409.57
435.41	4489.15
435.59	4379.14
435.78	4287.86
435.97	4280.84
436.16	4479.79
436.34	4475.10
436.53	4535.96
436.72	4589.79
436.90	4585.11
437.09	4669.37
437.28	4428.29
437.46	4592.13
437.65	4711.50
437.84	4739.58
438.02	4638.94
438.21	4723.20
438.40	4571.07
438.58	4802.78
438.77	4660.01
438.96	4816.82
439.14	4954.91
439.33	4908.10
439.52	4884.70
439.70	4917.47
439.89	4901.08
440.08	5095.35
440.26	5177.26
440.45	5181.95
440.63	5032.15
440.82	5219.39
441.01	5252.16
441.19	5320.04
441.38	5383.23
441.57	5411.32
441.75	5425.36
441.94	5481.53
442.12	5439.40
442.31	5556.43
442.50	5713.25
442.68	5561.11
442.87	5528.35
443.05	5701.54
443.24	5671.12
443.43	5579.84
443.61	5720.27
443.80	5713.25
443.98	5624.31
444.17	5399.62
444.35	5844.32
444.54	5755.38
444.73	5741.33
444.91	5776.44
445.10	5575.16
445.28	5680.48
445.47	5526.00
445.65	5640.69
445.84	5874.74
446.02	5783.46
446.21	5811.55
446.39	5699.20
446.58	5816.23
446.77	5975.39
446.95	5636.01
447.14	5748.36
447.32	6031.56
447.51	5980.07
447.69	5743.67
447.88	5954.32
448.06	5966.03
448.25	5902.83
448.43	5872.40
448.62	5942.62
448.80	5811.55
448.99	5940.28
449.17	6085.39
449.36	5996.45
449.54	6087.73
449.73	6289.02
449.91	6202.42
450.10	6303.06
450.28	6225.82
450.46	6429.45
450.65	6272.64
450.83	6384.98
451.02	6300.72
451.20	6321.79
451.39	6291.36
451.57	6305.40
451.76	6333.49
451.94	6279.66
452.13	6373.28
452.31	6310.08
452.49	6263.27
452.68	6565.20
452.86	6377.96
453.05	6420.09
453.23	6452.86
453.42	6497.33
453.60	6289.02
453.78	6651.80
453.97	6382.64
454.15	6616.69
454.34	6427.11
454.52	6768.83
454.70	6600.31
454.89	6558.18
455.07	6780.53
455.26	6740.74
455.44	6895.22
455.62	6729.04
455.81	6668.19
455.99	6773.51
456.17	6956.07
456.36	6956.07
456.54	6920.96
456.73	7077.78
456.91	7145.66
457.09	6988.84
457.28	7300.13
457.46	7030.97
457.64	7082.46
457.83	7171.40
458.01	6869.47
458.19	7382.05
458.38	7199.49
458.56	7337.58
458.74	7337.58
458.93	7265.02
459.11	7379.71
459.29	7323.54
459.48	7569.29
459.66	7412.48
459.84	7335.24
460.03	7506.10
460.21	7494.40
460.39	7588.02
460.57	7358.64
460.76	7653.55
460.94	7653.55
461.12	7665.25
461.31	7499.08
461.49	7501.42
461.67	7571.63
461.85	7875.90
462.04	7548.23
462.22	8203.58
462.40	7733.13
462.59	7634.83
462.77	7779.94
462.95	7864.20
463.13	7761.22
463.32	8077.19
463.50	7936.76
463.68	7723.77
463.86	7815.05
464.05	7988.25
464.23	8039.74
464.41	8175.49
464.59	7838.45
464.78	8098.25
464.96	8035.06
465.14	8098.25
465.32	8037.40
465.50	8294.86
465.69	8107.62
465.87	8219.96
466.05	8053.78
466.23	8224.64
466.41	8081.87
466.60	8582.74
466.78	8215.28
466.96	8257.41
467.14	8098.25
467.32	8264.43
467.51	8507.85
467.69	8243.37
467.87	8334.65
468.05	8404.86
468.23	8322.94
468.41	8552.32
468.60	8524.23
468.78	8566.36
468.96	8355.71
469.14	8477.42
469.32	8765.31
469.50	8479.76
469.69	8624.87
469.87	8622.53
470.05	8819.14
470.23	8812.12
470.41	8842.54
470.59	9067.24
470.77	8819.14
470.95	8856.59
471.14	8959.57
471.32	8877.65
471.50	9097.66
471.68	9102.34
471.86	9338.74
472.04	9160.86
472.22	9376.19
472.40	9100.00
472.58	9104.68
472.77	9205.33
472.95	9453.42
473.13	9614.92
473.31	9359.80
473.49	9465.13
473.67	9453.42
473.85	9453.42
474.03	9696.84
474.21	9837.27
474.39	9891.10
474.57	9884.08
474.75	10045.58
474.93	9825.57
475.12	9973.02
475.30	10050.26
475.48	10125.16
475.66	9954.30
475.84	10104.09
476.02	9926.21
476.20	10167.29
476.38	10230.48
476.56	10736.04
476.74	10567.52
476.92	10506.66
477.10	10700.93
477.28	10829.66
477.46	10841.36
477.64	10827.32
477.82	11126.91
478.00	11180.74
478.18	11056.69
478.36	11171.38
478.54	11389.05
478.72	11297.77
478.90	11382.03
479.08	11393.73
479.26	11705.02
479.44	11616.08
479.62	11716.72
479.80	11918.01
479.98	12187.17
480.16	12229.30
480.34	12081.85
480.52	12194.19
480.70	12217.60
480.88	12107.59
481.06	12393.14
481.24	12119.29
481.41	12559.31
481.59	12692.73
481.77	12898.69
481.95	12830.82
482.13	12966.57
482.31	12835.50
482.49	13287.22
482.67	13322.33
482.85	13542.34
483.03	13357.44
483.21	13596.17
483.39	13696.82
483.57	13624.26
483.74	13886.40
483.92	14031.51
484.10	13769.37
484.28	14377.91
484.46	14452.81
484.64	14530.05
484.82	14473.87
485.00	14427.06
485.18	14747.72
485.35	14906.87
485.53	14714.95
485.71	14839.00
485.89	15213.48
486.07	15028.58
486.25	15297.74
486.43	15234.55
486.61	15393.70
486.78	15611.37
486.96	15873.51
487.14	15943.73
487.32	16093.52
487.50	16341.62
487.68	16580.36
487.85	16631.85
488.03	16753.55
488.21	16587.38
488.39	16622.48
488.57	17092.93
488.75	17212.30
488.92	17102.29
489.10	17518.91
489.28	17434.65
489.46	17715.51
489.64	17530.61
489.81	17785.73
489.99	18104.04
490.17	18141.49
490.35	18588.53
490.53	18384.91
490.70	18471.51
490.88	18420.02
491.06	18654.07
491.24	18623.64
491.41	19157.28
491.59	18941.96
491.77	18700.88
491.95	19344.53
492.13	19197.07
492.30	19651.14
492.48	19693.27
492.66	19520.07
492.84	19709.65
493.01	19765.82
493.19	20095.84
493.37	19910.94
493.54	19999.88
493.72	20215.21
493.90	20023.28
494.08	20610.76
494.25	20910.35
494.43	20795.66
494.61	21303.56
494.79	21069.50
494.96	21135.04
495.14	21118.65
495.32	21322.28
495.49	21474.42
495.67	21855.92
495.85	21919.12
496.02	22057.21
496.20	21874.65
496.38	22005.72
496.55	22047.85
496.73	22766.39
496.91	22480.85
497.09	22492.55
497.26	22642.34
497.44	22586.17
497.62	22836.61
497.79	23295.35
497.97	22963.00
498.14	23639.41
498.32	23328.12
498.50	23290.67
498.67	23681.54
498.85	23840.70
499.03	23990.49
499.20	23845.38
499.38	23702.61
499.56	23967.09
499.73	24250.29
499.91	24046.66
500.08	24507.75
500.26	24432.85
500.44	24215.18
500.61	24451.58
500.79	24119.22
500.97	24730.10
501.14	24587.33
501.32	24912.66
501.49	24821.38
501.67	25144.38
501.84	25111.61
502.02	25230.98
502.20	25020.33
502.37	25420.56
502.55	25429.92
502.72	25254.38
502.90	25675.68
503.07	25556.31
503.25	25710.78
503.43	25813.77
503.60	26225.70
503.78	25841.85
503.95	25944.84
504.13	25975.27
504.30	26267.83
504.48	25717.81
504.65	26527.63
504.83	26246.77
505.01	26852.97
505.18	26586.15
505.36	26806.16
505.53	26967.65
505.71	26890.41
505.88	26782.75
506.06	26977.01
506.23	27185.32
506.41	26916.16
506.58	27087.02
506.76	27105.74
506.93	27850.03
507.11	27234.47
507.28	27644.07
507.46	27513.00
507.63	27669.81
507.81	27782.16
507.98	27697.90
508.16	28002.17
508.33	27901.53
508.50	28386.02
508.68	28322.82
508.85	28299.42
509.03	28271.33
509.20	28416.44
509.38	28751.14
509.55	28622.41
509.73	28662.20
509.90	28713.69
510.08	28364.95
510.25	28933.70
510.42	28882.21
510.60	29113.92
510.77	29289.46
510.95	29558.63
511.12	29415.85
511.30	29280.10
511.47	29509.47
511.64	29923.75
511.82	29790.34
511.99	29525.86
512.17	29989.28
512.34	29610.12
512.51	30036.09
512.69	30443.35
512.86	30342.70
513.04	30452.71
513.21	30267.81
513.38	30064.18
513.56	30625.91
513.73	30448.03
513.90	30443.35
514.08	30455.05
514.25	30703.15
514.43	30565.06
514.60	30864.64
514.77	30347.39
514.95	31035.50
515.12	30834.22
515.29	31211.04
515.47	31243.81
515.64	31519.99
515.81	30735.92
515.99	31349.14
516.16	31431.05
516.33	31459.14
516.51	31578.51
516.68	31101.04
516.85	31159.55
517.03	31527.02
517.20	31826.60
517.37	31630.00
517.54	32116.83
517.72	32322.80
517.89	32077.04
518.06	31985.76
518.24	31850.01
518.41	31728.30
518.58	31690.85
518.75	31840.65
518.93	32711.33
519.10	32266.63
519.27	32765.16
519.45	32835.38
519.62	32664.52
519.79	32730.05
519.96	32776.86
520.14	33046.02
520.31	33078.79
520.48	33193.48
520.65	33324.55
520.83	33256.67
521.00	33617.11
521.17	33280.08
521.34	33127.94
521.52	33935.43
521.69	34005.64
521.86	33766.91
522.03	34103.95
522.20	33722.44
522.38	33659.24
522.55	33972.88
522.72	34237.36
522.89	34029.05
523.07	34066.50
523.24	33607.75
523.41	34094.58
523.58	33902.66
523.75	34490.13
523.92	34227.99
524.10	34677.38
524.27	34469.07
524.44	34323.96
524.61	34562.69
524.78	34904.41
524.96	35164.21
525.13	34852.92
525.30	35267.19
525.47	35187.61
525.64	35168.89
525.81	35400.60
525.98	35084.63
526.16	34983.99
526.33	34740.57
526.50	35264.85
526.67	35026.12
526.84	35257.83
527.01	35316.34
527.18	35318.68
527.36	35742.32
527.53	35578.48
527.70	35878.07
527.87	36009.14
528.04	35519.97
528.21	36109.78
528.38	35679.13
528.55	35962.33
528.72	35885.09
528.89	36112.13
529.07	35887.43
529.24	36409.37
529.41	36325.11
529.58	36133.19
529.75	36385.97
529.92	36439.80
530.09	36444.48
530.26	35997.44
530.43	36982.80
530.60	36788.54
530.77	36392.99
530.94	36669.17
531.11	36058.29
531.28	37097.49
531.46	36746.41
531.63	36753.43
531.80	36748.75
531.97	36594.28
532.14	36996.85
532.31	37170.05
532.48	37179.41
532.65	37460.27
532.82	37230.90
532.99	37345.59
533.16	36931.31
533.33	37411.12
533.50	37806.67
533.67	37399.42
533.84	37305.80
534.01	37689.65
534.18	37469.64
534.35	37715.39
534.52	37495.38
534.69	37923.70
534.86	37771.57
535.03	37546.87
535.20	37708.37
535.37	38155.41
535.54	38670.33
535.71	37879.23
535.88	38497.13
536.05	38328.61
536.22	38160.09
536.38	38522.88
536.55	38244.35
536.72	38312.23
536.89	38139.03
537.06	38375.42
537.23	38249.03
537.40	38340.32
537.57	38319.25
537.74	38340.32
537.91	38934.81
538.08	38738.21
538.25	38450.32
538.42	38876.30
538.59	38778.00
538.75	38363.72
538.92	38691.40
539.09	38735.87
539.26	38974.60
539.43	38721.82
539.60	39026.09
539.77	38778.00
539.94	39222.70
540.11	38724.16
540.28	39028.43
540.44	39276.53
540.61	38637.56
540.78	39115.03
540.95	39049.50
541.12	39395.90
541.29	38897.36
541.46	39351.43
541.62	39388.88
541.79	39475.48
541.96	39171.21
542.13	39349.09
542.30	39784.43
542.47	39821.87
542.63	39566.76
542.80	39861.66
542.97	40041.88
543.14	40215.08
543.31	40203.38
543.48	40268.92
543.64	40781.49
543.81	40133.17
543.98	40371.90
544.15	40168.27
544.32	40755.75
544.48	40498.29
544.65	40477.22
544.82	40355.52
544.99	40329.77
545.16	40931.29
545.32	40395.31
545.49	40980.44
545.66	40746.39
545.83	40985.12
546.00	41027.25
546.16	40612.98
546.33	40465.52
546.50	40371.90
546.67	41308.11
546.83	40540.42
547.00	41001.50
547.17	40884.48
547.34	40718.30
547.50	41315.14
547.67	41471.95
547.84	41127.89
548.00	41516.42
548.17	41450.89
548.34	41298.75
548.51	41429.82
548.67	41528.13
548.84	41116.19
549.01	41092.79
549.18	41125.55
549.34	41174.70
549.51	41703.67
549.68	41436.84
549.84	41778.56
550.01	41813.67
550.18	41235.56
550.34	41591.32
550.51	41729.41
550.68	41404.08
550.84	41504.72
551.01	41591.32
551.18	41965.81
551.34	41610.04
551.51	41883.89
551.68	42071.13
551.84	42492.43
552.01	42005.59
552.18	41659.20
552.34	41769.20
552.51	42108.58
552.68	42209.22
552.84	42246.67
553.01	42284.12
553.18	42045.38
553.34	42188.16
553.51	42094.53
553.67	42157.73
553.84	42768.61
554.01	42443.27
554.17	42321.57
554.34	42501.79
554.51	42064.11
554.67	42616.47
554.84	42244.33
555.00	42469.02
555.17	42253.69
555.33	42572.00
555.50	42813.08
555.67	42396.46
555.83	42368.38
556.00	42721.80
556.16	42766.27
556.33	42829.46
556.50	42822.44
556.66	42733.50
556.83	42223.26
556.99	42986.28
557.16	42749.88
557.32	42871.59
557.49	42768.61
557.65	42876.27
557.82	42927.77
557.98	42670.31
558.15	43033.09
558.32	43159.48
558.48	42579.03
558.65	42717.12
558.81	42693.71
558.98	43180.54
559.14	42782.65
559.31	42869.25
559.47	43058.84
559.64	43386.51
559.80	43854.62
559.97	43545.67
560.13	43225.01
560.30	43180.54
560.46	43056.50
560.63	43243.74
560.79	43009.68
560.96	43360.76
561.12	43620.56
561.29	43515.24
561.45	43643.97
561.61	43782.06
561.78	43126.71
561.94	43210.97
562.11	43449.70
562.27	43328.00
562.44	43655.67
562.60	43548.01
562.77	43512.90
562.93	43400.55
563.10	43564.39
563.26	43353.74
563.42	43927.17
563.59	43199.27
563.75	43454.39
563.92	43931.86
564.08	43643.97
564.24	43700.14
564.41	43791.42
564.57	43627.59
564.74	43517.58
564.90	43796.10
565.07	43772.70
565.23	43662.69
565.39	43732.91
565.56	43950.58
565.72	43693.12
565.88	43393.53
566.05	43669.72
566.21	43910.79
566.38	43503.54
566.54	43852.28
566.70	44561.46
566.87	44350.81
567.03	43983.35
567.19	44259.53
567.36	43978.67
567.52	43320.98
567.68	44098.03
567.85	43395.87
568.01	43913.13
568.17	43978.67
568.34	43805.47
568.50	43892.07
568.66	44299.32
568.83	44095.69
568.99	43533.96
569.15	43856.96
569.32	44009.09
569.48	43840.57
569.64	44266.55
569.81	44154.21
569.97	43709.50
570.13	44205.70
570.30	43770.36
570.46	43578.43
570.62	43906.11
570.78	43702.48
570.95	43728.23
571.11	43772.70
571.27	44027.82
571.43	43976.33
571.60	44318.04
571.76	44163.57
571.92	44243.15
572.09	44339.11
572.25	43786.74
572.41	43693.12
572.57	44423.37
572.74	44722.96
572.90	44341.45
573.06	44037.18
573.22	44208.04
573.38	43966.96
573.55	43847.60
573.71	44491.24
573.87	44428.05
574.03	44023.14
574.20	44224.42
574.36	43973.98
574.52	44240.81
574.68	44299.32
574.84	44219.74
575.01	43952.92
575.17	44264.21
575.33	44058.24
575.49	43863.98
575.65	44538.05
575.82	44421.03
575.98	44584.86
576.14	44486.56
576.30	44540.39
576.46	44119.10
576.62	44088.67
576.79	44205.70
576.95	43533.96
577.11	44369.54
577.27	44112.08
577.43	44369.54
577.59	44069.95
577.75	44444.43
577.92	43976.33
578.08	43763.34
578.24	43842.92
578.40	44060.58
578.56	44294.64
578.72	44065.27
578.88	44320.38
579.04	44212.72
579.21	44376.56
579.37	44320.38
579.53	43988.03
579.69	44285.28
579.85	44194.00
580.01	44720.62
580.17	44374.22
580.33	44905.52
580.49	44905.52
580.65	44091.01
580.82	44732.32
580.98	44170.59
581.14	44076.97
581.30	44231.44
581.46	44191.65
581.62	44545.08
581.78	44563.80
581.94	44507.63
582.10	44165.91
582.26	44774.45
582.42	44491.24
582.58	44598.91
582.74	44039.52
582.90	44488.90
583.06	44940.63
583.22	44652.74
583.38	44690.19
583.54	44435.07
583.70	44116.76
583.86	44196.34
584.02	44133.14
584.18	44643.38
584.34	44257.19
584.50	44788.49
584.66	44418.69
584.82	44348.47
584.98	44825.94
585.14	44669.12
585.30	44732.32
585.46	44236.12
585.62	44486.56
585.78	44442.09
585.94	44442.09
586.10	44203.36
586.26	44357.83
586.42	44884.45
586.58	44753.38
586.74	44893.82
586.90	44755.72
587.06	44002.07
587.22	44573.16
587.38	44367.20
587.54	44800.19
587.70	44851.69
587.86	44598.91
588.02	44985.10
588.18	44886.79
588.34	44369.54
588.49	44863.39
588.65	44470.18
588.81	44208.04
588.97	44449.11
589.13	44465.50
589.29	44509.97
589.45	44421.03
589.61	45024.89
589.77	45158.30
589.93	44542.74
590.08	44804.88
590.24	44776.79
590.40	44945.31
590.56	45057.65
590.72	44708.91
590.88	44495.92
591.04	44837.64
591.20	44680.83
591.35	45443.84
591.51	45092.76
591.67	45148.93
591.83	44823.60
591.99	44556.78
592.15	44769.77
592.31	45001.48
592.46	44566.14
592.62	44910.20
592.78	45380.65
592.94	45003.82
593.10	44966.37
593.26	44872.75
593.41	44692.53
593.57	44783.81
593.73	44725.30
593.89	44589.55
594.05	44713.59
594.20	44603.59
594.36	44795.51
594.52	44451.45
594.68	44563.80
594.84	45036.59
594.99	45570.23
595.15	44935.95
595.31	44861.05
595.47	45055.31
595.62	44889.13
595.78	44928.92
595.94	45055.31
596.10	44729.98
596.25	44917.22
596.41	44755.72
596.57	44746.36
596.73	45380.65
596.88	44648.06
597.04	45251.92
597.20	45212.13
597.36	44851.69
597.51	44957.01
597.67	44985.10
597.83	44931.26
597.99	45003.82
598.14	44942.97
598.30	44832.96
598.46	45116.17
598.61	45401.71
598.77	44797.85
598.93	44854.03
599.09	45050.63
599.24	45137.23
599.40	45511.72
599.56	44809.56
599.71	45099.78
599.87	45448.52
600.03	45024.89
600.18	44889.13
600.34	45024.89
600.50	44715.93
600.65	44968.71
600.81	45413.41
600.97	45474.27
601.12	45209.79
601.28	45078.72
601.44	44954.67
601.59	44814.24
601.75	44706.57
601.91	45050.63
602.06	44570.82
602.22	45600.66
602.37	44793.17
602.53	45390.01
602.69	45155.96
602.84	45247.24
603.00	45104.46
603.16	45247.24
603.31	44919.56
603.47	45038.93
603.62	44816.58
603.78	45067.02
603.94	44788.49
604.09	44729.98
604.25	44912.54
604.40	44577.84
604.56	45184.04
604.71	45052.97
604.87	44561.46
605.03	45422.78
605.18	44844.66
605.34	45048.29
605.49	44629.34
605.65	45097.44
605.80	44900.84
605.96	44877.43
606.12	44701.89
606.27	45401.71
606.43	44924.24
606.58	45010.84
606.74	44729.98
606.89	44580.18
607.05	44512.31
607.20	44875.09
607.36	44996.80
607.51	44907.86
607.67	45092.76
607.82	44652.74
607.98	44886.79
608.13	44772.11
608.29	44947.65
608.44	44252.51
608.60	44423.37
608.75	44411.67
608.91	44776.79
609.06	44509.97
609.22	45034.25
609.37	44477.20
609.53	44371.88
609.68	44718.28
609.84	44861.05
609.99	44715.93
610.15	44762.75
610.30	44531.03
610.46	43882.70
610.61	44107.40
610.76	44498.26
610.92	44102.71
611.07	44463.16
611.23	44137.82
611.38	44163.57
611.54	44170.59
611.69	44168.25
611.84	43627.59
612.00	44201.02
612.15	43899.09
612.31	44804.88
612.46	44343.79
612.62	45010.84
612.77	44397.62
612.92	44140.16
613.08	44395.28
613.23	44112.08
613.39	44034.84
613.54	43868.66
613.69	44046.54
613.85	44542.74
614.00	44247.83
614.15	44399.96
614.31	43871.00
614.46	44137.82
614.62	44091.01
614.77	43793.76
614.92	43817.17
615.08	44240.81
615.23	43634.61
615.38	43990.37
615.54	43639.29
615.69	43985.69
615.84	43278.85
616.00	43866.32
616.15	43971.64
616.30	43821.85
616.46	43688.44
616.61	43524.60
616.76	43866.32
616.92	43777.38
617.07	43058.84
617.22	43763.34
617.37	43641.63
617.53	44189.31
617.68	43913.13
617.83	43363.11
617.99	43438.00
618.14	43564.39
618.29	43632.27
618.45	43168.84
618.60	43847.60
618.75	43154.80
618.90	43709.50
619.06	43248.42
619.21	43278.85
619.36	43590.14
619.51	43686.10
619.67	43398.21
619.82	43498.86
619.97	43316.29
620.12	42983.94
620.28	42731.16
620.43	42979.26
620.58	43559.71
620.73	43196.93
620.89	43173.52
621.04	43271.82
621.19	42979.26
621.34	42923.08
621.49	42813.08
621.65	42710.10
621.80	43063.52
621.95	42796.70
622.10	42733.50
622.25	42925.42
622.41	42855.21
622.56	42731.16
622.71	43063.52
622.86	42820.10
623.01	42824.78
623.16	43320.98
623.32	42892.66
623.47	43213.31
623.62	42813.08
623.77	42478.38
623.92	42883.30
624.07	42323.91
624.23	42115.60
624.38	42504.13
624.53	42216.24
624.68	43178.20
624.83	42052.41
624.98	42394.12
625.13	42499.45
625.29	42579.03
625.44	42583.71
625.59	42394.12
625.74	42387.10
625.89	41486.00
626.04	42005.59
626.19	42153.05
626.34	41853.46
626.49	42234.97
626.65	42110.92
626.80	42419.87
626.95	42380.08
627.10	41963.46
627.25	41926.02
627.40	41530.47
627.55	41525.78
627.70	41696.64
627.85	41837.08
628.00	41312.80
628.15	42127.30
628.30	41977.51
628.45	42178.79
628.60	41897.93
628.76	41820.69
628.91	41926.02
629.06	41785.58
629.21	41478.97
629.36	41326.84
629.51	41361.95
629.66	41338.54
629.81	41537.49
629.96	41504.72
630.11	41979.85
630.26	42014.96
630.41	41471.95
630.56	41242.58
630.71	41443.87
630.86	41422.80
631.01	41322.16
631.16	41420.46
631.31	40945.33
631.46	40982.78
631.61	41546.85
631.76	41134.92
631.91	41270.67
632.06	41221.52
632.21	41638.13
632.36	41022.57
632.51	40942.99
632.66	41333.86
632.81	40807.24
632.96	40945.33
633.10	40591.91
633.25	41167.68
633.40	40849.37
633.55	41050.66
633.70	41240.24
633.85	40605.95
634.00	41008.53
634.15	40978.10
634.30	40856.39
634.45	40996.82
634.60	40807.24
634.75	40615.32
634.90	41055.34
635.05	40722.98
635.19	40575.53
635.34	41120.87
635.49	41106.83
635.64	40924.27
635.79	40392.97
635.94	40568.51
636.09	40399.99
636.24	40231.47
636.39	40161.25
636.53	40027.84
636.68	40407.01
636.83	40435.10
636.98	40222.11
637.13	40191.68
637.28	40086.36
637.43	40201.04
637.57	40648.08
637.72	40292.32
637.87	40460.84
638.02	40615.32
638.17	39789.11
638.32	40355.52
638.46	40238.49
638.61	39833.58
638.76	39934.22
638.91	40322.75
639.06	40072.31
639.20	39959.97
639.35	39611.23
639.50	40196.36
639.65	40278.28
639.80	39964.65
639.94	39957.63
640.09	39920.18
640.24	39775.06
640.39	39299.94
640.54	40224.45
640.68	39721.23
640.83	39761.02
640.98	39805.49
641.13	39077.58
641.27	39927.20
641.42	39412.28
641.57	39456.75
641.72	39360.79
641.86	39583.14
642.01	39393.56
642.16	39182.91
642.31	39512.92
642.45	39358.45
642.60	38871.62
642.75	38792.04
642.90	39115.03
643.04	39044.82
643.19	39159.50
643.34	39283.55
643.48	39395.90
643.63	39194.61
643.78	39056.52
643.93	38586.07
644.07	39220.36
644.22	39063.54
644.37	38988.64
644.51	38873.96
644.66	39037.80
644.81	39370.15
644.95	39569.10
645.10	39452.07
645.25	39084.61
645.39	38995.67
645.54	39157.16
645.69	38773.31
645.83	38656.29
645.98	39049.50
646.13	39140.78
646.27	38927.79
646.42	38604.80
646.57	38728.84
646.71	38939.49
646.86	38583.73
647.00	38965.24
647.15	38337.98
647.30	39241.42
647.44	38689.06
647.59	38586.07
647.74	38539.26
647.88	38075.84
648.03	38469.04
648.17	38389.47
648.32	38508.83
648.47	38490.11
648.61	38022.00
648.76	39285.89
648.90	38223.29
649.05	38384.79
649.20	38466.70
649.34	38457.34
649.49	37982.21
649.63	38483.09
649.78	38347.34
649.92	38462.02
650.07	38323.93
650.21	38232.65
650.36	38361.38
650.51	37935.40
650.65	38646.93
650.80	38314.57
650.94	38436.28
651.09	38040.73
651.23	38274.78
651.38	37706.03
651.52	37673.26
651.67	38045.41
651.81	38124.99
651.96	38106.26
652.10	38192.86
652.25	37352.61
652.39	37764.54
652.54	37968.17
652.68	37825.40
652.83	37500.06
652.97	38150.73
653.12	37624.11
653.26	37457.93
653.41	37668.58
653.55	37467.30
653.70	37308.14
653.84	37064.72
653.99	37549.21
654.13	37439.21
654.27	37336.23
654.42	37415.80
654.56	37481.34
654.71	36989.83
654.85	37441.55
655.00	37420.48
655.14	37067.06
655.29	37017.91
655.43	36921.95
655.57	36818.97
655.72	37013.23
655.86	36856.42
656.01	37186.43
656.15	37020.25
656.30	37036.64
656.44	36748.75
656.58	36889.18
656.73	36701.94
656.87	36627.04
657.01	36809.61
657.16	36477.25
657.30	36830.67
657.45	36620.02
657.59	36538.10
657.73	36463.21
657.88	36540.44
658.02	36739.39
658.16	36870.46
658.31	36545.12
658.45	36891.52
658.60	36713.64
658.74	37036.64
658.88	36720.66
659.03	36514.70
659.17	36435.12
659.31	36191.70
659.46	36084.04
659.60	36503.00
659.74	36072.34
659.89	35894.46
660.03	36135.53
660.17	36350.86
660.32	35737.64
660.46	36175.32
660.60	36182.34
660.74	36095.74
660.89	35831.26
661.03	35463.80
661.17	35489.54
661.32	35524.65
661.46	35690.83
661.60	35817.22
661.74	35356.13
661.89	35622.95
662.03	35351.45
662.17	35328.05
662.31	35236.77
662.46	35166.55
662.60	35531.67
662.74	35541.03
662.88	35269.53
663.03	35358.47
663.17	35196.98
663.31	35351.45
663.45	35173.57
663.60	35330.39
663.74	35023.78
663.88	34946.54
664.02	34604.82
664.17	34848.24
664.31	34618.86
664.45	34852.92
664.59	34808.45
664.73	34995.69
664.88	34972.28
665.02	34483.11
665.16	34464.39
665.30	34916.11
665.44	34319.28
665.59	34300.55
665.73	34220.97
665.87	33972.88
666.01	34078.20
666.15	34401.19
666.29	34195.23
666.44	34197.57
666.58	34064.16
666.72	34258.42
666.86	34134.37
667.00	33682.65
667.14	34347.36
667.28	34031.39
667.43	33703.71
667.57	33710.74
667.71	33312.84
667.85	33806.70
667.99	33687.33
668.13	33193.48
668.27	33373.70
668.41	33432.21
668.56	33209.86
668.70	33188.80
668.84	33088.15
668.98	33160.71
669.12	32833.04
669.26	33434.55
669.40	33420.51
669.54	32568.55
669.68	32929.00
669.82	32568.55
669.96	32608.34
670.10	32671.54
670.25	32811.97
670.39	32870.48
670.53	32636.43
670.67	32306.41
670.81	32809.63
670.95	32533.45
671.09	32758.14
671.23	32606.00
671.37	32613.02
671.51	32320.46
671.65	31992.78
671.79	32018.53
671.93	32210.45
672.07	32098.11
672.21	31992.78
672.35	31667.45
672.49	31594.89
672.63	31833.63
672.77	31541.06
672.91	31491.91
673.05	31498.93
673.19	31779.79
673.33	31557.44
673.47	31489.57
673.61	31175.94
673.75	31318.71
673.89	31035.50
674.03	30841.24
674.17	30576.76
674.31	31019.12
674.45	30993.37
674.59	31103.38
674.73	31096.36
674.87	31105.72
675.01	31161.89
675.15	30731.23
675.29	30471.43
675.43	30766.34
675.56	30518.25
675.70	30235.04
675.84	30263.13
675.98	29200.52
676.12	30022.05
676.26	30012.69
676.40	29947.15
676.54	29741.19
676.68	29776.30
676.82	29411.17
676.96	29586.71
677.10	29198.18
677.23	29441.60
677.37	29582.03
677.51	29198.18
677.65	29160.73
677.79	28790.93
677.93	28821.36
678.07	28971.15
678.21	28723.05
678.34	28776.89
678.48	28336.87
678.62	28638.80
678.76	28114.52
678.90	28528.79
679.04	28486.66
679.18	28678.58
679.31	27803.22
679.45	27910.89
679.59	27400.65
679.73	27835.99
679.87	27452.14
680.00	28121.54
680.14	27524.70
680.28	27709.60
680.42	27304.69
680.56	27363.20
680.70	27669.81
680.83	27290.65
680.97	27028.51
681.11	27033.19
681.25	27297.67
681.39	26969.99
681.52	27021.48
681.66	26918.50
681.80	26522.95
681.94	26401.24
682.07	26377.84
682.21	26012.71
682.35	26185.91
682.49	26230.38
682.62	26403.58
682.76	25846.54
682.90	25823.13
683.04	26462.10
683.17	25701.42
683.31	25591.42
683.45	25736.53
683.59	25652.27
683.72	25486.09
683.86	25167.78
684.00	25020.33
684.13	25425.24
684.27	25104.59
684.41	24971.18
684.55	24467.96
684.68	24739.46
684.82	24676.27
684.96	24533.50
685.09	24702.01
685.23	24910.32
685.37	24489.03
685.50	24400.08
685.64	24395.40
685.78	24086.45
685.91	24386.04
686.05	24182.42
686.19	23665.16
686.32	23915.59
686.46	23836.02
686.60	23548.13
686.73	23255.56
686.87	23175.98
687.01	23428.76
687.14	23070.66
687.28	22815.54
687.42	22951.29
687.55	22691.49
687.69	22731.28
687.82	22452.76
687.96	22665.75
688.10	22930.23
688.23	22338.07
688.37	22450.42
688.50	22405.95
688.64	22326.37
688.78	22286.58
688.91	21823.16
689.05	22239.77
689.18	22061.89
689.32	21827.84
689.46	21785.71
689.59	22286.58
689.73	21923.80
689.86	21860.60
690.00	21483.78
690.13	21813.79
690.27	21678.04
690.41	21652.30
690.54	21343.35
690.68	21310.58
690.81	20912.69
690.95	20772.25
691.08	20975.88
691.22	20903.32
691.35	21083.55
691.49	20868.22
691.62	20938.43
691.76	20753.53
691.89	20606.08
692.03	20491.39
692.16	20458.62
692.30	20341.60
692.43	20505.43
692.57	19857.10
692.70	20334.57
692.84	20126.27
692.97	19653.48
693.11	19805.61
693.24	19440.49
693.38	19393.68
693.51	19372.61
693.65	19609.01
693.78	19389.00
693.92	19384.32
694.05	19225.16
694.19	19087.07
694.32	19103.45
694.45	18956.00
694.59	19176.01
694.72	18853.02
694.86	18808.54
694.99	18579.17
695.13	18469.17
695.26	18150.85
695.39	18204.69
695.53	18565.13
695.66	18504.28
695.80	18139.15
695.93	18043.19
696.07	18036.17
696.20	18066.60
696.33	17916.80
696.47	18143.83
696.60	17867.65
696.73	17869.99
696.87	17549.34
697.00	17745.94
697.14	17425.29
697.27	17589.13
697.40	17439.33
697.54	17453.37
697.67	17099.95
697.80	17114.00
697.94	17348.05
698.07	17111.66
698.21	16816.75
698.34	16901.01
698.47	16849.52
698.61	16655.25
698.74	16491.41
698.87	16259.70
699.01	16294.81
699.14	16531.20
699.27	16507.80
699.40	16299.49
699.54	16194.17
699.67	16114.59
699.80	16070.12
699.94	15779.89
700.07	15894.58
700.20	15969.48
700.34	15833.72
700.47	16049.05
700.60	15950.75
700.73	15976.50
700.87	15826.70
701.00	15424.13
701.13	15566.90
701.26	15281.36
701.40	15517.75
701.53	15335.19
701.66	15037.94
701.79	15173.69
701.93	14789.85
702.06	14792.19
702.19	14574.52
702.32	14862.40
702.46	14445.79
702.59	14862.40
702.72	14773.46
702.85	14518.34
702.99	14508.98
703.12	14618.99
703.25	14506.64
703.38	14363.87
703.51	14321.74
703.65	14169.60
703.78	14221.10
703.91	13916.83
704.04	13930.87
704.17	13919.17
704.31	13926.19
704.44	13818.52
704.57	13451.06
704.70	13722.56
704.83	13657.03
704.96	13884.06
705.10	13757.67
705.23	13860.65
>>>>>End Processed Spectral Data<<<<<
