SpectraSuite Data File
++++++++++++++++++++++++++++++++++++
Date: Fri Oct 25 10:47:48 EDT 2013
User: price-jones
Dark Spectrum Present: No
Reference Spectrum Present: No
Number of Sampled Component Spectra: 1
Spectrometers: USB2+H05261
Integration Time (usec): 100000 (USB2+H05261)
Spectra Averaged: 1 (USB2+H05261)
Boxcar Smoothing: 0 (USB2+H05261)
Correct for Electrical Dark: No (USB2+H05261)
Strobe/Lamp Enabled: No (USB2+H05261)
Correct for Detector Non-linearity: No (USB2+H05261)
Correct for Stray Light: No (USB2+H05261)
Number of Pixels in Processed Spectrum: 2048
>>>>>Begin Processed Spectral Data<<<<<
365.73	180.22
365.92	180.22
366.12	180.22
366.32	124.05
366.52	42.13
366.72	35.11
366.91	0.00
367.11	95.96
367.31	0.00
367.51	65.54
367.70	58.51
367.90	23.41
368.10	42.13
368.30	93.62
368.49	0.00
368.69	56.17
368.89	9.36
369.09	18.72
369.28	105.32
369.48	39.79
369.68	44.47
369.87	112.35
370.07	95.96
370.27	142.77
370.47	166.18
370.66	397.89
370.86	489.17
371.06	404.91
371.25	418.96
371.45	414.27
371.65	533.64
371.84	435.34
372.04	482.15
372.24	451.72
372.44	491.51
372.63	505.56
372.83	524.28
373.03	526.62
373.22	475.13
373.42	437.68
373.62	477.47
373.81	517.26
374.01	517.26
374.21	545.34
374.40	482.15
374.60	479.81
374.79	571.09
374.99	470.45
375.19	580.45
375.38	550.03
375.58	524.28
375.78	638.97
375.97	631.94
376.17	683.44
376.37	615.56
376.56	545.34
376.76	559.39
376.95	608.54
377.15	596.84
377.35	603.86
377.54	550.03
377.74	559.39
377.93	589.82
378.13	610.88
378.33	641.31
378.52	617.90
378.72	662.37
378.91	676.41
379.11	671.73
379.31	538.32
379.50	615.56
379.70	603.86
379.89	758.33
380.09	585.13
380.28	643.65
380.48	718.54
380.68	645.99
380.87	660.03
381.07	709.18
381.26	648.33
381.46	636.63
381.65	622.58
381.85	650.67
382.04	662.37
382.24	772.38
382.43	734.93
382.63	610.88
382.83	669.39
383.02	671.73
383.22	760.67
383.41	737.27
383.61	753.65
383.80	744.29
384.00	751.31
384.19	755.99
384.39	697.48
384.58	786.42
384.78	737.27
384.97	809.83
385.17	765.36
385.36	819.19
385.56	720.88
385.75	751.31
385.95	868.34
386.14	795.78
386.34	737.27
386.53	833.23
386.72	765.36
386.92	870.68
387.11	800.46
387.31	828.55
387.50	805.14
387.70	870.68
387.89	802.80
388.09	847.27
388.28	704.50
388.48	763.01
388.67	837.91
388.86	887.06
389.06	868.34
389.25	866.00
389.45	849.61
389.64	889.40
389.84	917.49
390.03	877.70
390.22	945.58
390.42	924.51
390.61	828.55
390.81	922.17
391.00	926.85
391.19	891.74
391.39	1015.79
391.58	933.87
391.78	915.15
391.97	1006.43
392.16	961.96
392.36	1008.77
392.55	999.41
392.75	1046.22
392.94	851.96
393.13	922.17
393.33	894.08
393.52	894.08
393.71	957.28
393.91	1015.79
394.10	1067.28
394.29	1076.65
394.49	1015.79
394.68	1100.05
394.88	1137.50
395.07	1083.67
395.26	1128.14
395.46	1156.22
395.65	1167.93
395.84	1160.91
396.04	1184.31
396.23	1109.41
396.42	1114.10
396.62	1104.73
396.81	1062.60
397.00	1200.69
397.19	1198.35
397.39	1193.67
397.58	1294.32
397.77	1172.61
397.97	1383.26
398.16	1287.29
398.35	1299.00
398.55	1355.17
398.74	1404.32
398.93	1357.51
399.12	1308.36
399.32	1320.06
399.51	1423.05
399.70	1338.79
399.90	1301.34
400.09	1390.28
400.28	1462.83
400.47	1507.30
400.67	1504.96
400.86	1416.02
401.05	1509.65
401.24	1483.90
401.44	1533.05
401.63	1427.73
401.82	1486.24
402.01	1401.98
402.21	1614.97
402.40	1607.95
402.59	1558.80
402.78	1528.37
402.97	1551.78
403.17	1619.65
403.36	1516.67
403.55	1565.82
403.74	1614.97
403.93	1682.85
404.13	1675.82
404.32	1685.19
404.51	1612.63
404.70	1689.87
404.89	1638.38
405.09	1776.47
405.28	1640.72
405.47	1750.72
405.66	1839.66
405.85	1811.57
406.05	1724.97
406.24	1790.51
406.43	1851.36
406.62	1760.08
406.81	1853.70
407.00	1769.44
407.20	1720.29
407.39	1877.11
407.58	1863.07
407.77	1898.17
407.96	1891.15
408.15	1947.33
408.34	1930.94
408.54	1949.67
408.73	1984.77
408.92	1975.41
409.11	2022.22
409.30	2005.84
409.49	1952.01
409.68	2113.50
409.87	2066.69
410.07	2087.76
410.26	2115.84
410.45	2155.63
410.64	2099.46
410.83	2169.68
411.02	2256.28
411.21	2298.41
411.40	2162.66
411.59	2272.66
411.78	2303.09
411.98	2321.81
412.17	2385.01
412.36	2361.60
412.55	2410.75
412.74	2495.01
412.93	2504.37
413.12	2352.24
413.31	2483.31
413.50	2466.92
413.69	2380.32
413.88	2656.51
414.07	2602.68
414.26	2532.46
414.45	2663.53
414.64	2686.94
414.83	2729.06
415.02	2679.91
415.22	2820.35
415.41	2808.64
415.60	2750.13
415.79	2860.13
415.98	2892.90
416.17	2848.43
416.36	2888.22
416.55	2810.98
416.74	2843.75
416.93	2974.82
417.12	3005.25
417.31	2963.12
417.50	2932.69
417.69	3002.91
417.88	3000.57
418.07	2991.20
418.26	3094.19
418.45	2956.10
418.64	3145.68
418.83	3136.32
419.02	3159.72
419.21	3227.60
419.39	3141.00
419.58	3070.78
419.77	3169.09
419.96	3265.05
420.15	3379.73
420.34	3236.96
420.53	3332.92
420.72	3389.10
420.91	3421.86
421.10	3375.05
421.29	3536.55
421.48	3421.86
421.67	3382.07
421.86	3386.76
422.05	3440.59
422.24	3377.39
422.43	3440.59
422.61	3475.70
422.80	3541.23
422.99	3538.89
423.18	3707.41
423.37	3583.36
423.56	3508.46
423.75	3508.46
423.94	3428.88
424.13	3323.56
424.32	3433.57
424.50	3529.53
424.69	3655.92
424.88	3691.02
425.07	3625.49
425.26	3524.85
425.45	3452.29
425.64	3588.04
425.83	3513.14
426.01	3716.77
426.20	3709.75
426.39	3691.02
426.58	3489.74
426.77	3541.23
426.96	3538.89
427.15	3545.91
427.33	3716.77
427.52	3653.58
427.71	3805.71
427.90	3726.13
428.09	3791.67
428.28	3714.43
428.46	3768.26
428.65	3791.67
428.84	3705.07
429.03	3859.54
429.22	3796.35
429.40	3810.39
429.59	3768.26
429.78	3646.55
429.97	3660.60
430.16	3709.75
430.34	3901.67
430.53	3833.80
430.72	3967.21
430.91	3866.56
431.10	4063.17
431.28	4124.02
431.47	4196.58
431.66	4219.99
431.85	4011.68
432.03	4112.32
432.22	4201.26
432.41	4074.87
432.60	4152.11
432.79	4170.83
432.97	4262.12
433.16	4128.70
433.35	4156.79
433.54	4362.76
433.72	4264.46
433.91	4257.43
434.10	4311.27
434.28	4278.50
434.47	4238.71
434.66	4479.79
434.85	4491.49
435.03	4440.00
435.22	4505.53
435.41	4594.47
435.59	4458.72
435.78	4648.30
435.97	4613.20
436.16	4645.96
436.34	4772.35
436.53	4631.92
436.72	4805.12
436.90	4695.11
437.09	4758.31
437.28	4599.15
437.46	4629.58
437.65	4615.54
437.84	4772.35
438.02	4751.29
438.21	4671.71
438.40	4657.67
438.58	4840.23
438.77	4915.12
438.96	4826.18
439.14	5139.82
439.33	5043.85
439.52	5210.03
439.70	5015.77
439.89	5170.24
440.08	5041.51
440.26	5132.79
440.45	4966.62
440.63	5322.38
440.82	5296.63
441.01	5364.51
441.19	5404.30
441.38	5350.46
441.57	5469.83
441.75	5493.24
441.94	5607.92
442.12	5645.37
442.31	5762.40
442.50	5717.93
442.68	5696.86
442.87	5746.02
443.05	5652.39
443.24	5858.36
443.43	5811.55
443.61	5731.97
443.80	5881.77
443.98	5636.01
444.17	5598.56
444.35	5776.44
444.54	6031.56
444.73	5900.49
444.91	5811.55
445.10	5806.87
445.28	5877.09
445.47	5715.59
445.65	5741.33
445.84	5823.25
446.02	5870.06
446.21	5827.93
446.39	5771.76
446.58	6057.31
446.77	6001.13
446.95	5996.45
447.14	5994.11
447.32	6076.03
447.51	6057.31
447.69	5940.28
447.88	5966.03
448.06	6099.44
448.25	6050.28
448.43	6207.10
448.62	5940.28
448.80	5968.37
448.99	5998.79
449.17	6207.10
449.36	6141.57
449.54	6326.47
449.73	6284.34
449.91	6317.11
450.10	6338.17
450.28	6527.75
450.46	6518.39
450.65	6509.03
450.83	6506.69
451.02	6427.11
451.20	6530.09
451.39	6555.84
451.57	6487.96
451.76	6237.53
451.94	6494.99
452.13	6497.33
452.31	6509.03
452.49	6537.12
452.68	6595.63
452.86	6544.14
453.05	6609.67
453.23	6698.61
453.42	6434.13
453.60	6534.78
453.78	6796.92
453.97	6754.79
454.15	6691.59
454.34	6684.57
454.52	6853.09
454.70	6740.74
454.89	6885.86
455.07	6888.20
455.26	6841.39
455.44	7023.95
455.62	7108.21
455.81	6923.30
455.99	6949.05
456.17	7166.72
456.36	6977.14
456.54	7068.42
456.73	7096.50
456.91	7180.76
457.09	7117.57
457.28	7534.18
457.46	7110.55
457.64	7410.14
457.83	7229.91
458.01	7206.51
458.19	7466.31
458.38	7304.81
458.56	7550.57
458.74	7623.12
458.93	7243.96
459.11	7419.50
459.29	7438.22
459.48	7595.04
459.66	7583.34
459.84	7489.71
460.03	7665.25
460.21	7793.98
460.39	7576.31
460.57	7555.25
460.76	7822.07
460.94	7805.69
461.12	7772.92
461.31	7665.25
461.49	7719.09
461.67	7559.93
461.85	8028.04
462.04	7960.16
462.22	8360.39
462.40	8025.70
462.59	7992.93
462.77	7971.86
462.95	8058.46
463.13	8063.15
463.32	8088.89
463.50	8168.47
463.68	8177.83
463.86	8325.29
464.05	8035.06
464.23	8065.49
464.41	8229.32
464.59	7985.91
464.78	8329.97
464.96	8002.29
465.14	8308.90
465.32	8430.61
465.50	8229.32
465.69	8437.63
465.87	8346.35
466.05	8336.99
466.23	8414.23
466.41	8334.65
466.60	8564.02
466.78	8348.69
466.96	8531.25
467.14	8421.25
467.32	8596.79
467.51	8547.64
467.69	8374.44
467.87	8533.59
468.05	8688.07
468.23	8634.24
468.41	8594.45
468.60	8645.94
468.78	8898.72
468.96	8559.34
469.14	8659.98
469.32	8863.61
469.50	8657.64
469.69	8798.07
469.87	8973.61
470.05	8884.67
470.23	8954.89
470.41	8982.98
470.59	9177.24
470.77	8968.93
470.95	9130.43
471.14	9317.67
471.32	9022.77
471.50	9331.72
471.68	9327.03
471.86	9451.08
472.04	9308.31
472.22	9643.01
472.40	9174.90
472.58	9401.93
472.77	9355.12
472.95	9479.17
473.13	9774.08
473.31	9486.19
473.49	9750.67
473.67	9558.75
473.85	9680.46
474.03	9788.12
474.21	9830.25
474.39	10050.26
474.57	10134.52
474.75	10111.11
474.93	10078.35
475.12	10129.84
475.30	10239.84
475.48	10080.69
475.66	10361.55
475.84	10171.97
476.02	10193.03
476.20	10457.51
476.38	10459.85
476.56	10855.40
476.74	10689.23
476.92	10792.21
477.10	10745.40
477.28	10876.47
477.46	11150.31
477.64	11286.06
477.82	11257.98
478.00	11569.27
478.18	11426.50
478.36	11489.69
478.54	11655.87
478.72	11445.22
478.90	11707.36
479.08	11850.13
479.26	12091.21
479.44	12121.63
479.62	12095.89
479.80	12058.44
479.98	12121.63
480.16	12362.71
480.34	12313.56
480.52	12437.61
480.70	12596.76
480.88	12503.14
481.06	12475.06
481.24	12695.07
481.41	12861.24
481.59	13034.44
481.77	12952.52
481.95	13184.24
482.13	13214.66
482.31	13308.29
482.49	13818.52
482.67	13532.98
482.85	13832.57
483.03	13687.45
483.21	13977.68
483.39	14064.28
483.57	13902.78
483.74	14160.24
483.92	14267.91
484.10	14387.27
484.28	14455.15
484.46	14609.62
484.64	15059.01
484.82	14635.37
485.00	14916.23
485.18	15110.50
485.35	15126.88
485.53	15084.75
485.71	15068.37
485.89	15740.10
486.07	15272.00
486.25	15332.85
486.43	15515.41
486.61	15749.46
486.78	15873.51
486.96	15899.26
487.14	16313.53
487.32	16236.30
487.50	16666.95
487.68	16542.91
487.85	16922.07
488.03	16807.39
488.21	17139.74
488.39	17137.40
488.57	17532.95
488.75	17329.33
488.92	17678.07
489.10	17635.94
489.28	17909.78
489.46	18258.52
489.64	18115.75
489.81	18492.57
489.99	18443.42
490.17	18586.19
490.35	19016.85
490.53	18665.77
490.70	18792.16
490.88	18911.53
491.06	19066.00
491.24	19012.17
491.41	19150.26
491.59	19204.10
491.77	18911.53
491.95	19726.04
492.13	19389.00
492.30	19662.84
492.48	19604.33
492.66	20074.77
492.84	20142.65
493.01	20287.76
493.19	19976.47
493.37	20477.35
493.54	20608.42
493.72	20793.32
493.90	20999.29
494.08	21008.65
494.25	21488.46
494.43	21364.41
494.61	21415.90
494.79	21350.37
494.96	21570.38
495.14	21516.54
495.32	21757.62
495.49	21977.63
495.67	21949.54
495.85	22068.91
496.02	22487.87
496.20	22279.56
496.38	22731.28
496.55	22260.84
496.73	23051.94
496.91	22682.13
497.09	22960.66
497.26	23152.58
497.44	22834.27
497.62	23367.91
497.79	23431.10
497.97	23335.14
498.14	23826.65
498.32	23421.74
498.50	23821.97
498.67	24210.50
498.85	24109.86
499.03	24222.20
499.20	24334.55
499.38	24287.74
499.56	24610.73
499.73	24386.04
499.91	24503.07
500.08	24879.89
500.26	24655.20
500.44	24664.57
500.61	24727.76
500.79	24657.54
500.97	25078.84
501.14	25200.55
501.32	25149.06
501.49	25106.93
501.67	25170.12
501.84	25518.86
502.02	25322.26
502.20	25963.56
502.37	25951.86
502.55	25977.61
502.72	25795.04
502.90	25956.54
503.07	25900.37
503.25	26403.58
503.43	25893.35
503.60	26139.10
503.78	26075.91
503.95	26363.79
504.13	26637.64
504.30	26441.03
504.48	26881.05
504.65	26710.19
504.83	26927.86
505.01	26869.35
505.18	26859.99
505.36	27335.12
505.53	27243.84
505.71	27683.86
505.88	27667.47
506.06	27089.36
506.23	27541.08
506.41	27316.39
506.58	27676.83
506.76	28034.94
506.93	28149.62
507.11	27896.85
507.28	27864.08
507.46	27917.91
507.63	28137.92
507.81	28336.87
507.98	28203.46
508.16	28325.16
508.33	28472.62
508.50	28409.42
508.68	28357.93
508.85	28903.28
509.03	29057.75
509.20	28961.79
509.38	28957.11
509.55	29371.38
509.73	29041.37
509.90	29345.64
510.08	29235.63
510.25	29357.34
510.42	29490.75
510.60	29773.95
510.77	29752.89
510.95	29764.59
511.12	29708.42
511.30	30017.37
511.47	29762.25
511.64	30188.23
511.82	30174.19
511.99	29961.20
512.17	29865.24
512.34	30242.06
512.51	30597.82
512.69	30391.86
512.86	30167.16
513.04	30452.71
513.21	30705.49
513.38	31016.78
513.56	30878.69
513.73	30654.00
513.90	31152.53
514.08	30445.69
514.25	31164.23
514.43	31637.02
514.60	31211.04
514.77	31234.45
514.95	31412.33
515.12	31185.30
515.29	31314.03
515.47	31550.42
515.64	31938.95
515.81	31541.06
515.99	31704.90
516.16	31622.98
516.33	32016.19
516.51	32011.51
516.68	31386.58
516.85	31555.10
517.03	31580.85
517.20	31999.80
517.37	32231.52
517.54	31955.33
517.72	32631.75
517.89	31999.80
518.06	32112.15
518.24	32311.10
518.41	32074.70
518.58	32549.83
518.75	32414.08
518.93	32608.34
519.10	32732.39
519.27	33010.92
519.45	33212.20
519.62	32931.34
519.79	33057.73
519.96	33280.08
520.14	33336.25
520.31	33118.58
520.48	33961.17
520.65	33415.83
520.83	33553.92
521.00	34026.71
521.17	33743.50
521.34	33919.04
521.52	33729.46
521.69	33830.10
521.86	33989.26
522.03	34066.50
522.20	33759.89
522.38	34099.26
522.55	33961.17
522.72	34459.71
522.89	34066.50
523.07	34445.66
523.24	34527.58
523.41	34501.84
523.58	34143.74
523.75	34904.41
523.92	34801.43
524.10	34850.58
524.27	35325.71
524.44	35005.05
524.61	35110.38
524.78	35175.91
524.96	35119.74
525.13	35264.85
525.30	35775.09
525.47	35590.19
525.64	35442.73
525.81	35337.41
525.98	35412.31
526.16	35688.49
526.33	35426.35
526.50	35501.25
526.67	35433.37
526.84	35550.40
527.01	35440.39
527.18	35882.75
527.36	36378.95
527.53	36147.23
527.70	36376.61
527.87	36428.10
528.04	36004.46
528.21	36236.17
528.38	36009.14
528.55	36683.22
528.72	36189.36
528.89	36355.54
529.07	36772.16
529.24	36149.57
529.41	36818.97
529.58	36172.98
529.75	36566.19
529.92	36851.73
530.09	37029.62
530.26	36840.03
530.43	37127.92
530.60	36587.25
530.77	36680.88
530.94	37514.11
531.11	37036.64
531.28	37266.01
531.46	37174.73
531.63	37350.27
531.80	37294.10
531.97	37284.73
532.14	37067.06
532.31	37900.29
532.48	37336.23
532.65	37516.45
532.82	37652.20
532.99	37429.85
533.16	37804.33
533.33	37724.75
533.50	37979.87
533.67	37755.18
533.84	37661.56
534.01	38155.41
534.18	38405.85
534.35	38506.49
534.52	37806.67
534.69	38323.93
534.86	38150.73
535.03	38052.43
535.20	38471.39
535.37	38642.24
535.54	38637.56
535.71	38181.16
535.88	38176.48
536.05	38574.37
536.22	38827.15
536.38	38323.93
536.55	38459.68
536.72	38679.69
536.89	38394.15
537.06	38941.83
537.23	38820.13
537.40	38782.68
537.57	38642.24
537.74	38955.88
537.91	39571.44
538.08	38698.42
538.25	39243.76
538.42	39182.91
538.59	39241.42
538.75	38768.63
538.92	38993.32
539.09	39271.85
539.26	39924.86
539.43	39400.58
539.60	39672.08
539.77	39543.35
539.94	39358.45
540.11	39210.99
540.28	39690.80
540.44	39351.43
540.61	39442.71
540.78	39068.22
540.95	39431.01
541.12	39618.25
541.29	39716.55
541.46	39763.36
541.62	40039.54
541.79	40254.87
541.96	39503.56
542.13	39768.04
542.30	40076.99
542.47	39955.29
542.63	40198.70
542.80	40259.55
542.97	40573.19
543.14	40514.67
543.31	40683.19
543.48	40512.33
543.64	41031.93
543.81	40697.24
543.98	40722.98
544.15	40615.32
544.32	40982.78
544.48	41170.02
544.65	40767.45
544.82	41036.61
544.99	40680.85
545.16	40863.41
545.32	40612.98
545.49	40931.29
545.66	41406.42
545.83	41258.96
546.00	41481.31
546.16	41130.23
546.33	41209.81
546.50	40914.90
546.67	41596.00
546.83	40935.97
547.00	40996.82
547.17	41591.32
547.34	41198.11
547.50	41221.52
547.67	41961.12
547.84	41799.63
548.00	41778.56
548.17	42349.65
548.34	41694.30
548.51	42082.83
548.67	41956.44
548.84	42005.59
549.01	41670.90
549.18	41434.50
549.34	41900.27
549.51	41778.56
549.68	41914.31
549.84	42359.02
550.01	42436.25
550.18	41984.53
550.34	42059.43
550.51	42007.94
550.68	41642.81
550.84	41486.00
551.01	42574.34
551.18	42122.62
551.34	42101.56
551.51	42328.59
551.68	42955.85
551.84	42398.80
552.01	41911.97
552.18	42068.79
552.34	42087.51
552.51	42431.57
552.68	42412.85
552.84	42763.93
553.01	42719.46
553.18	42590.73
553.34	43136.07
553.51	42557.96
553.67	42389.44
553.84	42862.23
554.01	42696.05
554.17	42653.92
554.34	42995.64
554.51	43407.58
554.67	42974.58
554.84	42955.85
555.00	42653.92
555.17	42567.32
555.33	42878.61
555.50	42934.79
555.67	43084.58
555.83	42670.31
556.00	43072.88
556.16	43405.23
556.33	43084.58
556.50	43068.20
556.66	43068.20
556.83	42845.85
556.99	43276.51
557.16	43578.43
557.32	43281.19
557.49	43363.11
557.65	43007.34
557.82	42969.90
557.98	43407.58
558.15	43658.01
558.32	43423.96
558.48	43173.52
558.65	43372.47
558.81	43328.00
558.98	43573.75
559.14	43248.42
559.31	43597.16
559.47	43428.64
559.64	43824.19
559.80	43915.47
559.97	43973.98
560.13	43379.49
560.30	43225.01
560.46	43302.25
560.63	43849.94
560.79	43608.86
560.96	44065.27
561.12	43903.77
561.29	43964.62
561.45	43761.00
561.61	44341.45
561.78	43665.03
561.94	43686.10
562.11	44065.27
562.27	43573.75
562.44	43845.26
562.60	44151.87
562.77	44151.87
562.93	43688.44
563.10	44217.40
563.26	43332.68
563.42	43875.68
563.59	43533.96
563.75	44060.58
563.92	43842.92
564.08	44058.24
564.24	44486.56
564.41	44037.18
564.57	43990.37
564.74	44086.33
564.90	44418.69
565.07	44357.83
565.23	44091.01
565.39	44072.29
565.56	44418.69
565.72	43578.43
565.88	44322.72
566.05	44002.07
566.21	44133.14
566.38	43597.16
566.54	44720.62
566.70	44507.63
566.87	44648.06
567.03	44357.83
567.19	44467.84
567.36	44238.47
567.52	44334.43
567.68	44568.48
567.85	44102.71
568.01	44339.11
568.17	44414.01
568.34	44236.12
568.50	43990.37
568.66	44369.54
568.83	44493.58
568.99	44240.81
569.15	44299.32
569.32	44088.67
569.48	44135.48
569.64	44580.18
569.81	44479.54
569.97	44296.98
570.13	44575.50
570.30	44430.39
570.46	44203.36
570.62	43761.00
570.78	43913.13
570.95	44179.95
571.11	44289.96
571.27	44367.20
571.43	44568.48
571.60	44566.14
571.76	44502.95
571.92	44678.49
572.09	43966.96
572.25	44304.00
572.41	44383.58
572.57	44671.46
572.74	44875.09
572.90	44353.15
573.06	44577.84
573.22	44725.30
573.38	44481.88
573.55	44334.43
573.71	44467.84
573.87	44509.97
574.03	44669.12
574.20	44435.07
574.36	44505.29
574.52	44531.03
574.68	44739.34
574.84	44603.59
575.01	44442.09
575.17	44924.24
575.33	44493.58
575.49	44325.07
575.65	44538.05
575.82	44350.81
575.98	44596.57
576.14	45074.04
576.30	44739.34
576.46	44861.05
576.62	44479.54
576.79	44886.79
576.95	44144.84
577.11	44304.00
577.27	44748.70
577.43	44531.03
577.59	44591.89
577.75	44439.75
577.92	44259.53
578.08	44573.16
578.24	44505.29
578.40	44402.30
578.56	44907.86
578.72	44655.08
578.88	44722.96
579.04	44624.65
579.21	44811.90
579.37	44285.28
579.53	44610.61
579.69	44690.19
579.85	44978.07
580.01	44605.93
580.17	44762.75
580.33	44933.60
580.49	45240.21
580.65	44788.49
580.82	44655.08
580.98	44875.09
581.14	44449.11
581.30	45148.93
581.46	44708.91
581.62	44900.84
581.78	45074.04
581.94	45116.17
582.10	44662.10
582.26	45088.08
582.42	44870.41
582.58	44844.66
582.74	44399.96
582.90	44762.75
583.06	44524.01
583.22	44758.06
583.38	45427.46
583.54	44570.82
583.70	45071.70
583.86	44818.92
584.02	44531.03
584.18	45170.00
584.34	45090.42
584.50	44772.11
584.66	44479.54
584.82	44186.97
584.98	44910.20
585.14	45106.80
585.30	44289.96
585.46	44650.40
585.62	44542.74
585.78	44472.52
585.94	44615.29
586.10	44926.58
586.26	44498.26
586.42	44832.96
586.58	45226.17
586.74	44694.87
586.90	44692.53
587.06	44545.08
587.22	44872.75
587.38	44746.36
587.54	45523.42
587.70	45455.54
587.86	44837.64
588.02	44739.34
588.18	45193.40
588.34	44926.58
588.49	44626.99
588.65	44680.83
588.81	44435.07
588.97	44692.53
589.13	44809.56
589.29	45090.42
589.45	44594.23
589.61	44933.60
589.77	45144.25
589.93	45162.98
590.08	45081.06
590.24	45298.73
590.40	45347.88
590.56	45221.49
590.72	44921.90
590.88	44877.43
591.04	45200.43
591.20	45191.06
591.35	45223.83
591.51	45420.44
591.67	45158.30
591.83	45144.25
591.99	44605.93
592.15	44554.44
592.31	45476.61
592.46	44718.28
592.62	44856.37
592.78	45462.57
592.94	44926.58
593.10	44711.25
593.26	45432.14
593.41	45120.85
593.57	45312.77
593.73	44521.67
593.89	44863.39
594.05	45460.23
594.20	45200.43
594.36	45151.27
594.52	45340.86
594.68	44919.56
594.84	44762.75
594.99	45455.54
595.15	44978.07
595.31	45144.25
595.47	45158.30
595.62	45165.32
595.78	45357.24
595.94	45263.62
596.10	45338.52
596.25	45371.28
596.41	45511.72
596.57	45350.22
596.73	45530.44
596.88	44699.55
597.04	45167.66
597.20	45446.18
597.36	45074.04
597.51	45148.93
597.67	45256.60
597.83	45186.38
597.99	45521.08
598.14	45577.25
598.30	45202.77
598.46	45411.07
598.61	44928.92
598.77	45256.60
598.93	45052.97
599.09	44631.68
599.24	45752.79
599.40	45310.43
599.56	45153.62
599.71	45544.48
599.87	45757.47
600.03	45469.59
600.18	45378.31
600.34	45221.49
600.50	45188.72
600.65	44793.17
600.81	45570.23
600.97	45448.52
601.12	45783.22
601.28	45390.01
601.44	45338.52
601.59	45577.25
601.75	44774.45
601.91	45118.51
602.06	44957.01
602.22	45703.64
602.37	45647.47
602.53	45221.49
602.69	45661.51
602.84	45640.45
603.00	45200.43
603.16	45333.84
603.31	45340.86
603.47	45031.91
603.62	45008.50
603.78	45130.21
603.94	45457.88
604.09	45427.46
604.25	45240.21
604.40	45331.50
604.56	45041.27
604.71	45628.74
604.87	45418.10
605.03	45242.56
605.18	45244.90
605.34	45357.24
605.49	44933.60
605.65	45200.43
605.80	44980.42
605.96	45095.10
606.12	45158.30
606.27	45343.20
606.43	45160.64
606.58	45364.26
606.74	45113.83
606.89	45059.99
607.05	45048.29
607.20	44910.20
607.36	45441.50
607.51	45663.85
607.67	45373.63
607.82	45071.70
607.98	44617.63
608.13	45076.38
608.29	44856.37
608.44	44992.12
608.60	44142.50
608.75	44217.40
608.91	44692.53
609.06	45074.04
609.22	45048.29
609.37	44727.64
609.53	44849.35
609.68	44999.14
609.84	45008.50
609.99	44896.16
610.15	44795.51
610.30	44954.67
610.46	44573.16
610.61	44662.10
610.76	44711.25
610.92	44879.77
611.07	44807.22
611.23	44509.97
611.38	44402.30
611.54	44268.89
611.69	44540.39
611.84	44624.65
612.00	44512.31
612.15	44296.98
612.31	44299.32
612.46	44587.21
612.62	44509.97
612.77	44631.68
612.92	44795.51
613.08	44636.36
613.23	44186.97
613.39	44430.39
613.54	43683.76
613.69	44037.18
613.85	43950.58
614.00	44507.63
614.15	44652.74
614.31	44722.96
614.46	44437.41
614.62	44048.88
614.77	44458.48
614.92	44486.56
615.08	44130.80
615.23	44266.55
615.38	44175.27
615.54	44020.80
615.69	44009.09
615.84	43922.49
616.00	44271.23
616.15	44662.10
616.30	44301.66
616.46	43882.70
616.61	44016.11
616.76	43522.26
616.92	43632.27
617.07	43697.80
617.22	43363.11
617.37	43761.00
617.53	43882.70
617.68	44030.16
617.83	43487.15
617.99	44147.18
618.14	44083.99
618.29	43784.40
618.45	43730.57
618.60	43613.54
618.75	43725.89
618.90	44179.95
619.06	43973.98
619.21	43716.53
619.36	43503.54
619.51	43718.87
619.67	43735.25
619.82	44165.91
619.97	44161.23
620.12	43484.81
620.28	43306.93
620.43	42988.62
620.58	43442.68
620.73	43370.13
620.89	43452.05
621.04	42759.25
621.19	42974.58
621.34	43365.45
621.49	42885.64
621.65	43229.69
621.80	43281.19
621.95	42904.36
622.10	42880.95
622.25	42806.06
622.41	43021.39
622.56	42817.76
622.71	43042.45
622.86	43342.04
623.01	43070.54
623.16	43152.46
623.32	43093.94
623.47	43477.79
623.62	43220.33
623.77	43009.68
623.92	42642.22
624.07	42822.44
624.23	42735.84
624.38	42625.84
624.53	42553.28
624.68	42630.52
624.83	42902.02
624.98	42962.87
625.13	41911.97
625.29	43026.07
625.44	42770.95
625.59	42429.23
625.74	42586.05
625.89	42202.20
626.04	42157.73
626.19	42366.04
626.34	42403.49
626.49	42536.90
626.65	42356.67
626.80	42583.71
626.95	42431.57
627.10	42213.90
627.25	41947.08
627.40	41970.49
627.55	41954.10
627.70	41942.40
627.85	42129.64
628.00	42204.54
628.15	42616.47
628.30	42300.50
628.45	42405.83
628.60	41738.77
628.76	42075.81
628.91	42426.89
629.06	42197.52
629.21	42115.60
629.36	42101.56
629.51	41816.01
629.66	41525.78
629.81	41701.32
629.96	41710.69
630.11	41792.61
630.26	41783.24
630.41	41720.05
630.56	41675.58
630.71	41722.39
630.86	41549.19
631.01	41537.49
631.16	41240.24
631.31	41078.74
631.46	41329.18
631.61	41453.23
631.76	41074.06
631.91	41666.22
632.06	41553.87
632.21	41123.21
632.36	41624.09
632.51	41373.65
632.66	41294.07
632.81	41268.33
632.96	41057.68
633.10	40657.45
633.25	40980.44
633.40	41212.15
633.55	41467.27
633.70	41696.64
633.85	41268.33
634.00	41251.94
634.15	41422.80
634.30	41057.68
634.45	41167.68
634.60	40818.94
634.75	41212.15
634.90	40868.09
635.05	41027.25
635.19	40811.92
635.34	41148.96
635.49	40715.96
635.64	40732.34
635.79	40671.49
635.94	40650.42
636.09	41006.19
636.24	40678.51
636.39	40629.36
636.53	40589.57
636.68	40596.59
636.83	40367.22
636.98	40797.88
637.13	40243.17
637.28	40474.88
637.43	40648.08
637.57	40772.13
637.72	40446.80
637.87	40708.94
638.02	40713.62
638.17	40280.62
638.32	39983.37
638.46	40472.54
638.61	39955.29
638.76	39920.18
638.91	40444.46
639.06	40463.18
639.20	40568.51
639.35	40156.57
639.50	40371.90
639.65	40362.54
639.80	40128.48
639.94	39917.84
640.09	39976.35
640.24	39784.43
640.39	39803.15
640.54	39482.50
640.68	39990.39
640.83	39943.58
640.98	40074.65
641.13	39924.86
641.27	40095.72
641.42	39840.60
641.57	40105.08
641.72	40076.99
641.86	39166.52
642.01	39309.30
642.16	39318.66
642.31	38768.63
642.45	39620.59
642.60	38742.89
642.75	39292.91
642.90	39498.88
643.04	39061.20
643.19	39285.89
643.34	39269.51
643.48	39597.18
643.63	39250.78
643.78	39309.30
643.93	39077.58
644.07	39533.99
644.22	39164.18
644.37	38888.00
644.51	38946.51
644.66	39370.15
644.81	39016.73
644.95	39185.25
645.10	39215.68
645.25	39466.11
645.39	39543.35
645.54	38927.79
645.69	39014.39
645.83	38649.27
645.98	38939.49
646.13	38925.45
646.27	39494.20
646.42	39257.81
646.57	39147.80
646.71	38778.00
646.86	38768.63
647.00	39229.72
647.15	39075.24
647.30	38873.96
647.44	38700.76
647.59	38925.45
647.74	38974.60
647.88	38660.97
648.03	38623.52
648.17	38557.99
648.32	38642.24
648.47	38834.17
648.61	38167.12
648.76	39047.16
648.90	38614.16
649.05	38515.86
649.20	38562.67
649.34	38770.97
649.49	38595.43
649.63	38560.33
649.78	38885.66
649.92	38478.41
650.07	38574.37
650.21	38471.39
650.36	38117.96
650.51	38169.46
650.65	38785.02
650.80	38852.89
650.94	38450.32
651.09	38316.91
651.23	38529.90
651.38	38356.70
651.52	37811.35
651.67	38033.71
651.81	38260.74
651.96	37750.50
652.10	37773.91
652.25	37553.90
652.39	37525.81
652.54	37979.87
652.68	38160.09
652.83	38080.52
652.97	37846.46
653.12	37834.76
653.26	37823.06
653.41	38174.14
653.55	37682.62
653.70	37724.75
653.84	37699.01
653.99	37928.38
654.13	37493.04
654.27	37581.98
654.42	37493.04
654.56	37879.23
654.71	37642.84
654.85	37902.64
655.00	37474.32
655.14	37223.88
655.29	37132.60
655.43	37170.05
655.57	36898.55
655.72	36947.70
655.86	36793.22
656.01	37338.57
656.15	37146.64
656.30	37329.20
656.44	37104.51
656.58	37055.36
656.73	36680.88
656.87	36613.00
657.01	37352.61
657.16	36191.70
657.30	36414.05
657.45	36493.63
657.59	36851.73
657.73	36535.76
657.88	36713.64
658.02	36856.42
658.16	36814.29
658.31	36739.39
658.45	37179.41
658.60	36657.47
658.74	36793.22
658.88	36690.24
659.03	36666.83
659.17	36247.88
659.31	36449.16
659.46	36266.60
659.60	36540.44
659.74	36362.56
659.89	36048.93
660.03	36613.00
660.17	36360.22
660.32	36376.61
660.46	36549.81
660.60	36458.52
660.74	36161.28
660.89	36514.70
661.03	35868.71
661.17	35637.00
661.32	35665.08
661.46	35761.05
661.60	36004.46
661.74	35889.77
661.89	35505.93
662.03	35599.55
662.17	35653.38
662.31	35878.07
662.46	35517.63
662.60	35566.78
662.74	35538.69
662.88	35648.70
663.03	35302.30
663.17	35655.72
663.31	35363.15
663.45	35407.62
663.60	35056.54
663.74	34862.28
663.88	34852.92
664.02	35215.70
664.17	35637.00
664.31	34581.42
664.45	35283.58
664.59	35021.44
664.73	34845.90
664.88	34756.96
665.02	34146.08
665.16	35021.44
665.30	34415.24
665.44	34546.31
665.59	34401.19
665.73	34424.60
665.87	34195.23
666.01	34410.56
666.15	34426.94
666.29	34167.14
666.44	34183.52
666.58	34478.43
666.72	34426.94
666.86	34033.73
667.00	34204.59
667.14	33755.21
667.28	33858.19
667.43	33729.46
667.57	33570.30
667.71	33722.44
667.85	33582.01
667.99	33514.13
668.13	33596.05
668.27	33897.98
668.41	33830.10
668.56	33376.04
668.70	33734.14
668.84	33591.37
668.98	33448.60
669.12	33441.57
669.26	33312.84
669.40	33088.15
669.54	33006.23
669.68	33439.23
669.82	32652.81
669.96	32914.95
670.10	32933.68
670.25	32851.76
670.39	33071.77
670.53	32952.40
670.67	32311.10
670.81	32704.31
670.95	32716.01
671.09	32318.12
671.23	32833.04
671.37	32603.66
671.51	32367.27
671.65	32306.41
671.79	32273.65
671.93	31871.07
672.07	32655.15
672.21	32051.30
672.35	31798.52
672.49	32233.86
672.63	32027.89
672.77	31983.42
672.91	31796.18
673.05	31510.63
673.19	31585.53
673.33	31756.39
673.47	31777.45
673.61	31438.08
673.75	31220.41
673.89	31299.98
674.03	31108.06
674.17	30897.41
674.31	30965.29
674.45	31129.12
674.59	31037.84
674.73	31267.22
674.87	31002.74
675.01	30600.16
675.15	31159.55
675.29	30494.84
675.43	30609.53
675.56	30731.23
675.70	30347.39
675.84	30668.04
675.98	29486.07
676.12	29919.07
676.26	30171.85
676.40	29788.00
676.54	29900.34
676.68	29806.72
676.82	29652.25
676.96	29551.60
677.10	29441.60
677.23	29355.00
677.37	29294.14
677.51	29490.75
677.65	28945.41
677.79	29109.24
677.93	29495.43
678.07	28591.98
678.21	29029.66
678.34	28830.72
678.48	28304.10
678.62	29036.69
678.76	28830.72
678.90	28545.17
679.04	28355.59
679.18	28912.64
679.31	27784.50
679.45	27793.86
679.59	27901.53
679.73	27747.05
679.87	28105.15
680.00	28027.92
680.14	27857.06
680.28	27473.21
680.42	27510.66
680.56	27522.36
680.70	27527.04
680.83	27054.25
680.97	26890.41
681.11	26916.16
681.25	27091.70
681.39	27037.87
681.52	27063.61
681.66	27070.64
681.80	26801.47
681.94	27108.08
682.07	26759.34
682.21	26272.51
682.35	26206.98
682.49	26429.33
682.62	26300.60
682.76	26267.83
682.90	25799.73
683.04	26036.12
683.17	26202.30
683.31	25968.24
683.45	26125.06
683.59	25502.48
683.72	25738.87
683.86	25163.10
684.00	25242.68
684.13	25455.67
684.27	25589.08
684.41	24931.39
684.55	24865.85
684.68	25097.56
684.82	24828.40
684.96	24629.46
685.09	24404.77
685.23	24465.62
685.37	24636.48
685.50	24355.61
685.64	24355.61
685.78	24402.43
685.91	24486.68
686.05	24456.26
686.19	24261.99
686.32	24046.66
686.46	23681.54
686.60	23763.46
686.73	23733.03
686.87	23494.30
687.01	23410.04
687.14	23454.51
687.28	23262.58
687.42	23105.77
687.55	22824.90
687.69	22850.65
687.82	23227.48
687.96	22984.06
688.10	22803.84
688.23	22867.03
688.37	22670.43
688.50	22459.78
688.64	22405.95
688.78	22293.60
688.91	21968.27
689.05	22075.93
689.18	22136.79
689.32	21661.66
689.46	21895.71
689.59	21996.35
689.73	22087.64
689.86	21797.41
690.00	21652.30
690.13	21837.20
690.27	21312.92
690.41	21425.26
690.54	21102.27
690.68	21312.92
690.81	21081.21
690.95	21247.38
691.08	21352.71
691.22	21167.80
691.35	21027.37
691.49	21135.04
691.62	21097.59
691.76	20978.22
691.89	20695.02
692.03	20793.32
692.16	20615.44
692.30	20800.34
692.43	20301.81
692.57	20102.86
692.70	20442.24
692.84	19936.68
692.97	20215.21
693.11	19817.32
693.24	19793.91
693.38	19875.83
693.51	19538.79
693.65	19501.34
693.78	19609.01
693.92	19829.02
694.05	19499.00
694.19	19365.59
694.32	19058.98
694.45	19110.47
694.59	19007.49
694.72	18899.83
694.86	18637.69
694.99	18838.97
695.13	18951.32
695.26	18658.75
695.39	18324.05
695.53	18670.45
695.66	18356.82
695.80	18274.90
695.93	18394.27
696.07	17935.53
696.20	18253.84
696.33	18082.98
696.47	17951.91
696.60	18097.02
696.73	17937.87
696.87	17465.08
697.00	17699.13
697.14	17364.43
697.27	17249.75
697.40	17490.82
697.54	17415.93
697.67	17245.07
697.80	17184.21
697.94	16917.39
698.07	17247.41
698.21	17008.67
698.34	17123.36
698.47	17048.46
698.61	16486.73
698.74	16336.94
698.87	16425.88
699.01	16379.07
699.14	16266.72
699.27	16603.76
699.40	16334.60
699.54	16390.77
699.67	16053.73
699.80	16074.80
699.94	16011.60
700.07	16212.89
700.20	15946.07
700.34	15784.57
700.47	15742.44
700.60	15857.13
700.73	15978.84
700.87	15382.00
701.00	15442.85
701.13	15742.44
701.26	15431.15
701.40	15360.94
701.53	15257.95
701.66	15208.80
701.79	15293.06
701.93	14911.55
702.06	14916.23
702.19	14839.00
702.32	14815.59
702.46	14991.13
702.59	14703.25
702.72	14937.30
702.85	14780.48
702.99	14764.10
703.12	14869.42
703.25	14506.64
703.38	14670.48
703.51	14443.45
703.65	14263.22
703.78	14141.52
703.91	14132.15
704.04	14099.39
704.17	14310.04
704.31	13577.45
704.44	13785.76
704.57	13596.17
704.70	13696.82
704.83	13731.92
704.96	13504.89
705.10	13640.64
705.23	13692.13
>>>>>End Processed Spectral Data<<<<<
