SpectraSuite Data File
++++++++++++++++++++++++++++++++++++
Date: Fri Oct 25 11:34:03 EDT 2013
User: price-jones
Dark Spectrum Present: No
Reference Spectrum Present: No
Number of Sampled Component Spectra: 1
Spectrometers: USB2+H05261
Integration Time (usec): 100000 (USB2+H05261)
Spectra Averaged: 1 (USB2+H05261)
Boxcar Smoothing: 0 (USB2+H05261)
Correct for Electrical Dark: No (USB2+H05261)
Strobe/Lamp Enabled: No (USB2+H05261)
Correct for Detector Non-linearity: No (USB2+H05261)
Correct for Stray Light: No (USB2+H05261)
Number of Pixels in Processed Spectrum: 2048
>>>>>Begin Processed Spectral Data<<<<<
365.73	264.48
365.92	264.48
366.12	264.48
366.32	227.03
366.52	175.54
366.72	187.24
366.91	161.50
367.11	168.52
367.31	156.82
367.51	189.58
367.70	135.75
367.90	229.37
368.10	259.80
368.30	163.84
368.49	131.07
368.69	222.35
368.89	180.22
369.09	161.50
369.28	231.71
369.48	212.99
369.68	198.95
369.87	208.31
370.07	301.93
370.27	318.31
370.47	395.55
370.66	540.66
370.86	517.26
371.06	519.60
371.25	564.07
371.45	456.40
371.65	622.58
371.84	531.30
372.04	580.45
372.24	578.11
372.44	575.77
372.63	578.11
372.83	617.90
373.03	624.92
373.22	634.29
373.42	557.05
373.62	629.60
373.81	603.86
374.01	601.52
374.21	650.67
374.40	676.41
374.60	662.37
374.79	582.79
374.99	573.43
375.19	638.97
375.38	653.01
375.58	718.54
375.78	629.60
375.97	594.50
376.17	713.86
376.37	662.37
376.56	636.63
376.76	650.67
376.95	650.67
377.15	617.90
377.35	629.60
377.54	667.05
377.74	589.82
377.93	636.63
378.13	730.25
378.33	770.04
378.52	720.88
378.72	697.48
378.91	746.63
379.11	737.27
379.31	748.97
379.50	685.78
379.70	662.37
379.89	826.21
380.09	657.69
380.28	741.95
380.48	697.48
380.68	676.41
380.87	711.52
381.07	692.80
381.26	812.17
381.46	720.88
381.65	704.50
381.85	816.85
382.04	725.57
382.24	842.59
382.43	856.64
382.63	849.61
382.83	777.06
383.02	847.27
383.22	805.14
383.41	751.31
383.61	826.21
383.80	840.25
384.00	779.40
384.19	828.55
384.39	765.36
384.58	788.76
384.78	723.23
384.97	840.25
385.17	887.06
385.36	837.91
385.56	833.23
385.75	805.14
385.95	809.83
386.14	786.42
386.34	809.83
386.53	877.70
386.72	814.51
386.92	870.68
387.11	875.36
387.31	945.58
387.50	830.89
387.70	924.51
387.89	877.70
388.09	835.57
388.28	980.68
388.48	861.32
388.67	905.79
388.86	870.68
389.06	933.87
389.25	945.58
389.45	910.47
389.64	957.28
389.84	952.60
390.03	912.81
390.22	968.98
390.42	959.62
390.61	966.64
390.81	950.26
391.00	1039.20
391.19	908.13
391.39	940.90
391.58	1074.31
391.78	1036.86
391.97	1050.90
392.16	990.05
392.36	973.66
392.55	1060.26
392.75	971.32
392.94	1160.91
393.13	1076.65
393.33	997.07
393.52	1083.67
393.71	1107.07
393.91	1032.18
394.10	1088.35
394.29	1088.35
394.49	1039.20
394.68	1011.11
394.88	1130.48
395.07	1177.29
395.26	1090.69
395.46	1172.61
395.65	1172.61
395.84	1160.91
396.04	1198.35
396.23	1135.16
396.42	1121.12
396.62	1212.40
396.81	1261.55
397.00	1193.67
397.19	1156.22
397.39	1165.59
397.58	1235.80
397.77	1130.48
397.97	1308.36
398.16	1224.10
398.35	1238.14
398.55	1280.27
398.74	1320.06
398.93	1366.87
399.12	1252.19
399.32	1247.51
399.51	1308.36
399.70	1310.70
399.90	1303.68
400.09	1313.04
400.28	1404.32
400.47	1343.47
400.67	1420.71
400.86	1294.32
401.05	1413.68
401.24	1425.39
401.44	1401.98
401.63	1430.07
401.82	1418.36
402.01	1416.02
402.21	1434.75
402.40	1460.49
402.59	1439.43
402.78	1504.96
402.97	1511.99
403.17	1474.54
403.36	1537.73
403.55	1432.41
403.74	1528.37
403.93	1610.29
404.13	1612.63
404.32	1516.67
404.51	1558.80
404.70	1617.31
404.89	1476.88
405.09	1593.90
405.28	1654.76
405.47	1825.62
405.66	1767.10
405.85	1631.35
406.05	1717.95
406.24	1717.95
406.43	1696.89
406.62	1832.64
406.81	1760.08
407.00	1746.04
407.20	1799.87
407.39	1832.64
407.58	1818.60
407.77	1865.41
407.96	1820.94
408.15	1884.13
408.34	1856.04
408.54	1856.04
408.73	1834.98
408.92	2045.63
409.11	1989.46
409.30	1952.01
409.49	1895.83
409.68	1994.14
409.87	1933.28
410.07	1954.35
410.26	1912.22
410.45	2094.78
410.64	2064.35
410.83	2078.40
411.02	2059.67
411.21	2010.52
411.40	2172.02
411.59	2160.31
411.78	2043.29
411.98	2127.55
412.17	2267.98
412.36	2361.60
412.55	2286.70
412.74	2382.67
412.93	2256.28
413.12	2279.68
413.31	2338.20
413.50	2305.43
413.69	2345.22
413.88	2495.01
414.07	2422.45
414.26	2490.33
414.45	2434.16
414.64	2487.99
414.83	2551.18
415.02	2609.70
415.22	2635.44
415.41	2644.81
415.60	2630.76
415.79	2691.62
415.98	2679.91
416.17	2752.47
416.36	2679.91
416.55	2637.78
416.74	2775.88
416.93	2750.13
417.12	2743.11
417.31	2867.16
417.50	2843.75
417.69	2974.82
417.88	2995.89
418.07	2796.94
418.26	2974.82
418.45	3019.29
418.64	3052.06
418.83	3073.12
419.02	3007.59
419.21	2951.42
419.39	3126.96
419.58	2960.78
419.77	2960.78
419.96	3030.99
420.15	3150.36
420.34	3077.80
420.53	3016.95
420.72	3162.06
420.91	3232.28
421.10	3201.85
421.29	3262.71
421.48	3248.66
421.67	3375.05
421.86	3251.00
422.05	3377.39
422.24	3169.09
422.43	3267.39
422.61	3253.34
422.80	3220.58
422.99	3454.63
423.18	3407.82
423.37	3309.52
423.56	3325.90
423.75	3412.50
423.94	3171.43
424.13	3187.81
424.32	3155.04
424.50	3344.63
424.69	3405.48
424.88	3414.84
425.07	3309.52
425.26	3304.84
425.45	3370.37
425.64	3396.12
425.83	3358.67
426.01	3335.26
426.20	3468.67
426.39	3466.33
426.58	3431.23
426.77	3377.39
426.96	3478.04
427.15	3489.74
427.33	3496.76
427.52	3445.27
427.71	3541.23
427.90	3536.55
428.09	3555.27
428.28	3721.45
428.46	3630.17
428.65	3719.11
428.84	3751.88
429.03	3728.47
429.22	3653.58
429.40	3714.43
429.59	3559.95
429.78	3655.92
429.97	3576.34
430.16	3644.21
430.34	3817.41
430.53	3845.50
430.72	3810.39
430.91	3803.37
431.10	3702.73
431.28	3882.95
431.47	3899.33
431.66	4028.06
431.85	3808.05
432.03	4016.36
432.22	4044.45
432.41	3936.78
432.60	3950.82
432.79	4014.02
432.97	4105.30
433.16	4084.23
433.35	4072.53
433.54	4077.21
433.72	4072.53
433.91	4093.60
434.10	4308.93
434.28	4128.70
434.47	4184.88
434.66	4231.69
434.85	4332.33
435.03	4269.14
435.22	4243.39
435.41	4428.29
435.59	4241.05
435.78	4222.33
435.97	4379.14
436.16	4334.67
436.34	4339.35
436.53	4482.13
436.72	4428.29
436.90	4311.27
437.09	4430.63
437.28	4449.36
437.46	4454.04
437.65	4442.34
437.84	4568.73
438.02	4447.02
438.21	4566.39
438.40	4571.07
438.58	4535.96
438.77	4720.86
438.96	4571.07
439.14	4793.42
439.33	4880.02
439.52	4849.59
439.70	4847.25
439.89	4896.40
440.08	4887.04
440.26	4936.19
440.45	4737.24
440.63	4952.57
440.82	5109.39
441.01	4915.12
441.19	5071.94
441.38	5062.58
441.57	5083.64
441.75	5233.44
441.94	5277.91
442.12	5479.19
442.31	5376.21
442.50	5359.83
442.68	5149.18
442.87	5359.83
443.05	5252.16
443.24	5418.34
443.43	5502.60
443.61	5364.51
443.80	5696.86
443.98	5495.58
444.17	5245.14
444.35	5465.15
444.54	5530.69
444.73	5523.66
444.91	5607.92
445.10	5507.28
445.28	5664.10
445.47	5603.24
445.65	5521.32
445.84	5621.97
446.02	5664.10
446.21	5584.52
446.39	5586.86
446.58	5614.95
446.77	5673.46
446.95	5577.50
447.14	5516.64
447.32	5621.97
447.51	5647.71
447.69	5561.11
447.88	5565.79
448.06	5694.52
448.25	5755.38
448.43	5750.70
448.62	5565.79
448.80	5556.43
448.99	5753.04
449.17	5944.96
449.36	5870.06
449.54	5827.93
449.73	5987.09
449.91	5884.11
450.10	5991.77
450.28	5996.45
450.46	6031.56
450.65	5966.03
450.83	6080.71
451.02	6050.28
451.20	6005.81
451.39	6160.29
451.57	6052.63
451.76	5912.19
451.94	6078.37
452.13	6260.93
452.31	6064.33
452.49	6097.10
452.68	6221.14
452.86	6162.63
453.05	6338.17
453.23	6490.31
453.42	6195.40
453.60	6296.04
453.78	6394.34
453.97	6516.05
454.15	6258.59
454.34	6394.34
454.52	6399.02
454.70	6441.15
454.89	6389.66
455.07	6546.48
455.26	6527.75
455.44	6572.22
455.62	6497.33
455.81	6696.27
455.99	6443.49
456.17	6513.71
456.36	6675.21
456.54	6717.34
456.73	6663.51
456.91	6857.77
457.09	6834.36
457.28	7061.40
457.46	6932.67
457.64	7129.27
457.83	6909.26
458.01	7042.67
458.19	7033.31
458.38	6913.94
458.56	7211.19
458.74	6953.73
458.93	7138.63
459.11	7131.61
459.29	7087.14
459.48	7108.21
459.66	7255.66
459.84	7300.13
460.03	7180.76
460.21	7194.81
460.39	7365.67
460.57	7351.62
460.76	7377.37
460.94	7391.41
461.12	7346.94
461.31	7391.41
461.49	7328.22
461.67	7527.16
461.85	7258.00
462.04	7536.52
462.22	7852.50
462.40	7658.23
462.59	7700.36
462.77	7716.75
462.95	7569.29
463.13	7517.80
463.32	7590.36
463.50	7676.96
463.68	7801.01
463.86	7810.37
464.05	7714.41
464.23	7550.57
464.41	7644.19
464.59	7581.00
464.78	8056.12
464.96	7817.39
465.14	7691.00
465.32	7927.39
465.50	7911.01
465.69	7936.76
465.87	8011.65
466.05	7880.58
466.23	7843.14
466.41	8032.72
466.60	8208.26
466.78	8182.51
466.96	8021.02
467.14	8051.44
467.32	8124.00
467.51	8105.28
467.69	8138.04
467.87	8121.66
468.05	8238.69
468.23	8039.74
468.41	8231.66
468.60	8187.19
468.78	8311.24
468.96	8231.66
469.14	8344.01
469.32	8482.10
469.50	8182.51
469.69	8575.72
469.87	8596.79
470.05	8329.97
470.23	8538.27
470.41	8538.27
470.59	8779.35
470.77	8702.11
470.95	8713.81
471.14	8882.33
471.32	8734.88
471.50	8704.45
471.68	9048.51
471.86	8968.93
472.04	8833.18
472.22	9071.92
472.40	9013.40
472.58	8973.61
472.77	9020.42
472.95	9135.11
473.13	9415.98
473.31	9121.07
473.49	9163.20
473.67	9221.71
473.85	9408.95
474.03	9502.58
474.21	9472.15
474.39	9626.62
474.57	9661.73
474.75	9577.47
474.93	9745.99
475.12	9848.97
475.30	9907.49
475.48	9799.82
475.66	10047.92
475.84	9973.02
476.02	10083.03
476.20	10054.94
476.38	10321.76
476.56	10628.37
476.74	10457.51
476.92	10464.54
477.10	10363.89
477.28	10506.66
477.46	10420.06
477.64	10684.55
477.82	10675.18
478.00	10899.87
478.18	10965.41
478.36	10963.07
478.54	11098.82
478.72	11290.74
478.90	11222.87
479.08	11442.88
479.26	11463.94
479.44	11433.52
479.62	11515.44
479.80	11660.55
479.98	11651.19
480.16	12081.85
480.34	11824.39
480.52	11908.65
480.70	12131.00
480.88	11976.52
481.06	12182.49
481.24	12039.72
481.41	12245.68
481.59	12617.83
481.77	12821.45
481.95	12793.37
482.13	12954.87
482.31	12919.76
482.49	13036.78
482.67	12987.63
482.85	13153.81
483.03	13275.52
483.21	13455.74
483.39	13523.62
483.57	13305.95
483.74	13614.90
483.92	13568.09
484.10	13568.09
484.28	14113.43
484.46	14272.59
484.64	14431.74
484.82	14176.62
485.00	14523.02
485.18	14831.97
485.35	14941.98
485.53	14738.35
485.71	14913.89
485.89	15178.37
486.07	15077.73
486.25	14780.48
486.43	15374.98
486.61	15255.61
486.78	15763.51
486.96	15463.92
487.14	15695.63
487.32	15712.02
487.50	15981.18
487.68	16037.35
487.85	16348.64
488.03	16695.04
488.21	16472.69
488.39	16706.74
488.57	16730.15
488.75	16933.78
488.92	17268.47
489.10	17062.51
489.28	17357.41
489.46	17467.42
489.64	17551.68
489.81	17715.51
489.99	17659.34
490.17	18022.12
490.35	18094.68
490.53	18244.48
490.70	18192.98
490.88	18246.82
491.06	18609.60
491.24	18443.42
491.41	18862.38
491.59	18672.79
491.77	18808.54
491.95	19204.10
492.13	19243.88
492.30	19103.45
492.48	19255.59
492.66	19503.68
492.84	19798.59
493.01	19854.76
493.19	19838.38
493.37	20100.52
493.54	20322.87
493.72	20245.63
493.90	20233.93
494.08	20390.75
494.25	20765.23
494.43	20535.86
494.61	20854.17
494.79	21106.95
494.96	20940.77
495.14	21383.13
495.32	21296.53
495.49	21418.24
495.67	21659.32
495.85	21755.28
496.02	21539.95
496.20	22157.85
496.38	22036.14
496.55	22199.98
496.73	22541.70
496.91	22326.37
497.09	22522.98
497.26	22396.59
497.44	22249.13
497.62	22588.51
497.79	22965.34
497.97	23075.34
498.14	22944.27
498.32	23065.98
498.50	23393.65
498.67	23323.44
498.85	23662.82
499.03	23623.03
499.20	23608.98
499.38	23613.66
499.56	23683.88
499.73	24175.39
499.91	24418.81
500.08	24219.86
500.26	24222.20
500.44	24362.64
500.61	24250.29
500.79	24306.46
500.97	24634.14
501.14	24961.81
501.32	24828.40
501.49	24912.66
501.67	25125.65
501.84	25165.44
502.02	25069.48
502.20	25156.08
502.37	24959.47
502.55	25139.69
502.72	25544.61
502.90	25046.07
503.07	25551.63
503.25	25645.25
503.43	25586.74
503.60	25853.56
503.78	25965.90
503.95	26038.46
504.13	26099.31
504.30	25734.19
504.48	26066.55
504.65	26375.50
504.83	26651.68
505.01	26551.04
505.18	26513.59
505.36	26614.23
505.53	26448.05
505.71	26836.58
505.88	26831.90
506.06	26581.46
506.23	26934.88
506.41	27087.02
506.58	27454.48
506.76	27206.39
506.93	27325.75
507.11	27562.15
507.28	27735.35
507.46	27606.62
507.63	27580.87
507.81	27833.65
507.98	27873.44
508.16	28231.54
508.33	28189.41
508.50	28135.58
508.68	28346.23
508.85	28556.88
509.03	28470.28
509.20	28348.57
509.38	29350.32
509.55	28865.83
509.73	28804.97
509.90	29010.94
510.08	28643.48
510.25	29043.71
510.42	29024.98
510.60	29439.26
510.77	29497.77
510.95	29528.20
511.12	29347.98
511.30	29610.12
511.47	29759.91
511.64	29373.72
511.82	29734.17
511.99	29956.52
512.17	29996.31
512.34	29902.68
512.51	30099.29
512.69	30389.52
512.86	30045.46
513.04	30050.14
513.21	30270.15
513.38	30721.87
513.56	30625.91
513.73	30485.48
513.90	30415.26
514.08	30810.81
514.25	31070.61
514.43	30918.48
514.60	30998.06
514.77	30806.13
514.95	31194.66
515.12	31058.91
515.29	31068.27
515.47	31384.24
515.64	31409.99
515.81	31346.79
515.99	31386.58
516.16	31431.05
516.33	31864.05
516.51	31503.61
516.68	31798.52
516.85	32030.23
517.03	32247.90
517.20	32133.21
517.37	32046.62
517.54	32170.66
517.72	31859.37
517.89	32390.67
518.06	32339.18
518.24	32643.45
518.41	32430.46
518.58	32589.62
518.75	32187.05
518.93	33198.16
519.10	32563.87
519.27	33076.45
519.45	32929.00
519.62	33312.84
519.79	33235.61
519.96	32938.36
520.14	33427.53
520.31	33193.48
520.48	33233.27
520.65	33708.40
520.83	33883.94
521.00	33504.77
521.17	33528.17
521.34	33795.00
521.52	34302.89
521.69	33750.52
521.86	34092.24
522.03	34043.09
522.20	34338.00
522.38	34513.54
522.55	34202.25
522.72	34188.21
522.89	34548.65
523.07	34487.79
523.24	34494.82
523.41	34792.06
523.58	34555.67
523.75	34656.31
523.92	34590.78
524.10	34721.85
524.27	35147.82
524.44	35421.67
524.61	35321.02
524.78	35234.42
524.96	35363.15
525.13	35290.60
525.30	35644.02
525.47	35618.27
525.64	35468.48
525.81	35342.09
525.98	35709.55
526.16	35566.78
526.33	35700.19
526.50	36107.44
526.67	35847.64
526.84	35892.12
527.01	35779.77
527.18	35854.67
527.36	36133.19
527.53	36451.50
527.70	36559.17
527.87	36645.77
528.04	36123.83
528.21	36610.66
528.38	36655.13
528.55	37015.57
528.72	36360.22
528.89	36685.56
529.07	36587.25
529.24	36664.49
529.41	37125.58
529.58	36701.94
529.75	36449.16
529.92	36940.68
530.09	36847.05
530.26	37518.79
530.43	37127.92
530.60	37046.00
530.77	36940.68
530.94	37291.76
531.11	37017.91
531.28	37181.75
531.46	37343.25
531.63	37251.97
531.80	37418.14
531.97	37764.54
532.14	37638.15
532.31	37439.21
532.48	37626.45
532.65	38000.94
532.82	37846.46
532.99	38075.84
533.16	37769.22
533.33	38024.34
533.50	38288.82
533.67	37858.17
533.84	37785.61
534.01	38553.30
534.18	38197.54
534.35	38494.79
534.52	38225.63
534.69	38806.08
534.86	38799.06
535.03	38548.62
535.20	38866.94
535.37	38403.51
535.54	38712.46
535.71	38848.21
535.88	38588.41
536.05	39150.14
536.22	39351.43
536.38	39054.18
536.55	38904.38
536.72	38773.31
536.89	39012.05
537.06	39138.44
537.23	39461.43
537.40	39194.61
537.57	38902.04
537.74	39367.81
537.91	39372.49
538.08	39639.31
538.25	39241.42
538.42	39550.37
538.59	39728.25
538.75	39522.29
538.92	39374.83
539.09	40229.13
539.26	39903.79
539.43	39976.35
539.60	39742.30
539.77	39856.98
539.94	40051.25
540.11	40292.32
540.28	39728.25
540.44	40177.64
540.61	39988.05
540.78	39924.86
540.95	40236.15
541.12	39915.50
541.29	40084.01
541.46	40245.51
541.62	40135.51
541.79	40706.60
541.96	40121.46
542.13	40343.81
542.30	40479.57
542.47	40797.88
542.63	40685.53
542.80	40708.94
542.97	41188.75
543.14	41160.66
543.31	41434.50
543.48	41081.08
543.64	41425.14
543.81	41298.75
543.98	40966.40
544.15	40996.82
544.32	41371.31
544.48	41659.20
544.65	41921.34
544.82	41783.24
544.99	41500.04
545.16	41488.34
545.32	41626.43
545.49	41956.44
545.66	41993.89
545.83	41759.84
546.00	42017.30
546.16	41991.55
546.33	41525.78
546.50	41720.05
546.67	42241.99
546.83	41490.68
547.00	42204.54
547.17	41778.56
547.34	42305.18
547.50	42522.85
547.67	42307.52
547.84	42328.59
548.00	42572.00
548.17	42513.49
548.34	42384.76
548.51	42932.45
548.67	42639.88
548.84	42588.39
549.01	42595.41
549.18	42155.39
549.34	42459.66
549.51	42684.35
549.68	42876.27
549.84	42443.27
550.01	42806.06
550.18	42309.86
550.34	42581.37
550.51	43117.35
550.68	42714.78
550.84	42387.10
551.01	42983.94
551.18	42550.94
551.34	42792.01
551.51	42859.89
551.68	43281.19
551.84	42911.38
552.01	42932.45
552.18	43119.69
552.34	43124.37
552.51	43433.32
552.68	43217.99
552.84	43096.28
553.01	43402.89
553.18	43484.81
553.34	43463.75
553.51	43112.67
553.67	43201.61
553.84	43709.50
554.01	43622.90
554.17	43695.46
554.34	44051.22
554.51	43665.03
554.67	43903.77
554.84	44247.83
555.00	43934.20
555.17	43777.38
555.33	43901.43
555.50	44044.20
555.67	44004.41
555.83	44243.15
556.00	44062.93
556.16	44119.10
556.33	44006.75
556.50	43920.15
556.66	44032.50
556.83	43849.94
556.99	44296.98
557.16	44657.42
557.32	44561.46
557.49	44238.47
557.65	44329.75
557.82	44034.84
557.98	44191.65
558.15	44751.04
558.32	44346.13
558.48	44477.20
558.65	44664.44
558.81	44823.60
558.98	44147.18
559.14	44570.82
559.31	44444.43
559.47	44275.91
559.64	44402.30
559.80	44795.51
559.97	45050.63
560.13	44549.76
560.30	44538.05
560.46	44540.39
560.63	44910.20
560.79	44935.95
560.96	45380.65
561.12	44959.35
561.29	45191.06
561.45	45184.04
561.61	45038.93
561.78	45172.34
561.94	44540.39
562.11	44919.56
562.27	45130.21
562.44	45062.33
562.60	45158.30
562.77	44940.63
562.93	44816.58
563.10	45464.91
563.26	45338.52
563.42	45605.34
563.59	45059.99
563.75	45162.98
563.92	44847.00
564.08	45123.19
564.24	45343.20
564.41	45193.40
564.57	45249.58
564.74	45209.79
564.90	45116.17
565.07	45322.13
565.23	45518.74
565.39	45504.70
565.56	45834.71
565.72	45050.63
565.88	45516.40
566.05	45495.33
566.21	45425.12
566.38	45490.65
566.54	46150.68
566.70	45815.99
566.87	45359.58
567.03	45631.08
567.19	45886.20
567.36	45638.11
567.52	45738.75
567.68	46050.04
567.85	45745.77
568.01	45918.97
568.17	45879.18
568.34	46143.66
568.50	45748.11
568.66	45399.37
568.83	45698.96
568.99	45815.99
569.15	45560.87
569.32	45640.45
569.48	45755.13
569.64	46033.66
569.81	45769.18
569.97	46246.65
570.13	45970.46
570.30	45432.14
570.46	45879.18
570.62	45860.46
570.78	45904.93
570.95	46094.51
571.11	46167.07
571.27	45811.31
571.43	45815.99
571.60	45933.01
571.76	45853.44
571.92	45474.27
572.09	45902.59
572.25	45467.25
572.41	45879.18
572.57	45649.81
572.74	46494.74
572.90	45855.78
573.06	46005.57
573.22	46204.52
573.38	46700.71
573.55	46349.63
573.71	46342.61
573.87	46026.63
574.03	46373.03
574.20	46354.31
574.36	46415.16
574.52	46054.72
574.68	46632.83
574.84	46239.62
575.01	46384.74
575.17	46658.58
575.33	46188.13
575.49	46480.70
575.65	46405.80
575.82	46333.24
575.98	46026.63
576.14	46422.19
576.30	46073.45
576.46	46396.44
576.62	46281.75
576.79	46490.06
576.95	46014.93
577.11	46167.07
577.27	46433.89
577.43	46267.71
577.59	46064.08
577.75	45827.69
577.92	45954.08
578.08	46351.97
578.24	46108.55
578.40	46576.66
578.56	46302.82
578.72	46595.38
578.88	46314.52
579.04	46363.67
579.21	46691.35
579.37	46316.86
579.53	46614.11
579.69	46380.06
579.85	46754.54
580.01	46518.15
580.17	46174.09
580.33	46466.66
580.49	46700.71
580.65	46141.32
580.82	46344.95
580.98	45996.21
581.14	46349.63
581.30	46616.45
581.46	46689.01
581.62	46052.38
581.78	46209.20
581.94	46452.61
582.10	46358.99
582.26	46501.76
582.42	46590.70
582.58	46969.87
582.74	46820.08
582.90	46417.50
583.06	46604.75
583.22	46230.26
583.38	46452.61
583.54	46794.33
583.70	46838.80
583.86	46782.63
584.02	46227.92
584.18	46562.62
584.34	46925.40
584.50	46864.55
584.66	46253.67
584.82	46794.33
584.98	46955.83
585.14	46653.90
585.30	46176.43
585.46	46424.53
585.62	46335.59
585.78	46614.11
585.94	46410.48
586.10	46295.80
586.26	46492.40
586.42	46625.81
586.58	46499.42
586.74	46347.29
586.90	46904.34
587.06	46660.92
587.22	46726.46
587.38	46679.64
587.54	46796.67
587.70	47175.84
587.86	46815.40
588.02	46602.41
588.18	46609.43
588.34	46944.12
588.49	47157.11
588.65	46983.91
588.81	46579.00
588.97	46925.40
589.13	46906.68
589.29	46602.41
589.45	47075.19
589.61	46838.80
589.77	46824.76
589.93	46852.84
590.08	46852.84
590.24	47164.14
590.40	47292.86
590.56	47210.95
590.72	47037.75
590.88	46944.12
591.04	47131.37
591.20	47164.14
591.35	46742.84
591.51	47489.47
591.67	47416.91
591.83	47351.38
591.99	47683.73
592.15	46916.04
592.31	47463.72
592.46	47164.14
592.62	47110.30
592.78	47487.13
592.94	47800.76
593.10	47571.39
593.26	47592.45
593.41	47297.55
593.57	46960.51
593.73	47452.02
593.89	48023.11
594.05	47449.68
594.20	46990.94
594.36	47426.28
594.52	47498.83
594.68	47164.14
594.84	47531.60
594.99	47779.70
595.15	47091.58
595.31	47540.96
595.47	47086.90
595.62	47569.05
595.78	47290.52
595.94	47267.12
596.10	47232.01
596.25	48163.54
596.41	47536.28
596.57	47037.75
596.73	47927.15
596.88	47072.85
597.04	47508.19
597.20	47501.17
597.36	47578.41
597.51	47398.19
597.67	47110.30
597.83	47103.28
597.99	47562.03
598.14	47152.43
598.30	47545.64
598.46	47332.65
598.61	48381.21
598.77	47608.84
598.93	47519.90
599.09	47662.67
599.24	47456.70
599.40	47409.89
599.56	47529.26
599.71	47620.54
599.87	48318.02
600.03	47765.65
600.18	47562.03
600.34	47419.25
600.50	47583.09
600.65	47468.40
600.81	47814.80
600.97	47627.56
601.12	47885.02
601.28	47283.50
601.44	47629.90
601.59	47873.32
601.75	47608.84
601.91	47791.40
602.06	47648.63
602.22	47669.69
602.37	46967.53
602.53	47154.77
602.69	47711.82
602.84	47320.95
603.00	47501.17
603.16	47316.27
603.31	47559.69
603.47	47639.26
603.62	47524.58
603.78	47767.99
603.94	47416.91
604.09	47667.35
604.25	47735.23
604.40	47480.11
604.56	47583.09
604.71	48135.46
604.87	47196.90
605.03	47367.76
605.18	47522.24
605.34	47449.68
605.49	47430.96
605.65	47386.49
605.80	47435.64
605.96	47131.37
606.12	47409.89
606.27	47683.73
606.43	47475.43
606.58	47674.37
606.74	47484.79
606.89	47505.85
607.05	47456.70
607.20	47463.72
607.36	47299.89
607.51	47454.36
607.67	47433.30
607.82	47129.03
607.98	47339.68
608.13	47276.48
608.29	47854.59
608.44	47077.54
608.60	46939.44
608.75	47683.73
608.91	47206.26
609.06	47262.44
609.22	47529.26
609.37	46824.76
609.53	47330.31
609.68	47419.25
609.84	47283.50
609.99	47400.53
610.15	47466.06
610.30	47220.31
610.46	47131.37
610.61	47267.12
610.76	47592.45
610.92	46976.89
611.07	46497.08
611.23	46911.36
611.38	47047.11
611.54	46775.61
611.69	47224.99
611.84	47260.10
612.00	47089.24
612.15	47236.69
612.31	47278.82
612.46	46590.70
612.62	47199.24
612.77	46890.29
612.92	47232.01
613.08	46951.15
613.23	47276.48
613.39	46656.24
613.54	47023.70
613.69	47089.24
613.85	46944.12
614.00	47007.32
614.15	46642.20
614.31	46934.76
614.46	46859.87
614.62	46607.09
614.77	47159.45
614.92	46817.74
615.08	46672.62
615.23	46946.47
615.38	47253.08
615.54	46862.21
615.69	46740.50
615.84	46532.19
616.00	46696.03
616.15	46848.16
616.30	47199.24
616.46	46637.51
616.61	46593.04
616.76	46738.16
616.92	46412.82
617.07	46843.48
617.22	46239.62
617.37	46674.96
617.53	46653.90
617.68	46419.84
617.83	46543.89
617.99	46899.65
618.14	46983.91
618.29	46218.56
618.45	45925.99
618.60	46103.87
618.75	46043.02
618.90	45801.94
619.06	46492.40
619.21	46059.40
619.36	46389.42
619.51	46014.93
619.67	45984.51
619.82	46174.09
619.97	46213.88
620.12	46424.53
620.28	46169.41
620.43	46307.50
620.58	46239.62
620.73	46164.73
620.89	46625.81
621.04	46534.53
621.19	46623.47
621.34	46361.33
621.49	45827.69
621.65	46050.04
621.80	46209.20
621.95	46302.82
622.10	45923.65
622.25	45745.77
622.41	46155.36
622.56	46323.88
622.71	45797.26
622.86	46054.72
623.01	46272.39
623.16	45607.68
623.32	45888.54
623.47	45851.09
623.62	45804.28
623.77	45717.68
623.92	45907.27
624.07	46092.17
624.23	45993.87
624.38	45670.87
624.53	45537.46
624.68	45778.54
624.83	45907.27
624.98	45757.47
625.13	45492.99
625.29	45624.06
625.44	45617.04
625.59	45308.09
625.74	45652.15
625.89	44954.67
626.04	45553.85
626.19	45116.17
626.34	45500.01
626.49	45237.87
626.65	45062.33
626.80	45059.99
626.95	45034.25
627.10	45017.86
627.25	45347.88
627.40	45497.67
627.55	45034.25
627.70	45265.96
627.85	44802.53
628.00	45453.20
628.15	45172.34
628.30	44781.47
628.45	44715.93
628.60	44729.98
628.76	44718.28
628.91	44924.24
629.06	44531.03
629.21	45069.36
629.36	44493.58
629.51	44332.09
629.66	45071.70
629.81	44914.88
629.96	44734.66
630.11	44414.01
630.26	44212.72
630.41	44657.42
630.56	44814.24
630.71	44753.38
630.86	44811.90
631.01	44282.94
631.16	44804.88
631.31	44339.11
631.46	44671.46
631.61	44596.57
631.76	44500.61
631.91	44470.18
632.06	44804.88
632.21	44692.53
632.36	45272.98
632.51	43882.70
632.66	44484.22
632.81	44278.25
632.96	44292.30
633.10	44081.65
633.25	44172.93
633.40	44013.77
633.55	44549.76
633.70	44226.76
633.85	43470.77
634.00	43669.72
634.15	43971.64
634.30	43718.87
634.45	44114.42
634.60	44177.61
634.75	44493.58
634.90	44186.97
635.05	44002.07
635.19	44524.01
635.34	44058.24
635.49	44114.42
635.64	44479.54
635.79	44219.74
635.94	43772.70
636.09	44165.91
636.24	44044.20
636.39	43906.11
636.53	44011.43
636.68	43922.49
636.83	43377.15
636.98	43641.63
637.13	43398.21
637.28	43309.27
637.43	43782.06
637.57	43192.25
637.72	43342.04
637.87	43152.46
638.02	43529.28
638.17	43873.34
638.32	43173.52
638.46	43035.43
638.61	43002.66
638.76	43117.35
638.91	43454.39
639.06	43239.06
639.20	42990.96
639.35	43115.01
639.50	42948.83
639.65	43175.86
639.80	43421.62
639.94	42883.30
640.09	43297.57
640.24	43072.88
640.39	42969.90
640.54	42382.42
640.68	43061.18
640.83	43096.28
640.98	43349.06
641.13	42541.58
641.27	43068.20
641.42	42705.41
641.57	42696.05
641.72	43093.94
641.86	42588.39
642.01	42838.83
642.16	42693.71
642.31	42700.73
642.45	42920.74
642.60	42295.82
642.75	42398.80
642.90	42665.63
643.04	42497.11
643.19	42623.50
643.34	42284.12
643.48	41689.62
643.63	42539.24
643.78	42155.39
643.93	42703.07
644.07	42642.22
644.22	42478.38
644.37	42162.41
644.51	42590.73
644.66	42220.92
644.81	42602.43
644.95	41982.19
645.10	42251.35
645.25	42827.12
645.39	42272.42
645.54	42234.97
645.69	41757.50
645.83	41684.94
645.98	41565.57
646.13	41780.90
646.27	41855.80
646.42	41785.58
646.57	42080.49
646.71	42340.29
646.86	42232.63
647.00	41909.63
647.15	41958.78
647.30	41855.80
647.44	41869.84
647.59	41748.14
647.74	41652.17
647.88	41642.81
648.03	41935.38
648.17	42253.69
648.32	41996.23
648.47	42082.83
648.61	41490.68
648.76	41436.84
648.90	41869.84
649.05	41584.30
649.20	41970.49
649.34	41928.36
649.49	41923.68
649.63	41855.80
649.78	41572.60
649.92	41621.75
650.07	42174.11
650.21	41776.22
650.36	41572.60
650.51	41645.15
650.65	41783.24
650.80	41621.75
650.94	41333.86
651.09	41572.60
651.23	41008.53
651.38	41408.76
651.52	40584.89
651.67	41333.86
651.81	41146.62
651.96	41413.44
652.10	40807.24
652.25	41006.19
652.39	41184.07
652.54	41338.54
652.68	40549.78
652.83	41132.57
652.97	41219.17
653.12	40720.64
653.26	40804.90
653.41	40950.01
653.55	40432.75
653.70	40889.16
653.84	40942.99
653.99	41181.73
654.13	41071.72
654.27	40399.99
654.42	41265.99
654.56	40442.12
654.71	41151.30
654.85	40835.33
655.00	40725.32
655.14	40741.71
655.29	40945.33
655.43	40875.12
655.57	40416.37
655.72	40208.06
655.86	40767.45
656.01	40013.80
656.15	39995.07
656.30	40430.41
656.44	40322.75
656.58	40629.36
656.73	40287.64
656.87	40158.91
657.01	40039.54
657.16	40325.09
657.30	40636.38
657.45	40172.96
657.59	39957.63
657.73	39770.38
657.88	40142.53
658.02	40236.15
658.16	40357.86
658.31	40175.30
658.45	39871.03
658.60	40102.74
658.74	40273.60
658.88	40407.01
659.03	39519.95
659.17	39386.54
659.31	39622.93
659.46	39812.51
659.60	39913.16
659.74	39651.02
659.89	39374.83
660.03	39213.34
660.17	39847.62
660.32	39622.93
660.46	39356.11
660.60	39040.14
660.74	39714.21
660.89	39201.63
661.03	38983.96
661.17	39002.69
661.32	39136.10
661.46	38983.96
661.60	39037.80
661.74	38749.91
661.89	38721.82
662.03	38869.28
662.17	38665.65
662.31	38953.54
662.46	38785.02
662.60	38452.66
662.74	38153.07
662.88	38103.92
663.03	38424.57
663.17	38218.61
663.31	38099.24
663.45	38279.46
663.60	38525.22
663.74	38515.86
663.88	38057.11
664.02	38014.98
664.17	38478.41
664.31	37886.25
664.45	37823.06
664.59	38209.25
664.73	37673.26
664.88	37825.40
665.02	37598.37
665.16	37591.34
665.30	37741.14
665.44	37902.64
665.59	37429.85
665.73	37287.07
665.87	37209.84
666.01	37177.07
666.15	37116.22
666.29	37308.14
666.44	37518.79
666.58	37132.60
666.72	36907.91
666.86	37029.62
667.00	37071.75
667.14	37074.09
667.28	36587.25
667.43	36587.25
667.57	37130.26
667.71	36910.25
667.85	36643.43
667.99	36769.82
668.13	36594.28
668.27	36369.58
668.41	36428.10
668.56	35978.72
668.70	36140.21
668.84	35974.03
668.98	36292.35
669.12	36077.02
669.26	36182.34
669.40	35742.32
669.54	35817.22
669.68	36126.17
669.82	35697.85
669.96	35606.57
670.10	35302.30
670.25	35534.01
670.39	35456.78
670.53	35857.01
670.67	35484.86
670.81	35622.95
670.95	35496.56
671.09	35367.84
671.23	35068.25
671.37	35321.02
671.51	34969.94
671.65	34955.90
671.79	34731.21
671.93	35065.91
672.07	35133.78
672.21	35328.05
672.35	34284.17
672.49	34838.87
672.63	34806.11
672.77	34780.36
672.91	34302.89
673.05	34766.32
673.19	34026.71
673.33	34270.12
673.47	34087.56
673.61	34054.79
673.75	33928.41
673.89	33942.45
674.03	33015.60
674.17	33352.63
674.31	33324.55
674.45	33401.79
674.59	33607.75
674.73	33305.82
674.87	33525.83
675.01	33163.05
675.15	32503.02
675.29	32708.99
675.43	32826.01
675.56	32973.47
675.70	32837.72
675.84	32648.13
675.98	31805.54
676.12	32521.74
676.26	32718.35
676.40	32165.98
676.54	32561.53
676.68	32418.76
676.82	31779.79
676.96	31974.06
677.10	32201.09
677.23	31864.05
677.37	32051.30
677.51	31866.39
677.65	31730.64
677.79	31704.90
677.93	31482.55
678.07	31379.56
678.21	30951.24
678.34	31047.21
678.48	30778.04
678.62	30871.67
678.76	30239.72
678.90	30700.81
679.04	30625.91
679.18	30747.62
679.31	30373.13
679.45	30094.61
679.59	29923.75
679.73	30279.51
679.87	30274.83
680.00	30031.41
680.14	29846.51
680.28	30108.65
680.42	29696.72
680.56	29472.03
680.70	29387.77
680.83	29497.77
680.97	29291.80
681.11	29331.59
681.25	28861.15
681.39	28856.46
681.52	28992.22
681.66	28505.38
681.80	28189.41
681.94	28362.61
682.07	28313.46
682.21	28236.22
682.35	28320.48
682.49	28184.73
682.62	28025.57
682.76	28063.02
682.90	28140.26
683.04	28418.78
683.17	27800.88
683.31	27487.25
683.45	27454.48
683.59	27246.18
683.72	27175.96
683.86	27171.28
684.00	27117.45
684.13	27300.01
684.27	26742.96
684.41	27117.45
684.55	26721.90
684.68	26534.65
684.82	26656.36
684.96	26534.65
685.09	26607.21
685.23	26728.92
685.37	26705.51
685.50	26497.20
685.64	26637.64
685.78	25996.33
685.91	25645.25
686.05	25649.93
686.19	25247.36
686.32	25542.27
686.46	25408.86
686.60	24781.59
686.73	25326.94
686.87	25083.52
687.01	25570.35
687.14	25170.12
687.28	24989.90
687.42	24711.38
687.55	24315.83
687.69	24706.70
687.82	24755.85
687.96	24264.33
688.10	24212.84
688.23	24484.34
688.37	24308.80
688.50	24065.39
688.64	24147.31
688.78	23957.72
688.91	23931.98
689.05	23665.16
689.18	23424.08
689.32	23398.34
689.46	23260.24
689.59	23456.85
689.73	23784.52
689.86	23424.08
690.00	23253.22
690.13	23201.73
690.27	23126.83
690.41	22970.02
690.54	22682.13
690.68	22773.41
690.81	22602.55
690.95	22394.25
691.08	22492.55
691.22	22108.70
691.35	22277.22
691.49	22438.72
691.62	22087.64
691.76	21675.70
691.89	21788.05
692.03	21432.29
692.16	21254.40
692.30	21493.14
692.43	21514.20
692.57	21303.56
692.70	21333.98
692.84	21111.63
692.97	20877.58
693.11	20917.37
693.24	20741.83
693.38	20751.19
693.51	20940.77
693.65	20683.31
693.78	20425.86
693.92	20592.03
694.05	20154.35
694.19	20442.24
694.32	19852.42
694.45	20594.37
694.59	20187.12
694.72	20313.51
694.86	19892.21
694.99	20018.60
695.13	19522.41
695.26	19440.49
695.39	19332.82
695.53	19206.44
695.66	19494.32
695.80	19356.23
695.93	19421.77
696.07	18857.70
696.20	18700.88
696.33	18590.88
696.47	19035.58
696.60	18813.23
696.73	18766.42
696.87	18530.02
697.00	18583.85
697.14	18597.90
697.27	18188.30
697.40	18354.48
697.54	18129.79
697.67	18038.51
697.80	18284.26
697.94	18274.90
698.07	17530.61
698.21	17755.30
698.34	17631.26
698.47	17444.01
698.61	17289.54
698.74	17195.92
698.87	17380.82
699.01	16821.43
699.14	17137.40
699.27	17172.51
699.40	16737.17
699.54	17144.42
699.67	16629.51
699.80	16706.74
699.94	16620.14
700.07	16641.21
700.20	16709.08
700.34	16353.32
700.47	16145.02
700.60	16688.02
700.73	16416.52
700.87	16123.95
701.00	15859.47
701.13	16046.71
701.26	15971.82
701.40	15803.30
701.53	15810.32
701.66	15651.16
701.79	15517.75
701.93	15484.98
702.06	15077.73
702.19	15255.61
702.32	15328.17
702.46	15365.62
702.59	15529.45
702.72	15349.23
702.85	14941.98
702.99	15337.53
703.12	14881.13
703.25	14815.59
703.38	14553.45
703.51	14714.95
703.65	14581.54
703.78	14518.34
703.91	14434.08
704.04	14340.46
704.17	14258.54
704.31	14356.85
704.44	14216.41
704.57	14111.09
704.70	14104.07
704.83	13687.45
704.96	13584.47
705.10	13870.01
705.23	13774.05
>>>>>End Processed Spectral Data<<<<<
