SpectraSuite Data File
++++++++++++++++++++++++++++++++++++
Date: Fri Oct 25 10:47:35 EDT 2013
User: price-jones
Dark Spectrum Present: No
Reference Spectrum Present: No
Number of Sampled Component Spectra: 1
Spectrometers: USB2+H05261
Integration Time (usec): 100000 (USB2+H05261)
Spectra Averaged: 1 (USB2+H05261)
Boxcar Smoothing: 0 (USB2+H05261)
Correct for Electrical Dark: No (USB2+H05261)
Strobe/Lamp Enabled: No (USB2+H05261)
Correct for Detector Non-linearity: No (USB2+H05261)
Correct for Stray Light: No (USB2+H05261)
Number of Pixels in Processed Spectrum: 2048
>>>>>Begin Processed Spectral Data<<<<<
365.73	154.48
365.92	154.48
366.12	154.48
366.32	91.28
366.52	46.81
366.72	70.22
366.91	25.75
367.11	98.30
367.31	25.75
367.51	0.00
367.70	53.83
367.90	112.35
368.10	2.34
368.30	67.88
368.49	0.00
368.69	39.79
368.89	91.28
369.09	79.58
369.28	84.26
369.48	0.00
369.68	18.72
369.87	107.66
370.07	102.98
370.27	149.79
370.47	117.03
370.66	332.36
370.86	444.70
371.06	423.64
371.25	528.96
371.45	461.09
371.65	482.15
371.84	397.89
372.04	447.04
372.24	531.30
372.44	437.68
372.63	603.86
372.83	437.68
373.03	484.49
373.22	489.17
373.42	512.58
373.62	552.37
373.81	491.51
374.01	571.09
374.21	491.51
374.40	475.13
374.60	582.79
374.79	547.69
374.99	543.00
375.19	566.41
375.38	557.05
375.58	645.99
375.78	571.09
375.97	573.43
376.17	643.65
376.37	636.63
376.56	587.47
376.76	526.62
376.95	622.58
377.15	657.69
377.35	545.34
377.54	631.94
377.74	613.22
377.93	557.05
378.13	599.18
378.33	674.07
378.52	627.26
378.72	592.16
378.91	561.73
379.11	615.56
379.31	617.90
379.50	587.47
379.70	627.26
379.89	683.44
380.09	606.20
380.28	645.99
380.48	603.86
380.68	737.27
380.87	674.07
381.07	730.25
381.26	610.88
381.46	662.37
381.65	617.90
381.85	634.29
382.04	699.82
382.24	678.76
382.43	620.24
382.63	748.97
382.83	653.01
383.02	690.46
383.22	833.23
383.41	692.80
383.61	669.39
383.80	791.10
384.00	699.82
384.19	746.63
384.39	697.48
384.58	781.74
384.78	727.91
384.97	814.51
385.17	725.57
385.36	702.16
385.56	685.78
385.75	767.70
385.95	791.10
386.14	800.46
386.34	767.70
386.53	779.40
386.72	774.72
386.92	760.67
387.11	779.40
387.31	880.04
387.50	765.36
387.70	842.59
387.89	795.78
388.09	826.21
388.28	840.25
388.48	863.66
388.67	866.00
388.86	828.55
389.06	819.19
389.25	947.92
389.45	812.17
389.64	903.45
389.84	915.15
390.03	957.28
390.22	896.43
390.42	926.85
390.61	990.05
390.81	926.85
391.00	971.32
391.19	964.30
391.39	971.32
391.58	990.05
391.78	889.40
391.97	947.92
392.16	1022.81
392.36	1011.11
392.55	945.58
392.75	997.07
392.94	915.15
393.13	983.02
393.33	966.64
393.52	971.32
393.71	1001.75
393.91	1086.01
394.10	1053.24
394.29	978.34
394.49	1107.07
394.68	1177.29
394.88	1137.50
395.07	1081.33
395.26	1156.22
395.46	1097.71
395.65	1029.84
395.84	1118.78
396.04	1277.93
396.23	1090.69
396.42	1057.92
396.62	1142.18
396.81	1153.88
397.00	1116.44
397.19	1188.99
397.39	1207.72
397.58	1256.87
397.77	1203.04
397.97	1235.80
398.16	1181.97
398.35	1296.66
398.55	1343.47
398.74	1345.81
398.93	1336.45
399.12	1341.13
399.32	1401.98
399.51	1371.55
399.70	1376.24
399.90	1371.55
400.09	1418.36
400.28	1444.11
400.47	1397.30
400.67	1460.49
400.86	1420.71
401.05	1500.28
401.24	1383.26
401.44	1586.88
401.63	1600.93
401.82	1533.05
402.01	1462.83
402.21	1598.59
402.40	1486.24
402.59	1490.92
402.78	1486.24
402.97	1519.01
403.17	1610.29
403.36	1647.74
403.55	1607.95
403.74	1631.35
403.93	1540.07
404.13	1732.00
404.32	1629.01
404.51	1710.93
404.70	1610.29
404.89	1692.21
405.09	1685.19
405.28	1729.66
405.47	1706.25
405.66	1781.15
405.85	1790.51
406.05	1804.55
406.24	1799.87
406.43	1736.68
406.62	1799.87
406.81	1942.64
407.00	1748.38
407.20	1809.23
407.39	1947.33
407.58	1949.67
407.77	1928.60
407.96	1980.09
408.15	2019.88
408.34	1956.69
408.54	2052.65
408.73	2005.84
408.92	2036.27
409.11	2071.37
409.30	2050.31
409.49	2012.86
409.68	2045.63
409.87	2052.65
410.07	1998.82
410.26	2087.76
410.45	2120.53
410.64	2122.87
410.83	2237.55
411.02	2136.91
411.21	2363.94
411.40	2303.09
411.59	2279.68
411.78	2303.09
411.98	2188.40
412.17	2382.67
412.36	2443.52
412.55	2427.14
412.74	2424.80
412.93	2450.54
413.12	2415.43
413.31	2436.50
413.50	2560.55
413.69	2574.59
413.88	2541.82
414.07	2506.71
414.26	2640.12
414.45	2675.23
414.64	2593.31
414.83	2729.06
415.02	2796.94
415.22	2684.59
415.41	2778.22
415.60	2722.04
415.79	2813.32
415.98	2956.10
416.17	2771.19
416.36	2860.13
416.55	2771.19
416.74	2991.20
416.93	2974.82
417.12	2911.63
417.31	2944.39
417.50	2956.10
417.69	3000.57
417.88	2993.55
418.07	3143.34
418.26	3002.91
418.45	3194.83
418.64	3129.30
418.83	3229.94
419.02	3260.37
419.21	3241.64
419.39	3375.05
419.58	3187.81
419.77	3276.75
419.96	3255.69
420.15	3295.47
420.34	3241.64
420.53	3279.09
420.72	3389.10
420.91	3494.42
421.10	3389.10
421.29	3393.78
421.48	3475.70
421.67	3412.50
421.86	3375.05
422.05	3478.04
422.24	3304.84
422.43	3424.20
422.61	3487.40
422.80	3445.27
422.99	3639.53
423.18	3529.53
423.37	3695.71
423.56	3508.46
423.75	3559.95
423.94	3485.06
424.13	3206.53
424.32	3412.50
424.50	3515.48
424.69	3651.24
424.88	3592.72
425.07	3583.36
425.26	3426.54
425.45	3506.12
425.64	3651.24
425.83	3562.30
426.01	3590.38
426.20	3513.14
426.39	3754.22
426.58	3510.80
426.77	3515.48
426.96	3620.81
427.15	3557.61
427.33	3566.98
427.52	3576.34
427.71	3665.28
427.90	3714.43
428.09	3747.20
428.28	3812.73
428.46	3620.81
428.65	3887.63
428.84	3911.04
429.03	3936.78
429.22	3700.39
429.40	3843.16
429.59	3613.79
429.78	3676.98
429.97	3810.39
430.16	3850.18
430.34	3698.05
430.53	3859.54
430.72	3992.95
430.91	3859.54
431.10	3983.59
431.28	4056.15
431.47	3988.27
431.66	4205.94
431.85	4086.58
432.03	4042.11
432.22	4339.35
432.41	4322.97
432.60	4227.01
432.79	4126.36
432.97	4273.82
433.16	4358.08
433.35	4191.90
433.54	4283.18
433.72	4189.56
433.91	4367.44
434.10	4332.33
434.28	4442.34
434.47	4341.69
434.66	4416.59
434.85	4430.63
435.03	4444.68
435.22	4447.02
435.41	4528.94
435.59	4554.68
435.78	4596.81
435.97	4631.92
436.16	4498.51
436.34	4554.68
436.53	4615.54
436.72	4781.71
436.90	4613.20
437.09	4690.43
437.28	4512.55
437.46	4631.92
437.65	4772.35
437.84	4718.52
438.02	4713.84
438.21	4758.31
438.40	4496.17
438.58	4826.18
438.77	4997.04
438.96	4917.47
439.14	5020.45
439.33	4990.02
439.52	5020.45
439.70	5149.18
439.89	5296.63
440.08	5170.24
440.26	5254.50
440.45	5259.18
440.63	5240.46
440.82	5214.71
441.01	5231.10
441.19	5411.32
441.38	5495.58
441.57	5439.40
441.75	5626.65
441.94	5474.51
442.12	5577.50
442.31	5797.51
442.50	5628.99
442.68	5783.46
442.87	5675.80
443.05	5764.74
443.24	5856.02
443.43	5874.74
443.61	5673.46
443.80	5926.24
443.98	5750.70
444.17	5607.92
444.35	5701.54
444.54	5951.98
444.73	5888.79
444.91	5991.77
445.10	5750.70
445.28	5757.72
445.47	5736.65
445.65	5823.25
445.84	6031.56
446.02	5982.41
446.21	5886.45
446.39	5858.36
446.58	6223.48
446.77	6003.47
446.95	5757.72
447.14	6085.39
447.32	6038.58
447.51	5872.40
447.69	6038.58
447.88	6057.31
448.06	5804.53
448.25	6005.81
448.43	6085.39
448.62	6087.73
448.80	5987.09
448.99	6221.14
449.17	6080.71
449.36	6101.78
449.54	6279.66
449.73	6200.08
449.91	6403.71
450.10	6342.85
450.28	6410.73
450.46	6581.59
450.65	6422.43
450.83	6670.53
451.02	6347.53
451.20	6471.58
451.39	6399.02
451.57	6410.73
451.76	6394.34
451.94	6483.28
452.13	6424.77
452.31	6607.33
452.49	6473.92
452.68	6579.25
452.86	6478.60
453.05	6527.75
453.23	6661.16
453.42	6640.10
453.60	6569.88
453.78	6764.15
453.97	6581.59
454.15	6733.72
454.34	6738.40
454.52	6839.05
454.70	6832.02
454.89	6820.32
455.07	6736.06
455.26	6920.96
455.44	6890.54
455.62	7014.59
455.81	6878.83
455.99	6878.83
456.17	7061.40
456.36	6970.12
456.54	7009.90
456.73	7117.57
456.91	7489.71
457.09	7232.26
457.28	7349.28
457.46	7162.04
457.64	7204.17
457.83	7293.11
458.01	7386.73
458.19	7382.05
458.38	7330.56
458.56	7470.99
458.74	7330.56
458.93	7363.33
459.11	7463.97
459.29	7466.31
459.48	7398.43
459.66	7475.67
459.84	7611.42
460.03	7808.03
460.21	7620.78
460.39	7620.78
460.57	7480.35
460.76	7658.23
460.94	7878.24
461.12	7770.58
461.31	7960.16
461.49	7719.09
461.67	7831.43
461.85	7927.39
462.04	7772.92
462.22	8142.72
462.40	7995.27
462.59	7955.48
462.77	8016.33
462.95	7887.61
463.13	7995.27
463.32	8229.32
463.50	8177.83
463.68	8098.25
463.86	8124.00
464.05	8074.85
464.23	8013.99
464.41	8112.30
464.59	8046.76
464.78	8194.22
464.96	8121.66
465.14	8163.79
465.32	8435.29
465.50	8491.46
465.69	8374.44
465.87	8180.17
466.05	8276.13
466.23	8446.99
466.41	8369.76
466.60	8676.37
466.78	8404.86
466.96	8346.35
467.14	8369.76
467.32	8318.26
467.51	8458.70
467.69	8327.63
467.87	8465.72
468.05	8699.77
468.23	8484.44
468.41	8683.39
468.60	8702.11
468.78	8758.28
468.96	8503.17
469.14	8887.01
469.32	8863.61
469.50	8690.41
469.69	8894.04
469.87	9022.77
470.05	9008.72
470.23	8837.86
470.41	8917.44
470.59	9109.36
470.77	9027.45
470.95	9041.49
471.14	9128.09
471.32	9121.07
471.50	9329.38
471.68	9254.48
471.86	9287.25
472.04	9282.56
472.22	9834.93
472.40	9263.84
472.58	9383.21
472.77	9535.34
472.95	9699.18
473.13	9870.04
473.31	9593.86
473.49	9607.90
473.67	9516.62
473.85	9743.65
474.03	9921.53
474.21	9951.96
474.39	10111.11
474.57	9877.06
474.75	10008.13
474.93	10019.83
475.12	10090.05
475.30	10485.60
475.48	10366.23
475.66	10331.12
475.84	10164.95
476.02	10169.63
476.20	10408.36
476.38	10593.26
476.56	10916.26
476.74	10773.49
476.92	10726.68
477.10	10600.29
477.28	11033.29
477.46	10970.09
477.64	11080.10
477.82	11215.85
478.00	11445.22
478.18	11330.53
478.36	11358.62
478.54	11688.64
478.72	11595.01
478.90	11878.22
479.08	11838.43
479.26	12025.67
479.44	12023.33
479.62	12095.89
479.80	12292.49
479.98	12112.27
480.16	12407.18
480.34	12442.29
480.52	12444.63
480.70	12503.14
480.88	12507.82
481.06	12428.24
481.24	12559.31
481.41	13008.70
481.59	12950.18
481.77	12959.55
481.95	13135.09
482.13	13172.54
482.31	13385.52
482.49	13635.96
482.67	13774.05
482.85	13743.63
483.03	13776.39
483.21	13919.17
483.39	13956.61
483.57	13823.20
483.74	14265.57
483.92	14438.76
484.10	14153.22
484.28	14361.53
484.46	14782.82
484.64	15009.86
484.82	14298.33
485.00	14862.40
485.18	15227.53
485.35	15073.05
485.53	15241.57
485.71	15066.03
485.89	15337.53
486.07	15108.16
486.25	15592.65
486.43	15714.36
486.61	15772.87
486.78	15651.16
486.96	15995.22
487.14	15981.18
487.32	16308.85
487.50	16514.82
487.68	16765.26
487.85	16936.12
488.03	17088.25
488.21	17050.80
488.39	16713.77
488.57	17149.11
488.75	17369.12
488.92	17465.08
489.10	17820.84
489.28	17722.54
489.46	18260.86
489.64	18001.06
489.81	18480.87
489.99	18600.24
490.17	18555.77
490.35	18434.06
490.53	18775.78
490.70	18714.92
490.88	18682.16
491.06	19009.83
491.24	19194.73
491.41	19028.56
491.59	19506.02
491.77	19307.08
491.95	19700.29
492.13	19810.29
492.30	19625.39
492.48	19889.87
492.66	20166.06
492.84	20018.60
493.01	19943.70
493.19	20589.69
493.37	20819.07
493.54	20711.40
493.72	20910.35
493.90	20809.70
494.08	21029.71
494.25	21144.40
494.43	21125.68
494.61	21355.05
494.79	21626.55
494.96	21467.39
495.14	21561.02
495.32	21778.68
495.49	21558.67
495.67	21785.71
495.85	22192.96
496.02	21958.91
496.20	22466.80
496.38	22686.81
496.55	22462.12
496.73	23412.38
496.91	22803.84
497.09	22761.71
497.26	23175.98
497.44	23220.45
497.62	23459.19
497.79	23393.65
497.97	23335.14
498.14	23501.32
498.32	23564.51
498.50	23840.70
498.67	23669.84
498.85	23864.10
499.03	23821.97
499.20	24435.19
499.38	24648.18
499.56	24280.72
499.73	24971.18
499.91	24510.09
500.08	24797.98
500.26	24421.15
500.44	24631.80
500.61	24783.93
500.79	24477.32
500.97	25158.42
501.14	25235.66
501.32	24781.59
501.49	25163.10
501.67	25308.21
501.84	25427.58
502.02	25333.96
502.20	25584.40
502.37	26015.05
502.55	25895.69
502.72	25883.98
502.90	25933.14
503.07	25914.41
503.25	26050.16
503.43	26054.84
503.60	26396.56
503.78	26169.53
503.95	26054.84
504.13	26373.16
504.30	26359.11
504.48	26546.36
504.65	26969.99
504.83	26941.91
505.01	27190.00
505.18	27007.44
505.36	27674.49
505.53	27447.46
505.71	27555.13
505.88	27604.28
506.06	27283.62
506.23	27131.49
506.41	27391.29
506.58	27852.38
506.76	27395.97
506.93	27931.95
507.11	27843.01
507.28	27917.91
507.46	27686.20
507.63	28051.32
507.81	28102.81
507.98	28151.96
508.16	28334.53
508.33	28364.95
508.50	28481.98
508.68	28662.20
508.85	29081.16
509.03	28596.67
509.20	28795.61
509.38	29181.80
509.55	28706.67
509.73	29032.00
509.90	29322.23
510.08	29029.66
510.25	29010.94
510.42	29280.10
510.60	29771.61
510.77	29584.37
510.95	29811.40
511.12	29710.76
511.30	29687.36
511.47	30033.75
511.64	29799.70
511.82	30253.76
511.99	29820.77
512.17	30120.35
512.34	29837.15
512.51	30511.22
512.69	30595.48
512.86	30466.75
513.04	30677.40
513.21	30476.12
513.38	30682.08
513.56	30604.84
513.73	30850.60
513.90	30948.90
514.08	30803.79
514.25	31138.49
514.43	31243.81
514.60	30902.09
514.77	31234.45
514.95	31864.05
515.12	31365.52
515.29	31260.20
515.47	31473.18
515.64	31936.61
515.81	31438.08
515.99	31613.62
516.16	31742.35
516.33	31850.01
516.51	32034.91
516.68	31360.84
516.85	31630.00
517.03	31604.25
517.20	31997.46
517.37	32133.21
517.54	32301.73
517.72	32273.65
517.89	32346.20
518.06	32322.80
518.24	32217.47
518.41	31758.73
518.58	32266.63
518.75	32727.71
518.93	32547.49
519.10	32627.07
519.27	32809.63
519.45	33076.45
519.62	33039.00
519.79	33167.73
519.96	33291.78
520.14	33493.07
520.31	33163.05
520.48	33605.41
520.65	33687.33
520.83	33972.88
521.00	33619.46
521.17	33443.91
521.34	33727.12
521.52	33738.82
521.69	33977.56
521.86	34197.57
522.03	34087.56
522.20	34494.82
522.38	34293.53
522.55	34017.35
522.72	34548.65
522.89	34253.74
523.07	34759.30
523.24	34164.80
523.41	34267.78
523.58	34466.73
523.75	35143.14
523.92	34918.45
524.10	35143.14
524.27	35147.82
524.44	35194.64
524.61	35037.82
524.78	35435.71
524.96	35304.64
525.13	35564.44
525.30	35435.71
525.47	35601.89
525.64	35555.08
525.81	35220.38
525.98	35358.47
526.16	35489.54
526.33	35232.08
526.50	35756.36
526.67	35316.34
526.84	35620.61
527.01	35379.54
527.18	35810.20
527.36	35929.56
527.53	36172.98
527.70	36414.05
527.87	36151.91
528.04	36217.45
528.21	36114.47
528.38	36517.04
528.55	36542.78
528.72	36470.23
528.89	36671.51
529.07	36591.94
529.24	36348.52
529.41	36512.36
529.58	36617.68
529.75	36381.29
529.92	36605.98
530.09	36760.45
530.26	37027.28
530.43	37266.01
530.60	36587.25
530.77	36753.43
530.94	37268.35
531.11	37228.56
531.28	36999.19
531.46	37209.84
531.63	37156.00
531.80	37408.78
531.97	37673.26
532.14	37607.73
532.31	37329.20
532.48	37151.32
532.65	37717.73
532.82	37195.79
532.99	37617.09
533.16	37724.75
533.33	37825.40
533.50	37982.21
533.67	37881.57
533.84	37757.52
534.01	37956.47
534.18	37794.97
534.35	38314.57
534.52	38335.63
534.69	38092.22
534.86	38424.57
535.03	38024.34
535.20	38244.35
535.37	38707.78
535.54	38796.72
535.71	38522.88
535.88	38068.81
536.05	38635.22
536.22	38513.52
536.38	38895.02
536.55	38740.55
536.72	38579.05
536.89	38213.93
537.06	38866.94
537.23	38939.49
537.40	38794.38
537.57	38944.17
537.74	38965.24
537.91	39555.05
538.08	39330.36
538.25	38607.14
538.42	38611.82
538.59	39030.77
538.75	38632.88
538.92	39124.40
539.09	39269.51
539.26	39255.46
539.43	39232.06
539.60	39662.72
539.77	39271.85
539.94	39395.90
540.11	39278.87
540.28	39800.81
540.44	39742.30
540.61	39622.93
540.78	39306.96
540.95	39454.41
541.12	39779.74
541.29	39585.48
541.46	39646.33
541.62	40175.30
541.79	39669.74
541.96	39428.66
542.13	40158.91
542.30	40020.82
542.47	40039.54
542.63	40065.29
542.80	40509.99
542.97	40332.11
543.14	40762.77
543.31	40884.48
543.48	40421.05
543.64	41277.69
543.81	40715.96
543.98	40753.41
544.15	40465.52
544.32	40371.90
544.48	40961.72
544.65	40451.48
544.82	41045.97
544.99	40463.18
545.16	41333.86
545.32	40123.80
545.49	41146.62
545.66	40678.51
545.83	41158.32
546.00	41357.27
546.16	40994.48
546.33	41174.70
546.50	40788.52
546.67	41200.45
546.83	40858.73
547.00	41055.34
547.17	40933.63
547.34	41195.77
547.50	41375.99
547.67	41596.00
547.84	41223.86
548.00	41577.28
548.17	41680.26
548.34	41228.54
548.51	41900.27
548.67	42066.45
548.84	41593.66
549.01	41762.18
549.18	41727.07
549.34	41539.83
549.51	41916.65
549.68	42314.55
549.84	41544.51
550.01	41926.02
550.18	41844.10
550.34	42274.76
550.51	41860.48
550.68	42043.04
550.84	41610.04
551.01	42216.24
551.18	41956.44
551.34	42337.95
551.51	42569.66
551.68	42356.67
551.84	42405.83
552.01	42003.25
552.18	42302.84
552.34	42115.60
552.51	42157.73
552.68	42307.52
552.84	42773.29
553.01	43100.97
553.18	42426.89
553.34	42684.35
553.51	42265.39
553.67	42579.03
553.84	42916.06
554.01	43070.54
554.17	43201.61
554.34	42824.78
554.51	43075.22
554.67	42892.66
554.84	42752.23
555.00	42789.67
555.17	43044.79
555.33	42686.69
555.50	42878.61
555.67	42944.15
555.83	43014.37
556.00	42838.83
556.16	43133.73
556.33	43292.89
556.50	42857.55
556.66	43049.47
556.83	43009.68
556.99	42792.01
557.16	43688.44
557.32	43157.14
557.49	43351.40
557.65	43262.46
557.82	42792.01
557.98	43107.99
558.15	42965.21
558.32	43220.33
558.48	43180.54
558.65	43442.68
558.81	43456.73
558.98	43276.51
559.14	43285.87
559.31	43515.24
559.47	43344.38
559.64	43707.16
559.80	43791.42
559.97	43590.14
560.13	43398.21
560.30	43367.79
560.46	43849.94
560.63	43662.69
560.79	43552.69
560.96	44378.90
561.12	43653.33
561.29	43810.15
561.45	43555.03
561.61	43709.50
561.78	43590.14
561.94	43576.09
562.11	43517.58
562.27	43658.01
562.44	44086.33
562.60	43906.11
562.77	44081.65
562.93	44053.56
563.10	44079.31
563.26	43480.13
563.42	44025.48
563.59	43807.81
563.75	43899.09
563.92	43936.54
564.08	43718.87
564.24	44308.68
564.41	44123.78
564.57	43924.83
564.74	44142.50
564.90	44231.44
565.07	43875.68
565.23	43927.17
565.39	43938.88
565.56	44095.69
565.72	44051.22
565.88	44547.42
566.05	43908.45
566.21	43821.85
566.38	44062.93
566.54	43934.20
566.70	44079.31
566.87	44727.64
567.03	43770.36
567.19	44402.30
567.36	44327.41
567.52	44350.81
567.68	44540.39
567.85	44062.93
568.01	44477.20
568.17	44406.98
568.34	44243.15
568.50	43786.74
568.66	44165.91
568.83	44538.05
568.99	44009.09
569.15	44112.08
569.32	44388.26
569.48	43842.92
569.64	44678.49
569.81	44662.10
569.97	44308.68
570.13	44470.18
570.30	44282.94
570.46	43718.87
570.62	44285.28
570.78	44395.28
570.95	44034.84
571.11	44678.49
571.27	44348.47
571.43	44856.37
571.60	44348.47
571.76	44406.98
571.92	44081.65
572.09	44442.09
572.25	44554.44
572.41	44479.54
572.57	44327.41
572.74	44940.63
572.90	44587.21
573.06	44538.05
573.22	44318.04
573.38	44652.74
573.55	44027.82
573.71	45003.82
573.87	44676.15
574.03	44362.51
574.20	44594.23
574.36	44341.45
574.52	44802.53
574.68	44856.37
574.84	44531.03
575.01	44559.12
575.17	44657.42
575.33	44612.95
575.49	44442.09
575.65	44751.04
575.82	44608.27
575.98	44643.38
576.14	45106.80
576.30	44528.69
576.46	44683.17
576.62	44383.58
576.79	44825.94
576.95	44278.25
577.11	44531.03
577.27	44762.75
577.43	44727.64
577.59	44479.54
577.75	44729.98
577.92	44177.61
578.08	44421.03
578.24	44215.06
578.40	44830.62
578.56	44657.42
578.72	44673.81
578.88	44727.64
579.04	44765.09
579.21	44657.42
579.37	44421.03
579.53	44425.71
579.69	44594.23
579.85	44376.56
580.01	44589.55
580.17	44683.17
580.33	44741.68
580.49	45109.14
580.65	44863.39
580.82	44776.79
580.98	44474.86
581.14	44390.60
581.30	44481.88
581.46	44856.37
581.62	44617.63
581.78	44521.67
581.94	44856.37
582.10	44697.21
582.26	44683.17
582.42	44964.03
582.58	44760.40
582.74	45010.84
582.90	44928.92
583.06	45134.89
583.22	44769.77
583.38	45017.86
583.54	44575.50
583.70	44619.97
583.86	44673.81
584.02	44308.68
584.18	44619.97
584.34	44788.49
584.50	45045.95
584.66	44463.16
584.82	44732.32
584.98	44809.56
585.14	44516.99
585.30	44378.90
585.46	44741.68
585.62	44790.83
585.78	44669.12
585.94	44304.00
586.10	44882.11
586.26	44355.49
586.42	44622.31
586.58	44828.28
586.74	44734.66
586.90	44875.09
587.06	44175.27
587.22	44746.36
587.38	44079.31
587.54	45242.56
587.70	45059.99
587.86	45092.76
588.02	45083.40
588.18	45036.59
588.34	44996.80
588.49	44804.88
588.65	44311.02
588.81	44355.49
588.97	44652.74
589.13	44655.08
589.29	44793.17
589.45	44856.37
589.61	45118.51
589.77	45148.93
589.93	44961.69
590.08	45104.46
590.24	45251.92
590.40	45287.03
590.56	45413.41
590.72	44856.37
590.88	44643.38
591.04	44971.05
591.20	45186.38
591.35	45127.87
591.51	45425.12
591.67	44926.58
591.83	45336.18
591.99	44694.87
592.15	44861.05
592.31	44793.17
592.46	45280.00
592.62	45310.43
592.78	45357.24
592.94	45315.11
593.10	45109.14
593.26	45457.88
593.41	45198.09
593.57	45247.24
593.73	45069.36
593.89	45230.85
594.05	44657.42
594.20	45050.63
594.36	45792.58
594.52	45181.70
594.68	44697.21
594.84	45106.80
594.99	45315.11
595.15	45111.49
595.31	45563.21
595.47	45333.84
595.62	45399.37
595.78	45167.66
595.94	45352.56
596.10	45422.78
596.25	45111.49
596.41	45392.35
596.57	44779.13
596.73	45443.84
596.88	44949.99
597.04	44701.89
597.20	45205.11
597.36	45331.50
597.51	45474.27
597.67	45038.93
597.83	45600.66
597.99	45708.32
598.14	45067.02
598.30	45059.99
598.46	45118.51
598.61	45013.18
598.77	44664.44
598.93	45373.63
599.09	45427.46
599.24	45514.06
599.40	45595.98
599.56	45345.54
599.71	45333.84
599.87	44928.92
600.03	45118.51
600.18	44797.85
600.34	45092.76
600.50	45191.06
600.65	44825.94
600.81	45432.14
600.97	45380.65
601.12	45591.30
601.28	45764.49
601.44	45172.34
601.59	44879.77
601.75	45031.91
601.91	45516.40
602.06	45263.62
602.22	45399.37
602.37	45338.52
602.53	45113.83
602.69	45584.27
602.84	45083.40
603.00	45202.77
603.16	44964.03
603.31	45125.53
603.47	45298.73
603.62	45055.31
603.78	45052.97
603.94	45277.66
604.09	45303.41
604.25	45174.68
604.40	44884.45
604.56	44879.77
604.71	45219.15
604.87	45354.90
605.03	45432.14
605.18	44961.69
605.34	44900.84
605.49	45038.93
605.65	45315.11
605.80	44884.45
605.96	45397.03
606.12	45497.67
606.27	45188.72
606.43	45408.73
606.58	45214.47
606.74	45397.03
606.89	44790.83
607.05	45319.79
607.20	45209.79
607.36	44982.76
607.51	45310.43
607.67	44746.36
607.82	44863.39
607.98	44809.56
608.13	44952.33
608.29	44912.54
608.44	44491.24
608.60	44318.04
608.75	44638.70
608.91	44493.58
609.06	44823.60
609.22	45127.87
609.37	44842.32
609.53	44851.69
609.68	44774.45
609.84	44566.14
609.99	44470.18
610.15	44870.41
610.30	44414.01
610.46	44325.07
610.61	44442.09
610.76	44643.38
610.92	44889.13
611.07	44727.64
611.23	44542.74
611.38	44706.57
611.54	44435.07
611.69	44793.17
611.84	44411.67
612.00	44580.18
612.15	44350.81
612.31	44465.50
612.46	44397.62
612.62	44889.13
612.77	44671.46
612.92	44320.38
613.08	44177.61
613.23	44133.14
613.39	44098.03
613.54	44044.20
613.69	43793.76
613.85	44388.26
614.00	44322.72
614.15	44732.32
614.31	44505.29
614.46	44786.15
614.62	44439.75
614.77	44055.90
614.92	43985.69
615.08	44238.47
615.23	44020.80
615.38	44037.18
615.54	43941.22
615.69	43863.98
615.84	43863.98
616.00	43721.21
616.15	43711.84
616.30	43955.26
616.46	43782.06
616.61	43777.38
616.76	43777.38
616.92	43480.13
617.07	43707.16
617.22	44025.48
617.37	43922.49
617.53	43739.93
617.68	43653.33
617.83	43606.52
617.99	43641.63
618.14	44025.48
618.29	43629.93
618.45	43433.32
618.60	43271.82
618.75	43503.54
618.90	43339.70
619.06	43555.03
619.21	43714.19
619.36	43672.06
619.51	43028.41
619.67	43480.13
619.82	43833.55
619.97	43901.43
620.12	43185.22
620.28	42852.87
620.43	42831.80
620.58	43414.60
620.73	43564.39
620.89	43386.51
621.04	43426.30
621.19	43213.31
621.34	43283.53
621.49	43042.45
621.65	43180.54
621.80	43063.52
621.95	42878.61
622.10	43283.53
622.25	42981.60
622.41	42724.14
622.56	42499.45
622.71	43203.95
622.86	43246.08
623.01	43068.20
623.16	43227.35
623.32	42939.47
623.47	43096.28
623.62	43129.05
623.77	42691.37
623.92	43213.31
624.07	42768.61
624.23	42396.46
624.38	42473.70
624.53	42572.00
624.68	42637.54
624.83	42892.66
624.98	42543.92
625.13	42789.67
625.29	42829.46
625.44	43136.07
625.59	42351.99
625.74	41935.38
625.89	42272.42
626.04	42485.40
626.19	42527.53
626.34	42351.99
626.49	42738.18
626.65	42564.98
626.80	42476.04
626.95	42677.33
627.10	42251.35
627.25	42227.95
627.40	41881.55
627.55	42143.69
627.70	41579.62
627.85	41544.51
628.00	41979.85
628.15	42230.29
628.30	41806.65
628.45	41825.37
628.60	42115.60
628.76	42075.81
628.91	42068.79
629.06	42272.42
629.21	41893.25
629.36	41727.07
629.51	41851.12
629.66	41769.20
629.81	41755.16
629.96	41977.51
630.11	41422.80
630.26	42050.06
630.41	42003.25
630.56	41462.59
630.71	41474.29
630.86	41710.69
631.01	41488.34
631.16	41446.21
631.31	41305.77
631.46	40940.65
631.61	41495.36
631.76	41345.56
631.91	41270.67
632.06	41296.41
632.21	41324.50
632.36	41221.52
632.51	41242.58
632.66	41532.81
632.81	41076.40
632.96	41603.02
633.10	41003.85
633.25	40952.35
633.40	41148.96
633.55	41151.30
633.70	41366.63
633.85	41053.00
634.00	40928.95
634.15	40854.05
634.30	40924.27
634.45	41109.17
634.60	40715.96
634.75	41315.14
634.90	40694.89
635.05	40552.12
635.19	40746.39
635.34	40992.14
635.49	40428.07
635.64	40762.77
635.79	40416.37
635.94	40439.78
636.09	40832.99
636.24	40449.14
636.39	40201.04
636.53	40694.89
636.68	39840.60
636.83	40245.51
636.98	40374.24
637.13	40147.21
637.28	40418.71
637.43	40481.91
637.57	40287.64
637.72	40273.60
637.87	40460.84
638.02	40280.62
638.17	40226.79
638.32	40114.44
638.46	39969.33
638.61	40250.19
638.76	40142.53
638.91	40666.81
639.06	40327.43
639.20	39985.71
639.35	40500.63
639.50	39952.94
639.65	40493.61
639.80	40488.93
639.94	39852.30
640.09	39969.33
640.24	40039.54
640.39	39641.65
640.54	39981.03
640.68	39936.56
640.83	39887.41
640.98	40053.59
641.13	39831.24
641.27	39920.18
641.42	39941.24
641.57	39732.93
641.72	39669.74
641.86	39082.27
642.01	39831.24
642.16	39306.96
642.31	39218.02
642.45	39253.12
642.60	39711.87
642.75	39426.32
642.90	39339.72
643.04	39409.94
643.19	39180.57
643.34	39618.25
643.48	39763.36
643.63	39620.59
643.78	39143.12
643.93	39175.89
644.07	38972.26
644.22	39180.57
644.37	39353.77
644.51	39105.67
644.66	39466.11
644.81	39241.42
644.95	39318.66
645.10	39264.83
645.25	39494.20
645.39	39143.12
645.54	39466.11
645.69	39201.63
645.83	38621.18
645.98	38705.44
646.13	39484.84
646.27	39014.39
646.42	38810.76
646.57	38913.75
646.71	38880.98
646.86	39356.11
647.00	38913.75
647.15	39185.25
647.30	39072.90
647.44	38827.15
647.59	38663.31
647.74	38391.81
647.88	38721.82
648.03	39033.11
648.17	38728.84
648.32	38520.54
648.47	38227.97
648.61	38171.80
648.76	38499.47
648.90	38511.17
649.05	39082.27
649.20	38670.33
649.34	38630.54
649.49	38548.62
649.63	38880.98
649.78	38628.20
649.92	38197.54
650.07	38574.37
650.21	38630.54
650.36	38389.47
650.51	38155.41
650.65	38682.03
650.80	38740.55
650.94	38808.42
651.09	38211.59
651.23	38366.06
651.38	37944.76
651.52	37914.34
651.67	38401.17
651.81	38103.92
651.96	38206.90
652.10	38267.76
652.25	38108.60
652.39	37977.53
652.54	37930.72
652.68	37797.31
652.83	37748.16
652.97	38024.34
653.12	37900.29
653.26	38164.78
653.41	37916.68
653.55	38075.84
653.70	37212.18
653.84	37783.27
653.99	37333.89
654.13	37724.75
654.27	37748.16
654.42	37684.97
654.56	37853.48
654.71	37752.84
654.85	37539.85
655.00	37528.15
655.14	36870.46
655.29	37167.71
655.43	36931.31
655.57	36821.31
655.72	37048.34
655.86	36673.85
656.01	36924.29
656.15	36739.39
656.30	36900.89
656.44	37450.91
656.58	36505.34
656.73	36957.06
656.87	36872.80
657.01	36701.94
657.16	36847.05
657.30	36584.91
657.45	36746.41
657.59	36641.09
657.73	36957.06
657.88	36774.50
658.02	36605.98
658.16	36804.92
658.31	36701.94
658.45	36488.95
658.60	36872.80
658.74	36919.61
658.88	36758.11
659.03	36924.29
659.17	36020.84
659.31	36268.94
659.46	36210.43
659.60	36662.15
659.74	36107.44
659.89	36430.44
660.03	36151.91
660.17	36114.47
660.32	36385.97
660.46	36095.74
660.60	36332.14
660.74	36240.86
660.89	36350.86
661.03	35660.40
661.17	35995.10
661.32	35693.17
661.46	35660.40
661.60	35161.87
661.74	35768.07
661.89	35285.92
662.03	35950.63
662.17	35325.71
662.31	35147.82
662.46	35592.53
662.60	35629.98
662.74	35604.23
662.88	35564.44
663.03	35388.90
663.17	35147.82
663.31	35365.49
663.45	35512.95
663.60	34960.58
663.74	34817.81
663.88	35026.12
664.02	34892.71
664.17	34981.65
664.31	34742.91
664.45	34864.62
664.59	34745.25
664.73	34766.32
664.88	34691.42
665.02	34405.88
665.16	34611.84
665.30	34333.32
665.44	34600.14
665.59	34391.83
665.73	34330.98
665.87	34237.36
666.01	33799.68
666.15	34586.10
666.29	34401.19
666.44	34452.69
666.58	34143.74
666.72	34197.57
666.86	34022.03
667.00	34157.78
667.14	34204.59
667.28	33921.38
667.43	33839.47
667.57	33577.33
667.71	33757.55
667.85	33729.46
667.99	33993.94
668.13	33134.96
668.27	33654.56
668.41	33425.19
668.56	33450.94
668.70	33582.01
668.84	33364.34
668.98	33331.57
669.12	33158.37
669.26	33228.59
669.40	33146.67
669.54	32458.55
669.68	33354.97
669.82	33125.60
669.96	32811.97
670.10	32760.48
670.25	32826.01
670.39	32589.62
670.53	32624.73
670.67	32584.94
670.81	32929.00
670.95	32659.84
671.09	33177.09
671.23	32528.77
671.37	32538.13
671.51	32802.61
671.65	32002.14
671.79	32121.51
671.93	32011.51
672.07	32233.86
672.21	31723.62
672.35	32299.39
672.49	31878.10
672.63	32088.74
672.77	31866.39
672.91	32030.23
673.05	31615.96
673.19	31789.16
673.33	31564.46
673.47	31377.22
673.61	31187.64
673.75	31374.88
673.89	31103.38
674.03	30635.27
674.17	31075.29
674.31	31267.22
674.45	30597.82
674.59	31115.08
674.73	31283.60
674.87	31037.84
675.01	31079.97
675.15	31091.68
675.29	30885.71
675.43	30785.07
675.56	30841.24
675.70	30469.09
675.84	30323.98
675.98	29563.31
676.12	30349.73
676.26	29958.86
676.40	30218.66
676.54	29970.56
676.68	30401.22
676.82	29771.61
676.96	29453.30
677.10	29495.43
677.23	29397.13
677.37	29460.32
677.51	29127.97
677.65	29310.53
677.79	28830.72
677.93	29085.84
678.07	28863.49
678.21	28889.23
678.34	28929.02
678.48	28599.01
678.62	28489.00
678.76	28465.60
678.90	28268.99
679.04	28283.03
679.18	28371.97
679.31	28212.82
679.45	27711.94
679.59	27630.02
679.73	27730.67
679.87	28032.60
680.00	27871.10
680.14	27941.32
680.28	27328.10
680.42	27290.65
680.56	27517.68
680.70	27349.16
680.83	27239.15
680.97	26859.99
681.11	26780.41
681.25	26527.63
681.39	27161.92
681.52	26815.52
681.66	26405.92
681.80	26625.93
681.94	26661.04
682.07	26724.24
682.21	26422.31
682.35	26199.96
682.49	25949.52
682.62	26501.89
682.76	26017.40
682.90	25996.33
683.04	26146.12
683.17	26150.81
683.31	25834.83
683.45	25972.92
683.59	25509.50
683.72	25273.10
683.86	25343.32
684.00	25298.85
684.13	25610.14
684.27	25465.03
684.41	25230.98
684.55	25083.52
684.68	24648.18
684.82	24762.87
684.96	24379.02
685.09	25006.28
685.23	24570.94
685.37	24615.41
685.50	24458.60
685.64	24765.21
685.78	24226.89
685.91	24149.65
686.05	24308.80
686.19	23477.91
686.32	23899.21
686.46	23796.23
686.60	23569.19
686.73	23761.12
686.87	23428.76
687.01	23300.03
687.14	23506.00
687.28	22979.38
687.42	23136.20
687.55	22860.01
687.69	23122.15
687.82	22712.56
687.96	22883.42
688.10	22792.14
688.23	22544.04
688.37	22478.50
688.50	22405.95
688.64	22150.83
688.78	22494.89
688.91	22066.57
689.05	22300.62
689.18	22085.30
689.32	22022.10
689.46	22087.64
689.59	22101.68
689.73	22008.06
689.86	22008.06
690.00	21743.58
690.13	21795.07
690.27	21317.60
690.41	21504.84
690.54	21158.44
690.68	21221.64
690.81	21322.28
690.95	20805.02
691.08	21027.37
691.22	20882.26
691.35	20835.45
691.49	20966.52
691.62	20891.62
691.76	20922.05
691.89	20620.12
692.03	20542.88
692.16	20325.21
692.30	20229.25
692.43	20374.36
692.57	20074.77
692.70	20238.61
692.84	20170.74
692.97	19737.74
693.11	19611.35
693.24	19529.43
693.38	19639.44
693.51	19658.16
693.65	19587.94
693.78	19531.77
693.92	19435.81
694.05	19367.93
694.19	19077.71
694.32	19103.45
694.45	19297.72
694.59	18965.36
694.72	18448.10
694.86	18925.57
694.99	18909.19
695.13	18665.77
695.26	18232.77
695.39	18391.93
695.53	18408.31
695.66	18263.20
695.80	18361.50
695.93	18260.86
696.07	17790.41
696.20	18099.36
696.33	17968.29
696.47	18200.01
696.60	17884.03
696.73	17811.48
696.87	17535.29
697.00	17680.41
697.14	17895.74
697.27	17436.99
697.40	17427.63
697.54	17530.61
697.67	17294.22
697.80	17209.96
697.94	17252.09
698.07	17226.34
698.21	16989.95
698.34	16908.03
698.47	17139.74
698.61	16666.95
698.74	16521.84
698.87	16669.30
699.01	16386.09
699.14	16163.74
699.27	16336.94
699.40	16287.79
699.54	16292.47
699.67	15726.06
699.80	16379.07
699.94	16184.80
700.07	16255.02
700.20	15939.05
700.34	15957.77
700.47	16070.12
700.60	15833.72
700.73	15838.41
700.87	15435.83
701.00	15707.34
701.13	15477.96
701.26	15382.00
701.40	15510.73
701.53	15276.68
701.66	15323.49
701.79	15304.76
701.93	15014.54
702.06	14916.23
702.19	14850.70
702.32	15007.52
702.46	14647.07
702.59	14918.57
702.72	14916.23
702.85	14614.30
702.99	14883.47
703.12	14883.47
703.25	14576.86
703.38	14736.01
703.51	14640.05
703.65	14319.40
703.78	14232.80
703.91	14338.12
704.04	14029.17
704.17	13973.00
704.31	13898.10
704.44	13364.46
704.57	13437.02
704.70	13584.47
704.83	13750.65
704.96	13558.72
705.10	13502.55
705.23	13877.04
>>>>>End Processed Spectral Data<<<<<
