SpectraSuite Data File
++++++++++++++++++++++++++++++++++++
Date: Fri Oct 25 11:34:11 EDT 2013
User: price-jones
Dark Spectrum Present: No
Reference Spectrum Present: No
Number of Sampled Component Spectra: 1
Spectrometers: USB2+H05261
Integration Time (usec): 100000 (USB2+H05261)
Spectra Averaged: 1 (USB2+H05261)
Boxcar Smoothing: 0 (USB2+H05261)
Correct for Electrical Dark: No (USB2+H05261)
Strobe/Lamp Enabled: No (USB2+H05261)
Correct for Detector Non-linearity: No (USB2+H05261)
Correct for Stray Light: No (USB2+H05261)
Number of Pixels in Processed Spectrum: 2048
>>>>>Begin Processed Spectral Data<<<<<
365.73	273.84
365.92	273.84
366.12	273.84
366.32	205.97
366.52	191.92
366.72	177.88
366.91	161.50
367.11	166.18
367.31	145.11
367.51	212.99
367.70	175.54
367.90	149.79
368.10	166.18
368.30	220.01
368.49	208.31
368.69	196.60
368.89	175.54
369.09	205.97
369.28	189.58
369.48	245.76
369.68	243.42
369.87	308.95
370.07	252.78
370.27	271.50
370.47	339.38
370.66	454.06
370.86	400.23
371.06	535.98
371.25	638.97
371.45	493.85
371.65	615.56
371.84	456.40
372.04	601.52
372.24	629.60
372.44	571.09
372.63	559.39
372.83	587.47
373.03	559.39
373.22	535.98
373.42	617.90
373.62	573.43
373.81	599.18
374.01	636.63
374.21	620.24
374.40	601.52
374.60	629.60
374.79	585.13
374.99	594.50
375.19	681.10
375.38	695.14
375.58	660.03
375.78	622.58
375.97	730.25
376.17	713.86
376.37	671.73
376.56	645.99
376.76	662.37
376.95	641.31
377.15	643.65
377.35	709.18
377.54	720.88
377.74	692.80
377.93	608.54
378.13	678.76
378.33	645.99
378.52	669.39
378.72	664.71
378.91	631.94
379.11	671.73
379.31	650.67
379.50	636.63
379.70	793.44
379.89	774.72
380.09	685.78
380.28	702.16
380.48	784.08
380.68	688.12
380.87	711.52
381.07	699.82
381.26	798.12
381.46	720.88
381.65	763.01
381.85	734.93
382.04	753.65
382.24	814.51
382.43	814.51
382.63	772.38
382.83	821.53
383.02	805.14
383.22	758.33
383.41	767.70
383.61	800.46
383.80	828.55
384.00	786.42
384.19	809.83
384.39	777.06
384.58	802.80
384.78	833.23
384.97	779.40
385.17	842.59
385.36	844.93
385.56	802.80
385.75	809.83
385.95	889.40
386.14	861.32
386.34	950.26
386.53	905.79
386.72	837.91
386.92	870.68
387.11	870.68
387.31	826.21
387.50	802.80
387.70	894.08
387.89	945.58
388.09	816.85
388.28	873.02
388.48	791.10
388.67	933.87
388.86	868.34
389.06	1039.20
389.25	950.26
389.45	987.71
389.64	964.30
389.84	964.30
390.03	954.94
390.22	961.96
390.42	889.40
390.61	901.11
390.81	926.85
391.00	959.62
391.19	931.53
391.39	922.17
391.58	1020.47
391.78	1008.77
391.97	983.02
392.16	973.66
392.36	1090.69
392.55	994.73
392.75	1074.31
392.94	997.07
393.13	919.83
393.33	978.34
393.52	1156.22
393.71	1078.99
393.91	1088.35
394.10	961.96
394.29	1076.65
394.49	1104.73
394.68	1097.71
394.88	1128.14
395.07	1095.37
395.26	1181.97
395.46	1128.14
395.65	1114.10
395.84	1114.10
396.04	1235.80
396.23	1226.44
396.42	1228.78
396.62	1104.73
396.81	1247.51
397.00	1249.85
397.19	1228.78
397.39	1219.42
397.58	1231.12
397.77	1188.99
397.97	1268.57
398.16	1203.04
398.35	1249.85
398.55	1310.70
398.74	1270.91
398.93	1266.23
399.12	1242.82
399.32	1315.38
399.51	1299.00
399.70	1364.53
399.90	1291.98
400.09	1336.45
400.28	1320.06
400.47	1320.06
400.67	1334.11
400.86	1350.49
401.05	1420.71
401.24	1406.66
401.44	1399.64
401.63	1394.96
401.82	1504.96
402.01	1378.58
402.21	1430.07
402.40	1467.52
402.59	1509.65
402.78	1423.05
402.97	1476.88
403.17	1509.65
403.36	1500.28
403.55	1547.09
403.74	1481.56
403.93	1654.76
404.13	1596.25
404.32	1570.50
404.51	1568.16
404.70	1629.01
404.89	1556.46
405.09	1626.67
405.28	1626.67
405.47	1654.76
405.66	1666.46
405.85	1666.46
406.05	1659.44
406.24	1715.61
406.43	1778.81
406.62	1778.81
406.81	1678.16
407.00	1732.00
407.20	1760.08
407.39	1781.15
407.58	1806.89
407.77	1785.83
407.96	1949.67
408.15	1809.23
408.34	1827.96
408.54	1891.15
408.73	1893.49
408.92	1926.26
409.11	1926.26
409.30	1935.62
409.49	1877.11
409.68	1947.33
409.87	1987.11
410.07	1966.05
410.26	2064.35
410.45	2038.61
410.64	2076.06
410.83	2047.97
411.02	2141.59
411.21	2127.55
411.40	2010.52
411.59	2125.21
411.78	2186.06
411.98	2139.25
412.17	2076.06
412.36	2169.68
412.55	2237.55
412.74	2293.72
412.93	2239.89
413.12	2204.78
413.31	2399.05
413.50	2270.32
413.69	2317.13
413.88	2317.13
414.07	2422.45
414.26	2455.22
414.45	2502.03
414.64	2410.75
414.83	2408.41
415.02	2579.27
415.22	2548.84
415.41	2693.96
415.60	2628.42
415.79	2544.16
415.98	2703.32
416.17	2665.87
416.36	2644.81
416.55	2731.41
416.74	2675.23
416.93	2785.24
417.12	2691.62
417.31	2820.35
417.50	2827.37
417.69	2935.03
417.88	2937.37
418.07	2928.01
418.26	2782.90
418.45	2829.71
418.64	2993.55
418.83	3030.99
419.02	3033.33
419.21	2956.10
419.39	3028.65
419.58	2958.44
419.77	3084.83
419.96	3084.83
420.15	3199.51
420.34	3115.25
420.53	3131.64
420.72	3082.49
420.91	3236.96
421.10	3117.59
421.29	3225.26
421.48	3337.60
421.67	3192.49
421.86	3112.91
422.05	3129.30
422.24	3176.11
422.43	3157.38
422.61	3428.88
422.80	3262.71
422.99	3307.18
423.18	3302.50
423.37	3281.43
423.56	3281.43
423.75	3323.56
423.94	3269.73
424.13	3122.27
424.32	3243.98
424.50	3382.07
424.69	3309.52
424.88	3272.07
425.07	3368.03
425.26	3307.18
425.45	3358.67
425.64	3307.18
425.83	3339.94
426.01	3325.90
426.20	3393.78
426.39	3370.37
426.58	3391.44
426.77	3344.63
426.96	3499.10
427.15	3417.18
427.33	3492.08
427.52	3398.46
427.71	3433.57
427.90	3463.99
428.09	3513.14
428.28	3459.31
428.46	3531.87
428.65	3419.52
428.84	3700.39
429.03	3726.13
429.22	3419.52
429.40	3609.11
429.59	3772.94
429.78	3578.68
429.97	3625.49
430.16	3770.60
430.34	3735.50
430.53	3754.22
430.72	3786.99
430.91	3709.75
431.10	3702.73
431.28	3693.37
431.47	3763.58
431.66	3988.27
431.85	3925.08
432.03	3978.91
432.22	4011.68
432.41	3995.29
432.60	3887.63
432.79	4079.55
432.97	3911.04
433.16	4032.74
433.35	4018.70
433.54	3950.82
433.72	4121.68
433.91	4074.87
434.10	4145.09
434.28	4084.23
434.47	4224.67
434.66	4166.15
434.85	4072.53
435.03	4322.97
435.22	4271.48
435.41	4198.92
435.59	4388.50
435.78	4161.47
435.97	4299.56
436.16	4266.80
436.34	4194.24
436.53	4322.97
436.72	4507.87
436.90	4311.27
437.09	4470.42
437.28	4243.39
437.46	4472.76
437.65	4388.50
437.84	4599.15
438.02	4645.96
438.21	4571.07
438.40	4393.19
438.58	4737.24
438.77	4533.62
438.96	4723.20
439.14	4685.75
439.33	4746.61
439.52	4793.42
439.70	4720.86
439.89	4830.87
440.08	4826.18
440.26	4905.76
440.45	4814.48
440.63	4973.64
440.82	5057.90
441.01	4957.25
441.19	5111.73
441.38	5102.37
441.57	5132.79
441.75	5107.05
441.94	5355.15
442.12	5252.16
442.31	5277.91
442.50	5289.61
442.68	5226.42
442.87	5270.89
443.05	5191.31
443.24	5521.32
443.43	5607.92
443.61	5420.68
443.80	5582.18
443.98	5336.42
444.17	5135.14
444.35	5537.71
444.54	5486.22
444.73	5401.96
444.91	5551.75
445.10	5301.31
445.28	5547.07
445.47	5336.42
445.65	5600.90
445.84	5516.64
446.02	5647.71
446.21	5460.47
446.39	5610.26
446.58	5685.16
446.77	5631.33
446.95	5497.92
447.14	5432.38
447.32	5636.01
447.51	5533.03
447.69	5523.66
447.88	5605.58
448.06	5827.93
448.25	5507.28
448.43	5764.74
448.62	5694.52
448.80	5643.03
448.99	5696.86
449.17	5643.03
449.36	5746.02
449.54	5930.92
449.73	5834.96
449.91	5830.27
450.10	5926.24
450.28	6064.33
450.46	5827.93
450.65	5895.81
450.83	5867.72
451.02	5881.77
451.20	6134.54
451.39	5830.27
451.57	5998.79
451.76	5921.56
451.94	6003.47
452.13	6069.01
452.31	6200.08
452.49	5930.92
452.68	6188.38
452.86	6148.59
453.05	6207.10
453.23	6232.85
453.42	6001.13
453.60	6160.29
453.78	6265.61
453.97	6249.23
454.15	6136.88
454.34	6249.23
454.52	6373.28
454.70	6317.11
454.89	6342.85
455.07	6207.10
455.26	6487.96
455.44	6373.28
455.62	6424.77
455.81	6415.41
455.99	6518.39
456.17	6539.46
456.36	6635.42
456.54	6518.39
456.73	6649.46
456.91	6773.51
457.09	6841.39
457.28	6930.33
457.46	6710.32
457.64	6848.41
457.83	6839.05
458.01	6850.75
458.19	6984.16
458.38	7054.37
458.56	6890.54
458.74	7028.63
458.93	6946.71
459.11	7007.56
459.29	6967.77
459.48	7112.89
459.66	7136.29
459.84	7117.57
460.03	7272.04
460.21	7183.10
460.39	7035.65
460.57	7019.27
460.76	7250.98
460.94	7272.04
461.12	7449.93
461.31	7269.70
461.49	7185.44
461.67	7157.36
461.85	7538.87
462.04	7300.13
462.22	7829.09
462.40	7609.08
462.59	7377.37
462.77	7447.58
462.95	7702.70
463.13	7595.04
463.32	7719.09
463.50	7742.49
463.68	7815.05
463.86	7817.39
464.05	7705.04
464.23	7716.75
464.41	7691.00
464.59	7812.71
464.78	7803.35
464.96	7777.60
465.14	7728.45
465.32	7913.35
465.50	7845.48
465.69	7939.10
465.87	7772.92
466.05	7927.39
466.23	8009.31
466.41	7990.59
466.60	8212.94
466.78	7712.07
466.96	7948.46
467.14	7873.56
467.32	8222.30
467.51	8119.32
467.69	7854.84
467.87	8205.92
468.05	8238.69
468.23	8011.65
468.41	8189.53
468.60	8173.15
468.78	8374.44
468.96	8135.70
469.14	8339.33
469.32	8386.14
469.50	8070.17
469.69	8554.66
469.87	8561.68
470.05	8482.10
470.23	8664.66
470.41	8414.23
470.59	8702.11
470.77	8613.17
470.95	8521.89
471.14	8737.22
471.32	8664.66
471.50	8805.10
471.68	8599.13
471.86	8657.64
472.04	8971.27
472.22	9064.89
472.40	8877.65
472.58	8954.89
472.77	9146.81
472.95	9263.84
473.13	9217.03
473.31	9132.77
473.49	9158.52
473.67	9427.68
473.85	9334.06
474.03	9415.98
474.21	9628.96
474.39	9479.17
474.57	9413.63
474.75	9701.52
474.93	9521.30
475.12	9818.55
475.30	9844.29
475.48	9696.84
475.66	9823.23
475.84	9743.65
476.02	9816.21
476.20	10022.17
476.38	10090.05
476.56	10242.18
476.74	10024.51
476.92	10239.84
477.10	10342.83
477.28	10504.32
477.46	10494.96
477.64	10773.49
477.82	10644.76
478.00	10850.72
478.18	10707.95
478.36	10939.66
478.54	10963.07
478.72	11147.97
478.90	11019.24
479.08	11295.43
479.26	11393.73
479.44	11396.07
479.62	11543.52
479.80	11564.59
479.98	11555.22
480.16	11903.96
480.34	11808.00
480.52	11822.05
480.70	12009.29
480.88	12013.97
481.06	11908.65
481.24	12133.34
481.41	12311.22
481.59	12308.88
481.77	12580.38
481.95	12559.31
482.13	12662.30
482.31	12601.44
482.49	13067.21
482.67	13018.06
482.85	13280.20
483.03	13296.58
483.21	13179.56
483.39	13352.76
483.57	13254.45
483.74	13563.40
483.92	13633.62
484.10	13752.99
484.28	14031.51
484.46	13893.42
484.64	14398.98
484.82	14071.30
485.00	14132.15
485.18	14228.12
485.35	14602.60
485.53	14607.28
485.71	14738.35
485.89	14874.10
486.07	14913.89
486.25	14977.09
486.43	15096.46
486.61	15047.30
486.78	15447.54
486.96	15386.68
487.14	15559.88
487.32	15822.02
487.50	15672.23
487.68	15873.51
487.85	16290.13
488.03	16453.97
488.21	16404.81
488.39	16573.33
488.57	16542.91
488.75	16732.49
488.92	16840.15
489.10	17156.13
489.28	17116.34
489.46	17263.79
489.64	17165.49
489.81	17551.68
489.99	17657.00
490.17	17523.59
490.35	18031.49
490.53	17701.47
490.70	18169.58
490.88	18270.22
491.06	18476.19
491.24	18630.66
491.41	18391.93
491.59	18878.76
491.77	18483.21
491.95	18773.44
492.13	18764.07
492.30	18970.04
492.48	19140.90
492.66	19119.84
492.84	19363.25
493.01	19456.87
493.19	19421.77
493.37	19552.84
493.54	19569.22
493.72	19901.58
493.90	20236.27
494.08	20189.46
494.25	20460.96
494.43	20442.24
494.61	20421.17
494.79	20711.40
494.96	20783.96
495.14	20732.47
495.32	21301.22
495.49	21015.67
495.67	21280.15
495.85	21338.66
496.02	21528.25
496.20	21378.45
496.38	21902.73
496.55	22036.14
496.73	22305.31
496.91	21986.99
497.09	22274.88
497.26	22129.77
497.44	22195.30
497.62	22396.59
497.79	22892.78
497.97	22609.58
498.14	22981.72
498.32	22932.57
498.50	22979.38
498.67	23255.56
498.85	23192.37
499.03	23468.55
499.20	23515.36
499.38	23653.45
499.56	23569.19
499.73	23873.46
499.91	23704.95
500.08	24173.05
500.26	23646.43
500.44	23828.99
500.61	23910.91
500.79	23969.43
500.97	24257.31
501.14	24570.94
501.32	24533.50
501.49	24465.62
501.67	24856.49
501.84	24821.38
502.02	24472.64
502.20	24809.68
502.37	25013.31
502.55	25116.29
502.72	25041.39
502.90	25397.15
503.07	24907.98
503.25	25041.39
503.43	25057.78
503.60	25666.31
503.78	25331.62
503.95	25479.07
504.13	25685.04
504.30	25979.95
504.48	25490.77
504.65	25839.51
504.83	26141.44
505.01	26277.19
505.18	26356.77
505.36	26441.03
505.53	26368.48
505.71	26501.89
505.88	26789.77
506.06	26424.65
506.23	27208.73
506.41	26768.71
506.58	27035.53
506.76	26930.20
506.93	27571.51
507.11	27117.45
507.28	27276.60
507.46	27344.48
507.63	27365.54
507.81	27742.37
507.98	27828.97
508.16	27611.30
508.33	27700.24
508.50	27931.95
508.68	27997.49
508.85	28168.35
509.03	27948.34
509.20	28175.37
509.38	28217.50
509.55	28151.96
509.73	28126.22
509.90	28313.46
510.08	28376.66
510.25	28306.44
510.42	28561.56
510.60	28769.86
510.77	28849.44
510.95	29024.98
511.12	29015.62
511.30	29432.24
511.47	29338.62
511.64	28783.91
511.82	29371.38
511.99	29427.56
512.17	29729.48
512.34	29696.72
512.51	30082.91
512.69	29809.06
512.86	29958.86
513.04	30019.71
513.21	29783.32
513.38	30192.91
513.56	30359.09
513.73	30300.58
513.90	30492.50
514.08	30345.05
514.25	30609.53
514.43	30621.23
514.60	31175.94
514.77	30574.42
514.95	30705.49
515.12	30916.14
515.29	30658.68
515.47	31019.12
515.64	31094.02
515.81	31087.00
515.99	30888.05
516.16	31424.03
516.33	31084.65
516.51	31449.78
516.68	31587.87
516.85	31236.79
517.03	31569.15
517.20	31812.56
517.37	31578.51
517.54	31873.42
517.72	31655.75
517.89	31765.75
518.06	32067.68
518.24	31835.97
518.41	32580.26
518.58	32107.47
518.75	32126.19
518.93	32699.62
519.10	32271.31
519.27	32648.13
519.45	32811.97
519.62	32741.75
519.79	32549.83
519.96	32945.38
520.14	32840.06
520.31	32891.55
520.48	33085.81
520.65	32828.35
520.83	33750.52
521.00	33256.67
521.17	33209.86
521.34	33326.89
521.52	33521.15
521.69	33432.21
521.86	33755.21
522.03	33846.49
522.20	33928.41
522.38	34139.05
522.55	34117.99
522.72	34017.35
522.89	33626.48
523.07	34361.40
523.24	34019.69
523.41	34478.43
523.58	34382.47
523.75	34309.91
523.92	34120.33
524.10	34611.84
524.27	34293.53
524.44	34714.83
524.61	34714.83
524.78	34710.14
524.96	34998.03
525.13	35077.61
525.30	34843.56
525.47	34932.50
525.64	35007.39
525.81	34930.16
525.98	35580.82
526.16	35204.00
526.33	35253.15
526.50	35372.52
526.67	35276.55
526.84	35356.13
527.01	35316.34
527.18	35503.59
527.36	35672.10
527.53	35842.96
527.70	35892.12
527.87	35819.56
528.04	35962.33
528.21	36175.32
528.38	36004.46
528.55	36439.80
528.72	36353.20
528.89	36266.60
529.07	35892.12
529.24	36182.34
529.41	36311.07
529.58	36278.30
529.75	36332.14
529.92	36458.52
530.09	36437.46
530.26	36451.50
530.43	36809.61
530.60	36503.00
530.77	36275.96
530.94	36966.42
531.11	36596.62
531.28	36933.65
531.46	37141.96
531.63	37132.60
531.80	36910.25
531.97	37317.50
532.14	36989.83
532.31	37163.03
532.48	37654.54
532.65	37642.84
532.82	37085.79
532.99	37446.23
533.16	37354.95
533.33	37656.88
533.50	37916.68
533.67	37366.65
533.84	37003.87
534.01	37912.00
534.18	37729.44
534.35	38340.32
534.52	38010.30
534.69	38160.09
534.86	38068.81
535.03	38057.11
535.20	38326.27
535.37	38220.95
535.54	38593.09
535.71	38153.07
535.88	38703.10
536.05	38089.88
536.22	38852.89
536.38	38443.30
536.55	38419.89
536.72	38356.70
536.89	38703.10
537.06	38403.51
537.23	38593.09
537.40	38623.52
537.57	38913.75
537.74	38478.41
537.91	39225.04
538.08	39222.70
538.25	38710.12
538.42	38930.13
538.59	39636.97
538.75	38677.35
538.92	39386.54
539.09	39157.16
539.26	39416.96
539.43	39335.04
539.60	39122.05
539.77	39218.02
539.94	40013.80
540.11	39737.62
540.28	39618.25
540.44	39842.94
540.61	39447.39
540.78	39482.50
540.95	39459.09
541.12	39889.75
541.29	39634.63
541.46	39964.65
541.62	39648.68
541.79	40140.19
541.96	39667.40
542.13	39871.03
542.30	40055.93
542.47	39840.60
542.63	40163.59
542.80	40517.01
542.97	40542.76
543.14	40772.13
543.31	40287.64
543.48	40435.10
543.64	40610.64
543.81	40884.48
543.98	40830.65
544.15	40774.47
544.32	41146.62
544.48	41006.19
544.65	40987.46
544.82	41280.03
544.99	40947.67
545.16	41352.58
545.32	41013.21
545.49	41680.26
545.66	41663.88
545.83	41216.83
546.00	41607.70
546.16	41404.08
546.33	41518.76
546.50	41268.33
546.67	41160.66
546.83	41013.21
547.00	41085.76
547.17	41401.74
547.34	41612.38
547.50	41937.72
547.67	41888.57
547.84	41429.82
548.00	41792.61
548.17	42050.06
548.34	42052.41
548.51	42284.12
548.67	41661.54
548.84	41816.01
549.01	42246.67
549.18	41933.04
549.34	42007.94
549.51	42391.78
549.68	42302.84
549.84	42412.85
550.01	42316.89
550.18	42218.58
550.34	42312.20
550.51	42288.80
550.68	42408.17
550.84	42190.50
551.01	42550.94
551.18	42356.67
551.34	42539.24
551.51	42450.30
551.68	42595.41
551.84	42239.65
552.01	42494.77
552.18	42401.14
552.34	42476.04
552.51	42995.64
552.68	42810.74
552.84	43269.48
553.01	42852.87
553.18	42834.14
553.34	42913.72
553.51	42588.39
553.67	43138.41
553.84	42852.87
554.01	42855.21
554.17	43138.41
554.34	43335.02
554.51	43414.60
554.67	43154.80
554.84	43047.13
555.00	43416.94
555.17	43000.32
555.33	43590.14
555.50	43487.15
555.67	43421.62
555.83	43618.22
556.00	43449.70
556.16	43742.27
556.33	43580.78
556.50	43487.15
556.66	43552.69
556.83	43992.71
556.99	44004.41
557.16	43957.60
557.32	43686.10
557.49	43875.68
557.65	43461.41
557.82	43770.36
557.98	43391.19
558.15	43679.08
558.32	43934.20
558.48	43964.62
558.65	44229.10
558.81	43863.98
558.98	43966.96
559.14	43992.71
559.31	43828.87
559.47	44254.85
559.64	43913.13
559.80	44320.38
559.97	43981.01
560.13	43966.96
560.30	43847.60
560.46	44212.72
560.63	44463.16
560.79	44526.35
560.96	44147.18
561.12	44411.67
561.29	44577.84
561.45	44107.40
561.61	44638.70
561.78	44360.17
561.94	44584.86
562.11	44411.67
562.27	44261.87
562.44	45193.40
562.60	44713.59
562.77	44435.07
562.93	44189.31
563.10	45045.95
563.26	44308.68
563.42	44694.87
563.59	44526.35
563.75	44479.54
563.92	45003.82
564.08	44802.53
564.24	44732.32
564.41	44678.49
564.57	44945.31
564.74	44376.56
564.90	45017.86
565.07	44538.05
565.23	44767.43
565.39	45062.33
565.56	44954.67
565.72	44250.17
565.88	44636.36
566.05	44975.73
566.21	44760.40
566.38	45106.80
566.54	44924.24
566.70	45251.92
566.87	44992.12
567.03	44467.84
567.19	45003.82
567.36	44868.07
567.52	45092.76
567.68	45099.78
567.85	45720.02
568.01	45294.05
568.17	45172.34
568.34	45406.39
568.50	45394.69
568.66	44978.07
568.83	45474.27
568.99	45418.10
569.15	45385.33
569.32	45155.96
569.48	45317.45
569.64	45628.74
569.81	45265.96
569.97	45544.48
570.13	45429.80
570.30	45195.74
570.46	45429.80
570.62	45790.24
570.78	45127.87
570.95	45443.84
571.11	45448.52
571.27	45500.01
571.43	45441.50
571.60	45329.16
571.76	45507.04
571.92	45296.39
572.09	45401.71
572.25	45441.50
572.41	45633.42
572.57	45640.45
572.74	46134.30
572.90	45762.15
573.06	45940.04
573.22	45626.40
573.38	45837.05
573.55	45591.30
573.71	45944.72
573.87	45736.41
574.03	46038.34
574.20	45617.04
574.36	45488.31
574.52	45736.41
574.68	45834.71
574.84	45851.09
575.01	45902.59
575.17	45986.85
575.33	45638.11
575.49	45708.32
575.65	46019.61
575.82	45956.42
575.98	45720.02
576.14	46108.55
576.30	46045.36
576.46	45705.98
576.62	45666.19
576.79	45982.16
576.95	45626.40
577.11	45617.04
577.27	45687.26
577.43	45727.05
577.59	45991.53
577.75	45539.80
577.92	45303.41
578.08	45893.22
578.24	45811.31
578.40	46234.94
578.56	45928.33
578.72	45993.87
578.88	46059.40
579.04	45574.91
579.21	45603.00
579.37	46204.52
579.53	45998.55
579.69	46010.25
579.85	45525.76
580.01	45925.99
580.17	46309.84
580.33	46131.96
580.49	45703.64
580.65	46036.00
580.82	46211.54
580.98	45874.50
581.14	45771.52
581.30	46227.92
581.46	45663.85
581.62	45797.26
581.78	45865.14
581.94	46300.48
582.10	46124.94
582.26	46293.46
582.42	46061.74
582.58	46150.68
582.74	46241.96
582.90	45759.81
583.06	46431.55
583.22	45787.90
583.38	46473.68
583.54	46129.62
583.70	46045.36
583.86	46206.86
584.02	46000.89
584.18	46581.34
584.34	46066.42
584.50	46480.70
584.66	46073.45
584.82	45968.12
584.98	46358.99
585.14	45965.78
585.30	45914.29
585.46	46157.70
585.62	45923.65
585.78	45778.54
585.94	45984.51
586.10	46043.02
586.26	46003.23
586.42	45785.56
586.58	46169.41
586.74	45925.99
586.90	45820.67
587.06	45972.80
587.22	46349.63
587.38	45521.08
587.54	46342.61
587.70	46705.39
587.86	46267.71
588.02	46131.96
588.18	46497.08
588.34	45656.83
588.49	46469.00
588.65	46195.15
588.81	46457.29
588.97	46447.93
589.13	46518.15
589.29	46178.77
589.45	46469.00
589.61	46047.70
589.77	46277.07
589.93	46073.45
590.08	46445.59
590.24	46689.01
590.40	46979.23
590.56	47161.79
590.72	46799.01
590.88	46754.54
591.04	46770.93
591.20	46731.14
591.35	46663.26
591.51	47124.35
591.67	47103.28
591.83	46567.30
591.99	46593.04
592.15	46410.48
592.31	46415.16
592.46	46756.88
592.62	46492.40
592.78	47124.35
592.94	47126.69
593.10	47007.32
593.26	47007.32
593.41	46806.03
593.57	46366.01
593.73	46689.01
593.89	46583.68
594.05	47084.56
594.20	46873.91
594.36	47159.45
594.52	46941.78
594.68	46836.46
594.84	46848.16
594.99	47056.47
595.15	46747.52
595.31	47049.45
595.47	46693.69
595.62	47000.30
595.78	46602.41
595.94	46897.31
596.10	46691.35
596.25	47157.11
596.41	47377.12
596.57	46923.06
596.73	47243.71
596.88	47014.34
597.04	46532.19
597.20	47283.50
597.36	46791.99
597.51	46967.53
597.67	47042.43
597.83	47037.75
597.99	46834.12
598.14	46403.46
598.30	46873.91
598.46	47119.66
598.61	47070.51
598.77	46663.26
598.93	47079.88
599.09	46691.35
599.24	47346.70
599.40	47093.92
599.56	46857.52
599.71	47292.86
599.87	47735.23
600.03	47234.35
600.18	47026.04
600.34	46700.71
600.50	46967.53
600.65	47049.45
600.81	47339.68
600.97	47016.68
601.12	47608.84
601.28	46981.57
601.44	46969.87
601.59	46948.81
601.75	46864.55
601.91	47313.93
602.06	47009.66
602.22	47229.67
602.37	47117.32
602.53	46852.84
602.69	47384.15
602.84	47306.91
603.00	47405.21
603.16	46979.23
603.31	47239.03
603.47	46836.46
603.62	47049.45
603.78	47250.74
603.94	46988.60
604.09	46836.46
604.25	46691.35
604.40	47021.36
604.56	47267.12
604.71	47367.76
604.87	46979.23
605.03	46777.95
605.18	47093.92
605.34	46906.68
605.49	46745.18
605.65	47278.82
605.80	46532.19
605.96	46979.23
606.12	47117.32
606.27	47192.22
606.43	46995.62
606.58	47124.35
606.74	46887.95
606.89	47084.56
607.05	47405.21
607.20	47152.43
607.36	46548.57
607.51	47061.15
607.67	47395.85
607.82	46515.81
607.98	46733.48
608.13	46958.17
608.29	47086.90
608.44	47232.01
608.60	46532.19
608.75	47075.19
608.91	47021.36
609.06	46433.89
609.22	46735.82
609.37	46859.87
609.53	47215.63
609.68	46747.52
609.84	46770.93
609.99	46820.08
610.15	46747.52
610.30	46848.16
610.46	46644.54
610.61	46976.89
610.76	46670.28
610.92	46440.91
611.07	46499.42
611.23	46265.37
611.38	46808.37
611.54	46452.61
611.69	46635.17
611.84	46625.81
612.00	46635.17
612.15	46424.53
612.31	46810.71
612.46	46286.43
612.62	46689.01
612.77	46396.44
612.92	46960.51
613.08	46487.72
613.23	46466.66
613.39	46340.27
613.54	46050.04
613.69	46684.33
613.85	46464.32
614.00	46330.90
614.15	46279.41
614.31	46567.30
614.46	46466.66
614.62	45813.65
614.77	46368.35
614.92	46251.33
615.08	46520.49
615.23	46447.93
615.38	46398.78
615.54	46504.10
615.69	46319.20
615.84	46344.95
616.00	46408.14
616.15	46761.56
616.30	46085.15
616.46	45808.96
616.61	46476.02
616.76	46363.67
616.92	46309.84
617.07	46209.20
617.22	46260.69
617.37	45783.22
617.53	46082.81
617.68	46218.56
617.83	46260.69
617.99	46520.49
618.14	45879.18
618.29	45705.98
618.45	45680.24
618.60	45860.46
618.75	45806.62
618.90	45748.11
619.06	45581.93
619.21	45846.41
619.36	45989.19
619.51	45705.98
619.67	45429.80
619.82	45467.25
619.97	46014.93
620.12	45642.79
620.28	45698.96
620.43	45820.67
620.58	45923.65
620.73	45787.90
620.89	46019.61
621.04	45743.43
621.19	45373.63
621.34	45483.63
621.49	45191.06
621.65	45975.14
621.80	45605.34
621.95	45485.97
622.10	45794.92
622.25	45460.23
622.41	45141.91
622.56	45214.47
622.71	45429.80
622.86	45188.72
623.01	45467.25
623.16	44992.12
623.32	45579.59
623.47	45111.49
623.62	45123.19
623.77	45298.73
623.92	45059.99
624.07	45525.76
624.23	45287.03
624.38	45352.56
624.53	44659.76
624.68	44858.71
624.83	45052.97
624.98	45563.21
625.13	44989.78
625.29	45038.93
625.44	45097.44
625.59	44987.44
625.74	44999.14
625.89	44580.18
626.04	44418.69
626.19	45134.89
626.34	44652.74
626.49	44711.25
626.65	44318.04
626.80	44467.84
626.95	44453.79
627.10	44334.43
627.25	44868.07
627.40	44589.55
627.55	44924.24
627.70	44128.46
627.85	44687.85
628.00	44268.89
628.15	44399.96
628.30	44100.37
628.45	43735.25
628.60	44254.85
628.76	44622.31
628.91	44362.51
629.06	43863.98
629.21	43959.94
629.36	44360.17
629.51	44472.52
629.66	44552.10
629.81	43875.68
629.96	44435.07
630.11	44107.40
630.26	43936.54
630.41	43798.44
630.56	43922.49
630.71	44320.38
630.86	43936.54
631.01	43964.62
631.16	44020.80
631.31	44294.64
631.46	43805.47
631.61	44191.65
631.76	43941.22
631.91	43999.73
632.06	44776.79
632.21	44399.96
632.36	44130.80
632.51	43711.84
632.66	43789.08
632.81	43482.47
632.96	44268.89
633.10	43718.87
633.25	43765.68
633.40	43988.03
633.55	43917.81
633.70	43538.65
633.85	43761.00
634.00	43243.74
634.15	43676.74
634.30	43409.92
634.45	43082.24
634.60	43384.17
634.75	43487.15
634.90	43512.90
635.05	43744.61
635.19	43473.11
635.34	43590.14
635.49	43147.78
635.64	43304.59
635.79	43536.30
635.94	43445.02
636.09	43384.17
636.24	43178.20
636.39	43430.98
636.53	42892.66
636.68	43054.15
636.83	43061.18
636.98	43093.94
637.13	42560.30
637.28	42782.65
637.43	42777.97
637.57	43002.66
637.72	42883.30
637.87	43248.42
638.02	43676.74
638.17	42616.47
638.32	42766.27
638.46	42625.84
638.61	42225.60
638.76	42375.40
638.91	42618.81
639.06	42473.70
639.20	42389.44
639.35	42574.34
639.50	41991.55
639.65	42878.61
639.80	42597.75
639.94	42014.96
640.09	42873.93
640.24	42639.88
640.39	41975.17
640.54	42277.10
640.68	42244.33
640.83	42660.94
640.98	42443.27
641.13	42155.39
641.27	42653.92
641.42	42616.47
641.57	42167.09
641.72	42712.44
641.86	42295.82
642.01	41731.75
642.16	42080.49
642.31	41979.85
642.45	42131.98
642.60	41785.58
642.75	41942.40
642.90	42178.79
643.04	42139.00
643.19	42012.62
643.34	41930.70
643.48	41764.52
643.63	41911.97
643.78	42007.94
643.93	42499.45
644.07	41816.01
644.22	41792.61
644.37	41804.31
644.51	42103.90
644.66	41911.97
644.81	41659.20
644.95	42131.98
645.10	41516.42
645.25	41333.86
645.39	41130.23
645.54	41736.43
645.69	41371.31
645.83	41516.42
645.98	41558.55
646.13	41666.22
646.27	41743.45
646.42	40968.74
646.57	41326.84
646.71	41565.57
646.86	41535.15
647.00	42050.06
647.15	41549.19
647.30	41373.65
647.44	41549.19
647.59	41530.47
647.74	41350.24
647.88	40914.90
648.03	41406.42
648.17	41509.40
648.32	40861.07
648.47	41535.15
648.61	41336.20
648.76	41315.14
648.90	41106.83
649.05	41141.94
649.20	41006.19
649.34	41195.77
649.49	40996.82
649.63	40900.86
649.78	41296.41
649.92	41387.69
650.07	41158.32
650.21	41317.48
650.36	41319.82
650.51	40919.59
650.65	41476.63
650.80	40701.92
650.94	41095.13
651.09	41223.86
651.23	40339.13
651.38	40844.69
651.52	40465.52
651.67	40786.18
651.81	41081.08
651.96	40732.34
652.10	40559.14
652.25	40591.91
652.39	40678.51
652.54	40804.90
652.68	40594.25
652.83	40439.78
652.97	40697.24
653.12	40980.44
653.26	40109.76
653.41	40456.16
653.55	40505.31
653.70	40570.85
653.84	40556.80
653.99	40474.88
654.13	40002.10
654.27	40325.09
654.42	40493.61
654.56	40100.40
654.71	40285.30
654.85	40414.03
655.00	40535.74
655.14	40566.16
655.29	40779.15
655.43	40292.32
655.57	40107.42
655.72	39646.33
655.86	40170.61
656.01	39723.57
656.15	39758.68
656.30	39875.71
656.44	39592.50
656.58	40109.76
656.73	39840.60
656.87	39508.24
657.01	39302.28
657.16	39819.53
657.30	39651.02
657.45	40004.44
657.59	39414.62
657.73	38834.17
657.88	39985.71
658.02	39061.20
658.16	40205.72
658.31	39910.82
658.45	39847.62
658.60	39526.97
658.74	39456.75
658.88	39199.29
659.03	39524.63
659.17	39318.66
659.31	38998.01
659.46	39049.50
659.60	39133.76
659.74	39150.14
659.89	38756.93
660.03	38693.74
660.17	39412.28
660.32	38693.74
660.46	38586.07
660.60	38469.04
660.74	38827.15
660.89	38682.03
661.03	38335.63
661.17	38316.91
661.32	38199.88
661.46	38824.81
661.60	38469.04
661.74	38476.07
661.89	38614.16
662.03	38391.81
662.17	38010.30
662.31	38492.45
662.46	38513.52
662.60	37912.00
662.74	37755.18
662.88	38024.34
663.03	37563.26
663.17	37820.72
663.31	37518.79
663.45	37944.76
663.60	38497.13
663.74	37984.55
663.88	37874.55
664.02	37560.92
664.17	38230.31
664.31	37556.24
664.45	37151.32
664.59	37717.73
664.73	37258.99
664.88	37577.30
665.02	37312.82
665.16	37125.58
665.30	36933.65
665.44	37364.31
665.59	37001.53
665.73	36772.16
665.87	36505.34
666.01	36552.15
666.15	36570.87
666.29	36711.30
666.44	37123.24
666.58	36809.61
666.72	36467.89
666.86	36692.58
667.00	36273.62
667.14	36491.29
667.28	36868.12
667.43	36652.79
667.57	36605.98
667.71	36620.02
667.85	36818.97
667.99	36149.57
668.13	36006.80
668.27	35969.35
668.41	35770.41
668.56	35777.43
668.70	35559.76
668.84	35510.61
668.98	35356.13
669.12	35894.46
669.26	35721.26
669.40	35346.77
669.54	35433.37
669.68	35629.98
669.82	35150.17
669.96	35049.52
670.10	35161.87
670.25	35267.19
670.39	35175.91
670.53	35447.41
670.67	34850.58
670.81	35332.73
670.95	34939.52
671.09	34925.47
671.23	34565.03
671.37	34955.90
671.51	34808.45
671.65	34440.98
671.79	34307.57
671.93	34731.21
672.07	34775.68
672.21	34691.42
672.35	34082.88
672.49	34347.36
672.63	34230.33
672.77	33659.24
672.91	34096.92
673.05	34012.66
673.19	33589.03
673.33	33968.19
673.47	33542.22
673.61	33572.64
673.75	33401.79
673.89	33467.32
674.03	33261.35
674.17	32762.82
674.31	33221.56
674.45	32870.48
674.59	33146.67
674.73	33104.54
674.87	33113.90
675.01	32737.07
675.15	32285.35
675.29	32187.05
675.43	32311.10
675.56	32889.21
675.70	32503.02
675.84	32290.03
675.98	31381.90
676.12	31967.04
676.26	32240.88
676.40	31622.98
676.54	31772.77
676.68	31833.63
676.82	31178.28
676.96	31452.12
677.10	31632.34
677.23	31447.44
677.37	31274.24
677.51	31604.25
677.65	31091.68
677.79	30822.51
677.93	31051.89
678.07	30958.27
678.21	31026.14
678.34	30504.20
678.48	30328.66
678.62	30579.10
678.76	30302.92
678.90	30164.82
679.04	30316.96
679.18	30370.79
679.31	30134.40
679.45	30012.69
679.59	30061.84
679.73	29584.37
679.87	29542.24
680.00	29577.35
680.14	29465.00
680.28	29762.25
680.42	29624.16
680.56	29263.72
680.70	29221.59
680.83	28711.35
680.97	28608.37
681.11	29223.93
681.25	28725.39
681.39	28940.72
681.52	28739.44
681.66	28582.62
681.80	27960.04
681.94	27988.13
682.07	27557.47
682.21	27690.88
682.35	28065.36
682.49	27978.76
682.62	27779.82
682.76	27433.42
682.90	27735.35
683.04	27585.55
683.17	27662.79
683.31	27428.74
683.45	27201.71
683.59	26773.39
683.72	26614.23
683.86	27077.66
684.00	26768.71
684.13	26836.58
684.27	26822.54
684.41	26480.82
684.55	26312.30
684.68	26235.06
684.82	26031.44
684.96	26148.46
685.09	25996.33
685.23	26324.01
685.37	26373.16
685.50	26441.03
685.64	26036.12
685.78	25893.35
685.91	25340.98
686.05	25195.87
686.19	25078.84
686.32	25020.33
686.46	24627.12
686.60	25135.01
686.73	24933.73
686.87	24760.53
687.01	24973.52
687.14	24999.26
687.28	24587.33
687.42	24566.26
687.55	24456.26
687.69	24397.74
687.82	24063.05
687.96	24182.42
688.10	24297.10
688.23	24079.43
688.37	24098.16
688.50	24198.80
688.64	23910.91
688.78	23648.77
688.91	23924.96
689.05	23496.64
689.18	23318.76
689.32	22864.69
689.46	23089.38
689.59	23152.58
689.73	23276.63
689.86	23412.38
690.00	23222.80
690.13	22738.30
690.27	22841.29
690.41	22820.22
690.54	22141.47
690.68	22417.65
690.81	22052.53
690.95	21994.01
691.08	21975.29
691.22	21874.65
691.35	21781.03
691.49	22160.19
691.62	21893.37
691.76	21525.91
691.89	21418.24
692.03	21099.93
692.16	20973.54
692.30	21362.07
692.43	21242.70
692.57	21207.59
692.70	21071.84
692.84	20802.68
692.97	20727.78
693.11	20603.74
693.24	20624.80
693.38	20589.69
693.51	20397.77
693.65	20526.50
693.78	20095.84
693.92	20173.08
694.05	20121.59
694.19	20011.58
694.32	20039.67
694.45	19997.54
694.59	20112.22
694.72	20037.33
694.86	19438.15
694.99	19452.19
695.13	19442.83
695.26	19323.46
695.39	19201.76
695.53	19232.18
695.66	19140.90
695.80	18904.51
695.93	19199.41
696.07	18815.57
696.20	18494.91
696.33	18403.63
696.47	18464.49
696.60	18567.47
696.73	18539.38
696.87	18494.91
697.00	18429.38
697.14	17980.00
697.27	17802.11
697.40	17781.05
697.54	18078.30
697.67	17472.10
697.80	17958.93
697.94	17645.30
698.07	17752.96
698.21	17427.63
698.34	17600.83
698.47	17118.68
698.61	17179.53
698.74	17015.69
698.87	16812.07
699.01	16760.58
699.14	17167.83
699.27	16720.79
699.40	16711.42
699.54	16673.98
699.67	16758.24
699.80	16760.58
699.94	16486.73
700.07	16491.41
700.20	16339.28
700.34	16269.06
700.47	16212.89
700.60	16442.26
700.73	16072.46
700.87	16088.84
701.00	15796.28
701.13	15543.50
701.26	15569.24
701.40	15639.46
701.53	15452.22
701.66	15592.65
701.79	15365.62
701.93	15157.31
702.06	15304.76
702.19	15087.09
702.32	15187.74
702.46	14958.36
702.59	15253.27
702.72	14956.02
702.85	15070.71
702.99	14883.47
703.12	14588.56
703.25	14754.74
703.38	14513.66
703.51	14473.87
703.65	14326.42
703.78	14052.58
703.91	14050.24
704.04	14118.11
704.17	13827.88
704.31	14190.67
704.44	13827.88
704.57	13582.13
704.70	13937.89
704.83	13699.16
704.96	13919.17
705.10	13558.72
705.23	13612.56
>>>>>End Processed Spectral Data<<<<<
