SpectraSuite Data File
++++++++++++++++++++++++++++++++++++
Date: Fri Oct 25 11:33:39 EDT 2013
User: price-jones
Dark Spectrum Present: No
Reference Spectrum Present: No
Number of Sampled Component Spectra: 1
Spectrometers: USB2+H05261
Integration Time (usec): 100000 (USB2+H05261)
Spectra Averaged: 1 (USB2+H05261)
Boxcar Smoothing: 0 (USB2+H05261)
Correct for Electrical Dark: No (USB2+H05261)
Strobe/Lamp Enabled: No (USB2+H05261)
Correct for Detector Non-linearity: No (USB2+H05261)
Correct for Stray Light: No (USB2+H05261)
Number of Pixels in Processed Spectrum: 2048
>>>>>Begin Processed Spectral Data<<<<<
365.73	262.14
365.92	262.14
366.12	262.14
366.32	217.67
366.52	124.05
366.72	191.92
366.91	210.65
367.11	154.48
367.31	124.05
367.51	222.35
367.70	196.60
367.90	156.82
368.10	145.11
368.30	128.73
368.49	189.58
368.69	236.39
368.89	180.22
369.09	180.22
369.28	224.69
369.48	238.73
369.68	189.58
369.87	236.39
370.07	278.52
370.27	299.59
370.47	287.89
370.66	482.15
370.86	521.94
371.06	531.30
371.25	608.54
371.45	486.83
371.65	582.79
371.84	601.52
372.04	477.47
372.24	657.69
372.44	587.47
372.63	573.43
372.83	585.13
373.03	582.79
373.22	594.50
373.42	636.63
373.62	547.69
373.81	725.57
374.01	629.60
374.21	566.41
374.40	634.29
374.60	648.33
374.79	589.82
374.99	650.67
375.19	664.71
375.38	727.91
375.58	674.07
375.78	720.88
375.97	582.79
376.17	660.03
376.37	650.67
376.56	657.69
376.76	695.14
376.95	664.71
377.15	653.01
377.35	641.31
377.54	704.50
377.74	718.54
377.93	641.31
378.13	706.84
378.33	716.20
378.52	704.50
378.72	767.70
378.91	772.38
379.11	669.39
379.31	688.12
379.50	720.88
379.70	746.63
379.89	774.72
380.09	781.74
380.28	662.37
380.48	788.76
380.68	669.39
380.87	725.57
381.07	741.95
381.26	791.10
381.46	795.78
381.65	772.38
381.85	784.08
382.04	816.85
382.24	856.64
382.43	844.93
382.63	711.52
382.83	741.95
383.02	809.83
383.22	774.72
383.41	833.23
383.61	840.25
383.80	844.93
384.00	814.51
384.19	767.70
384.39	753.65
384.58	826.21
384.78	868.34
384.97	896.43
385.17	901.11
385.36	819.19
385.56	847.27
385.75	833.23
385.95	814.51
386.14	866.00
386.34	814.51
386.53	915.15
386.72	823.87
386.92	887.06
387.11	894.08
387.31	898.77
387.50	866.00
387.70	936.21
387.89	863.66
388.09	915.15
388.28	926.85
388.48	936.21
388.67	873.02
388.86	959.62
389.06	891.74
389.25	917.49
389.45	915.15
389.64	917.49
389.84	945.58
390.03	947.92
390.22	938.55
390.42	1067.28
390.61	1006.43
390.81	968.98
391.00	898.77
391.19	999.41
391.39	933.87
391.58	1022.81
391.78	950.26
391.97	999.41
392.16	1013.45
392.36	973.66
392.55	1062.60
392.75	997.07
392.94	1081.33
393.13	1067.28
393.33	1109.41
393.52	1086.01
393.71	1109.41
393.91	1067.28
394.10	1071.97
394.29	1064.94
394.49	1043.88
394.68	1102.39
394.88	1142.18
395.07	1104.73
395.26	1097.71
395.46	1149.20
395.65	1198.35
395.84	1151.54
396.04	1273.25
396.23	1205.38
396.42	1179.63
396.62	1142.18
396.81	1214.74
397.00	1266.23
397.19	1224.10
397.39	1210.06
397.58	1263.89
397.77	1294.32
397.97	1137.50
398.16	1277.93
398.35	1343.47
398.55	1348.15
398.74	1301.34
398.93	1355.17
399.12	1371.55
399.32	1306.02
399.51	1179.63
399.70	1364.53
399.90	1380.92
400.09	1366.87
400.28	1406.66
400.47	1418.36
400.67	1411.34
400.86	1296.66
401.05	1394.96
401.24	1481.56
401.44	1441.77
401.63	1502.62
401.82	1467.52
402.01	1528.37
402.21	1444.11
402.40	1460.49
402.59	1448.79
402.78	1472.20
402.97	1577.52
403.17	1523.69
403.36	1439.43
403.55	1530.71
403.74	1598.59
403.93	1544.75
404.13	1668.80
404.32	1577.52
404.51	1668.80
404.70	1607.95
404.89	1610.29
405.09	1600.93
405.28	1790.51
405.47	1724.97
405.66	1706.25
405.85	1678.16
406.05	1757.74
406.24	1722.63
406.43	1717.95
406.62	1757.74
406.81	1872.43
407.00	1844.34
407.20	1781.15
407.39	1842.00
407.58	1811.57
407.77	1902.86
407.96	1853.70
408.15	1788.17
408.34	1867.75
408.54	1956.69
408.73	1916.90
408.92	1832.64
409.11	2001.16
409.30	1834.98
409.49	1961.37
409.68	2047.97
409.87	2019.88
410.07	2101.80
410.26	1991.80
410.45	2036.27
410.64	2108.82
410.83	2148.61
411.02	2101.80
411.21	2157.97
411.40	2190.74
411.59	2132.23
411.78	2216.49
411.98	2139.25
412.17	2186.06
412.36	2232.87
412.55	2340.54
412.74	2361.60
412.93	2328.83
413.12	2326.49
413.31	2370.96
413.50	2513.74
413.69	2326.49
413.88	2569.91
414.07	2567.57
414.26	2513.74
414.45	2553.52
414.64	2558.21
414.83	2677.57
415.02	2600.34
415.22	2719.70
415.41	2612.04
415.60	2614.38
415.79	2736.09
415.98	2745.45
416.17	2731.41
416.36	2775.88
416.55	2808.64
416.74	2813.32
416.93	2733.75
417.12	2876.52
417.31	2958.44
417.50	2970.14
417.69	2942.05
417.88	3000.57
418.07	3033.33
418.26	3019.29
418.45	2960.78
418.64	3073.12
418.83	3005.25
419.02	3108.23
419.21	3061.42
419.39	3040.36
419.58	3052.06
419.77	3119.93
419.96	3136.32
420.15	3091.85
420.34	3251.00
420.53	3325.90
420.72	3248.66
420.91	3269.73
421.10	3304.84
421.29	3353.99
421.48	3204.19
421.67	3335.26
421.86	3379.73
422.05	3295.47
422.24	3372.71
422.43	3222.92
422.61	3431.23
422.80	3463.99
422.99	3281.43
423.18	3412.50
423.37	3428.88
423.56	3447.61
423.75	3330.58
423.94	3267.39
424.13	3169.09
424.32	3176.11
424.50	3403.14
424.69	3515.48
424.88	3545.91
425.07	3407.82
425.26	3365.69
425.45	3447.61
425.64	3438.25
425.83	3463.99
426.01	3403.14
426.20	3403.14
426.39	3595.06
426.58	3559.95
426.77	3438.25
426.96	3623.15
427.15	3557.61
427.33	3620.81
427.52	3581.02
427.71	3669.96
427.90	3639.53
428.09	3691.02
428.28	3740.18
428.46	3545.91
428.65	3651.24
428.84	3751.88
429.03	3826.78
429.22	3618.47
429.40	3695.71
429.59	3716.77
429.78	3609.11
429.97	3606.77
430.16	3831.46
430.34	3852.52
430.53	3904.01
430.72	3808.05
430.91	3826.78
431.10	3948.48
431.28	3974.23
431.47	4077.21
431.66	3960.19
431.85	3936.78
432.03	4042.11
432.22	3934.44
432.41	3955.51
432.60	4046.79
432.79	3983.59
432.97	4224.67
433.16	4051.47
433.35	4088.92
433.54	4149.77
433.72	4147.43
433.91	4290.20
434.10	4278.50
434.28	4177.86
434.47	4126.36
434.66	4273.82
434.85	4301.90
435.03	4418.93
435.22	4390.84
435.41	4440.00
435.59	4451.70
435.78	4425.95
435.97	4510.21
436.16	4437.66
436.34	4531.28
436.53	4374.46
436.72	4627.24
436.90	4407.23
437.09	4505.53
437.28	4339.35
437.46	4437.66
437.65	4676.39
437.84	4702.14
438.02	4652.98
438.21	4652.98
438.40	4538.30
438.58	4727.88
438.77	4798.10
438.96	4774.69
439.14	5034.49
439.33	4896.40
439.52	4964.28
439.70	4861.29
439.89	4964.28
440.08	5123.43
440.26	4999.38
440.45	4999.38
440.63	5067.26
440.82	5137.48
441.01	5121.09
441.19	5144.50
441.38	5240.46
441.57	5130.45
441.75	5247.48
441.94	5378.55
442.12	5226.42
442.31	5387.91
442.50	5413.66
442.68	5357.49
442.87	5423.02
443.05	5530.69
443.24	5504.94
443.43	5430.04
443.61	5621.97
443.80	5785.80
443.98	5430.04
444.17	5380.89
444.35	5619.63
444.54	5811.55
444.73	5570.48
444.91	5715.59
445.10	5841.98
445.28	5591.54
445.47	5612.60
445.65	5554.09
445.84	5633.67
446.02	5734.31
446.21	5579.84
446.39	5603.24
446.58	5685.16
446.77	5767.08
446.95	5645.37
447.14	5748.36
447.32	5738.99
447.51	5731.97
447.69	5947.30
447.88	5783.46
448.06	5673.46
448.25	5743.67
448.43	5898.15
448.62	5738.99
448.80	5710.91
448.99	5830.27
449.17	5743.67
449.36	5781.12
449.54	5898.15
449.73	6008.16
449.91	6106.46
450.10	5921.56
450.28	6242.21
450.46	6169.65
450.65	5998.79
450.83	6052.63
451.02	6300.72
451.20	6249.23
451.39	6040.92
451.57	6195.40
451.76	6171.99
451.94	6197.74
452.13	6401.37
452.31	6249.23
452.49	6195.40
452.68	6370.94
452.86	6188.38
453.05	6429.45
453.23	6431.79
453.42	6256.25
453.60	6324.13
453.78	6551.16
453.97	6483.28
454.15	6576.91
454.34	6221.14
454.52	6560.52
454.70	6462.22
454.89	6548.82
455.07	6530.09
455.26	6658.82
455.44	6782.87
455.62	6722.02
455.81	6651.80
455.99	6682.23
456.17	6729.04
456.36	6787.55
456.54	6686.91
456.73	6827.34
456.91	6956.07
457.09	7133.95
457.28	6998.20
457.46	6850.75
457.64	7061.40
457.83	7084.80
458.01	7059.06
458.19	7197.15
458.38	7080.12
458.56	7201.83
458.74	7178.42
458.93	7267.36
459.11	7187.79
459.29	7279.07
459.48	7316.51
459.66	7241.62
459.84	7279.07
460.03	7428.86
460.21	7426.52
460.39	7562.27
460.57	7454.61
460.76	7515.46
460.94	7492.05
461.12	7428.86
461.31	7548.23
461.49	7412.48
461.67	7456.95
461.85	7562.27
462.04	7686.32
462.22	8208.26
462.40	7770.58
462.59	7714.41
462.77	7854.84
462.95	7691.00
463.13	7770.58
463.32	7812.71
463.50	7683.98
463.68	7817.39
463.86	8060.80
464.05	7857.18
464.23	7803.35
464.41	7768.24
464.59	7648.87
464.78	8016.33
464.96	8016.33
465.14	7948.46
465.32	8135.70
465.50	8156.77
465.69	8091.23
465.87	8058.46
466.05	8360.39
466.23	8252.73
466.41	8327.63
466.60	8329.97
466.78	8156.77
466.96	8166.13
467.14	8170.81
467.32	8315.92
467.51	8306.56
467.69	8320.60
467.87	8262.09
468.05	8234.00
468.23	8212.94
468.41	8334.65
468.60	8418.91
468.78	8659.98
468.96	8219.96
469.14	8482.10
469.32	8528.91
469.50	8313.58
469.69	8802.75
469.87	8734.88
470.05	8720.84
470.23	8891.70
470.41	8847.22
470.59	8667.00
470.77	8919.78
470.95	9022.77
471.14	8971.27
471.32	8779.35
471.50	8940.85
471.68	8973.61
471.86	9039.15
472.04	9046.17
472.22	9423.00
472.40	9142.13
472.58	9249.80
472.77	9046.17
472.95	9357.46
473.13	9586.83
473.31	9472.15
473.49	9437.04
473.67	9280.22
473.85	9493.21
474.03	9582.15
474.21	9682.80
474.39	9900.47
474.57	9764.72
474.75	9884.08
474.93	9949.62
475.12	9888.76
475.30	9980.04
475.48	9996.43
475.66	10071.33
475.84	10190.69
476.02	10403.68
476.20	10076.01
476.38	10513.69
476.56	10761.78
476.74	10686.89
476.92	10347.51
477.10	10537.09
477.28	10815.62
477.46	10710.29
477.64	10712.63
477.82	10775.83
478.00	11232.23
478.18	11136.27
478.36	11183.08
478.54	11323.51
478.72	11541.18
478.90	11557.57
479.08	11688.64
479.26	11894.60
479.44	11653.53
479.62	11669.91
479.80	11786.94
479.98	11929.71
480.16	12175.47
480.34	12189.51
480.52	12152.06
480.70	12301.86
480.88	12184.83
481.06	12315.90
481.24	12358.03
481.41	12784.01
481.59	12779.32
481.77	12748.90
481.95	12919.76
482.13	12973.59
482.31	13039.12
482.49	13411.27
482.67	13221.69
482.85	13638.30
483.03	13563.40
483.21	13685.11
483.39	13774.05
483.57	13596.17
483.74	13820.86
483.92	14040.87
484.10	14169.60
484.28	14415.36
484.46	14548.77
484.64	14848.36
484.82	14497.28
485.00	14831.97
485.18	14831.97
485.35	15084.75
485.53	15197.10
485.71	15014.54
485.89	15206.46
486.07	15796.28
486.25	15220.50
486.43	15403.07
486.61	15789.25
486.78	15950.75
486.96	15765.85
487.14	16278.43
487.32	16219.91
487.50	16250.34
487.68	16360.34
487.85	16676.32
488.03	16702.06
488.21	16802.71
488.39	17181.87
488.57	17289.54
488.75	17291.88
488.92	17238.05
489.10	17680.41
489.28	17703.81
489.46	17736.58
489.64	17781.05
489.81	18279.58
489.99	17926.16
490.17	18143.83
490.35	18310.01
490.53	18628.32
490.70	18857.70
490.88	18590.88
491.06	18890.46
491.24	18860.04
491.41	18881.10
491.59	19300.06
491.77	18937.27
491.95	19187.71
492.13	19864.13
492.30	19623.05
492.48	19697.95
492.66	19606.67
492.84	19915.62
493.01	20037.33
493.19	20449.26
493.37	20196.48
493.54	20465.64
493.72	20697.36
493.90	20657.57
494.08	20882.26
494.25	20931.41
494.43	21046.10
494.61	21301.22
494.79	21387.82
494.96	21427.60
495.14	21422.92
495.32	21804.43
495.49	21759.96
495.67	21818.47
495.85	22010.40
496.02	22281.90
496.20	22452.76
496.38	22209.34
496.55	22288.92
496.73	22764.05
496.91	22778.09
497.09	22787.46
497.26	22780.43
497.44	22946.61
497.62	23056.62
497.79	23307.05
497.97	23534.09
498.14	23908.57
498.32	23473.23
498.50	23784.52
498.67	23793.89
498.85	23683.88
499.03	23995.17
499.20	24374.34
499.38	24372.00
499.56	24266.67
499.73	24025.60
499.91	24615.41
500.08	24783.93
500.26	24596.69
500.44	24919.68
500.61	24870.53
500.79	24886.92
500.97	25118.63
501.14	25127.99
501.32	25369.07
501.49	25357.36
501.67	25268.42
501.84	25539.93
502.02	25645.25
502.20	25490.77
502.37	25750.57
502.55	25596.10
502.72	25841.85
502.90	26195.28
503.07	25738.87
503.25	26309.96
503.43	25940.16
503.60	26281.88
503.78	26221.02
503.95	26527.63
504.13	26953.61
504.30	26801.47
504.48	26806.16
504.65	27042.55
504.83	27042.55
505.01	27150.21
505.18	27014.46
505.36	27391.29
505.53	27410.01
505.71	27513.00
505.88	27632.36
506.06	26941.91
506.23	27445.12
506.41	27831.31
506.58	27672.15
506.76	28070.04
506.93	28215.16
507.11	28107.49
507.28	28428.15
507.46	28086.43
507.63	28065.36
507.81	28336.87
507.98	28320.48
508.16	28840.08
508.33	28648.16
508.50	28907.96
508.68	28924.34
508.85	29024.98
509.03	28823.70
509.20	28999.24
509.38	29357.34
509.55	29242.65
509.73	29247.33
509.90	29432.24
510.08	28957.11
510.25	29633.52
510.42	29783.32
510.60	29869.92
510.77	29680.33
510.95	30078.22
511.12	29900.34
511.30	29949.50
511.47	30354.41
511.64	30103.97
511.82	30464.41
511.99	30017.37
512.17	30377.81
512.34	30529.95
512.51	30499.52
512.69	30829.54
512.86	31110.40
513.04	30824.86
513.21	30923.16
513.38	31264.88
513.56	31316.37
513.73	31063.59
513.90	31087.00
514.08	31321.05
514.25	31419.35
514.43	31510.63
514.60	31454.46
514.77	31651.06
514.95	32154.28
515.12	31529.36
515.29	31894.48
515.47	32243.22
515.64	31828.95
515.81	31791.50
515.99	32025.55
516.16	32259.60
516.33	32325.14
516.51	32697.28
516.68	32376.63
516.85	32430.46
517.03	32573.24
517.20	32566.21
517.37	32437.48
517.54	32889.21
517.72	32982.83
517.89	33268.37
518.06	32865.80
518.24	33345.61
518.41	32664.52
518.58	32786.22
518.75	32765.16
518.93	33614.77
519.10	33469.66
519.27	33483.70
519.45	33717.76
519.62	33858.19
519.79	33273.06
519.96	33376.04
520.14	34052.45
520.31	33537.54
520.48	33872.23
520.65	34113.31
520.83	34270.12
521.00	34403.53
521.17	34202.25
521.34	34387.15
521.52	34637.59
521.69	34440.98
521.86	34651.63
522.03	34719.51
522.20	35058.88
522.38	35103.35
522.55	34911.43
522.72	34810.79
522.89	35124.42
523.07	35386.56
523.24	35229.74
523.41	35896.80
523.58	35337.41
523.75	35999.78
523.92	35306.98
524.10	35718.92
524.27	35931.90
524.44	35864.03
524.61	35882.75
524.78	36018.50
524.96	35934.24
525.13	36055.95
525.30	35896.80
525.47	36348.52
525.64	35852.33
525.81	36463.21
525.98	36524.06
526.16	36156.60
526.33	36039.57
526.50	36821.31
526.67	36533.42
526.84	36652.79
527.01	36521.72
527.18	36641.09
527.36	37139.62
527.53	36800.24
527.70	36931.31
527.87	37401.76
528.04	36858.76
528.21	37062.38
528.38	37209.84
528.55	37148.98
528.72	37345.59
528.89	37394.74
529.07	37151.32
529.24	37523.47
529.41	37635.81
529.58	37383.04
529.75	37490.70
529.92	37572.62
530.09	37745.82
530.26	37291.76
530.43	37605.39
530.60	37677.94
530.77	37581.98
530.94	38082.86
531.11	37837.10
531.28	38115.62
531.46	38220.95
531.63	38178.82
531.80	38340.32
531.97	38642.24
532.14	38258.40
532.31	38651.61
532.48	38649.27
532.65	38459.68
532.82	38330.95
532.99	38251.38
533.16	38532.24
533.33	38731.18
533.50	39108.01
533.67	38476.07
533.84	38888.00
534.01	38567.35
534.18	38890.34
534.35	39461.43
534.52	39440.37
534.69	39323.34
534.86	39295.25
535.03	39077.58
535.20	39210.99
535.37	39597.18
535.54	39428.66
535.71	39091.63
535.88	39606.55
536.05	39489.52
536.22	39519.95
536.38	39562.08
536.55	39831.24
536.72	39517.60
536.89	39754.00
537.06	39709.53
537.23	40332.11
537.40	39672.08
537.57	39957.63
537.74	39892.09
537.91	40236.15
538.08	40189.34
538.25	39962.31
538.42	39922.52
538.59	40444.46
538.75	40289.98
538.92	40409.35
539.09	40500.63
539.26	40589.57
539.43	40776.81
539.60	40627.02
539.77	40608.29
539.94	40989.80
540.11	40680.85
540.28	40694.89
540.44	40573.19
540.61	40470.20
540.78	41127.89
540.95	41263.64
541.12	40650.42
541.29	40598.93
541.46	41125.55
541.62	41446.21
541.79	41202.79
541.96	40837.67
542.13	40741.71
542.30	41310.46
542.47	41284.71
542.63	41055.34
542.80	41467.27
542.97	41708.35
543.14	41879.21
543.31	41844.10
543.48	41528.13
543.64	42696.05
543.81	41673.24
543.98	41869.84
544.15	42239.65
544.32	41926.02
544.48	42412.85
544.65	42162.41
544.82	42260.71
544.99	42033.68
545.16	42054.75
545.32	42073.47
545.49	42424.55
545.66	43072.88
545.83	42972.24
546.00	42623.50
546.16	42330.93
546.33	42139.00
546.50	42504.13
546.67	42801.38
546.83	42642.22
547.00	42499.45
547.17	42726.48
547.34	42782.65
547.50	43175.86
547.67	43384.17
547.84	42941.81
548.00	43056.50
548.17	43220.33
548.34	43323.32
548.51	43405.23
548.67	43299.91
548.84	43084.58
549.01	43552.69
549.18	43133.73
549.34	43253.10
549.51	43316.29
549.68	43440.34
549.84	43318.64
550.01	43611.20
550.18	43667.37
550.34	43672.06
550.51	43835.89
550.68	44107.40
550.84	43180.54
551.01	44011.43
551.18	43770.36
551.34	43597.16
551.51	43845.26
551.68	44069.95
551.84	43632.27
552.01	43700.14
552.18	44247.83
552.34	43880.36
552.51	43924.83
552.68	43782.06
552.84	44222.08
553.01	44233.78
553.18	43948.24
553.34	44465.50
553.51	44128.46
553.67	44378.90
553.84	44098.03
554.01	44343.79
554.17	44240.81
554.34	44584.86
554.51	43955.26
554.67	45062.33
554.84	44839.98
555.00	44540.39
555.17	44638.70
555.33	44402.30
555.50	44343.79
555.67	44615.29
555.83	44882.11
556.00	44875.09
556.16	45542.14
556.33	45095.10
556.50	44669.12
556.66	45041.27
556.83	44514.65
556.99	44872.75
557.16	45146.59
557.32	45153.62
557.49	45118.51
557.65	45226.17
557.82	45205.11
557.98	45200.43
558.15	45148.93
558.32	45038.93
558.48	44987.44
558.65	45109.14
558.81	45705.98
558.98	45144.25
559.14	45223.83
559.31	45212.13
559.47	45364.26
559.64	45567.89
559.80	45661.51
559.97	45432.14
560.13	45144.25
560.30	45485.97
560.46	45818.33
560.63	45818.33
560.79	45687.26
560.96	45790.24
561.12	45794.92
561.29	45713.00
561.45	45893.22
561.61	45738.75
561.78	45703.64
561.94	45640.45
562.11	45525.76
562.27	45776.20
562.44	45745.77
562.60	45893.22
562.77	46192.81
562.93	45537.46
563.10	46143.66
563.26	45830.03
563.42	46218.56
563.59	46326.22
563.75	45970.46
563.92	46054.72
564.08	46089.83
564.24	46380.06
564.41	46115.58
564.57	45858.12
564.74	45989.19
564.90	45993.87
565.07	45956.42
565.23	45727.05
565.39	46040.68
565.56	46246.65
565.72	46213.88
565.88	46314.52
566.05	45844.07
566.21	46131.96
566.38	45888.54
566.54	46536.87
566.70	45998.55
566.87	46429.21
567.03	46213.88
567.19	46206.86
567.36	46089.83
567.52	46241.96
567.68	46862.21
567.85	46253.67
568.01	46417.50
568.17	46473.68
568.34	46815.40
568.50	46361.33
568.66	46440.91
568.83	46777.95
568.99	47138.39
569.15	46927.74
569.32	46454.95
569.48	46560.28
569.64	46691.35
569.81	46848.16
569.97	46803.69
570.13	46604.75
570.30	46204.52
570.46	46546.23
570.62	46550.91
570.78	46679.64
570.95	46878.59
571.11	46780.29
571.27	46789.65
571.43	46677.30
571.60	46939.44
571.76	46714.75
571.92	46855.18
572.09	46319.20
572.25	46373.03
572.41	46440.91
572.57	46616.45
572.74	47150.09
572.90	46534.53
573.06	47201.58
573.22	46979.23
573.38	46843.48
573.55	46784.97
573.71	47669.69
573.87	46845.82
574.03	46653.90
574.20	47306.91
574.36	46691.35
574.52	47086.90
574.68	47246.05
574.84	46920.72
575.01	47061.15
575.17	46717.09
575.33	47152.43
575.49	47093.92
575.65	46827.10
575.82	47040.09
575.98	47288.18
576.14	47222.65
576.30	47421.59
576.46	47112.64
576.62	47110.30
576.79	47222.65
576.95	47124.35
577.11	46415.16
577.27	47281.16
577.43	47161.79
577.59	47140.73
577.75	47126.69
577.92	46766.24
578.08	46756.88
578.24	47601.82
578.40	47068.17
578.56	47276.48
578.72	46990.94
578.88	47643.94
579.04	47220.31
579.21	46724.11
579.37	47173.50
579.53	47437.98
579.69	47152.43
579.85	46836.46
580.01	47676.71
580.17	46880.93
580.33	47122.01
580.49	47131.37
580.65	47299.89
580.82	46873.91
580.98	46803.69
581.14	47063.49
581.30	47016.68
581.46	47019.02
581.62	47421.59
581.78	46934.76
581.94	47363.08
582.10	47035.41
582.26	47337.33
582.42	47360.74
582.58	47374.78
582.74	47107.96
582.90	47278.82
583.06	47613.52
583.22	47187.54
583.38	47262.44
583.54	47505.85
583.70	47416.91
583.86	47196.90
584.02	47201.58
584.18	47562.03
584.34	47402.87
584.50	47622.88
584.66	47693.10
584.82	47452.02
584.98	47583.09
585.14	47150.09
585.30	46969.87
585.46	47665.01
585.62	47203.92
585.78	47358.40
585.94	47157.11
586.10	47239.03
586.26	46920.72
586.42	47461.38
586.58	47482.45
586.74	47182.86
586.90	47178.18
587.06	47384.15
587.22	47922.47
587.38	47398.19
587.54	47119.66
587.70	48032.47
587.86	47564.37
588.02	47346.70
588.18	47515.22
588.34	47447.34
588.49	47445.00
588.65	47812.46
588.81	47611.18
588.97	47531.60
589.13	47559.69
589.29	47557.35
589.45	47646.29
589.61	47650.97
589.77	48247.80
589.93	47707.14
590.08	48058.22
590.24	47775.02
590.40	47861.61
590.56	47985.66
590.72	47803.10
590.88	47838.21
591.04	47723.52
591.20	47966.94
591.35	48210.35
591.51	48362.49
591.67	47908.43
591.83	47819.49
591.99	47723.52
592.15	47718.84
592.31	48062.90
592.46	47538.62
592.62	47601.82
592.78	48100.35
592.94	48257.17
593.10	47934.17
593.26	48009.07
593.41	48329.72
593.57	48156.52
593.73	48055.88
593.89	48271.21
594.05	47917.79
594.20	47913.11
594.36	48388.24
594.52	48189.29
594.68	48170.57
594.84	48095.67
594.99	48095.67
595.15	48041.84
595.31	48781.45
595.47	48186.95
595.62	48233.76
595.78	47941.19
595.94	48126.10
596.10	48011.41
596.25	48135.46
596.41	48474.84
596.57	48006.73
596.73	48348.45
596.88	48123.75
597.04	48112.05
597.20	48266.53
597.36	48236.10
597.51	47889.70
597.67	47903.74
597.83	47760.97
597.99	48205.67
598.14	48076.94
598.30	48563.78
598.46	48240.78
598.61	48402.28
598.77	48098.01
598.93	48184.61
599.09	48065.24
599.24	48605.91
599.40	48451.43
599.56	48374.19
599.71	48472.49
599.87	48835.28
600.03	48673.78
600.18	48343.77
600.34	48259.51
600.50	48189.29
600.65	48645.69
600.81	48516.96
600.97	48395.26
601.12	48629.31
601.28	48402.28
601.44	48238.44
601.59	48404.62
601.75	48140.14
601.91	48556.75
602.06	48294.61
602.22	48364.83
602.37	48533.35
602.53	48641.01
602.69	48460.79
602.84	48240.78
603.00	48444.41
603.16	48355.47
603.31	48547.39
603.47	48252.48
603.62	48538.03
603.78	48519.31
603.94	48343.77
604.09	48147.16
604.25	48348.45
604.40	48158.86
604.56	48556.75
604.71	48772.08
604.87	48402.28
605.03	48067.58
605.18	48189.29
605.34	48495.90
605.49	48044.18
605.65	48053.54
605.80	47555.00
605.96	48051.20
606.12	48362.49
606.27	48619.95
606.43	47861.61
606.58	48584.84
606.74	48079.28
606.89	48329.72
607.05	48360.15
607.20	48711.23
607.36	48645.69
607.51	48376.53
607.67	48088.65
607.82	48318.02
607.98	47835.87
608.13	48027.79
608.29	47838.21
608.44	48186.95
608.60	47704.80
608.75	48142.48
608.91	48006.73
609.06	47620.54
609.22	48296.95
609.37	47948.21
609.53	47892.04
609.68	48353.13
609.84	47903.74
609.99	48161.20
610.15	48165.88
610.30	47796.08
610.46	48329.72
610.61	48002.05
610.76	48144.82
610.92	47966.94
611.07	48208.01
611.23	47983.32
611.38	47672.03
611.54	47892.04
611.69	47686.07
611.84	47732.89
612.00	47730.54
612.15	47463.72
612.31	47791.40
612.46	46995.62
612.62	47501.17
612.77	47929.49
612.92	47980.98
613.08	48086.31
613.23	47807.78
613.39	47648.63
613.54	47688.42
613.69	48100.35
613.85	47332.65
614.00	47337.33
614.15	47737.57
614.31	47402.87
614.46	47449.68
614.62	47192.22
614.77	47711.82
614.92	47360.74
615.08	47583.09
615.23	47700.12
615.38	47831.19
615.54	47461.38
615.69	47737.57
615.84	47447.34
616.00	47739.91
616.15	47416.91
616.30	47627.56
616.46	47356.06
616.61	47047.11
616.76	47421.59
616.92	47468.40
617.07	47484.79
617.22	47009.66
617.37	46925.40
617.53	47065.83
617.68	47365.42
617.83	46965.19
617.99	47449.68
618.14	47742.25
618.29	47112.64
618.45	46742.84
618.60	46918.38
618.75	46815.40
618.90	47105.62
619.06	46859.87
619.21	46988.60
619.36	47309.25
619.51	46754.54
619.67	46976.89
619.82	47374.78
619.97	47234.35
620.12	46852.84
620.28	46820.08
620.43	46813.05
620.58	47047.11
620.73	46843.48
620.89	47419.25
621.04	46920.72
621.19	47433.30
621.34	47119.66
621.49	46646.88
621.65	46646.88
621.80	47159.45
621.95	46754.54
622.10	47079.88
622.25	46735.82
622.41	46784.97
622.56	46791.99
622.71	46719.43
622.86	46672.62
623.01	46822.42
623.16	47166.48
623.32	46302.82
623.47	46447.93
623.62	46469.00
623.77	46639.86
623.92	46625.81
624.07	46518.15
624.23	46801.35
624.38	46843.48
624.53	46733.48
624.68	46412.82
624.83	46181.11
624.98	46433.89
625.13	46012.59
625.29	45806.62
625.44	46052.38
625.59	46052.38
625.74	46368.35
625.89	45890.88
626.04	46071.10
626.19	45947.06
626.34	45846.41
626.49	45881.52
626.65	45736.41
626.80	45837.05
626.95	45991.53
627.10	45886.20
627.25	45764.49
627.40	46153.02
627.55	45993.87
627.70	45930.67
627.85	45933.01
628.00	46167.07
628.15	45511.72
628.30	45652.15
628.45	45570.23
628.60	45265.96
628.76	45574.91
628.91	45778.54
629.06	45392.35
629.21	45191.06
629.36	44861.05
629.51	45844.07
629.66	46176.43
629.81	45188.72
629.96	45991.53
630.11	45801.94
630.26	45270.64
630.41	45497.67
630.56	45598.32
630.71	44933.60
630.86	45434.48
631.01	45497.67
631.16	44957.01
631.31	45832.37
631.46	45558.53
631.61	45357.24
631.76	45242.56
631.91	45385.33
632.06	45844.07
632.21	46082.81
632.36	45394.69
632.51	44989.78
632.66	45525.76
632.81	45247.24
632.96	45301.07
633.10	44678.49
633.25	44795.51
633.40	45242.56
633.55	45144.25
633.70	45170.00
633.85	44847.00
634.00	44498.26
634.15	44612.95
634.30	44924.24
634.45	44992.12
634.60	45048.29
634.75	45319.79
634.90	44708.91
635.05	45118.51
635.19	44641.04
635.34	44699.55
635.49	44634.02
635.64	44748.70
635.79	45118.51
635.94	44839.98
636.09	44797.85
636.24	44332.09
636.39	44760.40
636.53	44732.32
636.68	44458.48
636.83	44486.56
636.98	44287.62
637.13	44287.62
637.28	43789.08
637.43	44428.05
637.57	44133.14
637.72	43803.13
637.87	44217.40
638.02	44378.90
638.17	44130.80
638.32	44495.92
638.46	43569.07
638.61	44250.17
638.76	44046.54
638.91	44037.18
639.06	44126.12
639.20	43807.81
639.35	43758.66
639.50	43555.03
639.65	44105.06
639.80	44404.64
639.94	43962.28
640.09	43955.26
640.24	43948.24
640.39	43594.82
640.54	43398.21
640.68	43688.44
640.83	43753.97
640.98	43894.41
641.13	43257.78
641.27	43543.33
641.42	43643.97
641.57	43653.33
641.72	43959.94
641.86	43826.53
642.01	43489.49
642.16	43419.28
642.31	43529.28
642.45	43194.59
642.60	43112.67
642.75	43648.65
642.90	43269.48
643.04	43171.18
643.19	43129.05
643.34	43299.91
643.48	43213.31
643.63	43288.21
643.78	43210.97
643.93	43351.40
644.07	43150.12
644.22	43351.40
644.37	43086.92
644.51	43594.82
644.66	43035.43
644.81	43253.10
644.95	43103.31
645.10	43203.95
645.25	42883.30
645.39	42923.08
645.54	42923.08
645.69	42740.52
645.83	42794.36
645.98	42525.19
646.13	42911.38
646.27	42031.34
646.42	42557.96
646.57	43005.00
646.71	42480.72
646.86	43189.91
647.00	42705.41
647.15	42869.25
647.30	43143.09
647.44	42674.99
647.59	42642.22
647.74	42328.59
647.88	42979.26
648.03	42988.62
648.17	43042.45
648.32	42541.58
648.47	42529.87
648.61	42485.40
648.76	42679.67
648.90	42281.78
649.05	42012.62
649.20	42590.73
649.34	42485.40
649.49	42274.76
649.63	42359.02
649.78	42696.05
649.92	42576.69
650.07	42581.37
650.21	42646.90
650.36	42440.93
650.51	42572.00
650.65	42490.09
650.80	42944.15
650.94	42223.26
651.09	41645.15
651.23	41965.81
651.38	41577.28
651.52	41677.92
651.67	41773.88
651.81	41935.38
651.96	42330.93
652.10	41666.22
652.25	41474.29
652.39	42054.75
652.54	41469.61
652.68	41825.37
652.83	41853.46
652.97	42230.29
653.12	41813.67
653.26	41895.59
653.41	42127.30
653.55	41368.97
653.70	42190.50
653.84	41879.21
653.99	42347.31
654.13	41490.68
654.27	41846.44
654.42	41617.07
654.56	41621.75
654.71	41572.60
654.85	42019.64
655.00	41457.91
655.14	41668.56
655.29	41738.77
655.43	41628.77
655.57	41572.60
655.72	40996.82
655.86	41305.77
656.01	41221.52
656.15	41214.49
656.30	41057.68
656.44	41102.15
656.58	41364.29
656.73	41003.85
656.87	40746.39
657.01	40800.22
657.16	41160.66
657.30	41109.17
657.45	40870.43
657.59	40715.96
657.73	40699.58
657.88	40919.59
658.02	41013.21
658.16	41076.40
658.31	41015.55
658.45	40687.87
658.60	40362.54
658.74	41179.39
658.88	40811.92
659.03	40088.70
659.17	40608.29
659.31	40577.87
659.46	40521.69
659.60	40594.25
659.74	40589.57
659.89	39838.26
660.03	39842.94
660.17	39852.30
660.32	40325.09
660.46	39971.67
660.60	39728.25
660.74	39999.76
660.89	40261.90
661.03	39407.60
661.17	39257.81
661.32	39990.39
661.46	39711.87
661.60	40034.86
661.74	39372.49
661.89	39313.98
662.03	39611.23
662.17	39395.90
662.31	39658.04
662.46	39138.44
662.60	39136.10
662.74	38789.70
662.88	38852.89
663.03	38916.09
663.17	38583.73
663.31	39222.70
663.45	39538.67
663.60	39166.52
663.74	39407.60
663.88	38920.77
664.02	38527.56
664.17	38857.57
664.31	39012.05
664.45	38410.53
664.59	38312.23
664.73	38511.17
664.88	38560.33
665.02	38291.16
665.16	38094.56
665.30	38822.47
665.44	38419.89
665.59	38045.41
665.73	38234.99
665.87	37830.08
666.01	38223.29
666.15	37933.06
666.29	37904.98
666.44	37923.70
666.58	38202.22
666.72	37574.96
666.86	37720.07
667.00	37411.12
667.14	37703.69
667.28	37497.72
667.43	37837.10
667.57	37633.47
667.71	37968.17
667.85	37401.76
667.99	37539.85
668.13	37240.26
668.27	36856.42
668.41	37518.79
668.56	36926.63
668.70	37017.91
668.84	36790.88
668.98	36533.42
669.12	36828.33
669.26	37163.03
669.40	36591.94
669.54	36655.13
669.68	36694.92
669.82	36741.73
669.96	36472.57
670.10	35997.44
670.25	36479.59
670.39	36350.86
670.53	36507.68
670.67	36018.50
670.81	36900.89
670.95	36032.55
671.09	36095.74
671.23	35899.14
671.37	36032.55
671.51	35903.82
671.65	35395.92
671.79	35679.13
671.93	35297.62
672.07	35578.48
672.21	35714.23
672.35	35215.70
672.49	35299.96
672.63	35667.42
672.77	34923.13
672.91	34981.65
673.05	34698.44
673.19	34562.69
673.33	34628.23
673.47	34646.95
673.61	34705.46
673.75	34499.50
673.89	34408.22
674.03	34752.27
674.17	34174.16
674.31	33951.81
674.45	34178.84
674.59	34197.57
674.73	33706.05
674.87	33792.65
675.01	33420.51
675.15	33479.02
675.29	33310.50
675.43	33528.17
675.56	33441.57
675.70	33563.28
675.84	33413.49
675.98	32383.65
676.12	33319.87
676.26	33790.31
676.40	33078.79
676.54	33006.23
676.68	32622.39
676.82	32708.99
676.96	32659.84
677.10	32552.17
677.23	32594.30
677.37	32732.39
677.51	32065.34
677.65	32561.53
677.79	32051.30
677.93	31969.38
678.07	31955.33
678.21	31763.41
678.34	31562.12
678.48	31278.92
678.62	31342.11
678.76	31351.48
678.90	31398.29
679.04	31620.64
679.18	31260.20
679.31	31173.60
679.45	30536.97
679.59	30876.35
679.73	31051.89
679.87	31026.14
680.00	30412.92
680.14	30382.49
680.28	30171.85
680.42	30368.45
680.56	30169.51
680.70	30249.08
680.83	29881.62
680.97	30052.48
681.11	30078.22
681.25	29951.84
681.39	29467.34
681.52	29539.90
681.66	29429.90
681.80	28807.31
681.94	28844.76
682.07	28760.50
682.21	28877.53
682.35	28556.88
682.49	28575.60
682.62	28758.16
682.76	28861.15
682.90	28421.13
683.04	28811.99
683.17	28697.31
683.31	28196.43
683.45	28100.47
683.59	28046.64
683.72	27667.47
683.86	28018.55
684.00	27557.47
684.13	27641.73
684.27	27538.74
684.41	27529.38
684.55	27702.58
684.68	27274.26
684.82	27014.46
684.96	27009.78
685.09	27030.85
685.23	26817.86
685.37	27152.55
685.50	27164.26
685.64	26909.14
685.78	26670.40
685.91	26408.26
686.05	26445.71
686.19	25792.70
686.32	25912.07
686.46	25727.17
686.60	25294.17
686.73	25848.88
686.87	25804.41
687.01	25963.56
687.14	25830.15
687.28	25551.63
687.42	25132.67
687.55	25102.25
687.69	25259.06
687.82	24999.26
687.96	24910.32
688.10	25144.38
688.23	24877.55
688.37	24680.95
688.50	25315.23
688.64	24498.39
688.78	24376.68
688.91	24409.45
689.05	24496.05
689.18	23747.08
689.32	23674.52
689.46	23913.25
689.59	23941.34
689.73	23857.08
689.86	23751.76
690.00	23758.78
690.13	23775.16
690.27	23578.56
690.41	23377.27
690.54	23339.82
690.68	23548.13
690.81	23293.01
690.95	22745.33
691.08	22946.61
691.22	22824.90
691.35	22757.03
691.49	22944.27
691.62	22714.90
691.76	22160.19
691.89	22349.78
692.03	22223.39
692.16	22204.66
692.30	22040.82
692.43	21797.41
692.57	21680.38
692.70	21706.13
692.84	21701.45
692.97	21528.25
693.11	21472.07
693.24	21184.19
693.38	21139.72
693.51	21170.15
693.65	21158.44
693.78	20535.86
693.92	20872.90
694.05	20762.89
694.19	20730.12
694.32	20727.78
694.45	21001.63
694.59	20669.27
694.72	20788.64
694.86	20264.36
694.99	20166.06
695.13	20475.01
695.26	19854.76
695.39	19941.36
695.53	20020.94
695.66	19634.75
695.80	19477.94
695.93	19836.04
696.07	19538.79
696.20	19056.64
696.33	19091.75
696.47	18843.65
696.60	19105.79
696.73	19639.44
696.87	19377.30
697.00	18972.38
697.14	18607.26
697.27	18466.83
697.40	18705.56
697.54	18244.48
697.67	18448.10
697.80	18113.41
697.94	18324.05
698.07	18214.05
698.21	17965.95
698.34	17963.61
698.47	17930.84
698.61	17657.00
698.74	17678.07
698.87	17701.47
699.01	17425.29
699.14	17661.68
699.27	17390.18
699.40	17439.33
699.54	17249.75
699.67	17308.26
699.80	17331.67
699.94	16971.22
700.07	16926.75
700.20	16879.94
700.34	16973.56
700.47	16765.26
700.60	16884.62
700.73	16659.93
700.87	16472.69
701.00	16283.11
701.13	16428.22
701.26	16119.27
701.40	16348.64
701.53	16109.91
701.66	16072.46
701.79	16016.29
701.93	15847.77
702.06	15510.73
702.19	15508.39
702.32	15793.94
702.46	15648.82
702.59	15644.14
702.72	15721.38
702.85	15597.33
702.99	15480.30
703.12	15136.24
703.25	14977.09
703.38	15234.55
703.51	15213.48
703.65	14787.50
703.78	14822.61
703.91	14703.25
704.04	14956.02
704.17	14469.19
704.31	14593.24
704.44	14689.20
704.57	14345.14
704.70	14370.89
704.83	14263.22
704.96	14083.00
705.10	14108.75
705.23	13886.40
>>>>>End Processed Spectral Data<<<<<
