SpectraSuite Data File
++++++++++++++++++++++++++++++++++++
Date: Fri Oct 25 10:44:44 EDT 2013
User: price-jones
Dark Spectrum Present: No
Reference Spectrum Present: No
Number of Sampled Component Spectra: 1
Spectrometers: USB2+H05261
Integration Time (usec): 100000 (USB2+H05261)
Spectra Averaged: 1 (USB2+H05261)
Boxcar Smoothing: 0 (USB2+H05261)
Correct for Electrical Dark: No (USB2+H05261)
Strobe/Lamp Enabled: No (USB2+H05261)
Correct for Detector Non-linearity: No (USB2+H05261)
Correct for Stray Light: No (USB2+H05261)
Number of Pixels in Processed Spectrum: 2048
>>>>>Begin Processed Spectral Data<<<<<
365.73	121.71
365.92	121.71
366.12	121.71
366.32	98.30
366.52	0.00
366.72	2.34
366.91	0.00
367.11	0.00
367.31	0.00
367.51	56.17
367.70	4.68
367.90	28.09
368.10	0.00
368.30	28.09
368.49	0.00
368.69	39.79
368.89	39.79
369.09	0.00
369.28	53.83
369.48	63.19
369.68	70.22
369.87	100.64
370.07	138.09
370.27	152.13
370.47	152.13
370.66	341.72
370.86	456.40
371.06	451.72
371.25	383.85
371.45	386.19
371.65	404.91
371.84	454.06
372.04	423.64
372.24	491.51
372.44	507.90
372.63	552.37
372.83	479.81
373.03	463.43
373.22	447.04
373.42	468.11
373.62	507.90
373.81	486.83
374.01	552.37
374.21	507.90
374.40	512.58
374.60	535.98
374.79	587.47
374.99	594.50
375.19	521.94
375.38	503.22
375.58	505.56
375.78	526.62
375.97	510.24
376.17	585.13
376.37	594.50
376.56	580.45
376.76	559.39
376.95	601.52
377.15	620.24
377.35	514.92
377.54	622.58
377.74	599.18
377.93	613.22
378.13	634.29
378.33	664.71
378.52	631.94
378.72	624.92
378.91	601.52
379.11	601.52
379.31	606.20
379.50	580.45
379.70	657.69
379.89	648.33
380.09	599.18
380.28	613.22
380.48	645.99
380.68	702.16
380.87	681.10
381.07	610.88
381.26	697.48
381.46	695.14
381.65	669.39
381.85	638.97
382.04	653.01
382.24	629.60
382.43	741.95
382.63	669.39
382.83	713.86
383.02	655.35
383.22	645.99
383.41	667.05
383.61	765.36
383.80	791.10
384.00	772.38
384.19	746.63
384.39	641.31
384.58	713.86
384.78	755.99
384.97	748.97
385.17	748.97
385.36	784.08
385.56	809.83
385.75	755.99
385.95	760.67
386.14	767.70
386.34	737.27
386.53	858.98
386.72	793.44
386.92	795.78
387.11	828.55
387.31	837.91
387.50	784.08
387.70	833.23
387.89	863.66
388.09	826.21
388.28	844.93
388.48	823.87
388.67	833.23
388.86	873.02
389.06	842.59
389.25	858.98
389.45	858.98
389.64	873.02
389.84	990.05
390.03	987.71
390.22	929.19
390.42	924.51
390.61	938.55
390.81	833.23
391.00	854.30
391.19	1060.26
391.39	943.24
391.58	983.02
391.78	903.45
391.97	973.66
392.16	954.94
392.36	929.19
392.55	961.96
392.75	1020.47
392.94	912.81
393.13	924.51
393.33	959.62
393.52	1041.54
393.71	1043.88
393.91	1095.37
394.10	983.02
394.29	1064.94
394.49	1095.37
394.68	1095.37
394.88	1144.52
395.07	1146.86
395.26	1088.35
395.46	1142.18
395.65	1156.22
395.84	1139.84
396.04	1158.57
396.23	1151.54
396.42	1095.37
396.62	1118.78
396.81	1137.50
397.00	1135.16
397.19	1100.05
397.39	1196.01
397.58	1249.85
397.77	1254.53
397.97	1315.38
398.16	1249.85
398.35	1273.25
398.55	1165.59
398.74	1359.85
398.93	1329.42
399.12	1317.72
399.32	1299.00
399.51	1378.58
399.70	1394.96
399.90	1362.19
400.09	1418.36
400.28	1413.68
400.47	1451.13
400.67	1423.05
400.86	1448.79
401.05	1479.22
401.24	1504.96
401.44	1448.79
401.63	1530.71
401.82	1535.39
402.01	1542.41
402.21	1483.90
402.40	1554.12
402.59	1530.71
402.78	1636.03
402.97	1591.56
403.17	1575.18
403.36	1596.25
403.55	1732.00
403.74	1734.34
403.93	1631.35
404.13	1727.32
404.32	1661.78
404.51	1710.93
404.70	1767.10
404.89	1717.95
405.09	1856.04
405.28	1685.19
405.47	1694.55
405.66	1790.51
405.85	1781.15
406.05	1837.32
406.24	1708.59
406.43	1846.68
406.62	1893.49
406.81	1916.90
407.00	1914.56
407.20	1753.06
407.39	1888.81
407.58	1968.39
407.77	1942.64
407.96	1959.03
408.15	1886.47
408.34	2080.74
408.54	2078.40
408.73	2029.24
408.92	2087.76
409.11	2033.93
409.30	2001.16
409.49	2031.58
409.68	2001.16
409.87	2015.20
410.07	2076.06
410.26	2193.08
410.45	2101.80
410.64	2232.87
410.83	2340.54
411.02	2150.95
411.21	2195.42
411.40	2363.94
411.59	2385.01
411.78	2328.83
411.98	2317.13
412.17	2370.96
412.36	2464.58
412.55	2403.73
412.74	2457.56
412.93	2415.43
413.12	2471.61
413.31	2640.12
413.50	2513.74
413.69	2457.56
413.88	2560.55
414.07	2537.14
414.26	2637.78
414.45	2693.96
414.64	2651.83
414.83	2820.35
415.02	2630.76
415.22	2832.05
415.41	2682.25
415.60	2801.62
415.79	2836.73
415.98	2993.55
416.17	2871.84
416.36	2892.90
416.55	2958.44
416.74	3014.61
416.93	3068.44
417.12	3038.02
417.31	3105.89
417.50	2979.50
417.69	3194.83
417.88	3115.25
418.07	3176.11
418.26	3176.11
418.45	3178.45
418.64	3300.16
418.83	3180.79
419.02	3159.72
419.21	3258.03
419.39	3461.65
419.58	3169.09
419.77	3220.58
419.96	3346.97
420.15	3243.98
420.34	3267.39
420.53	3372.71
420.72	3377.39
420.91	3463.99
421.10	3492.08
421.29	3529.53
421.48	3552.93
421.67	3419.52
421.86	3496.76
422.05	3478.04
422.24	3461.65
422.43	3520.17
422.61	3480.38
422.80	3566.98
422.99	3691.02
423.18	3634.85
423.37	3665.28
423.56	3630.17
423.75	3576.34
423.94	3543.57
424.13	3309.52
424.32	3503.78
424.50	3578.68
424.69	3819.75
424.88	3695.71
425.07	3494.42
425.26	3574.00
425.45	3665.28
425.64	3583.36
425.83	3480.38
426.01	3782.31
426.20	3681.66
426.39	3609.11
426.58	3599.74
426.77	3613.79
426.96	3588.04
427.15	3728.47
427.33	3826.78
427.52	3630.17
427.71	3864.22
427.90	3712.09
428.09	3716.77
428.28	3840.82
428.46	3791.67
428.65	3810.39
428.84	4084.23
429.03	3953.16
429.22	3758.90
429.40	3794.01
429.59	3815.07
429.78	3777.62
429.97	3744.86
430.16	3871.25
430.34	3831.46
430.53	3920.40
430.72	3953.16
430.91	3822.09
431.10	3969.55
431.28	4067.85
431.47	4170.83
431.66	4252.75
431.85	4086.58
432.03	4168.49
432.22	4461.06
432.41	4201.26
432.60	4074.87
432.79	4257.43
432.97	4411.91
433.16	4367.44
433.35	4182.54
433.54	4294.88
433.72	4287.86
433.91	4278.50
434.10	4475.10
434.28	4423.61
434.47	4542.98
434.66	4486.81
434.85	4545.32
435.03	4449.36
435.22	4444.68
435.41	4713.84
435.59	4608.51
435.78	4744.27
435.97	4723.20
436.16	4702.14
436.34	4755.97
436.53	4592.13
436.72	4781.71
436.90	4692.77
437.09	4737.24
437.28	4716.18
437.46	4788.74
437.65	4723.20
437.84	4884.70
438.02	4713.84
438.21	4645.96
438.40	4695.11
438.58	4870.65
438.77	4910.44
438.96	4980.66
439.14	5118.75
439.33	5217.05
439.52	5114.07
439.70	5212.37
439.89	5221.74
440.08	5303.65
440.26	5291.95
440.45	5249.82
440.63	5500.26
440.82	5488.56
441.01	5352.81
441.19	5401.96
441.38	5652.39
441.57	5673.46
441.75	5511.96
441.94	5827.93
442.12	5610.26
442.31	5729.63
442.50	5710.91
442.68	5715.59
442.87	5900.49
443.05	5734.31
443.24	6026.88
443.43	5776.44
443.61	5809.21
443.80	6162.63
443.98	5839.64
444.17	5687.50
444.35	5994.11
444.54	6216.46
444.73	6003.47
444.91	5785.80
445.10	5987.09
445.28	5907.51
445.47	5816.23
445.65	5872.40
445.84	5984.75
446.02	5898.15
446.21	5940.28
446.39	6005.81
446.58	6148.59
446.77	6104.12
446.95	5996.45
447.14	6118.16
447.32	6132.20
447.51	5963.68
447.69	5975.39
447.88	6160.29
448.06	6146.25
448.25	6003.47
448.43	6155.61
448.62	6015.18
448.80	6078.37
448.99	6258.59
449.17	6160.29
449.36	6134.54
449.54	6420.09
449.73	6466.90
449.91	6471.58
450.10	6366.26
450.28	6656.48
450.46	6403.71
450.65	6537.12
450.83	6487.96
451.02	6509.03
451.20	6733.72
451.39	6757.13
451.57	6623.72
451.76	6604.99
451.94	6597.97
452.13	6525.41
452.31	6607.33
452.49	6380.30
452.68	6621.38
452.86	6455.20
453.05	6560.52
453.23	6583.93
453.42	6651.80
453.60	6724.36
453.78	6707.98
453.97	6738.40
454.15	6853.09
454.34	6813.30
454.52	6796.92
454.70	6949.05
454.89	6806.28
455.07	6883.52
455.26	6965.43
455.44	7012.24
455.62	7033.31
455.81	7229.91
455.99	7222.89
456.17	7208.85
456.36	7131.61
456.54	7138.63
456.73	7290.77
456.91	7459.29
457.09	7318.86
457.28	7386.73
457.46	7328.22
457.64	7424.18
457.83	7368.01
458.01	7314.17
458.19	7573.97
458.38	7527.16
458.56	7513.12
458.74	7637.17
458.93	7569.29
459.11	7609.08
459.29	7527.16
459.48	7772.92
459.66	7508.44
459.84	7566.95
460.03	7599.72
460.21	7833.77
460.39	7852.50
460.57	7726.11
460.76	7911.01
460.94	8028.04
461.12	7779.94
461.31	7833.77
461.49	7868.88
461.67	7782.28
461.85	8056.12
462.04	8142.72
462.22	8166.13
462.40	8107.62
462.59	8138.04
462.77	8077.19
462.95	8306.56
463.13	8486.78
463.32	8163.79
463.50	8156.77
463.68	8336.99
463.86	8379.12
464.05	8152.09
464.23	8187.19
464.41	8351.03
464.59	8208.26
464.78	8552.32
464.96	8395.50
465.14	8348.69
465.32	8381.46
465.50	8690.41
465.69	8517.21
465.87	8528.91
466.05	8496.14
466.23	8341.67
466.41	8683.39
466.60	8769.99
466.78	8538.27
466.96	8388.48
467.14	8624.87
467.32	8514.87
467.51	8603.81
467.69	8461.04
467.87	8760.63
468.05	8842.54
468.23	8627.21
468.41	8957.23
468.60	8676.37
468.78	8905.74
468.96	8833.18
469.14	8849.57
469.32	8973.61
469.50	8798.07
469.69	8837.86
469.87	8917.44
470.05	9029.79
470.23	8971.27
470.41	8952.55
470.59	9121.07
470.77	9069.58
470.95	9174.90
471.14	9322.35
471.32	9114.05
471.50	9547.05
471.68	9301.29
471.86	9516.62
472.04	9458.10
472.22	9624.28
472.40	9376.19
472.58	9771.74
472.77	9694.50
472.95	9729.61
473.13	9916.85
473.31	9785.78
473.49	9825.57
473.67	9652.37
473.85	9891.10
474.03	10202.40
474.21	9881.74
474.39	10195.37
474.57	10106.43
474.75	10303.04
474.93	10328.78
475.12	10286.65
475.30	10373.25
475.48	10279.63
475.66	10626.03
475.84	10565.18
476.02	10490.28
476.20	10532.41
476.38	10853.06
476.56	11073.07
476.74	10895.19
476.92	11122.23
477.10	11077.76
477.28	11019.24
477.46	11140.95
477.64	11311.81
477.82	11297.77
478.00	11531.82
478.18	11592.67
478.36	11655.87
478.54	11566.93
478.72	11583.31
478.90	11887.58
479.08	11992.90
479.26	12135.68
479.44	12112.27
479.62	12259.73
479.80	12257.39
479.98	12135.68
480.16	12678.68
480.34	12390.80
480.52	12840.18
480.70	12809.75
480.88	12498.46
481.06	12805.07
481.24	12795.71
481.41	13118.70
481.59	13418.29
481.77	13186.58
481.95	13341.05
482.13	13734.26
482.31	13460.42
482.49	13710.86
482.67	13570.43
482.85	13855.97
483.03	13827.88
483.21	13996.40
483.39	14134.50
483.57	14111.09
483.74	14295.99
483.92	14588.56
484.10	14408.34
484.28	14450.47
484.46	14895.17
484.64	15091.77
484.82	14937.30
485.00	15166.67
485.18	15087.09
485.35	15325.83
485.53	15211.14
485.71	15080.07
485.89	15594.99
486.07	15456.90
486.25	15349.23
486.43	15756.49
486.61	16046.71
486.78	15836.06
486.96	16540.57
487.14	16379.07
487.32	16339.28
487.50	16760.58
487.68	16849.52
487.85	16980.59
488.03	17221.66
488.21	17289.54
488.39	17348.05
488.57	17177.19
488.75	17745.94
488.92	17783.39
489.10	18019.78
489.28	17914.46
489.46	18157.88
489.64	18403.63
489.81	18682.16
489.99	18483.21
490.17	18492.57
490.35	19154.94
490.53	18525.34
490.70	19323.46
490.88	19030.90
491.06	19288.35
491.24	19140.90
491.41	19426.45
491.59	19559.86
491.77	19281.33
491.95	19913.28
492.13	19946.05
492.30	20002.22
492.48	20032.65
492.66	20334.57
492.84	20444.58
493.01	20339.26
493.19	20243.29
493.37	20610.76
493.54	20814.38
493.72	21109.29
493.90	21172.49
494.08	21249.72
494.25	21809.11
494.43	21656.98
494.61	21504.84
494.79	21783.37
494.96	21774.00
495.14	21851.24
495.32	21898.05
495.49	22094.66
495.67	22188.28
495.85	22508.93
496.02	22668.09
496.20	22366.16
496.38	22745.33
496.55	22885.76
496.73	23234.50
496.91	22895.12
497.09	23262.58
497.26	23440.47
497.44	23480.25
497.62	23311.74
497.79	23658.14
497.97	23339.82
498.14	23906.23
498.32	23836.02
498.50	24058.37
498.67	24208.16
498.85	24283.06
499.03	24306.46
499.20	24687.97
499.38	24070.07
499.56	24189.44
499.73	24627.12
499.91	24931.39
500.08	25212.25
500.26	24566.26
500.44	25280.13
500.61	25291.83
500.79	24781.59
500.97	25153.74
501.14	25752.91
501.32	25476.73
501.49	25507.16
501.67	25357.36
501.84	25617.16
502.02	25577.37
502.20	25596.10
502.37	25764.62
502.55	26008.03
502.72	26101.65
502.90	26274.85
503.07	26274.85
503.25	26328.69
503.43	26237.41
503.60	26169.53
503.78	26370.82
503.95	26340.39
504.13	26384.86
504.30	27080.00
504.48	26913.82
504.65	27082.34
504.83	26569.76
505.01	27480.23
505.18	27012.12
505.36	27555.13
505.53	27550.45
505.71	27651.09
505.88	27723.65
506.06	27278.94
506.23	27447.46
506.41	27651.09
506.58	28151.96
506.76	27999.83
506.93	28350.91
507.11	28034.94
507.28	28257.29
507.46	28081.75
507.63	28151.96
507.81	28362.61
507.98	28257.29
508.16	28425.81
508.33	28554.54
508.50	28720.71
508.68	29083.50
508.85	29149.03
509.03	28975.83
509.20	29371.38
509.38	29109.24
509.55	29338.62
509.73	28842.42
509.90	29301.17
510.08	29401.81
510.25	29305.85
510.42	29797.36
510.60	29806.72
510.77	29790.34
510.95	30115.67
511.12	30031.41
511.30	30260.79
511.47	30504.20
511.64	30373.13
511.82	30398.88
511.99	30373.13
512.17	30728.89
512.34	30377.81
512.51	30661.02
512.69	30969.97
512.86	30735.92
513.04	30859.96
513.21	31124.44
513.38	31124.44
513.56	31197.00
513.73	30740.60
513.90	31622.98
514.08	30682.08
514.25	31613.62
514.43	31346.79
514.60	31164.23
514.77	31192.32
514.95	31927.25
515.12	31332.75
515.29	31908.52
515.47	31681.49
515.64	32147.26
515.81	31805.54
515.99	31997.46
516.16	31845.33
516.33	31599.57
516.51	32259.60
516.68	31798.52
516.85	31796.18
517.03	32325.14
517.20	31934.27
517.37	32243.22
517.54	32947.72
517.72	32538.13
517.89	32425.78
518.06	32318.12
518.24	32002.14
518.41	32549.83
518.58	32545.15
518.75	32680.90
518.93	33127.94
519.10	32910.27
519.27	33376.04
519.45	33106.88
519.62	33209.86
519.79	33525.83
519.96	33883.94
520.14	33738.82
520.31	33315.19
520.48	33558.60
520.65	33766.91
520.83	34162.46
521.00	34047.77
521.17	33869.89
521.34	33942.45
521.52	34120.33
521.69	33895.64
521.86	34237.36
522.03	34349.70
522.20	34534.60
522.38	34478.43
522.55	34623.54
522.72	34478.43
522.89	34719.51
523.07	34572.05
523.24	34382.47
523.41	35058.88
523.58	34529.92
523.75	35271.87
523.92	35414.65
524.10	35569.12
524.27	35395.92
524.44	34948.88
524.61	35218.04
524.78	35400.60
524.96	35503.59
525.13	35496.56
525.30	35531.67
525.47	35866.37
525.64	35842.96
525.81	35555.08
525.98	35711.89
526.16	35742.32
526.33	35896.80
526.50	36016.16
526.67	35824.24
526.84	35395.92
527.01	35583.16
527.18	36135.53
527.36	36542.78
527.53	36407.03
527.70	36397.67
527.87	36133.19
528.04	36409.37
528.21	36683.22
528.38	36378.95
528.55	36802.58
528.72	36952.38
528.89	36842.37
529.07	37085.79
529.24	37010.89
529.41	37029.62
529.58	36713.64
529.75	37076.43
529.92	37067.06
530.09	36807.26
530.26	37464.96
530.43	37326.86
530.60	36659.81
530.77	37057.70
530.94	37235.58
531.11	37308.14
531.28	37216.86
531.46	37638.15
531.63	37230.90
531.80	37354.95
531.97	37804.33
532.14	37596.03
532.31	37670.92
532.48	37530.49
532.65	37755.18
532.82	37860.51
532.99	37949.45
533.16	37790.29
533.33	37799.65
533.50	38309.89
533.67	37741.14
533.84	38148.39
534.01	38073.49
534.18	38202.22
534.35	37951.79
534.52	37996.26
534.69	38335.63
534.86	38644.59
535.03	38426.92
535.20	38714.80
535.37	38953.54
535.54	39075.24
535.71	38836.51
535.88	38408.19
536.05	38576.71
536.22	38735.87
536.38	39028.43
536.55	39037.80
536.72	38792.04
536.89	38766.29
537.06	38955.88
537.23	38904.38
537.40	38714.80
537.57	38827.15
537.74	39124.40
537.91	39583.14
538.08	39494.20
538.25	39065.88
538.42	39239.08
538.59	39508.24
538.75	39075.24
538.92	39304.62
539.09	39501.22
539.26	39407.60
539.43	39810.17
539.60	39452.07
539.77	39386.54
539.94	39665.06
540.11	39159.50
540.28	39746.98
540.44	39583.14
540.61	39768.04
540.78	39576.12
540.95	39601.86
541.12	39477.82
541.29	39838.26
541.46	39931.88
541.62	39929.54
541.79	39931.88
541.96	39704.85
542.13	39819.53
542.30	39873.37
542.47	40254.87
542.63	40006.78
542.80	40315.73
542.97	40748.73
543.14	40989.80
543.31	40835.33
543.48	40591.91
543.64	41242.58
543.81	40769.79
543.98	41326.84
544.15	40690.21
544.32	40512.33
544.48	41090.44
544.65	40994.48
544.82	41078.74
544.99	41160.66
545.16	41048.32
545.32	40877.46
545.49	41464.93
545.66	41446.21
545.83	40849.37
546.00	41338.54
546.16	41532.81
546.33	41415.78
546.50	41123.21
546.67	41603.02
546.83	41258.96
547.00	41626.43
547.17	41067.04
547.34	41509.40
547.50	41607.70
547.67	41350.24
547.84	41855.80
548.00	41572.60
548.17	41846.44
548.34	42204.54
548.51	41677.92
548.67	42103.90
548.84	42218.58
549.01	42052.41
549.18	41858.14
549.34	41949.42
549.51	42160.07
549.68	42124.96
549.84	42010.28
550.01	41996.23
550.18	42349.65
550.34	42188.16
550.51	42462.00
550.68	42490.09
550.84	41633.45
551.01	42408.17
551.18	42080.49
551.34	42340.29
551.51	42265.39
551.68	42234.97
551.84	42415.19
552.01	42162.41
552.18	42539.24
552.34	42518.17
552.51	42857.55
552.68	42321.57
552.84	43009.68
553.01	42728.82
553.18	42951.17
553.34	42731.16
553.51	42588.39
553.67	42677.33
553.84	42951.17
554.01	42852.87
554.17	43007.34
554.34	42866.91
554.51	43316.29
554.67	43159.48
554.84	42965.21
555.00	42256.03
555.17	42895.00
555.33	43208.63
555.50	42749.88
555.67	42766.27
555.83	42986.28
556.00	43365.45
556.16	43054.15
556.33	43519.92
556.50	42862.23
556.66	43215.65
556.83	43241.40
556.99	43660.35
557.16	43522.26
557.32	43784.40
557.49	43274.16
557.65	43234.38
557.82	43402.89
557.98	43388.85
558.15	43318.64
558.32	43880.36
558.48	43454.39
558.65	43330.34
558.81	42972.24
558.98	43395.87
559.14	43489.49
559.31	43576.09
559.47	44109.74
559.64	43761.00
559.80	43899.09
559.97	43711.84
560.13	43756.32
560.30	43360.76
560.46	43409.92
560.63	43501.20
560.79	43859.30
560.96	44598.91
561.12	43807.81
561.29	43929.51
561.45	43922.49
561.61	43658.01
561.78	43861.64
561.94	43599.50
562.11	43709.50
562.27	43981.01
562.44	43983.35
562.60	43973.98
562.77	44308.68
562.93	44233.78
563.10	44404.64
563.26	43777.38
563.42	44006.75
563.59	43871.00
563.75	44011.43
563.92	43983.35
564.08	44226.76
564.24	44151.87
564.41	44158.89
564.57	44051.22
564.74	43772.70
564.90	44329.75
565.07	44095.69
565.23	44030.16
565.39	43964.62
565.56	44055.90
565.72	44158.89
565.88	43988.03
566.05	44032.50
566.21	44098.03
566.38	43793.76
566.54	44100.37
566.70	43955.26
566.87	44694.87
567.03	44545.08
567.19	44882.11
567.36	44414.01
567.52	44392.94
567.68	44332.09
567.85	44006.75
568.01	44299.32
568.17	44346.13
568.34	44472.52
568.50	44105.06
568.66	44435.07
568.83	44509.97
568.99	44032.50
569.15	44247.83
569.32	43559.71
569.48	44498.26
569.64	44933.60
569.81	44165.91
569.97	44402.30
570.13	44947.65
570.30	44198.68
570.46	44189.31
570.62	43966.96
570.78	44280.60
570.95	44697.21
571.11	44311.02
571.27	44458.48
571.43	44320.38
571.60	44299.32
571.76	44395.28
571.92	44465.50
572.09	44425.71
572.25	43849.94
572.41	44332.09
572.57	44767.43
572.74	44507.63
572.90	44573.16
573.06	44673.81
573.22	44318.04
573.38	44535.71
573.55	44596.57
573.71	44788.49
573.87	44327.41
574.03	44083.99
574.20	44584.86
574.36	44713.59
574.52	44374.22
574.68	44500.61
574.84	44268.89
575.01	44355.49
575.17	44126.12
575.33	44580.18
575.49	44336.77
575.65	44355.49
575.82	44746.36
575.98	44364.85
576.14	44502.95
576.30	44114.42
576.46	44940.63
576.62	44498.26
576.79	44617.63
576.95	44191.65
577.11	45083.40
577.27	45193.40
577.43	44493.58
577.59	44507.63
577.75	44626.99
577.92	44474.86
578.08	44514.65
578.24	44289.96
578.40	44556.78
578.56	44760.40
578.72	44601.25
578.88	44685.51
579.04	44842.32
579.21	44907.86
579.37	44971.05
579.53	44629.34
579.69	44662.10
579.85	44308.68
580.01	45148.93
580.17	44524.01
580.33	44978.07
580.49	44678.49
580.65	44933.60
580.82	44938.29
580.98	44083.99
581.14	44474.86
581.30	44964.03
581.46	45167.66
581.62	45013.18
581.78	44844.66
581.94	44949.99
582.10	44481.88
582.26	44575.50
582.42	44296.98
582.58	44739.34
582.74	44357.83
582.90	44755.72
583.06	44921.90
583.22	44912.54
583.38	44837.64
583.54	45074.04
583.70	44811.90
583.86	44762.75
584.02	44610.61
584.18	44800.19
584.34	44406.98
584.50	44617.63
584.66	44830.62
584.82	44851.69
584.98	45179.36
585.14	44837.64
585.30	44636.36
585.46	44687.85
585.62	44360.17
585.78	44891.48
585.94	44135.48
586.10	44762.75
586.26	44676.15
586.42	45064.67
586.58	45050.63
586.74	45036.59
586.90	44355.49
587.06	44502.95
587.22	45036.59
587.38	44390.60
587.54	44825.94
587.70	44947.65
587.86	44800.19
588.02	44711.25
588.18	44910.20
588.34	44683.17
588.49	44968.71
588.65	43976.33
588.81	44509.97
588.97	44823.60
589.13	44545.08
589.29	44538.05
589.45	45282.34
589.61	45076.38
589.77	45179.36
589.93	45095.10
590.08	45069.36
590.24	45207.45
590.40	45219.15
590.56	45106.80
590.72	45450.86
590.88	44982.76
591.04	45038.93
591.20	45652.15
591.35	45151.27
591.51	45347.88
591.67	44987.44
591.83	45244.90
591.99	45097.44
592.15	44985.10
592.31	45038.93
592.46	44992.12
592.62	45530.44
592.78	45296.39
592.94	45263.62
593.10	45329.16
593.26	45200.43
593.41	45130.21
593.57	44809.56
593.73	44928.92
593.89	45312.77
594.05	45109.14
594.20	45172.34
594.36	45099.78
594.52	44575.50
594.68	44727.64
594.84	44861.05
594.99	45443.84
595.15	45223.83
595.31	45228.51
595.47	45130.21
595.62	45497.67
595.78	44926.58
595.94	45640.45
596.10	45764.49
596.25	45392.35
596.41	45254.26
596.57	45242.56
596.73	45633.42
596.88	44996.80
597.04	45029.57
597.20	44961.69
597.36	45067.02
597.51	45481.29
597.67	45415.76
597.83	45591.30
597.99	45514.06
598.14	45621.72
598.30	45223.83
598.46	45078.72
598.61	44751.04
598.77	44954.67
598.93	45221.49
599.09	45048.29
599.24	45708.32
599.40	45593.64
599.56	45088.08
599.71	45291.71
599.87	45125.53
600.03	45240.21
600.18	45598.32
600.34	45064.67
600.50	45193.40
600.65	44790.83
600.81	45338.52
600.97	45331.50
601.12	45525.76
601.28	45584.27
601.44	45116.17
601.59	44912.54
601.75	44835.30
601.91	45083.40
602.06	44964.03
602.22	44692.53
602.37	45015.52
602.53	45207.45
602.69	45064.67
602.84	45139.57
603.00	44739.34
603.16	44968.71
603.31	44945.31
603.47	44917.22
603.62	45111.49
603.78	45116.17
603.94	45464.91
604.09	45509.38
604.25	45184.04
604.40	44931.26
604.56	44856.37
604.71	45127.87
604.87	45195.74
605.03	45448.52
605.18	44832.96
605.34	44767.43
605.49	44739.34
605.65	45092.76
605.80	44968.71
605.96	44980.42
606.12	44928.92
606.27	45296.39
606.43	44992.12
606.58	44935.95
606.74	44877.43
606.89	44985.10
607.05	44978.07
607.20	45031.91
607.36	45029.57
607.51	45095.10
607.67	44797.85
607.82	44851.69
607.98	44699.55
608.13	44746.36
608.29	44755.72
608.44	44664.44
608.60	44896.16
608.75	44425.71
608.91	44582.52
609.06	44563.80
609.22	44935.95
609.37	44554.44
609.53	44751.04
609.68	44561.46
609.84	44296.98
609.99	45015.52
610.15	44327.41
610.30	44832.96
610.46	44329.75
610.61	44697.21
610.76	44706.57
610.92	44191.65
611.07	44285.28
611.23	44423.37
611.38	44388.26
611.54	44685.51
611.69	44247.83
611.84	44519.33
612.00	44430.39
612.15	44217.40
612.31	44238.47
612.46	44540.39
612.62	44800.19
612.77	44514.65
612.92	44938.29
613.08	44271.23
613.23	44619.97
613.39	44404.64
613.54	44140.16
613.69	44254.85
613.85	44327.41
614.00	44479.54
614.15	44442.09
614.31	44362.51
614.46	44449.11
614.62	43894.41
614.77	44287.62
614.92	43765.68
615.08	44081.65
615.23	43849.94
615.38	43995.05
615.54	43573.75
615.69	44142.50
615.84	43728.23
616.00	43941.22
616.15	43761.00
616.30	44280.60
616.46	43599.50
616.61	43501.20
616.76	43779.72
616.92	43402.89
617.07	43646.31
617.22	43438.00
617.37	43597.16
617.53	43557.37
617.68	43613.54
617.83	44219.74
617.99	43852.28
618.14	43463.75
618.29	43517.58
618.45	43583.12
618.60	43337.36
618.75	43496.52
618.90	43559.71
619.06	43391.19
619.21	43449.70
619.36	44348.47
619.51	43473.11
619.67	43384.17
619.82	43833.55
619.97	43791.42
620.12	43323.32
620.28	43065.86
620.43	43175.86
620.58	43021.39
620.73	43185.22
620.89	43171.18
621.04	43131.39
621.19	43283.53
621.34	43054.15
621.49	42782.65
621.65	42965.21
621.80	42653.92
621.95	42878.61
622.10	43208.63
622.25	42902.02
622.41	42422.21
622.56	42663.28
622.71	42944.15
622.86	42864.57
623.01	42651.58
623.16	42674.99
623.32	42686.69
623.47	42843.51
623.62	42801.38
623.77	42220.92
623.92	42469.02
624.07	43122.03
624.23	42817.76
624.38	42490.09
624.53	42146.03
624.68	42508.81
624.83	42433.91
624.98	42492.43
625.13	42211.56
625.29	42576.69
625.44	42398.80
625.59	42197.52
625.74	42059.43
625.89	42005.59
626.04	41970.49
626.19	42471.36
626.34	42602.43
626.49	42621.16
626.65	42408.17
626.80	42375.40
626.95	42546.26
627.10	42040.70
627.25	41949.42
627.40	41808.99
627.55	41680.26
627.70	41354.93
627.85	41617.07
628.00	41429.82
628.15	41993.89
628.30	41177.04
628.45	42064.11
628.60	41837.08
628.76	41677.92
628.91	41825.37
629.06	41799.63
629.21	41502.38
629.36	41439.18
629.51	41471.95
629.66	41493.02
629.81	41315.14
629.96	41598.34
630.11	41621.75
630.26	41902.61
630.41	41764.52
630.56	41324.50
630.71	41357.27
630.86	41368.97
631.01	41429.82
631.16	41743.45
631.31	40781.49
631.46	40973.42
631.61	40872.78
631.76	41511.74
631.91	41062.36
632.06	41368.97
632.21	41544.51
632.36	41404.08
632.51	40804.90
632.66	41347.90
632.81	40814.26
632.96	40882.14
633.10	41081.08
633.25	40945.33
633.40	40760.43
633.55	41172.36
633.70	40718.30
633.85	41343.22
634.00	40837.67
634.15	40877.46
634.30	41212.15
634.45	40566.16
634.60	40816.60
634.75	40811.92
634.90	40800.22
635.05	40662.13
635.19	40519.35
635.34	40580.21
635.49	40184.66
635.64	40559.14
635.79	40570.85
635.94	40584.89
636.09	40549.78
636.24	40395.31
636.39	40671.49
636.53	40201.04
636.68	39936.56
636.83	39821.87
636.98	40624.68
637.13	40395.31
637.28	40416.37
637.43	40519.35
637.57	40708.94
637.72	39985.71
637.87	40285.30
638.02	40116.78
638.17	40161.25
638.32	40217.43
638.46	39950.60
638.61	40182.32
638.76	40311.05
638.91	39672.08
639.06	40395.31
639.20	39885.07
639.35	40355.52
639.50	39882.73
639.65	40617.66
639.80	40865.75
639.94	39885.07
640.09	40376.58
640.24	39849.96
640.39	39515.26
640.54	39660.38
640.68	39924.86
640.83	39920.18
640.98	39557.39
641.13	39674.42
641.27	39655.70
641.42	39466.11
641.57	39393.56
641.72	39580.80
641.86	39236.74
642.01	39342.06
642.16	39342.06
642.31	38953.54
642.45	39014.39
642.60	39271.85
642.75	39409.94
642.90	39398.24
643.04	39215.68
643.19	39311.64
643.34	39447.39
643.48	38799.06
643.63	38862.26
643.78	38714.80
643.93	39136.10
644.07	39674.42
644.22	38852.89
644.37	39220.36
644.51	39005.03
644.66	39161.84
644.81	38885.66
644.95	39194.61
645.10	39449.73
645.25	39117.37
645.39	38923.11
645.54	39330.36
645.69	39330.36
645.83	39292.91
645.98	39051.84
646.13	39056.52
646.27	39723.57
646.42	38703.10
646.57	38773.31
646.71	38611.82
646.86	38721.82
647.00	38939.49
647.15	38621.18
647.30	38888.00
647.44	38644.59
647.59	38508.83
647.74	38960.56
647.88	38387.13
648.03	38382.45
648.17	38389.47
648.32	38298.19
648.47	38518.20
648.61	38529.90
648.76	38518.20
648.90	38782.68
649.05	38211.59
649.20	38429.26
649.34	38504.15
649.49	37951.79
649.63	38120.31
649.78	38078.18
649.92	38284.14
650.07	38431.60
650.21	38209.25
650.36	37860.51
650.51	37830.08
650.65	38436.28
650.80	38593.09
650.94	38155.41
651.09	38085.20
651.23	37738.80
651.38	38073.49
651.52	37230.90
651.67	37699.01
651.81	38094.56
651.96	37900.29
652.10	37675.60
652.25	38040.73
652.39	37586.66
652.54	37893.27
652.68	37865.19
652.83	38190.52
652.97	37972.85
653.12	37724.75
653.26	37266.01
653.41	37699.01
653.55	37387.72
653.70	37518.79
653.84	37532.83
653.99	37823.06
654.13	37490.70
654.27	37560.92
654.42	37364.31
654.56	37399.42
654.71	37071.75
654.85	37092.81
655.00	37198.13
655.14	37104.51
655.29	36968.76
655.43	37153.66
655.57	36886.84
655.72	36683.22
655.86	36790.88
656.01	36734.71
656.15	36652.79
656.30	36980.46
656.44	37179.41
656.58	36697.26
656.73	36350.86
656.87	37277.71
657.01	36362.56
657.16	36620.02
657.30	36671.51
657.45	36332.14
657.59	36816.63
657.73	36201.07
657.88	36886.84
658.02	36545.12
658.16	37106.85
658.31	36762.79
658.45	36573.21
658.60	36554.49
658.74	36753.43
658.88	36442.14
659.03	36336.82
659.17	36411.71
659.31	36226.81
659.46	36093.40
659.60	36308.73
659.74	36297.03
659.89	36495.97
660.03	35754.02
660.17	35871.05
660.32	35889.77
660.46	36446.82
660.60	36187.02
660.74	35941.27
660.89	35690.83
661.03	35644.02
661.17	35529.33
661.32	35351.45
661.46	35606.57
661.60	35686.15
661.74	35634.66
661.89	35674.45
662.03	35416.99
662.17	35051.86
662.31	35285.92
662.46	35854.67
662.60	35489.54
662.74	35583.16
662.88	35339.75
663.03	35131.44
663.17	34967.60
663.31	35098.67
663.45	35002.71
663.60	34979.31
663.74	34815.47
663.88	35166.55
664.02	34799.08
664.17	35014.41
664.31	34911.43
664.45	34562.69
664.59	34644.61
664.73	34705.46
664.88	34464.39
665.02	34391.83
665.16	34646.95
665.30	34607.16
665.44	34422.26
665.59	34349.70
665.73	34396.51
665.87	34403.53
666.01	34401.19
666.15	34398.85
666.29	33670.95
666.44	34000.96
666.58	34153.10
666.72	34026.71
666.86	34139.05
667.00	34015.01
667.14	33907.34
667.28	33708.40
667.43	33766.91
667.57	34361.40
667.71	33563.28
667.85	33500.09
667.99	34066.50
668.13	33450.94
668.27	33259.01
668.41	33699.03
668.56	33532.86
668.70	33544.56
668.84	33329.23
668.98	33046.02
669.12	32622.39
669.26	33139.65
669.40	32683.24
669.54	33024.96
669.68	32804.95
669.82	32409.40
669.96	32285.35
670.10	32598.98
670.25	32889.21
670.39	32493.66
670.53	32226.84
670.67	32613.02
670.81	32643.45
670.95	32271.31
671.09	32311.10
671.23	32287.69
671.37	32493.66
671.51	32091.09
671.65	32240.88
671.79	31971.72
671.93	31578.51
672.07	31945.97
672.21	32142.58
672.35	31571.49
672.49	31920.23
672.63	31917.89
672.77	31866.39
672.91	31999.80
673.05	31316.37
673.19	31634.68
673.33	31307.01
673.47	31220.41
673.61	31096.36
673.75	30920.82
673.89	31007.42
674.03	30675.06
674.17	30916.14
674.31	30532.29
674.45	30813.15
674.59	30813.15
674.73	30946.56
674.87	30504.20
675.01	30597.82
675.15	30361.43
675.29	30342.70
675.43	30223.34
675.56	30281.85
675.70	29984.60
675.84	29993.97
675.98	29443.94
676.12	30328.66
676.26	29898.00
676.40	30197.59
676.54	29453.30
676.68	29757.57
676.82	28900.94
676.96	29607.78
677.10	29682.67
677.23	29460.32
677.37	29560.97
677.51	28959.45
677.65	29139.67
677.79	28671.56
677.93	28982.85
678.07	28561.56
678.21	28638.80
678.34	28320.48
678.48	28276.01
678.62	28416.44
678.76	27878.12
678.90	27660.45
679.04	27917.91
679.18	27971.74
679.31	27763.43
679.45	27559.81
679.59	27119.79
679.73	27608.96
679.87	27445.12
680.00	27461.51
680.14	27466.19
680.28	27152.55
680.42	27548.11
680.56	27349.16
680.70	27012.12
680.83	27388.95
680.97	26944.25
681.11	26965.31
681.25	26621.25
681.39	26665.72
681.52	26670.40
681.66	26693.81
681.80	26822.54
681.94	26691.47
682.07	26284.22
682.21	26298.26
682.35	26015.05
682.49	26052.50
682.62	26036.12
682.76	26396.56
682.90	26082.93
683.04	25951.86
683.17	26040.80
683.31	25343.32
683.45	25659.29
683.59	25233.32
683.72	25202.89
683.86	25310.55
684.00	25266.08
684.13	25153.74
684.27	25085.86
684.41	24996.92
684.55	24692.65
684.68	24575.62
684.82	24704.35
684.96	24802.66
685.09	24376.68
685.23	24615.41
685.37	24870.53
685.50	24472.64
685.64	24613.07
685.78	23796.23
685.91	23866.44
686.05	23868.78
686.19	23491.96
686.32	23770.48
686.46	22984.06
686.60	23108.11
686.73	22970.02
686.87	23068.32
687.01	23110.45
687.14	22899.80
687.28	23180.67
687.42	23089.38
687.55	22998.10
687.69	22862.35
687.82	22597.87
687.96	22817.88
688.10	22623.62
688.23	22623.62
688.37	22223.39
688.50	22267.86
688.64	22331.05
688.78	22312.33
688.91	22008.06
689.05	22122.74
689.18	22106.36
689.32	21743.58
689.46	21687.40
689.59	21895.71
689.73	21994.01
689.86	21722.51
690.00	21469.73
690.13	22033.80
690.27	21373.77
690.41	21252.06
690.54	20807.36
690.68	21139.72
690.81	20840.13
690.95	20835.45
691.08	20879.92
691.22	20952.48
691.35	20931.41
691.49	20980.56
691.62	20840.13
691.76	20587.35
691.89	20444.58
692.03	20046.69
692.16	19950.73
692.30	20177.76
692.43	19826.68
692.57	19583.26
692.70	19695.61
692.84	19880.51
692.97	19751.78
693.11	19529.43
693.24	19686.25
693.38	19625.39
693.51	19379.64
693.65	19566.88
693.78	19316.44
693.92	19302.40
694.05	19583.26
694.19	19091.75
694.32	19033.24
694.45	19000.47
694.59	18750.03
694.72	18932.59
694.86	18450.44
694.99	18633.00
695.13	18256.18
695.26	18338.10
695.39	18319.37
695.53	18600.24
695.66	18513.64
695.80	18670.45
695.93	18115.75
696.07	18394.27
696.20	18073.62
696.33	17776.37
696.47	17900.42
696.60	18094.68
696.73	17490.82
696.87	17549.34
697.00	17479.12
697.14	17598.49
697.27	17221.66
697.40	17619.55
697.54	17359.75
697.67	17420.61
697.80	17202.94
697.94	16772.28
698.07	17013.35
698.21	16734.83
698.34	16636.53
698.47	16673.98
698.61	16362.69
698.74	16430.56
698.87	16308.85
699.01	16025.65
699.14	16137.99
699.27	16163.74
699.40	15955.43
699.54	15850.11
699.67	15957.77
699.80	16093.52
699.94	15662.86
700.07	15826.70
700.20	15697.97
700.34	15782.23
700.47	15501.37
700.60	15833.72
700.73	15885.22
700.87	15360.94
701.00	15508.39
701.13	15524.77
701.26	15272.00
701.40	15339.87
701.53	15330.51
701.66	14906.87
701.79	15075.39
701.93	15080.07
702.06	14941.98
702.19	14602.60
702.32	14820.27
702.46	14642.39
702.59	14600.26
702.72	14448.13
702.85	14396.64
702.99	14572.18
703.12	14682.18
703.25	14312.38
703.38	14185.99
703.51	14256.20
703.65	13998.74
703.78	14115.77
703.91	14143.86
704.04	13898.10
704.17	14104.07
704.31	14080.66
704.44	13870.01
704.57	13657.03
704.70	13659.37
704.83	13781.07
704.96	13460.42
705.10	13731.92
705.23	13427.65
>>>>>End Processed Spectral Data<<<<<
