SpectraSuite Data File
++++++++++++++++++++++++++++++++++++
Date: Fri Oct 25 10:47:38 EDT 2013
User: price-jones
Dark Spectrum Present: No
Reference Spectrum Present: No
Number of Sampled Component Spectra: 1
Spectrometers: USB2+H05261
Integration Time (usec): 100000 (USB2+H05261)
Spectra Averaged: 1 (USB2+H05261)
Boxcar Smoothing: 0 (USB2+H05261)
Correct for Electrical Dark: No (USB2+H05261)
Strobe/Lamp Enabled: No (USB2+H05261)
Correct for Detector Non-linearity: No (USB2+H05261)
Correct for Stray Light: No (USB2+H05261)
Number of Pixels in Processed Spectrum: 2048
>>>>>Begin Processed Spectral Data<<<<<
365.73	168.52
365.92	168.52
366.12	168.52
366.32	28.09
366.52	35.11
366.72	100.64
366.91	4.68
367.11	42.13
367.31	58.51
367.51	42.13
367.70	0.00
367.90	4.68
368.10	51.49
368.30	114.69
368.49	42.13
368.69	110.01
368.89	70.22
369.09	14.04
369.28	21.06
369.48	23.41
369.68	58.51
369.87	91.28
370.07	124.05
370.27	126.39
370.47	210.65
370.66	454.06
370.86	407.25
371.06	428.32
371.25	451.72
371.45	458.74
371.65	477.47
371.84	447.04
372.04	369.80
372.24	454.06
372.44	463.43
372.63	512.58
372.83	519.60
373.03	524.28
373.22	449.38
373.42	554.71
373.62	500.87
373.81	538.32
374.01	550.03
374.21	510.24
374.40	540.66
374.60	484.49
374.79	535.98
374.99	496.19
375.19	554.71
375.38	606.20
375.58	688.12
375.78	566.41
375.97	650.67
376.17	603.86
376.37	650.67
376.56	484.49
376.76	606.20
376.95	578.11
377.15	620.24
377.35	585.13
377.54	648.33
377.74	606.20
377.93	596.84
378.13	627.26
378.33	533.64
378.52	648.33
378.72	620.24
378.91	610.88
379.11	620.24
379.31	580.45
379.50	582.79
379.70	603.86
379.89	662.37
380.09	699.82
380.28	690.46
380.48	657.69
380.68	599.18
380.87	578.11
381.07	685.78
381.26	704.50
381.46	643.65
381.65	706.84
381.85	610.88
382.04	685.78
382.24	660.03
382.43	629.60
382.63	744.29
382.83	650.67
383.02	826.21
383.22	699.82
383.41	772.38
383.61	802.80
383.80	706.84
384.00	720.88
384.19	716.20
384.39	791.10
384.58	720.88
384.78	734.93
384.97	713.86
385.17	793.44
385.36	781.74
385.56	807.48
385.75	758.33
385.95	837.91
386.14	777.06
386.34	755.99
386.53	795.78
386.72	833.23
386.92	800.46
387.11	784.08
387.31	802.80
387.50	746.63
387.70	737.27
387.89	784.08
388.09	830.89
388.28	844.93
388.48	854.30
388.67	938.55
388.86	842.59
389.06	889.40
389.25	980.68
389.45	933.87
389.64	887.06
389.84	945.58
390.03	947.92
390.22	875.36
390.42	912.81
390.61	940.90
390.81	936.21
391.00	933.87
391.19	985.37
391.39	1055.58
391.58	952.60
391.78	1057.92
391.97	973.66
392.16	903.45
392.36	1067.28
392.55	966.64
392.75	933.87
392.94	1011.11
393.13	1041.54
393.33	1025.15
393.52	1032.18
393.71	1128.14
393.91	1048.56
394.10	1046.22
394.29	1076.65
394.49	1004.09
394.68	1170.27
394.88	1067.28
395.07	1144.52
395.26	1104.73
395.46	1146.86
395.65	1050.90
395.84	1107.07
396.04	1149.20
396.23	1160.91
396.42	1146.86
396.62	1151.54
396.81	1109.41
397.00	1137.50
397.19	1299.00
397.39	1097.71
397.58	1256.87
397.77	1263.89
397.97	1252.19
398.16	1231.12
398.35	1350.49
398.55	1371.55
398.74	1387.94
398.93	1364.53
399.12	1268.57
399.32	1409.00
399.51	1343.47
399.70	1404.32
399.90	1238.14
400.09	1437.09
400.28	1425.39
400.47	1467.52
400.67	1610.29
400.86	1497.94
401.05	1528.37
401.24	1556.46
401.44	1579.86
401.63	1481.56
401.82	1577.52
402.01	1507.30
402.21	1497.94
402.40	1605.61
402.59	1516.67
402.78	1624.33
402.97	1617.31
403.17	1678.16
403.36	1621.99
403.55	1619.65
403.74	1612.63
403.93	1741.36
404.13	1593.90
404.32	1680.50
404.51	1680.50
404.70	1701.57
404.89	1729.66
405.09	1762.42
405.28	1771.79
405.47	1689.87
405.66	1813.92
405.85	1926.26
406.05	1830.30
406.24	1870.09
406.43	1785.83
406.62	1811.57
406.81	1891.15
407.00	1905.20
407.20	1788.17
407.39	1856.04
407.58	1930.94
407.77	2015.20
407.96	2019.88
408.15	1968.39
408.34	2094.78
408.54	2143.93
408.73	2064.35
408.92	2064.35
409.11	2125.21
409.30	2040.95
409.49	1996.48
409.68	2157.97
409.87	2092.44
410.07	2181.38
410.26	2160.31
410.45	2134.57
410.64	2204.78
410.83	2275.00
411.02	2263.30
411.21	2272.66
411.40	2298.41
411.59	2387.35
411.78	2368.62
411.98	2340.54
412.17	2326.49
412.36	2298.41
412.55	2424.80
412.74	2450.54
412.93	2555.86
413.12	2434.16
413.31	2740.77
413.50	2551.18
413.69	2621.40
413.88	2630.76
414.07	2633.10
414.26	2696.30
414.45	2733.75
414.64	2640.12
414.83	2661.19
415.02	2761.83
415.22	2799.28
415.41	2736.09
415.60	2825.03
415.79	2944.39
415.98	2972.48
416.17	2928.01
416.36	3002.91
416.55	2965.46
416.74	2860.13
416.93	2993.55
417.12	2953.76
417.31	2871.84
417.50	3077.80
417.69	3194.83
417.88	3133.98
418.07	3082.49
418.26	3105.89
418.45	3171.43
418.64	3176.11
418.83	3155.04
419.02	3248.66
419.21	3356.33
419.39	3222.92
419.58	3227.60
419.77	3368.03
419.96	3281.43
420.15	3281.43
420.34	3459.31
420.53	3358.67
420.72	3501.44
420.91	3459.31
421.10	3424.20
421.29	3424.20
421.48	3424.20
421.67	3515.48
421.86	3435.91
422.05	3466.33
422.24	3414.84
422.43	3407.82
422.61	3564.64
422.80	3637.19
422.99	3557.61
423.18	3527.19
423.37	3693.37
423.56	3513.14
423.75	3623.15
423.94	3583.36
424.13	3363.35
424.32	3461.65
424.50	3719.11
424.69	3646.55
424.88	3712.09
425.07	3625.49
425.26	3473.36
425.45	3581.02
425.64	3684.00
425.83	3632.51
426.01	3700.39
426.20	3733.15
426.39	3641.87
426.58	3543.57
426.77	3517.83
426.96	3618.47
427.15	3557.61
427.33	3777.62
427.52	3768.26
427.71	3684.00
427.90	3705.07
428.09	3840.82
428.28	3843.16
428.46	3812.73
428.65	3892.31
428.84	3854.86
429.03	3985.93
429.22	3911.04
429.40	3857.20
429.59	3840.82
429.78	3758.90
429.97	3693.37
430.16	3665.28
430.34	3908.69
430.53	3882.95
430.72	4107.64
430.91	3803.37
431.10	3992.95
431.28	4147.43
431.47	4262.12
431.66	4203.60
431.85	4222.33
432.03	4205.94
432.22	4245.73
432.41	4278.50
432.60	4327.65
432.79	4304.25
432.97	4212.96
433.16	4376.80
433.35	4306.59
433.54	4308.93
433.72	4423.61
433.91	4461.06
434.10	4346.37
434.28	4503.19
434.47	4498.51
434.66	4524.26
434.85	4411.91
435.03	4535.96
435.22	4475.10
435.41	4685.75
435.59	4727.88
435.78	4699.80
435.97	4676.39
436.16	4678.73
436.34	4500.85
436.53	4840.23
436.72	4777.03
436.90	4739.58
437.09	4772.35
437.28	4615.54
437.46	4713.84
437.65	4765.33
437.84	4849.59
438.02	4861.29
438.21	4795.76
438.40	4809.80
438.58	4950.23
438.77	4922.15
438.96	4975.98
439.14	5095.35
439.33	5217.05
439.52	5217.05
439.70	5327.06
439.89	5200.67
440.08	5142.16
440.26	5275.57
440.45	5327.06
440.63	5369.19
440.82	5472.17
441.01	5378.55
441.19	5322.38
441.38	5657.07
441.57	5483.88
441.75	5518.98
441.94	5556.43
442.12	5666.44
442.31	5680.48
442.50	5762.40
442.68	5710.91
442.87	5760.06
443.05	5781.12
443.24	5926.24
443.43	5706.23
443.61	5907.51
443.80	5926.24
443.98	5825.59
444.17	5650.05
444.35	5970.71
444.54	5909.85
444.73	5930.92
444.91	5973.05
445.10	5809.21
445.28	5858.36
445.47	5909.85
445.65	5877.09
445.84	5844.32
446.02	6054.97
446.21	5940.28
446.39	6024.54
446.58	6050.28
446.77	6167.31
446.95	5944.96
447.14	6214.12
447.32	6094.76
447.51	5968.37
447.69	6050.28
447.88	5982.41
448.06	6003.47
448.25	6157.95
448.43	6115.82
448.62	6101.78
448.80	6087.73
448.99	6282.00
449.17	6286.68
449.36	6258.59
449.54	6434.13
449.73	6389.66
449.91	6403.71
450.10	6347.53
450.28	6562.86
450.46	6532.44
450.65	6509.03
450.83	6567.54
451.02	6413.07
451.20	6649.46
451.39	6539.46
451.57	6562.86
451.76	6553.50
451.94	6619.04
452.13	6509.03
452.31	6506.69
452.49	6527.75
452.68	6736.06
452.86	6509.03
453.05	6555.84
453.23	6623.72
453.42	6604.99
453.60	6750.10
453.78	6733.72
453.97	6719.68
454.15	6644.78
454.34	6630.74
454.52	6810.96
454.70	7000.54
454.89	6902.24
455.07	6738.40
455.26	6963.09
455.44	7286.09
455.62	7204.17
455.81	7164.38
455.99	7063.74
456.17	7187.79
456.36	7033.31
456.54	7241.62
456.73	7187.79
456.91	7384.39
457.09	7372.69
457.28	7435.88
457.46	7456.95
457.64	7318.86
457.83	7630.15
458.01	7356.30
458.19	7585.68
458.38	7454.61
458.56	7583.34
458.74	7665.25
458.93	7501.42
459.11	7573.97
459.29	7665.25
459.48	7623.12
459.66	7541.21
459.84	7730.79
460.03	7716.75
460.21	7733.13
460.39	7903.99
460.57	7730.79
460.76	7810.37
460.94	7831.43
461.12	7999.95
461.31	7810.37
461.49	7817.39
461.67	7824.41
461.85	8056.12
462.04	7730.79
462.22	8381.46
462.40	8201.24
462.59	8072.51
462.77	8133.36
462.95	7892.29
463.13	8098.25
463.32	8287.84
463.50	8255.07
463.68	8285.50
463.86	8355.71
464.05	8287.84
464.23	8145.06
464.41	8217.62
464.59	8006.97
464.78	8641.26
464.96	8231.66
465.14	8322.94
465.32	8599.13
465.50	8500.83
465.69	8465.72
465.87	8456.36
466.05	8456.36
466.23	8259.75
466.41	8507.85
466.60	8898.72
466.78	8631.90
466.96	8603.81
467.14	8549.98
467.32	8549.98
467.51	8711.47
467.69	8430.61
467.87	8552.32
468.05	8730.20
468.23	8891.70
468.41	8751.26
468.60	8746.58
468.78	8784.03
468.96	8828.50
469.14	8744.24
469.32	8805.10
469.50	8690.41
469.69	9116.39
469.87	9210.01
470.05	9013.40
470.23	9188.94
470.41	9174.90
470.59	9062.55
470.77	8990.00
470.95	9254.48
471.14	9476.83
471.32	9172.56
471.50	9516.62
471.68	9502.58
471.86	9530.66
472.04	9640.67
472.22	9643.01
472.40	9462.79
472.58	9439.38
472.77	9675.77
472.95	9713.22
473.13	10036.22
473.31	9804.50
473.49	9788.12
473.67	9577.47
473.85	9713.22
474.03	10342.83
474.21	9989.41
474.39	10377.94
474.57	10153.24
474.75	10246.87
474.93	10406.02
475.12	10244.52
475.30	10504.32
475.48	10157.92
475.66	10354.53
475.84	10417.72
476.02	10504.32
476.20	10469.22
476.38	10848.38
476.56	10965.41
476.74	11009.88
476.92	11073.07
477.10	10972.43
477.28	11300.11
477.46	11054.35
477.64	11246.27
477.82	11318.83
478.00	11751.83
478.18	11723.74
478.36	11466.28
478.54	11702.68
478.72	11679.27
478.90	11875.88
479.08	12100.57
479.26	11903.96
479.44	12093.55
479.62	12208.23
479.80	12208.23
479.98	12334.62
480.16	12512.50
480.34	12564.00
480.52	12692.73
480.70	12826.14
480.88	12468.03
481.06	12861.24
481.24	12943.16
481.41	12992.31
481.59	13411.27
481.77	13404.25
481.95	13177.22
482.13	13654.69
482.31	13284.88
482.49	13790.44
482.67	13895.76
482.85	13783.41
483.03	13715.54
483.21	14047.90
483.39	14380.25
483.57	14293.65
483.74	14415.36
483.92	14661.12
484.10	14190.67
484.28	14876.44
484.46	14853.04
484.64	14958.36
484.82	15171.35
485.00	15192.42
485.18	15234.55
485.35	15344.55
485.53	15215.82
485.71	15250.93
485.89	15501.37
486.07	15503.71
486.25	15571.58
486.43	15988.20
486.61	15917.98
486.78	15948.41
486.96	16095.86
487.14	16245.66
487.32	16716.11
487.50	16669.30
487.68	16692.70
487.85	16901.01
488.03	17385.50
488.21	17355.07
488.39	17324.65
488.57	17305.92
488.75	17575.08
488.92	17647.64
489.10	18075.96
489.28	18104.04
489.46	18338.10
489.64	18253.84
489.81	18888.12
489.99	18735.99
490.17	18705.56
490.35	18733.65
490.53	18829.61
490.70	19515.39
490.88	19255.59
491.06	19552.84
491.24	19566.88
491.41	19126.86
491.59	19529.43
491.77	19391.34
491.95	19601.99
492.13	19758.80
492.30	19915.62
492.48	20252.66
492.66	20255.00
492.84	20435.22
493.01	20648.21
493.19	20407.13
493.37	20896.30
493.54	20856.51
493.72	21387.82
493.90	21032.05
494.08	21153.76
494.25	21596.12
494.43	21387.82
494.61	21764.64
494.79	21919.12
494.96	21783.37
495.14	21968.27
495.32	22134.45
495.49	22321.69
495.67	22422.33
495.85	22410.63
496.02	22506.59
496.20	22647.02
496.38	22916.19
496.55	22764.05
496.73	23339.82
496.91	22808.52
497.09	23555.15
497.26	23365.57
497.44	23302.37
497.62	23311.74
497.79	23721.33
497.97	23658.14
498.14	24198.80
498.32	23728.35
498.50	23718.99
498.67	24364.98
498.85	24114.54
499.03	24435.19
499.20	24460.94
499.38	24889.26
499.56	24575.62
499.73	24809.68
499.91	24608.39
500.08	24910.32
500.26	24947.77
500.44	25111.61
500.61	25139.69
500.79	24957.13
500.97	25319.92
501.14	25572.69
501.32	25273.10
501.49	25333.96
501.67	25722.49
501.84	25778.66
502.02	25888.67
502.20	25823.13
502.37	26291.24
502.55	26045.48
502.72	26111.02
502.90	26134.42
503.07	26073.57
503.25	26441.03
503.43	26368.48
503.60	26415.29
503.78	26462.10
503.95	26370.82
504.13	26801.47
504.30	26707.85
504.48	26705.51
504.65	27138.51
504.83	27042.55
505.01	27428.74
505.18	27407.67
505.36	27733.01
505.53	27309.37
505.71	28161.33
505.88	27590.24
506.06	27503.64
506.23	27803.22
506.41	27590.24
506.58	27924.93
506.76	28189.41
506.93	28233.88
507.11	28259.63
507.28	28463.25
507.46	28105.15
507.63	28264.31
507.81	28577.94
507.98	28657.52
508.16	28645.82
508.33	28643.48
508.50	28882.21
508.68	29233.29
508.85	29142.01
509.03	29214.57
509.20	29003.92
509.38	29619.48
509.55	29645.23
509.73	29832.47
509.90	29362.02
510.08	29518.84
510.25	29429.90
510.42	29935.45
510.60	29869.92
510.77	30092.27
510.95	29895.66
511.12	29530.54
511.30	30244.40
511.47	30574.42
511.64	30518.25
511.82	30754.64
511.99	30597.82
512.17	30651.66
512.34	30553.35
512.51	30824.86
512.69	31026.14
512.86	30752.30
513.04	30885.71
513.21	30944.22
513.38	30911.46
513.56	31112.74
513.73	30995.71
513.90	31433.39
514.08	31304.67
514.25	31620.64
514.43	31023.80
514.60	31765.75
514.77	31541.06
514.95	31646.38
515.12	31630.00
515.29	31669.79
515.47	32488.98
515.64	32215.13
515.81	32161.30
515.99	31873.42
516.16	31967.04
516.33	31948.31
516.51	32240.88
516.68	31714.26
516.85	31634.68
517.03	32196.41
517.20	32297.05
517.37	32339.18
517.54	32315.78
517.72	32423.44
517.89	32423.44
518.06	32638.77
518.24	32711.33
518.41	32568.55
518.58	32566.21
518.75	32762.82
518.93	33460.30
519.10	33137.30
519.27	33731.80
519.45	33397.10
519.62	33610.09
519.79	33317.53
519.96	33851.17
520.14	33940.11
520.31	33752.87
520.48	33893.30
520.65	33832.44
520.83	34323.96
521.00	33738.82
521.17	34125.01
521.34	34373.11
521.52	34267.78
521.69	34178.84
521.86	34555.67
522.03	34541.63
522.20	34527.58
522.38	34232.68
522.55	34759.30
522.72	34583.76
522.89	34930.16
523.07	35077.61
523.24	34906.75
523.41	34979.31
523.58	34756.96
523.75	35353.79
523.92	35218.04
524.10	35431.03
524.27	35536.35
524.44	35737.64
524.61	35243.79
524.78	35573.80
524.96	35793.81
525.13	35756.36
525.30	35777.43
525.47	36278.30
525.64	35681.47
525.81	36053.61
525.98	35707.21
526.16	35669.76
526.33	35779.77
526.50	35690.83
526.67	35449.75
526.84	35885.09
527.01	36077.02
527.18	35618.27
527.36	36421.08
527.53	36205.75
527.70	36708.96
527.87	36793.22
528.04	36493.63
528.21	36704.28
528.38	36608.32
528.55	36755.77
528.72	36753.43
528.89	36950.04
529.07	36762.79
529.24	36577.89
529.41	36868.12
529.58	36573.21
529.75	37053.02
529.92	37659.22
530.09	36985.15
530.26	37897.95
530.43	37441.55
530.60	37291.76
530.77	37422.83
530.94	37067.06
531.11	37352.61
531.28	37591.34
531.46	37818.38
531.63	37886.25
531.80	37565.60
531.97	37493.04
532.14	38022.00
532.31	37525.81
532.48	37762.20
532.65	38302.87
532.82	37755.18
532.99	37954.13
533.16	37839.44
533.33	38223.29
533.50	38171.80
533.67	38258.40
533.84	38539.26
534.01	38487.77
534.18	38829.49
534.35	38672.67
534.52	38501.81
534.69	38504.15
534.86	38637.56
535.03	38822.47
535.20	38724.16
535.37	39480.16
535.54	38925.45
535.71	38618.84
535.88	39058.86
536.05	38623.52
536.22	38632.88
536.38	38965.24
536.55	39061.20
536.72	38916.09
536.89	38972.26
537.06	39295.25
537.23	39302.28
537.40	39115.03
537.57	39187.59
537.74	39316.32
537.91	39543.35
538.08	39386.54
538.25	39271.85
538.42	39548.03
538.59	39697.83
538.75	39480.16
538.92	39501.22
539.09	39658.04
539.26	39789.11
539.43	40032.52
539.60	39826.56
539.77	39744.64
539.94	39990.39
540.11	39452.07
540.28	39700.17
540.44	40020.82
540.61	40119.12
540.78	39583.14
540.95	40069.97
541.12	39910.82
541.29	39798.47
541.46	39938.90
541.62	40280.62
541.79	40467.86
541.96	40016.14
542.13	40184.66
542.30	40236.15
542.47	40421.05
542.63	40154.23
542.80	40598.93
542.97	40830.65
543.14	40889.16
543.31	40900.86
543.48	40914.90
543.64	41448.55
543.81	41205.13
543.98	40708.94
544.15	40570.85
544.32	41294.07
544.48	41263.64
544.65	41191.09
544.82	41420.46
544.99	41013.21
545.16	41375.99
545.32	41280.03
545.49	41275.35
545.66	41247.26
545.83	41628.77
546.00	41612.38
546.16	41544.51
546.33	41296.41
546.50	41698.98
546.67	41940.06
546.83	41083.42
547.00	41336.20
547.17	41773.88
547.34	41614.72
547.50	41799.63
547.67	41773.88
547.84	41839.42
548.00	41778.56
548.17	42045.38
548.34	42094.53
548.51	41923.68
548.67	42141.35
548.84	42356.67
549.01	42220.92
549.18	41911.97
549.34	42295.82
549.51	42384.76
549.68	42775.63
549.84	42267.73
550.01	42501.79
550.18	42265.39
550.34	42433.91
550.51	42237.31
550.68	42211.56
550.84	41471.95
551.01	42686.69
551.18	42307.52
551.34	42312.20
551.51	42864.57
551.68	42122.62
551.84	42885.64
552.01	42705.41
552.18	42384.76
552.34	42522.85
552.51	43112.67
552.68	42653.92
552.84	42658.60
553.01	42939.47
553.18	42644.56
553.34	42721.80
553.51	42569.66
553.67	43243.74
553.84	43030.75
554.01	42993.30
554.17	43147.78
554.34	43161.82
554.51	43030.75
554.67	43365.45
554.84	43093.94
555.00	42948.83
555.17	42983.94
555.33	43423.96
555.50	42937.13
555.67	43117.35
555.83	43653.33
556.00	43304.59
556.16	43812.49
556.33	43363.11
556.50	43377.15
556.66	43573.75
556.83	43381.83
556.99	43758.66
557.16	43679.08
557.32	43496.52
557.49	43842.92
557.65	43232.04
557.82	43206.29
557.98	43578.43
558.15	43477.79
558.32	43643.97
558.48	43887.39
558.65	43775.04
558.81	43765.68
558.98	43363.11
559.14	43735.25
559.31	43803.13
559.47	44114.42
559.64	43796.10
559.80	44516.99
559.97	43966.96
560.13	43423.96
560.30	43498.86
560.46	43653.33
560.63	43955.26
560.79	44186.97
560.96	44505.29
561.12	43756.32
561.29	44091.01
561.45	44030.16
561.61	44217.40
561.78	44006.75
561.94	43854.62
562.11	43833.55
562.27	44261.87
562.44	44226.76
562.60	44107.40
562.77	44201.02
562.93	44062.93
563.10	44512.31
563.26	44390.60
563.42	44493.58
563.59	44161.23
563.75	44364.85
563.92	44348.47
564.08	44091.01
564.24	44706.57
564.41	44954.67
564.57	44261.87
564.74	44456.14
564.90	44624.65
565.07	44566.14
565.23	44170.59
565.39	44205.70
565.56	44390.60
565.72	43929.51
565.88	44376.56
566.05	43856.96
566.21	44411.67
566.38	44498.26
566.54	44414.01
566.70	44514.65
566.87	44385.92
567.03	44306.34
567.19	44748.70
567.36	44470.18
567.52	44835.30
567.68	45256.60
567.85	44886.79
568.01	44699.55
568.17	44212.72
568.34	44313.36
568.50	44561.46
568.66	44753.38
568.83	44348.47
568.99	44554.44
569.15	44650.40
569.32	44383.58
569.48	44098.03
569.64	44999.14
569.81	44720.62
569.97	44460.82
570.13	44495.92
570.30	44348.47
570.46	44409.32
570.62	44149.53
570.78	44385.92
570.95	44797.85
571.11	44692.53
571.27	44318.04
571.43	44626.99
571.60	45006.16
571.76	44584.86
571.92	44949.99
572.09	44385.92
572.25	44729.98
572.41	44683.17
572.57	44542.74
572.74	44945.31
572.90	45036.59
573.06	45111.49
573.22	44655.08
573.38	44502.95
573.55	44683.17
573.71	45081.06
573.87	45198.09
574.03	44662.10
574.20	44547.42
574.36	45067.02
574.52	44872.75
574.68	45010.84
574.84	45181.70
575.01	45088.08
575.17	44442.09
575.33	44737.00
575.49	44666.78
575.65	45516.40
575.82	45375.97
575.98	45148.93
576.14	45106.80
576.30	44912.54
576.46	45064.67
576.62	44612.95
576.79	44952.33
576.95	44828.28
577.11	44804.88
577.27	44708.91
577.43	45375.97
577.59	44671.46
577.75	45116.17
577.92	44296.98
578.08	45132.55
578.24	44641.04
578.40	44598.91
578.56	44856.37
578.72	44928.92
578.88	44875.09
579.04	44975.73
579.21	44690.19
579.37	44545.08
579.53	44933.60
579.69	44760.40
579.85	45345.54
580.01	44942.97
580.17	45064.67
580.33	44924.24
580.49	45036.59
580.65	44982.76
580.82	45469.59
580.98	44598.91
581.14	45057.65
581.30	45397.03
581.46	44896.16
581.62	45151.27
581.78	44570.82
581.94	45289.37
582.10	44982.76
582.26	45207.45
582.42	44502.95
582.58	45151.27
582.74	44465.50
582.90	44928.92
583.06	45195.74
583.22	45062.33
583.38	45303.41
583.54	45010.84
583.70	45027.23
583.86	44605.93
584.02	44486.56
584.18	44938.29
584.34	45041.27
584.50	45375.97
584.66	44624.65
584.82	44739.34
584.98	45406.39
585.14	45338.52
585.30	45116.17
585.46	44947.65
585.62	44926.58
585.78	44830.62
585.94	44493.58
586.10	45057.65
586.26	44559.12
586.42	45294.05
586.58	45336.18
586.74	44992.12
586.90	45155.96
587.06	44727.64
587.22	45326.81
587.38	45113.83
587.54	45036.59
587.70	45544.48
587.86	45298.73
588.02	45294.05
588.18	45207.45
588.34	45200.43
588.49	45256.60
588.65	44772.11
588.81	45083.40
588.97	44839.98
589.13	45022.54
589.29	44877.43
589.45	44755.72
589.61	45558.53
589.77	45308.09
589.93	45188.72
590.08	45439.16
590.24	45287.03
590.40	45474.27
590.56	45808.96
590.72	45219.15
590.88	44905.52
591.04	45312.77
591.20	46036.00
591.35	45607.68
591.51	45502.35
591.67	44957.01
591.83	45776.20
591.99	45123.19
592.15	44987.44
592.31	45586.61
592.46	45230.85
592.62	45207.45
592.78	45514.06
592.94	45521.08
593.10	45296.39
593.26	45783.22
593.41	45399.37
593.57	45202.77
593.73	45186.38
593.89	45102.12
594.05	45310.43
594.20	45514.06
594.36	45579.59
594.52	45455.54
594.68	45382.99
594.84	45076.38
594.99	45846.41
595.15	45443.84
595.31	45469.59
595.47	45481.29
595.62	45385.33
595.78	45703.64
595.94	45783.22
596.10	45902.59
596.25	45570.23
596.41	45490.65
596.57	45137.23
596.73	45500.01
596.88	44788.49
597.04	45017.86
597.20	45221.49
597.36	45638.11
597.51	45656.83
597.67	45401.71
597.83	45701.30
597.99	45815.99
598.14	45500.01
598.30	45530.44
598.46	45666.19
598.61	45418.10
598.77	45373.63
598.93	45368.94
599.09	45282.34
599.24	45993.87
599.40	45390.01
599.56	45837.05
599.71	45399.37
599.87	45399.37
600.03	45752.79
600.18	45308.09
600.34	45656.83
600.50	45471.93
600.65	45481.29
600.81	45385.33
600.97	45752.79
601.12	45986.85
601.28	45872.16
601.44	45226.17
601.59	45771.52
601.75	45041.27
601.91	45294.05
602.06	44856.37
602.22	45603.00
602.37	45340.86
602.53	45350.22
602.69	45830.03
602.84	45741.09
603.00	45626.40
603.16	45450.86
603.31	45205.11
603.47	45064.67
603.62	45118.51
603.78	45425.12
603.94	45303.41
604.09	45434.48
604.25	45191.06
604.40	45628.74
604.56	45390.01
604.71	45586.61
604.87	45392.35
605.03	45401.71
605.18	45497.67
605.34	45455.54
605.49	45008.50
605.65	45251.92
605.80	45792.58
605.96	45408.73
606.12	45865.14
606.27	45902.59
606.43	45205.11
606.58	45198.09
606.74	44980.42
606.89	45193.40
607.05	45132.55
607.20	45406.39
607.36	44797.85
607.51	45755.13
607.67	45134.89
607.82	45563.21
607.98	45125.53
608.13	45052.97
608.29	45071.70
608.44	44938.29
608.60	44533.37
608.75	44985.10
608.91	44818.92
609.06	44612.95
609.22	45254.26
609.37	44931.26
609.53	45148.93
609.68	44851.69
609.84	45134.89
609.99	45059.99
610.15	44884.45
610.30	44807.22
610.46	44446.77
610.61	44842.32
610.76	44706.57
610.92	44985.10
611.07	44928.92
611.23	44718.28
611.38	44870.41
611.54	44678.49
611.69	44652.74
611.84	44690.19
612.00	44832.96
612.15	44512.31
612.31	44584.86
612.46	44762.75
612.62	44631.68
612.77	44641.04
612.92	44832.96
613.08	44346.13
613.23	44624.65
613.39	44814.24
613.54	44313.36
613.69	44383.58
613.85	44222.08
614.00	44622.31
614.15	44851.69
614.31	44404.64
614.46	44610.61
614.62	44301.66
614.77	44088.67
614.92	44718.28
615.08	44641.04
615.23	44023.14
615.38	44261.87
615.54	44137.82
615.69	44023.14
615.84	44151.87
616.00	44301.66
616.15	44112.08
616.30	44711.25
616.46	44191.65
616.61	43903.77
616.76	44037.18
616.92	43604.18
617.07	43938.88
617.22	43866.32
617.37	43889.73
617.53	43955.26
617.68	44156.55
617.83	44154.21
617.99	43962.28
618.14	43924.83
618.29	43838.23
618.45	44034.84
618.60	44006.75
618.75	44137.82
618.90	43768.02
619.06	44362.51
619.21	43824.19
619.36	43863.98
619.51	43690.78
619.67	43976.33
619.82	43592.48
619.97	43917.81
620.12	43599.50
620.28	43217.99
620.43	43878.02
620.58	43536.30
620.73	43423.96
620.89	43742.27
621.04	43536.30
621.19	43613.54
621.34	43152.46
621.49	43653.33
621.65	43171.18
621.80	43732.91
621.95	43377.15
622.10	43426.30
622.25	43278.85
622.41	42960.53
622.56	42611.79
622.71	43339.70
622.86	43400.55
623.01	43859.30
623.16	43426.30
623.32	43044.79
623.47	43276.51
623.62	43164.16
623.77	42553.28
623.92	43021.39
624.07	43014.37
624.23	43164.16
624.38	42564.98
624.53	42902.02
624.68	42822.44
624.83	43030.75
624.98	43384.17
625.13	42873.93
625.29	43005.00
625.44	42897.34
625.59	42557.96
625.74	42525.19
625.89	41937.72
626.04	42239.65
626.19	42637.54
626.34	42742.86
626.49	42667.97
626.65	42204.54
626.80	42567.32
626.95	42553.28
627.10	42471.36
627.25	42593.07
627.40	42253.69
627.55	42045.38
627.70	41888.57
627.85	42323.91
628.00	41780.90
628.15	42241.99
628.30	42258.37
628.45	42457.32
628.60	42258.37
628.76	42305.18
628.91	42340.29
629.06	42649.24
629.21	42487.74
629.36	42199.86
629.51	41918.99
629.66	41703.67
629.81	41783.24
629.96	41708.35
630.11	41696.64
630.26	42021.98
630.41	41900.27
630.56	41663.88
630.71	41956.44
630.86	41890.91
631.01	41717.71
631.16	41443.87
631.31	41698.98
631.46	41518.76
631.61	41673.24
631.76	42078.15
631.91	41715.37
632.06	41900.27
632.21	41364.29
632.36	41549.19
632.51	41464.93
632.66	41588.98
632.81	41163.00
632.96	41057.68
633.10	41104.49
633.25	41301.09
633.40	41439.18
633.55	41549.19
633.70	41535.15
633.85	41125.55
634.00	41160.66
634.15	40957.03
634.30	40765.11
634.45	41324.50
634.60	41111.51
634.75	40975.76
634.90	41186.41
635.05	41195.77
635.19	41074.06
635.34	41118.53
635.49	40966.40
635.64	40699.58
635.79	40685.53
635.94	41109.17
636.09	41221.52
636.24	40554.46
636.39	40788.52
636.53	40713.62
636.68	40402.33
636.83	40664.47
636.98	40870.43
637.13	40458.50
637.28	40704.26
637.43	40795.54
637.57	41275.35
637.72	40800.22
637.87	41188.75
638.02	40669.15
638.17	40191.68
638.32	40233.81
638.46	40088.70
638.61	40161.25
638.76	40531.06
638.91	40519.35
639.06	40474.88
639.20	40446.80
639.35	40299.34
639.50	40280.62
639.65	40456.16
639.80	40493.61
639.94	40322.75
640.09	40135.51
640.24	39938.90
640.39	39934.22
640.54	40306.37
640.68	40044.23
640.83	40123.80
640.98	40093.38
641.13	40088.70
641.27	40109.76
641.42	39931.88
641.57	40268.92
641.72	39978.69
641.86	39646.33
642.01	39672.08
642.16	40032.52
642.31	39358.45
642.45	39426.32
642.60	39489.52
642.75	39295.25
642.90	39702.51
643.04	39742.30
643.19	39473.13
643.34	39751.66
643.48	39143.12
643.63	39674.42
643.78	39182.91
643.93	39159.50
644.07	39454.41
644.22	39299.94
644.37	38990.98
644.51	39414.62
644.66	39426.32
644.81	39737.62
644.95	39388.88
645.10	39440.37
645.25	39782.09
645.39	39115.03
645.54	39707.19
645.69	39227.38
645.83	39115.03
645.98	39023.75
646.13	39014.39
646.27	39133.76
646.42	38946.51
646.57	39260.15
646.71	39246.10
646.86	39234.40
647.00	39297.59
647.15	39346.75
647.30	39274.19
647.44	39367.81
647.59	39157.16
647.74	38897.36
647.88	38829.49
648.03	38663.31
648.17	38998.01
648.32	38576.71
648.47	38946.51
648.61	38829.49
648.76	39147.80
648.90	38321.59
649.05	38717.14
649.20	38841.19
649.34	38740.55
649.49	38382.45
649.63	38602.46
649.78	38646.93
649.92	38424.57
650.07	38906.73
650.21	38359.04
650.36	38349.68
650.51	38132.01
650.65	38848.21
650.80	38918.43
650.94	38934.81
651.09	38307.55
651.23	38246.69
651.38	37867.53
651.52	37813.70
651.67	38415.21
651.81	38246.69
651.96	38085.20
652.10	38178.82
652.25	37862.85
652.39	37947.11
652.54	38464.36
652.68	38342.66
652.83	38471.39
652.97	38595.43
653.12	37771.57
653.26	38045.41
653.41	38263.08
653.55	37872.21
653.70	37736.46
653.84	37914.34
653.99	37806.67
654.13	37982.21
654.27	37691.99
654.42	37837.10
654.56	37888.59
654.71	37837.10
654.85	37682.62
655.00	38029.02
655.14	37371.33
655.29	36697.26
655.43	37804.33
655.57	37223.88
655.72	37060.04
655.86	36978.12
656.01	37226.22
656.15	37553.90
656.30	37434.53
656.44	36980.46
656.58	36823.65
656.73	37069.40
656.87	36985.15
657.01	36989.83
657.16	36659.81
657.30	36830.67
657.45	37195.79
657.59	37179.41
657.73	36814.29
657.88	36987.49
658.02	36938.33
658.16	37368.99
658.31	37287.07
658.45	37167.71
658.60	37137.28
658.74	36924.29
658.88	36648.11
659.03	36823.65
659.17	36397.67
659.31	36655.13
659.46	36460.87
659.60	36353.20
659.74	36266.60
659.89	36669.17
660.03	36498.31
660.17	36484.27
660.32	36723.01
660.46	36795.56
660.60	36332.14
660.74	36746.41
660.89	35938.93
661.03	36002.12
661.17	35981.06
661.32	35871.05
661.46	36060.63
661.60	35704.87
661.74	36168.30
661.89	36133.19
662.03	35943.61
662.17	35936.59
662.31	35463.80
662.46	35566.78
662.60	36084.04
662.74	35747.00
662.88	35751.68
663.03	35770.41
663.17	35707.21
663.31	35386.56
663.45	35522.31
663.60	35353.79
663.74	35145.48
663.88	34869.30
664.02	35250.81
664.17	35718.92
664.31	34965.26
664.45	34965.26
664.59	35192.30
664.73	35042.50
664.88	35431.03
665.02	35049.52
665.16	35040.16
665.30	34625.89
665.44	34771.00
665.59	34567.37
665.73	34518.22
665.87	34251.40
666.01	34728.87
666.15	34410.56
666.29	34153.10
666.44	34183.52
666.58	34462.05
666.72	34532.26
666.86	34473.75
667.00	34586.10
667.14	34010.32
667.28	34010.32
667.43	34012.66
667.57	33977.56
667.71	33717.76
667.85	34305.23
667.99	33804.36
668.13	33523.49
668.27	33720.10
668.41	33483.70
668.56	33373.70
668.70	33687.33
668.84	33783.29
668.98	33380.72
669.12	33312.84
669.26	33553.92
669.40	33055.39
669.54	33315.19
669.68	33525.83
669.82	33041.34
669.96	32769.84
670.10	32404.72
670.25	32830.69
670.39	32921.98
670.53	32704.31
670.67	32364.93
670.81	32975.81
670.95	32947.72
671.09	32613.02
671.23	33085.81
671.37	32720.69
671.51	32680.90
671.65	32196.41
671.79	32208.11
671.93	32474.93
672.07	32453.87
672.21	32327.48
672.35	31868.73
672.49	31807.88
672.63	31988.10
672.77	31906.18
672.91	31840.65
673.05	31819.58
673.19	31587.87
673.33	31386.58
673.47	31531.70
673.61	31840.65
673.75	31372.54
673.89	31082.31
674.03	30948.90
674.17	31012.10
674.31	30934.86
674.45	31337.43
674.59	31325.73
674.73	31234.45
674.87	31236.79
675.01	31131.47
675.15	31213.38
675.29	30946.56
675.43	30576.76
675.56	30534.63
675.70	30876.35
675.84	30246.74
675.98	29476.71
676.12	30089.93
676.26	29972.90
676.40	29813.74
676.54	30321.64
676.68	29762.25
676.82	29647.57
676.96	29633.52
677.10	29577.35
677.23	29546.92
677.37	29699.06
677.51	29406.49
677.65	29413.51
677.79	29085.84
677.93	29186.48
678.07	28987.53
678.21	28905.62
678.34	28744.12
678.48	28699.65
678.62	28863.49
678.76	28566.24
678.90	28339.21
679.04	28292.40
679.18	28603.69
679.31	27835.99
679.45	28060.68
679.59	27924.93
679.73	27887.48
679.87	27957.70
680.00	28063.02
680.14	27763.43
680.28	27711.94
680.42	27641.73
680.56	27704.92
680.70	27730.67
680.83	27204.05
680.97	27410.01
681.11	27218.09
681.25	26848.29
681.39	26967.65
681.52	27309.37
681.66	26885.73
681.80	26911.48
681.94	27016.80
682.07	26485.50
682.21	26965.31
682.35	26703.17
682.49	26267.83
682.62	26354.43
682.76	26197.62
682.90	26092.29
683.04	26005.69
683.17	26263.15
683.31	26017.40
683.45	25781.00
683.59	25668.66
683.72	25586.74
683.86	25277.79
684.00	25535.24
684.13	25202.89
684.27	25427.58
684.41	25511.84
684.55	25490.77
684.68	24833.08
684.82	24690.31
684.96	24608.39
685.09	24709.04
685.23	24659.88
685.37	24400.08
685.50	24584.99
685.64	24519.45
685.78	24109.86
685.91	24276.04
686.05	24336.89
686.19	24107.52
686.32	23683.88
686.46	23866.44
686.60	23264.92
686.73	23660.48
686.87	23632.39
687.01	23431.10
687.14	23765.80
687.28	23405.36
687.42	23300.03
687.55	22829.59
687.69	23136.20
687.82	22904.48
687.96	23035.55
688.10	22806.18
688.23	22843.63
688.37	22567.45
688.50	22305.31
688.64	22342.75
688.78	22251.47
688.91	22380.20
689.05	22436.38
689.18	21853.58
689.32	21804.43
689.46	22134.45
689.59	21963.59
689.73	22312.33
689.86	22010.40
690.00	21654.64
690.13	21848.90
690.27	21483.78
690.41	21575.06
690.54	21406.54
690.68	21256.75
690.81	21003.97
690.95	20980.56
691.08	21212.28
691.22	21231.00
691.35	20989.92
691.49	21144.40
691.62	20800.34
691.76	20931.41
691.89	20718.42
692.03	20423.51
692.16	20437.56
692.30	20528.84
692.43	20318.19
692.57	20049.03
692.70	20322.87
692.84	20435.22
692.97	20013.92
693.11	19707.31
693.24	19744.76
693.38	19531.77
693.51	19506.02
693.65	19594.96
693.78	19548.15
693.92	19616.03
694.05	19353.89
694.19	19335.17
694.32	19105.79
694.45	19058.98
694.59	19075.37
694.72	18775.78
694.86	18810.89
694.99	18864.72
695.13	18693.86
695.26	18469.17
695.39	18473.85
695.53	18628.32
695.66	18511.30
695.80	18417.68
695.93	18288.95
696.07	18003.40
696.20	18221.07
696.33	18036.17
696.47	18094.68
696.60	18047.87
696.73	17994.04
696.87	17900.42
697.00	17776.37
697.14	17671.04
697.27	17413.59
697.40	17703.81
697.54	17420.61
697.67	17418.27
697.80	17582.10
697.94	17378.48
698.07	17235.70
698.21	17034.42
698.34	17095.27
698.47	17158.47
698.61	16460.99
698.74	17106.98
698.87	16812.07
699.01	16512.48
699.14	16465.67
699.27	16514.82
699.40	16673.98
699.54	16313.53
699.67	16100.55
699.80	16184.80
699.94	16126.29
700.07	16456.31
700.20	16084.16
700.34	15819.68
700.47	15735.42
700.60	16070.12
700.73	16006.92
700.87	15695.63
701.00	15466.26
701.13	15461.58
701.26	15311.78
701.40	15412.43
701.53	15115.18
701.66	15166.67
701.79	15183.06
701.93	15157.31
702.06	14843.68
702.19	14902.19
702.32	14993.47
702.46	14590.90
702.59	14904.53
702.72	14792.19
702.85	14799.21
702.99	14551.11
703.12	15288.38
703.25	14773.46
703.38	14712.61
703.51	14483.24
703.65	14548.77
703.78	14090.02
703.91	14274.93
704.04	14181.31
704.17	13949.59
704.31	14057.26
704.44	13664.05
704.57	13724.90
704.70	13727.24
704.83	13635.96
704.96	13862.99
705.10	13760.01
705.23	13832.57
>>>>>End Processed Spectral Data<<<<<
