SpectraSuite Data File
++++++++++++++++++++++++++++++++++++
Date: Fri Oct 25 10:48:17 EDT 2013
User: price-jones
Dark Spectrum Present: No
Reference Spectrum Present: No
Number of Sampled Component Spectra: 1
Spectrometers: USB2+H05261
Integration Time (usec): 100000 (USB2+H05261)
Spectra Averaged: 1 (USB2+H05261)
Boxcar Smoothing: 0 (USB2+H05261)
Correct for Electrical Dark: No (USB2+H05261)
Strobe/Lamp Enabled: No (USB2+H05261)
Correct for Detector Non-linearity: No (USB2+H05261)
Correct for Stray Light: No (USB2+H05261)
Number of Pixels in Processed Spectrum: 2048
>>>>>Begin Processed Spectral Data<<<<<
365.73	74.90
365.92	74.90
366.12	74.90
366.32	131.07
366.52	23.41
366.72	23.41
366.91	18.72
367.11	30.43
367.31	37.45
367.51	25.75
367.70	53.83
367.90	93.62
368.10	21.06
368.30	49.15
368.49	112.35
368.69	88.94
368.89	107.66
369.09	98.30
369.28	86.60
369.48	77.24
369.68	63.19
369.87	140.43
370.07	102.98
370.27	140.43
370.47	184.90
370.66	365.12
370.86	360.44
371.06	491.51
371.25	547.69
371.45	482.15
371.65	547.69
371.84	468.11
372.04	484.49
372.24	512.58
372.44	465.77
372.63	564.07
372.83	538.32
373.03	526.62
373.22	512.58
373.42	505.56
373.62	507.90
373.81	578.11
374.01	575.77
374.21	561.73
374.40	498.53
374.60	641.31
374.79	550.03
374.99	552.37
375.19	613.22
375.38	643.65
375.58	620.24
375.78	610.88
375.97	629.60
376.17	662.37
376.37	599.18
376.56	676.41
376.76	650.67
376.95	631.94
377.15	559.39
377.35	671.73
377.54	706.84
377.74	622.58
377.93	667.05
378.13	676.41
378.33	716.20
378.52	662.37
378.72	709.18
378.91	617.90
379.11	676.41
379.31	667.05
379.50	683.44
379.70	730.25
379.89	767.70
380.09	723.23
380.28	751.31
380.48	704.50
380.68	760.67
380.87	690.46
381.07	695.14
381.26	697.48
381.46	676.41
381.65	720.88
381.85	681.10
382.04	800.46
382.24	753.65
382.43	662.37
382.63	732.59
382.83	716.20
383.02	697.48
383.22	826.21
383.41	739.61
383.61	716.20
383.80	835.57
384.00	774.72
384.19	779.40
384.39	880.04
384.58	791.10
384.78	807.48
384.97	858.98
385.17	802.80
385.36	802.80
385.56	917.49
385.75	842.59
385.95	856.64
386.14	835.57
386.34	851.96
386.53	929.19
386.72	873.02
386.92	919.83
387.11	896.43
387.31	936.21
387.50	868.34
387.70	891.74
387.89	924.51
388.09	901.11
388.28	922.17
388.48	873.02
388.67	964.30
388.86	1032.18
389.06	891.74
389.25	1039.20
389.45	961.96
389.64	938.55
389.84	1004.09
390.03	1062.60
390.22	1064.94
390.42	1053.24
390.61	983.02
390.81	1071.97
391.00	1041.54
391.19	1036.86
391.39	1055.58
391.58	1090.69
391.78	1071.97
391.97	1078.99
392.16	1095.37
392.36	1060.26
392.55	1083.67
392.75	1022.81
392.94	1060.26
393.13	1001.75
393.33	1036.86
393.52	1020.47
393.71	1123.46
393.91	1142.18
394.10	1137.50
394.29	1207.72
394.49	1165.59
394.68	1228.78
394.88	1240.48
395.07	1322.40
395.26	1181.97
395.46	1224.10
395.65	1249.85
395.84	1263.89
396.04	1308.36
396.23	1205.38
396.42	1151.54
396.62	1266.23
396.81	1266.23
397.00	1210.06
397.19	1317.72
397.39	1399.64
397.58	1380.92
397.77	1418.36
397.97	1486.24
398.16	1401.98
398.35	1406.66
398.55	1437.09
398.74	1413.68
398.93	1528.37
399.12	1572.84
399.32	1462.83
399.51	1502.62
399.70	1561.14
399.90	1558.80
400.09	1619.65
400.28	1579.86
400.47	1643.06
400.67	1724.97
400.86	1689.87
401.05	1607.95
401.24	1734.34
401.44	1706.25
401.63	1629.01
401.82	1706.25
402.01	1724.97
402.21	1806.89
402.40	1795.19
402.59	1724.97
402.78	1818.60
402.97	1872.43
403.17	1816.26
403.36	1750.72
403.55	1802.21
403.74	1853.70
403.93	1851.36
404.13	1860.73
404.32	1900.52
404.51	1947.33
404.70	1891.15
404.89	1818.60
405.09	2022.22
405.28	1916.90
405.47	1937.96
405.66	1994.14
405.85	1963.71
406.05	1895.83
406.24	1919.24
406.43	2066.69
406.62	2038.61
406.81	2101.80
407.00	2012.86
407.20	2136.91
407.39	2101.80
407.58	2202.44
407.77	2125.21
407.96	2181.38
408.15	2190.74
408.34	2214.15
408.54	2319.47
408.73	2249.25
408.92	2305.43
409.11	2399.05
409.30	2305.43
409.49	2258.62
409.68	2251.60
409.87	2244.57
410.07	2307.77
410.26	2317.13
410.45	2478.63
410.64	2445.86
410.83	2593.31
411.02	2464.58
411.21	2581.61
411.40	2502.03
411.59	2609.70
411.78	2656.51
411.98	2607.36
412.17	2651.83
412.36	2600.34
412.55	2684.59
412.74	2775.88
412.93	2588.63
413.12	2658.85
413.31	2780.56
413.50	2782.90
413.69	2874.18
413.88	2775.88
414.07	3000.57
414.26	2925.67
414.45	2949.08
414.64	3014.61
414.83	2984.18
415.02	3087.17
415.22	3103.55
415.41	3152.70
415.60	3136.32
415.79	3152.70
415.98	3241.64
416.17	3356.33
416.36	3239.30
416.55	3272.07
416.74	3382.07
416.93	3330.58
417.12	3255.69
417.31	3206.53
417.50	3330.58
417.69	3471.01
417.88	3407.82
418.07	3414.84
418.26	3318.88
418.45	3433.57
418.64	3604.42
418.83	3623.15
419.02	3534.21
419.21	3475.70
419.39	3578.68
419.58	3585.70
419.77	3480.38
419.96	3754.22
420.15	3616.13
420.34	3761.24
420.53	3688.68
420.72	3838.48
420.91	3815.07
421.10	3896.99
421.29	3948.48
421.48	3723.79
421.67	3922.74
421.86	3875.93
422.05	3779.97
422.24	3824.44
422.43	3754.22
422.61	3948.48
422.80	3922.74
422.99	3847.84
423.18	3964.87
423.37	3985.93
423.56	3950.82
423.75	3939.12
423.94	3922.74
424.13	3751.88
424.32	3854.86
424.50	4112.32
424.69	4039.76
424.88	4030.40
425.07	3859.54
425.26	3878.27
425.45	4004.66
425.64	3939.12
425.83	3880.61
426.01	4032.74
426.20	4037.42
426.39	4067.85
426.58	4056.15
426.77	3948.48
426.96	3995.29
427.15	4049.13
427.33	4032.74
427.52	4039.76
427.71	4159.13
427.90	3995.29
428.09	4070.19
428.28	4044.45
428.46	4135.73
428.65	4056.15
428.84	4145.09
429.03	4337.01
429.22	4046.79
429.40	4194.24
429.59	4236.37
429.78	4016.36
429.97	4021.04
430.16	4032.74
430.34	4245.73
430.53	4147.43
430.72	4147.43
430.91	4210.62
431.10	4241.05
431.28	4709.16
431.47	4645.96
431.66	4681.07
431.85	4587.45
432.03	4561.70
432.22	4664.69
432.41	4617.88
432.60	4573.41
432.79	4596.81
432.97	4760.65
433.16	4716.18
433.35	4676.39
433.54	4587.45
433.72	4741.93
433.91	4582.77
434.10	4725.54
434.28	4741.93
434.47	4816.82
434.66	4950.23
434.85	5001.72
435.03	4931.51
435.22	5078.96
435.41	5004.07
435.59	4959.60
435.78	5020.45
435.97	5057.90
436.16	4924.49
436.34	5231.10
436.53	5160.88
436.72	5270.89
436.90	5093.01
437.09	5273.23
437.28	5053.22
437.46	5153.86
437.65	5322.38
437.84	5198.33
438.02	5043.85
438.21	5170.24
438.40	4936.19
438.58	5308.34
438.77	5425.36
438.96	5355.15
439.14	5556.43
439.33	5685.16
439.52	5645.37
439.70	5675.80
439.89	5621.97
440.08	5703.89
440.26	5713.25
440.45	5724.95
440.63	5884.11
440.82	6092.41
441.01	5760.06
441.19	5907.51
441.38	6066.67
441.57	5902.83
441.75	6157.95
441.94	6303.06
442.12	6317.11
442.31	6658.82
442.50	6375.62
442.68	6511.37
442.87	6380.30
443.05	6429.45
443.24	6513.71
443.43	6389.66
443.61	6473.92
443.80	6562.86
443.98	6232.85
444.17	6188.38
444.35	6548.82
444.54	6635.42
444.73	6616.69
444.91	6607.33
445.10	6324.13
445.28	6551.16
445.47	6457.54
445.65	6544.14
445.84	6565.20
446.02	6644.78
446.21	6621.38
446.39	6633.08
446.58	6715.00
446.77	6628.40
446.95	6541.80
447.14	6675.21
447.32	6780.53
447.51	6775.85
447.69	6792.23
447.88	6810.96
448.06	6520.73
448.25	6848.41
448.43	6740.74
448.62	6759.47
448.80	6668.19
448.99	6724.36
449.17	6817.98
449.36	6808.62
449.54	6899.90
449.73	6998.20
449.91	7173.74
450.10	7297.79
450.28	7323.54
450.46	7157.36
450.65	7288.43
450.83	7248.64
451.02	7370.35
451.20	7126.93
451.39	7211.19
451.57	7122.25
451.76	7262.68
451.94	7243.96
452.13	7337.58
452.31	7262.68
452.49	6935.01
452.68	7255.66
452.86	7211.19
453.05	7379.71
453.23	7557.59
453.42	7300.13
453.60	7349.28
453.78	7695.68
453.97	7417.16
454.15	7487.37
454.34	7503.76
454.52	7595.04
454.70	7557.59
454.89	7260.34
455.07	7611.42
455.26	7552.91
455.44	8011.65
455.62	7756.54
455.81	7665.25
455.99	7707.38
456.17	7733.13
456.36	7908.67
456.54	7754.19
456.73	7885.26
456.91	8121.66
457.09	8009.31
457.28	8084.21
457.46	8121.66
457.64	8285.50
457.83	8035.06
458.01	8030.38
458.19	8245.71
458.38	8070.17
458.56	8234.00
458.74	8219.96
458.93	8147.40
459.11	8334.65
459.29	8299.54
459.48	8283.16
459.66	8383.80
459.84	8297.20
460.03	8500.83
460.21	8454.02
460.39	8554.66
460.57	8444.65
460.76	8568.70
460.94	8652.96
461.12	8500.83
461.31	8521.89
461.49	8657.64
461.67	8645.94
461.85	8711.47
462.04	8812.12
462.22	9107.02
462.40	8861.27
462.59	8746.58
462.77	8802.75
462.95	8940.85
463.13	8879.99
463.32	8994.68
463.50	9078.94
463.68	8975.95
463.86	8990.00
464.05	8940.85
464.23	8954.89
464.41	9083.62
464.59	8706.79
464.78	9231.07
464.96	8959.57
465.14	8884.67
465.32	9097.66
465.50	9256.82
465.69	9312.99
465.87	9156.18
466.05	9097.66
466.23	9130.43
466.41	9193.62
466.60	9235.75
466.78	9261.50
466.96	9202.99
467.14	9467.47
467.32	9350.44
467.51	9558.75
467.69	9114.05
467.87	9603.22
468.05	9507.26
468.23	9439.38
468.41	9263.84
468.60	9322.35
468.78	9504.92
468.96	9645.35
469.14	9650.03
469.32	9921.53
469.50	9521.30
469.69	9626.62
469.87	9724.93
470.05	9956.64
470.23	9863.02
470.41	9631.30
470.59	10029.20
470.77	9696.84
470.95	9863.02
471.14	10047.92
471.32	9863.02
471.50	10148.56
471.68	10335.81
471.86	10143.88
472.04	10445.81
472.22	10623.69
472.40	10258.57
472.58	10616.67
472.77	10162.61
472.95	10647.10
473.13	10846.04
473.31	10384.96
473.49	10480.92
473.67	10609.65
473.85	10738.38
474.03	11026.26
474.21	10927.96
474.39	11166.70
474.57	10949.03
474.75	11023.92
474.93	10972.43
475.12	11063.71
475.30	11295.43
475.48	11199.46
475.66	11265.00
475.84	11239.25
476.02	11510.75
476.20	11431.18
476.38	11630.12
476.56	11859.49
476.74	11866.52
476.92	11751.83
477.10	11733.11
477.28	11957.80
477.46	11946.09
477.64	12116.95
477.82	12435.27
478.00	12507.82
478.18	12411.86
478.36	12564.00
478.54	12650.60
478.72	12737.20
478.90	13053.17
479.08	12830.82
479.26	13071.89
479.44	13401.91
479.62	13167.85
479.80	13240.41
479.98	13504.89
480.16	13921.51
480.34	13544.68
480.52	13923.85
480.70	13706.18
480.88	13699.16
481.06	13776.39
481.24	13940.23
481.41	14354.51
481.59	14576.86
481.77	14382.59
481.95	14333.44
482.13	14640.05
482.31	14279.61
482.49	14658.78
482.67	14878.79
482.85	15108.16
483.03	15082.41
483.21	15222.84
483.39	15594.99
483.57	14941.98
483.74	15438.17
483.92	15824.36
484.10	15398.38
484.28	15894.58
484.46	15777.55
484.64	16283.11
484.82	16308.85
485.00	15925.00
485.18	16460.99
485.35	16723.13
485.53	16133.31
485.71	16231.62
485.89	16662.27
486.07	16358.00
486.25	16449.28
486.43	17032.08
486.61	16929.09
486.78	17142.08
486.96	17357.41
487.14	17930.84
487.32	17947.23
487.50	17844.24
487.68	18064.25
487.85	18408.31
488.03	18689.18
488.21	18541.72
488.39	18548.75
488.57	18532.36
488.75	18895.14
488.92	19300.06
489.10	19386.66
489.28	19637.09
489.46	19711.99
489.64	19243.88
489.81	20002.22
489.99	20023.28
490.17	20072.43
490.35	20346.28
490.53	20327.55
490.70	20812.04
490.88	20725.44
491.06	20863.54
491.24	20645.87
491.41	20706.72
491.59	20849.49
491.77	20739.49
491.95	21221.64
492.13	21301.22
492.30	21345.69
492.48	21551.65
492.66	21797.41
492.84	21766.98
493.01	22045.51
493.19	22115.72
493.37	21977.63
493.54	22361.48
493.72	22735.96
493.90	22918.53
494.08	23000.44
494.25	23080.02
494.43	23028.53
494.61	23330.46
494.79	23501.32
494.96	23634.73
495.14	23625.37
495.32	24039.64
495.49	23807.93
495.67	23995.17
495.85	23901.55
496.02	24435.19
496.20	24496.05
496.38	24369.66
496.55	24407.11
496.73	25207.57
496.91	24706.70
497.09	25069.48
497.26	24856.49
497.44	25057.78
497.62	25017.99
497.79	25238.00
497.97	25144.38
498.14	25778.66
498.32	25715.47
498.50	25935.48
498.67	26422.31
498.85	26087.61
499.03	26260.81
499.20	26125.06
499.38	26394.22
499.56	26558.06
499.73	26703.17
499.91	26602.53
500.08	26850.63
500.26	26412.95
500.44	26878.71
500.61	26707.85
500.79	26773.39
500.97	27115.11
501.14	27302.35
501.32	27133.83
501.49	27131.49
501.67	27173.62
501.84	27789.18
502.02	27529.38
502.20	27821.95
502.37	27896.85
502.55	27782.16
502.72	27805.56
502.90	27999.83
503.07	28002.17
503.25	28130.90
503.43	28273.67
503.60	28615.39
503.78	28477.30
503.95	28329.84
504.13	28779.23
504.30	28540.49
504.48	28662.20
504.65	29081.16
504.83	29305.85
505.01	28802.63
505.18	29336.27
505.36	29467.34
505.53	29483.73
505.71	29694.38
505.88	29874.60
506.06	29553.94
506.23	29621.82
506.41	29441.60
506.58	29883.96
506.76	29900.34
506.93	29998.65
507.11	30272.49
507.28	30305.26
507.46	29834.81
507.63	29993.97
507.81	30349.73
507.98	29926.09
508.16	30188.23
508.33	30618.89
508.50	30700.81
508.68	30993.37
508.85	31346.79
509.03	30792.09
509.20	31051.89
509.38	31136.15
509.55	31735.32
509.73	31377.22
509.90	31550.42
510.08	31318.71
510.25	31386.58
510.42	31847.67
510.60	32140.24
510.77	31660.43
510.95	32231.52
511.12	32154.28
511.30	32140.24
511.47	32690.26
511.64	32849.42
511.82	32613.02
511.99	32603.66
512.17	32526.42
512.34	32556.85
512.51	32531.11
512.69	32833.04
512.86	32964.10
513.04	33106.88
513.21	32804.95
513.38	32549.83
513.56	32933.68
513.73	32786.22
513.90	33359.66
514.08	33050.70
514.25	33614.77
514.43	33179.43
514.60	33572.64
514.77	33436.89
514.95	33923.72
515.12	33633.50
515.29	34146.08
515.47	33921.38
515.64	34092.24
515.81	33647.54
515.99	34068.84
516.16	33745.84
516.33	33565.62
516.51	34122.67
516.68	33776.27
516.85	33366.68
517.03	33762.23
517.20	34387.15
517.37	34309.91
517.54	34976.97
517.72	34232.68
517.89	34443.32
518.06	33919.04
518.24	34328.64
518.41	34618.86
518.58	34864.62
518.75	34831.85
518.93	35388.90
519.10	35058.88
519.27	35161.87
519.45	35302.30
519.62	35140.80
519.79	35278.89
519.96	35988.08
520.14	35711.89
520.31	35662.74
520.48	36016.16
520.65	35819.56
520.83	36126.17
521.00	36243.20
521.17	35995.10
521.34	35892.12
521.52	36407.03
521.69	36385.97
521.86	36678.54
522.03	36114.47
522.20	36723.01
522.38	36521.72
522.55	36797.90
522.72	36690.24
522.89	36676.19
523.07	36734.71
523.24	36678.54
523.41	37289.42
523.58	36755.77
523.75	37244.94
523.92	37483.68
524.10	37539.85
524.27	37673.26
524.44	37310.48
524.61	37347.93
524.78	37532.83
524.96	38288.82
525.13	37811.35
525.30	38124.99
525.47	38478.41
525.64	38050.09
525.81	37701.35
525.98	37968.17
526.16	37722.41
526.33	37710.71
526.50	38094.56
526.67	37659.22
526.84	37701.35
527.01	37919.02
527.18	38150.73
527.36	38572.03
527.53	38532.24
527.70	38710.12
527.87	38452.66
528.04	38129.67
528.21	38632.88
528.38	38829.49
528.55	39012.05
528.72	38705.44
528.89	39210.99
529.07	39005.03
529.24	38726.50
529.41	38785.02
529.58	38946.51
529.75	39005.03
529.92	38904.38
530.09	39159.50
530.26	39356.11
530.43	39381.85
530.60	39421.64
530.77	39552.71
530.94	40081.67
531.11	39445.05
531.28	39730.59
531.46	39770.38
531.63	40069.97
531.80	39842.94
531.97	40062.95
532.14	40100.40
532.31	39363.13
532.48	39330.36
532.65	40119.12
532.82	39948.26
532.99	40287.64
533.16	40453.82
533.33	40318.07
533.50	40432.75
533.67	40282.96
533.84	40336.79
534.01	40264.24
534.18	39849.96
534.35	40545.10
534.52	40437.44
534.69	40704.26
534.86	40737.02
535.03	40498.29
535.20	40561.48
535.37	40854.05
535.54	41881.55
535.71	40790.86
535.88	41179.39
536.05	40807.24
536.22	41317.48
536.38	41139.60
536.55	41186.41
536.72	40992.14
536.89	41205.13
537.06	41212.15
537.23	41305.77
537.40	41137.26
537.57	41544.51
537.74	41287.05
537.91	41860.48
538.08	41478.97
538.25	41448.55
538.42	41572.60
538.59	41839.42
538.75	41256.62
538.92	41193.43
539.09	41724.73
539.26	41539.83
539.43	41818.35
539.60	41511.74
539.77	41315.14
539.94	41748.14
540.11	41682.60
540.28	41855.80
540.44	41422.80
540.61	41769.20
540.78	41832.39
540.95	42050.06
541.12	42010.28
541.29	41453.23
541.46	41832.39
541.62	42260.71
541.79	42391.78
541.96	42337.95
542.13	42181.13
542.30	42623.50
542.47	42724.14
542.63	42213.90
542.80	42494.77
542.97	42981.60
543.14	43054.15
543.31	42820.10
543.48	42916.06
543.64	43440.34
543.81	43138.41
543.98	42965.21
544.15	42883.30
544.32	43438.00
544.48	43704.82
544.65	43583.12
544.82	43274.16
544.99	43161.82
545.16	43302.25
545.32	43201.61
545.49	43510.56
545.66	43667.37
545.83	43152.46
546.00	43428.64
546.16	43438.00
546.33	43182.88
546.50	43442.68
546.67	43604.18
546.83	43133.73
547.00	43835.89
547.17	44058.24
547.34	43150.12
547.50	43831.21
547.67	43929.51
547.84	43782.06
548.00	44233.78
548.17	43922.49
548.34	43936.54
548.51	44189.31
548.67	43690.78
548.84	44334.43
549.01	43990.37
549.18	43927.17
549.34	44369.54
549.51	44233.78
549.68	44083.99
549.84	44088.67
550.01	44264.21
550.18	44128.46
550.34	44294.64
550.51	44470.18
550.68	44329.75
550.84	43793.76
551.01	44037.18
551.18	44215.06
551.34	44676.15
551.51	44552.10
551.68	44463.16
551.84	44479.54
552.01	44222.08
552.18	44542.74
552.34	44313.36
552.51	44765.09
552.68	44605.93
552.84	44975.73
553.01	44814.24
553.18	45242.56
553.34	44694.87
553.51	44528.69
553.67	45003.82
553.84	45230.85
554.01	45331.50
554.17	44919.56
554.34	45081.06
554.51	45078.72
554.67	45113.83
554.84	45158.30
555.00	44418.69
555.17	44671.46
555.33	45371.28
555.50	45134.89
555.67	45048.29
555.83	45284.68
556.00	45230.85
556.16	45464.91
556.33	45406.39
556.50	45469.59
556.66	45731.73
556.83	45102.12
556.99	45134.89
557.16	45502.35
557.32	45514.06
557.49	45631.08
557.65	45333.84
557.82	45542.14
557.98	45375.97
558.15	45635.77
558.32	45057.65
558.48	45275.32
558.65	45638.11
558.81	45453.20
558.98	45588.95
559.14	45600.66
559.31	45441.50
559.47	45539.80
559.64	45530.44
559.80	46075.79
559.97	45542.14
560.13	45544.48
560.30	46026.63
560.46	45710.66
560.63	45724.71
560.79	45727.05
560.96	46113.23
561.12	46220.90
561.29	46195.15
561.45	46117.92
561.61	46005.57
561.78	45502.35
561.94	45956.42
562.11	45610.02
562.27	45914.29
562.44	45890.88
562.60	46087.49
562.77	45968.12
562.93	45883.86
563.10	46499.42
563.26	46021.95
563.42	46213.88
563.59	45820.67
563.75	45895.56
563.92	46440.91
564.08	46312.18
564.24	46169.41
564.41	46003.23
564.57	46028.98
564.74	46162.39
564.90	46232.60
565.07	46005.57
565.23	45797.26
565.39	46155.36
565.56	46141.32
565.72	46005.57
565.88	46213.88
566.05	45935.35
566.21	46263.03
566.38	45855.78
566.54	46052.38
566.70	45820.67
566.87	46649.22
567.03	46571.98
567.19	46557.94
567.36	46342.61
567.52	46075.79
567.68	46403.46
567.85	46469.00
568.01	46073.45
568.17	46075.79
568.34	46258.35
568.50	46417.50
568.66	46450.27
568.83	46340.27
568.99	46256.01
569.15	46302.82
569.32	46302.82
569.48	45916.63
569.64	46941.78
569.81	46309.84
569.97	46375.37
570.13	46639.86
570.30	46061.74
570.46	46017.27
570.62	45986.85
570.78	46291.12
570.95	46237.28
571.11	46548.57
571.27	46712.41
571.43	46384.74
571.60	46108.55
571.76	46653.90
571.92	46611.77
572.09	46485.38
572.25	46415.16
572.41	46183.45
572.57	46349.63
572.74	46871.57
572.90	46473.68
573.06	46576.66
573.22	46848.16
573.38	46974.55
573.55	46204.52
573.71	46705.39
573.87	46469.00
574.03	46581.34
574.20	46887.95
574.36	46560.28
574.52	46733.48
574.68	46644.54
574.84	46728.80
575.01	46761.56
575.17	46356.65
575.33	45914.29
575.49	46497.08
575.65	46824.76
575.82	47189.88
575.98	46354.31
576.14	46681.98
576.30	46726.46
576.46	46600.07
576.62	46007.91
576.79	46492.40
576.95	46050.04
577.11	46225.58
577.27	46459.63
577.43	46862.21
577.59	47072.85
577.75	46248.99
577.92	46391.76
578.08	46190.47
578.24	46007.91
578.40	46579.00
578.56	46623.47
578.72	46529.85
578.88	46838.80
579.04	46548.57
579.21	45986.85
579.37	46403.46
579.53	46749.86
579.69	46457.29
579.85	46604.75
580.01	46724.11
580.17	46595.38
580.33	46873.91
580.49	46703.05
580.65	46541.55
580.82	46485.38
580.98	46539.21
581.14	46232.60
581.30	46892.63
581.46	46403.46
581.62	47159.45
581.78	46403.46
581.94	46649.22
582.10	46880.93
582.26	47063.49
582.42	46902.00
582.58	46756.88
582.74	46358.99
582.90	47105.62
583.06	46787.31
583.22	46571.98
583.38	47061.15
583.54	47049.45
583.70	46836.46
583.86	46171.75
584.02	46560.28
584.18	46658.58
584.34	46897.31
584.50	46869.23
584.66	46735.82
584.82	46316.86
584.98	46946.47
585.14	46848.16
585.30	46707.73
585.46	46728.80
585.62	46148.34
585.78	46286.43
585.94	46431.55
586.10	46604.75
586.26	46375.37
586.42	46887.95
586.58	46712.41
586.74	46607.09
586.90	46859.87
587.06	46845.82
587.22	46815.40
587.38	46693.69
587.54	47021.36
587.70	47126.69
587.86	47217.97
588.02	46485.38
588.18	46733.48
588.34	46405.80
588.49	46422.19
588.65	45839.39
588.81	46237.28
588.97	46363.67
589.13	46330.90
589.29	46452.61
589.45	46541.55
589.61	46426.87
589.77	46815.40
589.93	46726.46
590.08	46965.19
590.24	46845.82
590.40	46710.07
590.56	46731.14
590.72	46960.51
590.88	46752.20
591.04	46436.23
591.20	47182.86
591.35	47044.77
591.51	47283.50
591.67	47309.25
591.83	46490.06
591.99	46546.23
592.15	46691.35
592.31	46916.04
592.46	46731.14
592.62	46815.40
592.78	47079.88
592.94	47196.90
593.10	46958.17
593.26	47028.38
593.41	46932.42
593.57	46777.95
593.73	46822.42
593.89	46983.91
594.05	46787.31
594.20	46667.94
594.36	47257.76
594.52	46660.92
594.68	46782.63
594.84	47253.08
594.99	47260.10
595.15	47089.24
595.31	46712.41
595.47	46894.97
595.62	46972.21
595.78	46553.26
595.94	47323.29
596.10	47330.31
596.25	47189.88
596.41	47154.77
596.57	47004.98
596.73	47047.11
596.88	46550.91
597.04	46862.21
597.20	47311.59
597.36	47246.05
597.51	47028.38
597.67	46749.86
597.83	46841.14
597.99	47229.67
598.14	46810.71
598.30	47260.10
598.46	46810.71
598.61	47100.94
598.77	46590.70
598.93	46803.69
599.09	46387.08
599.24	47449.68
599.40	46976.89
599.56	47320.95
599.71	46766.24
599.87	47166.48
600.03	47138.39
600.18	46775.61
600.34	47014.34
600.50	47138.39
600.65	46754.54
600.81	47061.15
600.97	47297.55
601.12	46960.51
601.28	47145.41
601.44	46876.25
601.59	46728.80
601.75	46710.07
601.91	46815.40
602.06	46775.61
602.22	46852.84
602.37	47042.43
602.53	47150.09
602.69	47257.76
602.84	47098.60
603.00	46967.53
603.16	46784.97
603.31	46972.21
603.47	46777.95
603.62	46939.44
603.78	47381.80
603.94	46843.48
604.09	46850.50
604.25	47051.79
604.40	46848.16
604.56	46848.16
604.71	46897.31
604.87	46384.74
605.03	46597.73
605.18	46686.67
605.34	46761.56
605.49	46394.10
605.65	46597.73
605.80	46742.84
605.96	46625.81
606.12	47012.00
606.27	46813.05
606.43	46845.82
606.58	46958.17
606.74	46623.47
606.89	46979.23
607.05	46927.74
607.20	46735.82
607.36	46920.72
607.51	46906.68
607.67	46583.68
607.82	46728.80
607.98	46728.80
608.13	46358.99
608.29	46469.00
608.44	46036.00
608.60	45872.16
608.75	46515.81
608.91	46326.22
609.06	46387.08
609.22	46733.48
609.37	45977.48
609.53	46361.33
609.68	46721.77
609.84	46300.48
609.99	46569.64
610.15	45996.21
610.30	46485.38
610.46	46288.77
610.61	46366.01
610.76	46274.73
610.92	46323.88
611.07	46277.07
611.23	46520.49
611.38	46279.41
611.54	45947.06
611.69	45591.30
611.84	45984.51
612.00	45977.48
612.15	46085.15
612.31	46246.65
612.46	46141.32
612.62	46513.47
612.77	46560.28
612.92	46363.67
613.08	45937.69
613.23	45689.60
613.39	45867.48
613.54	45715.34
613.69	46087.49
613.85	46417.50
614.00	45944.72
614.15	46038.34
614.31	46026.63
614.46	45991.53
614.62	46199.83
614.77	45944.72
614.92	45928.33
615.08	45780.88
615.23	45584.27
615.38	45638.11
615.54	45504.70
615.69	45340.86
615.84	45750.45
616.00	45595.98
616.15	45701.30
616.30	45874.50
616.46	45490.65
616.61	45439.16
616.76	45401.71
616.92	45301.07
617.07	45303.41
617.22	45401.71
617.37	45450.86
617.53	45745.77
617.68	45441.50
617.83	45825.35
617.99	45624.06
618.14	45436.82
618.29	44870.41
618.45	44945.31
618.60	45525.76
618.75	45305.75
618.90	45415.76
619.06	45317.45
619.21	45052.97
619.36	45207.45
619.51	45076.38
619.67	44884.45
619.82	45476.61
619.97	44935.95
620.12	44711.25
620.28	44783.81
620.43	44699.55
620.58	44741.68
620.73	45052.97
620.89	45123.19
621.04	45139.57
621.19	44987.44
621.34	44788.49
621.49	44825.94
621.65	44442.09
621.80	44952.33
621.95	44863.39
622.10	44350.81
622.25	44561.46
622.41	44666.78
622.56	44421.03
622.71	45214.47
622.86	44898.50
623.01	44559.12
623.16	44722.96
623.32	44271.23
623.47	44774.45
623.62	44762.75
623.77	44732.32
623.92	44678.49
624.07	44051.22
624.23	44098.03
624.38	44170.59
624.53	43871.00
624.68	44355.49
624.83	44107.40
624.98	44334.43
625.13	44105.06
625.29	43859.30
625.44	43983.35
625.59	44149.53
625.74	43622.90
625.89	43423.96
626.04	43653.33
626.19	43831.21
626.34	43915.47
626.49	43854.62
626.65	43826.53
626.80	43899.09
626.95	43395.87
627.10	43587.80
627.25	42880.95
627.40	43356.08
627.55	43580.78
627.70	42855.21
627.85	43077.56
628.00	43288.21
628.15	43564.39
628.30	43330.34
628.45	43571.41
628.60	43697.80
628.76	43468.43
628.91	43578.43
629.06	43028.41
629.21	43143.09
629.36	42754.57
629.51	43103.31
629.66	43126.71
629.81	43086.92
629.96	43002.66
630.11	43533.96
630.26	42937.13
630.41	43203.95
630.56	43000.32
630.71	43360.76
630.86	42880.95
631.01	42621.16
631.16	43002.66
631.31	42522.85
631.46	42326.25
631.61	42834.14
631.76	42433.91
631.91	43026.07
632.06	42773.29
632.21	43171.18
632.36	42939.47
632.51	42726.48
632.66	42321.57
632.81	42380.08
632.96	42644.56
633.10	42220.92
633.25	42057.09
633.40	42485.40
633.55	42759.25
633.70	42679.67
633.85	42218.58
634.00	42506.47
634.15	42380.08
634.30	42527.53
634.45	42450.30
634.60	42557.96
634.75	42520.51
634.90	42295.82
635.05	42253.69
635.19	42150.71
635.34	42864.57
635.49	42127.30
635.64	42096.88
635.79	41890.91
635.94	42312.20
636.09	42073.47
636.24	41797.29
636.39	41490.68
636.53	42237.31
636.68	41656.85
636.83	41584.30
636.98	42078.15
637.13	41926.02
637.28	42033.68
637.43	42106.24
637.57	42073.47
637.72	42410.51
637.87	42059.43
638.02	41706.01
638.17	41956.44
638.32	41766.86
638.46	41755.16
638.61	42167.09
638.76	41347.90
638.91	41823.03
639.06	41401.74
639.20	41357.27
639.35	41635.79
639.50	41392.37
639.65	41958.78
639.80	41525.78
639.94	41598.34
640.09	41516.42
640.24	41457.91
640.39	41029.59
640.54	41181.73
640.68	41275.35
640.83	41195.77
640.98	40931.29
641.13	41244.92
641.27	41244.92
641.42	41036.61
641.57	41167.68
641.72	41167.68
641.86	40882.14
642.01	40877.46
642.16	40519.35
642.31	40683.19
642.45	40697.24
642.60	40699.58
642.75	40818.94
642.90	40692.55
643.04	40720.64
643.19	40664.47
643.34	40605.95
643.48	40711.28
643.63	40816.60
643.78	41048.32
643.93	40636.38
644.07	40147.21
644.22	40474.88
644.37	40229.13
644.51	40367.22
644.66	40414.03
644.81	40933.63
644.95	40935.97
645.10	40921.93
645.25	40474.88
645.39	40144.87
645.54	40795.54
645.69	40488.93
645.83	40601.27
645.98	40446.80
646.13	40556.80
646.27	40224.45
646.42	40081.67
646.57	40154.23
646.71	40023.16
646.86	40222.11
647.00	39906.13
647.15	40491.27
647.30	40222.11
647.44	39477.82
647.59	39903.79
647.74	39494.20
647.88	39990.39
648.03	39922.52
648.17	40027.84
648.32	39828.90
648.47	39693.15
648.61	39402.92
648.76	39711.87
648.90	39899.11
649.05	39784.43
649.20	39826.56
649.34	40004.44
649.49	39456.75
649.63	39529.31
649.78	39606.55
649.92	39800.81
650.07	39636.97
650.21	39119.71
650.36	39484.84
650.51	39304.62
650.65	39835.92
650.80	39950.60
650.94	40065.29
651.09	39356.11
651.23	39344.41
651.38	39374.83
651.52	39117.37
651.67	39304.62
651.81	38990.98
651.96	39278.87
652.10	39395.90
652.25	39264.83
652.39	39353.77
652.54	39276.53
652.68	39306.96
652.83	38873.96
652.97	39470.79
653.12	38967.58
653.26	38981.62
653.41	39037.80
653.55	38733.53
653.70	38518.20
653.84	38787.36
653.99	38726.50
654.13	38934.81
654.27	38557.99
654.42	38665.65
654.56	38579.05
654.71	38536.92
654.85	38644.59
655.00	38658.63
655.14	38572.03
655.29	38031.36
655.43	38113.28
655.57	38209.25
655.72	37743.48
655.86	38274.78
656.01	38291.16
656.15	37713.05
656.30	37504.74
656.44	38036.05
656.58	38005.62
656.73	37904.98
656.87	38085.20
657.01	37844.12
657.16	37546.87
657.30	37923.70
657.45	37736.46
657.59	37659.22
657.73	37853.48
657.88	37886.25
658.02	38302.87
658.16	37954.13
658.31	38136.69
658.45	37949.45
658.60	38162.43
658.74	37851.14
658.88	37809.01
659.03	37855.82
659.17	37638.15
659.31	37780.93
659.46	37383.04
659.60	37481.34
659.74	37251.97
659.89	37715.39
660.03	36959.40
660.17	37509.43
660.32	37425.17
660.46	37926.04
660.60	37340.91
660.74	37656.88
660.89	37256.65
661.03	36711.30
661.17	37209.84
661.32	36830.67
661.46	36926.63
661.60	36748.75
661.74	37139.62
661.89	37057.70
662.03	37130.26
662.17	36332.14
662.31	36748.75
662.46	36624.70
662.60	36615.34
662.74	36833.01
662.88	36486.61
663.03	36456.18
663.17	36371.92
663.31	36133.19
663.45	36545.12
663.60	36542.78
663.74	36381.29
663.88	36074.68
664.02	36315.75
664.17	35838.28
664.31	35995.10
664.45	35819.56
664.59	36053.61
664.73	36175.32
664.88	35941.27
665.02	35728.28
665.16	35810.20
665.30	35936.59
665.44	35707.21
665.59	35587.85
665.73	35651.04
665.87	35538.69
666.01	35346.77
666.15	34881.00
666.29	35571.46
666.44	35519.97
666.58	35220.38
666.72	35620.61
666.86	35468.48
667.00	35330.39
667.14	34616.52
667.28	34632.91
667.43	35030.80
667.57	34808.45
667.71	34824.83
667.85	34726.53
667.99	34602.48
668.13	34237.36
668.27	34277.15
668.41	34506.52
668.56	34328.64
668.70	34476.09
668.84	34176.50
668.98	34448.00
669.12	34223.31
669.26	34562.69
669.40	34438.64
669.54	33961.17
669.68	34019.69
669.82	33846.49
669.96	33928.41
670.10	34022.03
670.25	34005.64
670.39	33280.08
670.53	33502.43
670.67	33993.94
670.81	33743.50
670.95	33820.74
671.09	33977.56
671.23	33771.59
671.37	33677.97
671.51	33546.90
671.65	33125.60
671.79	33170.07
671.93	33104.54
672.07	33439.23
672.21	32957.08
672.35	33010.92
672.49	32868.14
672.63	32851.76
672.77	32938.36
672.91	32687.92
673.05	32917.29
673.19	32606.00
673.33	32896.23
673.47	32360.25
673.61	32477.27
673.75	32006.83
673.89	31583.19
674.03	31826.60
674.17	31896.82
674.31	31606.59
674.45	31580.85
674.59	31845.33
674.73	31718.94
674.87	31695.53
675.01	32243.22
675.15	31711.92
675.29	31473.18
675.43	31786.82
675.56	31412.33
675.70	31702.56
675.84	31222.75
675.98	30019.71
676.12	31075.29
676.26	30841.24
676.40	30270.15
676.54	30707.83
676.68	30911.46
676.82	30244.40
676.96	30373.13
677.10	30354.41
677.23	30621.23
677.37	30122.69
677.51	30197.59
677.65	30281.85
677.79	29769.27
677.93	29865.24
678.07	29633.52
678.21	29647.57
678.34	29614.80
678.48	29303.51
678.62	29771.61
678.76	29055.41
678.90	29284.78
679.04	29088.18
679.18	29069.45
679.31	29001.58
679.45	28886.89
679.59	28816.68
679.73	28620.07
679.87	28706.67
680.00	28898.59
680.14	28767.52
680.28	28418.78
680.42	28205.80
680.56	28507.72
680.70	28608.37
680.83	28229.20
680.97	27763.43
681.11	27943.66
681.25	27370.22
681.39	28034.94
681.52	27758.75
681.66	27819.61
681.80	27627.68
681.94	27138.51
682.07	27461.51
682.21	26796.79
682.35	27281.28
682.49	26906.80
682.62	27330.44
682.76	26738.28
682.90	26806.16
683.04	27012.12
683.17	26548.70
683.31	26848.29
683.45	26274.85
683.59	26120.38
683.72	26026.76
683.86	25930.80
684.00	26181.23
684.13	26103.99
684.27	26096.97
684.41	26012.71
684.55	25488.43
684.68	25537.59
684.82	25439.28
684.96	25626.53
685.09	25228.63
685.23	25216.93
685.37	25163.10
685.50	25352.68
685.64	25385.45
685.78	25167.78
685.91	25053.09
686.05	24734.78
686.19	24844.79
686.32	24482.00
686.46	24589.67
686.60	23971.77
686.73	23962.40
686.87	23662.82
687.01	24041.98
687.14	23751.76
687.28	23695.58
687.42	23674.52
687.55	23381.95
687.69	23337.48
687.82	23271.95
687.96	23653.45
688.10	23585.58
688.23	23330.46
688.37	23183.01
688.50	22747.67
688.64	22677.45
688.78	23131.51
688.91	22841.29
689.05	22459.78
689.18	22691.49
689.32	22113.38
689.46	22574.47
689.59	22649.36
689.73	22684.47
689.86	22249.13
690.00	22574.47
690.13	22375.52
690.27	21855.92
690.41	22286.58
690.54	21514.20
690.68	21804.43
690.81	21984.65
690.95	21820.81
691.08	21401.86
691.22	21783.37
691.35	21675.70
691.49	21539.95
691.62	21369.09
691.76	21228.66
691.89	21486.12
692.03	20922.05
692.16	20769.91
692.30	20821.41
692.43	21149.08
692.57	20514.80
692.70	20915.03
692.84	20477.35
692.97	20411.81
693.11	20362.66
693.24	20439.90
693.38	20198.82
693.51	20149.67
693.65	20203.50
693.78	20128.61
693.92	19817.32
694.05	19885.19
694.19	19637.09
694.32	19594.96
694.45	19967.11
694.59	19124.52
694.72	19648.80
694.86	19124.52
694.99	19096.43
695.13	19234.52
695.26	19194.73
695.39	18986.43
695.53	18817.91
695.66	19157.28
695.80	19021.53
695.93	18817.91
696.07	18476.19
696.20	18480.87
696.33	18515.98
696.47	18307.67
696.60	18106.38
696.73	18471.51
696.87	18434.06
697.00	18422.36
697.14	18274.90
697.27	17961.27
697.40	17984.68
697.54	17844.24
697.67	17795.09
697.80	18157.88
697.94	17479.12
698.07	17490.82
698.21	17493.16
698.34	17469.76
698.47	17319.96
698.61	16987.61
698.74	16713.77
698.87	17025.06
699.01	16783.98
699.14	16753.55
699.27	16800.37
699.40	16809.73
699.54	16645.89
699.67	16503.12
699.80	16683.34
699.94	16709.08
700.07	16290.13
700.20	16322.90
700.34	16252.68
700.47	16215.23
700.60	16350.98
700.73	16287.79
700.87	15939.05
701.00	16215.23
701.13	15978.84
701.26	16116.93
701.40	16035.01
701.53	15609.03
701.66	15433.49
701.79	15829.04
701.93	15339.87
702.06	15124.54
702.19	15267.31
702.32	15136.24
702.46	15300.08
702.59	15009.86
702.72	15229.87
702.85	15140.93
702.99	15286.04
703.12	15351.57
703.25	15033.26
703.38	14705.59
703.51	14773.46
703.65	14724.31
703.78	14417.70
703.91	14562.81
704.04	14293.65
704.17	14651.75
704.31	14380.25
704.44	14190.67
704.57	14207.05
704.70	14101.73
704.83	14050.24
704.96	14052.58
705.10	14239.82
705.23	14054.92
>>>>>End Processed Spectral Data<<<<<
