SpectraSuite Data File
++++++++++++++++++++++++++++++++++++
Date: Fri Oct 25 11:33:51 EDT 2013
User: price-jones
Dark Spectrum Present: No
Reference Spectrum Present: No
Number of Sampled Component Spectra: 1
Spectrometers: USB2+H05261
Integration Time (usec): 100000 (USB2+H05261)
Spectra Averaged: 1 (USB2+H05261)
Boxcar Smoothing: 0 (USB2+H05261)
Correct for Electrical Dark: No (USB2+H05261)
Strobe/Lamp Enabled: No (USB2+H05261)
Correct for Detector Non-linearity: No (USB2+H05261)
Correct for Stray Light: No (USB2+H05261)
Number of Pixels in Processed Spectrum: 2048
>>>>>Begin Processed Spectral Data<<<<<
365.73	229.37
365.92	229.37
366.12	229.37
366.32	229.37
366.52	138.09
366.72	208.31
366.91	189.58
367.11	140.43
367.31	128.73
367.51	203.63
367.70	161.50
367.90	234.05
368.10	180.22
368.30	262.14
368.49	168.52
368.69	210.65
368.89	161.50
369.09	231.71
369.28	234.05
369.48	238.73
369.68	194.26
369.87	234.05
370.07	243.42
370.27	278.52
370.47	348.74
370.66	470.45
370.86	461.09
371.06	531.30
371.25	620.24
371.45	484.49
371.65	568.75
371.84	585.13
372.04	533.64
372.24	552.37
372.44	575.77
372.63	608.54
372.83	636.63
373.03	559.39
373.22	627.26
373.42	608.54
373.62	592.16
373.81	650.67
374.01	683.44
374.21	622.58
374.40	648.33
374.60	702.16
374.79	631.94
374.99	660.03
375.19	709.18
375.38	624.92
375.58	622.58
375.78	692.80
375.97	746.63
376.17	730.25
376.37	730.25
376.56	617.90
376.76	744.29
376.95	617.90
377.15	671.73
377.35	739.61
377.54	709.18
377.74	690.46
377.93	648.33
378.13	753.65
378.33	732.59
378.52	716.20
378.72	704.50
378.91	746.63
379.11	685.78
379.31	671.73
379.50	711.52
379.70	777.06
379.89	730.25
380.09	737.27
380.28	767.70
380.48	697.48
380.68	727.91
380.87	678.76
381.07	730.25
381.26	772.38
381.46	760.67
381.65	725.57
381.85	671.73
382.04	718.54
382.24	777.06
382.43	807.48
382.63	800.46
382.83	781.74
383.02	814.51
383.22	828.55
383.41	716.20
383.61	802.80
383.80	791.10
384.00	793.44
384.19	875.36
384.39	882.38
384.58	814.51
384.78	821.53
384.97	905.79
385.17	798.12
385.36	812.17
385.56	805.14
385.75	842.59
385.95	898.77
386.14	798.12
386.34	868.34
386.53	889.40
386.72	854.30
386.92	896.43
387.11	793.44
387.31	823.87
387.50	826.21
387.70	844.93
387.89	884.72
388.09	887.06
388.28	873.02
388.48	898.77
388.67	976.00
388.86	905.79
389.06	947.92
389.25	926.85
389.45	922.17
389.64	950.26
389.84	1036.86
390.03	973.66
390.22	1022.81
390.42	994.73
390.61	915.15
390.81	936.21
391.00	997.07
391.19	1067.28
391.39	1008.77
391.58	1062.60
391.78	943.24
391.97	1018.13
392.16	1013.45
392.36	1078.99
392.55	1158.57
392.75	1041.54
392.94	1041.54
393.13	1076.65
393.33	1025.15
393.52	1041.54
393.71	1020.47
393.91	1125.80
394.10	1046.22
394.29	1064.94
394.49	1128.14
394.68	1095.37
394.88	1118.78
395.07	1128.14
395.26	1184.31
395.46	1067.28
395.65	1177.29
395.84	1160.91
396.04	1231.12
396.23	1158.57
396.42	1214.74
396.62	1284.95
396.81	1196.01
397.00	1219.42
397.19	1245.16
397.39	1249.85
397.58	1146.86
397.77	1177.29
397.97	1254.53
398.16	1254.53
398.35	1303.68
398.55	1252.19
398.74	1280.27
398.93	1362.19
399.12	1308.36
399.32	1341.13
399.51	1284.95
399.70	1299.00
399.90	1261.55
400.09	1399.64
400.28	1380.92
400.47	1364.53
400.67	1472.20
400.86	1462.83
401.05	1437.09
401.24	1404.32
401.44	1462.83
401.63	1399.64
401.82	1423.05
402.01	1483.90
402.21	1455.81
402.40	1462.83
402.59	1544.75
402.78	1448.79
402.97	1607.95
403.17	1497.94
403.36	1516.67
403.55	1600.93
403.74	1591.56
403.93	1504.96
404.13	1607.95
404.32	1584.54
404.51	1659.44
404.70	1720.29
404.89	1645.40
405.09	1624.33
405.28	1614.97
405.47	1647.74
405.66	1692.21
405.85	1640.72
406.05	1603.27
406.24	1806.89
406.43	1743.70
406.62	1764.76
406.81	1771.79
407.00	1750.72
407.20	1666.46
407.39	1792.85
407.58	1834.98
407.77	1877.11
407.96	1839.66
408.15	1842.00
408.34	1771.79
408.54	1944.99
408.73	1963.71
408.92	1963.71
409.11	1952.01
409.30	2026.90
409.49	2054.99
409.68	1994.14
409.87	2017.54
410.07	2085.42
410.26	2108.82
410.45	2043.29
410.64	2087.76
410.83	2099.46
411.02	2085.42
411.21	2052.65
411.40	2209.47
411.59	2289.04
411.78	2331.17
411.98	2153.29
412.17	2251.60
412.36	2314.79
412.55	2354.58
412.74	2455.22
412.93	2389.69
413.12	2298.41
413.31	2319.47
413.50	2420.11
413.69	2420.11
413.88	2513.74
414.07	2476.29
414.26	2530.12
414.45	2424.80
414.64	2569.91
414.83	2644.81
415.02	2523.10
415.22	2567.57
415.41	2663.53
415.60	2658.85
415.79	2670.55
415.98	2773.53
416.17	2679.91
416.36	2656.51
416.55	2782.90
416.74	2853.11
416.93	2686.94
417.12	2782.90
417.31	2902.26
417.50	2970.14
417.69	2918.65
417.88	2918.65
418.07	2991.20
418.26	2855.45
418.45	2972.48
418.64	3000.57
418.83	3061.42
419.02	3026.31
419.21	3094.19
419.39	3122.27
419.58	3012.27
419.77	2998.23
419.96	3082.49
420.15	3241.64
420.34	3112.91
420.53	3122.27
420.72	3192.49
420.91	3136.32
421.10	3204.19
421.29	3258.03
421.48	3185.47
421.67	3337.60
421.86	3321.22
422.05	3316.54
422.24	3295.47
422.43	3384.41
422.61	3412.50
422.80	3368.03
422.99	3321.22
423.18	3379.73
423.37	3389.10
423.56	3349.31
423.75	3300.16
423.94	3368.03
424.13	3218.24
424.32	3187.81
424.50	3393.78
424.69	3499.10
424.88	3604.42
425.07	3445.27
425.26	3377.39
425.45	3379.73
425.64	3438.25
425.83	3435.91
426.01	3389.10
426.20	3534.21
426.39	3508.46
426.58	3412.50
426.77	3494.42
426.96	3515.48
427.15	3496.76
427.33	3604.42
427.52	3545.91
427.71	3559.95
427.90	3623.15
428.09	3625.49
428.28	3686.34
428.46	3698.05
428.65	3637.19
428.84	3686.34
429.03	3831.46
429.22	3674.64
429.40	3796.35
429.59	3754.22
429.78	3599.74
429.97	3712.09
430.16	3719.11
430.34	3878.27
430.53	3936.78
430.72	3815.07
430.91	3803.37
431.10	3836.14
431.28	3929.76
431.47	3950.82
431.66	4053.81
431.85	3939.12
432.03	4119.34
432.22	4210.62
432.41	3967.21
432.60	4170.83
432.79	4032.74
432.97	4177.86
433.16	4074.87
433.35	4105.30
433.54	4168.49
433.72	4102.96
433.91	4112.32
434.10	4173.18
434.28	4070.19
434.47	4212.96
434.66	4194.24
434.85	4348.72
435.03	4236.37
435.22	4091.26
435.41	4353.40
435.59	4311.27
435.78	4297.22
435.97	4325.31
436.16	4440.00
436.34	4437.66
436.53	4507.87
436.72	4411.91
436.90	4456.38
437.09	4479.79
437.28	4353.40
437.46	4454.04
437.65	4521.92
437.84	4638.94
438.02	4512.55
438.21	4512.55
438.40	4592.13
438.58	4863.63
438.77	4730.22
438.96	4793.42
439.14	4685.75
439.33	4807.46
439.52	4891.72
439.70	4851.93
439.89	4912.78
440.08	4980.66
440.26	4994.70
440.45	5046.20
440.63	5048.54
440.82	5158.54
441.01	5081.30
441.19	5181.95
441.38	5369.19
441.57	5320.04
441.75	5408.98
441.94	5256.84
442.12	5327.06
442.31	5371.53
442.50	5350.46
442.68	5341.10
442.87	5334.08
443.05	5495.58
443.24	5425.36
443.43	5479.19
443.61	5561.11
443.80	5696.86
443.98	5497.92
444.17	5427.70
444.35	5481.53
444.54	5741.33
444.73	5633.67
444.91	5605.58
445.10	5577.50
445.28	5621.97
445.47	5528.35
445.65	5753.04
445.84	5631.33
446.02	5682.82
446.21	5605.58
446.39	5717.93
446.58	5764.74
446.77	5710.91
446.95	5411.32
447.14	5633.67
447.32	5785.80
447.51	5764.74
447.69	5694.52
447.88	5781.12
448.06	5682.82
448.25	5783.46
448.43	5839.64
448.62	5792.83
448.80	5633.67
448.99	5902.83
449.17	5921.56
449.36	5818.57
449.54	5900.49
449.73	5975.39
449.91	6087.73
450.10	6031.56
450.28	5961.34
450.46	6218.80
450.65	6150.93
450.83	6085.39
451.02	5926.24
451.20	6319.45
451.39	6171.99
451.57	6146.25
451.76	6214.12
451.94	6214.12
452.13	6319.45
452.31	6389.66
452.49	6153.27
452.68	6186.04
452.86	6317.11
453.05	6373.28
453.23	6375.62
453.42	6274.98
453.60	6319.45
453.78	6438.81
453.97	6424.77
454.15	6469.24
454.34	6373.28
454.52	6487.96
454.70	6637.76
454.89	6345.19
455.07	6590.95
455.26	6670.53
455.44	6621.38
455.62	6621.38
455.81	6637.76
455.99	6719.68
456.17	6698.61
456.36	6693.93
456.54	6794.58
456.73	6848.41
456.91	6963.09
457.09	6869.47
457.28	7105.87
457.46	6909.26
457.64	7180.76
457.83	7124.59
458.01	6913.94
458.19	7328.22
458.38	7096.50
458.56	7117.57
458.74	7080.12
458.93	7162.04
459.11	7267.36
459.29	7194.81
459.48	7185.44
459.66	7218.21
459.84	7365.67
460.03	7522.48
460.21	7353.96
460.39	7222.89
460.57	7358.64
460.76	7538.87
460.94	7585.68
461.12	7431.20
461.31	7470.99
461.49	7599.72
461.67	7452.27
461.85	7400.77
462.04	7527.16
462.22	8002.29
462.40	7726.11
462.59	7730.79
462.77	7730.79
462.95	7637.17
463.13	8006.97
463.32	7864.20
463.50	7761.22
463.68	7901.65
463.86	7990.59
464.05	7665.25
464.23	7730.79
464.41	7747.17
464.59	7789.30
464.78	7927.39
464.96	7992.93
465.14	7899.31
465.32	8072.51
465.50	7999.95
465.69	8201.24
465.87	8124.00
466.05	8163.79
466.23	8196.56
466.41	8042.08
466.60	8336.99
466.78	8074.85
466.96	8018.68
467.14	8236.35
467.32	8198.90
467.51	8456.36
467.69	8201.24
467.87	8346.35
468.05	8395.50
468.23	8250.39
468.41	8138.04
468.60	8437.63
468.78	8461.04
468.96	8290.18
469.14	8491.46
469.32	8498.49
469.50	8325.29
469.69	8659.98
469.87	8711.47
470.05	8805.10
470.23	8954.89
470.41	8737.22
470.59	8734.88
470.77	8746.58
470.95	8882.33
471.14	8926.80
471.32	8650.62
471.50	9060.21
471.68	9004.04
471.86	9100.00
472.04	9095.32
472.22	9167.88
472.40	9172.56
472.58	9137.45
472.77	9116.39
472.95	9430.02
473.13	9481.51
473.31	9392.57
473.49	9619.60
473.67	9345.76
473.85	9413.63
474.03	9631.30
474.21	9612.58
474.39	9738.97
474.57	9991.75
474.75	9858.34
474.93	9921.53
475.12	9813.87
475.30	10200.05
475.48	10033.88
475.66	10186.01
475.84	10115.80
476.02	10132.18
476.20	10225.80
476.38	10218.78
476.56	10436.45
476.74	10504.32
476.92	10441.13
477.10	10448.15
477.28	10445.81
477.46	10801.57
477.64	10942.00
477.82	10855.40
478.00	10979.45
478.18	11066.05
478.36	11396.07
478.54	11524.80
478.72	11218.19
478.90	11417.13
479.08	11246.27
479.26	11510.75
479.44	11520.12
479.62	11576.29
479.80	11815.02
479.98	11859.49
480.16	12180.15
480.34	12154.40
480.52	12355.69
480.70	12376.75
480.88	12107.59
481.06	12217.60
481.24	12259.73
481.41	12659.96
481.59	12685.70
481.77	12784.01
481.95	12776.98
482.13	13067.21
482.31	13114.02
482.49	13444.04
482.67	13240.41
482.85	13568.09
483.03	13425.31
483.21	13540.00
483.39	13937.89
483.57	13769.37
483.74	13666.39
483.92	13900.44
484.10	13830.23
484.28	14221.10
484.46	14211.73
484.64	14501.96
484.82	14221.10
485.00	14621.33
485.18	14778.14
485.35	15199.44
485.53	15044.96
485.71	15192.42
485.89	15084.75
486.07	15456.90
486.25	15442.85
486.43	15227.53
486.61	15510.73
486.78	15576.27
486.96	15761.17
487.14	16072.46
487.32	16049.05
487.50	16245.66
487.68	16276.09
487.85	16460.99
488.03	16847.18
488.21	16870.58
488.39	16807.39
488.57	17078.89
488.75	17022.72
488.92	17245.07
489.10	17525.93
489.28	17724.88
489.46	17767.01
489.64	17645.30
489.81	18429.38
489.99	18003.40
490.17	18459.81
490.35	18389.59
490.53	18485.55
490.70	18609.60
490.88	18434.06
491.06	18740.67
491.24	18696.20
491.41	19126.86
491.59	19133.88
491.77	18925.57
491.95	19187.71
492.13	19557.52
492.30	19690.93
492.48	19730.72
492.66	19719.01
492.84	19807.95
493.01	19995.20
493.19	19854.76
493.37	20432.88
493.54	20219.89
493.72	20561.61
493.90	20362.66
494.08	20627.14
494.25	20950.14
494.43	20840.13
494.61	21018.01
494.79	21048.44
494.96	21310.58
495.14	21715.49
495.32	21846.56
495.49	21656.98
495.67	21816.13
495.85	21951.88
496.02	21986.99
496.20	21898.05
496.38	22513.61
496.55	22368.50
496.73	22693.83
496.91	22157.85
497.09	22520.63
497.26	22649.36
497.44	22675.11
497.62	23138.54
497.79	23372.59
497.97	23201.73
498.14	23398.34
498.32	23740.05
498.50	23513.02
498.67	23618.35
498.85	23889.85
499.03	23836.02
499.20	24079.43
499.38	24044.32
499.56	24142.63
499.73	24063.05
499.91	24577.97
500.08	24252.63
500.26	24432.85
500.44	24547.54
500.61	24870.53
500.79	24542.86
500.97	25025.01
501.14	25282.47
501.32	24950.11
501.49	25261.40
501.67	25668.66
501.84	25514.18
502.02	25640.57
502.20	25209.91
502.37	25518.86
502.55	25579.71
502.72	25535.24
502.90	25661.63
503.07	25834.83
503.25	26024.42
503.43	25972.92
503.60	26064.21
503.78	26125.06
503.95	26396.56
504.13	26419.97
504.30	26855.31
504.48	26380.18
504.65	26941.91
504.83	26885.73
505.01	27108.08
505.18	27143.19
505.36	27300.01
505.53	26972.33
505.71	27346.82
505.88	27061.27
506.06	27049.57
506.23	27725.99
506.41	27440.44
506.58	27835.99
506.76	27372.57
506.93	27953.02
507.11	27892.16
507.28	28137.92
507.46	27803.22
507.63	27999.83
507.81	28341.55
507.98	28142.60
508.16	28187.07
508.33	28301.76
508.50	28697.31
508.68	28718.37
508.85	28989.88
509.03	29013.28
509.20	28943.06
509.38	29228.61
509.55	29116.26
509.73	29069.45
509.90	28966.47
510.08	29200.52
510.25	29057.75
510.42	29837.15
510.60	29532.88
510.77	29862.90
510.95	30099.29
511.12	29619.48
511.30	29827.79
511.47	29993.97
511.64	29741.19
511.82	30429.30
511.99	29778.64
512.17	30057.16
512.34	30314.62
512.51	30789.75
512.69	30897.41
512.86	30862.30
513.04	30927.84
513.21	30876.35
513.38	31070.61
513.56	30923.16
513.73	30817.83
513.90	31000.40
514.08	31040.18
514.25	31157.21
514.43	31651.06
514.60	31290.62
514.77	31431.05
514.95	31693.19
515.12	31573.83
515.29	31662.77
515.47	32053.64
515.64	31772.77
515.81	32184.71
515.99	31929.59
516.16	32575.58
516.33	32053.64
516.51	32594.30
516.68	31974.06
516.85	32236.20
517.03	32570.90
517.20	32980.49
517.37	32503.02
517.54	32622.39
517.72	32697.28
517.89	32758.14
518.06	32851.76
518.24	32938.36
518.41	32842.40
518.58	33263.69
518.75	32968.79
518.93	33448.60
519.10	32917.29
519.27	33125.60
519.45	33720.10
519.62	33797.34
519.79	33783.29
519.96	33741.16
520.14	33855.85
520.31	33596.05
520.48	33776.27
520.65	33792.65
520.83	34501.84
521.00	34293.53
521.17	34213.95
521.34	34178.84
521.52	34415.24
521.69	34218.63
521.86	34380.13
522.03	34459.71
522.20	34642.27
522.38	34850.58
522.55	35044.84
522.72	34499.50
522.89	34740.57
523.07	35133.78
523.24	34883.34
523.41	35482.52
523.58	35007.39
523.75	35438.05
523.92	34979.31
524.10	35789.13
524.27	35566.78
524.44	35475.50
524.61	35585.50
524.78	35709.55
524.96	35777.43
525.13	35976.37
525.30	36105.10
525.47	36051.27
525.64	36020.84
525.81	35878.07
525.98	36004.46
526.16	36423.42
526.33	36037.23
526.50	36662.15
526.67	36072.34
526.84	36559.17
527.01	35992.76
527.18	36362.56
527.36	36795.56
527.53	36748.75
527.70	36982.80
527.87	36631.72
528.04	36472.57
528.21	36737.05
528.38	36664.49
528.55	36950.04
528.72	36999.19
528.89	37141.96
529.07	37221.54
529.24	36744.07
529.41	37359.63
529.58	37633.47
529.75	37408.78
529.92	37038.98
530.09	37347.93
530.26	37392.40
530.43	37621.77
530.60	37158.34
530.77	37488.36
530.94	38040.73
531.11	37666.24
531.28	37647.52
531.46	37696.67
531.63	38029.02
531.80	37982.21
531.97	37970.51
532.14	38312.23
532.31	38071.15
532.48	38281.80
532.65	38199.88
532.82	38216.27
532.99	38300.53
533.16	38284.14
533.33	38689.06
533.50	38719.48
533.67	38796.72
533.84	38391.81
534.01	38988.64
534.18	38485.43
534.35	39225.04
534.52	39002.69
534.69	38834.17
534.86	39077.58
535.03	38895.02
535.20	39042.48
535.37	39510.58
535.54	39264.83
535.71	39213.34
535.88	39524.63
536.05	39257.81
536.22	39632.29
536.38	39505.90
536.55	39583.14
536.72	39510.58
536.89	39688.46
537.06	39494.20
537.23	40093.38
537.40	39089.29
537.57	39281.21
537.74	39716.55
537.91	40074.65
538.08	39732.93
538.25	39658.04
538.42	39910.82
538.59	40486.59
538.75	39676.76
538.92	39606.55
539.09	40343.81
539.26	40369.56
539.43	40495.95
539.60	40388.28
539.77	39864.00
539.94	40360.20
540.11	40409.35
540.28	40266.58
540.44	40884.48
540.61	40442.12
540.78	40818.94
540.95	41050.66
541.12	40488.93
541.29	40594.25
541.46	40507.65
541.62	40832.99
541.79	40713.62
541.96	40547.44
542.13	40797.88
542.30	40935.97
542.47	41256.62
542.63	41280.03
542.80	40952.35
542.97	41600.68
543.14	41432.16
543.31	41588.98
543.48	41593.66
543.64	41949.42
543.81	41989.21
543.98	41567.91
544.15	41975.17
544.32	41776.22
544.48	41909.63
544.65	42005.59
544.82	42260.71
544.99	41904.95
545.16	42312.20
545.32	41663.88
545.49	42403.49
545.66	42560.30
545.83	42679.67
546.00	42572.00
546.16	42223.26
546.33	42223.26
546.50	41904.95
546.67	42787.33
546.83	41832.39
547.00	42281.78
547.17	42340.29
547.34	42258.37
547.50	42899.68
547.67	43056.50
547.84	42274.76
548.00	42658.60
548.17	43328.00
548.34	43023.73
548.51	43203.95
548.67	43257.78
548.84	43037.77
549.01	43044.79
549.18	42993.30
549.34	43271.82
549.51	43409.92
549.68	43285.87
549.84	43000.32
550.01	43501.20
550.18	43271.82
550.34	43482.47
550.51	43690.78
550.68	43222.67
550.84	43239.06
551.01	43264.80
551.18	43243.74
551.34	43536.30
551.51	43807.81
551.68	43728.23
551.84	43098.62
552.01	43571.41
552.18	43538.65
552.34	43206.29
552.51	43452.05
552.68	43278.85
552.84	43976.33
553.01	44076.97
553.18	44652.74
553.34	44271.23
553.51	44217.40
553.67	44540.39
553.84	44186.97
554.01	44264.21
554.17	44474.86
554.34	44402.30
554.51	44411.67
554.67	44442.09
554.84	44418.69
555.00	44369.54
555.17	44425.71
555.33	44224.42
555.50	44299.32
555.67	44385.92
555.83	44776.79
556.00	44722.96
556.16	45207.45
556.33	44971.05
556.50	44414.01
556.66	44839.98
556.83	45010.84
556.99	45333.84
557.16	44767.43
557.32	45052.97
557.49	45165.32
557.65	44252.51
557.82	45148.93
557.98	44971.05
558.15	44612.95
558.32	44900.84
558.48	44832.96
558.65	45123.19
558.81	45312.77
558.98	44982.76
559.14	44601.25
559.31	44872.75
559.47	45001.48
559.64	45256.60
559.80	45123.19
559.97	45689.60
560.13	45298.73
560.30	45228.51
560.46	45448.52
560.63	45518.74
560.79	45500.01
560.96	45769.18
561.12	45670.87
561.29	45490.65
561.45	45724.71
561.61	45521.08
561.78	45130.21
561.94	45766.84
562.11	45696.62
562.27	45228.51
562.44	45628.74
562.60	45485.97
562.77	45509.38
562.93	45212.13
563.10	46124.94
563.26	45729.39
563.42	46014.93
563.59	45680.24
563.75	45830.03
563.92	45324.47
564.08	45364.26
564.24	45631.08
564.41	45736.41
564.57	46110.89
564.74	45979.82
564.90	45808.96
565.07	46047.70
565.23	45827.69
565.39	45558.53
565.56	45993.87
565.72	45799.60
565.88	46007.91
566.05	46036.00
566.21	46124.94
566.38	45755.13
566.54	45991.53
566.70	45748.11
566.87	46124.94
567.03	45586.61
567.19	45797.26
567.36	45989.19
567.52	46047.70
567.68	45972.80
567.85	46220.90
568.01	46375.37
568.17	45979.82
568.34	46300.48
568.50	46230.26
568.66	46251.33
568.83	46445.59
568.99	46024.29
569.15	46562.62
569.32	46087.49
569.48	46131.96
569.64	46181.11
569.81	46560.28
569.97	46541.55
570.13	46529.85
570.30	46677.30
570.46	46391.76
570.62	46480.70
570.78	46426.87
570.95	46286.43
571.11	46515.81
571.27	46036.00
571.43	46129.62
571.60	46293.46
571.76	46272.39
571.92	46541.55
572.09	46541.55
572.25	46316.86
572.41	46017.27
572.57	46473.68
572.74	46883.27
572.90	46513.47
573.06	46525.17
573.22	46700.71
573.38	47096.26
573.55	46665.60
573.71	47093.92
573.87	46583.68
574.03	46714.75
574.20	47124.35
574.36	46241.96
574.52	46586.02
574.68	46733.48
574.84	46887.95
575.01	46557.94
575.17	47175.84
575.33	46834.12
575.49	46630.49
575.65	46810.71
575.82	46571.98
575.98	46869.23
576.14	47159.45
576.30	46955.83
576.46	46897.31
576.62	46520.49
576.79	46595.38
576.95	46618.79
577.11	46827.10
577.27	47007.32
577.43	46401.12
577.59	46810.71
577.75	46766.24
577.92	46628.15
578.08	46831.78
578.24	46625.81
578.40	47089.24
578.56	46813.05
578.72	47112.64
578.88	46897.31
579.04	46707.73
579.21	46646.88
579.37	46857.52
579.53	46939.44
579.69	46630.49
579.85	46815.40
580.01	47063.49
580.17	46653.90
580.33	47512.88
580.49	47110.30
580.65	46869.23
580.82	46806.03
580.98	46836.46
581.14	46738.16
581.30	47019.02
581.46	46981.57
581.62	47285.84
581.78	46829.44
581.94	47063.49
582.10	47274.14
582.26	46871.57
582.42	47051.79
582.58	47096.26
582.74	46946.47
582.90	47208.61
583.06	47082.22
583.22	46644.54
583.38	47096.26
583.54	47217.97
583.70	47367.76
583.86	47143.07
584.02	47213.29
584.18	46897.31
584.34	47175.84
584.50	47440.32
584.66	47634.58
584.82	47316.27
584.98	47466.06
585.14	46916.04
585.30	47255.42
585.46	47454.36
585.62	46693.69
585.78	47393.51
585.94	47079.88
586.10	47281.16
586.26	47063.49
586.42	46698.37
586.58	47393.51
586.74	47217.97
586.90	46876.25
587.06	46834.12
587.22	47423.93
587.38	47269.46
587.54	47257.76
587.70	47711.82
587.86	47351.38
588.02	47140.73
588.18	47334.99
588.34	47065.83
588.49	47416.91
588.65	46698.37
588.81	47454.36
588.97	47564.37
589.13	47447.34
589.29	47573.73
589.45	47599.47
589.61	47615.86
589.77	47295.21
589.93	47103.28
590.08	47758.63
590.24	47578.41
590.40	47709.48
590.56	48058.22
590.72	47601.82
590.88	47590.11
591.04	47423.93
591.20	47456.70
591.35	47597.13
591.51	47641.60
591.67	47627.56
591.83	48102.69
591.99	47772.67
592.15	47578.41
592.31	47461.38
592.46	47688.42
592.62	47349.04
592.78	47894.38
592.94	47875.66
593.10	48062.90
593.26	47868.64
593.41	48060.56
593.57	47817.14
593.73	47861.61
593.89	48203.33
594.05	47728.20
594.20	48240.78
594.36	48287.59
594.52	48053.54
594.68	47419.25
594.84	47416.91
594.99	48016.09
595.15	47983.32
595.31	47763.31
595.47	48076.94
595.62	47622.88
595.78	47311.59
595.94	47810.12
596.10	47707.14
596.25	47693.10
596.41	48158.86
596.57	47903.74
596.73	47725.86
596.88	48093.33
597.04	47838.21
597.20	48044.18
597.36	47878.00
597.51	48315.68
597.67	47629.90
597.83	47894.38
597.99	48233.76
598.14	47601.82
598.30	47924.81
598.46	47711.82
598.61	48130.78
598.77	47941.19
598.93	48067.58
599.09	48275.89
599.24	48456.11
599.40	47746.93
599.56	48308.66
599.71	48683.14
599.87	48580.16
600.03	47887.36
600.18	48009.07
600.34	48074.60
600.50	48034.81
600.65	48048.86
600.81	47966.94
600.97	48280.57
601.12	48189.29
601.28	47732.89
601.44	48004.39
601.59	48109.71
601.75	47777.36
601.91	48301.64
602.06	48137.80
602.22	48217.38
602.37	48090.99
602.53	48184.61
602.69	48217.38
602.84	47648.63
603.00	47929.49
603.16	48259.51
603.31	48158.86
603.47	48168.22
603.62	47749.27
603.78	48163.54
603.94	47812.46
604.09	48526.33
604.25	48425.68
604.40	47920.13
604.56	48025.45
604.71	47819.49
604.87	47770.33
605.03	47721.18
605.18	48149.50
605.34	48362.49
605.49	47700.12
605.65	47859.27
605.80	47838.21
605.96	47980.98
606.12	48095.67
606.27	47931.83
606.43	47519.90
606.58	48423.34
606.74	48107.37
606.89	48128.44
607.05	48573.14
607.20	47950.56
607.36	47730.54
607.51	47819.49
607.67	47945.87
607.82	47828.85
607.98	47901.40
608.13	48041.84
608.29	47543.30
608.44	47756.29
608.60	47763.31
608.75	47786.72
608.91	48032.47
609.06	47426.28
609.22	47728.20
609.37	47805.44
609.53	47880.34
609.68	47753.95
609.84	47702.46
609.99	48140.14
610.15	47800.76
610.30	48114.39
610.46	47779.70
610.61	47627.56
610.76	47772.67
610.92	47608.84
611.07	47360.74
611.23	47477.77
611.38	47746.93
611.54	47728.20
611.69	47833.53
611.84	47950.56
612.00	47557.35
612.15	47428.62
612.31	47674.37
612.46	46906.68
612.62	47442.66
612.77	47536.28
612.92	47437.98
613.08	47342.02
613.23	47526.92
613.39	47655.65
613.54	47199.24
613.69	47566.71
613.85	47239.03
614.00	47512.88
614.15	47564.37
614.31	47309.25
614.46	47299.89
614.62	47363.08
614.77	47491.81
614.92	47456.70
615.08	47454.36
615.23	47437.98
615.38	47257.76
615.54	47650.97
615.69	47400.53
615.84	47014.34
616.00	47798.42
616.15	47232.01
616.30	47416.91
616.46	47557.35
616.61	47035.41
616.76	47526.92
616.92	47068.17
617.07	46923.06
617.22	47365.42
617.37	46522.83
617.53	47288.18
617.68	46670.28
617.83	46958.17
617.99	47182.86
618.14	47517.56
618.29	46550.91
618.45	46990.94
618.60	47007.32
618.75	46473.68
618.90	46864.55
619.06	46602.41
619.21	46761.56
619.36	46609.43
619.51	46459.63
619.67	46574.32
619.82	46951.15
619.97	47224.99
620.12	46923.06
620.28	46719.43
620.43	46923.06
620.58	46892.63
620.73	47356.06
620.89	46979.23
621.04	46953.49
621.19	47014.34
621.34	46349.63
621.49	46454.95
621.65	46557.94
621.80	46555.60
621.95	46354.31
622.10	46717.09
622.25	46394.10
622.41	46403.46
622.56	46553.26
622.71	46635.17
622.86	46293.46
623.01	46581.34
623.16	46686.67
623.32	46349.63
623.47	46202.18
623.62	46340.27
623.77	46223.24
623.92	46288.77
624.07	46667.94
624.23	46366.01
624.38	46258.35
624.53	46033.66
624.68	46021.95
624.83	45965.78
624.98	46141.32
625.13	45729.39
625.29	45556.19
625.44	45729.39
625.59	46078.13
625.74	45886.20
625.89	45848.75
626.04	45984.51
626.19	45780.88
626.34	45514.06
626.49	45682.58
626.65	45284.68
626.80	45813.65
626.95	45443.84
627.10	45537.46
627.25	45823.01
627.40	45497.67
627.55	45876.84
627.70	45488.31
627.85	45563.21
628.00	46110.89
628.15	46162.39
628.30	45193.40
628.45	45265.96
628.60	45125.53
628.76	44919.56
628.91	45762.15
629.06	44919.56
629.21	45408.73
629.36	45263.62
629.51	45434.48
629.66	45982.16
629.81	45296.39
629.96	44767.43
630.11	45457.88
630.26	45359.58
630.41	45193.40
630.56	44839.98
630.71	44891.48
630.86	45340.86
631.01	45682.58
631.16	45181.70
631.31	45214.47
631.46	45006.16
631.61	45614.70
631.76	44893.82
631.91	45301.07
632.06	45521.08
632.21	44982.76
632.36	45467.25
632.51	44502.95
632.66	44938.29
632.81	44662.10
632.96	44697.21
633.10	45148.93
633.25	44886.79
633.40	44914.88
633.55	45326.81
633.70	44739.34
633.85	44713.59
634.00	44708.91
634.15	44542.74
634.30	44542.74
634.45	44727.64
634.60	44561.46
634.75	44980.42
634.90	44456.14
635.05	44624.65
635.19	44711.25
635.34	44634.02
635.49	44271.23
635.64	44957.01
635.79	44098.03
635.94	44645.72
636.09	44425.71
636.24	44369.54
636.39	44039.52
636.53	44442.09
636.68	44041.86
636.83	43735.25
636.98	43793.76
637.13	43529.28
637.28	44067.61
637.43	43849.94
637.57	44114.42
637.72	43878.02
637.87	44254.85
638.02	43908.45
638.17	43997.39
638.32	43693.12
638.46	43562.05
638.61	43503.54
638.76	43842.92
638.91	43494.18
639.06	43531.62
639.20	43770.36
639.35	43772.70
639.50	42967.55
639.65	43782.06
639.80	43728.23
639.94	44037.18
640.09	44018.46
640.24	43533.96
640.39	43585.46
640.54	42792.01
640.68	43377.15
640.83	43697.80
640.98	43014.37
641.13	43349.06
641.27	43445.02
641.42	43468.43
641.57	43246.08
641.72	43339.70
641.86	43346.72
642.01	43526.94
642.16	43119.69
642.31	42944.15
642.45	43473.11
642.60	42897.34
642.75	43351.40
642.90	43335.02
643.04	43295.23
643.19	43161.82
643.34	42689.03
643.48	42564.98
643.63	42763.93
643.78	43250.76
643.93	43239.06
644.07	43124.37
644.22	43091.60
644.37	42487.74
644.51	42820.10
644.66	43023.73
644.81	42792.01
644.95	43044.79
645.10	42733.50
645.25	42452.64
645.39	42017.30
645.54	42375.40
645.69	41926.02
645.83	42398.80
645.98	42546.26
646.13	42548.60
646.27	42539.24
646.42	42178.79
646.57	42068.79
646.71	42822.44
646.86	42616.47
647.00	42789.67
647.15	42871.59
647.30	42569.66
647.44	42394.12
647.59	42206.88
647.74	42017.30
647.88	42347.31
648.03	42525.19
648.17	42927.77
648.32	42602.43
648.47	42684.35
648.61	42307.52
648.76	42160.07
648.90	42131.98
649.05	42323.91
649.20	42162.41
649.34	42197.52
649.49	42604.77
649.63	42089.85
649.78	42122.62
649.92	42169.43
650.07	42674.99
650.21	42497.11
650.36	42424.55
650.51	41944.74
650.65	42146.03
650.80	42494.77
650.94	41558.55
651.09	42040.70
651.23	41698.98
651.38	41579.62
651.52	41439.18
651.67	41626.43
651.81	41638.13
651.96	41500.04
652.10	41174.70
652.25	41493.02
652.39	41385.35
652.54	41921.34
652.68	41139.60
652.83	41420.46
652.97	41794.95
653.12	41446.21
653.26	41904.95
653.41	41565.57
653.55	41532.81
653.70	41261.30
653.84	41642.81
653.99	41390.03
654.13	41116.19
654.27	40942.99
654.42	40996.82
654.56	41413.44
654.71	41605.36
654.85	41525.78
655.00	41331.52
655.14	41361.95
655.29	41841.76
655.43	41268.33
655.57	40987.46
655.72	41390.03
655.86	40966.40
656.01	40795.54
656.15	40514.67
656.30	41095.13
656.44	40722.98
656.58	41432.16
656.73	41029.59
656.87	40521.69
657.01	40575.53
657.16	40884.48
657.30	40837.67
657.45	40898.52
657.59	40257.21
657.73	40435.10
657.88	40561.48
658.02	40921.93
658.16	41050.66
658.31	41120.87
658.45	40786.18
658.60	40355.52
658.74	40652.76
658.88	40245.51
659.03	40339.13
659.17	40268.92
659.31	39852.30
659.46	40093.38
659.60	40299.34
659.74	40287.64
659.89	39892.09
660.03	39721.23
660.17	39510.58
660.32	39962.31
660.46	39683.78
660.60	39651.02
660.74	39498.88
660.89	40086.36
661.03	39552.71
661.17	39283.55
661.32	39557.39
661.46	39641.65
661.60	39182.91
661.74	39440.37
661.89	39000.35
662.03	39557.39
662.17	38888.00
662.31	39445.05
662.46	39115.03
662.60	39229.72
662.74	38803.74
662.88	38614.16
663.03	38602.46
663.17	38855.23
663.31	38913.75
663.45	38731.18
663.60	38888.00
663.74	39182.91
663.88	38499.47
664.02	38438.62
664.17	38925.45
664.31	38614.16
664.45	38274.78
664.59	38419.89
664.73	38553.30
664.88	38782.68
665.02	38335.63
665.16	37574.96
665.30	38225.63
665.44	38209.25
665.59	37914.34
665.73	38096.90
665.87	37282.39
666.01	37638.15
666.15	37806.67
666.29	37897.95
666.44	37872.21
666.58	37841.78
666.72	37301.12
666.86	37661.56
667.00	37464.96
667.14	37181.75
667.28	37216.86
667.43	37230.90
667.57	37528.15
667.71	37125.58
667.85	37467.30
667.99	37329.20
668.13	36802.58
668.27	36861.10
668.41	36898.55
668.56	36297.03
668.70	36208.09
668.84	36198.73
668.98	36655.13
669.12	36795.56
669.26	36524.06
669.40	36238.51
669.54	36634.06
669.68	36292.35
669.82	36512.36
669.96	35789.13
670.10	35489.54
670.25	36341.50
670.39	35941.27
670.53	36044.25
670.67	36329.80
670.81	36247.88
670.95	36128.51
671.09	36210.43
671.23	35541.03
671.37	35559.76
671.51	35508.27
671.65	35398.26
671.79	35292.94
671.93	35510.61
672.07	35599.55
672.21	35302.30
672.35	34946.54
672.49	35337.41
672.63	35002.71
672.77	34913.77
672.91	34733.55
673.05	34691.42
673.19	34789.72
673.33	34373.11
673.47	34494.82
673.61	34548.65
673.75	34129.69
673.89	34256.08
674.03	34178.84
674.17	34026.71
674.31	33832.44
674.45	33949.47
674.59	33638.18
674.73	33806.70
674.87	33371.36
675.01	33813.72
675.15	33195.82
675.29	33174.75
675.43	33102.20
675.56	33537.54
675.70	32957.08
675.84	33149.01
675.98	32180.03
676.12	33013.26
676.26	32961.76
676.40	32589.62
676.54	32610.68
676.68	32790.91
676.82	31803.20
676.96	32563.87
677.10	32886.87
677.23	32435.14
677.37	32273.65
677.51	32533.45
677.65	32329.82
677.79	31842.99
677.93	31681.49
678.07	32016.19
678.21	31454.46
678.34	31391.26
678.48	31229.77
678.62	30995.71
678.76	31187.64
678.90	30871.67
679.04	31218.07
679.18	31314.03
679.31	30623.57
679.45	30436.33
679.59	30581.44
679.73	30675.06
679.87	30445.69
680.00	30551.01
680.14	30178.87
680.28	30176.53
680.42	30389.52
680.56	29757.57
680.70	29977.58
680.83	29986.94
680.97	29352.66
681.11	29443.94
681.25	29193.50
681.39	29277.76
681.52	29483.73
681.66	28833.06
681.80	28755.82
681.94	28589.64
682.07	28521.77
682.21	28542.83
682.35	28439.85
682.49	28364.95
682.62	28584.96
682.76	28313.46
682.90	28297.08
683.04	28292.40
683.17	28074.73
683.31	27936.63
683.45	27716.62
683.59	27578.53
683.72	27564.49
683.86	27707.26
684.00	27630.02
684.13	27445.12
684.27	27414.69
684.41	27384.27
684.55	27269.58
684.68	27115.11
684.82	26625.93
684.96	26590.83
685.09	26951.27
685.23	27000.42
685.37	27040.21
685.50	27386.61
685.64	27220.43
685.78	26309.96
685.91	26001.01
686.05	26071.23
686.19	25839.51
686.32	26045.48
686.46	25687.38
686.60	25420.56
686.73	25687.38
686.87	25654.61
687.01	25853.56
687.14	25326.94
687.28	25043.73
687.42	25240.34
687.55	25247.36
687.69	25010.96
687.82	24807.34
687.96	24694.99
688.10	24624.78
688.23	24919.68
688.37	24772.23
688.50	24638.82
688.64	24442.21
688.78	24236.25
688.91	24196.46
689.05	24166.03
689.18	23793.89
689.32	23592.60
689.46	23407.70
689.59	23768.14
689.73	23646.43
689.86	23857.08
690.00	23548.13
690.13	23463.87
690.27	23307.05
690.41	23239.18
690.54	22955.97
690.68	23049.60
690.81	22572.13
690.95	23012.15
691.08	22567.45
691.22	22199.98
691.35	22590.85
691.49	22803.84
691.62	22630.64
691.76	21996.35
691.89	21895.71
692.03	21685.06
692.16	21781.03
692.30	21727.19
692.43	21907.41
692.57	21518.89
692.70	21930.82
692.84	21458.03
692.97	21458.03
693.11	21476.76
693.24	21018.01
693.38	21172.49
693.51	20753.53
693.65	20547.56
693.78	20966.52
693.92	20610.76
694.05	20500.75
694.19	20629.48
694.32	20599.05
694.45	20666.93
694.59	20470.33
694.72	20271.38
694.86	20032.65
694.99	19786.89
695.13	20140.31
695.26	20112.22
695.39	19630.07
695.53	19669.86
695.66	19311.76
695.80	19730.72
695.93	19276.65
696.07	19133.88
696.20	18930.25
696.33	19124.52
696.47	18614.28
696.60	18934.93
696.73	18984.09
696.87	19080.05
697.00	18864.72
697.14	18637.69
697.27	18436.40
697.40	18398.95
697.54	18438.74
697.67	18431.72
697.80	18230.43
697.94	18326.39
698.07	18106.38
698.21	17937.87
698.34	17865.31
698.47	17319.96
698.61	17589.13
698.74	17687.43
698.87	17537.63
699.01	17336.35
699.14	17411.25
699.27	17380.82
699.40	17099.95
699.54	17219.32
699.67	17135.06
699.80	17167.83
699.94	16875.26
700.07	17048.46
700.20	16889.31
700.34	16718.45
700.47	16655.25
700.60	16870.58
700.73	16648.23
700.87	16250.34
701.00	16334.60
701.13	16273.74
701.26	16046.71
701.40	16086.50
701.53	15861.81
701.66	15868.83
701.79	15939.05
701.93	15742.44
702.06	15602.01
702.19	15623.08
702.32	15637.12
702.46	15454.56
702.59	15653.50
702.72	15583.29
702.85	15360.94
702.99	15609.03
703.12	14939.64
703.25	14874.10
703.38	14906.87
703.51	14981.77
703.65	14485.58
703.78	14569.83
703.91	14555.79
704.04	14504.30
704.17	14340.46
704.31	14408.34
704.44	14445.79
704.57	14326.42
704.70	14150.88
704.83	14045.55
704.96	13982.36
705.10	14092.37
705.23	13778.73
>>>>>End Processed Spectral Data<<<<<
