SpectraSuite Data File
++++++++++++++++++++++++++++++++++++
Date: Fri Oct 25 11:33:31 EDT 2013
User: price-jones
Dark Spectrum Present: No
Reference Spectrum Present: No
Number of Sampled Component Spectra: 1
Spectrometers: USB2+H05261
Integration Time (usec): 100000 (USB2+H05261)
Spectra Averaged: 1 (USB2+H05261)
Boxcar Smoothing: 0 (USB2+H05261)
Correct for Electrical Dark: No (USB2+H05261)
Strobe/Lamp Enabled: No (USB2+H05261)
Correct for Detector Non-linearity: No (USB2+H05261)
Correct for Stray Light: No (USB2+H05261)
Number of Pixels in Processed Spectrum: 2048
>>>>>Begin Processed Spectral Data<<<<<
365.73	290.23
365.92	290.23
366.12	290.23
366.32	191.92
366.52	208.31
366.72	229.37
366.91	182.56
367.11	128.73
367.31	63.19
367.51	241.08
367.70	154.48
367.90	210.65
368.10	110.01
368.30	229.37
368.49	173.20
368.69	173.20
368.89	142.77
369.09	229.37
369.28	205.97
369.48	315.97
369.68	177.88
369.87	241.08
370.07	299.59
370.27	266.82
370.47	292.57
370.66	470.45
370.86	482.15
371.06	535.98
371.25	477.47
371.45	589.82
371.65	545.34
371.84	568.75
372.04	538.32
372.24	601.52
372.44	496.19
372.63	615.56
372.83	554.71
373.03	540.66
373.22	521.94
373.42	589.82
373.62	622.58
373.81	561.73
374.01	669.39
374.21	688.12
374.40	599.18
374.60	645.99
374.79	578.11
374.99	629.60
375.19	603.86
375.38	641.31
375.58	601.52
375.78	688.12
375.97	622.58
376.17	713.86
376.37	643.65
376.56	641.31
376.76	683.44
376.95	692.80
377.15	669.39
377.35	653.01
377.54	671.73
377.74	578.11
377.93	634.29
378.13	699.82
378.33	648.33
378.52	730.25
378.72	755.99
378.91	767.70
379.11	678.76
379.31	760.67
379.50	645.99
379.70	760.67
379.89	702.16
380.09	671.73
380.28	690.46
380.48	730.25
380.68	669.39
380.87	798.12
381.07	816.85
381.26	805.14
381.46	777.06
381.65	770.04
381.85	751.31
382.04	819.19
382.24	727.91
382.43	774.72
382.63	772.38
382.83	734.93
383.02	805.14
383.22	755.99
383.41	739.61
383.61	802.80
383.80	866.00
384.00	725.57
384.19	823.87
384.39	816.85
384.58	854.30
384.78	774.72
384.97	828.55
385.17	823.87
385.36	772.38
385.56	802.80
385.75	826.21
385.95	844.93
386.14	854.30
386.34	837.91
386.53	863.66
386.72	861.32
386.92	868.34
387.11	903.45
387.31	873.02
387.50	940.90
387.70	828.55
387.89	873.02
388.09	889.40
388.28	940.90
388.48	912.81
388.67	931.53
388.86	924.51
389.06	903.45
389.25	894.08
389.45	929.19
389.64	940.90
389.84	992.39
390.03	1039.20
390.22	999.41
390.42	964.30
390.61	976.00
390.81	1027.50
391.00	1029.84
391.19	950.26
391.39	1057.92
391.58	1029.84
391.78	1027.50
391.97	1022.81
392.16	1083.67
392.36	1107.07
392.55	992.39
392.75	1062.60
392.94	1046.22
393.13	1104.73
393.33	1121.12
393.52	1008.77
393.71	1046.22
393.91	1041.54
394.10	1102.39
394.29	1104.73
394.49	1060.26
394.68	1153.88
394.88	1135.16
395.07	1114.10
395.26	1076.65
395.46	1130.48
395.65	1142.18
395.84	1238.14
396.04	1247.51
396.23	1240.48
396.42	1132.82
396.62	1259.21
396.81	1247.51
397.00	1200.69
397.19	1221.76
397.39	1137.50
397.58	1245.16
397.77	1179.63
397.97	1191.33
398.16	1310.70
398.35	1334.11
398.55	1277.93
398.74	1320.06
398.93	1306.02
399.12	1240.48
399.32	1270.91
399.51	1233.46
399.70	1299.00
399.90	1301.34
400.09	1387.94
400.28	1366.87
400.47	1387.94
400.67	1441.77
400.86	1390.28
401.05	1404.32
401.24	1427.73
401.44	1430.07
401.63	1462.83
401.82	1418.36
402.01	1427.73
402.21	1380.92
402.40	1535.39
402.59	1444.11
402.78	1519.01
402.97	1540.07
403.17	1444.11
403.36	1465.18
403.55	1486.24
403.74	1551.78
403.93	1624.33
404.13	1544.75
404.32	1657.10
404.51	1596.25
404.70	1577.52
404.89	1575.18
405.09	1783.49
405.28	1783.49
405.47	1657.10
405.66	1722.63
405.85	1739.02
406.05	1645.40
406.24	1614.97
406.43	1703.91
406.62	1781.15
406.81	1811.57
407.00	1764.76
407.20	1708.59
407.39	1797.53
407.58	1816.26
407.77	1797.53
407.96	1769.44
408.15	1891.15
408.34	1757.74
408.54	1870.09
408.73	1895.83
408.92	1937.96
409.11	1912.22
409.30	1949.67
409.49	2015.20
409.68	1973.07
409.87	2099.46
410.07	2010.52
410.26	2003.50
410.45	1975.41
410.64	2054.99
410.83	2064.35
411.02	2019.88
411.21	2214.15
411.40	2127.55
411.59	2155.63
411.78	2157.97
411.98	2211.81
412.17	2153.29
412.36	2235.21
412.55	2363.94
412.74	2267.98
412.93	2349.90
413.12	2312.45
413.31	2445.86
413.50	2289.04
413.69	2326.49
413.88	2434.16
414.07	2326.49
414.26	2483.31
414.45	2392.03
414.64	2420.11
414.83	2520.76
415.02	2562.89
415.22	2679.91
415.41	2651.83
415.60	2614.38
415.79	2661.19
415.98	2661.19
416.17	2675.23
416.36	2651.83
416.55	2738.43
416.74	2803.96
416.93	2843.75
417.12	2829.71
417.31	2878.86
417.50	2878.86
417.69	2953.76
417.88	2913.97
418.07	2860.13
418.26	2977.16
418.45	2871.84
418.64	3056.74
418.83	2993.55
419.02	3009.93
419.21	3021.63
419.39	3073.12
419.58	2995.89
419.77	3016.95
419.96	3094.19
420.15	3183.13
420.34	3143.34
420.53	2925.67
420.72	3232.28
420.91	3192.49
421.10	3274.41
421.29	3194.83
421.48	3290.79
421.67	3173.77
421.86	3297.81
422.05	3375.05
422.24	3187.81
422.43	3248.66
422.61	3267.39
422.80	3307.18
422.99	3513.14
423.18	3293.13
423.37	3438.25
423.56	3412.50
423.75	3375.05
423.94	3258.03
424.13	3253.34
424.32	3241.64
424.50	3438.25
424.69	3531.87
424.88	3389.10
425.07	3391.44
425.26	3389.10
425.45	3543.57
425.64	3377.39
425.83	3353.99
426.01	3349.31
426.20	3361.01
426.39	3414.84
426.58	3473.36
426.77	3361.01
426.96	3393.78
427.15	3440.59
427.33	3658.26
427.52	3534.21
427.71	3623.15
427.90	3576.34
428.09	3660.60
428.28	3566.98
428.46	3712.09
428.65	3648.90
428.84	3707.41
429.03	3744.86
429.22	3742.52
429.40	3676.98
429.59	3791.67
429.78	3709.75
429.97	3590.38
430.16	3721.45
430.34	3831.46
430.53	3899.33
430.72	3857.20
430.91	3784.65
431.10	3805.71
431.28	3925.08
431.47	4030.40
431.66	3999.98
431.85	3882.95
432.03	4074.87
432.22	4100.62
432.41	4077.21
432.60	4098.28
432.79	4077.21
432.97	4081.89
433.16	4234.03
433.35	3967.21
433.54	4238.71
433.72	4161.47
433.91	4201.26
434.10	4133.39
434.28	4102.96
434.47	4194.24
434.66	4369.78
434.85	4156.79
435.03	4339.35
435.22	4198.92
435.41	4440.00
435.59	4393.19
435.78	4337.01
435.97	4341.69
436.16	4432.97
436.34	4346.37
436.53	4360.42
436.72	4486.81
436.90	4503.19
437.09	4454.04
437.28	4435.32
437.46	4578.09
437.65	4545.32
437.84	4592.13
438.02	4521.92
438.21	4547.66
438.40	4568.73
438.58	4781.71
438.77	4681.07
438.96	4861.29
439.14	4702.14
439.33	4835.55
439.52	4765.33
439.70	5032.15
439.89	4887.04
440.08	4954.91
440.26	4901.08
440.45	4992.36
440.63	5214.71
440.82	5109.39
441.01	4983.00
441.19	5060.24
441.38	5217.05
441.57	5317.70
441.75	5228.76
441.94	5369.19
442.12	5418.34
442.31	5500.26
442.50	5516.64
442.68	5217.05
442.87	5518.98
443.05	5537.71
443.24	5413.66
443.43	5497.92
443.61	5575.16
443.80	5621.97
443.98	5329.40
444.17	5364.51
444.35	5509.62
444.54	5605.58
444.73	5554.09
444.91	5570.48
445.10	5636.01
445.28	5322.38
445.47	5598.56
445.65	5486.22
445.84	5612.60
446.02	5729.63
446.21	5687.50
446.39	5558.77
446.58	5837.30
446.77	5731.97
446.95	5647.71
447.14	5734.31
447.32	5851.34
447.51	5827.93
447.69	5621.97
447.88	5652.39
448.06	5818.57
448.25	5750.70
448.43	5921.56
448.62	5884.11
448.80	5785.80
448.99	5727.29
449.17	5935.60
449.36	5813.89
449.54	5909.85
449.73	6022.20
449.91	6054.97
450.10	5975.39
450.28	6080.71
450.46	5959.00
450.65	6134.54
450.83	6026.88
451.02	5951.98
451.20	6249.23
451.39	6181.35
451.57	6150.93
451.76	6043.26
451.94	6235.19
452.13	6333.49
452.31	6228.17
452.49	6284.34
452.68	6263.27
452.86	6422.43
453.05	6394.34
453.23	6401.37
453.42	6298.38
453.60	6408.39
453.78	6251.57
453.97	6333.49
454.15	6296.04
454.34	6282.00
454.52	6626.06
454.70	6387.32
454.89	6537.12
455.07	6579.25
455.26	6574.56
455.44	6614.35
455.62	6637.76
455.81	6579.25
455.99	6817.98
456.17	6722.02
456.36	6686.91
456.54	6869.47
456.73	6904.58
456.91	6932.67
457.09	7068.42
457.28	7073.10
457.46	6953.73
457.64	7068.42
457.83	7023.95
458.01	6986.50
458.19	7178.42
458.38	7166.72
458.56	7155.02
458.74	7253.32
458.93	7077.78
459.11	7316.51
459.29	7087.14
459.48	7183.10
459.66	7332.90
459.84	7351.62
460.03	7499.08
460.21	7576.31
460.39	7442.90
460.57	7440.56
460.76	7382.05
460.94	7557.59
461.12	7316.51
461.31	7480.35
461.49	7545.89
461.67	7648.87
461.85	7786.96
462.04	7604.40
462.22	8065.49
462.40	7644.19
462.59	7660.57
462.77	7672.28
462.95	7793.98
463.13	7751.85
463.32	7716.75
463.50	7911.01
463.68	7957.82
463.86	8011.65
464.05	7941.44
464.23	7934.42
464.41	7925.05
464.59	7789.30
464.78	8156.77
464.96	8067.83
465.14	7768.24
465.32	8112.30
465.50	8081.87
465.69	8126.34
465.87	8035.06
466.05	8107.62
466.23	8056.12
466.41	8173.15
466.60	8297.20
466.78	8063.15
466.96	8098.25
467.14	8285.50
467.32	8070.17
467.51	8681.05
467.69	8241.03
467.87	8222.30
468.05	8194.22
468.23	8299.54
468.41	8538.27
468.60	8430.61
468.78	8753.60
468.96	8276.13
469.14	8617.85
469.32	8545.30
469.50	8416.57
469.69	8769.99
469.87	8784.03
470.05	8826.16
470.23	8828.50
470.41	8931.48
470.59	8657.64
470.77	8826.16
470.95	8840.20
471.14	9053.19
471.32	8643.60
471.50	8997.02
471.68	9001.70
471.86	9053.19
472.04	8961.91
472.22	9392.57
472.40	9027.45
472.58	9179.58
472.77	9308.31
472.95	9418.32
473.13	9458.10
473.31	9329.38
473.49	9556.41
473.67	9345.76
473.85	9568.11
474.03	9797.48
474.21	9666.41
474.39	9675.77
474.57	9692.16
474.75	9935.57
474.93	9944.94
475.12	9973.02
475.30	9956.64
475.48	9968.34
475.66	10258.57
475.84	10338.15
476.02	10235.16
476.20	10391.98
476.38	10406.02
476.56	10422.41
476.74	10530.07
476.92	10668.16
477.10	10410.70
477.28	10665.82
477.46	10471.56
477.64	10799.23
477.82	10991.16
478.00	10979.45
478.18	10977.11
478.36	11307.13
478.54	11468.62
478.72	11396.07
478.90	11351.60
479.08	11477.99
479.26	11531.82
479.44	11541.18
479.62	11639.48
479.80	11721.40
479.98	11941.41
480.16	12299.52
480.34	12168.45
480.52	12170.79
480.70	12196.53
480.88	12308.88
481.06	12273.77
481.24	12332.28
481.41	12564.00
481.59	12723.15
481.77	12746.56
481.95	12947.84
482.13	13001.68
482.31	12872.95
482.49	13392.55
482.67	13200.62
482.85	13399.57
483.03	13703.84
483.21	13516.59
483.39	13687.45
483.57	13802.14
483.74	13951.93
483.92	14045.55
484.10	13823.20
484.28	14106.41
484.46	14279.61
484.64	14843.68
484.82	14237.48
485.00	14523.02
485.18	15061.35
485.35	14960.70
485.53	15140.93
485.71	15063.69
485.89	15396.04
486.07	14988.79
486.25	15227.53
486.43	15513.07
486.61	15524.77
486.78	15861.81
486.96	16098.20
487.14	16393.11
487.32	16095.86
487.50	16058.42
487.68	16170.76
487.85	16526.52
488.03	16575.67
488.21	17048.46
488.39	16847.18
488.57	16912.71
488.75	17088.25
488.92	17429.97
489.10	17153.79
489.28	17572.74
489.46	17813.82
489.64	17554.02
489.81	17998.72
489.99	18237.45
490.17	18211.71
490.35	18202.35
490.53	18422.36
490.70	18548.75
490.88	18260.86
491.06	18853.02
491.24	18747.69
491.41	19049.62
491.59	18862.38
491.77	19185.37
491.95	19442.83
492.13	19789.23
492.30	19604.33
492.48	19651.14
492.66	19868.81
492.84	20067.75
493.01	20093.50
493.19	20166.06
493.37	20475.01
493.54	20500.75
493.72	20407.13
493.90	20460.96
494.08	20596.71
494.25	20954.82
494.43	20908.01
494.61	21221.64
494.79	21041.42
494.96	21202.91
495.14	21242.70
495.32	22019.76
495.49	21818.47
495.67	21820.81
495.85	22066.57
496.02	22284.24
496.20	22328.71
496.38	22167.21
496.55	22052.53
496.73	22885.76
496.91	22649.36
497.09	22670.43
497.26	22984.06
497.44	23000.44
497.62	23105.77
497.79	23435.78
497.97	23133.86
498.14	23463.87
498.32	23843.04
498.50	23707.29
498.67	23796.23
498.85	23709.63
499.03	24049.00
499.20	23798.57
499.38	24315.83
499.56	24091.13
499.73	24353.27
499.91	24294.76
500.08	24718.40
500.26	24121.56
500.44	24751.17
500.61	25022.67
500.79	24671.59
500.97	25053.09
501.14	25032.03
501.32	25221.61
501.49	25039.05
501.67	25270.76
501.84	25963.56
502.02	25614.82
502.20	25458.01
502.37	25687.38
502.55	25600.78
502.72	25933.14
502.90	25802.07
503.07	25717.81
503.25	25905.05
503.43	25921.43
503.60	26265.49
503.78	26080.59
503.95	26256.13
504.13	26335.71
504.30	26754.66
504.48	26632.96
504.65	26941.91
504.83	26948.93
505.01	27325.75
505.18	26951.27
505.36	27295.33
505.53	27199.37
505.71	27182.98
505.88	27232.13
506.06	27206.39
506.23	27725.99
506.41	27831.31
506.58	27601.94
506.76	27646.41
506.93	27536.40
507.11	27845.35
507.28	27828.97
507.46	27744.71
507.63	28676.24
507.81	28425.81
507.98	27756.41
508.16	28264.31
508.33	28650.50
508.50	28863.49
508.68	28498.36
508.85	28868.17
509.03	28327.50
509.20	28870.51
509.38	29036.69
509.55	28744.12
509.73	29228.61
509.90	29453.30
510.08	29326.91
510.25	29525.86
510.42	29673.31
510.60	29450.96
510.77	29993.97
510.95	30078.22
511.12	29806.72
511.30	29865.24
511.47	29977.58
511.64	30085.25
511.82	30183.55
511.99	30120.35
512.17	30293.55
512.34	30010.35
512.51	30888.05
512.69	30838.90
512.86	30588.46
513.04	31079.97
513.21	30850.60
513.38	30918.48
513.56	31133.81
513.73	30920.82
513.90	31077.63
514.08	30876.35
514.25	31543.40
514.43	31391.26
514.60	31599.57
514.77	31681.49
514.95	31693.19
515.12	31700.22
515.29	31676.81
515.47	31630.00
515.64	31997.46
515.81	32095.77
515.99	32065.34
516.16	32404.72
516.33	32584.94
516.51	32264.28
516.68	31805.54
516.85	32177.68
517.03	32800.27
517.20	32903.25
517.37	32818.99
517.54	32840.06
517.72	32723.03
517.89	32594.30
518.06	33003.89
518.24	32645.79
518.41	32538.13
518.58	33301.14
518.75	33116.24
518.93	33500.09
519.10	33371.36
519.27	33380.72
519.45	33474.34
519.62	33366.68
519.79	33905.00
519.96	33532.86
520.14	33947.13
520.31	33546.90
520.48	33804.36
520.65	34171.82
520.83	34312.25
521.00	34316.93
521.17	34291.19
521.34	34419.92
521.52	34457.37
521.69	34167.14
521.86	34181.18
522.03	34773.34
522.20	34227.99
522.38	35482.52
522.55	34979.31
522.72	34873.98
522.89	35047.18
523.07	35323.36
523.24	35269.53
523.41	35260.17
523.58	35189.95
523.75	35072.93
523.92	35255.49
524.10	35154.85
524.27	35309.32
524.44	35758.70
524.61	35431.03
524.78	35747.00
524.96	35618.27
525.13	35864.03
525.30	36156.60
525.47	36048.93
525.64	36254.90
525.81	36282.98
525.98	36077.02
526.16	36395.33
526.33	36294.69
526.50	36355.54
526.67	36170.64
526.84	36332.14
527.01	36500.65
527.18	36367.24
527.36	36545.12
527.53	36851.73
527.70	37273.03
527.87	37078.77
528.04	36959.40
528.21	36505.34
528.38	36685.56
528.55	37144.30
528.72	37062.38
528.89	37617.09
529.07	37448.57
529.24	37064.72
529.41	37352.61
529.58	37415.80
529.75	37518.79
529.92	37343.25
530.09	37542.19
530.26	37525.81
530.43	37642.84
530.60	37612.41
530.77	37689.65
530.94	37895.61
531.11	38117.96
531.28	37481.34
531.46	38031.36
531.63	38345.00
531.80	38061.79
531.97	38085.20
532.14	38237.33
532.31	38134.35
532.48	38424.57
532.65	38656.29
532.82	38239.67
532.99	38684.37
533.16	38508.83
533.33	38625.86
533.50	38511.17
533.67	38976.94
533.84	38604.80
534.01	38548.62
534.18	39012.05
534.35	38810.76
534.52	39222.70
534.69	39445.05
534.86	39112.69
535.03	38724.16
535.20	39337.38
535.37	39321.00
535.54	39445.05
535.71	39239.08
535.88	39255.46
536.05	39351.43
536.22	39800.81
536.38	39510.58
536.55	39426.32
536.72	39285.89
536.89	39718.89
537.06	39768.04
537.23	40004.44
537.40	39723.57
537.57	39845.28
537.74	39674.42
537.91	39943.58
538.08	39922.52
538.25	39578.46
538.42	39882.73
538.59	40765.11
538.75	39782.09
538.92	40304.02
539.09	40746.39
539.26	40428.07
539.43	40505.31
539.60	40388.28
539.77	40840.01
539.94	40954.69
540.11	40385.94
540.28	40788.52
540.44	40683.19
540.61	40617.66
540.78	40931.29
540.95	40950.01
541.12	40772.13
541.29	40861.07
541.46	40762.77
541.62	41106.83
541.79	41099.81
541.96	40940.65
542.13	40975.76
542.30	40987.46
542.47	41139.60
542.63	40898.52
542.80	41221.52
542.97	41661.54
543.14	41944.74
543.31	41586.64
543.48	41954.10
543.64	42089.85
543.81	41635.79
543.98	41921.34
544.15	41694.30
544.32	41837.08
544.48	42515.83
544.65	42122.62
544.82	41998.57
544.99	41918.99
545.16	42110.92
545.32	42064.11
545.49	42958.19
545.66	42660.94
545.83	42773.29
546.00	42504.13
546.16	42190.50
546.33	42218.58
546.50	42321.57
546.67	42714.78
546.83	42426.89
547.00	42813.08
547.17	42457.32
547.34	42607.11
547.50	42810.74
547.67	43229.69
547.84	42738.18
548.00	43311.61
548.17	43075.22
548.34	43241.40
548.51	43580.78
548.67	43208.63
548.84	42939.47
549.01	43182.88
549.18	43194.59
549.34	43381.83
549.51	43342.04
549.68	43721.21
549.84	43454.39
550.01	43753.97
550.18	43040.11
550.34	43306.93
550.51	43786.74
550.68	43480.13
550.84	43416.94
551.01	43625.25
551.18	43220.33
551.34	43482.47
551.51	43812.49
551.68	44105.06
551.84	43777.38
552.01	43274.16
552.18	43423.96
552.34	44083.99
552.51	44172.93
552.68	43868.66
552.84	44025.48
553.01	44404.64
553.18	43854.62
553.34	44299.32
553.51	44275.91
553.67	43973.98
553.84	44130.80
554.01	44259.53
554.17	44032.50
554.34	44357.83
554.51	44428.05
554.67	44589.55
554.84	44477.20
555.00	44423.37
555.17	44266.55
555.33	44526.35
555.50	44453.79
555.67	44697.21
555.83	44907.86
556.00	44626.99
556.16	45132.55
556.33	44732.32
556.50	44636.36
556.66	44875.09
556.83	44603.59
556.99	45216.81
557.16	45172.34
557.32	44914.88
557.49	44802.53
557.65	44725.30
557.82	45265.96
557.98	45233.19
558.15	44783.81
558.32	44942.97
558.48	44865.73
558.65	45226.17
558.81	45457.88
558.98	45146.59
559.14	45361.92
559.31	45062.33
559.47	45095.10
559.64	45256.60
559.80	45202.77
559.97	45642.79
560.13	45006.16
560.30	45134.89
560.46	46185.79
560.63	45450.86
560.79	45757.47
560.96	46075.79
561.12	45572.57
561.29	45904.93
561.45	45537.46
561.61	45429.80
561.78	45759.81
561.94	45586.61
562.11	45443.84
562.27	45696.62
562.44	45785.56
562.60	45603.00
562.77	46028.98
562.93	45455.54
563.10	46120.26
563.26	45794.92
563.42	45984.51
563.59	45832.37
563.75	45841.73
563.92	46178.77
564.08	45691.94
564.24	45956.42
564.41	46047.70
564.57	45921.31
564.74	45865.14
564.90	46174.09
565.07	45801.94
565.23	45780.88
565.39	46127.28
565.56	46204.52
565.72	45940.04
565.88	46183.45
566.05	46216.22
566.21	46171.75
566.38	46344.95
566.54	46204.52
566.70	46401.12
566.87	46394.10
567.03	45841.73
567.19	46148.34
567.36	45970.46
567.52	46206.86
567.68	46064.08
567.85	46248.99
568.01	46321.54
568.17	46162.39
568.34	46326.22
568.50	46681.98
568.66	46040.68
568.83	46115.58
568.99	46623.47
569.15	46068.76
569.32	46628.15
569.48	46209.20
569.64	46801.35
569.81	46691.35
569.97	46660.92
570.13	47021.36
570.30	46024.29
570.46	46696.03
570.62	46925.40
570.78	46784.97
570.95	46525.17
571.11	47030.72
571.27	46862.21
571.43	46571.98
571.60	46265.37
571.76	46806.03
571.92	46632.83
572.09	46443.25
572.25	46450.27
572.41	46454.95
572.57	46590.70
572.74	47119.66
572.90	46440.91
573.06	46965.19
573.22	46759.22
573.38	47152.43
573.55	46988.60
573.71	46913.70
573.87	47330.31
574.03	47021.36
574.20	47683.73
574.36	46679.64
574.52	47391.17
574.68	46567.30
574.84	46911.36
575.01	47012.00
575.17	47199.24
575.33	46796.67
575.49	46803.69
575.65	46946.47
575.82	47159.45
575.98	46412.82
576.14	47430.96
576.30	47320.95
576.46	47122.01
576.62	46857.52
576.79	46829.44
576.95	46469.00
577.11	46621.13
577.27	47210.95
577.43	46838.80
577.59	47129.03
577.75	47051.79
577.92	46642.20
578.08	47159.45
578.24	46974.55
578.40	47220.31
578.56	47309.25
578.72	47182.86
578.88	46770.93
579.04	47454.36
579.21	47208.61
579.37	47068.17
579.53	47224.99
579.69	47012.00
579.85	47374.78
580.01	46986.25
580.17	46918.38
580.33	46993.28
580.49	47358.40
580.65	47023.70
580.82	47037.75
580.98	47084.56
581.14	47033.07
581.30	47187.54
581.46	46979.23
581.62	47145.41
581.78	46944.12
581.94	47206.26
582.10	46904.34
582.26	47187.54
582.42	46869.23
582.58	47178.18
582.74	47356.06
582.90	47480.11
583.06	47243.71
583.22	47021.36
583.38	47192.22
583.54	47325.63
583.70	47327.97
583.86	47536.28
584.02	47164.14
584.18	47650.97
584.34	47737.57
584.50	47381.80
584.66	47533.94
584.82	47491.81
584.98	47763.31
585.14	47306.91
585.30	46932.42
585.46	47084.56
585.62	47150.09
585.78	47241.37
585.94	47063.49
586.10	46958.17
586.26	47117.32
586.42	47241.37
586.58	47468.40
586.74	47112.64
586.90	46934.76
587.06	47281.16
587.22	47232.01
587.38	47164.14
587.54	47608.84
587.70	47625.22
587.86	47512.88
588.02	47379.46
588.18	47716.50
588.34	47377.12
588.49	47945.87
588.65	46651.56
588.81	47468.40
588.97	47262.44
589.13	47227.33
589.29	47363.08
589.45	47372.44
589.61	47587.77
589.77	47608.84
589.93	47681.39
590.08	47604.16
590.24	47592.45
590.40	48030.13
590.56	48062.90
590.72	47459.04
590.88	47393.51
591.04	47302.23
591.20	47903.74
591.35	47742.25
591.51	47845.23
591.67	48186.95
591.83	48025.45
591.99	47672.03
592.15	48053.54
592.31	47569.05
592.46	47824.17
592.62	47636.92
592.78	48002.05
592.94	48369.51
593.10	48086.31
593.26	47906.08
593.41	47971.62
593.57	48107.37
593.73	48055.88
593.89	48081.63
594.05	48112.05
594.20	47915.45
594.36	48261.85
594.52	48179.93
594.68	48133.12
594.84	47744.59
594.99	48744.00
595.15	47604.16
595.31	47903.74
595.47	48107.37
595.62	48009.07
595.78	48140.14
595.94	47964.60
596.10	47945.87
596.25	48233.76
596.41	48046.52
596.57	48299.30
596.73	48339.08
596.88	48098.01
597.04	48315.68
597.20	47941.19
597.36	47999.71
597.51	48285.25
597.67	48018.43
597.83	47842.89
597.99	48090.99
598.14	48186.95
598.30	48196.31
598.46	48098.01
598.61	48437.39
598.77	48282.91
598.93	48238.44
599.09	48175.25
599.24	48638.67
599.40	48278.23
599.56	48638.67
599.71	48886.77
599.87	48619.95
600.03	48479.52
600.18	48140.14
600.34	48137.80
600.50	48388.24
600.65	48212.70
600.81	48732.29
600.97	48301.64
601.12	48285.25
601.28	48367.17
601.44	48325.04
601.59	47859.27
601.75	48184.61
601.91	48385.89
602.06	48296.95
602.22	48540.37
602.37	48119.07
602.53	48334.40
602.69	48385.89
602.84	48292.27
603.00	47920.13
603.16	48531.01
603.31	48423.34
603.47	48603.56
603.62	48156.52
603.78	48526.33
603.94	48114.39
604.09	48156.52
604.25	48184.61
604.40	48018.43
604.56	48126.10
604.71	48472.49
604.87	47945.87
605.03	48303.98
605.18	48327.38
605.34	48051.20
605.49	48114.39
605.65	48177.59
605.80	48020.77
605.96	47683.73
606.12	47840.55
606.27	48203.33
606.43	48383.55
606.58	48549.73
606.74	48388.24
606.89	48282.91
607.05	48184.61
607.20	48219.72
607.36	47990.34
607.51	48107.37
607.67	47995.03
607.82	47943.53
607.98	48245.46
608.13	48107.37
608.29	47405.21
608.44	48273.55
608.60	47613.52
608.75	48692.50
608.91	48093.33
609.06	47704.80
609.22	48287.59
609.37	48032.47
609.53	47906.08
609.68	48009.07
609.84	47899.06
609.99	47655.65
610.15	48102.69
610.30	48006.73
610.46	48184.61
610.61	48238.44
610.76	48065.24
610.92	47540.96
611.07	47248.39
611.23	47571.39
611.38	48112.05
611.54	47863.96
611.69	47700.12
611.84	48051.20
612.00	47814.80
612.15	47702.46
612.31	47885.02
612.46	47463.72
612.62	47798.42
612.77	47585.43
612.92	48027.79
613.08	47447.34
613.23	47814.80
613.39	47550.32
613.54	47470.75
613.69	47646.29
613.85	47767.99
614.00	47756.29
614.15	47767.99
614.31	47484.79
614.46	47468.40
614.62	47440.32
614.77	47384.15
614.92	46873.91
615.08	47196.90
615.23	47716.50
615.38	47648.63
615.54	47515.22
615.69	47753.95
615.84	47557.35
616.00	47667.35
616.15	47330.31
616.30	47686.07
616.46	47463.72
616.61	47646.29
616.76	47229.67
616.92	47274.14
617.07	47735.23
617.22	47346.70
617.37	46972.21
617.53	47437.98
617.68	47192.22
617.83	47353.72
617.99	47709.48
618.14	47552.66
618.29	46906.68
618.45	46609.43
618.60	47000.30
618.75	46883.27
618.90	46918.38
619.06	46932.42
619.21	47096.26
619.36	47442.66
619.51	47236.69
619.67	47164.14
619.82	46862.21
619.97	46911.36
620.12	47002.64
620.28	47217.97
620.43	47208.61
620.58	47232.01
620.73	47079.88
620.89	47213.29
621.04	46920.72
621.19	46993.28
621.34	46955.83
621.49	46436.23
621.65	47065.83
621.80	47171.16
621.95	46515.81
622.10	47112.64
622.25	46590.70
622.41	46609.43
622.56	46717.09
622.71	46681.98
622.86	46742.84
623.01	46920.72
623.16	46590.70
623.32	46291.12
623.47	46122.60
623.62	46487.72
623.77	46635.17
623.92	46609.43
624.07	46387.08
624.23	46674.96
624.38	46703.05
624.53	46522.83
624.68	46000.89
624.83	46021.95
624.98	46796.67
625.13	46209.20
625.29	45865.14
625.44	46134.30
625.59	45984.51
625.74	46141.32
625.89	45783.22
626.04	46218.56
626.19	46197.49
626.34	46192.81
626.49	45799.60
626.65	46241.96
626.80	45968.12
626.95	46028.98
627.10	45567.89
627.25	45570.23
627.40	46171.75
627.55	46040.68
627.70	46024.29
627.85	46078.13
628.00	46237.28
628.15	45736.41
628.30	45502.35
628.45	45193.40
628.60	45392.35
628.76	45523.42
628.91	45514.06
629.06	45127.87
629.21	45392.35
629.36	45214.47
629.51	45357.24
629.66	45752.79
629.81	45450.86
629.96	45261.28
630.11	45666.19
630.26	45516.40
630.41	45202.77
630.56	45237.87
630.71	45504.70
630.86	45443.84
631.01	44898.50
631.16	45160.64
631.31	45607.68
631.46	45207.45
631.61	45694.28
631.76	45483.63
631.91	45186.38
632.06	45364.26
632.21	45132.55
632.36	45492.99
632.51	45085.74
632.66	45525.76
632.81	44912.54
632.96	45226.17
633.10	44596.57
633.25	44933.60
633.40	45160.64
633.55	45186.38
633.70	44797.85
633.85	44832.96
634.00	44858.71
634.15	44875.09
634.30	44779.13
634.45	44868.07
634.60	44659.76
634.75	45017.86
634.90	44783.81
635.05	44938.29
635.19	44512.31
635.34	44563.80
635.49	44486.56
635.64	44732.32
635.79	44715.93
635.94	44589.55
636.09	44975.73
636.24	44208.04
636.39	44301.66
636.53	44449.11
636.68	44491.24
636.83	44264.21
636.98	44165.91
637.13	44177.61
637.28	44451.45
637.43	44247.83
637.57	44479.54
637.72	44044.20
637.87	44189.31
638.02	44416.35
638.17	44254.85
638.32	44032.50
638.46	43840.57
638.61	44184.63
638.76	43592.48
638.91	44086.33
639.06	43863.98
639.20	43709.50
639.35	43852.28
639.50	43779.72
639.65	44399.96
639.80	44294.64
639.94	44002.07
640.09	44165.91
640.24	44114.42
640.39	43533.96
640.54	43222.67
640.68	43758.66
640.83	44051.22
640.98	43718.87
641.13	43487.15
641.27	44088.67
641.42	43854.62
641.57	43459.07
641.72	44032.50
641.86	43615.88
642.01	43440.34
642.16	43096.28
642.31	43297.57
642.45	44011.43
642.60	43185.22
642.75	43548.01
642.90	43365.45
643.04	43629.93
643.19	43264.80
643.34	43309.27
643.48	42726.48
643.63	43026.07
643.78	43356.08
643.93	43234.38
644.07	43136.07
644.22	43318.64
644.37	43058.84
644.51	43407.58
644.66	42742.86
644.81	43210.97
644.95	43220.33
645.10	42705.41
645.25	42897.34
645.39	42969.90
645.54	42899.68
645.69	42382.42
645.83	42344.97
645.98	42738.18
646.13	42876.27
646.27	42628.18
646.42	42522.85
646.57	42768.61
646.71	42948.83
646.86	43274.16
647.00	43107.99
647.15	43098.62
647.30	43000.32
647.44	42658.60
647.59	42307.52
647.74	42637.54
647.88	42611.79
648.03	42988.62
648.17	42871.59
648.32	42806.06
648.47	42644.56
648.61	42319.23
648.76	42609.45
648.90	42719.46
649.05	42309.86
649.20	42351.99
649.34	42157.73
649.49	42164.75
649.63	43005.00
649.78	42256.03
649.92	42265.39
650.07	42674.99
650.21	42438.59
650.36	42469.02
650.51	42539.24
650.65	42724.14
650.80	42405.83
650.94	42209.22
651.09	42541.58
651.23	42122.62
651.38	41933.04
651.52	41778.56
651.67	41757.50
651.81	41874.52
651.96	41516.42
652.10	41500.04
652.25	41626.43
652.39	41830.05
652.54	42085.17
652.68	41682.60
652.83	41813.67
652.97	42209.22
653.12	41783.24
653.26	41441.53
653.41	41956.44
653.55	41598.34
653.70	41977.51
653.84	41996.23
653.99	41635.79
654.13	41579.62
654.27	41429.82
654.42	41970.49
654.56	41546.85
654.71	41598.34
654.85	41483.66
655.00	41258.96
655.14	41776.22
655.29	41811.33
655.43	41565.57
655.57	41467.27
655.72	41139.60
655.86	41354.93
656.01	40842.35
656.15	41200.45
656.30	41015.55
656.44	41177.04
656.58	41298.75
656.73	41198.11
656.87	40463.18
657.01	40968.74
657.16	41350.24
657.30	41130.23
657.45	40964.06
657.59	40580.21
657.73	40971.08
657.88	41177.04
658.02	41045.97
658.16	41237.90
658.31	40910.22
658.45	40505.31
658.60	40849.37
658.74	40392.97
658.88	40809.58
659.03	40840.01
659.17	40612.98
659.31	40402.33
659.46	40596.59
659.60	40509.99
659.74	40285.30
659.89	39810.17
660.03	39971.67
660.17	40168.27
660.32	40060.61
660.46	40341.47
660.60	39962.31
660.74	39922.52
660.89	39852.30
661.03	39571.44
661.17	39271.85
661.32	39627.61
661.46	39604.20
661.60	39672.08
661.74	39861.66
661.89	39477.82
662.03	39566.76
662.17	39323.34
662.31	39587.82
662.46	39817.19
662.60	39313.98
662.74	39690.80
662.88	39557.39
663.03	39164.18
663.17	38658.63
663.31	38686.71
663.45	39302.28
663.60	39119.71
663.74	38738.21
663.88	38794.38
664.02	38646.93
664.17	39330.36
664.31	38773.31
664.45	38651.61
664.59	38637.56
664.73	38220.95
664.88	38600.12
665.02	38347.34
665.16	38305.21
665.30	38337.98
665.44	38277.12
665.59	38019.66
665.73	38469.04
665.87	37633.47
666.01	37977.53
666.15	37989.24
666.29	37935.40
666.44	38424.57
666.58	37514.11
666.72	37895.61
666.86	37993.92
667.00	37904.98
667.14	37717.73
667.28	37638.15
667.43	37848.80
667.57	37633.47
667.71	37586.66
667.85	37982.21
667.99	37469.64
668.13	36870.46
668.27	36765.14
668.41	37010.89
668.56	36800.24
668.70	36966.42
668.84	36531.08
668.98	36802.58
669.12	36708.96
669.26	36641.09
669.40	36659.81
669.54	36870.46
669.68	36725.35
669.82	36772.16
669.96	36245.54
670.10	36336.82
670.25	36318.09
670.39	36432.78
670.53	36376.61
670.67	35985.74
670.81	36329.80
670.95	36280.64
671.09	35945.95
671.23	35990.42
671.37	36140.21
671.51	35384.22
671.65	35676.79
671.79	35592.53
671.93	35449.75
672.07	35765.73
672.21	35704.87
672.35	35173.57
672.49	35063.57
672.63	35208.68
672.77	35185.27
672.91	35143.14
673.05	35070.59
673.19	34822.49
673.33	34733.55
673.47	34838.87
673.61	34340.34
673.75	34242.04
673.89	34260.76
674.03	34169.48
674.17	34061.82
674.31	34195.23
674.45	34326.30
674.59	34047.77
674.73	34103.95
674.87	33560.94
675.01	34106.29
675.15	33399.44
675.29	33476.68
675.43	33282.42
675.56	33551.58
675.70	33443.91
675.84	33237.95
675.98	32357.91
676.12	33263.69
676.26	33078.79
676.40	33146.67
676.54	32552.17
676.68	32290.03
676.82	32250.24
676.96	32538.13
677.10	32985.17
677.23	32678.56
677.37	32697.28
677.51	32299.39
677.65	32350.88
677.79	32147.26
677.93	32128.53
678.07	31850.01
678.21	32034.91
678.34	32027.89
678.48	31475.52
678.62	31337.43
678.76	31342.11
678.90	31611.28
679.04	31248.49
679.18	31253.17
679.31	30902.09
679.45	31089.34
679.59	30483.14
679.73	31089.34
679.87	30569.74
680.00	30644.63
680.14	30962.95
680.28	30539.31
680.42	30321.64
680.56	30448.03
680.70	30239.72
680.83	30101.63
680.97	29677.99
681.11	29785.66
681.25	29357.34
681.39	29577.35
681.52	29619.48
681.66	29362.02
681.80	28774.55
681.94	28847.10
682.07	28769.86
682.21	29029.66
682.35	28662.20
682.49	28648.16
682.62	28507.72
682.76	28332.18
682.90	28456.23
683.04	28182.39
683.17	28339.21
683.31	28229.20
683.45	28013.87
683.59	27875.78
683.72	27384.27
683.86	27690.88
684.00	27587.89
684.13	27814.93
684.27	27494.27
684.41	27433.42
684.55	27538.74
684.68	26885.73
684.82	27070.64
684.96	27070.64
685.09	26995.74
685.23	27201.71
685.37	27154.90
685.50	27267.24
685.64	26710.19
685.78	26859.99
685.91	26614.23
686.05	26204.64
686.19	25951.86
686.32	25776.32
686.46	25757.60
686.60	25661.63
686.73	25661.63
686.87	25568.01
687.01	25748.23
687.14	25610.14
687.28	25781.00
687.42	25193.53
687.55	25584.40
687.69	25174.80
687.82	25088.20
687.96	24877.55
688.10	24929.05
688.23	24694.99
688.37	25001.60
688.50	25230.98
688.64	24973.52
688.78	24460.94
688.91	24482.00
689.05	24645.84
689.18	24142.63
689.32	23686.22
689.46	23772.82
689.59	23964.75
689.73	23920.28
689.86	23974.11
690.00	23807.93
690.13	23620.69
690.27	23520.04
690.41	23726.01
690.54	23152.58
690.68	23311.74
690.81	22752.35
690.95	22913.84
691.08	22897.46
691.22	22438.72
691.35	22572.13
691.49	22843.63
691.62	22630.64
691.76	22473.82
691.89	22197.64
692.03	22010.40
692.16	21984.65
692.30	21994.01
692.43	22050.19
692.57	21561.02
692.70	21612.51
692.84	21645.27
692.97	21390.16
693.11	21537.61
693.24	21277.81
693.38	21228.66
693.51	21472.07
693.65	20912.69
693.78	20528.84
693.92	20730.12
694.05	20638.84
694.19	20847.15
694.32	20772.25
694.45	20886.94
694.59	20456.28
694.72	20510.11
694.86	20290.10
694.99	20119.24
695.13	20109.88
695.26	19653.48
695.39	19789.23
695.53	19763.48
695.66	19824.34
695.80	19854.76
695.93	19555.18
696.07	19454.53
696.20	18841.31
696.33	19103.45
696.47	19260.27
696.60	18806.20
696.73	19330.48
696.87	19056.64
697.00	18963.02
697.14	18768.76
697.27	18527.68
697.40	18478.53
697.54	18628.32
697.67	18558.11
697.80	18286.61
697.94	18256.18
698.07	17996.38
698.21	17977.65
698.34	17998.72
698.47	17851.27
698.61	17394.86
698.74	17759.98
698.87	17584.44
699.01	17334.01
699.14	17680.41
699.27	17965.95
699.40	17425.29
699.54	17195.92
699.67	16985.27
699.80	17160.81
699.94	17191.23
700.07	17177.19
700.20	16879.94
700.34	16725.47
700.47	16699.72
700.60	16807.39
700.73	16943.14
700.87	16519.50
701.00	16470.35
701.13	16030.33
701.26	16210.55
701.40	16477.37
701.53	16105.23
701.66	16016.29
701.79	16250.34
701.93	15686.27
702.06	15815.00
702.19	15529.45
702.32	15803.30
702.46	15627.76
702.59	15840.75
702.72	15655.84
702.85	15536.48
702.99	15578.61
703.12	15276.68
703.25	15073.05
703.38	15047.30
703.51	14871.76
703.65	14853.04
703.78	14808.57
703.91	14567.49
704.04	14583.88
704.17	14389.61
704.31	14700.90
704.44	14317.06
704.57	14375.57
704.70	14090.02
704.83	14057.26
704.96	13965.98
705.10	13820.86
705.23	14033.85
>>>>>End Processed Spectral Data<<<<<
