SpectraSuite Data File
++++++++++++++++++++++++++++++++++++
Date: Fri Oct 25 10:44:43 EDT 2013
User: price-jones
Dark Spectrum Present: No
Reference Spectrum Present: No
Number of Sampled Component Spectra: 1
Spectrometers: USB2+H05261
Integration Time (usec): 100000 (USB2+H05261)
Spectra Averaged: 1 (USB2+H05261)
Boxcar Smoothing: 0 (USB2+H05261)
Correct for Electrical Dark: No (USB2+H05261)
Strobe/Lamp Enabled: No (USB2+H05261)
Correct for Detector Non-linearity: No (USB2+H05261)
Correct for Stray Light: No (USB2+H05261)
Number of Pixels in Processed Spectrum: 2048
>>>>>Begin Processed Spectral Data<<<<<
365.73	72.56
365.92	72.56
366.12	72.56
366.32	35.11
366.52	65.54
366.72	81.92
366.91	39.79
367.11	0.00
367.31	70.22
367.51	0.00
367.70	16.38
367.90	32.77
368.10	60.85
368.30	72.56
368.49	4.68
368.69	81.92
368.89	126.39
369.09	25.75
369.28	112.35
369.48	100.64
369.68	16.38
369.87	121.71
370.07	72.56
370.27	102.98
370.47	212.99
370.66	360.44
370.86	383.85
371.06	444.70
371.25	489.17
371.45	400.23
371.65	461.09
371.84	416.62
372.04	374.49
372.24	404.91
372.44	468.11
372.63	437.68
372.83	416.62
373.03	524.28
373.22	479.81
373.42	463.43
373.62	477.47
373.81	545.34
374.01	608.54
374.21	552.37
374.40	500.87
374.60	603.86
374.79	489.17
374.99	512.58
375.19	564.07
375.38	575.77
375.58	500.87
375.78	561.73
375.97	550.03
376.17	585.13
376.37	636.63
376.56	596.84
376.76	526.62
376.95	587.47
377.15	571.09
377.35	636.63
377.54	648.33
377.74	634.29
377.93	535.98
378.13	681.10
378.33	648.33
378.52	631.94
378.72	638.97
378.91	660.03
379.11	566.41
379.31	648.33
379.50	636.63
379.70	653.01
379.89	610.88
380.09	720.88
380.28	662.37
380.48	594.50
380.68	657.69
380.87	613.22
381.07	711.52
381.26	648.33
381.46	660.03
381.65	674.07
381.85	667.05
382.04	685.78
382.24	655.35
382.43	643.65
382.63	671.73
382.83	638.97
383.02	683.44
383.22	734.93
383.41	725.57
383.61	667.05
383.80	657.69
384.00	674.07
384.19	709.18
384.39	709.18
384.58	683.44
384.78	711.52
384.97	755.99
385.17	744.29
385.36	711.52
385.56	753.65
385.75	718.54
385.95	821.53
386.14	788.76
386.34	765.36
386.53	723.23
386.72	805.14
386.92	819.19
387.11	755.99
387.31	837.91
387.50	816.85
387.70	842.59
387.89	779.40
388.09	748.97
388.28	791.10
388.48	863.66
388.67	856.64
388.86	805.14
389.06	898.77
389.25	887.06
389.45	884.72
389.64	884.72
389.84	875.36
390.03	1013.45
390.22	961.96
390.42	933.87
390.61	800.46
390.81	823.87
391.00	929.19
391.19	978.34
391.39	922.17
391.58	936.21
391.78	976.00
391.97	978.34
392.16	952.60
392.36	926.85
392.55	1001.75
392.75	922.17
392.94	1011.11
393.13	990.05
393.33	997.07
393.52	898.77
393.71	1008.77
393.91	997.07
394.10	1041.54
394.29	1074.31
394.49	1081.33
394.68	1116.44
394.88	1172.61
395.07	1071.97
395.26	1144.52
395.46	1088.35
395.65	1102.39
395.84	1123.46
396.04	1149.20
396.23	1149.20
396.42	1102.39
396.62	1088.35
396.81	1057.92
397.00	1177.29
397.19	1111.75
397.39	1226.44
397.58	1217.08
397.77	1142.18
397.97	1289.64
398.16	1249.85
398.35	1240.48
398.55	1390.28
398.74	1287.29
398.93	1434.75
399.12	1401.98
399.32	1352.83
399.51	1394.96
399.70	1350.49
399.90	1324.74
400.09	1441.77
400.28	1469.86
400.47	1392.62
400.67	1476.88
400.86	1490.92
401.05	1530.71
401.24	1551.78
401.44	1516.67
401.63	1465.18
401.82	1502.62
402.01	1624.33
402.21	1701.57
402.40	1458.15
402.59	1526.03
402.78	1514.33
402.97	1605.61
403.17	1657.10
403.36	1600.93
403.55	1643.06
403.74	1593.90
403.93	1607.95
404.13	1668.80
404.32	1570.50
404.51	1621.99
404.70	1717.95
404.89	1671.14
405.09	1724.97
405.28	1757.74
405.47	1792.85
405.66	1710.93
405.85	1788.17
406.05	1813.92
406.24	1804.55
406.43	1870.09
406.62	1846.68
406.81	1937.96
407.00	1881.79
407.20	1760.08
407.39	1776.47
407.58	1842.00
407.77	1914.56
407.96	1937.96
408.15	1909.88
408.34	2001.16
408.54	1954.35
408.73	2033.93
408.92	2012.86
409.11	2104.14
409.30	2043.29
409.49	1966.05
409.68	1959.03
409.87	2059.67
410.07	2024.56
410.26	2218.83
410.45	2251.60
410.64	2181.38
410.83	2155.63
411.02	2146.27
411.21	2377.98
411.40	2270.32
411.59	2279.68
411.78	2356.92
411.98	2403.73
412.17	2361.60
412.36	2298.41
412.55	2349.90
412.74	2469.27
412.93	2483.31
413.12	2401.39
413.31	2626.08
413.50	2520.76
413.69	2513.74
413.88	2686.94
414.07	2562.89
414.26	2644.81
414.45	2509.05
414.64	2696.30
414.83	2754.81
415.02	2876.52
415.22	2682.25
415.41	2860.13
415.60	2853.11
415.79	2925.67
415.98	2977.16
416.17	2928.01
416.36	2846.09
416.55	2930.35
416.74	2939.71
416.93	2939.71
417.12	2913.97
417.31	2981.84
417.50	2928.01
417.69	3260.37
417.88	3066.10
418.07	3047.38
418.26	3171.43
418.45	3173.77
418.64	3150.36
418.83	3206.53
419.02	3276.75
419.21	3267.39
419.39	3309.52
419.58	2998.23
419.77	3213.56
419.96	3325.90
420.15	3433.57
420.34	3351.65
420.53	3393.78
420.72	3377.39
420.91	3391.44
421.10	3391.44
421.29	3522.51
421.48	3426.54
421.67	3471.01
421.86	3496.76
422.05	3611.45
422.24	3304.84
422.43	3440.59
422.61	3428.88
422.80	3613.79
422.99	3501.44
423.18	3496.76
423.37	3545.91
423.56	3569.32
423.75	3646.55
423.94	3447.61
424.13	3272.07
424.32	3372.71
424.50	3620.81
424.69	3679.32
424.88	3726.13
425.07	3503.78
425.26	3482.72
425.45	3424.20
425.64	3676.98
425.83	3552.93
426.01	3681.66
426.20	3702.73
426.39	3723.79
426.58	3637.19
426.77	3641.87
426.96	3569.32
427.15	3777.62
427.33	3754.22
427.52	3630.17
427.71	3613.79
427.90	3564.64
428.09	3868.91
428.28	3669.96
428.46	3843.16
428.65	3707.41
428.84	3899.33
429.03	3936.78
429.22	3812.73
429.40	3819.75
429.59	3744.86
429.78	3660.60
429.97	3639.53
430.16	3691.02
430.34	3812.73
430.53	3873.59
430.72	3871.25
430.91	3822.09
431.10	3932.10
431.28	4133.39
431.47	4159.13
431.66	4168.49
431.85	4028.06
432.03	4145.09
432.22	4245.73
432.41	4205.94
432.60	4294.88
432.79	4245.73
432.97	4236.37
433.16	4365.10
433.35	4198.92
433.54	4301.90
433.72	4337.01
433.91	4414.25
434.10	4362.76
434.28	4294.88
434.47	4397.87
434.66	4423.61
434.85	4468.08
435.03	4435.32
435.22	4337.01
435.41	4690.43
435.59	4547.66
435.78	4685.75
435.97	4664.69
436.16	4610.86
436.34	4655.33
436.53	4631.92
436.72	4770.01
436.90	4566.39
437.09	4727.88
437.28	4613.20
437.46	4734.90
437.65	4519.57
437.84	4552.34
438.02	4617.88
438.21	4688.09
438.40	4753.63
438.58	4856.61
438.77	5064.92
438.96	4938.53
439.14	5083.64
439.33	5132.79
439.52	4959.60
439.70	5071.94
439.89	5188.97
440.08	5114.07
440.26	5008.75
440.45	5205.35
440.63	5329.40
440.82	5362.17
441.01	5568.13
441.19	5479.19
441.38	5788.14
441.57	5526.00
441.75	5507.28
441.94	5591.54
442.12	5813.89
442.31	5612.60
442.50	5738.99
442.68	5701.54
442.87	5724.95
443.05	5750.70
443.24	5790.49
443.43	5797.51
443.61	5877.09
443.80	5942.62
443.98	5841.98
444.17	5584.52
444.35	6031.56
444.54	5987.09
444.73	5834.96
444.91	5937.94
445.10	5802.19
445.28	5930.92
445.47	5877.09
445.65	5975.39
445.84	5769.42
446.02	5865.38
446.21	5970.71
446.39	5956.66
446.58	6101.78
446.77	6139.23
446.95	5860.70
447.14	6076.03
447.32	6139.23
447.51	5998.79
447.69	6129.86
447.88	6057.31
448.06	5980.07
448.25	5970.71
448.43	5888.79
448.62	6017.52
448.80	5977.73
448.99	6094.76
449.17	6190.72
449.36	6200.08
449.54	6162.63
449.73	6101.78
449.91	6373.28
450.10	6319.45
450.28	6286.68
450.46	6431.79
450.65	6553.50
450.83	6483.28
451.02	6588.61
451.20	6581.59
451.39	6511.37
451.57	6525.41
451.76	6527.75
451.94	6513.71
452.13	6621.38
452.31	6637.76
452.49	6321.79
452.68	6562.86
452.86	6637.76
453.05	6841.39
453.23	6736.06
453.42	6686.91
453.60	6480.94
453.78	6604.99
453.97	6677.55
454.15	6717.34
454.34	6637.76
454.52	6787.55
454.70	6794.58
454.89	6853.09
455.07	7016.93
455.26	6808.62
455.44	6977.14
455.62	6981.82
455.81	7045.01
455.99	7033.31
456.17	7094.16
456.36	7075.44
456.54	7197.15
456.73	7337.58
456.91	7265.02
457.09	7213.53
457.28	7541.21
457.46	7206.51
457.64	7470.99
457.83	7187.79
458.01	7468.65
458.19	7405.46
458.38	7375.03
458.56	7520.14
458.74	7548.23
458.93	7468.65
459.11	7522.48
459.29	7410.14
459.48	7433.54
459.66	7527.16
459.84	7581.00
460.03	7857.18
460.21	7658.23
460.39	7545.89
460.57	7686.32
460.76	7906.33
460.94	8112.30
461.12	7740.15
461.31	7819.73
461.49	7906.33
461.67	7812.71
461.85	8138.04
462.04	7880.58
462.22	8046.76
462.40	8126.34
462.59	8147.40
462.77	8013.99
462.95	8124.00
463.13	8107.62
463.32	8161.45
463.50	8210.60
463.68	8339.33
463.86	8124.00
464.05	8292.52
464.23	8234.00
464.41	8259.75
464.59	8116.98
464.78	8510.19
464.96	8334.65
465.14	8182.51
465.32	8322.94
465.50	8435.29
465.69	8554.66
465.87	8521.89
466.05	8528.91
466.23	8411.89
466.41	8245.71
466.60	8734.88
466.78	8318.26
466.96	8299.54
467.14	8425.93
467.32	8702.11
467.51	8587.43
467.69	8475.08
467.87	8688.07
468.05	8819.14
468.23	8676.37
468.41	8737.22
468.60	8585.08
468.78	8889.35
468.96	8816.80
469.14	8837.86
469.32	8830.84
469.50	8844.88
469.69	8931.48
469.87	8889.35
470.05	8957.23
470.23	9041.49
470.41	8870.63
470.59	9083.62
470.77	9121.07
470.95	9125.75
471.14	9202.99
471.32	9111.71
471.50	9317.67
471.68	9362.14
471.86	9387.89
472.04	9479.17
472.22	9607.90
472.40	9434.70
472.58	9523.64
472.77	9469.81
472.95	9525.98
473.13	10012.81
473.31	9666.41
473.49	9631.30
473.67	9764.72
473.85	9820.89
474.03	10047.92
474.21	10057.28
474.39	10001.11
474.57	10171.97
474.75	10258.57
474.93	10375.59
475.12	10319.42
475.30	10347.51
475.48	10394.32
475.66	10424.75
475.84	10265.59
476.02	10396.66
476.20	10480.92
476.38	10604.97
476.56	11063.71
476.74	10979.45
476.92	10857.75
477.10	10808.59
477.28	11061.37
477.46	10932.64
477.64	11133.93
477.82	11166.70
478.00	11503.73
478.18	11487.35
478.36	11445.22
478.54	11616.08
478.72	11613.74
478.90	11763.53
479.08	11974.18
479.26	11929.71
479.44	12020.99
479.62	12093.55
479.80	12163.76
479.98	12407.18
480.16	12470.37
480.34	12194.19
480.52	12678.68
480.70	12538.25
480.88	12491.44
481.06	12688.04
481.24	12940.82
481.41	12835.50
481.59	13329.35
481.77	13226.37
481.95	13142.11
482.13	13369.14
482.31	13324.67
482.49	13647.66
482.67	13415.95
482.85	13811.50
483.03	14022.15
483.21	13848.95
483.39	14277.27
483.57	13963.64
483.74	14253.86
483.92	14443.45
484.10	14391.95
484.28	14193.01
484.46	14876.44
484.64	14817.93
484.82	14888.15
485.00	14918.57
485.18	15346.89
485.35	15150.29
485.53	14902.19
485.71	15070.71
485.89	15449.88
486.07	15117.52
486.25	15389.02
486.43	15744.78
486.61	16016.29
486.78	15756.49
486.96	15936.71
487.14	16273.74
487.32	16482.05
487.50	16606.10
487.68	16816.75
487.85	16987.61
488.03	17132.72
488.21	17228.68
488.39	17099.95
488.57	17287.20
488.75	17530.61
488.92	17460.40
489.10	17652.32
489.28	17874.67
489.46	17928.50
489.64	18087.66
489.81	18532.36
489.99	18700.88
490.17	18658.75
490.35	18658.75
490.53	18600.24
490.70	18780.46
490.88	18815.57
491.06	19316.44
491.24	19000.47
491.41	19269.63
491.59	19328.14
491.77	19091.75
491.95	19569.22
492.13	20095.84
492.30	19995.20
492.48	20198.82
492.66	19915.62
492.84	20299.47
493.01	20552.24
493.19	20446.92
493.37	20559.27
493.54	20891.62
493.72	20905.66
493.90	20517.14
494.08	20975.88
494.25	21188.87
494.43	21528.25
494.61	21371.43
494.79	21195.89
494.96	21298.88
495.14	21902.73
495.32	21947.20
495.49	21682.72
495.67	21528.25
495.85	22410.63
496.02	22394.25
496.20	22614.26
496.38	22373.18
496.55	22422.33
496.73	23281.31
496.91	22895.12
497.09	23164.28
497.26	23323.44
497.44	22857.67
497.62	23393.65
497.79	23496.64
497.97	23421.74
498.14	23763.46
498.32	23648.77
498.50	23541.11
498.67	24130.92
498.85	24037.30
499.03	24442.21
499.20	24456.26
499.38	24418.81
499.56	24519.45
499.73	24762.87
499.91	24795.64
500.08	25055.43
500.26	24226.89
500.44	24659.88
500.61	24936.07
500.79	24816.70
500.97	24900.96
501.14	25532.90
501.32	25228.63
501.49	25366.73
501.67	25415.88
501.84	25507.16
502.02	25532.90
502.20	25549.29
502.37	25935.48
502.55	25949.52
502.72	25916.75
502.90	25841.85
503.07	25982.29
503.25	26354.43
503.43	26167.19
503.60	26178.89
503.78	26216.34
503.95	26569.76
504.13	26455.08
504.30	26487.84
504.48	26274.85
504.65	26576.78
504.83	27283.62
505.01	27225.11
505.18	27087.02
505.36	27672.15
505.53	27372.57
505.71	27555.13
505.88	27566.83
506.06	27278.94
506.23	27524.70
506.41	27379.59
506.58	27679.18
506.76	27658.11
506.93	28144.94
507.11	27915.57
507.28	28360.27
507.46	27534.06
507.63	27896.85
507.81	28020.89
507.98	27978.76
508.16	28287.71
508.33	28474.96
508.50	28390.70
508.68	28676.24
508.85	29355.00
509.03	28863.49
509.20	29144.35
509.38	29010.94
509.55	28940.72
509.73	29244.99
509.90	29230.95
510.08	29261.38
510.25	29266.06
510.42	29364.36
510.60	29390.11
510.77	29390.11
510.95	30029.07
511.12	29930.77
511.30	29806.72
511.47	30361.43
511.64	29954.18
511.82	30199.93
511.99	29804.38
512.17	30366.11
512.34	30218.66
512.51	30546.33
512.69	30850.60
512.86	30604.84
513.04	30714.85
513.21	30801.45
513.38	30726.55
513.56	30665.70
513.73	30485.48
513.90	30955.93
514.08	30972.31
514.25	31197.00
514.43	31016.78
514.60	31016.78
514.77	31136.15
514.95	31412.33
515.12	31517.65
515.29	31365.52
515.47	32004.49
515.64	31791.50
515.81	31487.23
515.99	31850.01
516.16	31850.01
516.33	31814.90
516.51	31800.86
516.68	31154.87
516.85	31686.17
517.03	31768.09
517.20	32144.92
517.37	32009.17
517.54	32240.88
517.72	31672.13
517.89	32088.74
518.06	32271.31
518.24	32217.47
518.41	32285.35
518.58	32823.67
518.75	32783.88
518.93	33081.13
519.10	32528.77
519.27	32708.99
519.45	32739.41
519.62	33294.12
519.79	33277.74
519.96	33127.94
520.14	33509.45
520.31	32957.08
520.48	33488.38
520.65	33216.88
520.83	33663.93
521.00	33766.91
521.17	33380.72
521.34	34115.65
521.52	34122.67
521.69	34007.98
521.86	33731.80
522.03	33649.88
522.20	34115.65
522.38	34218.63
522.55	34249.06
522.72	34565.03
522.89	34181.18
523.07	34448.00
523.24	34305.23
523.41	34649.29
523.58	34855.26
523.75	35426.35
523.92	35023.78
524.10	35005.05
524.27	35218.04
524.44	35035.48
524.61	35292.94
524.78	35049.52
524.96	35143.14
525.13	35735.30
525.30	35604.23
525.47	35910.84
525.64	35618.27
525.81	35749.34
525.98	35335.07
526.16	35433.37
526.33	35555.08
526.50	35824.24
526.67	35138.46
526.84	35302.30
527.01	35489.54
527.18	35814.88
527.36	36294.69
527.53	35945.95
527.70	36023.19
527.87	36388.31
528.04	36055.95
528.21	36240.86
528.38	36355.54
528.55	36840.03
528.72	36708.96
528.89	36767.48
529.07	36786.20
529.24	36622.36
529.41	36456.18
529.58	36208.09
529.75	36238.51
529.92	36943.02
530.09	36418.74
530.26	36765.14
530.43	37291.76
530.60	36732.37
530.77	36533.42
530.94	37317.50
531.11	37106.85
531.28	37120.90
531.46	37432.19
531.63	37411.12
531.80	37177.07
531.97	37317.50
532.14	37483.68
532.31	37432.19
532.48	36833.01
532.65	37600.71
532.82	37326.86
532.99	37764.54
533.16	37649.86
533.33	37832.42
533.50	37909.66
533.67	37514.11
533.84	37612.41
534.01	37921.36
534.18	37876.89
534.35	38408.19
534.52	38082.86
534.69	37919.02
534.86	38237.33
535.03	38036.05
535.20	38616.50
535.37	38895.02
535.54	38459.68
535.71	38356.70
535.88	38550.96
536.05	38440.96
536.22	38450.32
536.38	38534.58
536.55	38490.11
536.72	38323.93
536.89	38452.66
537.06	38614.16
537.23	38677.35
537.40	38850.55
537.57	38682.03
537.74	38888.00
537.91	39150.14
538.08	39117.37
538.25	38712.46
538.42	38742.89
538.59	39253.12
538.75	38918.43
538.92	39173.55
539.09	39000.35
539.26	39456.75
539.43	38635.22
539.60	39138.44
539.77	38944.17
539.94	39503.56
540.11	39344.41
540.28	39344.41
540.44	39438.03
540.61	39325.68
540.78	39098.65
540.95	39576.12
541.12	39208.65
541.29	39360.79
541.46	39634.63
541.62	39295.25
541.79	40392.97
541.96	39826.56
542.13	40156.57
542.30	39772.72
542.47	40201.04
542.63	40201.04
542.80	40341.47
542.97	40596.59
543.14	40528.72
543.31	40507.65
543.48	40570.85
543.64	41177.04
543.81	41069.38
543.98	40893.84
544.15	41060.02
544.32	40954.69
544.48	40999.16
544.65	41186.41
544.82	40612.98
544.99	40814.26
545.16	40608.29
545.32	40701.92
545.49	41193.43
545.66	41478.97
545.83	41240.24
546.00	41478.97
546.16	41312.80
546.33	41095.13
546.50	40545.10
546.67	41394.71
546.83	40928.95
547.00	40921.93
547.17	41273.01
547.34	41247.26
547.50	41375.99
547.67	41647.49
547.84	41085.76
548.00	41780.90
548.17	41539.83
548.34	41045.97
548.51	42054.75
548.67	42117.94
548.84	41785.58
549.01	41689.62
549.18	41579.62
549.34	41668.56
549.51	41682.60
549.68	42024.32
549.84	41769.20
550.01	41993.89
550.18	42026.66
550.34	42162.41
550.51	42134.32
550.68	42155.39
550.84	41553.87
551.01	42232.63
551.18	41792.61
551.34	42174.11
551.51	42197.52
551.68	42457.32
551.84	42288.80
552.01	42204.54
552.18	42464.34
552.34	42295.82
552.51	42270.08
552.68	42225.60
552.84	42733.50
553.01	43119.69
553.18	42532.22
553.34	42117.94
553.51	42363.70
553.67	42600.09
553.84	42579.03
554.01	42452.64
554.17	42976.92
554.34	42841.17
554.51	42918.40
554.67	42754.57
554.84	42567.32
555.00	42724.14
555.17	42717.12
555.33	42958.19
555.50	42405.83
555.67	42724.14
555.83	42604.77
556.00	43054.15
556.16	43009.68
556.33	42731.16
556.50	43180.54
556.66	43281.19
556.83	42597.75
556.99	43257.78
557.16	43419.28
557.32	43452.05
557.49	43421.62
557.65	43295.23
557.82	42728.82
557.98	43255.44
558.15	43047.13
558.32	43075.22
558.48	43154.80
558.65	43262.46
558.81	42831.80
558.98	43491.83
559.14	43166.50
559.31	42649.24
559.47	43421.62
559.64	43367.79
559.80	43746.95
559.97	43454.39
560.13	43208.63
560.30	43274.16
560.46	43302.25
560.63	43814.83
560.79	43763.34
560.96	43505.88
561.12	43655.67
561.29	43580.78
561.45	43463.75
561.61	43559.71
561.78	43473.11
561.94	43569.07
562.11	43583.12
562.27	43274.16
562.44	43384.17
562.60	43559.71
562.77	43833.55
562.93	43470.77
563.10	44135.48
563.26	43065.86
563.42	43791.42
563.59	43782.06
563.75	43351.40
563.92	44240.81
564.08	44039.52
564.24	43957.60
564.41	43922.49
564.57	43723.55
564.74	43950.58
564.90	43899.09
565.07	44041.86
565.23	43784.40
565.39	43973.98
565.56	43894.41
565.72	43838.23
565.88	44067.61
566.05	43615.88
566.21	44009.09
566.38	43833.55
566.54	44238.47
566.70	43973.98
566.87	44449.11
567.03	43908.45
567.19	44542.74
567.36	44037.18
567.52	43948.24
567.68	44011.43
567.85	43744.61
568.01	44210.38
568.17	43915.47
568.34	44210.38
568.50	44404.64
568.66	43737.59
568.83	44381.24
568.99	43941.22
569.15	44067.61
569.32	44500.61
569.48	44076.97
569.64	44519.33
569.81	44643.38
569.97	44486.56
570.13	44502.95
570.30	43878.02
570.46	43761.00
570.62	43758.66
570.78	44336.77
570.95	44048.88
571.11	44247.83
571.27	43915.47
571.43	44486.56
571.60	44364.85
571.76	44013.77
571.92	44236.12
572.09	43973.98
572.25	44339.11
572.41	44217.40
572.57	43817.17
572.74	44463.16
572.90	44406.98
573.06	44374.22
573.22	44615.29
573.38	44421.03
573.55	44369.54
573.71	44713.59
573.87	44261.87
574.03	44250.17
574.20	44348.47
574.36	44243.15
574.52	44112.08
574.68	44091.01
574.84	44109.74
575.01	44472.52
575.17	44151.87
575.33	44062.93
575.49	44011.43
575.65	44416.35
575.82	44392.94
575.98	44243.15
576.14	44921.90
576.30	44839.98
576.46	44374.22
576.62	44339.11
576.79	44655.08
576.95	43866.32
577.11	44299.32
577.27	44502.95
577.43	44491.24
577.59	44591.89
577.75	44474.86
577.92	43863.98
578.08	44067.61
578.24	44088.67
578.40	44367.20
578.56	44776.79
578.72	44589.55
578.88	44706.57
579.04	44423.37
579.21	44769.77
579.37	44507.63
579.53	44411.67
579.69	44128.46
579.85	44582.52
580.01	44318.04
580.17	44772.11
580.33	44636.36
580.49	45010.84
580.65	44795.51
580.82	44432.73
580.98	44058.24
581.14	44594.23
581.30	44835.30
581.46	44664.44
581.62	44074.63
581.78	44701.89
581.94	44556.78
582.10	44502.95
582.26	44783.81
582.42	44437.41
582.58	44376.56
582.74	44304.00
582.90	44680.83
583.06	44788.49
583.22	44626.99
583.38	45029.57
583.54	44877.43
583.70	44519.33
583.86	44411.67
584.02	44018.46
584.18	44783.81
584.34	44378.90
584.50	44591.89
584.66	44610.61
584.82	44851.69
584.98	44737.00
585.14	44650.40
585.30	44364.85
585.46	44355.49
585.62	44907.86
585.78	44399.96
585.94	44158.89
586.10	44109.74
586.26	44296.98
586.42	44706.57
586.58	44594.23
586.74	45095.10
586.90	44545.08
587.06	44474.86
587.22	44711.25
587.38	44495.92
587.54	44444.43
587.70	44961.69
587.86	44694.87
588.02	44802.53
588.18	44650.40
588.34	44641.04
588.49	44542.74
588.65	44004.41
588.81	44311.02
588.97	44732.32
589.13	44191.65
589.29	44463.16
589.45	44830.62
589.61	44467.84
589.77	45006.16
589.93	44456.14
590.08	44722.96
590.24	44748.70
590.40	44804.88
590.56	44748.70
590.72	44842.32
590.88	44692.53
591.04	44964.03
591.20	45258.94
591.35	44783.81
591.51	45109.14
591.67	44910.20
591.83	44891.48
591.99	44624.65
592.15	44416.35
592.31	44964.03
592.46	44713.59
592.62	44631.68
592.78	45064.67
592.94	45020.20
593.10	45020.20
593.26	44973.39
593.41	44809.56
593.57	44772.11
593.73	44421.03
593.89	44931.26
594.05	44580.18
594.20	44868.07
594.36	45001.48
594.52	45095.10
594.68	44924.24
594.84	44428.05
594.99	45132.55
595.15	45071.70
595.31	45102.12
595.47	45277.66
595.62	45144.25
595.78	45251.92
595.94	45083.40
596.10	45598.32
596.25	45123.19
596.41	44842.32
596.57	45193.40
596.73	45024.89
596.88	44715.93
597.04	44760.40
597.20	44676.15
597.36	45003.82
597.51	45125.53
597.67	45081.06
597.83	45048.29
597.99	45287.03
598.14	45521.08
598.30	44755.72
598.46	44982.76
598.61	44898.50
598.77	44842.32
598.93	44786.15
599.09	44610.61
599.24	45478.95
599.40	45083.40
599.56	45174.68
599.71	45069.36
599.87	45361.92
600.03	45167.66
600.18	44706.57
600.34	45088.08
600.50	44580.18
600.65	44861.05
600.81	45502.35
600.97	45312.77
601.12	45333.84
601.28	45118.51
601.44	44919.56
601.59	44685.51
601.75	44460.82
601.91	45228.51
602.06	44587.21
602.22	45017.86
602.37	44729.98
602.53	45202.77
602.69	45216.81
602.84	44957.01
603.00	45141.91
603.16	45205.11
603.31	45090.42
603.47	44800.19
603.62	44891.48
603.78	44839.98
603.94	44554.44
604.09	45193.40
604.25	45125.53
604.40	44832.96
604.56	44641.04
604.71	45202.77
604.87	44839.98
605.03	44657.42
605.18	44940.63
605.34	45024.89
605.49	44254.85
605.65	44512.31
605.80	45130.21
605.96	45139.57
606.12	44863.39
606.27	44849.35
606.43	44952.33
606.58	44701.89
606.74	44587.21
606.89	44952.33
607.05	44802.53
607.20	44935.95
607.36	44573.16
607.51	44842.32
607.67	44587.21
607.82	45127.87
607.98	44458.48
608.13	44999.14
608.29	44692.53
608.44	44596.57
608.60	44418.69
608.75	44289.96
608.91	44439.75
609.06	44226.76
609.22	44673.81
609.37	44315.70
609.53	44533.37
609.68	44701.89
609.84	44519.33
609.99	44966.37
610.15	44568.48
610.30	44334.43
610.46	44505.29
610.61	44287.62
610.76	44158.89
610.92	44626.99
611.07	44849.35
611.23	44491.24
611.38	44690.19
611.54	44388.26
611.69	44456.14
611.84	44261.87
612.00	44037.18
612.15	43924.83
612.31	44376.56
612.46	44004.41
612.62	44498.26
612.77	44044.20
612.92	44502.95
613.08	44170.59
613.23	43887.39
613.39	44203.36
613.54	43604.18
613.69	44313.36
613.85	44053.56
614.00	44175.27
614.15	44271.23
614.31	44210.38
614.46	44289.96
614.62	44041.86
614.77	43878.02
614.92	44196.34
615.08	44444.43
615.23	43995.05
615.38	43660.35
615.54	43388.85
615.69	43538.65
615.84	43578.43
616.00	43704.82
616.15	43669.72
616.30	44287.62
616.46	43473.11
616.61	43157.14
616.76	43342.04
616.92	43005.00
617.07	43608.86
617.22	42955.85
617.37	43402.89
617.53	43768.02
617.68	43749.29
617.83	43615.88
617.99	43728.23
618.14	43761.00
618.29	43194.59
618.45	42925.42
618.60	43232.04
618.75	43440.34
618.90	43185.22
619.06	43566.73
619.21	43454.39
619.36	43615.88
619.51	43217.99
619.67	43564.39
619.82	43515.24
619.97	43391.19
620.12	43679.08
620.28	42918.40
620.43	43037.77
620.58	43496.52
620.73	42909.04
620.89	42972.24
621.04	43173.52
621.19	43229.69
621.34	42995.64
621.49	42918.40
621.65	42927.77
621.80	42728.82
621.95	42635.20
622.10	42529.87
622.25	42990.96
622.41	42426.89
622.56	42656.26
622.71	42714.78
622.86	43021.39
623.01	42792.01
623.16	42679.67
623.32	42586.05
623.47	42845.85
623.62	42281.78
623.77	42476.04
623.92	42747.54
624.07	42527.53
624.23	42349.65
624.38	42340.29
624.53	42373.06
624.68	42569.66
624.83	42742.86
624.98	42211.56
625.13	42113.26
625.29	42225.60
625.44	41949.42
625.59	41949.42
625.74	41539.83
625.89	42066.45
626.04	42113.26
626.19	41979.85
626.34	42045.38
626.49	41951.76
626.65	42426.89
626.80	42438.59
626.95	42616.47
627.10	41706.01
627.25	42021.98
627.40	41684.94
627.55	41771.54
627.70	41155.98
627.85	41605.36
628.00	41326.84
628.15	41764.52
628.30	41511.74
628.45	41645.15
628.60	41500.04
628.76	41869.84
628.91	41706.01
629.06	41914.31
629.21	41731.75
629.36	41600.68
629.51	41310.46
629.66	41677.92
629.81	41394.71
629.96	41240.24
630.11	41069.38
630.26	41413.44
630.41	41848.78
630.56	41542.17
630.71	41666.22
630.86	41242.58
631.01	41240.24
631.16	41673.24
631.31	40783.83
631.46	41127.89
631.61	41574.94
631.76	40699.58
631.91	40931.29
632.06	41235.56
632.21	41638.13
632.36	41338.54
632.51	40804.90
632.66	41099.81
632.81	40755.75
632.96	40720.64
633.10	40828.30
633.25	41090.44
633.40	41118.53
633.55	40851.71
633.70	40926.61
633.85	40399.99
634.00	40701.92
634.15	40947.67
634.30	40669.15
634.45	40725.32
634.60	40411.69
634.75	40964.06
634.90	40711.28
635.05	40362.54
635.19	40449.14
635.34	40849.37
635.49	40418.71
635.64	40601.27
635.79	40367.22
635.94	40179.98
636.09	40357.86
636.24	40184.66
636.39	39962.31
636.53	40060.61
636.68	40027.84
636.83	40144.87
636.98	40708.94
637.13	40004.44
637.28	40081.67
637.43	40472.54
637.57	40161.25
637.72	40130.83
637.87	40165.93
638.02	40151.89
638.17	40069.97
638.32	40285.30
638.46	39847.62
638.61	40196.36
638.76	39674.42
638.91	39852.30
639.06	39887.41
639.20	39941.24
639.35	39981.03
639.50	40004.44
639.65	40531.06
639.80	40201.04
639.94	39552.71
640.09	39658.04
640.24	39419.30
640.39	39496.54
640.54	39784.43
640.68	39412.28
640.83	39868.69
640.98	39754.00
641.13	39541.01
641.27	39878.05
641.42	39749.32
641.57	39091.63
641.72	39112.69
641.86	38885.66
642.01	38951.20
642.16	39070.56
642.31	38897.36
642.45	39435.69
642.60	39255.46
642.75	39304.62
642.90	38986.30
643.04	39316.32
643.19	39110.35
643.34	39037.80
643.48	38679.69
643.63	38939.49
643.78	38588.41
643.93	38382.45
644.07	38838.85
644.22	38696.08
644.37	38675.01
644.51	38789.70
644.66	38869.28
644.81	39234.40
644.95	38801.40
645.10	38920.77
645.25	38522.88
645.39	38878.64
645.54	39044.82
645.69	39000.35
645.83	38658.63
645.98	38820.13
646.13	38574.37
646.27	38895.02
646.42	38677.35
646.57	38689.06
646.71	38642.24
646.86	38714.80
647.00	38672.67
647.15	38836.51
647.30	38869.28
647.44	38398.83
647.59	38684.37
647.74	38476.07
647.88	38249.03
648.03	38354.36
648.17	38684.37
648.32	38429.26
648.47	38408.19
648.61	38162.43
648.76	38005.62
648.90	38429.26
649.05	38197.54
649.20	38515.86
649.34	38178.82
649.49	38080.52
649.63	37968.17
649.78	37900.29
649.92	38071.15
650.07	37970.51
650.21	37958.81
650.36	37888.59
650.51	38197.54
650.65	38511.17
650.80	38279.46
650.94	37820.72
651.09	37865.19
651.23	38064.13
651.38	37989.24
651.52	37542.19
651.67	37916.68
651.81	37579.64
651.96	37338.57
652.10	37558.58
652.25	37329.20
652.39	37624.11
652.54	37888.59
652.68	37830.08
652.83	37930.72
652.97	37542.19
653.12	37263.67
653.26	36954.72
653.41	37656.88
653.55	37464.96
653.70	36959.40
653.84	37441.55
653.99	37479.00
654.13	37184.09
654.27	37368.99
654.42	36849.39
654.56	37029.62
654.71	37163.03
654.85	37455.59
655.00	37333.89
655.14	36971.10
655.29	36905.57
655.43	36620.02
655.57	36671.51
655.72	36418.74
655.86	36247.88
656.01	36713.64
656.15	36868.12
656.30	36851.73
656.44	36711.30
656.58	36772.16
656.73	36458.52
656.87	36460.87
657.01	36449.16
657.16	37106.85
657.30	36582.57
657.45	36226.81
657.59	36676.19
657.73	36554.49
657.88	36786.20
658.02	36793.22
658.16	36886.84
658.31	36971.10
658.45	36411.71
658.60	36676.19
658.74	37029.62
658.88	36388.31
659.03	36072.34
659.17	36074.68
659.31	36168.30
659.46	35950.63
659.60	36304.05
659.74	36142.55
659.89	36212.77
660.03	36308.73
660.17	35798.49
660.32	35852.33
660.46	36350.86
660.60	35744.66
660.74	35723.60
660.89	35999.78
661.03	35426.35
661.17	35683.81
661.32	35768.07
661.46	35580.82
661.60	35372.52
661.74	35548.06
661.89	35587.85
662.03	35739.98
662.17	35611.25
662.31	35236.77
662.46	35166.55
662.60	35510.61
662.74	35314.00
662.88	35119.74
663.03	35428.69
663.17	35482.52
663.31	34642.27
663.45	34759.30
663.60	34951.22
663.74	34597.80
663.88	35175.91
664.02	35051.86
664.17	34590.78
664.31	34843.56
664.45	34525.24
664.59	34824.83
664.73	34487.79
664.88	34403.53
665.02	34174.16
665.16	34204.59
665.30	34150.76
665.44	34501.84
665.59	34244.38
665.73	33991.60
665.87	33951.81
666.01	34216.29
666.15	33757.55
666.29	33954.15
666.44	34103.95
666.58	33855.85
666.72	34036.07
666.86	34094.58
667.00	33977.56
667.14	33605.41
667.28	33322.21
667.43	33425.19
667.57	33525.83
667.71	33401.79
667.85	33708.40
667.99	33511.79
668.13	33453.28
668.27	33413.49
668.41	33490.73
668.56	32783.88
668.70	32964.10
668.84	33263.69
668.98	33179.43
669.12	32769.84
669.26	32865.80
669.40	32449.19
669.54	32512.38
669.68	33085.81
669.82	32472.59
669.96	32786.22
670.10	32451.53
670.25	32957.08
670.39	32727.71
670.53	31999.80
670.67	32109.81
670.81	32481.95
670.95	32488.98
671.09	32116.83
671.23	31995.12
671.37	32182.37
671.51	32079.38
671.65	31587.87
671.79	31693.19
671.93	31655.75
672.07	32006.83
672.21	31887.46
672.35	31442.76
672.49	31583.19
672.63	31697.88
672.77	31487.23
672.91	31218.07
673.05	31608.93
673.19	31370.20
673.33	31105.72
673.47	31185.30
673.61	30911.46
673.75	30768.68
673.89	30761.66
674.03	30775.70
674.17	30920.82
674.31	30920.82
674.45	30836.56
674.59	30682.08
674.73	31271.90
674.87	30529.95
675.01	30529.95
675.15	30480.80
675.29	30206.95
675.43	30511.22
675.56	30433.99
675.70	30139.08
675.84	29902.68
675.98	28975.83
676.12	30068.86
676.26	29860.55
676.40	29778.64
676.54	29539.90
676.68	29792.68
676.82	29186.48
676.96	29413.51
677.10	29259.04
677.23	29439.26
677.37	29116.26
677.51	29041.37
677.65	28940.72
677.79	28474.96
677.93	28912.64
678.07	28325.16
678.21	28205.80
678.34	28435.17
678.48	28180.05
678.62	28142.60
678.76	27962.38
678.90	28058.34
679.04	27969.40
679.18	27899.19
679.31	27744.71
679.45	27714.28
679.59	27557.47
679.73	27288.31
679.87	27328.10
680.00	27150.21
680.14	27164.26
680.28	27349.16
680.42	27096.38
680.56	27489.59
680.70	27168.94
680.83	27213.41
680.97	26925.52
681.11	26801.47
681.25	26691.47
681.39	26492.52
681.52	26876.37
681.66	26319.32
681.80	26845.94
681.94	26806.16
682.07	26459.76
682.21	26242.09
682.35	26080.59
682.49	26235.06
682.62	25965.90
682.76	25736.53
682.90	26019.74
683.04	25575.03
683.17	25523.54
683.31	25289.49
683.45	25481.41
683.59	25308.21
683.72	25127.99
683.86	24996.92
684.00	25226.29
684.13	24826.06
684.27	24940.75
684.41	24957.13
684.55	24348.59
684.68	24636.48
684.82	24987.56
684.96	24680.95
685.09	24641.16
685.23	24395.40
685.37	24568.60
685.50	24098.16
685.64	24156.67
685.78	23702.61
685.91	23730.69
686.05	23854.74
686.19	23484.94
686.32	23608.98
686.46	23051.94
686.60	22988.74
686.73	22991.08
686.87	23140.88
687.01	23501.32
687.14	22836.61
687.28	22740.64
687.42	22766.39
687.55	23058.96
687.69	22855.33
687.82	22721.92
687.96	22970.02
688.10	23065.98
688.23	22412.97
688.37	22675.11
688.50	22092.32
688.64	22335.73
688.78	22178.92
688.91	22221.05
689.05	22150.83
689.18	21757.62
689.32	21284.83
689.46	21881.67
689.59	21841.88
689.73	21982.31
689.86	21647.61
690.00	21671.02
690.13	21371.43
690.27	21317.60
690.41	21341.00
690.54	21048.44
690.68	20987.58
690.81	20915.03
690.95	20608.42
691.08	20617.78
691.22	20648.21
691.35	20905.66
691.49	20613.10
691.62	20849.49
691.76	20166.06
691.89	20121.59
692.03	20262.02
692.16	20269.04
692.30	20177.76
692.43	20184.78
692.57	19786.89
692.70	19878.17
692.84	19723.69
692.97	19360.91
693.11	19700.29
693.24	19562.20
693.38	19484.96
693.51	19541.13
693.65	19763.48
693.78	19358.57
693.92	19381.98
694.05	19260.27
694.19	18970.04
694.32	18820.25
694.45	18916.21
694.59	18635.35
694.72	18469.17
694.86	18743.01
694.99	18401.29
695.13	18703.22
695.26	18319.37
695.39	18263.20
695.53	18415.34
695.66	18122.77
695.80	18436.40
695.93	18092.34
696.07	17888.71
696.20	18061.91
696.33	18038.51
696.47	17778.71
696.60	17809.14
696.73	17593.81
696.87	17563.38
697.00	17785.73
697.14	17238.05
697.27	17523.59
697.40	17394.86
697.54	17315.28
697.67	17331.67
697.80	17273.15
697.94	16765.26
698.07	16893.99
698.21	17001.65
698.34	16664.61
698.47	16458.65
698.61	16346.30
698.74	16203.53
698.87	16587.38
699.01	16243.32
699.14	16058.42
699.27	16023.31
699.40	16121.61
699.54	15915.64
699.67	15770.53
699.80	15800.96
699.94	15721.38
700.07	15941.39
700.20	15630.10
700.34	15627.76
700.47	15754.15
700.60	15548.18
700.73	15922.66
700.87	15653.50
701.00	15440.51
701.13	15281.36
701.26	15461.58
701.40	15101.14
701.53	15066.03
701.66	15077.73
701.79	14750.06
701.93	14944.32
702.06	14794.53
702.19	14712.61
702.32	14544.09
702.46	14649.41
702.59	14607.28
702.72	14560.47
702.85	14511.32
702.99	14670.48
703.12	14532.39
703.25	14340.46
703.38	14026.83
703.51	14148.54
703.65	14258.54
703.78	14078.32
703.91	13881.72
704.04	14134.50
704.17	13902.78
704.31	14008.11
704.44	13650.00
704.57	13586.81
704.70	13425.31
704.83	13252.11
704.96	13598.51
705.10	13731.92
705.23	13432.33
>>>>>End Processed Spectral Data<<<<<
