SpectraSuite Data File
++++++++++++++++++++++++++++++++++++
Date: Fri Oct 25 10:43:55 EDT 2013
User: price-jones
Dark Spectrum Present: No
Reference Spectrum Present: No
Number of Sampled Component Spectra: 1
Spectrometers: USB2+H05261
Integration Time (usec): 100000 (USB2+H05261)
Spectra Averaged: 1 (USB2+H05261)
Boxcar Smoothing: 0 (USB2+H05261)
Correct for Electrical Dark: No (USB2+H05261)
Strobe/Lamp Enabled: No (USB2+H05261)
Correct for Detector Non-linearity: No (USB2+H05261)
Correct for Stray Light: No (USB2+H05261)
Number of Pixels in Processed Spectrum: 2048
>>>>>Begin Processed Spectral Data<<<<<
365.73	133.41
365.92	133.41
366.12	133.41
366.32	0.00
366.52	9.36
366.72	23.41
366.91	49.15
367.11	105.32
367.31	25.75
367.51	32.77
367.70	39.79
367.90	21.06
368.10	84.26
368.30	32.77
368.49	25.75
368.69	126.39
368.89	39.79
369.09	56.17
369.28	49.15
369.48	25.75
369.68	102.98
369.87	84.26
370.07	30.43
370.27	170.86
370.47	124.05
370.66	397.89
370.86	465.77
371.06	505.56
371.25	465.77
371.45	528.96
371.65	463.43
371.84	404.91
372.04	461.09
372.24	468.11
372.44	421.30
372.63	538.32
372.83	545.34
373.03	559.39
373.22	521.94
373.42	578.11
373.62	601.52
373.81	517.26
374.01	521.94
374.21	543.00
374.40	538.32
374.60	641.31
374.79	566.41
374.99	564.07
375.19	634.29
375.38	566.41
375.58	613.22
375.78	634.29
375.97	589.82
376.17	674.07
376.37	690.46
376.56	676.41
376.76	629.60
376.95	610.88
377.15	650.67
377.35	636.63
377.54	664.71
377.74	634.29
377.93	692.80
378.13	699.82
378.33	748.97
378.52	638.97
378.72	709.18
378.91	697.48
379.11	657.69
379.31	648.33
379.50	599.18
379.70	709.18
379.89	720.88
380.09	627.26
380.28	720.88
380.48	711.52
380.68	713.86
380.87	699.82
381.07	699.82
381.26	718.54
381.46	706.84
381.65	746.63
381.85	695.14
382.04	734.93
382.24	758.33
382.43	770.04
382.63	725.57
382.83	720.88
383.02	800.46
383.22	842.59
383.41	744.29
383.61	763.01
383.80	840.25
384.00	814.51
384.19	748.97
384.39	770.04
384.58	833.23
384.78	807.48
384.97	898.77
385.17	819.19
385.36	863.66
385.56	791.10
385.75	826.21
385.95	828.55
386.14	908.13
386.34	830.89
386.53	835.57
386.72	854.30
386.92	912.81
387.11	882.38
387.31	931.53
387.50	805.14
387.70	912.81
387.89	898.77
388.09	870.68
388.28	863.66
388.48	959.62
388.67	945.58
388.86	1029.84
389.06	980.68
389.25	1062.60
389.45	1078.99
389.64	976.00
389.84	1048.56
390.03	1067.28
390.22	1078.99
390.42	1004.09
390.61	1039.20
390.81	1093.03
391.00	1104.73
391.19	1097.71
391.39	1142.18
391.58	1032.18
391.78	1025.15
391.97	1156.22
392.16	1111.75
392.36	1132.82
392.55	1036.86
392.75	1055.58
392.94	1078.99
393.13	1057.92
393.33	1062.60
393.52	1109.41
393.71	1151.54
393.91	1207.72
394.10	1186.65
394.29	1256.87
394.49	1177.29
394.68	1296.66
394.88	1301.34
395.07	1214.74
395.26	1324.74
395.46	1299.00
395.65	1310.70
395.84	1282.61
396.04	1357.51
396.23	1249.85
396.42	1210.06
396.62	1261.55
396.81	1142.18
397.00	1345.81
397.19	1378.58
397.39	1378.58
397.58	1406.66
397.77	1371.55
397.97	1500.28
398.16	1558.80
398.35	1570.50
398.55	1460.49
398.74	1582.20
398.93	1558.80
399.12	1607.95
399.32	1598.59
399.51	1523.69
399.70	1652.42
399.90	1619.65
400.09	1668.80
400.28	1734.34
400.47	1788.17
400.67	1753.06
400.86	1643.06
401.05	1717.95
401.24	1776.47
401.44	1624.33
401.63	1816.26
401.82	1748.38
402.01	1771.79
402.21	1865.41
402.40	1839.66
402.59	1846.68
402.78	1774.13
402.97	1842.00
403.17	1902.86
403.36	1891.15
403.55	1952.01
403.74	1827.96
403.93	1977.75
404.13	1982.43
404.32	1982.43
404.51	2024.56
404.70	1942.64
404.89	2012.86
405.09	2062.01
405.28	1907.54
405.47	2050.31
405.66	2054.99
405.85	2078.40
406.05	2111.16
406.24	2106.48
406.43	2160.31
406.62	2188.40
406.81	2223.51
407.00	2115.84
407.20	2211.81
407.39	2197.76
407.58	2195.42
407.77	2223.51
407.96	2260.96
408.15	2387.35
408.34	2303.09
408.54	2366.28
408.73	2366.28
408.92	2509.05
409.11	2387.35
409.30	2335.85
409.49	2347.56
409.68	2375.64
409.87	2513.74
410.07	2422.45
410.26	2490.33
410.45	2551.18
410.64	2572.25
410.83	2754.81
411.02	2633.10
411.21	2773.53
411.40	2740.77
411.59	2719.70
411.78	2719.70
411.98	2745.45
412.17	2775.88
412.36	2548.84
412.55	2810.98
412.74	2839.07
412.93	2825.03
413.12	2815.66
413.31	3070.78
413.50	2883.54
413.69	3026.31
413.88	3199.51
414.07	3038.02
414.26	2991.20
414.45	3206.53
414.64	3272.07
414.83	3112.91
415.02	3241.64
415.22	3178.45
415.41	3318.88
415.60	3410.16
415.79	3304.84
415.98	3405.48
416.17	3365.69
416.36	3386.76
416.55	3433.57
416.74	3531.87
416.93	3424.20
417.12	3487.40
417.31	3534.21
417.50	3478.04
417.69	3630.17
417.88	3604.42
418.07	3548.25
418.26	3562.30
418.45	3597.40
418.64	3672.30
418.83	3791.67
419.02	3651.24
419.21	3786.99
419.39	3716.77
419.58	3761.24
419.77	3653.58
419.96	3782.31
420.15	3946.14
420.34	3854.86
420.53	3901.67
420.72	4049.13
420.91	3932.10
421.10	4177.86
421.29	4142.75
421.48	3948.48
421.67	3904.01
421.86	4002.32
422.05	3939.12
422.24	3875.93
422.43	3859.54
422.61	3922.74
422.80	3971.89
422.99	3971.89
423.18	4114.66
423.37	4201.26
423.56	4166.15
423.75	4023.38
423.94	4072.53
424.13	3894.65
424.32	3808.05
424.50	4086.58
424.69	4180.20
424.88	4053.81
425.07	4067.85
425.26	3960.19
425.45	4173.18
425.64	3950.82
425.83	4222.33
426.01	4142.75
426.20	4114.66
426.39	4140.41
426.58	4215.30
426.77	4184.88
426.96	4229.35
427.15	4093.60
427.33	4170.83
427.52	4198.92
427.71	4301.90
427.90	4348.72
428.09	4133.39
428.28	4348.72
428.46	4276.16
428.65	4196.58
428.84	4367.44
429.03	4573.41
429.22	4283.18
429.40	4264.46
429.59	4393.19
429.78	4124.02
429.97	4039.76
430.16	4142.75
430.34	4259.78
430.53	4266.80
430.72	4287.86
430.91	4430.63
431.10	4578.09
431.28	4800.44
431.47	4720.86
431.66	4840.23
431.85	4587.45
432.03	4833.21
432.22	4912.78
432.41	4835.55
432.60	4865.97
432.79	5048.54
432.97	4940.87
433.16	4875.34
433.35	4798.10
433.54	4830.87
433.72	4753.63
433.91	4830.87
434.10	4917.47
434.28	4901.08
434.47	5036.83
434.66	5029.81
434.85	5268.55
435.03	5081.30
435.22	5172.58
435.41	5305.99
435.59	5275.57
435.78	5408.98
435.97	5378.55
436.16	5284.93
436.34	5371.53
436.53	5430.04
436.72	5540.05
436.90	5385.57
437.09	5280.25
437.28	5268.55
437.46	5392.59
437.65	5416.00
437.84	5338.76
438.02	5423.02
438.21	5371.53
438.40	5322.38
438.58	5600.90
438.77	5664.10
438.96	5533.03
439.14	5799.85
439.33	5764.74
439.52	5874.74
439.70	5743.67
439.89	5909.85
440.08	5944.96
440.26	5968.37
440.45	6033.90
440.63	5900.49
440.82	6230.51
441.01	6078.37
441.19	6340.51
441.38	6392.00
441.57	6256.25
441.75	6408.39
441.94	6434.13
442.12	6562.86
442.31	6572.22
442.50	6679.89
442.68	6516.05
442.87	6607.33
443.05	6656.48
443.24	6707.98
443.43	6693.93
443.61	6853.09
443.80	7042.67
443.98	6668.19
444.17	6459.88
444.35	6829.68
444.54	6855.43
444.73	6881.18
444.91	6848.41
445.10	6780.53
445.28	6644.78
445.47	6750.10
445.65	6651.80
445.84	6890.54
446.02	6930.33
446.21	6906.92
446.39	6909.26
446.58	6803.94
446.77	7040.33
446.95	6792.23
447.14	6960.75
447.32	7199.49
447.51	6834.36
447.69	6906.92
447.88	7000.54
448.06	6951.39
448.25	7084.80
448.43	7016.93
448.62	7049.69
448.80	7040.33
448.99	7187.79
449.17	7187.79
449.36	7215.87
449.54	7206.51
449.73	7520.14
449.91	7489.71
450.10	7597.38
450.28	7576.31
450.46	7499.08
450.65	7276.73
450.83	7611.42
451.02	7606.74
451.20	7524.82
451.39	7609.08
451.57	7559.93
451.76	7417.16
451.94	7513.12
452.13	7726.11
452.31	7393.75
452.49	7564.61
452.68	7564.61
452.86	7396.09
453.05	7573.97
453.23	7639.51
453.42	7665.25
453.60	7466.31
453.78	7691.00
453.97	7686.32
454.15	7698.02
454.34	7634.83
454.52	7882.92
454.70	7747.17
454.89	8009.31
455.07	7962.50
455.26	7868.88
455.44	8081.87
455.62	8112.30
455.81	8039.74
455.99	8105.28
456.17	8203.58
456.36	8147.40
456.54	8196.56
456.73	8369.76
456.91	8521.89
457.09	8273.79
457.28	8575.72
457.46	8273.79
457.64	8648.28
457.83	8531.25
458.01	8540.61
458.19	8519.55
458.38	8362.73
458.56	8601.47
458.74	8521.89
458.93	8554.66
459.11	8730.20
459.29	8662.32
459.48	8718.50
459.66	8500.83
459.84	8753.60
460.03	8870.63
460.21	9011.06
460.39	8765.31
460.57	8924.46
460.76	9069.58
460.94	9006.38
461.12	8793.39
461.31	9069.58
461.49	8751.26
461.67	8882.33
461.85	9312.99
462.04	9179.58
462.22	9481.51
462.40	9104.68
462.59	9146.81
462.77	9263.84
462.95	9441.72
463.13	9341.08
463.32	9490.87
463.50	9551.73
463.68	9228.73
463.86	9193.62
464.05	9240.44
464.23	9273.20
464.41	9490.87
464.59	9193.62
464.78	9437.04
464.96	9329.38
465.14	9535.34
465.32	9525.98
465.50	9666.41
465.69	9729.61
465.87	9537.68
466.05	9696.84
466.23	9551.73
466.41	9605.56
466.60	9638.33
466.78	9708.54
466.96	9603.22
467.14	9626.62
467.32	9811.53
467.51	9762.37
467.69	9708.54
467.87	9731.95
468.05	9982.38
468.23	9753.01
468.41	9760.03
468.60	10022.17
468.78	9998.77
468.96	9853.66
469.14	10132.18
469.32	10207.08
469.50	9703.86
469.69	10019.83
469.87	10258.57
470.05	10270.27
470.23	10260.91
470.41	10083.03
470.59	10345.17
470.77	10207.08
470.95	10609.65
471.14	10773.49
471.32	10445.81
471.50	10675.18
471.68	10766.46
471.86	10691.57
472.04	10846.04
472.22	10855.40
472.40	10672.84
472.58	10509.01
472.77	10834.34
472.95	10902.22
473.13	11257.98
473.31	11002.86
473.49	10672.84
473.67	10874.13
473.85	11150.31
474.03	11164.36
474.21	11300.11
474.39	11578.63
474.57	11723.74
474.75	11578.63
474.93	11999.93
475.12	11520.12
475.30	11587.99
475.48	11749.49
475.66	11674.59
475.84	11992.90
476.02	11829.07
476.20	11974.18
476.38	12023.33
476.56	12182.49
476.74	12306.54
476.92	12159.08
477.10	12505.48
477.28	12589.74
477.46	12400.16
477.64	12662.30
477.82	12989.97
478.00	13109.34
478.18	12987.63
478.36	12912.74
478.54	13437.02
478.72	13362.12
478.90	13371.48
479.08	13371.48
479.26	13881.72
479.44	13741.29
479.62	13589.15
479.80	13855.97
479.98	14115.77
480.16	13987.04
480.34	14040.87
480.52	14506.64
480.70	14555.79
480.88	14097.05
481.06	14155.56
481.24	14590.90
481.41	14817.93
481.59	14925.60
481.77	15000.49
481.95	15040.28
482.13	15386.68
482.31	15014.54
482.49	15807.98
482.67	15424.13
482.85	15447.54
483.03	15800.96
483.21	15634.78
483.39	15742.44
483.57	15803.30
483.74	15927.35
483.92	16266.72
484.10	16126.29
484.28	16421.20
484.46	16816.75
484.64	17069.53
484.82	16615.46
485.00	16952.50
485.18	17111.66
485.35	17256.77
485.53	16992.29
485.71	16578.01
485.89	16779.30
486.07	16940.80
486.25	17205.28
486.43	17668.70
486.61	17657.00
486.78	18108.72
486.96	17879.35
487.14	18511.30
487.32	18396.61
487.50	18630.66
487.68	18712.58
487.85	18822.59
488.03	19108.13
488.21	19414.74
488.39	18885.78
488.57	19159.63
488.75	19344.53
488.92	19819.66
489.10	20070.09
489.28	20121.59
489.46	20493.73
489.64	20484.37
489.81	20662.25
489.99	20718.42
490.17	21106.95
490.35	21223.98
490.53	21104.61
490.70	21188.87
490.88	21303.56
491.06	21465.05
491.24	21425.26
491.41	21177.17
491.59	21394.84
491.77	21923.80
491.95	21722.51
492.13	21745.92
492.30	22530.00
492.48	22590.85
492.66	22684.47
492.84	22530.00
493.01	23047.26
493.19	22855.33
493.37	23168.96
493.54	23000.44
493.72	23388.97
493.90	23482.59
494.08	23880.49
494.25	23903.89
494.43	24018.58
494.61	24222.20
494.79	24266.67
494.96	24283.06
495.14	24458.60
495.32	24788.61
495.49	24533.50
495.67	24805.00
495.85	24587.33
496.02	25008.62
496.20	25223.95
496.38	25043.73
496.55	25312.89
496.73	25731.85
496.91	26024.42
497.09	25909.73
497.26	26284.22
497.44	25722.49
497.62	26415.29
497.79	26225.70
497.97	26005.69
498.14	26309.96
498.32	26235.06
498.50	26618.91
498.67	26881.05
498.85	26466.78
499.03	26920.84
499.20	27276.60
499.38	27105.74
499.56	27152.55
499.73	27290.65
499.91	27435.76
500.08	27484.91
500.26	27255.54
500.44	27288.31
500.61	27903.87
500.79	27578.53
500.97	27648.75
501.14	28189.41
501.32	27768.12
501.49	28130.90
501.67	28304.10
501.84	27990.47
502.02	28278.35
502.20	28339.21
502.37	28886.89
502.55	28350.91
502.72	29298.83
502.90	28655.18
503.07	28739.44
503.25	29371.38
503.43	29202.86
503.60	28868.17
503.78	28929.02
503.95	29188.82
504.13	29549.26
504.30	29621.82
504.48	29425.22
504.65	30071.20
504.83	29703.74
505.01	29921.41
505.18	29898.00
505.36	30595.48
505.53	30422.28
505.71	30391.86
505.88	30593.14
506.06	30663.36
506.23	30752.30
506.41	30579.10
506.58	30752.30
506.76	30829.54
506.93	31133.81
507.11	30944.22
507.28	30801.45
507.46	31108.06
507.63	31040.18
507.81	31075.29
507.98	31129.12
508.16	31763.41
508.33	31569.15
508.50	32032.57
508.68	32006.83
508.85	32142.58
509.03	31826.60
509.20	31573.83
509.38	32180.03
509.55	32374.29
509.73	32446.85
509.90	32460.89
510.08	32264.28
510.25	32238.54
510.42	32348.54
510.60	32659.84
510.77	32856.44
510.95	33020.28
511.12	32790.91
511.30	32945.38
511.47	33333.91
511.64	33415.83
511.82	33776.27
511.99	32816.65
512.17	33462.64
512.34	32884.53
512.51	33869.89
512.69	33827.76
512.86	33692.01
513.04	34078.20
513.21	33804.36
513.38	33556.26
513.56	33890.96
513.73	33916.70
513.90	34089.90
514.08	33958.83
514.25	34450.35
514.43	34178.84
514.60	33900.32
514.77	34567.37
514.95	34677.38
515.12	34410.56
515.29	34745.25
515.47	34909.09
515.64	34911.43
515.81	34675.04
515.99	34796.74
516.16	34778.02
516.33	34396.51
516.51	34639.93
516.68	34125.01
516.85	34146.08
517.03	34459.71
517.20	34998.03
517.37	35166.55
517.54	35360.81
517.72	35250.81
517.89	34756.96
518.06	34724.19
518.24	34930.16
518.41	34845.90
518.58	35370.18
518.75	35246.13
518.93	35791.47
519.10	35864.03
519.27	35854.67
519.45	35967.01
519.62	36311.07
519.79	36275.96
519.96	36114.47
520.14	36830.67
520.31	36488.95
520.48	36383.63
520.65	36598.96
520.83	36903.23
521.00	36840.03
521.17	36861.10
521.34	36730.03
521.52	37078.77
521.69	37144.30
521.86	37493.04
522.03	37333.89
522.20	37600.71
522.38	37450.91
522.55	37205.16
522.72	37514.11
522.89	37289.42
523.07	37797.31
523.24	37600.71
523.41	38185.84
523.58	38106.26
523.75	38359.04
523.92	37951.79
524.10	38408.19
524.27	38682.03
524.44	38139.03
524.61	38082.86
524.78	38504.15
524.96	38494.79
525.13	38773.31
525.30	38979.28
525.47	38415.21
525.64	38593.09
525.81	38675.01
525.98	38625.86
526.16	38124.99
526.33	38394.15
526.50	38237.33
526.67	38040.73
526.84	38370.74
527.01	38387.13
527.18	38621.18
527.36	39007.37
527.53	39416.96
527.70	39426.32
527.87	39243.76
528.04	39445.05
528.21	39615.91
528.38	39714.21
528.55	39629.95
528.72	39835.92
528.89	40318.07
529.07	39899.11
529.24	39913.16
529.41	39903.79
529.58	39440.37
529.75	39805.49
529.92	40348.50
530.09	40105.08
530.26	40257.21
530.43	40273.60
530.60	40243.17
530.77	40542.76
530.94	40914.90
531.11	40790.86
531.28	40423.39
531.46	40748.73
531.63	40521.69
531.80	40566.16
531.97	40280.62
532.14	40383.60
532.31	39976.35
532.48	40449.14
532.65	41202.79
532.82	40538.08
532.99	40603.61
533.16	40547.44
533.33	40851.71
533.50	40769.79
533.67	41315.14
533.84	40755.75
534.01	41111.51
534.18	40933.63
534.35	41443.87
534.52	41198.11
534.69	41832.39
534.86	42036.02
535.03	41675.58
535.20	41923.68
535.37	41949.42
535.54	42143.69
535.71	41450.89
535.88	41883.89
536.05	41406.42
536.22	42108.58
536.38	41895.59
536.55	41495.36
536.72	42057.09
536.89	41813.67
537.06	41801.97
537.23	42012.62
537.40	42389.44
537.57	42108.58
537.74	42115.60
537.91	42569.66
538.08	42684.35
538.25	42127.30
538.42	42387.10
538.59	42351.99
538.75	41968.15
538.92	42162.41
539.09	42408.17
539.26	42234.97
539.43	42600.09
539.60	42249.01
539.77	42120.28
539.94	42099.22
540.11	42328.59
540.28	42539.24
540.44	42567.32
540.61	42511.15
540.78	42511.15
540.95	42110.92
541.12	42824.78
541.29	42595.41
541.46	42644.56
541.62	42873.93
541.79	43489.49
541.96	42160.07
542.13	43054.15
542.30	42635.20
542.47	42726.48
542.63	42920.74
542.80	43016.71
542.97	43573.75
543.14	43889.73
543.31	43749.29
543.48	43641.63
543.64	43920.15
543.81	43840.57
543.98	43889.73
544.15	43856.96
544.32	44243.15
544.48	44460.82
544.65	44105.06
544.82	44231.44
544.99	43856.96
545.16	44203.36
545.32	43737.59
545.49	44524.01
545.66	44479.54
545.83	44495.92
546.00	44301.66
546.16	43917.81
546.33	44205.70
546.50	44268.89
546.67	44282.94
546.83	43669.72
547.00	44149.53
547.17	43681.42
547.34	44238.47
547.50	44163.57
547.67	44484.22
547.84	44715.93
548.00	44659.76
548.17	44708.91
548.34	44905.52
548.51	45193.40
548.67	44957.01
548.84	45184.04
549.01	44460.82
549.18	45118.51
549.34	45064.67
549.51	45216.81
549.68	45099.78
549.84	44914.88
550.01	45322.13
550.18	45071.70
550.34	44477.20
550.51	44905.52
550.68	44671.46
550.84	44451.45
551.01	45045.95
551.18	45113.83
551.34	45078.72
551.51	45532.78
551.68	45488.31
551.84	45319.79
552.01	45015.52
552.18	45549.17
552.34	45034.25
552.51	44877.43
552.68	45123.19
552.84	45607.68
553.01	45813.65
553.18	45057.65
553.34	45471.93
553.51	45120.85
553.67	45523.42
553.84	45785.56
554.01	45467.25
554.17	45638.11
554.34	45567.89
554.51	46080.47
554.67	46057.06
554.84	45485.97
555.00	45258.94
555.17	45530.44
555.33	45471.93
555.50	45652.15
555.67	45736.41
555.83	45846.41
556.00	45893.22
556.16	46340.27
556.33	46335.59
556.50	45595.98
556.66	46080.47
556.83	45549.17
556.99	46314.52
557.16	46021.95
557.32	46101.53
557.49	46094.51
557.65	45734.07
557.82	46007.91
557.98	45958.76
558.15	45865.14
558.32	45720.02
558.48	45701.30
558.65	45610.02
558.81	45823.01
558.98	45544.48
559.14	46108.55
559.31	46202.18
559.47	46483.04
559.64	46218.56
559.80	46260.69
559.97	46167.07
560.13	45743.43
560.30	45792.58
560.46	46146.00
560.63	46085.15
560.79	46450.27
560.96	46457.29
561.12	46286.43
561.29	46115.58
561.45	46571.98
561.61	46234.94
561.78	45748.11
561.94	46040.68
562.11	46211.54
562.27	46043.02
562.44	46199.83
562.60	46967.53
562.77	46602.41
562.93	46487.72
563.10	46827.10
563.26	46424.53
563.42	46412.82
563.59	46349.63
563.75	46459.63
563.92	46724.11
564.08	46913.70
564.24	46571.98
564.41	46497.08
564.57	46476.02
564.74	46424.53
564.90	46391.76
565.07	46471.34
565.23	47077.54
565.39	46288.77
565.56	46960.51
565.72	46351.97
565.88	46447.93
566.05	46677.30
566.21	46101.53
566.38	46162.39
566.54	46431.55
566.70	46906.68
566.87	47021.36
567.03	46653.90
567.19	47295.21
567.36	46862.21
567.52	46574.32
567.68	46852.84
567.85	46543.89
568.01	47096.26
568.17	46852.84
568.34	46560.28
568.50	46686.67
568.66	46368.35
568.83	46571.98
568.99	46181.11
569.15	46511.13
569.32	46494.74
569.48	46506.44
569.64	47047.11
569.81	46752.20
569.97	46412.82
570.13	46721.77
570.30	46555.60
570.46	46213.88
570.62	46447.93
570.78	46361.33
570.95	46583.68
571.11	46567.30
571.27	46307.50
571.43	46836.46
571.60	46803.69
571.76	46880.93
571.92	46817.74
572.09	47175.84
572.25	47035.41
572.41	46972.21
572.57	47065.83
572.74	46815.40
572.90	46777.95
573.06	46681.98
573.22	46696.03
573.38	46726.46
573.55	46590.70
573.71	47232.01
573.87	46887.95
574.03	46789.65
574.20	47079.88
574.36	47047.11
574.52	46775.61
574.68	46904.34
574.84	46557.94
575.01	47129.03
575.17	47061.15
575.33	46864.55
575.49	46913.70
575.65	47030.72
575.82	47290.52
575.98	47143.07
576.14	46960.51
576.30	46831.78
576.46	46642.20
576.62	46639.86
576.79	46972.21
576.95	46436.23
577.11	46714.75
577.27	46754.54
577.43	46859.87
577.59	46864.55
577.75	46955.83
577.92	46452.61
578.08	46459.63
578.24	46602.41
578.40	47047.11
578.56	46995.62
578.72	47065.83
578.88	47217.97
579.04	47143.07
579.21	46672.62
579.37	46997.96
579.53	46981.57
579.69	46653.90
579.85	47000.30
580.01	46787.31
580.17	46635.17
580.33	46794.33
580.49	47096.26
580.65	46747.52
580.82	46976.89
580.98	46457.29
581.14	47068.17
581.30	47285.84
581.46	47217.97
581.62	46911.36
581.78	46990.94
581.94	47299.89
582.10	46906.68
582.26	46740.50
582.42	47042.43
582.58	46981.57
582.74	47243.71
582.90	47386.49
583.06	47096.26
583.22	47000.30
583.38	47363.08
583.54	47173.50
583.70	47138.39
583.86	47187.54
584.02	46714.75
584.18	46791.99
584.34	46859.87
584.50	46909.02
584.66	47264.78
584.82	47063.49
584.98	47267.12
585.14	47140.73
585.30	47007.32
585.46	47295.21
585.62	46703.05
585.78	46845.82
585.94	46724.11
586.10	46440.91
586.26	47049.45
586.42	47138.39
586.58	47236.69
586.74	47400.53
586.90	46993.28
587.06	46763.90
587.22	47107.96
587.38	46852.84
587.54	46997.96
587.70	47159.45
587.86	47253.08
588.02	47388.83
588.18	47213.29
588.34	46990.94
588.49	46211.54
588.65	46204.52
588.81	46356.65
588.97	46752.20
589.13	46595.38
589.29	46873.91
589.45	46660.92
589.61	46880.93
589.77	46925.40
589.93	47299.89
590.08	46773.27
590.24	47281.16
590.40	47337.33
590.56	47332.65
590.72	47440.32
590.88	46766.24
591.04	46955.83
591.20	47739.91
591.35	47339.68
591.51	47739.91
591.67	47028.38
591.83	47452.02
591.99	46892.63
592.15	46789.65
592.31	47061.15
592.46	47140.73
592.62	46894.97
592.78	47473.09
592.94	47480.11
593.10	47030.72
593.26	47112.64
593.41	47056.47
593.57	47297.55
593.73	47040.09
593.89	47107.96
594.05	47152.43
594.20	47044.77
594.36	47236.69
594.52	46995.62
594.68	47283.50
594.84	47515.22
594.99	47672.03
595.15	46539.21
595.31	46939.44
595.47	46658.58
595.62	47313.93
595.78	47402.87
595.94	47267.12
596.10	47487.13
596.25	47470.75
596.41	47084.56
596.57	46913.70
596.73	47107.96
596.88	47075.19
597.04	47061.15
597.20	47327.97
597.36	47285.84
597.51	47435.64
597.67	47112.64
597.83	47201.58
597.99	47393.51
598.14	47510.53
598.30	47100.94
598.46	47079.88
598.61	47161.79
598.77	46986.25
598.93	46829.44
599.09	47505.85
599.24	47494.15
599.40	47276.48
599.56	47210.95
599.71	46796.67
599.87	47503.51
600.03	47065.83
600.18	47012.00
600.34	46794.33
600.50	47040.09
600.65	46988.60
600.81	47257.76
600.97	47370.10
601.12	46974.55
601.28	47157.11
601.44	47234.35
601.59	46906.68
601.75	46681.98
601.91	46761.56
602.06	47054.13
602.22	47302.23
602.37	47220.31
602.53	47349.04
602.69	47126.69
602.84	47077.54
603.00	47021.36
603.16	46789.65
603.31	46988.60
603.47	47089.24
603.62	46916.04
603.78	47126.69
603.94	47147.75
604.09	47274.14
604.25	47316.27
604.40	46965.19
604.56	46958.17
604.71	47084.56
604.87	46787.31
605.03	47077.54
605.18	46869.23
605.34	47236.69
605.49	46696.03
605.65	47077.54
605.80	46955.83
605.96	46904.34
606.12	46911.36
606.27	47154.77
606.43	46937.10
606.58	47285.84
606.74	47072.85
606.89	46911.36
607.05	47086.90
607.20	46986.25
607.36	46546.23
607.51	46932.42
607.67	47063.49
607.82	46712.41
607.98	46595.38
608.13	46703.05
608.29	46571.98
608.44	46738.16
608.60	46354.31
608.75	46337.93
608.91	46983.91
609.06	46497.08
609.22	46897.31
609.37	46653.90
609.53	46656.24
609.68	46485.38
609.84	46611.77
609.99	46656.24
610.15	46569.64
610.30	45942.38
610.46	46071.10
610.61	46700.71
610.76	46684.33
610.92	46157.70
611.07	46724.11
611.23	46529.85
611.38	46314.52
611.54	45673.21
611.69	45942.38
611.84	46136.64
612.00	46417.50
612.15	46101.53
612.31	46639.86
612.46	46101.53
612.62	46298.14
612.77	46349.63
612.92	46518.15
613.08	45968.12
613.23	46115.58
613.39	46038.34
613.54	45485.97
613.69	45914.29
613.85	45560.87
614.00	45769.18
614.15	46429.21
614.31	45984.51
614.46	46602.41
614.62	45977.48
614.77	46263.03
614.92	46155.36
615.08	45790.24
615.23	45579.59
615.38	45895.56
615.54	45261.28
615.69	45769.18
615.84	45560.87
616.00	45757.47
616.15	45689.60
616.30	45874.50
616.46	45785.56
616.61	45043.61
616.76	45448.52
616.92	45116.17
617.07	45120.85
617.22	45467.25
617.37	45212.13
617.53	45521.08
617.68	45628.74
617.83	46033.66
617.99	45574.91
618.14	45099.78
618.29	45467.25
618.45	44975.73
618.60	45209.79
618.75	45205.11
618.90	45207.45
619.06	45113.83
619.21	44931.26
619.36	45610.02
619.51	45282.34
619.67	45167.66
619.82	45031.91
619.97	45291.71
620.12	44938.29
620.28	44673.81
620.43	44655.08
620.58	44931.26
620.73	44942.97
620.89	44900.84
621.04	44980.42
621.19	45036.59
621.34	45193.40
621.49	44704.23
621.65	45038.93
621.80	44741.68
621.95	44877.43
622.10	44615.29
622.25	44189.31
622.41	44294.64
622.56	44570.82
622.71	45102.12
622.86	44676.15
623.01	44229.10
623.16	44495.92
623.32	44456.14
623.47	44364.85
623.62	44385.92
623.77	44463.16
623.92	44524.01
624.07	44091.01
624.23	43880.36
624.38	44100.37
624.53	44266.55
624.68	44079.31
624.83	44280.60
624.98	44179.95
625.13	43587.80
625.29	44278.25
625.44	43824.19
625.59	43749.29
625.74	43557.37
625.89	43840.57
626.04	43880.36
626.19	43784.40
626.34	44048.88
626.49	44076.97
626.65	43831.21
626.80	43786.74
626.95	43709.50
627.10	43620.56
627.25	43784.40
627.40	43655.67
627.55	42817.76
627.70	43260.12
627.85	43215.65
628.00	43236.72
628.15	43585.46
628.30	43243.74
628.45	43681.42
628.60	43370.13
628.76	43203.95
628.91	43709.50
629.06	43309.27
629.21	43194.59
629.36	43026.07
629.51	43395.87
629.66	43023.73
629.81	42930.11
629.96	43084.58
630.11	42752.23
630.26	43154.80
630.41	43187.56
630.56	43042.45
630.71	42948.83
630.86	43023.73
631.01	42511.15
631.16	42953.51
631.31	42396.46
631.46	41944.74
631.61	42672.65
631.76	42579.03
631.91	42562.64
632.06	42986.28
632.21	42953.51
632.36	42799.04
632.51	42319.23
632.66	42557.96
632.81	42396.46
632.96	42539.24
633.10	42623.50
633.25	42291.14
633.40	42726.48
633.55	42869.25
633.70	42642.22
633.85	42370.72
634.00	42522.85
634.15	42621.16
634.30	42089.85
634.45	42394.12
634.60	42340.29
634.75	42038.36
634.90	42284.12
635.05	42660.94
635.19	42281.78
635.34	41979.85
635.49	41956.44
635.64	42031.34
635.79	41811.33
635.94	42052.41
636.09	41846.44
636.24	41890.91
636.39	41600.68
636.53	41701.32
636.68	41354.93
636.83	42183.48
636.98	42108.58
637.13	41942.40
637.28	41663.88
637.43	42232.63
637.57	41731.75
637.72	41546.85
637.87	41832.39
638.02	41549.19
638.17	41495.36
638.32	41408.76
638.46	41968.15
638.61	41766.86
638.76	41628.77
638.91	41830.05
639.06	41661.54
639.20	41682.60
639.35	41724.73
639.50	41256.62
639.65	41577.28
639.80	41495.36
639.94	41174.70
640.09	41310.46
640.24	41457.91
640.39	41244.92
640.54	41315.14
640.68	41170.02
640.83	40928.95
640.98	40638.72
641.13	40980.44
641.27	41387.69
641.42	40690.21
641.57	40538.08
641.72	41263.64
641.86	40666.81
642.01	40673.83
642.16	40659.79
642.31	40631.70
642.45	40844.69
642.60	40697.24
642.75	40727.66
642.90	41050.66
643.04	40765.11
643.19	40570.85
643.34	40641.06
643.48	40528.72
643.63	40697.24
643.78	40727.66
643.93	40713.62
644.07	40123.80
644.22	40039.54
644.37	40135.51
644.51	40486.59
644.66	40552.12
644.81	40435.10
644.95	40502.97
645.10	40708.94
645.25	40521.69
645.39	40264.24
645.54	40205.72
645.69	40327.43
645.83	40704.26
645.98	40198.70
646.13	40399.99
646.27	40086.36
646.42	40009.12
646.57	39821.87
646.71	39842.94
646.86	40271.26
647.00	40453.82
647.15	40055.93
647.30	39756.34
647.44	40048.91
647.59	39466.11
647.74	39643.99
647.88	39934.22
648.03	40184.66
648.17	39690.80
648.32	39597.18
648.47	39632.29
648.61	39405.26
648.76	39707.19
648.90	39576.12
649.05	39070.56
649.20	39812.51
649.34	39599.52
649.49	38976.94
649.63	39744.64
649.78	39248.44
649.92	40081.67
650.07	39878.05
650.21	39407.60
650.36	39356.11
650.51	39597.18
650.65	39845.28
650.80	39995.07
650.94	39571.44
651.09	39374.83
651.23	39096.31
651.38	39049.50
651.52	38749.91
651.67	38995.67
651.81	39299.94
651.96	38822.47
652.10	39103.33
652.25	39100.99
652.39	38995.67
652.54	38822.47
652.68	38969.92
652.83	39288.23
652.97	39615.91
653.12	39475.48
653.26	38490.11
653.41	38873.96
653.55	38703.10
653.70	38672.67
653.84	38731.18
653.99	38642.24
654.13	38391.81
654.27	38565.01
654.42	38293.50
654.56	38394.15
654.71	38632.88
654.85	38672.67
655.00	38511.17
655.14	38239.67
655.29	37839.44
655.43	38368.40
655.57	37956.47
655.72	37912.00
655.86	37258.99
656.01	37839.44
656.15	37755.18
656.30	37741.14
656.44	37792.63
656.58	38319.25
656.73	38124.99
656.87	37778.59
657.01	37560.92
657.16	37741.14
657.30	37827.74
657.45	37581.98
657.59	37284.73
657.73	38094.56
657.88	37874.55
658.02	38335.63
658.16	38029.02
658.31	38417.55
658.45	38099.24
658.60	37682.62
658.74	37923.70
658.88	37610.07
659.03	37509.43
659.17	37404.10
659.31	37450.91
659.46	37319.84
659.60	37460.27
659.74	37371.33
659.89	37429.85
660.03	36917.27
660.17	37703.69
660.32	37319.84
660.46	37315.16
660.60	36898.55
660.74	36950.04
660.89	36964.08
661.03	37046.00
661.17	36521.72
661.32	36919.61
661.46	36746.41
661.60	37118.56
661.74	36636.41
661.89	36275.96
662.03	36669.17
662.17	36355.54
662.31	36634.06
662.46	36561.51
662.60	36938.33
662.74	36933.65
662.88	36280.64
663.03	36156.60
663.17	36510.02
663.31	36081.70
663.45	36072.34
663.60	36006.80
663.74	35784.45
663.88	35845.30
664.02	35962.33
664.17	35810.20
664.31	35718.92
664.45	35681.47
664.59	35861.69
664.73	36093.40
664.88	36004.46
665.02	35225.06
665.16	35328.05
665.30	35576.14
665.44	35419.33
665.59	35173.57
665.73	35178.25
665.87	35129.10
666.01	35655.72
666.15	35498.91
666.29	35119.74
666.44	35747.00
666.58	35180.59
666.72	35180.59
666.86	34923.13
667.00	35091.65
667.14	34534.60
667.28	34679.72
667.43	34780.36
667.57	35021.44
667.71	34604.82
667.85	34497.16
667.99	34754.61
668.13	34951.22
668.27	34969.94
668.41	34387.15
668.56	34235.02
668.70	34483.11
668.84	33851.17
668.98	34232.68
669.12	34345.02
669.26	33984.58
669.40	33804.36
669.54	33846.49
669.68	33724.78
669.82	34071.18
669.96	33677.97
670.10	33811.38
670.25	33553.92
670.39	33149.01
670.53	33652.22
670.67	33600.73
670.81	33488.38
670.95	33666.27
671.09	33362.00
671.23	32943.04
671.37	33259.01
671.51	32980.49
671.65	33127.94
671.79	32769.84
671.93	32919.63
672.07	33046.02
672.21	32708.99
672.35	32463.23
672.49	33256.67
672.63	32786.22
672.77	32566.21
672.91	33144.33
673.05	32556.85
673.19	32744.09
673.33	32477.27
673.47	32060.66
673.61	32203.43
673.75	31524.68
673.89	31835.97
674.03	31747.03
674.17	31999.80
674.31	31688.51
674.45	31864.05
674.59	31786.82
674.73	31749.37
674.87	31831.29
675.01	31206.36
675.15	31498.93
675.29	30773.36
675.43	31281.26
675.56	31278.92
675.70	31353.82
675.84	30731.23
675.98	30110.99
676.12	30768.68
676.26	31126.78
676.40	30794.43
676.54	30965.29
676.68	30955.93
676.82	30141.42
676.96	30249.08
677.10	30614.21
677.23	30288.87
677.37	30239.72
677.51	29947.15
677.65	29839.49
677.79	29479.05
677.93	29638.20
678.07	29605.44
678.21	28842.42
678.34	28837.74
678.48	29647.57
678.62	29240.31
678.76	29069.45
678.90	29277.76
679.04	28816.68
679.18	28737.10
679.31	28680.92
679.45	28460.91
679.59	28545.17
679.73	28201.11
679.87	28144.94
680.00	28582.62
680.14	28418.78
680.28	28596.67
680.42	28063.02
680.56	27931.95
680.70	28166.01
680.83	27817.27
680.97	28027.92
681.11	27882.80
681.25	27660.45
681.39	27697.90
681.52	27733.01
681.66	27496.61
681.80	27192.34
681.94	27402.99
682.07	27140.85
682.21	26654.02
682.35	26955.95
682.49	26801.47
682.62	26595.51
682.76	26424.65
682.90	26614.23
683.04	26520.61
683.17	26717.22
683.31	26532.31
683.45	26136.76
683.59	25954.20
683.72	25984.63
683.86	26361.45
684.00	26314.64
684.13	25972.92
684.27	25619.50
684.41	25645.25
684.55	25469.71
684.68	25586.74
684.82	25256.72
684.96	25212.25
685.09	25048.41
685.23	25069.48
685.37	25291.83
685.50	25067.14
685.64	24978.20
685.78	24680.95
685.91	24690.31
686.05	24702.01
686.19	24128.58
686.32	24093.47
686.46	24119.22
686.60	23613.66
686.73	23115.13
686.87	23349.18
687.01	23314.08
687.14	22955.97
687.28	23058.96
687.42	23419.40
687.55	22979.38
687.69	23199.39
687.82	23147.90
687.96	23311.74
688.10	23054.28
688.23	23026.19
688.37	22958.31
688.50	22862.35
688.64	22815.54
688.78	22698.52
688.91	22773.41
689.05	22658.73
689.18	22810.86
689.32	22291.26
689.46	22326.37
689.59	22628.30
689.73	22410.63
689.86	22141.47
690.00	21865.28
690.13	22155.51
690.27	21640.59
690.41	21687.40
690.54	21310.58
690.68	21481.44
690.81	21387.82
690.95	21678.04
691.08	21315.26
691.22	21678.04
691.35	21596.12
691.49	21511.86
691.62	21247.38
691.76	21104.61
691.89	21188.87
692.03	21202.91
692.16	20978.22
692.30	20561.61
692.43	20404.79
692.57	20498.41
692.70	20208.19
692.84	20215.21
692.97	20217.55
693.11	20198.82
693.24	19985.83
693.38	19726.04
693.51	20009.24
693.65	20002.22
693.78	19662.84
693.92	20173.08
694.05	19571.56
694.19	19721.35
694.32	19812.63
694.45	19419.42
694.59	19005.15
694.72	19365.59
694.86	19286.01
694.99	18637.69
695.13	19033.24
695.26	18724.29
695.39	19164.31
695.53	19094.09
695.66	19000.47
695.80	18867.06
695.93	18874.08
696.07	18202.35
696.20	18623.64
696.33	18654.07
696.47	18132.13
696.60	18352.14
696.73	18197.67
696.87	18235.11
697.00	18305.33
697.14	17912.12
697.27	17811.48
697.40	17914.46
697.54	17638.28
697.67	17544.66
697.80	17334.01
697.94	17280.18
698.07	17156.13
698.21	17252.09
698.34	17158.47
698.47	17109.32
698.61	17006.33
698.74	17043.78
698.87	16858.88
699.01	16563.97
699.14	16533.54
699.27	16659.93
699.40	16692.70
699.54	16538.23
699.67	16367.37
699.80	16505.46
699.94	16393.11
700.07	16198.85
700.20	16023.31
700.34	16032.67
700.47	16322.90
700.60	16332.26
700.73	15969.48
700.87	15859.47
701.00	15969.48
701.13	15630.10
701.26	15468.60
701.40	15592.65
701.53	15290.72
701.66	15417.11
701.79	15489.67
701.93	15339.87
702.06	15239.23
702.19	15117.52
702.32	15199.44
702.46	14995.81
702.59	15161.99
702.72	14937.30
702.85	14864.74
702.99	14796.87
703.12	14815.59
703.25	14600.26
703.38	14558.13
703.51	14700.90
703.65	14356.85
703.78	14377.91
703.91	14190.67
704.04	14090.02
704.17	14223.44
704.31	14185.99
704.44	13806.82
704.57	13841.93
704.70	14036.19
704.83	13879.38
704.96	14120.45
705.10	14022.15
705.23	13617.24
>>>>>End Processed Spectral Data<<<<<
