SpectraSuite Data File
++++++++++++++++++++++++++++++++++++
Date: Fri Oct 25 11:33:38 EDT 2013
User: price-jones
Dark Spectrum Present: No
Reference Spectrum Present: No
Number of Sampled Component Spectra: 1
Spectrometers: USB2+H05261
Integration Time (usec): 100000 (USB2+H05261)
Spectra Averaged: 1 (USB2+H05261)
Boxcar Smoothing: 0 (USB2+H05261)
Correct for Electrical Dark: No (USB2+H05261)
Strobe/Lamp Enabled: No (USB2+H05261)
Correct for Detector Non-linearity: No (USB2+H05261)
Correct for Stray Light: No (USB2+H05261)
Number of Pixels in Processed Spectrum: 2048
>>>>>Begin Processed Spectral Data<<<<<
365.73	278.52
365.92	278.52
366.12	278.52
366.32	173.20
366.52	184.90
366.72	273.84
366.91	163.84
367.11	142.77
367.31	140.43
367.51	138.09
367.70	98.30
367.90	229.37
368.10	198.95
368.30	170.86
368.49	203.63
368.69	152.13
368.89	184.90
369.09	217.67
369.28	224.69
369.48	222.35
369.68	191.92
369.87	212.99
370.07	273.84
370.27	222.35
370.47	318.31
370.66	437.68
370.86	505.56
371.06	526.62
371.25	561.73
371.45	573.43
371.65	585.13
371.84	554.71
372.04	538.32
372.24	524.28
372.44	566.41
372.63	641.31
372.83	620.24
373.03	627.26
373.22	599.18
373.42	580.45
373.62	585.13
373.81	608.54
374.01	599.18
374.21	641.31
374.40	676.41
374.60	643.65
374.79	617.90
374.99	617.90
375.19	660.03
375.38	688.12
375.58	676.41
375.78	648.33
375.97	685.78
376.17	716.20
376.37	713.86
376.56	592.16
376.76	709.18
376.95	641.31
377.15	744.29
377.35	678.76
377.54	655.35
377.74	690.46
377.93	648.33
378.13	727.91
378.33	774.72
378.52	676.41
378.72	744.29
378.91	795.78
379.11	688.12
379.31	678.76
379.50	709.18
379.70	730.25
379.89	734.93
380.09	753.65
380.28	695.14
380.48	692.80
380.68	753.65
380.87	755.99
381.07	723.23
381.26	770.04
381.46	793.44
381.65	760.67
381.85	744.29
382.04	802.80
382.24	823.87
382.43	840.25
382.63	779.40
382.83	741.95
383.02	870.68
383.22	809.83
383.41	734.93
383.61	746.63
383.80	770.04
384.00	849.61
384.19	798.12
384.39	842.59
384.58	802.80
384.78	807.48
384.97	793.44
385.17	826.21
385.36	805.14
385.56	760.67
385.75	844.93
385.95	807.48
386.14	891.74
386.34	903.45
386.53	849.61
386.72	844.93
386.92	858.98
387.11	805.14
387.31	884.72
387.50	880.04
387.70	894.08
387.89	880.04
388.09	880.04
388.28	849.61
388.48	901.11
388.67	954.94
388.86	896.43
389.06	894.08
389.25	924.51
389.45	894.08
389.64	922.17
389.84	1001.75
390.03	924.51
390.22	971.32
390.42	964.30
390.61	952.60
390.81	933.87
391.00	964.30
391.19	947.92
391.39	992.39
391.58	1020.47
391.78	994.73
391.97	1025.15
392.16	1067.28
392.36	1020.47
392.55	1074.31
392.75	1088.35
392.94	1050.90
393.13	1102.39
393.33	1055.58
393.52	1102.39
393.71	1081.33
393.91	1111.75
394.10	1011.11
394.29	1170.27
394.49	1135.16
394.68	1132.82
394.88	1167.93
395.07	1135.16
395.26	1177.29
395.46	1156.22
395.65	1170.27
395.84	1214.74
396.04	1226.44
396.23	1170.27
396.42	1191.33
396.62	1217.08
396.81	1266.23
397.00	1320.06
397.19	1203.04
397.39	1252.19
397.58	1277.93
397.77	1315.38
397.97	1139.84
398.16	1170.27
398.35	1313.04
398.55	1338.79
398.74	1294.32
398.93	1404.32
399.12	1378.58
399.32	1350.49
399.51	1413.68
399.70	1364.53
399.90	1284.95
400.09	1345.81
400.28	1420.71
400.47	1362.19
400.67	1441.77
400.86	1324.74
401.05	1462.83
401.24	1315.38
401.44	1406.66
401.63	1549.43
401.82	1479.22
402.01	1479.22
402.21	1434.75
402.40	1430.07
402.59	1488.58
402.78	1462.83
402.97	1401.98
403.17	1556.46
403.36	1516.67
403.55	1526.03
403.74	1607.95
403.93	1554.12
404.13	1610.29
404.32	1575.18
404.51	1530.71
404.70	1692.21
404.89	1638.38
405.09	1739.02
405.28	1694.55
405.47	1652.42
405.66	1722.63
405.85	1724.97
406.05	1720.29
406.24	1703.91
406.43	1720.29
406.62	1797.53
406.81	1778.81
407.00	1806.89
407.20	1755.40
407.39	1750.72
407.58	1809.23
407.77	1739.02
407.96	1921.58
408.15	1933.28
408.34	1898.17
408.54	1912.22
408.73	1900.52
408.92	1877.11
409.11	1914.56
409.30	1942.64
409.49	1991.80
409.68	2050.31
409.87	1968.39
410.07	2092.44
410.26	2012.86
410.45	2038.61
410.64	2071.37
410.83	2146.27
411.02	2190.74
411.21	2169.68
411.40	2113.50
411.59	2010.52
411.78	2179.04
411.98	2265.64
412.17	2157.97
412.36	2326.49
412.55	2286.70
412.74	2340.54
412.93	2282.02
413.12	2317.13
413.31	2473.95
413.50	2443.52
413.69	2487.99
413.88	2401.39
414.07	2431.82
414.26	2441.18
414.45	2462.24
414.64	2539.48
414.83	2558.21
415.02	2597.99
415.22	2731.41
415.41	2724.38
415.60	2623.74
415.79	2785.24
415.98	2785.24
416.17	2745.45
416.36	2684.59
416.55	2700.98
416.74	2803.96
416.93	2918.65
417.12	2700.98
417.31	2881.20
417.50	2918.65
417.69	2972.48
417.88	3129.30
418.07	3042.70
418.26	2977.16
418.45	2993.55
418.64	3122.27
418.83	3087.17
419.02	3129.30
419.21	3176.11
419.39	3162.06
419.58	3089.51
419.77	3115.25
419.96	3234.62
420.15	3148.02
420.34	3077.80
420.53	3215.90
420.72	3222.92
420.91	3049.72
421.10	3384.41
421.29	3290.79
421.48	3180.79
421.67	3241.64
421.86	3304.84
422.05	3318.88
422.24	3272.07
422.43	3403.14
422.61	3382.07
422.80	3438.25
422.99	3403.14
423.18	3459.31
423.37	3431.23
423.56	3361.01
423.75	3379.73
423.94	3405.48
424.13	3173.77
424.32	3286.11
424.50	3316.54
424.69	3405.48
424.88	3398.46
425.07	3414.84
425.26	3421.86
425.45	3375.05
425.64	3454.63
425.83	3403.14
426.01	3389.10
426.20	3442.93
426.39	3611.45
426.58	3595.06
426.77	3494.42
426.96	3625.49
427.15	3468.67
427.33	3522.51
427.52	3630.17
427.71	3627.83
427.90	3602.08
428.09	3765.92
428.28	3620.81
428.46	3548.25
428.65	3695.71
428.84	3660.60
429.03	3843.16
429.22	3913.38
429.40	3684.00
429.59	3742.52
429.78	3667.62
429.97	3660.60
430.16	3868.91
430.34	3742.52
430.53	3812.73
430.72	3782.31
430.91	3908.69
431.10	3882.95
431.28	4133.39
431.47	4002.32
431.66	4025.72
431.85	3941.46
432.03	4065.51
432.22	4109.98
432.41	4131.05
432.60	4039.76
432.79	4124.02
432.97	3988.27
433.16	4245.73
433.35	4053.81
433.54	4112.32
433.72	4217.65
433.91	4184.88
434.10	4212.96
434.28	4203.60
434.47	4362.76
434.66	4234.03
434.85	4355.74
435.03	4322.97
435.22	4278.50
435.41	4407.23
435.59	4404.89
435.78	4428.29
435.97	4383.82
436.16	4353.40
436.34	4442.34
436.53	4414.25
436.72	4601.49
436.90	4468.08
437.09	4528.94
437.28	4411.91
437.46	4416.59
437.65	4528.94
437.84	4667.03
438.02	4681.07
438.21	4688.09
438.40	4624.90
438.58	4669.37
438.77	4863.63
438.96	4674.05
439.14	4894.06
439.33	4894.06
439.52	4994.70
439.70	4968.96
439.89	5053.22
440.08	5043.85
440.26	5144.50
440.45	5067.26
440.63	5104.71
440.82	5130.45
441.01	5107.05
441.19	5135.14
441.38	5348.12
441.57	5160.88
441.75	5341.10
441.94	5383.23
442.12	5277.91
442.31	5577.50
442.50	5537.71
442.68	5291.95
442.87	5465.15
443.05	5364.51
443.24	5699.20
443.43	5488.56
443.61	5589.20
443.80	5778.78
443.98	5191.31
444.17	5448.77
444.35	5584.52
444.54	5731.97
444.73	5572.82
444.91	5645.37
445.10	5666.44
445.28	5673.46
445.47	5568.13
445.65	5593.88
445.84	5542.39
446.02	5783.46
446.21	5813.89
446.39	5575.16
446.58	5984.75
446.77	5790.49
446.95	5790.49
447.14	5607.92
447.32	5863.04
447.51	5640.69
447.69	5605.58
447.88	5703.89
448.06	5713.25
448.25	5778.78
448.43	5870.06
448.62	5954.32
448.80	5834.96
448.99	6024.54
449.17	5870.06
449.36	5811.55
449.54	6120.50
449.73	6127.52
449.91	6057.31
450.10	6171.99
450.28	6073.69
450.46	6066.67
450.65	6108.80
450.83	6078.37
451.02	6029.22
451.20	6289.02
451.39	6221.14
451.57	6122.84
451.76	6176.67
451.94	6293.70
452.13	6399.02
452.31	6296.04
452.49	6207.10
452.68	6207.10
452.86	6516.05
453.05	6466.90
453.23	6305.40
453.42	6413.07
453.60	6370.94
453.78	6464.56
453.97	6380.30
454.15	6410.73
454.34	6359.24
454.52	6558.18
454.70	6490.31
454.89	6668.19
455.07	6537.12
455.26	6672.87
455.44	6827.34
455.62	6679.89
455.81	6703.29
455.99	6696.27
456.17	6499.67
456.36	6836.70
456.54	6773.51
456.73	6822.66
456.91	7007.56
457.09	6932.67
457.28	7140.97
457.46	6874.15
457.64	7117.57
457.83	7117.57
458.01	7124.59
458.19	7157.36
458.38	7075.44
458.56	7162.04
458.74	7466.31
458.93	7307.15
459.11	7351.62
459.29	7232.26
459.48	7314.17
459.66	7475.67
459.84	7449.93
460.03	7569.29
460.21	7393.75
460.39	7372.69
460.57	7382.05
460.76	7548.23
460.94	7641.85
461.12	7639.51
461.31	7588.02
461.49	7433.54
461.67	7473.33
461.85	7719.09
462.04	7585.68
462.22	7946.12
462.40	7712.07
462.59	7681.64
462.77	7653.55
462.95	7831.43
463.13	7747.17
463.32	7859.52
463.50	8025.70
463.68	7754.19
463.86	8147.40
464.05	7686.32
464.23	7962.50
464.41	8025.70
464.59	7927.39
464.78	8287.84
464.96	7913.35
465.14	7943.78
465.32	8067.83
465.50	8074.85
465.69	8184.85
465.87	8140.38
466.05	8065.49
466.23	8124.00
466.41	8088.89
466.60	8142.72
466.78	8212.94
466.96	8044.42
467.14	8493.80
467.32	8243.37
467.51	8407.20
467.69	8355.71
467.87	8205.92
468.05	8592.11
468.23	8135.70
468.41	8477.42
468.60	8458.70
468.78	8629.56
468.96	8498.49
469.14	8587.43
469.32	8599.13
469.50	8688.07
469.69	8568.70
469.87	8638.92
470.05	8755.94
470.23	8791.05
470.41	8798.07
470.59	8741.90
470.77	8863.61
470.95	8985.32
471.14	8961.91
471.32	8826.16
471.50	9125.75
471.68	8997.02
471.86	8994.68
472.04	9177.24
472.22	9294.27
472.40	9174.90
472.58	9224.05
472.77	9338.74
472.95	9366.82
473.13	9699.18
473.31	9390.23
473.49	9453.42
473.67	9537.68
473.85	9420.66
474.03	9900.47
474.21	9610.24
474.39	9720.24
474.57	9673.43
474.75	10134.52
474.93	10157.92
475.12	10106.43
475.30	10178.99
475.48	10087.71
475.66	10129.84
475.84	10059.62
476.02	10164.95
476.20	10218.78
476.38	10279.63
476.56	10647.10
476.74	10509.01
476.92	10314.74
477.10	10656.46
477.28	10796.89
477.46	10672.84
477.64	11087.12
477.82	10874.13
478.00	11337.56
478.18	11115.20
478.36	11398.41
478.54	11370.32
478.72	11611.40
478.90	11796.30
479.08	11569.27
479.26	11611.40
479.44	11815.02
479.62	11796.30
479.80	11815.02
479.98	12028.01
480.16	12074.82
480.34	12098.23
480.52	12205.89
480.70	12304.20
480.88	12222.28
481.06	12278.45
481.24	12542.93
481.41	12816.77
481.59	12601.44
481.77	12833.16
481.95	12819.11
482.13	13294.24
482.31	13163.17
482.49	13364.46
482.67	13291.90
482.85	13532.98
483.03	13422.97
483.21	13839.59
483.39	13813.84
483.57	13767.03
483.74	13858.31
483.92	14040.87
484.10	13715.54
484.28	14424.72
484.46	14523.02
484.64	14607.28
484.82	14064.28
485.00	14787.50
485.18	15143.27
485.35	15075.39
485.53	15049.64
485.71	15082.41
485.89	15473.28
486.07	15466.26
486.25	15538.82
486.43	15765.85
486.61	15936.71
486.78	15775.21
486.96	16168.42
487.14	16173.10
487.32	16187.14
487.50	16290.13
487.68	16299.49
487.85	16535.88
488.03	16985.27
488.21	16917.39
488.39	16931.44
488.57	17130.38
488.75	17444.01
488.92	17415.93
489.10	17729.56
489.28	17727.22
489.46	17799.77
489.64	17664.02
489.81	18272.56
489.99	18174.26
490.17	18340.44
490.35	18427.04
490.53	18567.47
490.70	18888.12
490.88	18546.40
491.06	19075.37
491.24	18895.14
491.41	19211.12
491.59	19517.73
491.77	19150.26
491.95	19501.34
492.13	19559.86
492.30	19367.93
492.48	19686.25
492.66	19875.83
492.84	20072.43
493.01	20308.83
493.19	20121.59
493.37	20587.35
493.54	20615.44
493.72	20709.06
493.90	20863.54
494.08	20856.51
494.25	20971.20
494.43	20989.92
494.61	21128.02
494.79	21565.70
494.96	21443.99
495.14	21577.40
495.32	21781.03
495.49	21556.33
495.67	21951.88
495.85	21811.45
496.02	22225.73
496.20	22192.96
496.38	22167.21
496.55	22661.07
496.73	22836.61
496.91	22752.35
497.09	22689.15
497.26	22972.36
497.44	23026.19
497.62	23506.00
497.79	23501.32
497.97	23323.44
498.14	23772.82
498.32	24030.28
498.50	23924.96
498.67	24053.69
498.85	23726.01
499.03	23885.17
499.20	24016.24
499.38	24276.04
499.56	24615.41
499.73	24524.13
499.91	24879.89
500.08	24996.92
500.26	24641.16
500.44	24900.96
500.61	24711.38
500.79	24814.36
500.97	24903.30
501.14	25652.27
501.32	25752.91
501.49	25462.69
501.67	25502.48
501.84	25783.34
502.02	25689.72
502.20	25668.66
502.37	25809.09
502.55	25944.84
502.72	26022.08
502.90	26132.08
503.07	25935.48
503.25	26068.89
503.43	26366.13
503.60	26101.65
503.78	26497.20
503.95	26424.65
504.13	26340.39
504.30	26911.48
504.48	26539.33
504.65	26698.49
504.83	27140.85
505.01	26946.59
505.18	27316.39
505.36	27377.25
505.53	27669.81
505.71	27379.59
505.88	27529.38
506.06	27360.86
506.23	27707.26
506.41	27740.03
506.58	27765.78
506.76	27789.18
506.93	27988.13
507.11	27763.43
507.28	28620.07
507.46	28058.34
507.63	28575.60
507.81	28982.85
507.98	28250.27
508.16	28739.44
508.33	28919.66
508.50	28957.11
508.68	28811.99
508.85	28760.50
509.03	29113.92
509.20	29008.60
509.38	29383.09
509.55	29352.66
509.73	29493.09
509.90	29390.11
510.08	29507.13
510.25	29439.26
510.42	29565.65
510.60	29820.77
510.77	30506.54
510.95	30326.32
511.12	30251.42
511.30	29750.55
511.47	30380.15
511.64	30230.36
511.82	30157.80
511.99	29993.97
512.17	30525.27
512.34	30529.95
512.51	30829.54
512.69	31049.55
512.86	30698.47
513.04	31185.30
513.21	30874.01
513.38	31000.40
513.56	31084.65
513.73	31159.55
513.90	31639.36
514.08	31330.41
514.25	31463.82
514.43	31702.56
514.60	31981.08
514.77	31688.51
514.95	32093.43
515.12	31735.32
515.29	31899.16
515.47	32119.17
515.64	32589.62
515.81	31845.33
515.99	32198.75
516.16	32804.95
516.33	32327.48
516.51	32488.98
516.68	32175.34
516.85	32669.20
517.03	32758.14
517.20	32762.82
517.37	32657.49
517.54	33198.16
517.72	33296.46
517.89	33219.22
518.06	32940.70
518.24	33474.34
518.41	32893.89
518.58	32741.75
518.75	33198.16
518.93	33523.49
519.10	33549.24
519.27	33656.90
519.45	33369.02
519.62	33759.89
519.79	33912.02
519.96	33773.93
520.14	33560.94
520.31	33804.36
520.48	34150.76
520.65	34155.44
520.83	34251.40
521.00	34595.46
521.17	34384.81
521.34	34389.49
521.52	34771.00
521.69	34677.38
521.86	34600.14
522.03	34789.72
522.20	34909.09
522.38	35419.33
522.55	35344.43
522.72	35068.25
522.89	34618.86
523.07	35449.75
523.24	35044.84
523.41	35372.52
523.58	35529.33
523.75	35751.68
523.92	35243.79
524.10	35807.86
524.27	35412.31
524.44	35796.15
524.61	35627.63
524.78	36070.00
524.96	36201.07
525.13	36093.40
525.30	36009.14
525.47	36304.05
525.64	36128.51
525.81	36067.66
525.98	36437.46
526.16	36371.92
526.33	36236.17
526.50	36751.09
526.67	36481.93
526.84	36973.44
527.01	36353.20
527.18	36591.94
527.36	37043.66
527.53	36591.94
527.70	37368.99
527.87	37457.93
528.04	37226.22
528.21	37483.68
528.38	37214.52
528.55	37312.82
528.72	37464.96
528.89	37181.75
529.07	37406.44
529.24	37523.47
529.41	37460.27
529.58	37532.83
529.75	37156.00
529.92	37750.50
530.09	37556.24
530.26	37296.44
530.43	38003.28
530.60	37551.56
530.77	37663.90
530.94	37949.45
531.11	37886.25
531.28	37977.53
531.46	38040.73
531.63	38199.88
531.80	38438.62
531.97	38312.23
532.14	38649.27
532.31	38337.98
532.48	38885.66
532.65	38670.33
532.82	38778.00
532.99	38904.38
533.16	38405.85
533.33	38998.01
533.50	38686.71
533.67	38403.51
533.84	38927.79
534.01	39269.51
534.18	38967.58
534.35	39723.57
534.52	39297.59
534.69	39232.06
534.86	39550.37
535.03	38911.41
535.20	39498.88
535.37	39367.81
535.54	40020.82
535.71	39229.72
535.88	39744.64
536.05	39702.51
536.22	40004.44
536.38	39864.00
536.55	39381.85
536.72	39510.58
536.89	39585.48
537.06	39995.07
537.23	40285.30
537.40	39859.32
537.57	39861.66
537.74	39929.54
537.91	40004.44
538.08	40247.85
538.25	39894.43
538.42	40456.16
538.59	40617.66
538.75	40299.34
538.92	40772.13
539.09	40734.68
539.26	40713.62
539.43	40598.93
539.60	40559.14
539.77	40577.87
539.94	40788.52
540.11	41249.60
540.28	40687.87
540.44	40617.66
540.61	41029.59
540.78	40699.58
540.95	41256.62
541.12	40816.60
541.29	40973.42
541.46	41003.85
541.62	41317.48
541.79	41380.67
541.96	40781.49
542.13	40978.10
542.30	41350.24
542.47	41427.48
542.63	41155.98
542.80	41415.78
542.97	41890.91
543.14	41713.03
543.31	41731.75
543.48	41808.99
543.64	42164.75
543.81	42146.03
543.98	41928.36
544.15	41916.65
544.32	41701.32
544.48	42216.24
544.65	42487.74
544.82	42595.41
544.99	42237.31
545.16	42373.06
545.32	42202.20
545.49	43152.46
545.66	42876.27
545.83	42630.52
546.00	42536.90
546.16	42618.81
546.33	42274.76
546.50	42569.66
546.67	42679.67
546.83	42567.32
547.00	42873.93
547.17	42520.51
547.34	43150.12
547.50	42916.06
547.67	44013.77
547.84	43028.41
548.00	43021.39
548.17	42920.74
548.34	43217.99
548.51	43194.59
548.67	43447.36
548.84	43423.96
549.01	43110.33
549.18	42869.25
549.34	43332.68
549.51	43852.28
549.68	43878.02
549.84	43653.33
550.01	43601.84
550.18	43470.77
550.34	44025.48
550.51	43765.68
550.68	43665.03
550.84	43328.00
551.01	44023.14
551.18	44116.76
551.34	43847.60
551.51	43924.83
551.68	44311.02
551.84	43962.28
552.01	43475.45
552.18	44425.71
552.34	43955.26
552.51	44229.10
552.68	44046.54
552.84	44254.85
553.01	44147.18
553.18	44126.12
553.34	44395.28
553.51	44355.49
553.67	44406.98
553.84	44189.31
554.01	44381.24
554.17	44172.93
554.34	44879.77
554.51	44456.14
554.67	44456.14
554.84	44753.38
555.00	44662.10
555.17	45153.62
555.33	45071.70
555.50	44449.11
555.67	44449.11
555.83	44989.78
556.00	44795.51
556.16	45226.17
556.33	44940.63
556.50	45074.04
556.66	44767.43
556.83	44746.36
556.99	45336.18
557.16	45036.59
557.32	45397.03
557.49	45333.84
557.65	45331.50
557.82	45027.23
557.98	45270.64
558.15	45460.23
558.32	45216.81
558.48	45172.34
558.65	45186.38
558.81	45090.42
558.98	45263.62
559.14	45478.95
559.31	45457.88
559.47	45371.28
559.64	45535.12
559.80	45605.34
559.97	45963.44
560.13	45666.19
560.30	45808.96
560.46	45949.40
560.63	46094.51
560.79	45944.72
560.96	45778.54
561.12	46267.71
561.29	45918.97
561.45	45691.94
561.61	45748.11
561.78	45586.61
561.94	45907.27
562.11	45933.01
562.27	46024.29
562.44	45696.62
562.60	45806.62
562.77	46122.60
562.93	45617.04
563.10	46286.43
563.26	45481.29
563.42	46405.80
563.59	45556.19
563.75	45979.82
563.92	46127.28
564.08	46028.98
564.24	46040.68
564.41	46197.49
564.57	46258.35
564.74	46267.71
564.90	45937.69
565.07	45991.53
565.23	46003.23
565.39	46361.33
565.56	46557.94
565.72	46373.03
565.88	46813.05
566.05	46267.71
566.21	46122.60
566.38	46195.15
566.54	46403.46
566.70	46611.77
566.87	46314.52
567.03	46124.94
567.19	46431.55
567.36	46560.28
567.52	46508.79
567.68	46667.94
567.85	46253.67
568.01	46665.60
568.17	46188.13
568.34	46457.29
568.50	46394.10
568.66	46176.43
568.83	46700.71
568.99	47093.92
569.15	46791.99
569.32	46461.97
569.48	46361.33
569.64	46761.56
569.81	47210.95
569.97	46417.50
570.13	46810.71
570.30	46450.27
570.46	46628.15
570.62	46784.97
570.78	46574.32
570.95	46691.35
571.11	46703.05
571.27	46588.36
571.43	46834.12
571.60	46784.97
571.76	46401.12
571.92	47014.34
572.09	46429.21
572.25	46085.15
572.41	46459.63
572.57	46871.57
572.74	47077.54
572.90	46745.18
573.06	46887.95
573.22	46784.97
573.38	46911.36
573.55	47054.13
573.71	47210.95
573.87	47189.88
574.03	46997.96
574.20	47203.92
574.36	47292.86
574.52	46990.94
574.68	47409.89
574.84	46766.24
575.01	47466.06
575.17	47391.17
575.33	46951.15
575.49	46691.35
575.65	46990.94
575.82	47133.71
575.98	47339.68
576.14	47257.76
576.30	47299.89
576.46	47573.73
576.62	46548.57
576.79	47114.98
576.95	47150.09
577.11	47107.96
577.27	47040.09
577.43	47063.49
577.59	47063.49
577.75	47143.07
577.92	46946.47
578.08	46983.91
578.24	47473.09
578.40	47496.49
578.56	47103.28
578.72	46815.40
578.88	47112.64
579.04	47026.04
579.21	46745.18
579.37	46932.42
579.53	46967.53
579.69	47093.92
579.85	47185.20
580.01	47243.71
580.17	46710.07
580.33	47311.59
580.49	47407.55
580.65	47793.74
580.82	47239.03
580.98	47089.24
581.14	47306.91
581.30	47229.67
581.46	47000.30
581.62	47100.94
581.78	47047.11
581.94	47192.22
582.10	47388.83
582.26	47402.87
582.42	47114.98
582.58	47309.25
582.74	47583.09
582.90	47416.91
583.06	47625.22
583.22	47311.59
583.38	47442.66
583.54	47302.23
583.70	47421.59
583.86	47487.13
584.02	47325.63
584.18	47782.04
584.34	47316.27
584.50	47377.12
584.66	48210.35
584.82	47421.59
584.98	47842.89
585.14	47423.93
585.30	47676.71
585.46	47409.89
585.62	47220.31
585.78	47316.27
585.94	47323.29
586.10	47508.19
586.26	46946.47
586.42	47393.51
586.58	47283.50
586.74	47526.92
586.90	47288.18
587.06	47688.42
587.22	47772.67
587.38	47220.31
587.54	47756.29
587.70	47889.70
587.86	47613.52
588.02	47206.26
588.18	47676.71
588.34	47622.88
588.49	47306.91
588.65	47562.03
588.81	47770.33
588.97	47849.91
589.13	47327.97
589.29	47835.87
589.45	48252.48
589.61	47758.63
589.77	47674.37
589.93	47962.26
590.08	47824.17
590.24	48086.31
590.40	47924.81
590.56	48130.78
590.72	48004.39
590.88	47786.72
591.04	48009.07
591.20	47681.39
591.35	48023.11
591.51	48126.10
591.67	48095.67
591.83	48406.96
591.99	48002.05
592.15	47833.53
592.31	47676.71
592.46	47973.96
592.62	48058.22
592.78	48032.47
592.94	48439.73
593.10	48107.37
593.26	48238.44
593.41	48456.11
593.57	47751.61
593.73	48168.22
593.89	48392.92
594.05	48523.99
594.20	48011.41
594.36	48477.18
594.52	48182.27
594.68	47964.60
594.84	47969.28
594.99	48128.44
595.15	47880.34
595.31	48413.98
595.47	48002.05
595.62	48542.71
595.78	48025.45
595.94	48163.54
596.10	48332.06
596.25	48112.05
596.41	48378.87
596.57	48161.20
596.73	48259.51
596.88	48266.53
597.04	48442.07
597.20	48233.76
597.36	48465.47
597.51	48280.57
597.67	48189.29
597.83	48381.21
597.99	48067.58
598.14	48453.77
598.30	48315.68
598.46	48388.24
598.61	48573.14
598.77	47973.96
598.93	48577.82
599.09	48154.18
599.24	48807.19
599.40	48580.16
599.56	48514.62
599.71	48811.87
599.87	48924.22
600.03	48446.75
600.18	48069.92
600.34	48285.25
600.50	48360.15
600.65	48243.12
600.81	48832.94
600.97	48301.64
601.12	48502.92
601.28	48275.89
601.44	48507.60
601.59	48552.07
601.75	48177.59
601.91	48786.13
602.06	48474.84
602.22	48629.31
602.37	48378.87
602.53	48584.84
602.69	48549.73
602.84	47990.34
603.00	48018.43
603.16	48261.85
603.31	48184.61
603.47	48336.74
603.62	48329.72
603.78	48570.80
603.94	48486.54
604.09	48629.31
604.25	48154.18
604.40	48343.77
604.56	48442.07
604.71	48629.31
604.87	48346.11
605.03	48018.43
605.18	48404.62
605.34	48751.02
605.49	47959.92
605.65	48369.51
605.80	48109.71
605.96	48135.46
606.12	48236.10
606.27	48481.86
606.43	48519.31
606.58	48568.46
606.74	47915.45
606.89	48449.09
607.05	48552.07
607.20	48566.12
607.36	48081.63
607.51	48383.55
607.67	48303.98
607.82	47922.47
607.98	48294.61
608.13	47866.30
608.29	48018.43
608.44	48353.13
608.60	48294.61
608.75	48296.95
608.91	48456.11
609.06	47833.53
609.22	48502.92
609.37	47988.00
609.53	48261.85
609.68	47601.82
609.84	47817.14
609.99	48285.25
610.15	48287.59
610.30	48013.75
610.46	48065.24
610.61	48037.16
610.76	48264.19
610.92	47636.92
611.07	47728.20
611.23	47437.98
611.38	47709.48
611.54	48116.73
611.69	48226.74
611.84	48325.04
612.00	48163.54
612.15	47676.71
612.31	48072.26
612.46	47681.39
612.62	47737.57
612.77	47342.02
612.92	48055.88
613.08	47812.46
613.23	47796.08
613.39	47756.29
613.54	48016.09
613.69	48011.41
613.85	47885.02
614.00	47611.18
614.15	48149.50
614.31	47796.08
614.46	47697.78
614.62	47512.88
614.77	47718.84
614.92	47594.79
615.08	47594.79
615.23	47419.25
615.38	47629.90
615.54	47320.95
615.69	47246.05
615.84	47515.22
616.00	48119.07
616.15	47732.89
616.30	47653.31
616.46	47849.91
616.61	47540.96
616.76	47311.59
616.92	47667.35
617.07	47224.99
617.22	47686.07
617.37	47320.95
617.53	47215.63
617.68	47435.64
617.83	47594.79
617.99	47952.90
618.14	47938.85
618.29	47428.62
618.45	46941.78
618.60	47281.16
618.75	46946.47
618.90	47129.03
619.06	47302.23
619.21	46801.35
619.36	47576.07
619.51	46958.17
619.67	46791.99
619.82	47269.46
619.97	47217.97
620.12	46969.87
620.28	47187.54
620.43	47278.82
620.58	47409.89
620.73	47229.67
620.89	47363.08
621.04	47217.97
621.19	47480.11
621.34	46981.57
621.49	46501.76
621.65	46490.06
621.80	47306.91
621.95	47019.02
622.10	47201.58
622.25	46784.97
622.41	46630.49
622.56	46780.29
622.71	47002.64
622.86	47260.10
623.01	46838.80
623.16	46808.37
623.32	46216.22
623.47	46532.19
623.62	46719.43
623.77	47082.22
623.92	46791.99
624.07	46586.02
624.23	46965.19
624.38	46583.68
624.53	46401.12
624.68	46525.17
624.83	46220.90
624.98	46752.20
625.13	45900.25
625.29	46054.72
625.44	46195.15
625.59	46557.94
625.74	46621.13
625.89	45853.44
626.04	46138.98
626.19	46160.05
626.34	46417.50
626.49	46279.41
626.65	45851.09
626.80	46305.16
626.95	46092.17
627.10	45881.52
627.25	45982.16
627.40	46127.28
627.55	45841.73
627.70	46213.88
627.85	46403.46
628.00	46157.70
628.15	45986.85
628.30	45551.51
628.45	45619.38
628.60	45640.45
628.76	45638.11
628.91	45549.17
629.06	45607.68
629.21	45567.89
629.36	45628.74
629.51	45598.32
629.66	45970.46
629.81	45329.16
629.96	45577.25
630.11	45537.46
630.26	45235.53
630.41	45729.39
630.56	45429.80
630.71	45832.37
630.86	45418.10
631.01	45263.62
631.16	45502.35
631.31	45162.98
631.46	45301.07
631.61	45457.88
631.76	45432.14
631.91	45345.54
632.06	45614.70
632.21	45558.53
632.36	45289.37
632.51	45074.04
632.66	45186.38
632.81	45167.66
632.96	45144.25
633.10	45193.40
633.25	45312.77
633.40	45111.49
633.55	45628.74
633.70	44900.84
633.85	44570.82
634.00	44542.74
634.15	44577.84
634.30	45125.53
634.45	44800.19
634.60	45092.76
634.75	44952.33
634.90	44566.14
635.05	44954.67
635.19	44875.09
635.34	44512.31
635.49	44797.85
635.64	44758.06
635.79	44854.03
635.94	44926.58
636.09	44334.43
636.24	44491.24
636.39	45083.40
636.53	44666.78
636.68	44648.06
636.83	44439.75
636.98	44601.25
637.13	44123.78
637.28	44516.99
637.43	44142.50
637.57	44095.69
637.72	44287.62
637.87	43805.47
638.02	44502.95
638.17	44236.12
638.32	43789.08
638.46	43885.04
638.61	44002.07
638.76	44163.57
638.91	44165.91
639.06	44240.81
639.20	43835.89
639.35	44072.29
639.50	43819.51
639.65	44091.01
639.80	44196.34
639.94	44334.43
640.09	44079.31
640.24	44294.64
640.39	43672.06
640.54	43807.81
640.68	44327.41
640.83	44119.10
640.98	43997.39
641.13	43395.87
641.27	44128.46
641.42	43863.98
641.57	43529.28
641.72	43793.76
641.86	43552.69
642.01	43295.23
642.16	43405.23
642.31	43166.50
642.45	43564.39
642.60	43129.05
642.75	43344.38
642.90	43452.05
643.04	43650.99
643.19	43217.99
643.34	43435.66
643.48	42691.37
643.63	43065.86
643.78	43356.08
643.93	43402.89
644.07	43122.03
644.22	43358.42
644.37	42717.12
644.51	43625.25
644.66	43192.25
644.81	43168.84
644.95	43550.35
645.10	43201.61
645.25	42789.67
645.39	42759.25
645.54	43016.71
645.69	42656.26
645.83	43180.54
645.98	42749.88
646.13	42831.80
646.27	43070.54
646.42	42885.64
646.57	42988.62
646.71	42918.40
646.86	43454.39
647.00	42983.94
647.15	42855.21
647.30	42885.64
647.44	42569.66
647.59	42827.12
647.74	42464.34
647.88	42691.37
648.03	42873.93
648.17	43136.07
648.32	42890.32
648.47	42497.11
648.61	42190.50
648.76	42646.90
648.90	42249.01
649.05	42532.22
649.20	42602.43
649.34	42272.42
649.49	42852.87
649.63	42843.51
649.78	42660.94
649.92	42497.11
650.07	43309.27
650.21	42646.90
650.36	42464.34
650.51	42553.28
650.65	42836.48
650.80	42714.78
650.94	42146.03
651.09	42155.39
651.23	41776.22
651.38	42188.16
651.52	41961.12
651.67	41846.44
651.81	41993.89
651.96	41975.17
652.10	41846.44
652.25	42117.94
652.39	41998.57
652.54	41790.27
652.68	41771.54
652.83	41816.01
652.97	42249.01
653.12	41935.38
653.26	41713.03
653.41	41841.76
653.55	41703.67
653.70	41977.51
653.84	42103.90
653.99	42171.77
654.13	41783.24
654.27	41546.85
654.42	41668.56
654.56	41060.02
654.71	41741.11
654.85	41586.64
655.00	41680.26
655.14	41933.04
655.29	41418.12
655.43	41998.57
655.57	41324.50
655.72	41394.71
655.86	41198.11
656.01	40884.48
656.15	40641.06
656.30	41031.93
656.44	41729.41
656.58	41352.58
656.73	41453.23
656.87	40776.81
657.01	40856.39
657.16	41160.66
657.30	41071.72
657.45	40940.65
657.59	40673.83
657.73	41132.57
657.88	40863.41
658.02	40896.18
658.16	41109.17
658.31	41170.02
658.45	41617.07
658.60	40921.93
658.74	40926.61
658.88	40432.75
659.03	40751.07
659.17	40369.56
659.31	40554.46
659.46	40769.79
659.60	40715.96
659.74	40362.54
659.89	39768.04
660.03	40034.86
660.17	40245.51
660.32	40151.89
660.46	39955.29
660.60	39868.69
660.74	40130.83
660.89	40081.67
661.03	39557.39
661.17	39746.98
661.32	39782.09
661.46	40088.70
661.60	39880.39
661.74	39412.28
661.89	39428.66
662.03	39690.80
662.17	39225.04
662.31	39391.22
662.46	39592.50
662.60	38904.38
662.74	39047.16
662.88	39241.42
663.03	39040.14
663.17	38988.64
663.31	38756.93
663.45	39147.80
663.60	39028.43
663.74	38782.68
663.88	39447.39
664.02	38527.56
664.17	39262.49
664.31	38822.47
664.45	38773.31
664.59	38815.44
664.73	38356.70
664.88	38370.74
665.02	38532.24
665.16	38532.24
665.30	38953.54
665.44	38167.12
665.59	38185.84
665.73	38445.64
665.87	37921.36
666.01	38003.28
666.15	38073.49
666.29	38270.10
666.44	38277.12
666.58	37841.78
666.72	37748.16
666.86	37792.63
667.00	37535.17
667.14	38218.61
667.28	37743.48
667.43	37544.53
667.57	37872.21
667.71	37865.19
667.85	37820.72
667.99	37551.56
668.13	37151.32
668.27	37235.58
668.41	37296.44
668.56	36643.43
668.70	37303.46
668.84	37027.28
668.98	36713.64
669.12	36758.11
669.26	36935.99
669.40	36456.18
669.54	36931.31
669.68	36833.01
669.82	36638.75
669.96	36449.16
670.10	36217.45
670.25	36341.50
670.39	36355.54
670.53	36472.57
670.67	36100.42
670.81	36715.98
670.95	36292.35
671.09	35943.61
671.23	35854.67
671.37	36114.47
671.51	35622.95
671.65	35512.95
671.79	35625.29
671.93	35545.72
672.07	35690.83
672.21	35889.77
672.35	35587.85
672.49	35674.45
672.63	35585.50
672.77	35412.31
672.91	35557.42
673.05	34810.79
673.19	35040.16
673.33	34848.24
673.47	34291.19
673.61	34782.70
673.75	34515.88
673.89	34398.85
674.03	34092.24
674.17	34316.93
674.31	34132.03
674.45	33954.15
674.59	34342.68
674.73	34136.71
674.87	33582.01
675.01	33319.87
675.15	33610.09
675.29	33387.74
675.43	33603.07
675.56	33371.36
675.70	33940.11
675.84	33223.90
675.98	32488.98
676.12	32884.53
676.26	33453.28
676.40	33446.26
676.54	32943.04
676.68	32870.48
676.82	32650.47
676.96	32835.38
677.10	32964.10
677.23	32779.20
677.37	32664.52
677.51	32362.59
677.65	32032.57
677.79	31948.31
677.93	31985.76
678.07	31758.73
678.21	31604.25
678.34	31718.94
678.48	31536.38
678.62	31276.58
678.76	31264.88
678.90	31744.69
679.04	31452.12
679.18	31871.07
679.31	31140.83
679.45	31253.17
679.59	30979.33
679.73	30771.02
679.87	30618.89
680.00	30745.28
680.14	30558.03
680.28	30639.95
680.42	30071.20
680.56	30272.49
680.70	30251.42
680.83	30225.68
680.97	29940.13
681.11	29617.14
681.25	29799.70
681.39	29406.49
681.52	29483.73
681.66	29537.56
681.80	29298.83
681.94	29102.22
682.07	28786.25
682.21	28556.88
682.35	28685.61
682.49	28861.15
682.62	28725.39
682.76	28751.14
682.90	28896.25
683.04	28414.10
683.17	28287.71
683.31	28168.35
683.45	27866.42
683.59	27779.82
683.72	27899.19
683.86	27981.10
684.00	27927.27
684.13	27892.16
684.27	27363.20
684.41	27374.91
684.55	27697.90
684.68	27283.62
684.82	26857.65
684.96	27080.00
685.09	27007.44
685.23	27363.20
685.37	27566.83
685.50	26939.57
685.64	26993.40
685.78	26501.89
685.91	26417.63
686.05	25982.29
686.19	25755.26
686.32	26073.57
686.46	25811.43
686.60	25825.47
686.73	25844.20
686.87	25362.04
687.01	25963.56
687.14	25553.97
687.28	26118.04
687.42	25511.84
687.55	25532.90
687.69	25432.26
687.82	24947.77
687.96	24957.13
688.10	25090.54
688.23	24680.95
688.37	24931.39
688.50	25027.35
688.64	24659.88
688.78	24463.28
688.91	24540.52
689.05	24247.95
689.18	24053.69
689.32	23791.55
689.46	24301.78
689.59	23931.98
689.73	24133.26
689.86	23964.75
690.00	23903.89
690.13	23580.90
690.27	23566.85
690.41	23618.35
690.54	23147.90
690.68	23037.89
690.81	22869.37
690.95	22860.01
691.08	22738.30
691.22	22560.42
691.35	22309.99
691.49	23129.17
691.62	22649.36
691.76	22059.55
691.89	22171.89
692.03	21930.82
692.16	21687.40
692.30	22415.31
692.43	22146.15
692.57	21713.15
692.70	21689.74
692.84	21748.26
692.97	21436.97
693.11	21369.09
693.24	21212.28
693.38	21298.88
693.51	21104.61
693.65	20926.73
693.78	20819.07
693.92	20737.15
694.05	20865.88
694.19	20615.44
694.32	20688.00
694.45	20793.32
694.59	20973.54
694.72	20489.05
694.86	20273.72
694.99	20053.71
695.13	20093.50
695.26	20081.80
695.39	19733.06
695.53	19641.78
695.66	19789.23
695.80	19576.24
695.93	19489.64
696.07	19517.73
696.20	19342.19
696.33	18913.87
696.47	19014.51
696.60	19049.62
696.73	19246.23
696.87	18902.17
697.00	19168.99
697.14	18640.03
697.27	18665.77
697.40	18696.20
697.54	18616.62
697.67	18565.13
697.80	18520.66
697.94	18111.07
698.07	18246.82
698.21	18324.05
698.34	18033.83
698.47	17748.28
698.61	17673.39
698.74	17605.51
698.87	17968.29
699.01	17371.46
699.14	17577.42
699.27	17317.62
699.40	17432.31
699.54	17296.56
699.67	17362.09
699.80	17111.66
699.94	17003.99
700.07	17413.59
700.20	16999.31
700.34	16624.83
700.47	16723.13
700.60	16931.44
700.73	16652.91
700.87	16446.94
701.00	16409.50
701.13	16215.23
701.26	16425.88
701.40	16290.13
701.53	16163.74
701.66	16269.06
701.79	15955.43
701.93	15810.32
702.06	15690.95
702.19	15548.18
702.32	15548.18
702.46	15618.39
702.59	15618.39
702.72	15709.68
702.85	15374.98
702.99	15616.05
703.12	15206.46
703.25	14930.28
703.38	15030.92
703.51	15042.62
703.65	14869.42
703.78	14738.35
703.91	14661.12
704.04	14604.94
704.17	14455.15
704.31	14574.52
704.44	14471.53
704.57	14459.83
704.70	14401.32
704.83	14003.43
704.96	14040.87
705.10	14015.13
705.23	14200.03
>>>>>End Processed Spectral Data<<<<<
