SpectraSuite Data File
++++++++++++++++++++++++++++++++++++
Date: Fri Oct 25 10:47:26 EDT 2013
User: price-jones
Dark Spectrum Present: No
Reference Spectrum Present: No
Number of Sampled Component Spectra: 1
Spectrometers: USB2+H05261
Integration Time (usec): 100000 (USB2+H05261)
Spectra Averaged: 1 (USB2+H05261)
Boxcar Smoothing: 0 (USB2+H05261)
Correct for Electrical Dark: No (USB2+H05261)
Strobe/Lamp Enabled: No (USB2+H05261)
Correct for Detector Non-linearity: No (USB2+H05261)
Correct for Stray Light: No (USB2+H05261)
Number of Pixels in Processed Spectrum: 2048
>>>>>Begin Processed Spectral Data<<<<<
365.73	166.18
365.92	166.18
366.12	166.18
366.32	91.28
366.52	0.00
366.72	23.41
366.91	9.36
367.11	70.22
367.31	58.51
367.51	25.75
367.70	0.00
367.90	4.68
368.10	53.83
368.30	23.41
368.49	42.13
368.69	117.03
368.89	46.81
369.09	0.00
369.28	53.83
369.48	110.01
369.68	18.72
369.87	93.62
370.07	149.79
370.27	135.75
370.47	191.92
370.66	367.46
370.86	442.36
371.06	428.32
371.25	503.22
371.45	383.85
371.65	475.13
371.84	479.81
372.04	456.40
372.24	423.64
372.44	470.45
372.63	550.03
372.83	454.06
373.03	533.64
373.22	428.32
373.42	533.64
373.62	496.19
373.81	533.64
374.01	592.16
374.21	557.05
374.40	531.30
374.60	517.26
374.79	587.47
374.99	540.66
375.19	564.07
375.38	524.28
375.58	543.00
375.78	568.75
375.97	608.54
376.17	683.44
376.37	547.69
376.56	610.88
376.76	582.79
376.95	589.82
377.15	620.24
377.35	531.30
377.54	648.33
377.74	603.86
377.93	552.37
378.13	645.99
378.33	683.44
378.52	559.39
378.72	636.63
378.91	596.84
379.11	594.50
379.31	601.52
379.50	657.69
379.70	676.41
379.89	681.10
380.09	650.67
380.28	615.56
380.48	674.07
380.68	631.94
380.87	634.29
381.07	737.27
381.26	669.39
381.46	638.97
381.65	624.92
381.85	667.05
382.04	638.97
382.24	664.71
382.43	723.23
382.63	702.16
382.83	727.91
383.02	732.59
383.22	744.29
383.41	634.29
383.61	716.20
383.80	732.59
384.00	692.80
384.19	718.54
384.39	753.65
384.58	774.72
384.78	713.86
384.97	732.59
385.17	695.14
385.36	795.78
385.56	737.27
385.75	727.91
385.95	805.14
386.14	786.42
386.34	725.57
386.53	814.51
386.72	723.23
386.92	814.51
387.11	844.93
387.31	840.25
387.50	809.83
387.70	812.17
387.89	875.36
388.09	854.30
388.28	809.83
388.48	823.87
388.67	777.06
388.86	875.36
389.06	849.61
389.25	940.90
389.45	919.83
389.64	828.55
389.84	894.08
390.03	931.53
390.22	924.51
390.42	898.77
390.61	884.72
390.81	924.51
391.00	983.02
391.19	1130.48
391.39	926.85
391.58	1015.79
391.78	894.08
391.97	947.92
392.16	912.81
392.36	985.37
392.55	919.83
392.75	971.32
392.94	945.58
393.13	997.07
393.33	915.15
393.52	997.07
393.71	1015.79
393.91	1071.97
394.10	1083.67
394.29	1020.47
394.49	1053.24
394.68	1076.65
394.88	1100.05
395.07	1050.90
395.26	1064.94
395.46	1137.50
395.65	1097.71
395.84	1088.35
396.04	1158.57
396.23	1116.44
396.42	1170.27
396.62	1109.41
396.81	1121.12
397.00	1151.54
397.19	1214.74
397.39	1146.86
397.58	1331.76
397.77	1247.51
397.97	1224.10
398.16	1327.08
398.35	1247.51
398.55	1287.29
398.74	1254.53
398.93	1313.04
399.12	1387.94
399.32	1282.61
399.51	1385.60
399.70	1432.41
399.90	1299.00
400.09	1352.83
400.28	1373.89
400.47	1348.15
400.67	1409.00
400.86	1425.39
401.05	1390.28
401.24	1420.71
401.44	1341.13
401.63	1497.94
401.82	1549.43
402.01	1467.52
402.21	1455.81
402.40	1481.56
402.59	1439.43
402.78	1465.18
402.97	1439.43
403.17	1549.43
403.36	1575.18
403.55	1528.37
403.74	1689.87
403.93	1699.23
404.13	1685.19
404.32	1629.01
404.51	1598.59
404.70	1739.02
404.89	1654.76
405.09	1717.95
405.28	1696.89
405.47	1664.12
405.66	1636.03
405.85	1727.32
406.05	1750.72
406.24	1818.60
406.43	1717.95
406.62	1849.02
406.81	1769.44
407.00	1858.39
407.20	1823.28
407.39	1781.15
407.58	1856.04
407.77	1886.47
407.96	2045.63
408.15	1933.28
408.34	2012.86
408.54	1980.09
408.73	2059.67
408.92	2045.63
409.11	2047.97
409.30	2043.29
409.49	1952.01
409.68	1916.90
409.87	1954.35
410.07	2097.12
410.26	2069.03
410.45	2101.80
410.64	2099.46
410.83	2195.42
411.02	2232.87
411.21	2136.91
411.40	2270.32
411.59	2202.44
411.78	2300.75
411.98	2244.57
412.17	2279.68
412.36	2361.60
412.55	2415.43
412.74	2427.14
412.93	2335.85
413.12	2340.54
413.31	2527.78
413.50	2487.99
413.69	2490.33
413.88	2562.89
414.07	2497.35
414.26	2586.29
414.45	2502.03
414.64	2574.59
414.83	2806.30
415.02	2572.25
415.22	2640.12
415.41	2820.35
415.60	2710.34
415.79	2794.60
415.98	2803.96
416.17	2754.81
416.36	2846.09
416.55	2825.03
416.74	2778.22
416.93	2796.94
417.12	2834.39
417.31	2871.84
417.50	2942.05
417.69	3089.51
417.88	3103.55
418.07	2991.20
418.26	3026.31
418.45	2946.73
418.64	3070.78
418.83	3136.32
419.02	3045.04
419.21	3112.91
419.39	3258.03
419.58	3150.36
419.77	3136.32
419.96	3274.41
420.15	3288.45
420.34	3293.13
420.53	3286.11
420.72	3321.22
420.91	3321.22
421.10	3471.01
421.29	3452.29
421.48	3398.46
421.67	3375.05
421.86	3405.48
422.05	3391.44
422.24	3433.57
422.43	3346.97
422.61	3461.65
422.80	3480.38
422.99	3440.59
423.18	3503.78
423.37	3515.48
423.56	3623.15
423.75	3541.23
423.94	3349.31
424.13	3262.71
424.32	3236.96
424.50	3552.93
424.69	3485.06
424.88	3616.13
425.07	3548.25
425.26	3529.53
425.45	3529.53
425.64	3581.02
425.83	3590.38
426.01	3627.83
426.20	3592.72
426.39	3627.83
426.58	3634.85
426.77	3494.42
426.96	3576.34
427.15	3669.96
427.33	3712.09
427.52	3637.19
427.71	3641.87
427.90	3782.31
428.09	3721.45
428.28	3772.94
428.46	3808.05
428.65	3871.25
428.84	3918.06
429.03	3826.78
429.22	3719.11
429.40	3847.84
429.59	3770.60
429.78	3616.13
429.97	3599.74
430.16	3742.52
430.34	3707.41
430.53	3763.58
430.72	3934.44
430.91	3857.20
431.10	3789.33
431.28	4056.15
431.47	4128.70
431.66	4058.49
431.85	4063.17
432.03	4138.07
432.22	4196.58
432.41	4170.83
432.60	4262.12
432.79	4196.58
432.97	4332.33
433.16	4266.80
433.35	4128.70
433.54	4269.14
433.72	4236.37
433.91	4355.74
434.10	4215.30
434.28	4292.54
434.47	4320.63
434.66	4329.99
434.85	4444.68
435.03	4458.72
435.22	4496.17
435.41	4533.62
435.59	4664.69
435.78	4383.82
435.97	4491.49
436.16	4507.87
436.34	4514.89
436.53	4498.51
436.72	4723.20
436.90	4650.64
437.09	4622.56
437.28	4610.86
437.46	4662.35
437.65	4585.11
437.84	4748.95
438.02	4734.90
438.21	4655.33
438.40	4498.51
438.58	4887.04
438.77	4765.33
438.96	4865.97
439.14	4903.42
439.33	5088.32
439.52	4994.70
439.70	4936.19
439.89	5032.15
440.08	5029.81
440.26	5125.77
440.45	5212.37
440.63	5240.46
440.82	5378.55
441.01	5219.39
441.19	5263.86
441.38	5427.70
441.57	5453.45
441.75	5322.38
441.94	5638.35
442.12	5556.43
442.31	5563.45
442.50	5713.25
442.68	5568.13
442.87	5579.84
443.05	5696.86
443.24	5706.23
443.43	5713.25
443.61	5799.85
443.80	5949.64
443.98	5645.37
444.17	5327.06
444.35	5785.80
444.54	6033.90
444.73	5895.81
444.91	5865.38
445.10	5853.68
445.28	5851.34
445.47	5827.93
445.65	5731.97
445.84	5884.11
446.02	5909.85
446.21	5738.99
446.39	5750.70
446.58	5874.74
446.77	5947.30
446.95	5792.83
447.14	5872.40
447.32	5987.09
447.51	5830.27
447.69	5923.90
447.88	5912.19
448.06	6127.52
448.25	5996.45
448.43	6101.78
448.62	6003.47
448.80	5724.95
448.99	6038.58
449.17	5996.45
449.36	5930.92
449.54	6127.52
449.73	6291.36
449.91	6249.23
450.10	6289.02
450.28	6434.13
450.46	6459.88
450.65	6399.02
450.83	6436.47
451.02	6389.66
451.20	6450.52
451.39	6363.92
451.57	6284.34
451.76	6218.80
451.94	6396.68
452.13	6579.25
452.31	6420.09
452.49	6392.00
452.68	6455.20
452.86	6307.74
453.05	6422.43
453.23	6698.61
453.42	6583.93
453.60	6555.84
453.78	6483.28
453.97	6375.62
454.15	6593.29
454.34	6682.23
454.52	6614.35
454.70	6885.86
454.89	6707.98
455.07	6785.21
455.26	6736.06
455.44	6991.18
455.62	6939.69
455.81	6853.09
455.99	7052.03
456.17	6974.80
456.36	6909.26
456.54	6953.73
456.73	7021.61
456.91	7293.11
457.09	7236.94
457.28	7370.35
457.46	7129.27
457.64	7398.43
457.83	7293.11
458.01	7176.08
458.19	7506.10
458.38	7351.62
458.56	7403.11
458.74	7307.15
458.93	7332.90
459.11	7400.77
459.29	7534.18
459.48	7569.29
459.66	7358.64
459.84	7538.87
460.03	7723.77
460.21	7585.68
460.39	7552.91
460.57	7557.59
460.76	7290.77
460.94	7676.96
461.12	7857.18
461.31	7887.61
461.49	7627.81
461.67	7522.48
461.85	7903.99
462.04	7873.56
462.22	8131.02
462.40	7913.35
462.59	7932.08
462.77	8100.59
462.95	7770.58
463.13	7864.20
463.32	8011.65
463.50	7906.33
463.68	8116.98
463.86	8154.43
464.05	7962.50
464.23	8074.85
464.41	8212.94
464.59	8074.85
464.78	8297.20
464.96	8109.96
465.14	8187.19
465.32	8355.71
465.50	8374.44
465.69	8358.05
465.87	8105.28
466.05	8320.60
466.23	8243.37
466.41	8236.35
466.60	8531.25
466.78	8271.45
466.96	8355.71
467.14	8365.07
467.32	8388.48
467.51	8575.72
467.69	8142.72
467.87	8198.90
468.05	8627.21
468.23	8189.53
468.41	8437.63
468.60	8489.12
468.78	8657.64
468.96	8421.25
469.14	8685.73
469.32	8678.71
469.50	8667.00
469.69	8926.80
469.87	8875.31
470.05	9001.70
470.23	8882.33
470.41	8931.48
470.59	8865.95
470.77	9062.55
470.95	8954.89
471.14	8931.48
471.32	9022.77
471.50	9303.63
471.68	9200.65
471.86	9270.86
472.04	9380.87
472.22	9575.13
472.40	9329.38
472.58	9240.44
472.77	9439.38
472.95	9593.86
473.13	9554.07
473.31	9465.13
473.49	9521.30
473.67	9577.47
473.85	9483.85
474.03	9916.85
474.21	10033.88
474.39	9947.28
474.57	9825.57
474.75	9970.68
474.93	10174.31
475.12	9980.04
475.30	10090.05
475.48	10090.05
475.66	10111.11
475.84	10214.10
476.02	10333.47
476.20	10258.57
476.38	10637.73
476.56	10707.95
476.74	10569.86
476.92	10794.55
477.10	10663.48
477.28	10876.47
477.46	10920.94
477.64	10986.47
477.82	11166.70
478.00	11482.67
478.18	11225.21
478.36	11475.65
478.54	11370.32
478.72	11276.70
478.90	11527.14
479.08	11669.91
479.26	11967.16
479.44	11784.60
479.62	11808.00
479.80	12058.44
479.98	12194.19
480.16	12542.93
480.34	12201.21
480.52	12379.09
480.70	12535.91
480.88	12475.06
481.06	12697.41
481.24	12634.21
481.41	12730.17
481.59	12802.73
481.77	12896.35
481.95	12823.80
482.13	13102.32
482.31	13184.24
482.49	13411.27
482.67	13642.98
482.85	13638.30
483.03	13565.74
483.21	13832.57
483.39	13760.01
483.57	13902.78
483.74	14104.07
483.92	14274.93
484.10	14026.83
484.28	14415.36
484.46	14618.99
484.64	14539.41
484.82	14600.26
485.00	14892.83
485.18	15091.77
485.35	15290.72
485.53	14642.39
485.71	15236.89
485.89	15302.42
486.07	15398.38
486.25	15138.58
486.43	15421.79
486.61	15728.40
486.78	15971.82
486.96	15960.11
487.14	16229.27
487.32	16161.40
487.50	16217.57
487.68	16542.91
487.85	16908.03
488.03	16746.53
488.21	16898.67
488.39	16837.81
488.57	17561.04
488.75	17240.39
488.92	17748.28
489.10	17654.66
489.28	17844.24
489.46	17813.82
489.64	17806.80
489.81	18281.92
489.99	18511.30
490.17	18363.84
490.35	18874.08
490.53	18284.26
490.70	18991.11
490.88	18735.99
491.06	19002.81
491.24	18743.01
491.41	19140.90
491.59	18988.77
491.77	19321.12
491.95	19262.61
492.13	19814.98
492.30	19269.63
492.48	19770.51
492.66	19798.59
492.84	19910.94
493.01	20119.24
493.19	20123.93
493.37	20379.04
493.54	20287.76
493.72	20840.13
493.90	20416.49
494.08	20996.95
494.25	21128.02
494.43	21001.63
494.61	21502.50
494.79	21235.68
494.96	21233.34
495.14	21322.28
495.32	21872.31
495.49	21553.99
495.67	21483.78
495.85	21970.61
496.02	22235.09
496.20	22415.31
496.38	22160.19
496.55	22515.95
496.73	22831.93
496.91	22911.50
497.09	22780.43
497.26	22794.48
497.44	22728.94
497.62	23124.49
497.79	23426.42
497.97	23487.28
498.14	23405.36
498.32	23264.92
498.50	23573.88
498.67	23744.73
498.85	24140.29
499.03	23967.09
499.20	24217.52
499.38	24276.04
499.56	24011.56
499.73	24264.33
499.91	24807.34
500.08	24456.26
500.26	24285.40
500.44	24879.89
500.61	24531.15
500.79	24570.94
500.97	24402.43
501.14	25043.73
501.32	25282.47
501.49	25020.33
501.67	24996.92
501.84	25507.16
502.02	25259.06
502.20	25432.26
502.37	25785.68
502.55	25696.74
502.72	25802.07
502.90	25914.41
503.07	25738.87
503.25	25839.51
503.43	25816.11
503.60	26183.57
503.78	26199.96
503.95	26199.96
504.13	26485.50
504.30	26260.81
504.48	26604.87
504.65	26934.88
504.83	26778.07
505.01	26881.05
505.18	26644.66
505.36	27136.17
505.53	26911.48
505.71	27030.85
505.88	27328.10
506.06	27232.13
506.23	27543.42
506.41	27026.17
506.58	27513.00
506.76	27417.04
506.93	27791.52
507.11	27433.42
507.28	27681.52
507.46	27950.68
507.63	27838.33
507.81	27943.66
507.98	27887.48
508.16	27892.16
508.33	28086.43
508.50	28233.88
508.68	28374.31
508.85	28657.52
509.03	28601.35
509.20	28793.27
509.38	28807.31
509.55	29359.68
509.73	28943.06
509.90	29125.63
510.08	29057.75
510.25	29127.97
510.42	29378.40
510.60	29312.87
510.77	29268.40
510.95	29556.28
511.12	29394.79
511.30	29514.16
511.47	29827.79
511.64	29867.58
511.82	29984.60
511.99	29755.23
512.17	30272.49
512.34	30132.06
512.51	30328.66
512.69	30279.51
512.86	30508.88
513.04	30270.15
513.21	30492.50
513.38	30927.84
513.56	30710.17
513.73	30391.86
513.90	30525.27
514.08	30522.93
514.25	31283.60
514.43	30731.23
514.60	30874.01
514.77	30726.55
514.95	31419.35
515.12	31185.30
515.29	31292.96
515.47	31608.93
515.64	31304.67
515.81	30962.95
515.99	31782.13
516.16	31784.48
516.33	31676.81
516.51	31543.40
516.68	31325.73
516.85	31868.73
517.03	31662.77
517.20	31608.93
517.37	32266.63
517.54	32079.38
517.72	32060.66
517.89	32313.44
518.06	31761.07
518.24	32144.92
518.41	32219.81
518.58	32297.05
518.75	32208.11
518.93	32912.61
519.10	32673.88
519.27	32556.85
519.45	32407.06
519.62	32978.15
519.79	33151.35
519.96	32877.51
520.14	33380.72
520.31	32917.29
520.48	33179.43
520.65	33507.11
520.83	33792.65
521.00	33818.40
521.17	33200.50
521.34	34066.50
521.52	33776.27
521.69	33710.74
521.86	34019.69
522.03	33844.15
522.20	33666.27
522.38	34120.33
522.55	34394.17
522.72	33479.02
522.89	34017.35
523.07	34125.01
523.24	34050.11
523.41	34583.76
523.58	34455.03
523.75	34263.10
523.92	34562.69
524.10	34913.77
524.27	35035.48
524.44	34836.53
524.61	35000.37
524.78	34810.79
524.96	35152.51
525.13	35501.25
525.30	35105.70
525.47	35164.21
525.64	35758.70
525.81	35496.56
525.98	35728.28
526.16	35487.20
526.33	35232.08
526.50	35529.33
526.67	34969.94
526.84	35199.32
527.01	35330.39
527.18	35482.52
527.36	35873.39
527.53	35931.90
527.70	35892.12
527.87	35945.95
528.04	35988.08
528.21	36058.29
528.38	36238.51
528.55	36556.83
528.72	36268.94
528.89	36673.85
529.07	36577.89
529.24	35854.67
529.41	36451.50
529.58	36435.12
529.75	36730.03
529.92	36458.52
530.09	36477.25
530.26	36746.41
530.43	36383.63
530.60	36781.52
530.77	36825.99
530.94	36964.08
531.11	36933.65
531.28	36685.56
531.46	36879.82
531.63	37516.45
531.80	36943.02
531.97	37308.14
532.14	37340.91
532.31	37329.20
532.48	37516.45
532.65	37509.43
532.82	37160.69
532.99	37429.85
533.16	37207.50
533.33	37736.46
533.50	37811.35
533.67	37425.17
533.84	37961.15
534.01	37794.97
534.18	38197.54
534.35	38291.16
534.52	38354.36
534.69	37579.64
534.86	38157.75
535.03	38136.69
535.20	38543.94
535.37	38359.04
535.54	38356.70
535.71	38038.39
535.88	38295.85
536.05	38611.82
536.22	38249.03
536.38	38377.76
536.55	38424.57
536.72	38609.48
536.89	38396.49
537.06	39276.53
537.23	38518.20
537.40	38576.71
537.57	38822.47
537.74	39054.18
537.91	39122.05
538.08	38932.47
538.25	38258.40
538.42	38770.97
538.59	38946.51
538.75	38630.54
538.92	39086.95
539.09	39124.40
539.26	39096.31
539.43	39494.20
539.60	39187.59
539.77	39147.80
539.94	39393.56
540.11	39196.95
540.28	39255.46
540.44	39480.16
540.61	39164.18
540.78	39655.70
540.95	39175.89
541.12	39187.59
541.29	39388.88
541.46	39384.19
541.62	39758.68
541.79	39807.83
541.96	39622.93
542.13	40018.48
542.30	39770.38
542.47	39936.56
542.63	39845.28
542.80	40219.77
542.97	40109.76
543.14	40432.75
543.31	40201.04
543.48	40722.98
543.64	40821.28
543.81	40912.56
543.98	40212.74
544.15	40425.73
544.32	40912.56
544.48	40781.49
544.65	40547.44
544.82	40718.30
544.99	40711.28
545.16	40580.21
545.32	40664.47
545.49	41338.54
545.66	41116.19
545.83	41134.92
546.00	40961.72
546.16	40971.08
546.33	40758.09
546.50	40444.46
546.67	41244.92
546.83	40507.65
547.00	41146.62
547.17	40767.45
547.34	40802.56
547.50	41724.73
547.67	41596.00
547.84	41343.22
548.00	41244.92
548.17	41628.77
548.34	41469.61
548.51	41698.98
548.67	41528.13
548.84	41736.43
549.01	41518.76
549.18	41509.40
549.34	41680.26
549.51	42366.04
549.68	41626.43
549.84	41780.90
550.01	41567.91
550.18	41572.60
550.34	41764.52
550.51	42010.28
550.68	41661.54
550.84	41626.43
551.01	41645.15
551.18	42012.62
551.34	41708.35
551.51	42029.00
551.68	42029.00
551.84	42110.92
552.01	42298.16
552.18	41996.23
552.34	42192.84
552.51	42660.94
552.68	42403.49
552.84	42157.73
553.01	42600.09
553.18	41956.44
553.34	42356.67
553.51	42127.30
553.67	42670.31
553.84	42742.86
554.01	43026.07
554.17	42637.54
554.34	42986.28
554.51	42740.52
554.67	42817.76
554.84	43267.14
555.00	42494.77
555.17	42216.24
555.33	42869.25
555.50	42398.80
555.67	42916.06
555.83	43201.61
556.00	42714.78
556.16	42972.24
556.33	43012.02
556.50	43068.20
556.66	43157.14
556.83	42892.66
556.99	43707.16
557.16	43093.94
557.32	43180.54
557.49	43166.50
557.65	43206.29
557.82	42639.88
557.98	43091.60
558.15	42892.66
558.32	43100.97
558.48	43161.82
558.65	43145.44
558.81	43220.33
558.98	43409.92
559.14	43089.26
559.31	43571.41
559.47	43220.33
559.64	43643.97
559.80	43690.78
559.97	43470.77
560.13	42813.08
560.30	43414.60
560.46	43728.23
560.63	43618.22
560.79	43580.78
560.96	43753.97
561.12	43550.35
561.29	43618.22
561.45	43524.60
561.61	43430.98
561.78	43868.66
561.94	43253.10
562.11	43358.42
562.27	43091.60
562.44	43943.56
562.60	43674.40
562.77	43889.73
562.93	43765.68
563.10	44102.71
563.26	43145.44
563.42	43927.17
563.59	43735.25
563.75	43831.21
563.92	43772.70
564.08	44102.71
564.24	44016.11
564.41	43414.60
564.57	43910.79
564.74	43894.41
564.90	43718.87
565.07	43882.70
565.23	44105.06
565.39	43423.96
565.56	43847.60
565.72	43871.00
565.88	43903.77
566.05	43578.43
566.21	43955.26
566.38	43798.44
566.54	43997.39
566.70	44203.36
566.87	44210.38
567.03	43889.73
567.19	44231.44
567.36	43938.88
567.52	44137.82
567.68	44250.17
567.85	44701.89
568.01	44048.88
568.17	43936.54
568.34	44622.31
568.50	44528.69
568.66	44069.95
568.83	44524.01
568.99	44327.41
569.15	43906.11
569.32	44072.29
569.48	43540.99
569.64	44250.17
569.81	44355.49
569.97	44304.00
570.13	44329.75
570.30	43772.70
570.46	44619.97
570.62	44013.77
570.78	43964.62
570.95	43866.32
571.11	44346.13
571.27	44161.23
571.43	44264.21
571.60	44498.26
571.76	44392.94
571.92	44451.45
572.09	44423.37
572.25	44081.65
572.41	44362.51
572.57	44350.81
572.74	45029.57
572.90	44528.69
573.06	44231.44
573.22	44364.85
573.38	44039.52
573.55	44289.96
573.71	44477.20
573.87	44634.02
574.03	43992.71
574.20	44325.07
574.36	44524.01
574.52	44645.72
574.68	44657.42
574.84	44641.04
575.01	43981.01
575.17	44725.30
575.33	44444.43
575.49	44378.90
575.65	44392.94
575.82	44790.83
575.98	44802.53
576.14	44839.98
576.30	44315.70
576.46	44690.19
576.62	44292.30
576.79	44402.30
576.95	44046.54
577.11	44594.23
577.27	44392.94
577.43	44456.14
577.59	44430.39
577.75	45050.63
577.92	44268.89
578.08	44507.63
578.24	44271.23
578.40	44643.38
578.56	44479.54
578.72	44172.93
578.88	44645.72
579.04	44666.78
579.21	44786.15
579.37	44086.33
579.53	44285.28
579.69	44437.41
579.85	44715.93
580.01	44514.65
580.17	44561.46
580.33	45230.85
580.49	45097.44
580.65	44381.24
580.82	44671.46
580.98	44816.58
581.14	43798.44
581.30	44566.14
581.46	44634.02
581.62	44575.50
581.78	44624.65
581.94	44935.95
582.10	44933.60
582.26	44493.58
582.42	44545.08
582.58	44641.04
582.74	44959.35
582.90	44271.23
583.06	44795.51
583.22	44842.32
583.38	45088.08
583.54	44882.11
583.70	44580.18
583.86	44755.72
584.02	44762.75
584.18	45242.56
584.34	44886.79
584.50	44690.19
584.66	44074.63
584.82	44678.49
584.98	45137.23
585.14	44638.70
585.30	44432.73
585.46	44720.62
585.62	44336.77
585.78	44914.88
585.94	44311.02
586.10	44208.04
586.26	44746.36
586.42	44535.71
586.58	44882.11
586.74	44814.24
586.90	44388.26
587.06	44802.53
587.22	44912.54
587.38	44311.02
587.54	44849.35
587.70	45340.86
587.86	44914.88
588.02	44851.69
588.18	45109.14
588.34	44439.75
588.49	44287.62
588.65	44474.86
588.81	44299.32
588.97	44524.01
589.13	44395.28
589.29	44428.05
589.45	44554.44
589.61	44744.02
589.77	44861.05
589.93	44699.55
590.08	45085.74
590.24	45144.25
590.40	45226.17
590.56	45221.49
590.72	45050.63
590.88	44685.51
591.04	44619.97
591.20	45062.33
591.35	45240.21
591.51	45078.72
591.67	44985.10
591.83	44952.33
591.99	44486.56
592.15	44847.00
592.31	45193.40
592.46	44491.24
592.62	44488.90
592.78	45247.24
592.94	44917.22
593.10	44966.37
593.26	44954.67
593.41	44917.22
593.57	45017.86
593.73	44971.05
593.89	45361.92
594.05	44762.75
594.20	45237.87
594.36	45317.45
594.52	44959.35
594.68	45017.86
594.84	45191.06
594.99	45294.05
595.15	44673.81
595.31	45450.86
595.47	44992.12
595.62	45345.54
595.78	45151.27
595.94	45106.80
596.10	45198.09
596.25	45261.28
596.41	45291.71
596.57	44832.96
596.73	45097.44
596.88	44626.99
597.04	45127.87
597.20	45502.35
597.36	45509.38
597.51	45043.61
597.67	45474.27
597.83	45291.71
597.99	45207.45
598.14	45106.80
598.30	45441.50
598.46	44493.58
598.61	44882.11
598.77	44978.07
598.93	44996.80
599.09	44704.23
599.24	45689.60
599.40	45603.00
599.56	45546.82
599.71	44971.05
599.87	45387.67
600.03	45036.59
600.18	44641.04
600.34	45010.84
600.50	44907.86
600.65	44947.65
600.81	45177.02
600.97	45581.93
601.12	45839.39
601.28	45280.00
601.44	45130.21
601.59	45085.74
601.75	44919.56
601.91	44811.90
602.06	45212.13
602.22	45022.54
602.37	45301.07
602.53	45202.77
602.69	45572.57
602.84	45057.65
603.00	45123.19
603.16	44774.45
603.31	45254.26
603.47	44933.60
603.62	44804.88
603.78	45116.17
603.94	45287.03
604.09	45202.77
604.25	45130.21
604.40	45443.84
604.56	44966.37
604.71	45366.60
604.87	45284.68
605.03	45059.99
605.18	44942.97
605.34	45394.69
605.49	45167.66
605.65	45312.77
605.80	45184.04
605.96	45020.20
606.12	45113.83
606.27	45200.43
606.43	45034.25
606.58	45216.81
606.74	44910.20
606.89	44690.19
607.05	44912.54
607.20	45158.30
607.36	44779.13
607.51	44807.22
607.67	45102.12
607.82	44809.56
607.98	45001.48
608.13	45137.23
608.29	44603.59
608.44	44790.83
608.60	44222.08
608.75	44645.72
608.91	44339.11
609.06	44521.67
609.22	44938.29
609.37	44818.92
609.53	44477.20
609.68	44622.31
609.84	44605.93
609.99	44486.56
610.15	44907.86
610.30	44540.39
610.46	44421.03
610.61	44168.25
610.76	44495.92
610.92	44626.99
611.07	44793.17
611.23	44458.48
611.38	44521.67
611.54	44245.49
611.69	44313.36
611.84	44449.11
612.00	44341.45
612.15	44538.05
612.31	44645.72
612.46	44561.46
612.62	44961.69
612.77	44474.86
612.92	44364.85
613.08	44102.71
613.23	44493.58
613.39	44362.51
613.54	44161.23
613.69	44158.89
613.85	44465.50
614.00	44250.17
614.15	44673.81
614.31	44416.35
614.46	44896.16
614.62	44423.37
614.77	44376.56
614.92	44266.55
615.08	44037.18
615.23	43896.75
615.38	44123.78
615.54	43779.72
615.69	43777.38
615.84	43487.15
616.00	43793.76
616.15	44154.21
616.30	44322.72
616.46	43288.21
616.61	43597.16
616.76	43515.24
616.92	43936.54
617.07	43901.43
617.22	43540.99
617.37	43498.86
617.53	43632.27
617.68	43800.79
617.83	43859.30
617.99	43878.02
618.14	44006.75
618.29	43655.67
618.45	43543.33
618.60	43428.64
618.75	43749.29
618.90	43384.17
619.06	43779.72
619.21	43555.03
619.36	43672.06
619.51	43852.28
619.67	43269.48
619.82	43620.56
619.97	43489.49
620.12	42916.06
620.28	43098.62
620.43	43524.60
620.58	43377.15
620.73	42876.27
620.89	43215.65
621.04	43370.13
621.19	43344.38
621.34	43154.80
621.49	42752.23
621.65	43335.02
621.80	43386.51
621.95	43035.43
622.10	43168.84
622.25	43079.90
622.41	42618.81
622.56	42890.32
622.71	43669.72
622.86	43056.50
623.01	43339.70
623.16	43152.46
623.32	43264.80
623.47	42873.93
623.62	42820.10
623.77	42457.32
623.92	43023.73
624.07	42548.60
624.23	42799.04
624.38	42787.33
624.53	42590.73
624.68	42529.87
624.83	42815.42
624.98	42532.22
625.13	42602.43
625.29	42770.95
625.44	42134.32
625.59	42705.41
625.74	42300.50
625.89	42164.75
626.04	42131.98
626.19	42146.03
626.34	42564.98
626.49	42485.40
626.65	42433.91
626.80	42284.12
626.95	42457.32
627.10	41982.19
627.25	41825.37
627.40	42103.90
627.55	41427.48
627.70	41486.00
627.85	41958.78
628.00	42167.09
628.15	42029.00
628.30	41736.43
628.45	42188.16
628.60	41553.87
628.76	41790.27
628.91	41865.16
629.06	42148.37
629.21	41750.48
629.36	42045.38
629.51	41434.50
629.66	41448.55
629.81	41460.25
629.96	41886.23
630.11	41706.01
630.26	41801.97
630.41	41563.23
630.56	41397.06
630.71	41476.63
630.86	41694.30
631.01	41193.43
631.16	41523.44
631.31	41546.85
631.46	41048.32
631.61	41401.74
631.76	41780.90
631.91	41275.35
632.06	41137.26
632.21	41432.16
632.36	41591.32
632.51	40840.01
632.66	41684.94
632.81	40884.48
632.96	41223.86
633.10	40715.96
633.25	40910.22
633.40	41015.55
633.55	41221.52
633.70	41193.43
633.85	41034.27
634.00	41406.42
634.15	40774.47
634.30	41153.64
634.45	40854.05
634.60	40992.14
634.75	40938.31
634.90	40655.11
635.05	40968.74
635.19	40966.40
635.34	41010.87
635.49	41074.06
635.64	40247.85
635.79	40278.28
635.94	40797.88
636.09	40685.53
636.24	40294.66
636.39	40158.91
636.53	40385.94
636.68	40074.65
636.83	40566.16
636.98	40605.95
637.13	40765.11
637.28	40809.58
637.43	40790.86
637.57	40428.07
637.72	40584.89
637.87	40336.79
638.02	40030.18
638.17	40158.91
638.32	40016.14
638.46	40065.29
638.61	39885.07
638.76	39854.64
638.91	39906.13
639.06	40154.23
639.20	40243.17
639.35	40231.47
639.50	40044.23
639.65	40470.20
639.80	40245.51
639.94	40091.04
640.09	39824.22
640.24	40098.06
640.39	39587.82
640.54	39927.20
640.68	40020.82
640.83	39611.23
640.98	39763.36
641.13	39583.14
641.27	39990.39
641.42	39498.88
641.57	39838.26
641.72	39894.43
641.86	39402.92
642.01	39236.74
642.16	39470.79
642.31	38969.92
642.45	39325.68
642.60	39152.48
642.75	38951.20
642.90	39505.90
643.04	39419.30
643.19	39681.44
643.34	39952.94
643.48	39803.15
643.63	39250.78
643.78	38986.30
643.93	38946.51
644.07	38948.85
644.22	39108.01
644.37	39206.31
644.51	38527.56
644.66	39243.76
644.81	39206.31
644.95	39316.32
645.10	39435.69
645.25	39358.45
645.39	39475.48
645.54	39346.75
645.69	39021.41
645.83	38983.96
645.98	39093.97
646.13	39143.12
646.27	39016.73
646.42	39084.61
646.57	38948.85
646.71	38883.32
646.86	38827.15
647.00	38885.66
647.15	39161.84
647.30	38939.49
647.44	38728.84
647.59	38794.38
647.74	39049.50
647.88	38567.35
648.03	38347.34
648.17	38382.45
648.32	38419.89
648.47	37776.25
648.61	38431.60
648.76	38457.34
648.90	38349.68
649.05	38579.05
649.20	38635.22
649.34	38644.59
649.49	38024.34
649.63	38134.35
649.78	38429.26
649.92	38209.25
650.07	38431.60
650.21	37888.59
650.36	38492.45
650.51	37797.31
650.65	38522.88
650.80	38445.64
650.94	38394.15
651.09	38548.62
651.23	37968.17
651.38	38272.44
651.52	37848.80
651.67	38050.09
651.81	38043.07
651.96	38328.61
652.10	38022.00
652.25	37504.74
652.39	37677.94
652.54	37577.30
652.68	38246.69
652.83	37993.92
652.97	38094.56
653.12	37748.16
653.26	37383.04
653.41	38391.81
653.55	37518.79
653.70	37483.68
653.84	37809.01
653.99	37638.15
654.13	38029.02
654.27	37397.08
654.42	37890.93
654.56	37256.65
654.71	37764.54
654.85	37511.77
655.00	37617.09
655.14	37186.43
655.29	36924.29
655.43	37294.10
655.57	36755.77
655.72	37191.11
655.86	37266.01
656.01	37036.64
656.15	36746.41
656.30	37013.23
656.44	37057.70
656.58	36755.77
656.73	36591.94
656.87	36924.29
657.01	36907.91
657.16	36510.02
657.30	36430.44
657.45	36367.24
657.59	36762.79
657.73	37017.91
657.88	36804.92
658.02	36793.22
658.16	36479.59
658.31	37090.47
658.45	36877.48
658.60	36395.33
658.74	36648.11
658.88	36275.96
659.03	36282.98
659.17	36275.96
659.31	36573.21
659.46	36177.66
659.60	36219.79
659.74	36177.66
659.89	36144.89
660.03	35992.76
660.17	36350.86
660.32	35899.14
660.46	36320.43
660.60	36203.41
660.74	36320.43
660.89	36266.60
661.03	36039.57
661.17	35739.98
661.32	35728.28
661.46	35894.46
661.60	35505.93
661.74	35899.14
661.89	35608.91
662.03	35756.36
662.17	35864.03
662.31	35496.56
662.46	35639.34
662.60	35557.42
662.74	35278.89
662.88	35676.79
663.03	35276.55
663.17	35297.62
663.31	34869.30
663.45	35288.26
663.60	35229.74
663.74	35096.33
663.88	34920.79
664.02	34719.51
664.17	34885.68
664.31	34927.81
664.45	34897.39
664.59	34752.27
664.73	35035.48
664.88	35002.71
665.02	34602.48
665.16	34810.79
665.30	34534.60
665.44	34340.34
665.59	34176.50
665.73	34485.45
665.87	34139.05
666.01	34438.64
666.15	34036.07
666.29	34050.11
666.44	34139.05
666.58	33689.67
666.72	33986.92
666.86	34195.23
667.00	34052.45
667.14	34136.71
667.28	33558.60
667.43	33804.36
667.57	34103.95
667.71	33783.29
667.85	33741.16
667.99	33507.11
668.13	33394.76
668.27	33469.66
668.41	33514.13
668.56	33149.01
668.70	33139.65
668.84	33273.06
668.98	33277.74
669.12	33256.67
669.26	33460.30
669.40	32723.03
669.54	32704.31
669.68	32753.46
669.82	32741.75
669.96	33092.83
670.10	32842.40
670.25	33233.27
670.39	32884.53
670.53	32966.45
670.67	32692.60
670.81	32727.71
670.95	32760.48
671.09	32596.64
671.23	32835.38
671.37	32694.94
671.51	32362.59
671.65	32147.26
671.79	31880.44
671.93	31871.07
672.07	32311.10
672.21	32037.25
672.35	32046.62
672.49	32219.81
672.63	32079.38
672.77	31777.45
672.91	31915.54
673.05	31548.08
673.19	31630.00
673.33	31424.03
673.47	31199.34
673.61	31164.23
673.75	31103.38
673.89	30965.29
674.03	31117.42
674.17	31089.34
674.31	31108.06
674.45	30621.23
674.59	30984.01
674.73	31360.84
674.87	30625.91
675.01	30794.43
675.15	31087.00
675.29	30614.21
675.43	30593.14
675.56	30742.94
675.70	30015.03
675.84	30073.54
675.98	29352.66
676.12	30099.29
676.26	30036.09
676.40	29701.40
676.54	30024.39
676.68	29879.28
676.82	29378.40
676.96	29570.33
677.10	29151.37
677.23	29462.66
677.37	29518.84
677.51	29219.25
677.65	29209.89
677.79	29074.13
677.93	28322.82
678.07	28692.63
678.21	28676.24
678.34	28987.53
678.48	28781.57
678.62	28620.07
678.76	28535.81
678.90	28084.09
679.04	28460.91
679.18	28453.89
679.31	28058.34
679.45	28250.27
679.59	27644.07
679.73	27850.03
679.87	27924.93
680.00	27480.23
680.14	27515.34
680.28	27578.53
680.42	27723.65
680.56	27683.86
680.70	27232.13
680.83	27360.86
680.97	27316.39
681.11	27051.91
681.25	27028.51
681.39	26719.56
681.52	26991.06
681.66	26864.67
681.80	26972.33
681.94	26525.29
682.07	26181.23
682.21	26497.20
682.35	26225.70
682.49	26064.21
682.62	26181.23
682.76	26024.42
682.90	26059.52
683.04	25951.86
683.17	25671.00
683.31	25881.64
683.45	25593.76
683.59	25912.07
683.72	25366.73
683.86	25490.77
684.00	25376.09
684.13	25305.87
684.27	25394.81
684.41	25174.80
684.55	24835.42
684.68	24940.75
684.82	25013.31
684.96	24830.74
685.09	24828.40
685.23	24547.54
685.37	24617.75
685.50	24460.94
685.64	24301.78
685.78	24240.93
685.91	24341.57
686.05	24161.35
686.19	23751.76
686.32	24034.96
686.46	23751.76
686.60	23318.76
686.73	23824.31
686.87	23211.09
687.01	23363.23
687.14	23054.28
687.28	23133.86
687.42	23339.82
687.55	23206.41
687.69	23019.17
687.82	23098.75
687.96	22574.47
688.10	22698.52
688.23	22427.01
688.37	22614.26
688.50	22115.72
688.64	22171.89
688.78	22328.71
688.91	22134.45
689.05	22235.09
689.18	22146.15
689.32	21626.55
689.46	22134.45
689.59	21972.95
689.73	22148.49
689.86	21722.51
690.00	21373.77
690.13	21647.61
690.27	21495.48
690.41	21514.20
690.54	21406.54
690.68	21090.57
690.81	21312.92
690.95	21123.33
691.08	20769.91
691.22	20613.10
691.35	20723.10
691.49	20959.50
691.62	20833.11
691.76	20690.34
691.89	20676.29
692.03	20503.09
692.16	20329.89
692.30	20294.79
692.43	20257.34
692.57	20217.55
692.70	19983.49
692.84	20180.10
692.97	19868.81
693.11	19744.76
693.24	19410.06
693.38	19555.18
693.51	19489.64
693.65	19662.84
693.78	19538.79
693.92	19424.11
694.05	19154.94
694.19	18986.43
694.32	19201.76
694.45	19339.85
694.59	18881.10
694.72	19037.92
694.86	18951.32
694.99	18637.69
695.13	18878.76
695.26	18551.09
695.39	18274.90
695.53	18218.73
695.66	18438.74
695.80	18586.19
695.93	18052.55
696.07	18057.23
696.20	18068.94
696.33	18171.92
696.47	17994.04
696.60	17853.61
696.73	17921.48
696.87	17535.29
697.00	17776.37
697.14	17516.57
697.27	17635.94
697.40	17455.72
697.54	17678.07
697.67	17561.04
697.80	17254.43
697.94	17305.92
698.07	17153.79
698.21	16896.33
698.34	17071.87
698.47	16905.69
698.61	16259.70
698.74	16533.54
698.87	16601.42
699.01	16475.03
699.14	16365.03
699.27	16561.63
699.40	16182.46
699.54	16224.59
699.67	16086.50
699.80	16067.78
699.94	16100.55
700.07	16173.10
700.20	15899.26
700.34	15955.43
700.47	15798.62
700.60	15887.56
700.73	15880.53
700.87	15800.96
701.00	15506.05
701.13	15414.77
701.26	15557.54
701.40	15466.26
701.53	15452.22
701.66	15012.20
701.79	15075.39
701.93	14890.49
702.06	14967.73
702.19	14820.27
702.32	14867.08
702.46	14675.16
702.59	14731.33
702.72	14719.63
702.85	14513.66
702.99	14712.61
703.12	14539.41
703.25	14618.99
703.38	14586.22
703.51	14420.04
703.65	14523.02
703.78	14136.84
703.91	14075.98
704.04	14429.40
704.17	14148.54
704.31	13855.97
704.44	13455.74
704.57	13577.45
704.70	13596.17
704.83	13713.20
704.96	13528.30
705.10	13785.76
705.23	13748.31
>>>>>End Processed Spectral Data<<<<<
