SpectraSuite Data File
++++++++++++++++++++++++++++++++++++
Date: Fri Oct 25 10:46:57 EDT 2013
User: price-jones
Dark Spectrum Present: No
Reference Spectrum Present: No
Number of Sampled Component Spectra: 1
Spectrometers: USB2+H05261
Integration Time (usec): 100000 (USB2+H05261)
Spectra Averaged: 1 (USB2+H05261)
Boxcar Smoothing: 0 (USB2+H05261)
Correct for Electrical Dark: No (USB2+H05261)
Strobe/Lamp Enabled: No (USB2+H05261)
Correct for Detector Non-linearity: No (USB2+H05261)
Correct for Stray Light: No (USB2+H05261)
Number of Pixels in Processed Spectrum: 2048
>>>>>Begin Processed Spectral Data<<<<<
365.73	105.32
365.92	105.32
366.12	105.32
366.32	58.51
366.52	23.41
366.72	77.24
366.91	86.60
367.11	49.15
367.31	23.41
367.51	23.41
367.70	44.47
367.90	0.00
368.10	63.19
368.30	44.47
368.49	44.47
368.69	60.85
368.89	133.41
369.09	67.88
369.28	93.62
369.48	60.85
369.68	49.15
369.87	121.71
370.07	107.66
370.27	182.56
370.47	201.29
370.66	418.96
370.86	397.89
371.06	507.90
371.25	444.70
371.45	444.70
371.65	470.45
371.84	507.90
372.04	465.77
372.24	423.64
372.44	538.32
372.63	482.15
372.83	496.19
373.03	557.05
373.22	465.77
373.42	629.60
373.62	566.41
373.81	627.26
374.01	545.34
374.21	645.99
374.40	528.96
374.60	608.54
374.79	615.56
374.99	627.26
375.19	528.96
375.38	589.82
375.58	578.11
375.78	566.41
375.97	657.69
376.17	645.99
376.37	615.56
376.56	592.16
376.76	636.63
376.95	650.67
377.15	620.24
377.35	664.71
377.54	734.93
377.74	636.63
377.93	641.31
378.13	624.92
378.33	786.42
378.52	620.24
378.72	596.84
378.91	690.46
379.11	660.03
379.31	613.22
379.50	688.12
379.70	720.88
379.89	723.23
380.09	596.84
380.28	638.97
380.48	648.33
380.68	669.39
380.87	779.40
381.07	636.63
381.26	748.97
381.46	746.63
381.65	819.19
381.85	706.84
382.04	638.97
382.24	720.88
382.43	723.23
382.63	683.44
382.83	748.97
383.02	734.93
383.22	812.17
383.41	678.76
383.61	786.42
383.80	760.67
384.00	748.97
384.19	791.10
384.39	805.14
384.58	755.99
384.78	786.42
384.97	898.77
385.17	800.46
385.36	791.10
385.56	826.21
385.75	849.61
385.95	791.10
386.14	823.87
386.34	809.83
386.53	894.08
386.72	837.91
386.92	830.89
387.11	931.53
387.31	833.23
387.50	891.74
387.70	770.04
387.89	880.04
388.09	882.38
388.28	866.00
388.48	875.36
388.67	894.08
388.86	943.24
389.06	877.70
389.25	997.07
389.45	990.05
389.64	1029.84
389.84	990.05
390.03	971.32
390.22	966.64
390.42	950.26
390.61	854.30
390.81	978.34
391.00	1043.88
391.19	1064.94
391.39	1088.35
391.58	1006.43
391.78	1006.43
391.97	1036.86
392.16	973.66
392.36	1008.77
392.55	1022.81
392.75	983.02
392.94	961.96
393.13	999.41
393.33	999.41
393.52	1039.20
393.71	1074.31
393.91	1139.84
394.10	1139.84
394.29	1188.99
394.49	1128.14
394.68	1160.91
394.88	1210.06
395.07	1224.10
395.26	1270.91
395.46	1095.37
395.65	1219.42
395.84	1249.85
396.04	1207.72
396.23	1174.95
396.42	1193.67
396.62	1167.93
396.81	1228.78
397.00	1135.16
397.19	1254.53
397.39	1373.89
397.58	1387.94
397.77	1371.55
397.97	1462.83
398.16	1336.45
398.35	1373.89
398.55	1444.11
398.74	1441.77
398.93	1514.33
399.12	1493.26
399.32	1378.58
399.51	1497.94
399.70	1521.35
399.90	1497.94
400.09	1514.33
400.28	1591.56
400.47	1490.92
400.67	1579.86
400.86	1523.69
401.05	1647.74
401.24	1682.85
401.44	1561.14
401.63	1586.88
401.82	1732.00
402.01	1554.12
402.21	1664.12
402.40	1626.67
402.59	1804.55
402.78	1736.68
402.97	1650.08
403.17	1750.72
403.36	1771.79
403.55	1781.15
403.74	1771.79
403.93	1755.40
404.13	1820.94
404.32	1820.94
404.51	1823.28
404.70	1827.96
404.89	1856.04
405.09	1984.77
405.28	1853.70
405.47	1947.33
405.66	1921.58
405.85	1900.52
406.05	1902.86
406.24	1930.94
406.43	2012.86
406.62	2015.20
406.81	1991.80
407.00	2071.37
407.20	1982.43
407.39	2031.58
407.58	2174.36
407.77	2083.08
407.96	2045.63
408.15	2258.62
408.34	2204.78
408.54	2195.42
408.73	2136.91
408.92	2239.89
409.11	2230.53
409.30	2296.07
409.49	2312.45
409.68	2291.38
409.87	2284.36
410.07	2319.47
410.26	2359.26
410.45	2361.60
410.64	2352.24
410.83	2399.05
411.02	2544.16
411.21	2574.59
411.40	2443.52
411.59	2602.68
411.78	2574.59
411.98	2553.52
412.17	2612.04
412.36	2579.27
412.55	2555.86
412.74	2621.40
412.93	2686.94
413.12	2558.21
413.31	2902.26
413.50	2792.26
413.69	2754.81
413.88	2834.39
414.07	2925.67
414.26	2902.26
414.45	2876.52
414.64	2899.92
414.83	2956.10
415.02	2956.10
415.22	2958.44
415.41	2995.89
415.60	3122.27
415.79	3103.55
415.98	3150.36
416.17	3192.49
416.36	3082.49
416.55	3197.17
416.74	3208.87
416.93	3178.45
417.12	3148.02
417.31	3286.11
417.50	3335.26
417.69	3328.24
417.88	3365.69
418.07	3309.52
418.26	3419.52
418.45	3335.26
418.64	3529.53
418.83	3459.31
419.02	3421.86
419.21	3482.72
419.39	3424.20
419.58	3510.80
419.77	3332.92
419.96	3515.48
420.15	3665.28
420.34	3520.17
420.53	3627.83
420.72	3627.83
420.91	3798.69
421.10	3796.35
421.29	3850.18
421.48	3676.98
421.67	3688.68
421.86	3852.52
422.05	3761.24
422.24	3730.81
422.43	3815.07
422.61	3819.75
422.80	3812.73
422.99	3826.78
423.18	3936.78
423.37	3953.16
423.56	3763.58
423.75	3761.24
423.94	3892.31
424.13	3693.37
424.32	3637.19
424.50	3859.54
424.69	3913.38
424.88	3777.62
425.07	3796.35
425.26	3904.01
425.45	3885.29
425.64	3763.58
425.83	3934.44
426.01	3913.38
426.20	4037.42
426.39	3899.33
426.58	3939.12
426.77	3887.63
426.96	3950.82
427.15	3833.80
427.33	3901.67
427.52	3920.40
427.71	3896.99
427.90	4102.96
428.09	4037.42
428.28	4042.11
428.46	4014.02
428.65	4102.96
428.84	4114.66
429.03	4229.35
429.22	3894.65
429.40	4088.92
429.59	4198.92
429.78	3927.42
429.97	3880.61
430.16	3920.40
430.34	4091.26
430.53	4250.41
430.72	4196.58
430.91	4320.63
431.10	4299.56
431.28	4440.00
431.47	4442.34
431.66	4468.08
431.85	4355.74
432.03	4552.34
432.22	4550.00
432.41	4540.64
432.60	4652.98
432.79	4571.07
432.97	4613.20
433.16	4638.94
433.35	4582.77
433.54	4615.54
433.72	4589.79
433.91	4681.07
434.10	4667.03
434.28	4765.33
434.47	4631.92
434.66	4812.14
434.85	4833.21
435.03	4908.10
435.22	4777.03
435.41	4985.34
435.59	4954.91
435.78	4898.74
435.97	5062.58
436.16	4926.83
436.34	5008.75
436.53	4830.87
436.72	5170.24
436.90	5093.01
437.09	5184.29
437.28	4940.87
437.46	5043.85
437.65	5013.43
437.84	5114.07
438.02	5088.32
438.21	5060.24
438.40	5198.33
438.58	5247.48
438.77	5343.44
438.96	5128.11
439.14	5582.18
439.33	5467.49
439.52	5610.26
439.70	5549.41
439.89	5661.76
440.08	5589.20
440.26	5692.18
440.45	5619.63
440.63	5790.49
440.82	5858.36
441.01	5872.40
441.19	5996.45
441.38	6122.84
441.57	5895.81
441.75	5954.32
441.94	6272.64
442.12	6190.72
442.31	6045.60
442.50	6197.74
442.68	6174.33
442.87	6176.67
443.05	6181.35
443.24	6286.68
443.43	6155.61
443.61	6359.24
443.80	6363.92
443.98	6097.10
444.17	6141.57
444.35	6347.53
444.54	6256.25
444.73	6293.70
444.91	6420.09
445.10	6345.19
445.28	6277.32
445.47	6164.97
445.65	6143.91
445.84	6448.18
446.02	6389.66
446.21	6532.44
446.39	6523.07
446.58	6658.82
446.77	6567.54
446.95	6438.81
447.14	6677.55
447.32	6602.65
447.51	6403.71
447.69	6504.35
447.88	6583.93
448.06	6576.91
448.25	6478.60
448.43	6686.91
448.62	6560.52
448.80	6600.31
448.99	6715.00
449.17	6839.05
449.36	6698.61
449.54	6761.81
449.73	6853.09
449.91	6963.09
450.10	7073.10
450.28	6946.71
450.46	7030.97
450.65	6785.21
450.83	7049.69
451.02	6967.77
451.20	7190.13
451.39	7037.99
451.57	7068.42
451.76	6970.12
451.94	7140.97
452.13	7325.88
452.31	7000.54
452.49	7117.57
452.68	7096.50
452.86	7094.16
453.05	7140.97
453.23	7281.41
453.42	7194.81
453.60	7143.32
453.78	7297.79
453.97	7140.97
454.15	7356.30
454.34	7115.23
454.52	7414.82
454.70	7363.33
454.89	7311.83
455.07	7283.75
455.26	7571.63
455.44	7508.44
455.62	7627.81
455.81	7569.29
455.99	7536.52
456.17	7646.53
456.36	7625.47
456.54	7796.32
456.73	7719.09
456.91	7789.30
457.09	7981.23
457.28	8098.25
457.46	7808.03
457.64	7971.86
457.83	7953.14
458.01	7833.77
458.19	8187.19
458.38	7887.61
458.56	8037.40
458.74	8037.40
458.93	8023.36
459.11	8205.92
459.29	8168.47
459.48	8241.03
459.66	8056.12
459.84	8182.51
460.03	8189.53
460.21	8145.06
460.39	8311.24
460.57	8439.97
460.76	8470.40
460.94	8435.29
461.12	8308.90
461.31	8187.19
461.49	8332.31
461.67	8437.63
461.85	8695.09
462.04	8587.43
462.22	8985.32
462.40	8774.67
462.59	8580.40
462.77	8652.96
462.95	8812.12
463.13	8772.33
463.32	8636.58
463.50	8589.77
463.68	8779.35
463.86	8933.82
464.05	8669.34
464.23	8748.92
464.41	8772.33
464.59	8652.96
464.78	9050.85
464.96	8821.48
465.14	8856.59
465.32	9114.05
465.50	9224.05
465.69	9158.52
465.87	8990.00
466.05	9071.92
466.23	8894.04
466.41	8791.05
466.60	9114.05
466.78	9060.21
466.96	9151.49
467.14	9355.12
467.32	9186.60
467.51	9224.05
467.69	9027.45
467.87	9490.87
468.05	9266.18
468.23	9298.95
468.41	9198.31
468.60	9200.65
468.78	9420.66
468.96	9350.44
469.14	9551.73
469.32	9488.53
469.50	9586.83
469.69	9530.66
469.87	9654.71
470.05	9614.92
470.23	9748.33
470.41	9540.02
470.59	9825.57
470.77	9795.14
470.95	9706.20
471.14	9858.34
471.32	9664.07
471.50	10029.20
471.68	10164.95
471.86	10143.88
472.04	10223.46
472.22	10452.83
472.40	10040.90
472.58	10267.93
472.77	10178.99
472.95	10284.31
473.13	10473.90
473.31	10380.28
473.49	10394.32
473.67	10377.94
473.85	10424.75
474.03	10782.85
474.21	10750.08
474.39	10764.12
474.57	10890.51
474.75	10920.94
474.93	11073.07
475.12	10956.05
475.30	10799.23
475.48	10998.18
475.66	11234.57
475.84	11054.35
476.02	10806.25
476.20	11290.74
476.38	11506.07
476.56	11690.98
476.74	11557.57
476.92	11475.65
477.10	11543.52
477.28	11950.78
477.46	11815.02
477.64	12058.44
477.82	12297.17
478.00	12538.25
478.18	12123.98
478.36	12395.48
478.54	12475.06
478.72	12400.16
478.90	12608.47
479.08	12973.59
479.26	12875.29
479.44	12833.16
479.62	13144.45
479.80	13149.13
479.98	13116.36
480.16	13296.58
480.34	13200.62
480.52	13603.19
480.70	13626.60
480.88	13160.83
481.06	13603.19
481.24	13631.28
481.41	13752.99
481.59	13987.04
481.77	14279.61
481.95	14178.97
482.13	14050.24
482.31	14356.85
482.49	14644.73
482.67	14455.15
482.85	14490.26
483.03	14736.01
483.21	15194.76
483.39	14904.53
483.57	15145.61
483.74	15208.80
483.92	15229.87
484.10	15398.38
484.28	15578.61
484.46	15758.83
484.64	15885.22
484.82	15946.07
485.00	15852.45
485.18	16264.38
485.35	16116.93
485.53	15730.74
485.71	15887.56
485.89	16159.06
486.07	16411.84
486.25	16465.67
486.43	16666.95
486.61	16812.07
486.78	17011.01
486.96	17193.58
487.14	17376.14
487.32	17591.47
487.50	17659.34
487.68	17694.45
487.85	18246.82
488.03	18328.74
488.21	18183.62
488.39	18164.90
488.57	18331.08
488.75	18576.83
488.92	18621.30
489.10	19187.71
489.28	18993.45
489.46	19545.81
489.64	19227.50
489.81	19960.09
489.99	19873.49
490.17	20020.94
490.35	20170.74
490.53	19861.79
490.70	20299.47
490.88	19924.98
491.06	20615.44
491.24	20430.54
491.41	20156.69
491.59	20397.77
491.77	20512.46
491.95	20671.61
492.13	20971.20
492.30	21167.80
492.48	21336.32
492.66	21535.27
492.84	21654.64
493.01	21848.90
493.19	21729.53
493.37	21977.63
493.54	22061.89
493.72	22029.12
493.90	22518.29
494.08	22429.35
494.25	23021.51
494.43	22824.90
494.61	22796.82
494.79	22867.03
494.96	23138.54
495.14	23040.23
495.32	23344.50
495.49	23168.96
495.67	23330.46
495.85	23681.54
496.02	23805.59
496.20	23974.11
496.38	23990.49
496.55	24098.16
496.73	24606.05
496.91	24694.99
497.09	24809.68
497.26	24507.75
497.44	24531.15
497.62	24816.70
497.79	25083.52
497.97	24891.60
498.14	25441.62
498.32	25268.42
498.50	25298.85
498.67	25933.14
498.85	25514.18
499.03	25666.31
499.20	25647.59
499.38	25792.70
499.56	26349.75
499.73	26291.24
499.91	25867.60
500.08	26225.70
500.26	26052.50
500.44	26146.12
500.61	26305.28
500.79	26085.27
500.97	26321.66
501.14	26764.03
501.32	27019.14
501.49	26904.46
501.67	26726.58
501.84	26815.52
502.02	27068.30
502.20	27182.98
502.37	27185.32
502.55	27475.55
502.72	27777.48
502.90	28056.00
503.07	27615.98
503.25	27920.25
503.43	27962.38
503.60	28357.93
503.78	27630.02
503.95	27941.32
504.13	28481.98
504.30	28683.27
504.48	28402.40
504.65	28587.30
504.83	28999.24
505.01	28711.35
505.18	28882.21
505.36	29179.46
505.53	29116.26
505.71	29209.89
505.88	29493.09
506.06	29294.14
506.23	29242.65
506.41	28994.56
506.58	29343.30
506.76	29397.13
506.93	29921.41
507.11	29649.91
507.28	29853.53
507.46	29476.71
507.63	30237.38
507.81	29902.68
507.98	29954.18
508.16	30258.45
508.33	30321.64
508.50	30415.26
508.68	30403.56
508.85	30869.33
509.03	30721.87
509.20	30651.66
509.38	31016.78
509.55	30981.67
509.73	30656.34
509.90	30986.35
510.08	30845.92
510.25	31302.32
510.42	31185.30
510.60	31208.70
510.77	31835.97
510.95	31527.02
511.12	31559.78
511.30	32100.45
511.47	31880.44
511.64	32163.64
511.82	31892.14
511.99	31824.26
512.17	32039.59
512.34	31737.66
512.51	32451.53
512.69	32636.43
512.86	32355.57
513.04	32727.71
513.21	32378.97
513.38	32378.97
513.56	32739.41
513.73	32542.81
513.90	32561.53
514.08	32456.21
514.25	32936.02
514.43	32987.51
514.60	33165.39
514.77	33046.02
514.95	33495.41
515.12	33280.08
515.29	33296.46
515.47	33654.56
515.64	33682.65
515.81	33591.37
515.99	33457.96
516.16	33706.05
516.33	33383.06
516.51	33848.83
516.68	33090.49
516.85	33254.33
517.03	33343.27
517.20	33895.64
517.37	33963.51
517.54	34068.84
517.72	33764.57
517.89	33677.97
518.06	33607.75
518.24	33919.04
518.41	33996.28
518.58	34464.39
518.75	34178.84
518.93	34593.12
519.10	34455.03
519.27	34824.83
519.45	34621.20
519.62	35091.65
519.79	34939.52
519.96	35360.81
520.14	35182.93
520.31	35096.33
520.48	35068.25
520.65	35178.25
520.83	35143.14
521.00	35175.91
521.17	35475.50
521.34	35344.43
521.52	35817.22
521.69	36128.51
521.86	36044.25
522.03	35686.15
522.20	36460.87
522.38	35924.88
522.55	36126.17
522.72	36135.53
522.89	35988.08
523.07	36257.24
523.24	36425.76
523.41	36666.83
523.58	36477.25
523.75	36746.41
523.92	36601.30
524.10	36800.24
524.27	37015.57
524.44	37296.44
524.61	36680.88
524.78	37083.45
524.96	37207.50
525.13	37266.01
525.30	37352.61
525.47	37481.34
525.64	37713.05
525.81	37312.82
525.98	37298.78
526.16	37326.86
526.33	37422.83
526.50	37628.79
526.67	37081.11
526.84	37710.71
527.01	37102.17
527.18	37727.10
527.36	37792.63
527.53	37975.19
527.70	38087.54
527.87	38174.14
528.04	37979.87
528.21	38157.75
528.38	38218.61
528.55	38630.54
528.72	38616.50
528.89	38892.68
529.07	38789.70
529.24	38345.00
529.41	38576.71
529.58	38139.03
529.75	38164.78
529.92	38904.38
530.09	38628.20
530.26	39122.05
530.43	39075.24
530.60	38567.35
530.77	38527.56
530.94	39225.04
531.11	39138.44
531.28	38684.37
531.46	39302.28
531.63	39398.24
531.80	39187.59
531.97	39009.71
532.14	39030.77
532.31	39089.29
532.48	38995.67
532.65	39281.21
532.82	39253.12
532.99	39761.02
533.16	39381.85
533.33	39414.62
533.50	39580.80
533.67	40016.14
533.84	39679.10
534.01	39606.55
534.18	39941.24
534.35	40308.71
534.52	39856.98
534.69	40088.70
534.86	40196.36
535.03	40191.68
535.20	40369.56
535.37	40512.33
535.54	40587.23
535.71	40215.08
535.88	40067.63
536.05	40631.70
536.22	40783.83
536.38	40893.84
536.55	40538.08
536.72	40423.39
536.89	40603.61
537.06	40327.43
537.23	40903.20
537.40	40701.92
537.57	40762.77
537.74	40914.90
537.91	41216.83
538.08	41043.63
538.25	40849.37
538.42	40814.26
538.59	40924.27
538.75	41060.02
538.92	41343.22
539.09	41067.04
539.26	41141.94
539.43	41488.34
539.60	41050.66
539.77	41132.57
539.94	41748.14
540.11	41071.72
540.28	41397.06
540.44	41102.15
540.61	41179.39
540.78	41305.77
540.95	41361.95
541.12	41584.30
541.29	41546.85
541.46	41354.93
541.62	41565.57
541.79	41893.25
541.96	41291.73
542.13	41605.36
542.30	41848.78
542.47	42108.58
542.63	42178.79
542.80	42356.67
542.97	42454.98
543.14	42572.00
543.31	42314.55
543.48	42239.65
543.64	43033.09
543.81	42707.76
543.98	42958.19
544.15	42541.58
544.32	42780.31
544.48	42937.13
544.65	42183.48
544.82	42761.59
544.99	42391.78
545.16	43021.39
545.32	42880.95
545.49	43316.29
545.66	43430.98
545.83	43107.99
546.00	43248.42
546.16	42850.53
546.33	42375.40
546.50	42632.86
546.67	43351.40
546.83	42284.12
547.00	43166.50
547.17	43185.22
547.34	43136.07
547.50	43117.35
547.67	43365.45
547.84	43311.61
548.00	43566.73
548.17	43660.35
548.34	43515.24
548.51	43854.62
548.67	43658.01
548.84	43899.09
549.01	43473.11
549.18	43225.01
549.34	43882.70
549.51	43814.83
549.68	43716.53
549.84	43679.08
550.01	43885.04
550.18	44023.14
550.34	44430.39
550.51	43810.15
550.68	44186.97
550.84	43447.36
551.01	43686.10
551.18	44006.75
551.34	43679.08
551.51	44072.29
551.68	44135.48
551.84	44119.10
552.01	44072.29
552.18	44151.87
552.34	43826.53
552.51	44219.74
552.68	44250.17
552.84	44116.76
553.01	44804.88
553.18	44170.59
553.34	44278.25
553.51	44128.46
553.67	44271.23
553.84	44533.37
554.01	44776.79
554.17	44603.59
554.34	44425.71
554.51	44823.60
554.67	44521.67
554.84	44978.07
555.00	44219.74
555.17	44626.99
555.33	44376.56
555.50	44645.72
555.67	44739.34
555.83	44715.93
556.00	44753.38
556.16	45244.90
556.33	44692.53
556.50	45057.65
556.66	45146.59
556.83	44589.55
556.99	45399.37
557.16	45134.89
557.32	45013.18
557.49	44816.58
557.65	44477.20
557.82	44458.48
557.98	44809.56
558.15	45050.63
558.32	44931.26
558.48	45216.81
558.65	45460.23
558.81	45263.62
558.98	45137.23
559.14	45205.11
559.31	45055.31
559.47	45078.72
559.64	45612.36
559.80	45137.23
559.97	45162.98
560.13	45483.63
560.30	44975.73
560.46	44919.56
560.63	45265.96
560.79	45804.28
560.96	45666.19
561.12	45453.20
561.29	45375.97
561.45	45366.60
561.61	45427.46
561.78	45422.78
561.94	44952.33
562.11	45006.16
562.27	45017.86
562.44	45612.36
562.60	45600.66
562.77	45823.01
562.93	45542.14
563.10	46241.96
563.26	45401.71
563.42	45656.83
563.59	45497.67
563.75	45687.26
563.92	46305.16
564.08	45280.00
564.24	45703.64
564.41	45530.44
564.57	45736.41
564.74	46040.68
564.90	45965.78
565.07	46045.36
565.23	45867.48
565.39	45713.00
565.56	45787.90
565.72	45413.41
565.88	45612.36
566.05	45801.94
566.21	45846.41
566.38	45542.14
566.54	46356.65
566.70	46005.57
566.87	45907.27
567.03	45705.98
567.19	46110.89
567.36	45830.03
567.52	45574.91
567.68	45666.19
567.85	45577.25
568.01	45862.80
568.17	45717.68
568.34	45937.69
568.50	45998.55
568.66	45745.77
568.83	46220.90
568.99	45970.46
569.15	45806.62
569.32	46211.54
569.48	45752.79
569.64	46181.11
569.81	46122.60
569.97	45961.10
570.13	46061.74
570.30	45860.46
570.46	45621.72
570.62	45617.04
570.78	45495.33
570.95	45272.98
571.11	45745.77
571.27	46050.04
571.43	45862.80
571.60	45900.25
571.76	45539.80
571.92	45839.39
572.09	45823.01
572.25	45855.78
572.41	46036.00
572.57	46368.35
572.74	46349.63
572.90	46014.93
573.06	46021.95
573.22	45914.29
573.38	46213.88
573.55	45666.19
573.71	46272.39
573.87	46094.51
574.03	45652.15
574.20	46272.39
574.36	46028.98
574.52	46483.04
574.68	46227.92
574.84	46192.81
575.01	46382.40
575.17	45851.09
575.33	45883.86
575.49	46178.77
575.65	46356.65
575.82	46157.70
575.98	46337.93
576.14	46232.60
576.30	46681.98
576.46	45820.67
576.62	45921.31
576.79	46092.17
576.95	46078.13
577.11	45844.07
577.27	46160.05
577.43	46211.54
577.59	46101.53
577.75	46440.91
577.92	46375.37
578.08	46050.04
578.24	46068.76
578.40	46241.96
578.56	46036.00
578.72	46171.75
578.88	46721.77
579.04	46375.37
579.21	45970.46
579.37	46141.32
579.53	45928.33
579.69	45951.74
579.85	45947.06
580.01	45989.19
580.17	46356.65
580.33	46677.30
580.49	46539.21
580.65	46389.42
580.82	46349.63
580.98	45956.42
581.14	46380.06
581.30	46586.02
581.46	46293.46
581.62	46007.91
581.78	46124.94
581.94	46527.51
582.10	46607.09
582.26	46447.93
582.42	46464.32
582.58	46131.96
582.74	46031.32
582.90	45820.67
583.06	46686.67
583.22	46789.65
583.38	46370.69
583.54	46267.71
583.70	46637.51
583.86	46218.56
584.02	45954.08
584.18	46110.89
584.34	46342.61
584.50	46719.43
584.66	46113.23
584.82	46108.55
584.98	46571.98
585.14	46298.14
585.30	46478.36
585.46	46452.61
585.62	45991.53
585.78	46497.08
585.94	45771.52
586.10	46092.17
586.26	46571.98
586.42	46543.89
586.58	46646.88
586.74	46010.25
586.90	46492.40
587.06	46038.34
587.22	46576.66
587.38	46611.77
587.54	46689.01
587.70	46246.65
587.86	46248.99
588.02	46358.99
588.18	46637.51
588.34	46204.52
588.49	46064.08
588.65	45949.40
588.81	46396.44
588.97	45729.39
589.13	45923.65
589.29	46244.30
589.45	46543.89
589.61	46375.37
589.77	46436.23
589.93	46504.10
590.08	46681.98
590.24	46679.64
590.40	46277.07
590.56	46560.28
590.72	46471.34
590.88	46169.41
591.04	46513.47
591.20	46967.53
591.35	46803.69
591.51	46855.18
591.67	46394.10
591.83	46232.60
591.99	46597.73
592.15	45921.31
592.31	46656.24
592.46	46600.07
592.62	46630.49
592.78	46492.40
592.94	46869.23
593.10	46611.77
593.26	46504.10
593.41	46309.84
593.57	46218.56
593.73	46043.02
593.89	46380.06
594.05	46733.48
594.20	46253.67
594.36	46454.95
594.52	46651.56
594.68	46272.39
594.84	46248.99
594.99	46787.31
595.15	46511.13
595.31	46904.34
595.47	46813.05
595.62	46923.06
595.78	46880.93
595.94	47028.38
596.10	46457.29
596.25	46539.21
596.41	46822.42
596.57	46473.68
596.73	47023.70
596.88	46628.15
597.04	46742.84
597.20	46499.42
597.36	46784.97
597.51	46845.82
597.67	46384.74
597.83	46476.02
597.99	46586.02
598.14	46866.89
598.30	46557.94
598.46	46607.09
598.61	46567.30
598.77	46646.88
598.93	46689.01
599.09	46628.15
599.24	47042.43
599.40	46766.24
599.56	46880.93
599.71	46363.67
599.87	46845.82
600.03	46927.74
600.18	47110.30
600.34	46913.70
600.50	46817.74
600.65	46569.64
600.81	46780.29
600.97	46534.53
601.12	46930.08
601.28	46775.61
601.44	46724.11
601.59	46691.35
601.75	46796.67
601.91	46466.66
602.06	46183.45
602.22	46494.74
602.37	46768.58
602.53	46204.52
602.69	46553.26
602.84	46525.17
603.00	46473.68
603.16	46710.07
603.31	46094.51
603.47	46068.76
603.62	46237.28
603.78	46579.00
603.94	46466.66
604.09	46738.16
604.25	46869.23
604.40	46656.24
604.56	46356.65
604.71	46646.88
604.87	46335.59
605.03	46791.99
605.18	47105.62
605.34	46691.35
605.49	46284.09
605.65	46691.35
605.80	46564.96
605.96	46635.17
606.12	46646.88
606.27	46890.29
606.43	46375.37
606.58	46426.87
606.74	46141.32
606.89	46108.55
607.05	46471.34
607.20	46445.59
607.36	46225.58
607.51	46316.86
607.67	46401.12
607.82	46171.75
607.98	45977.48
608.13	46553.26
608.29	46459.63
608.44	46131.96
608.60	46000.89
608.75	46012.59
608.91	45848.75
609.06	45750.45
609.22	46349.63
609.37	45696.62
609.53	45797.26
609.68	46298.14
609.84	45867.48
609.99	45860.46
610.15	46012.59
610.30	45799.60
610.46	45881.52
610.61	46155.36
610.76	46167.07
610.92	45806.62
611.07	46284.09
611.23	45923.65
611.38	46061.74
611.54	45626.40
611.69	45876.84
611.84	46082.81
612.00	45687.26
612.15	45483.63
612.31	45771.52
612.46	45713.00
612.62	46007.91
612.77	45284.68
612.92	45968.12
613.08	46089.83
613.23	45617.04
613.39	45797.26
613.54	45492.99
613.69	45535.12
613.85	45762.15
614.00	45530.44
614.15	45635.77
614.31	45174.68
614.46	46131.96
614.62	45298.73
614.77	45600.66
614.92	45514.06
615.08	45408.73
615.23	45530.44
615.38	45450.86
615.54	44931.26
615.69	45088.08
615.84	45177.02
616.00	45242.56
616.15	45509.38
616.30	45258.94
616.46	44760.40
616.61	45015.52
616.76	44884.45
616.92	45003.82
617.07	45083.40
617.22	44987.44
617.37	44612.95
617.53	45254.26
617.68	45249.58
617.83	44659.76
617.99	44982.76
618.14	44966.37
618.29	44734.66
618.45	44964.03
618.60	44746.36
618.75	44861.05
618.90	44928.92
619.06	44540.39
619.21	44966.37
619.36	45031.91
619.51	44545.08
619.67	44825.94
619.82	44729.98
619.97	45226.17
620.12	44486.56
620.28	44584.86
620.43	44631.68
620.58	44797.85
620.73	44327.41
620.89	44355.49
621.04	44872.75
621.19	44240.81
621.34	44486.56
621.49	44456.14
621.65	44217.40
621.80	44236.12
621.95	44264.21
622.10	43948.24
622.25	44135.48
622.41	43920.15
622.56	44217.40
622.71	44294.64
622.86	44250.17
623.01	44315.70
623.16	44189.31
623.32	44189.31
623.47	44474.86
623.62	43899.09
623.77	43873.34
623.92	43892.07
624.07	44093.35
624.23	44044.20
624.38	43269.48
624.53	43449.70
624.68	44165.91
624.83	43908.45
624.98	43976.33
625.13	43533.96
625.29	43643.97
625.44	44105.06
625.59	43674.40
625.74	43070.54
625.89	43402.89
626.04	43402.89
626.19	43428.64
626.34	43533.96
626.49	43489.49
626.65	43388.85
626.80	43735.25
626.95	43356.08
627.10	43276.51
627.25	43435.66
627.40	43192.25
627.55	42780.31
627.70	42777.97
627.85	42742.86
628.00	42632.86
628.15	43154.80
628.30	43222.67
628.45	43442.68
628.60	43185.22
628.76	43049.47
628.91	43061.18
629.06	42880.95
629.21	43075.22
629.36	42808.40
629.51	42363.70
629.66	42735.84
629.81	42284.12
629.96	42902.02
630.11	43028.41
630.26	42796.70
630.41	43009.68
630.56	42953.51
630.71	42813.08
630.86	42857.55
631.01	42391.78
631.16	42803.72
631.31	42440.93
631.46	42054.75
631.61	42663.28
631.76	42216.24
631.91	42534.56
632.06	42405.83
632.21	42829.46
632.36	42658.60
632.51	42000.91
632.66	42696.05
632.81	42085.17
632.96	42281.78
633.10	42363.70
633.25	41900.27
633.40	42127.30
633.55	42454.98
633.70	42457.32
633.85	42209.22
634.00	42202.20
634.15	42256.03
634.30	42284.12
634.45	41975.17
634.60	42188.16
634.75	41867.50
634.90	42164.75
635.05	42139.00
635.19	41385.35
635.34	41958.78
635.49	41755.16
635.64	41624.09
635.79	41986.87
635.94	42094.53
636.09	41656.85
636.24	41294.07
636.39	41553.87
636.53	41432.16
636.68	41663.88
636.83	41429.82
636.98	41703.67
637.13	41556.21
637.28	41497.70
637.43	41621.75
637.57	41598.34
637.72	41453.23
637.87	41607.70
638.02	41596.00
638.17	41610.04
638.32	41244.92
638.46	41443.87
638.61	40938.31
638.76	40992.14
638.91	41354.93
639.06	41207.47
639.20	41443.87
639.35	41315.14
639.50	41258.96
639.65	41273.01
639.80	41155.98
639.94	41294.07
640.09	40978.10
640.24	41081.08
640.39	40664.47
640.54	40896.18
640.68	41205.13
640.83	41280.03
640.98	40830.65
641.13	40718.30
641.27	40832.99
641.42	40973.42
641.57	41181.73
641.72	40966.40
641.86	40627.02
642.01	40509.99
642.16	40437.44
642.31	40154.23
642.45	40289.98
642.60	40381.26
642.75	40086.36
642.90	40418.71
643.04	40552.12
643.19	40788.52
643.34	40650.42
643.48	40538.08
643.63	39882.73
643.78	40430.41
643.93	40231.47
644.07	40250.19
644.22	40524.04
644.37	40601.27
644.51	40212.74
644.66	40210.40
644.81	40217.43
644.95	40299.34
645.10	40369.56
645.25	40390.62
645.39	40196.36
645.54	40381.26
645.69	39793.79
645.83	39653.36
645.98	39831.24
646.13	40376.58
646.27	40533.40
646.42	39653.36
646.57	40030.18
646.71	40116.78
646.86	39697.83
647.00	39580.80
647.15	40301.68
647.30	39805.49
647.44	39871.03
647.59	39461.43
647.74	39405.26
647.88	39519.95
648.03	39449.73
648.17	39510.58
648.32	39651.02
648.47	39470.79
648.61	39344.41
648.76	39655.70
648.90	39215.68
649.05	39463.77
649.20	39480.16
649.34	39435.69
649.49	39400.58
649.63	39220.36
649.78	39393.56
649.92	39225.04
650.07	39679.10
650.21	39248.44
650.36	39318.66
650.51	39131.42
650.65	39566.76
650.80	39510.58
650.94	39435.69
651.09	39037.80
651.23	39075.24
651.38	39082.27
651.52	39133.76
651.67	38700.76
651.81	38902.04
651.96	39115.03
652.10	38742.89
652.25	39044.82
652.39	38953.54
652.54	38951.20
652.68	39248.44
652.83	39318.66
652.97	39253.12
653.12	39079.92
653.26	38843.53
653.41	38480.75
653.55	38813.10
653.70	38527.56
653.84	38667.99
653.99	38763.95
654.13	38834.17
654.27	38394.15
654.42	38295.85
654.56	38508.83
654.71	38342.66
654.85	38113.28
655.00	38279.46
655.14	37916.68
655.29	38197.54
655.43	38181.16
655.57	37954.13
655.72	37951.79
655.86	37675.60
656.01	37734.12
656.15	37411.12
656.30	37706.03
656.44	38216.27
656.58	38134.35
656.73	37837.10
656.87	37904.98
657.01	38068.81
657.16	37584.32
657.30	37904.98
657.45	37757.52
657.59	37867.53
657.73	37460.27
657.88	37748.16
658.02	37638.15
658.16	37684.97
658.31	38174.14
658.45	38199.88
658.60	37507.08
658.74	37354.95
658.88	37813.70
659.03	37553.90
659.17	37214.52
659.31	37549.21
659.46	36830.67
659.60	37401.76
659.74	36907.91
659.89	37233.24
660.03	36573.21
660.17	37078.77
660.32	37233.24
660.46	37216.86
660.60	37214.52
660.74	36964.08
660.89	37064.72
661.03	36760.45
661.17	36800.24
661.32	36472.57
661.46	36921.95
661.60	36584.91
661.74	36760.45
661.89	36968.76
662.03	36856.42
662.17	36470.23
662.31	36601.30
662.46	36549.81
662.60	36753.43
662.74	36823.65
662.88	36495.97
663.03	36290.01
663.17	36280.64
663.31	35964.67
663.45	35889.77
663.60	36095.74
663.74	35988.08
663.88	35910.84
664.02	35711.89
664.17	36086.38
664.31	35590.19
664.45	35526.99
664.59	35545.72
664.73	35484.86
664.88	35629.98
665.02	35531.67
665.16	35234.42
665.30	35374.86
665.44	34981.65
665.59	35005.05
665.73	35213.36
665.87	34852.92
666.01	35735.30
666.15	35166.55
666.29	35065.91
666.44	35220.38
666.58	34988.67
666.72	35288.26
666.86	35136.12
667.00	35082.29
667.14	35065.91
667.28	34590.78
667.43	34586.10
667.57	34675.04
667.71	34195.23
667.85	34464.39
667.99	34621.20
668.13	34588.44
668.27	34480.77
668.41	34728.87
668.56	34094.58
668.70	34176.50
668.84	34122.67
668.98	33970.54
669.12	34000.96
669.26	34522.90
669.40	33979.90
669.54	34036.07
669.68	33972.88
669.82	33795.00
669.96	33731.80
670.10	33703.71
670.25	33823.08
670.39	33991.60
670.53	33638.18
670.67	33102.20
670.81	33738.82
670.95	33596.05
671.09	33483.70
671.23	33362.00
671.37	33165.39
671.51	33247.31
671.65	32575.58
671.79	32807.29
671.93	33017.94
672.07	33085.81
672.21	32907.93
672.35	32596.64
672.49	33200.50
672.63	32809.63
672.77	32664.52
672.91	32500.68
673.05	32364.93
673.19	32421.10
673.33	32194.07
673.47	31903.84
673.61	31950.65
673.75	31934.27
673.89	31761.07
674.03	31534.04
674.17	31662.77
674.31	31438.08
674.45	31702.56
674.59	31398.29
674.73	31835.97
674.87	31353.82
675.01	31292.96
675.15	31421.69
675.29	31524.68
675.43	31559.78
675.56	31309.35
675.70	31199.34
675.84	30682.08
675.98	30178.87
676.12	30976.99
676.26	31026.14
676.40	30602.50
676.54	30572.08
676.68	30635.27
676.82	29928.43
676.96	30059.50
677.10	30288.87
677.23	30235.04
677.37	30312.28
677.51	30031.41
677.65	29949.50
677.79	29799.70
677.93	29738.85
678.07	29844.17
678.21	29399.47
678.34	29586.71
678.48	29584.37
678.62	29308.19
678.76	29371.38
678.90	28966.47
679.04	29333.93
679.18	28655.18
679.31	28458.57
679.45	28732.42
679.59	28617.73
679.73	28379.00
679.87	28341.55
680.00	28437.51
680.14	28224.52
680.28	27892.16
680.42	27896.85
680.56	28252.61
680.70	27995.15
680.83	28013.87
680.97	27948.34
681.11	27466.19
681.25	27161.92
681.39	27529.38
681.52	27637.05
681.66	27428.74
681.80	27639.39
681.94	26984.04
682.07	27028.51
682.21	27391.29
682.35	26965.31
682.49	26604.87
682.62	26883.39
682.76	26696.15
682.90	26424.65
683.04	26735.94
683.17	26469.12
683.31	26459.76
683.45	26424.65
683.59	25921.43
683.72	25572.69
683.86	25720.15
684.00	25607.80
684.13	25734.19
684.27	26029.10
684.41	25898.03
684.55	25619.50
684.68	25556.31
684.82	25333.96
684.96	25263.74
685.09	25422.90
685.23	25036.71
685.37	25081.18
685.50	24868.19
685.64	24882.24
685.78	24854.15
685.91	24727.76
686.05	24500.73
686.19	24283.06
686.32	24318.17
686.46	23955.38
686.60	24137.94
686.73	23882.83
686.87	24112.20
687.01	23761.12
687.14	23524.72
687.28	23337.48
687.42	23693.24
687.55	23314.08
687.69	23648.77
687.82	23281.31
687.96	23211.09
688.10	23452.17
688.23	23536.43
688.37	23026.19
688.50	22946.61
688.64	22981.72
688.78	22497.23
688.91	22476.16
689.05	22984.06
689.18	22733.62
689.32	22464.46
689.46	22345.09
689.59	22607.23
689.73	22560.42
689.86	22132.11
690.00	22038.48
690.13	22214.02
690.27	21958.91
690.41	21642.93
690.54	21869.97
690.68	21282.49
690.81	21617.19
690.95	21432.29
691.08	21432.29
691.22	21408.88
691.35	21376.11
691.49	21649.96
691.62	21326.96
691.76	21179.51
691.89	20828.43
692.03	20961.84
692.16	20613.10
692.30	20865.88
692.43	20615.44
692.57	20060.73
692.70	20891.62
692.84	20402.45
692.97	20470.33
693.11	20418.83
693.24	20341.60
693.38	20184.78
693.51	20112.22
693.65	20039.67
693.78	20109.88
693.92	20013.92
694.05	20023.28
694.19	19765.82
694.32	19644.12
694.45	19953.07
694.59	19419.42
694.72	19367.93
694.86	19304.74
694.99	18948.98
695.13	19047.28
695.26	18778.12
695.39	19023.87
695.53	19007.49
695.66	18696.20
695.80	18801.52
695.93	18373.21
696.07	18291.29
696.20	18654.07
696.33	18574.49
696.47	18382.57
696.60	18317.03
696.73	18211.71
696.87	18141.49
697.00	17776.37
697.14	17764.67
697.27	17916.80
697.40	17872.33
697.54	17937.87
697.67	17607.85
697.80	17561.04
697.94	17312.94
698.07	17710.83
698.21	17123.36
698.34	17195.92
698.47	17406.56
698.61	16910.37
698.74	16648.23
698.87	16982.93
699.01	17013.35
699.14	16650.57
699.27	16491.41
699.40	16641.21
699.54	16690.36
699.67	16170.76
699.80	16470.35
699.94	16594.40
700.07	16465.67
700.20	16526.52
700.34	15985.86
700.47	16184.80
700.60	16262.04
700.73	16350.98
700.87	16067.78
701.00	16079.48
701.13	16042.03
701.26	15899.26
701.40	15613.71
701.53	15370.30
701.66	15571.58
701.79	15274.34
701.93	15419.45
702.06	15185.40
702.19	15012.20
702.32	15080.07
702.46	15007.52
702.59	15328.17
702.72	14913.89
702.85	14766.44
702.99	14853.04
703.12	14988.79
703.25	15105.82
703.38	14609.62
703.51	14546.43
703.65	14305.35
703.78	14569.83
703.91	14721.97
704.04	14743.03
704.17	14230.46
704.31	14047.90
704.44	14260.88
704.57	14104.07
704.70	14061.94
704.83	13799.80
704.96	14090.02
705.10	14160.24
705.23	13930.87
>>>>>End Processed Spectral Data<<<<<
