SpectraSuite Data File
++++++++++++++++++++++++++++++++++++
Date: Fri Oct 25 11:34:28 EDT 2013
User: price-jones
Dark Spectrum Present: No
Reference Spectrum Present: No
Number of Sampled Component Spectra: 1
Spectrometers: USB2+H05261
Integration Time (usec): 100000 (USB2+H05261)
Spectra Averaged: 1 (USB2+H05261)
Boxcar Smoothing: 0 (USB2+H05261)
Correct for Electrical Dark: No (USB2+H05261)
Strobe/Lamp Enabled: No (USB2+H05261)
Correct for Detector Non-linearity: No (USB2+H05261)
Correct for Stray Light: No (USB2+H05261)
Number of Pixels in Processed Spectrum: 2048
>>>>>Begin Processed Spectral Data<<<<<
365.73	264.48
365.92	264.48
366.12	264.48
366.32	177.88
366.52	215.33
366.72	201.29
366.91	126.39
367.11	149.79
367.31	187.24
367.51	140.43
367.70	154.48
367.90	189.58
368.10	131.07
368.30	241.08
368.49	210.65
368.69	126.39
368.89	238.73
369.09	142.77
369.28	182.56
369.48	168.52
369.68	182.56
369.87	250.44
370.07	290.23
370.27	327.68
370.47	365.12
370.66	519.60
370.86	479.81
371.06	550.03
371.25	587.47
371.45	554.71
371.65	582.79
371.84	566.41
372.04	571.09
372.24	594.50
372.44	568.75
372.63	610.88
372.83	578.11
373.03	615.56
373.22	557.05
373.42	528.96
373.62	552.37
373.81	575.77
374.01	638.97
374.21	638.97
374.40	587.47
374.60	610.88
374.79	641.31
374.99	627.26
375.19	610.88
375.38	585.13
375.58	592.16
375.78	599.18
375.97	697.48
376.17	711.52
376.37	662.37
376.56	678.76
376.76	688.12
376.95	645.99
377.15	671.73
377.35	594.50
377.54	786.42
377.74	699.82
377.93	755.99
378.13	683.44
378.33	720.88
378.52	634.29
378.72	697.48
378.91	690.46
379.11	688.12
379.31	671.73
379.50	641.31
379.70	676.41
379.89	690.46
380.09	671.73
380.28	770.04
380.48	685.78
380.68	645.99
380.87	599.18
381.07	636.63
381.26	676.41
381.46	716.20
381.65	781.74
381.85	765.36
382.04	746.63
382.24	725.57
382.43	805.14
382.63	779.40
382.83	826.21
383.02	809.83
383.22	809.83
383.41	748.97
383.61	774.72
383.80	746.63
384.00	779.40
384.19	765.36
384.39	840.25
384.58	823.87
384.78	844.93
384.97	861.32
385.17	891.74
385.36	868.34
385.56	856.64
385.75	807.48
385.95	807.48
386.14	847.27
386.34	718.54
386.53	887.06
386.72	868.34
386.92	753.65
387.11	851.96
387.31	870.68
387.50	889.40
387.70	910.47
387.89	837.91
388.09	828.55
388.28	823.87
388.48	840.25
388.67	922.17
388.86	943.24
389.06	884.72
389.25	910.47
389.45	985.37
389.64	877.70
389.84	950.26
390.03	938.55
390.22	943.24
390.42	961.96
390.61	835.57
390.81	908.13
391.00	992.39
391.19	957.28
391.39	990.05
391.58	959.62
391.78	999.41
391.97	971.32
392.16	978.34
392.36	964.30
392.55	961.96
392.75	1013.45
392.94	978.34
393.13	1050.90
393.33	1020.47
393.52	1046.22
393.71	1071.97
393.91	1109.41
394.10	1039.20
394.29	1100.05
394.49	1013.45
394.68	1046.22
394.88	1114.10
395.07	1109.41
395.26	1050.90
395.46	1130.48
395.65	1135.16
395.84	1090.69
396.04	1233.46
396.23	1184.31
396.42	1174.95
396.62	1193.67
396.81	1156.22
397.00	1224.10
397.19	1196.01
397.39	1172.61
397.58	1184.31
397.77	1196.01
397.97	1196.01
398.16	1226.44
398.35	1217.08
398.55	1219.42
398.74	1158.57
398.93	1313.04
399.12	1287.29
399.32	1238.14
399.51	1277.93
399.70	1322.40
399.90	1362.19
400.09	1320.06
400.28	1331.76
400.47	1341.13
400.67	1301.34
400.86	1413.68
401.05	1308.36
401.24	1376.24
401.44	1420.71
401.63	1425.39
401.82	1401.98
402.01	1432.41
402.21	1537.73
402.40	1373.89
402.59	1441.77
402.78	1427.73
402.97	1441.77
403.17	1446.45
403.36	1514.33
403.55	1462.83
403.74	1540.07
403.93	1544.75
404.13	1542.41
404.32	1563.48
404.51	1493.26
404.70	1544.75
404.89	1493.26
405.09	1614.97
405.28	1584.54
405.47	1640.72
405.66	1650.08
405.85	1584.54
406.05	1661.78
406.24	1680.50
406.43	1654.76
406.62	1762.42
406.81	1755.40
407.00	1724.97
407.20	1696.89
407.39	1640.72
407.58	1795.19
407.77	1811.57
407.96	1785.83
408.15	1898.17
408.34	1820.94
408.54	1823.28
408.73	1856.04
408.92	1774.13
409.11	1856.04
409.30	1989.46
409.49	1874.77
409.68	1870.09
409.87	1900.52
410.07	1987.11
410.26	2066.69
410.45	2017.54
410.64	2001.16
410.83	1966.05
411.02	1973.07
411.21	2186.06
411.40	2050.31
411.59	2050.31
411.78	2200.10
411.98	2076.06
412.17	2099.46
412.36	2225.85
412.55	2073.71
412.74	2176.70
412.93	2335.85
413.12	2176.70
413.31	2291.38
413.50	2275.00
413.69	2225.85
413.88	2345.22
414.07	2340.54
414.26	2422.45
414.45	2448.20
414.64	2420.11
414.83	2462.24
415.02	2455.22
415.22	2534.80
415.41	2551.18
415.60	2487.99
415.79	2609.70
415.98	2532.46
416.17	2654.17
416.36	2537.14
416.55	2635.44
416.74	2698.64
416.93	2621.40
417.12	2705.66
417.31	2869.50
417.50	2785.24
417.69	2796.94
417.88	2850.77
418.07	2846.09
418.26	2862.48
418.45	2883.54
418.64	3068.44
418.83	3059.08
419.02	3016.95
419.21	2935.03
419.39	2925.67
419.58	2846.09
419.77	2904.60
419.96	2977.16
420.15	2930.35
420.34	2970.14
420.53	2953.76
420.72	3073.12
420.91	3169.09
421.10	3255.69
421.29	3038.02
421.48	3143.34
421.67	3124.62
421.86	3138.66
422.05	3129.30
422.24	3194.83
422.43	3246.32
422.61	3243.98
422.80	3192.49
422.99	3290.79
423.18	3396.12
423.37	3297.81
423.56	3260.37
423.75	3321.22
423.94	3279.09
424.13	2988.86
424.32	3272.07
424.50	3316.54
424.69	3251.00
424.88	3386.76
425.07	3335.26
425.26	3171.43
425.45	3260.37
425.64	3241.64
425.83	3218.24
426.01	3372.71
426.20	3283.77
426.39	3405.48
426.58	3368.03
426.77	3297.81
426.96	3424.20
427.15	3424.20
427.33	3410.16
427.52	3461.65
427.71	3447.61
427.90	3330.58
428.09	3555.27
428.28	3609.11
428.46	3506.12
428.65	3550.59
428.84	3595.06
429.03	3632.51
429.22	3534.21
429.40	3503.78
429.59	3611.45
429.78	3433.57
429.97	3510.80
430.16	3637.19
430.34	3768.26
430.53	3662.94
430.72	3665.28
430.91	3639.53
431.10	3740.18
431.28	3861.88
431.47	3730.81
431.66	3726.13
431.85	3831.46
432.03	3815.07
432.22	3908.69
432.41	3801.03
432.60	3889.97
432.79	3967.21
432.97	3852.52
433.16	4058.49
433.35	3967.21
433.54	3974.23
433.72	4114.66
433.91	4030.40
434.10	3997.64
434.28	3988.27
434.47	4042.11
434.66	4109.98
434.85	4102.96
435.03	4049.13
435.22	4145.09
435.41	4147.43
435.59	4231.69
435.78	4173.18
435.97	4227.01
436.16	4262.12
436.34	4315.95
436.53	4358.08
436.72	4414.25
436.90	4205.94
437.09	4440.00
437.28	4301.90
437.46	4327.65
437.65	4304.25
437.84	4461.06
438.02	4414.25
438.21	4550.00
438.40	4510.21
438.58	4603.83
438.77	4432.97
438.96	4526.60
439.14	4671.71
439.33	4709.16
439.52	4739.58
439.70	4762.99
439.89	4842.57
440.08	4784.06
440.26	4868.31
440.45	4758.31
440.63	4847.25
440.82	4919.81
441.01	4863.63
441.19	4961.94
441.38	4936.19
441.57	5013.43
441.75	5062.58
441.94	5029.81
442.12	5214.71
442.31	5228.76
442.50	5156.20
442.68	5228.76
442.87	5212.37
443.05	5277.91
443.24	5252.16
443.43	5184.29
443.61	5366.85
443.80	5355.15
443.98	5238.12
444.17	5224.08
444.35	5114.07
444.54	5397.28
444.73	5334.08
444.91	5338.76
445.10	5439.40
445.28	5383.23
445.47	5413.66
445.65	5439.40
445.84	5495.58
446.02	5495.58
446.21	5483.88
446.39	5530.69
446.58	5598.56
446.77	5427.70
446.95	5357.49
447.14	5235.78
447.32	5689.84
447.51	5521.32
447.69	5507.28
447.88	5593.88
448.06	5504.94
448.25	5621.97
448.43	5568.13
448.62	5509.62
448.80	5680.48
448.99	5636.01
449.17	5645.37
449.36	5556.43
449.54	5804.53
449.73	5809.21
449.91	5795.17
450.10	5823.25
450.28	5790.49
450.46	5907.51
450.65	5841.98
450.83	5841.98
451.02	5884.11
451.20	5809.21
451.39	5991.77
451.57	5907.51
451.76	5788.14
451.94	5916.87
452.13	5837.30
452.31	6094.76
452.49	5928.58
452.68	6094.76
452.86	6092.41
453.05	6036.24
453.23	6101.78
453.42	6015.18
453.60	6216.46
453.78	6169.65
453.97	6118.16
454.15	6001.13
454.34	6054.97
454.52	6115.82
454.70	6382.64
454.89	6305.40
455.07	6408.39
455.26	6251.57
455.44	6424.77
455.62	6377.96
455.81	6377.96
455.99	6534.78
456.17	6450.52
456.36	6438.81
456.54	6469.24
456.73	6691.59
456.91	6780.53
457.09	6630.74
457.28	6799.26
457.46	6621.38
457.64	6726.70
457.83	6832.02
458.01	6661.16
458.19	6942.03
458.38	6764.15
458.56	6773.51
458.74	6850.75
458.93	6956.07
459.11	6988.84
459.29	6869.47
459.48	6932.67
459.66	7021.61
459.84	6909.26
460.03	7070.76
460.21	7047.35
460.39	7131.61
460.57	7166.72
460.76	7126.93
460.94	7133.95
461.12	7337.58
461.31	7138.63
461.49	7052.03
461.67	7262.68
461.85	7269.70
462.04	7148.00
462.22	7716.75
462.40	7363.33
462.59	7339.92
462.77	7330.56
462.95	7426.52
463.13	7365.67
463.32	7634.83
463.50	7513.12
463.68	7616.10
463.86	7660.57
464.05	7536.52
464.23	7487.37
464.41	7569.29
464.59	7487.37
464.78	7705.04
464.96	7646.53
465.14	7470.99
465.32	7700.36
465.50	7613.76
465.69	7889.95
465.87	7744.83
466.05	7735.47
466.23	7925.05
466.41	7791.64
466.60	7985.91
466.78	7847.82
466.96	7878.24
467.14	7885.26
467.32	7925.05
467.51	8053.78
467.69	7740.15
467.87	7885.26
468.05	7999.95
468.23	7803.35
468.41	7929.74
468.60	8180.17
468.78	8135.70
468.96	8072.51
469.14	8264.43
469.32	8334.65
469.50	8018.68
469.69	8294.86
469.87	8468.06
470.05	8346.35
470.23	8353.37
470.41	8425.93
470.59	8531.25
470.77	8280.82
470.95	8568.70
471.14	8594.45
471.32	8329.97
471.50	8755.94
471.68	8704.45
471.86	8667.00
472.04	8685.73
472.22	8931.48
472.40	8739.56
472.58	8809.78
472.77	8872.97
472.95	8908.08
473.13	9184.26
473.31	8884.67
473.49	9097.66
473.67	8973.61
473.85	8940.85
474.03	9371.50
474.21	9195.96
474.39	9411.29
474.57	9390.23
474.75	9380.87
474.93	9605.56
475.12	9336.40
475.30	9703.86
475.48	9411.29
475.66	9603.22
475.84	9675.77
476.02	9689.82
476.20	9570.45
476.38	9973.02
476.56	10178.99
476.74	10143.88
476.92	9984.73
477.10	9804.50
477.28	10169.63
477.46	10092.39
477.64	10368.57
477.82	10546.45
478.00	10684.55
478.18	10682.20
478.36	10586.24
478.54	10684.55
478.72	10607.31
478.90	10679.86
479.08	11009.88
479.26	11169.04
479.44	11204.14
479.62	11215.85
479.80	11421.81
479.98	11485.01
480.16	11501.39
480.34	11438.20
480.52	11690.98
480.70	11611.40
480.88	11503.73
481.06	11618.42
481.24	11861.84
481.41	12053.76
481.59	12161.42
481.77	12079.50
481.95	12147.38
482.13	12540.59
482.31	12428.24
482.49	12505.48
482.67	12786.35
482.85	12688.04
483.03	12957.21
483.21	12968.91
483.39	13329.35
483.57	13167.85
483.74	13191.26
483.92	13652.34
484.10	13247.43
484.28	13640.64
484.46	13792.78
484.64	14193.01
484.82	13771.71
485.00	13963.64
485.18	14171.94
485.35	14576.86
485.53	14335.78
485.71	14586.22
485.89	14792.19
486.07	14712.61
486.25	14616.65
486.43	14649.41
486.61	14721.97
486.78	14949.00
486.96	15255.61
487.14	15152.63
487.32	15243.91
487.50	15726.06
487.68	15754.15
487.85	15974.16
488.03	15882.88
488.21	16009.26
488.39	16105.23
488.57	16168.42
488.75	16460.99
488.92	16655.25
489.10	16662.27
489.28	16805.05
489.46	17069.53
489.64	17034.42
489.81	17355.07
489.99	17357.41
490.17	17160.81
490.35	17383.16
490.53	17788.07
490.70	17689.77
490.88	17481.46
491.06	17823.18
491.24	18169.58
491.41	18207.03
491.59	18307.67
491.77	18270.22
491.95	18422.36
492.13	18450.44
492.30	18902.17
492.48	18691.52
492.66	19218.14
492.84	19091.75
493.01	19009.83
493.19	19208.78
493.37	19475.60
493.54	19433.47
493.72	19580.92
493.90	19646.46
494.08	19761.14
494.25	20009.24
494.43	20212.87
494.61	20259.68
494.79	20322.87
494.96	20077.12
495.14	20559.27
495.32	20755.87
495.49	20980.56
495.67	20643.52
495.85	20837.79
496.02	21142.06
496.20	21202.91
496.38	21097.59
496.55	21509.52
496.73	21900.39
496.91	21628.89
497.09	21891.03
497.26	21963.59
497.44	21867.63
497.62	21933.16
497.79	22527.66
497.97	22431.69
498.14	22703.20
498.32	22492.55
498.50	22588.51
498.67	22703.20
498.85	22899.80
499.03	22640.00
499.20	23087.04
499.38	22892.78
499.56	23005.13
499.73	23349.18
499.91	23278.97
500.08	23442.81
500.26	23435.78
500.44	23639.41
500.61	23821.97
500.79	23431.10
500.97	23370.25
501.14	24144.97
501.32	23946.02
501.49	24077.09
501.67	24198.80
501.84	24608.39
502.02	24369.66
502.20	24496.05
502.37	24458.60
502.55	24339.23
502.72	24505.41
502.90	24519.45
503.07	24577.97
503.25	24975.86
503.43	24732.44
503.60	25277.79
503.78	25184.16
503.95	24767.55
504.13	25207.57
504.30	25495.46
504.48	25455.67
504.65	25635.89
504.83	25813.77
505.01	25883.98
505.18	25736.53
505.36	25961.22
505.53	26036.12
505.71	25963.56
505.88	26387.20
506.06	26125.06
506.23	26480.82
506.41	26555.72
506.58	26246.77
506.76	26366.13
506.93	26478.48
507.11	26625.93
507.28	26845.94
507.46	27028.51
507.63	26712.53
507.81	26965.31
507.98	26815.52
508.16	26984.04
508.33	27391.29
508.50	27517.68
508.68	27515.34
508.85	27498.95
509.03	27440.44
509.20	27466.19
509.38	27442.78
509.55	27796.20
509.73	27541.08
509.90	27896.85
510.08	27931.95
510.25	28245.58
510.42	28006.85
510.60	28257.29
510.77	28231.54
510.95	28727.74
511.12	28481.98
511.30	28704.33
511.47	28828.38
511.64	28706.67
511.82	28821.36
511.99	29032.00
512.17	28982.85
512.34	29202.86
512.51	29479.05
512.69	29212.23
512.86	29439.26
513.04	29450.96
513.21	29628.84
513.38	29715.44
513.56	29717.78
513.73	29722.46
513.90	29376.06
514.08	29584.37
514.25	30010.35
514.43	30155.46
514.60	30260.79
514.77	30209.29
514.95	30258.45
515.12	30101.63
515.29	30188.23
515.47	30132.06
515.64	30742.94
515.81	30038.44
515.99	30764.00
516.16	30782.73
516.33	30857.62
516.51	30869.33
516.68	30712.51
516.85	30920.82
517.03	31026.14
517.20	31370.20
517.37	31229.77
517.54	31573.83
517.72	31124.44
517.89	31538.72
518.06	31695.53
518.24	31468.50
518.41	31466.16
518.58	31145.51
518.75	31374.88
518.93	31754.05
519.10	31473.18
519.27	31882.78
519.45	32020.87
519.62	31931.93
519.79	32044.27
519.96	32264.28
520.14	32079.38
520.31	32154.28
520.48	32313.44
520.65	32400.04
520.83	32767.50
521.00	32528.77
521.17	32545.15
521.34	32664.52
521.52	32385.99
521.69	32676.22
521.86	33172.41
522.03	33652.22
522.20	33053.05
522.38	33282.42
522.55	33427.53
522.72	33141.99
522.89	33394.76
523.07	33940.11
523.24	33703.71
523.41	33797.34
523.58	33319.87
523.75	33762.23
523.92	33708.40
524.10	33874.57
524.27	34026.71
524.44	34040.75
524.61	34164.80
524.78	34132.03
524.96	34115.65
525.13	34183.52
525.30	34263.10
525.47	34719.51
525.64	34572.05
525.81	34691.42
525.98	34518.22
526.16	34733.55
526.33	34424.60
526.50	34986.33
526.67	34773.34
526.84	34440.98
527.01	34579.07
527.18	35084.63
527.36	35164.21
527.53	34969.94
527.70	35281.24
527.87	35325.71
528.04	35161.87
528.21	35288.26
528.38	35508.27
528.55	35367.84
528.72	35079.95
528.89	35828.92
529.07	35491.88
529.24	35573.80
529.41	35903.82
529.58	35349.11
529.75	35522.31
529.92	35571.46
530.09	35868.71
530.26	35789.13
530.43	36114.47
530.60	35531.67
530.77	36105.10
530.94	36074.68
531.11	36182.34
531.28	36187.02
531.46	36467.89
531.63	36488.95
531.80	36407.03
531.97	36355.54
532.14	36400.01
532.31	36575.55
532.48	36648.11
532.65	36715.98
532.82	36280.64
532.99	36849.39
533.16	36807.26
533.33	37418.14
533.50	36835.35
533.67	37228.56
533.84	36629.38
534.01	36526.40
534.18	36788.54
534.35	37476.66
534.52	37376.01
534.69	37792.63
534.86	37408.78
535.03	37188.77
535.20	37521.13
535.37	37525.81
535.54	37537.51
535.71	37605.39
535.88	37752.84
536.05	37677.94
536.22	37759.86
536.38	37825.40
536.55	37577.30
536.72	37619.43
536.89	37663.90
537.06	37748.16
537.23	38359.04
537.40	38335.63
537.57	37600.71
537.74	37956.47
537.91	38045.41
538.08	38202.22
538.25	38335.63
538.42	38206.90
538.59	38499.47
538.75	38464.36
538.92	38693.74
539.09	38455.00
539.26	38499.47
539.43	38916.09
539.60	38990.98
539.77	38932.47
539.94	39290.57
540.11	38691.40
540.28	38761.61
540.44	38740.55
540.61	39222.70
540.78	38845.87
540.95	38735.87
541.12	38986.30
541.29	39147.80
541.46	39082.27
541.62	38990.98
541.79	39208.65
541.96	38864.60
542.13	38913.75
542.30	39210.99
542.47	39297.59
542.63	39803.15
542.80	39309.30
542.97	39646.33
543.14	39721.23
543.31	39791.45
543.48	39899.11
543.64	40392.97
543.81	40264.24
543.98	39962.31
544.15	40088.70
544.32	40350.84
544.48	40795.54
544.65	40257.21
544.82	40044.23
544.99	40203.38
545.16	40051.25
545.32	40212.74
545.49	40975.76
545.66	40893.84
545.83	40945.33
546.00	40722.98
546.16	40446.80
546.33	40432.75
546.50	40669.15
546.67	40598.93
546.83	40191.68
547.00	40638.72
547.17	40507.65
547.34	41155.98
547.50	41118.53
547.67	40971.08
547.84	41247.26
548.00	41422.80
548.17	41209.81
548.34	41179.39
548.51	41282.37
548.67	41497.70
548.84	41216.83
549.01	41010.87
549.18	41205.13
549.34	41666.22
549.51	41514.08
549.68	41694.30
549.84	41579.62
550.01	41640.47
550.18	41338.54
550.34	41759.84
550.51	41397.06
550.68	41668.56
550.84	41375.99
551.01	42071.13
551.18	41422.80
551.34	41977.51
551.51	41633.45
551.68	42052.41
551.84	41535.15
552.01	42007.94
552.18	41958.78
552.34	41881.55
552.51	41596.00
552.68	42045.38
552.84	42230.29
553.01	42323.91
553.18	41972.83
553.34	42073.47
553.51	41610.04
553.67	42740.52
553.84	42485.40
554.01	42536.90
554.17	42293.48
554.34	42859.89
554.51	42412.85
554.67	42670.31
554.84	42644.56
555.00	42288.80
555.17	42230.29
555.33	42817.76
555.50	42649.24
555.67	42906.70
555.83	42684.35
556.00	43096.28
556.16	43299.91
556.33	42960.53
556.50	42885.64
556.66	42686.69
556.83	43016.71
556.99	43002.66
557.16	43391.19
557.32	43063.52
557.49	42965.21
557.65	43117.35
557.82	42855.21
557.98	42766.27
558.15	42705.41
558.32	43201.61
558.48	43145.44
558.65	43278.85
558.81	43056.50
558.98	43199.27
559.14	43276.51
559.31	43185.22
559.47	43328.00
559.64	43201.61
559.80	43187.56
559.97	43438.00
560.13	43714.19
560.30	43264.80
560.46	43480.13
560.63	43660.35
560.79	43814.83
560.96	43831.21
561.12	44189.31
561.29	43941.22
561.45	43667.37
561.61	43421.62
561.78	43779.72
561.94	43924.83
562.11	43508.22
562.27	44095.69
562.44	43665.03
562.60	44179.95
562.77	43943.56
562.93	43777.38
563.10	43906.11
563.26	43681.42
563.42	44538.05
563.59	43863.98
563.75	43573.75
563.92	44055.90
564.08	43665.03
564.24	43723.55
564.41	44245.49
564.57	43770.36
564.74	44229.10
564.90	43658.01
565.07	44165.91
565.23	44287.62
565.39	44294.64
565.56	44451.45
565.72	44142.50
565.88	43768.02
566.05	44247.83
566.21	44086.33
566.38	44456.14
566.54	44102.71
566.70	44446.77
566.87	44694.87
567.03	44240.81
567.19	44179.95
567.36	43969.30
567.52	44664.44
567.68	44634.02
567.85	44535.71
568.01	44428.05
568.17	44259.53
568.34	44547.42
568.50	44357.83
568.66	44292.30
568.83	44446.77
568.99	44161.23
569.15	44802.53
569.32	44350.81
569.48	44465.50
569.64	44989.78
569.81	44891.48
569.97	44996.80
570.13	44818.92
570.30	44488.90
570.46	44605.93
570.62	44538.05
570.78	44776.79
570.95	44657.42
571.11	44940.63
571.27	44650.40
571.43	44444.43
571.60	44739.34
571.76	44406.98
571.92	44631.68
572.09	44531.03
572.25	44671.46
572.41	44512.31
572.57	44769.77
572.74	44921.90
572.90	45139.57
573.06	44832.96
573.22	44882.11
573.38	45043.61
573.55	44980.42
573.71	45125.53
573.87	44947.65
574.03	44687.85
574.20	45148.93
574.36	45085.74
574.52	45067.02
574.68	45038.93
574.84	44987.44
575.01	45172.34
575.17	45027.23
575.33	44879.77
575.49	44823.60
575.65	44610.61
575.82	45027.23
575.98	45020.20
576.14	45207.45
576.30	45284.68
576.46	44643.38
576.62	45109.14
576.79	45097.44
576.95	44790.83
577.11	44968.71
577.27	44992.12
577.43	44994.46
577.59	44856.37
577.75	44804.88
577.92	44650.40
578.08	45167.66
578.24	44814.24
578.40	45617.04
578.56	45092.76
578.72	45036.59
578.88	45352.56
579.04	44844.66
579.21	45102.12
579.37	45521.08
579.53	45198.09
579.69	45057.65
579.85	44561.46
580.01	44935.95
580.17	45041.27
580.33	45202.77
580.49	45495.33
580.65	45172.34
580.82	45043.61
580.98	44989.78
581.14	45020.20
581.30	45481.29
581.46	45144.25
581.62	45165.32
581.78	44636.36
581.94	45329.16
582.10	44563.80
582.26	45315.11
582.42	45565.55
582.58	44903.18
582.74	44854.03
582.90	44966.37
583.06	45404.05
583.22	45067.02
583.38	45162.98
583.54	44982.76
583.70	45387.67
583.86	45996.21
584.02	45392.35
584.18	45532.78
584.34	45464.91
584.50	45233.19
584.66	45382.99
584.82	45272.98
584.98	45642.79
585.14	45752.79
585.30	45249.58
585.46	45347.88
585.62	45298.73
585.78	45504.70
585.94	45088.08
586.10	45151.27
586.26	45008.50
586.42	45132.55
586.58	44823.60
586.74	45544.48
586.90	44893.82
587.06	45523.42
587.22	44882.11
587.38	45127.87
587.54	45511.72
587.70	45614.70
587.86	45418.10
588.02	45345.54
588.18	45265.96
588.34	45790.24
588.49	45595.98
588.65	45720.02
588.81	45083.40
588.97	45329.16
589.13	45345.54
589.29	45331.50
589.45	45546.82
589.61	45289.37
589.77	45256.60
589.93	45785.56
590.08	45404.05
590.24	45750.45
590.40	46174.09
590.56	45886.20
590.72	45792.58
590.88	45787.90
591.04	45544.48
591.20	45965.78
591.35	45921.31
591.51	45963.44
591.67	45708.32
591.83	45757.47
591.99	45916.63
592.15	45724.71
592.31	45741.09
592.46	45785.56
592.62	46197.49
592.78	46445.59
592.94	46195.15
593.10	46232.60
593.26	45965.78
593.41	46239.62
593.57	46117.92
593.73	46209.20
593.89	46548.57
594.05	46288.77
594.20	46424.53
594.36	46279.41
594.52	46291.12
594.68	45673.21
594.84	45907.27
594.99	45925.99
595.15	46036.00
595.31	45902.59
595.47	45970.46
595.62	45914.29
595.78	45769.18
595.94	46356.65
596.10	45813.65
596.25	46043.02
596.41	46178.77
596.57	46129.62
596.73	46656.24
596.88	45928.33
597.04	46480.70
597.20	46363.67
597.36	46073.45
597.51	46302.82
597.67	45766.84
597.83	45865.14
597.99	46115.58
598.14	46241.96
598.30	45881.52
598.46	45680.24
598.61	46309.84
598.77	45972.80
598.93	46066.42
599.09	46593.04
599.24	46581.34
599.40	46314.52
599.56	46246.65
599.71	46368.35
599.87	46635.17
600.03	46260.69
600.18	46337.93
600.34	46021.95
600.50	46576.66
600.65	46143.66
600.81	46450.27
600.97	46696.03
601.12	46099.19
601.28	46335.59
601.44	46419.84
601.59	46412.82
601.75	46335.59
601.91	46003.23
602.06	46066.42
602.22	46286.43
602.37	46403.46
602.53	46408.14
602.69	46593.04
602.84	46368.35
603.00	46164.73
603.16	46181.11
603.31	46115.58
603.47	46478.36
603.62	46555.60
603.78	46328.56
603.94	46298.14
604.09	46192.81
604.25	46078.13
604.40	46351.97
604.56	46337.93
604.71	46555.60
604.87	45752.79
605.03	45954.08
605.18	46281.75
605.34	46272.39
605.49	45958.76
605.65	46363.67
605.80	45958.76
605.96	45848.75
606.12	46312.18
606.27	46073.45
606.43	45933.01
606.58	46005.57
606.74	46169.41
606.89	46312.18
607.05	46052.38
607.20	46361.33
607.36	46108.55
607.51	45935.35
607.67	46466.66
607.82	46483.04
607.98	46178.77
608.13	46195.15
608.29	46103.87
608.44	46286.43
608.60	45656.83
608.75	46270.05
608.91	45968.12
609.06	45523.42
609.22	46115.58
609.37	45874.50
609.53	46190.47
609.68	46143.66
609.84	45808.96
609.99	46031.32
610.15	45970.46
610.30	46216.22
610.46	45640.45
610.61	45701.30
610.76	45977.48
610.92	45771.52
611.07	45766.84
611.23	45694.28
611.38	45478.95
611.54	46176.43
611.69	46131.96
611.84	45834.71
612.00	45673.21
612.15	46019.61
612.31	45691.94
612.46	45392.35
612.62	45422.78
612.77	45794.92
612.92	46113.23
613.08	45394.69
613.23	45947.06
613.39	45792.58
613.54	45399.37
613.69	45783.22
613.85	45607.68
614.00	45474.27
614.15	46092.17
614.31	45085.74
614.46	45600.66
614.62	45572.57
614.77	45638.11
614.92	45319.79
615.08	45544.48
615.23	45551.51
615.38	45841.73
615.54	45436.82
615.69	45539.80
615.84	45783.22
616.00	45652.15
616.15	45551.51
616.30	45605.34
616.46	45670.87
616.61	45727.05
616.76	45511.72
616.92	45296.39
617.07	45549.17
617.22	45155.96
617.37	45043.61
617.53	45357.24
617.68	45312.77
617.83	45296.39
617.99	45752.79
618.14	45291.71
618.29	45071.70
618.45	44961.69
618.60	44884.45
618.75	44442.09
618.90	44842.32
619.06	45064.67
619.21	45237.87
619.36	45289.37
619.51	44568.48
619.67	44832.96
619.82	44711.25
619.97	45518.74
620.12	45078.72
620.28	44825.94
620.43	45069.36
620.58	45052.97
620.73	44809.56
620.89	45399.37
621.04	44800.19
621.19	45347.88
621.34	44744.02
621.49	44439.75
621.65	44701.89
621.80	45130.21
621.95	44673.81
622.10	44818.92
622.25	44507.63
622.41	44542.74
622.56	44287.62
622.71	44378.90
622.86	44949.99
623.01	44350.81
623.16	44428.05
623.32	44561.46
623.47	44706.57
623.62	44589.55
623.77	44587.21
623.92	44320.38
624.07	44460.82
624.23	44715.93
624.38	44570.82
624.53	44292.30
624.68	43702.48
624.83	44184.63
624.98	44332.09
625.13	43810.15
625.29	43744.61
625.44	44414.01
625.59	44032.50
625.74	44264.21
625.89	43730.57
626.04	43594.82
626.19	44067.61
626.34	43931.86
626.49	43875.68
626.65	43618.22
626.80	43796.10
626.95	43573.75
627.10	43428.64
627.25	44009.09
627.40	43936.54
627.55	43721.21
627.70	43564.39
627.85	44058.24
628.00	43868.66
628.15	43746.95
628.30	43536.30
628.45	43229.69
628.60	43313.95
628.76	43475.45
628.91	43548.01
629.06	42988.62
629.21	43161.82
629.36	43676.74
629.51	43295.23
629.66	43185.22
629.81	43660.35
629.96	43302.25
630.11	43454.39
630.26	43346.72
630.41	43456.73
630.56	43356.08
630.71	43173.52
630.86	43194.59
631.01	43459.07
631.16	42939.47
631.31	43517.58
631.46	43021.39
631.61	43615.88
631.76	43278.85
631.91	43295.23
632.06	43590.14
632.21	43180.54
632.36	43442.68
632.51	42499.45
632.66	43077.56
632.81	42637.54
632.96	42927.77
633.10	42600.09
633.25	43182.88
633.40	43332.68
633.55	43044.79
633.70	42887.98
633.85	42583.71
634.00	42380.08
634.15	42525.19
634.30	42813.08
634.45	42576.69
634.60	42813.08
634.75	43007.34
634.90	42979.26
635.05	43222.67
635.19	42518.17
635.34	42677.33
635.49	42237.31
635.64	42476.04
635.79	42747.54
635.94	42241.99
636.09	42581.37
636.24	42454.98
636.39	42183.48
636.53	42480.72
636.68	42057.09
636.83	41900.27
636.98	42344.97
637.13	41827.71
637.28	41846.44
637.43	42185.82
637.57	42089.85
637.72	41785.58
637.87	42246.67
638.02	42153.05
638.17	42447.96
638.32	41968.15
638.46	42010.28
638.61	41937.72
638.76	41731.75
638.91	42148.37
639.06	42066.45
639.20	41638.13
639.35	41481.31
639.50	41621.75
639.65	41783.24
639.80	42026.66
639.94	42169.43
640.09	41771.54
640.24	42171.77
640.39	41624.09
640.54	41027.25
640.68	41425.14
640.83	42110.92
640.98	41497.70
641.13	41556.21
641.27	42333.27
641.42	41635.79
641.57	41766.86
641.72	41415.78
641.86	41460.25
642.01	41394.71
642.16	41425.14
642.31	41031.93
642.45	41605.36
642.60	41076.40
642.75	41223.86
642.90	41242.58
643.04	41116.19
643.19	41249.60
643.34	41165.34
643.48	41120.87
643.63	41095.13
643.78	41471.95
643.93	41596.00
644.07	41610.04
644.22	41317.48
644.37	40835.33
644.51	41118.53
644.66	41326.84
644.81	40980.44
644.95	41137.26
645.10	41179.39
645.25	40755.75
645.39	40580.21
645.54	40933.63
645.69	40463.18
645.83	40818.94
645.98	40381.26
646.13	40893.84
646.27	40371.90
646.42	40818.94
646.57	40601.27
646.71	40973.42
646.86	40854.05
647.00	40519.35
647.15	40762.77
647.30	41078.74
647.44	40648.08
647.59	40414.03
647.74	40411.69
647.88	40428.07
648.03	40573.19
648.17	40725.32
648.32	40641.06
648.47	40432.75
648.61	40664.47
648.76	40320.41
648.90	40278.28
649.05	40343.81
649.20	40343.81
649.34	40388.28
649.49	40341.47
649.63	40512.33
649.78	40474.88
649.92	40449.14
650.07	40598.93
650.21	39777.40
650.36	40715.96
650.51	40573.19
650.65	40268.92
650.80	40701.92
650.94	39945.92
651.09	39643.99
651.23	39646.33
651.38	39981.03
651.52	39864.00
651.67	39976.35
651.81	39620.59
651.96	39873.37
652.10	40222.11
652.25	39526.97
652.39	39552.71
652.54	40231.47
652.68	39494.20
652.83	39721.23
652.97	40135.51
653.12	39718.89
653.26	39810.17
653.41	39456.75
653.55	39606.55
653.70	39695.49
653.84	40311.05
653.99	39463.77
654.13	40116.78
654.27	39541.01
654.42	39658.04
654.56	39288.23
654.71	39337.38
654.85	40041.88
655.00	39416.96
655.14	39510.58
655.29	39894.43
655.43	39395.90
655.57	39447.39
655.72	39208.65
655.86	39124.40
656.01	38993.32
656.15	39044.82
656.30	39395.90
656.44	38904.38
656.58	39344.41
656.73	39180.57
656.87	38609.48
657.01	38543.94
657.16	39318.66
657.30	38962.90
657.45	38859.91
657.59	38707.78
657.73	38951.20
657.88	38689.06
658.02	39159.50
658.16	39086.95
658.31	38778.00
658.45	38672.67
658.60	38672.67
658.74	38625.86
658.88	38923.11
659.03	38288.82
659.17	38422.23
659.31	38363.72
659.46	38347.34
659.60	38813.10
659.74	38047.75
659.89	38143.71
660.03	37940.08
660.17	38508.83
660.32	38497.13
660.46	38466.70
660.60	37741.14
660.74	37890.93
660.89	37872.21
661.03	38005.62
661.17	37874.55
661.32	37673.26
661.46	38134.35
661.60	37589.00
661.74	37741.14
661.89	37687.31
662.03	37680.28
662.17	37315.16
662.31	37589.00
662.46	37415.80
662.60	37411.12
662.74	37097.49
662.88	37172.39
663.03	36856.42
663.17	37141.96
663.31	37134.94
663.45	37464.96
663.60	37165.37
663.74	37546.87
663.88	37261.33
664.02	36446.82
664.17	36921.95
664.31	36620.02
664.45	36730.03
664.59	36474.91
664.73	36828.33
664.88	36650.45
665.02	36353.20
665.16	36013.82
665.30	36601.30
665.44	36456.18
665.59	36041.91
665.73	35580.82
665.87	35943.61
666.01	36374.27
666.15	36500.65
666.29	36137.87
666.44	36044.25
666.58	36039.57
666.72	35775.09
666.86	35910.84
667.00	35805.52
667.14	35756.36
667.28	35665.08
667.43	35573.80
667.57	35824.24
667.71	36194.04
667.85	35517.63
667.99	35576.14
668.13	35330.39
668.27	34925.47
668.41	35608.91
668.56	34745.25
668.70	35075.27
668.84	34653.97
668.98	34785.04
669.12	34780.36
669.26	34932.50
669.40	34579.07
669.54	35082.29
669.68	35000.37
669.82	34333.32
669.96	34595.46
670.10	33968.19
670.25	34216.29
670.39	34244.38
670.53	34810.79
670.67	34302.89
670.81	34665.67
670.95	34178.84
671.09	34047.77
671.23	33883.94
671.37	34096.92
671.51	34326.30
671.65	33809.04
671.79	33909.68
671.93	33853.51
672.07	33509.45
672.21	33574.98
672.35	33291.78
672.49	33675.63
672.63	33179.43
672.77	33263.69
672.91	33104.54
673.05	32849.42
673.19	33273.06
673.33	33106.88
673.47	32699.62
673.61	32793.25
673.75	32591.96
673.89	32566.21
674.03	32889.21
674.17	32655.15
674.31	32624.73
674.45	32292.37
674.59	32402.38
674.73	32177.68
674.87	32011.51
675.01	31850.01
675.15	32081.72
675.29	31644.04
675.43	32070.02
675.56	31634.68
675.70	31428.71
675.84	31868.73
675.98	30937.20
676.12	31487.23
676.26	31597.23
676.40	31054.23
676.54	31180.62
676.68	31274.24
676.82	30466.75
676.96	30682.08
677.10	31103.38
677.23	31000.40
677.37	30515.90
677.51	30586.12
677.65	30614.21
677.79	30256.11
677.93	30122.69
678.07	30089.93
678.21	29993.97
678.34	29867.58
678.48	29692.04
678.62	29677.99
678.76	29530.54
678.90	29663.95
679.04	29696.72
679.18	30230.36
679.31	29535.22
679.45	29102.22
679.59	29069.45
679.73	29397.13
679.87	28793.27
680.00	28814.34
680.14	29097.54
680.28	28706.67
680.42	28718.37
680.56	28591.98
680.70	28379.00
680.83	28379.00
680.97	28266.65
681.11	28205.80
681.25	27920.25
681.39	27864.08
681.52	28079.41
681.66	27742.37
681.80	27311.71
681.94	27667.47
682.07	27122.13
682.21	27372.57
682.35	27178.30
682.49	27243.84
682.62	27395.97
682.76	26965.31
682.90	27089.36
683.04	27044.89
683.17	26693.81
683.31	26541.68
683.45	26869.35
683.59	26426.99
683.72	25858.24
683.86	26106.34
684.00	25788.02
684.13	26043.14
684.27	25858.24
684.41	25860.58
684.55	25631.21
684.68	25788.02
684.82	25556.31
684.96	25605.46
685.09	25443.96
685.23	25736.53
685.37	25420.56
685.50	25514.18
685.64	25638.23
685.78	25310.55
685.91	25310.55
686.05	24601.37
686.19	24381.36
686.32	24812.02
686.46	24175.39
686.60	24182.42
686.73	24608.39
686.87	24170.71
687.01	24231.57
687.14	24245.61
687.28	23782.18
687.42	23988.15
687.55	23798.57
687.69	24025.60
687.82	23513.02
687.96	23955.38
688.10	23955.38
688.23	23475.57
688.37	23538.77
688.50	23714.31
688.64	23569.19
688.78	23503.66
688.91	23143.22
689.05	22862.35
689.18	22946.61
689.32	22359.14
689.46	22497.23
689.59	22438.72
689.73	22923.21
689.86	22747.67
690.00	22190.62
690.13	22157.85
690.27	22078.27
690.41	22396.59
690.54	21727.19
690.68	21783.37
690.81	21853.58
690.95	21633.57
691.08	21628.89
691.22	21528.25
691.35	21458.03
691.49	21163.12
691.62	21254.40
691.76	21198.23
691.89	21013.33
692.03	20781.62
692.16	20664.59
692.30	20800.34
692.43	20521.82
692.57	20278.40
692.70	20526.50
692.84	20603.74
692.97	20170.74
693.11	20126.27
693.24	20180.10
693.38	19962.43
693.51	20046.69
693.65	19630.07
693.78	19892.21
693.92	19906.26
694.05	19515.39
694.19	19520.07
694.32	19339.85
694.45	19669.86
694.59	19641.78
694.72	19506.02
694.86	19131.54
694.99	19126.86
695.13	19035.58
695.26	18778.12
695.39	18661.09
695.53	18511.30
695.66	18925.57
695.80	18431.72
695.93	18572.15
696.07	18733.65
696.20	18099.36
696.33	18209.37
696.47	18052.55
696.60	17965.95
696.73	18279.58
696.87	18057.23
697.00	18211.71
697.14	17720.20
697.27	17612.53
697.40	17434.65
697.54	17507.21
697.67	17731.90
697.80	17539.97
697.94	17507.21
698.07	17191.23
698.21	17172.51
698.34	17074.21
698.47	16807.39
698.61	16535.88
698.74	16814.41
698.87	16416.52
699.01	16489.07
699.14	16767.60
699.27	16493.76
699.40	16175.44
699.54	16283.11
699.67	16187.14
699.80	16264.38
699.94	16196.51
700.07	16121.61
700.20	15892.24
700.34	15807.98
700.47	15850.11
700.60	16208.21
700.73	15864.15
700.87	15459.24
701.00	15606.69
701.13	15204.12
701.26	15349.23
701.40	15391.36
701.53	14993.47
701.66	15098.80
701.79	15124.54
701.93	14733.67
702.06	14717.29
702.19	14843.68
702.32	14707.93
702.46	14862.40
702.59	14743.03
702.72	14853.04
702.85	14733.67
702.99	14518.34
703.12	14317.06
703.25	14401.32
703.38	14413.02
703.51	14178.97
703.65	13994.06
703.78	13748.31
703.91	13958.96
704.04	13799.80
704.17	13781.07
704.31	13783.41
704.44	13661.71
704.57	13748.31
704.70	13451.06
704.83	13547.02
704.96	13249.77
705.10	13284.88
705.23	13144.45
>>>>>End Processed Spectral Data<<<<<
