SpectraSuite Data File
++++++++++++++++++++++++++++++++++++
Date: Fri Oct 25 10:43:41 EDT 2013
User: price-jones
Dark Spectrum Present: No
Reference Spectrum Present: No
Number of Sampled Component Spectra: 1
Spectrometers: USB2+H05261
Integration Time (usec): 100000 (USB2+H05261)
Spectra Averaged: 1 (USB2+H05261)
Boxcar Smoothing: 0 (USB2+H05261)
Correct for Electrical Dark: No (USB2+H05261)
Strobe/Lamp Enabled: No (USB2+H05261)
Correct for Detector Non-linearity: No (USB2+H05261)
Correct for Stray Light: No (USB2+H05261)
Number of Pixels in Processed Spectrum: 2048
>>>>>Begin Processed Spectral Data<<<<<
365.73	119.37
365.92	119.37
366.12	119.37
366.32	2.34
366.52	44.47
366.72	39.79
366.91	0.00
367.11	30.43
367.31	63.19
367.51	23.41
367.70	0.00
367.90	0.00
368.10	35.11
368.30	56.17
368.49	11.70
368.69	37.45
368.89	98.30
369.09	91.28
369.28	32.77
369.48	44.47
369.68	58.51
369.87	102.98
370.07	131.07
370.27	175.54
370.47	131.07
370.66	404.91
370.86	533.64
371.06	475.13
371.25	496.19
371.45	449.38
371.65	440.02
371.84	437.68
372.04	395.55
372.24	465.77
372.44	545.34
372.63	540.66
372.83	517.26
373.03	550.03
373.22	519.60
373.42	479.81
373.62	458.74
373.81	491.51
374.01	554.71
374.21	531.30
374.40	435.34
374.60	589.82
374.79	617.90
374.99	603.86
375.19	573.43
375.38	554.71
375.58	573.43
375.78	582.79
375.97	664.71
376.17	669.39
376.37	688.12
376.56	624.92
376.76	634.29
376.95	617.90
377.15	664.71
377.35	624.92
377.54	667.05
377.74	582.79
377.93	697.48
378.13	690.46
378.33	667.05
378.52	629.60
378.72	706.84
378.91	674.07
379.11	655.35
379.31	653.01
379.50	603.86
379.70	653.01
379.89	678.76
380.09	706.84
380.28	664.71
380.48	739.61
380.68	718.54
380.87	674.07
381.07	706.84
381.26	725.57
381.46	737.27
381.65	723.23
381.85	711.52
382.04	688.12
382.24	688.12
382.43	690.46
382.63	763.01
382.83	676.41
383.02	732.59
383.22	784.08
383.41	725.57
383.61	760.67
383.80	823.87
384.00	788.76
384.19	823.87
384.39	868.34
384.58	802.80
384.78	821.53
384.97	795.78
385.17	774.72
385.36	746.63
385.56	866.00
385.75	786.42
385.95	821.53
386.14	889.40
386.34	851.96
386.53	830.89
386.72	826.21
386.92	905.79
387.11	800.46
387.31	929.19
387.50	896.43
387.70	819.19
387.89	833.23
388.09	896.43
388.28	870.68
388.48	912.81
388.67	854.30
388.86	926.85
389.06	990.05
389.25	1095.37
389.45	954.94
389.64	954.94
389.84	1076.65
390.03	1013.45
390.22	908.13
390.42	1153.88
390.61	1071.97
390.81	1118.78
391.00	1048.56
391.19	1034.52
391.39	1043.88
391.58	1067.28
391.78	1027.50
391.97	1071.97
392.16	884.72
392.36	1076.65
392.55	950.26
392.75	1036.86
392.94	950.26
393.13	1004.09
393.33	1090.69
393.52	1102.39
393.71	1027.50
393.91	1081.33
394.10	1093.03
394.29	1160.91
394.49	1069.62
394.68	1214.74
394.88	1196.01
395.07	1263.89
395.26	1198.35
395.46	1228.78
395.65	1212.40
395.84	1217.08
396.04	1224.10
396.23	1200.69
396.42	1104.73
396.62	1221.76
396.81	1200.69
397.00	1284.95
397.19	1359.85
397.39	1306.02
397.58	1327.08
397.77	1394.96
397.97	1432.41
398.16	1273.25
398.35	1486.24
398.55	1406.66
398.74	1523.69
398.93	1500.28
399.12	1474.54
399.32	1519.01
399.51	1556.46
399.70	1612.63
399.90	1516.67
400.09	1589.22
400.28	1626.67
400.47	1629.01
400.67	1661.78
400.86	1631.35
401.05	1671.14
401.24	1614.97
401.44	1729.66
401.63	1832.64
401.82	1722.63
402.01	1734.34
402.21	1710.93
402.40	1834.98
402.59	1715.61
402.78	1692.21
402.97	1739.02
403.17	1753.06
403.36	1788.17
403.55	1809.23
403.74	1860.73
403.93	1860.73
404.13	1839.66
404.32	1799.87
404.51	1937.96
404.70	1956.69
404.89	1870.09
405.09	1926.26
405.28	1963.71
405.47	1949.67
405.66	1996.48
405.85	1998.82
406.05	2083.08
406.24	1963.71
406.43	2022.22
406.62	2167.34
406.81	2108.82
407.00	2017.54
407.20	2087.76
407.39	2143.93
407.58	2253.94
407.77	2235.21
407.96	2197.76
408.15	2218.83
408.34	2256.28
408.54	2286.70
408.73	2293.72
408.92	2338.20
409.11	2312.45
409.30	2459.90
409.49	2338.20
409.68	2296.07
409.87	2209.47
410.07	2375.64
410.26	2422.45
410.45	2438.84
410.64	2385.01
410.83	2480.97
411.02	2499.69
411.21	2640.12
411.40	2612.04
411.59	2679.91
411.78	2656.51
411.98	2654.17
412.17	2642.46
412.36	2708.00
412.55	2733.75
412.74	2801.62
412.93	2675.23
413.12	2686.94
413.31	2949.08
413.50	2787.58
413.69	2808.64
413.88	2892.90
414.07	2892.90
414.26	2916.31
414.45	2970.14
414.64	3059.08
414.83	3045.04
415.02	3138.66
415.22	3112.91
415.41	3068.44
415.60	3148.02
415.79	3141.00
415.98	3269.73
416.17	3251.00
416.36	3258.03
416.55	3204.19
416.74	3440.59
416.93	3295.47
417.12	3272.07
417.31	3297.81
417.50	3386.76
417.69	3342.28
417.88	3531.87
418.07	3283.77
418.26	3403.14
418.45	3435.91
418.64	3569.32
418.83	3662.94
419.02	3489.74
419.21	3815.07
419.39	3637.19
419.58	3585.70
419.77	3569.32
419.96	3740.18
420.15	3716.77
420.34	3744.86
420.53	3971.89
420.72	3805.71
420.91	3693.37
421.10	3941.46
421.29	3878.27
421.48	3866.56
421.67	3896.99
421.86	3889.97
422.05	3866.56
422.24	3805.71
422.43	3824.44
422.61	4014.02
422.80	3969.55
422.99	4004.66
423.18	4025.72
423.37	4072.53
423.56	3936.78
423.75	3983.59
423.94	4007.00
424.13	3721.45
424.32	3763.58
424.50	3978.91
424.69	4112.32
424.88	3992.95
425.07	3957.85
425.26	3901.67
425.45	3875.93
425.64	3960.19
425.83	3995.29
426.01	4093.60
426.20	3992.95
426.39	4063.17
426.58	4035.08
426.77	4126.36
426.96	3941.46
427.15	4063.17
427.33	4095.94
427.52	3960.19
427.71	4091.26
427.90	4337.01
428.09	4243.39
428.28	4367.44
428.46	4117.00
428.65	4400.21
428.84	4219.99
429.03	4435.32
429.22	4212.96
429.40	4074.87
429.59	4166.15
429.78	3896.99
429.97	3770.60
430.16	4044.45
430.34	4278.50
430.53	4236.37
430.72	4060.83
430.91	4322.97
431.10	4465.74
431.28	4517.23
431.47	4674.05
431.66	4706.82
431.85	4699.80
432.03	4681.07
432.22	4669.37
432.41	4664.69
432.60	4760.65
432.79	4713.84
432.97	4856.61
433.16	4882.36
433.35	4662.35
433.54	4683.41
433.72	4690.43
433.91	4814.48
434.10	4830.87
434.28	4793.42
434.47	4830.87
434.66	4868.31
434.85	5069.60
435.03	5039.17
435.22	5132.79
435.41	5057.90
435.59	5022.79
435.78	5167.90
435.97	5338.76
436.16	5193.65
436.34	5121.09
436.53	5153.86
436.72	5476.85
436.90	5043.85
437.09	5280.25
437.28	5191.31
437.46	5280.25
437.65	5247.48
437.84	5308.34
438.02	5097.69
438.21	5167.90
438.40	5186.63
438.58	5369.19
438.77	5556.43
438.96	5591.54
439.14	5570.48
439.33	5717.93
439.52	5565.79
439.70	5774.10
439.89	5738.99
440.08	5699.20
440.26	5741.33
440.45	5781.12
440.63	5919.21
440.82	6001.13
441.01	6106.46
441.19	5942.62
441.38	6207.10
441.57	6230.51
441.75	6216.46
441.94	6251.57
442.12	6305.40
442.31	6401.37
442.50	6530.09
442.68	6274.98
442.87	6403.71
443.05	6427.11
443.24	6539.46
443.43	6502.01
443.61	6511.37
443.80	6775.85
443.98	6581.59
444.17	6244.55
444.35	6494.99
444.54	6670.53
444.73	6656.48
444.91	6668.19
445.10	6682.23
445.28	6635.42
445.47	6396.68
445.65	6644.78
445.84	6546.48
446.02	6759.47
446.21	6775.85
446.39	6672.87
446.58	6766.49
446.77	6518.39
446.95	6567.54
447.14	6740.74
447.32	6736.06
447.51	6799.26
447.69	6825.00
447.88	6691.59
448.06	6761.81
448.25	6860.11
448.43	6738.40
448.62	6782.87
448.80	6864.79
448.99	6892.88
449.17	6963.09
449.36	6867.13
449.54	7009.90
449.73	7197.15
449.91	7241.62
450.10	7176.08
450.28	7267.36
450.46	7370.35
450.65	7353.96
450.83	7321.20
451.02	7297.79
451.20	7162.04
451.39	7389.07
451.57	7368.01
451.76	7356.30
451.94	7222.89
452.13	7515.46
452.31	7307.15
452.49	7176.08
452.68	7206.51
452.86	7323.54
453.05	7445.24
453.23	7527.16
453.42	7356.30
453.60	7316.51
453.78	7613.76
453.97	7531.84
454.15	7414.82
454.34	7550.57
454.52	7602.06
454.70	7456.95
454.89	7503.76
455.07	7552.91
455.26	7693.34
455.44	7838.45
455.62	7726.11
455.81	7791.64
455.99	7885.26
456.17	7936.76
456.36	7990.59
456.54	8222.30
456.73	8018.68
456.91	8306.56
457.09	8056.12
457.28	8318.26
457.46	8091.23
457.64	8346.35
457.83	7978.89
458.01	8259.75
458.19	8393.16
458.38	8208.26
458.56	8430.61
458.74	8234.00
458.93	8301.88
459.11	8416.57
459.29	8461.04
459.48	8475.08
459.66	8479.76
459.84	8332.31
460.03	8692.75
460.21	8416.57
460.39	8826.16
460.57	8704.45
460.76	8542.96
460.94	8781.69
461.12	8847.22
461.31	8690.41
461.49	8629.56
461.67	8769.99
461.85	9078.94
462.04	8865.95
462.22	9434.70
462.40	8987.66
462.59	8896.38
462.77	8858.93
462.95	9144.47
463.13	9062.55
463.32	8882.33
463.50	8982.98
463.68	9025.11
463.86	9160.86
464.05	8926.80
464.23	8877.65
464.41	9041.49
464.59	9001.70
464.78	9125.75
464.96	9308.31
465.14	9149.15
465.32	9399.59
465.50	9446.40
465.69	9291.93
465.87	9327.03
466.05	9357.46
466.23	9343.42
466.41	9350.44
466.60	9507.26
466.78	9139.79
466.96	9273.20
467.14	9202.99
467.32	9572.79
467.51	9640.67
467.69	9298.95
467.87	9661.73
468.05	9554.07
468.23	9507.26
468.41	9561.09
468.60	9493.21
468.78	9753.01
468.96	9568.11
469.14	9708.54
469.32	9877.06
469.50	9664.07
469.69	9589.17
469.87	9722.59
470.05	10010.47
470.23	9816.21
470.41	9940.26
470.59	9907.49
470.77	9872.38
470.95	9895.78
471.14	10321.76
471.32	10286.65
471.50	10307.72
471.68	10289.00
471.86	10527.73
472.04	10438.79
472.22	10766.46
472.40	10408.36
472.58	10541.77
472.77	10523.05
472.95	10572.20
473.13	11037.97
473.31	10534.75
473.49	10602.63
473.67	10759.44
473.85	10640.08
474.03	11016.90
474.21	10890.51
474.39	11187.76
474.57	11150.31
474.75	11260.32
474.93	11234.57
475.12	11260.32
475.30	11407.77
475.48	11386.71
475.66	11384.37
475.84	11311.81
476.02	11609.06
476.20	11510.75
476.38	11700.34
476.56	12077.16
476.74	12081.85
476.92	11969.50
477.10	11765.87
477.28	12091.21
477.46	12025.67
477.64	12365.05
477.82	12453.99
478.00	12744.22
478.18	12924.44
478.36	12482.08
478.54	12877.63
478.72	12943.16
478.90	13130.41
479.08	13071.89
479.26	13200.62
479.44	13282.54
479.62	13235.73
479.80	13123.38
479.98	13509.57
480.16	13795.12
480.34	13666.39
480.52	14174.28
480.70	13886.40
480.88	13832.57
481.06	13987.04
481.24	14043.21
481.41	14108.75
481.59	14501.96
481.77	14487.92
481.95	14501.96
482.13	14609.62
482.31	14817.93
482.49	15108.16
482.67	15112.84
482.85	15164.33
483.03	15260.29
483.21	15515.41
483.39	15269.66
483.57	15789.25
483.74	15625.42
483.92	15791.59
484.10	15648.82
484.28	15922.66
484.46	15988.20
484.64	16299.49
484.82	16460.99
485.00	16383.75
485.18	16758.24
485.35	16837.81
485.53	16475.03
485.71	16137.99
485.89	16479.71
486.07	16423.54
486.25	16795.68
486.43	16788.66
486.61	17118.68
486.78	17385.50
486.96	17425.29
487.14	17680.41
487.32	17837.22
487.50	18118.09
487.68	18291.29
487.85	18485.55
488.03	18644.71
488.21	18366.18
488.39	18618.96
488.57	18420.02
488.75	19112.81
488.92	19325.80
489.10	19587.94
489.28	19913.28
489.46	20032.65
489.64	19924.98
489.81	20327.55
489.99	20056.05
490.17	20325.21
490.35	20938.43
490.53	20072.43
490.70	20657.57
490.88	20636.50
491.06	21062.48
491.24	20772.25
491.41	20716.08
491.59	20844.81
491.77	20823.75
491.95	21369.09
492.13	21385.47
492.30	21921.46
492.48	21958.91
492.66	22160.19
492.84	22031.46
493.01	22291.26
493.19	22583.83
493.37	22635.32
493.54	22682.13
493.72	22693.83
493.90	22810.86
494.08	22888.10
494.25	23190.03
494.43	23424.08
494.61	23599.62
494.79	23765.80
494.96	23136.20
495.14	23508.34
495.32	23901.55
495.49	23903.89
495.67	24453.92
495.85	24430.51
496.02	24212.84
496.20	24830.74
496.38	24638.82
496.55	24933.73
496.73	25310.55
496.91	25083.52
497.09	25198.21
497.26	25216.93
497.44	24989.90
497.62	25530.56
497.79	25563.33
497.97	25469.71
498.14	25795.04
498.32	25778.66
498.50	26047.82
498.67	26396.56
498.85	26265.49
499.03	26731.26
499.20	26522.95
499.38	26614.23
499.56	26466.78
499.73	26892.76
499.91	26782.75
500.08	26918.50
500.26	26532.31
500.44	26967.65
500.61	27171.28
500.79	26719.56
500.97	26998.08
501.14	27342.14
501.32	27255.54
501.49	27412.35
501.67	27508.32
501.84	27744.71
502.02	27728.33
502.20	28016.21
502.37	28044.30
502.55	27843.01
502.72	28247.93
502.90	28390.70
503.07	28166.01
503.25	28278.35
503.43	28329.84
503.60	28517.09
503.78	28212.82
503.95	28395.38
504.13	28699.65
504.30	28863.49
504.48	28629.43
504.65	28744.12
504.83	29268.40
505.01	29486.07
505.18	29184.14
505.36	29575.01
505.53	29446.28
505.71	29914.39
505.88	29998.65
506.06	29610.12
506.23	30153.12
506.41	29963.54
506.58	29963.54
506.76	30148.44
506.93	30581.44
507.11	30457.39
507.28	30391.86
507.46	30525.27
507.63	30071.20
507.81	30714.85
507.98	30850.60
508.16	30469.09
508.33	30988.69
508.50	30855.28
508.68	30691.44
508.85	31449.78
509.03	31360.84
509.20	31419.35
509.38	31473.18
509.55	31477.86
509.73	31908.52
509.90	31622.98
510.08	31770.43
510.25	31433.39
510.42	31999.80
510.60	31854.69
510.77	32318.12
510.95	32222.16
511.12	32158.96
511.30	32493.66
511.47	32493.66
511.64	32814.31
511.82	32701.96
511.99	32603.66
512.17	32900.91
512.34	32514.72
512.51	32741.75
512.69	32631.75
512.86	32830.69
513.04	33046.02
513.21	33282.42
513.38	32856.44
513.56	33184.12
513.73	33015.60
513.90	33462.64
514.08	32910.27
514.25	33844.15
514.43	33528.17
514.60	33486.04
514.77	33701.37
514.95	33675.63
515.12	33481.36
515.29	33888.62
515.47	34099.26
515.64	34553.33
515.81	34125.01
515.99	34480.77
516.16	33787.97
516.33	33710.74
516.51	34239.70
516.68	33394.76
516.85	33560.94
517.03	33799.68
517.20	33975.22
517.37	34794.40
517.54	34436.30
517.72	34457.37
517.89	34314.59
518.06	34440.98
518.24	34412.90
518.41	34328.64
518.58	34473.75
518.75	34981.65
518.93	35093.99
519.10	34771.00
519.27	35292.94
519.45	35136.12
519.62	35555.08
519.79	35871.05
519.96	35597.21
520.14	35402.94
520.31	35697.85
520.48	35676.79
520.65	35880.41
520.83	35995.10
521.00	36348.52
521.17	36217.45
521.34	36114.47
521.52	36423.42
521.69	36535.76
521.86	36201.07
522.03	36507.68
522.20	36371.92
522.38	36418.74
522.55	36725.35
522.72	36573.21
522.89	36645.77
523.07	36917.27
523.24	37141.96
523.41	37287.07
523.58	37001.53
523.75	37881.57
523.92	37521.13
524.10	37294.10
524.27	37603.05
524.44	37331.54
524.61	37109.19
524.78	37642.84
524.96	37794.97
525.13	37860.51
525.30	37921.36
525.47	38082.86
525.64	37434.53
525.81	37628.79
525.98	37780.93
526.16	37467.30
526.33	37177.07
526.50	37670.92
526.67	37479.00
526.84	37743.48
527.01	37633.47
527.18	37724.75
527.36	38314.57
527.53	38422.23
527.70	38663.31
527.87	38703.10
528.04	38946.51
528.21	38656.29
528.38	38869.28
528.55	38836.51
528.72	38979.28
528.89	39618.25
529.07	39051.84
529.24	38932.47
529.41	39236.74
529.58	38953.54
529.75	39297.59
529.92	39274.19
530.09	39732.93
530.26	38944.17
530.43	39739.96
530.60	39466.11
530.77	39744.64
530.94	40100.40
531.11	39924.86
531.28	39882.73
531.46	39948.26
531.63	40079.33
531.80	39756.34
531.97	39667.40
532.14	39578.46
532.31	39538.67
532.48	39646.33
532.65	39683.78
532.82	39473.13
532.99	40020.82
533.16	39999.76
533.33	40023.16
533.50	40500.63
533.67	39966.99
533.84	40259.55
534.01	40259.55
534.18	40027.84
534.35	40818.94
534.52	40493.61
534.69	40856.39
534.86	40858.73
535.03	40257.21
535.20	41565.57
535.37	41455.57
535.54	41053.00
535.71	40952.35
535.88	40928.95
536.05	40935.97
536.22	41102.15
536.38	41172.36
536.55	41268.33
536.72	40921.93
536.89	40907.88
537.06	40931.29
537.23	41390.03
537.40	41371.31
537.57	41045.97
537.74	41375.99
537.91	41675.58
538.08	41708.35
538.25	41151.30
538.42	41303.43
538.59	41610.04
538.75	41645.15
538.92	41525.78
539.09	41736.43
539.26	41551.53
539.43	41949.42
539.60	41698.98
539.77	41347.90
539.94	41535.15
540.11	41780.90
540.28	41935.38
540.44	41675.58
540.61	41961.12
540.78	41706.01
540.95	41486.00
541.12	41921.34
541.29	41792.61
541.46	42078.15
541.62	42314.55
541.79	42373.06
541.96	42139.00
542.13	42185.82
542.30	42679.67
542.47	42539.24
542.63	42394.12
542.80	42745.20
542.97	42885.64
543.14	42684.35
543.31	42820.10
543.48	42955.85
543.64	43409.92
543.81	42859.89
543.98	43463.75
544.15	43227.35
544.32	43171.18
544.48	43662.69
544.65	43337.36
544.82	43749.29
544.99	42792.01
545.16	43416.94
545.32	42993.30
545.49	43861.64
545.66	43611.20
545.83	43756.32
546.00	43433.32
546.16	43009.68
546.33	43325.66
546.50	43026.07
546.67	43608.86
546.83	43449.70
547.00	43625.25
547.17	43627.59
547.34	43435.66
547.50	43496.52
547.67	44016.11
547.84	43683.76
548.00	43938.88
548.17	43791.42
548.34	44053.56
548.51	44189.31
548.67	44257.19
548.84	43964.62
549.01	43658.01
549.18	43849.94
549.34	44058.24
549.51	44273.57
549.68	43959.94
549.84	44353.15
550.01	44282.94
550.18	44034.84
550.34	44095.69
550.51	43927.17
550.68	44327.41
550.84	43854.62
551.01	44451.45
551.18	44032.50
551.34	44722.96
551.51	44542.74
551.68	44404.64
551.84	44786.15
552.01	44278.25
552.18	44343.79
552.34	44416.35
552.51	44486.56
552.68	44580.18
552.84	44814.24
553.01	44957.01
553.18	44444.43
553.34	44622.31
553.51	44673.81
553.67	45062.33
553.84	45443.84
554.01	45123.19
554.17	45069.36
554.34	44774.45
554.51	45038.93
554.67	45116.17
554.84	45139.57
555.00	44706.57
555.17	44669.12
555.33	45251.92
555.50	44891.48
555.67	45074.04
555.83	45069.36
556.00	45130.21
556.16	45146.59
556.33	44959.35
556.50	45085.74
556.66	44818.92
556.83	44683.17
556.99	45565.55
557.16	45490.65
557.32	45542.14
557.49	45067.02
557.65	45446.18
557.82	45158.30
557.98	45521.08
558.15	45289.37
558.32	45659.17
558.48	45268.30
558.65	45191.06
558.81	45045.95
558.98	45291.71
559.14	45174.68
559.31	45371.28
559.47	45399.37
559.64	45090.42
559.80	45256.60
559.97	45385.33
560.13	45565.55
560.30	45413.41
560.46	45605.34
560.63	45820.67
560.79	45497.67
560.96	45635.77
561.12	45628.74
561.29	45713.00
561.45	45837.05
561.61	45668.53
561.78	45581.93
561.94	45881.52
562.11	45544.48
562.27	45048.29
562.44	45773.86
562.60	45654.49
562.77	45982.16
562.93	45855.78
563.10	46066.42
563.26	45797.26
563.42	45485.97
563.59	45586.61
563.75	46017.27
563.92	46052.38
564.08	46176.43
564.24	46213.88
564.41	45886.20
564.57	46061.74
564.74	45961.10
564.90	45935.35
565.07	45928.33
565.23	45893.22
565.39	45794.92
565.56	45743.43
565.72	45535.12
565.88	45949.40
566.05	45727.05
566.21	46068.76
566.38	45949.40
566.54	46288.77
566.70	46553.26
566.87	46394.10
567.03	46354.31
567.19	46225.58
567.36	45881.52
567.52	46033.66
567.68	46197.49
567.85	45844.07
568.01	45989.19
568.17	45928.33
568.34	45923.65
568.50	46237.28
568.66	45837.05
568.83	45642.79
568.99	45984.51
569.15	45825.35
569.32	45713.00
569.48	46012.59
569.64	46267.71
569.81	45893.22
569.97	46054.72
570.13	45937.69
570.30	45492.99
570.46	45652.15
570.62	45815.99
570.78	45497.67
570.95	45591.30
571.11	46309.84
571.27	45914.29
571.43	46089.83
571.60	46085.15
571.76	45888.54
571.92	46305.16
572.09	46117.92
572.25	46054.72
572.41	46176.43
572.57	46623.47
572.74	46721.77
572.90	46260.69
573.06	46466.66
573.22	46138.98
573.38	45918.97
573.55	45991.53
573.71	46520.49
573.87	46389.42
574.03	46401.12
574.20	46057.06
574.36	46045.36
574.52	46300.48
574.68	46213.88
574.84	46298.14
575.01	46094.51
575.17	45830.03
575.33	45797.26
575.49	46089.83
575.65	46555.60
575.82	46539.21
575.98	46309.84
576.14	46464.32
576.30	46424.53
576.46	46326.22
576.62	46092.17
576.79	46295.80
576.95	46099.19
577.11	46232.60
577.27	46787.31
577.43	46623.47
577.59	45750.45
577.75	46017.27
577.92	46234.94
578.08	45514.06
578.24	46019.61
578.40	46057.06
578.56	46546.23
578.72	46106.21
578.88	46564.96
579.04	46302.82
579.21	46295.80
579.37	45979.82
579.53	46237.28
579.69	46178.77
579.85	46202.18
580.01	46600.07
580.17	46176.43
580.33	46211.54
580.49	46478.36
580.65	45975.14
580.82	46244.30
580.98	45986.85
581.14	45787.90
581.30	46546.23
581.46	46176.43
581.62	46284.09
581.78	46239.62
581.94	46564.96
582.10	46117.92
582.26	46600.07
582.42	46469.00
582.58	46401.12
582.74	46138.98
582.90	46457.29
583.06	46536.87
583.22	46529.85
583.38	46513.47
583.54	46700.71
583.70	46323.88
583.86	46277.07
584.02	46607.09
584.18	46241.96
584.34	46330.90
584.50	46150.68
584.66	46073.45
584.82	46110.89
584.98	46829.44
585.14	46373.03
585.30	46256.01
585.46	46227.92
585.62	46270.05
585.78	46361.33
585.94	46134.30
586.10	46534.53
586.26	46181.11
586.42	46511.13
586.58	46679.64
586.74	46487.72
586.90	46185.79
587.06	46560.28
587.22	46417.50
587.38	46375.37
587.54	46733.48
587.70	46298.14
587.86	46040.68
588.02	46534.53
588.18	46576.66
588.34	46319.20
588.49	46211.54
588.65	45808.96
588.81	45684.92
588.97	45986.85
589.13	46064.08
589.29	46164.73
589.45	46021.95
589.61	46302.82
589.77	46394.10
589.93	46616.45
590.08	46738.16
590.24	46298.14
590.40	46703.05
590.56	46885.61
590.72	46777.95
590.88	46454.95
591.04	46557.94
591.20	46958.17
591.35	46642.20
591.51	46801.35
591.67	46321.54
591.83	46473.68
591.99	46356.65
592.15	46270.05
592.31	46309.84
592.46	46349.63
592.62	46426.87
592.78	46506.44
592.94	46618.79
593.10	46244.30
593.26	46813.05
593.41	46653.90
593.57	46401.12
593.73	46461.97
593.89	46532.19
594.05	46646.88
594.20	46300.48
594.36	46799.01
594.52	46665.60
594.68	46710.07
594.84	46436.23
594.99	46712.41
595.15	46270.05
595.31	46302.82
595.47	46625.81
595.62	46667.94
595.78	46801.35
595.94	46600.07
596.10	46642.20
596.25	46953.49
596.41	46822.42
596.57	46628.15
596.73	46576.66
596.88	46368.35
597.04	46422.19
597.20	46354.31
597.36	46686.67
597.51	46705.39
597.67	46733.48
597.83	46550.91
597.99	46834.12
598.14	46422.19
598.30	46902.00
598.46	46529.85
598.61	46817.74
598.77	46305.16
598.93	46288.77
599.09	46424.53
599.24	46806.03
599.40	47051.79
599.56	46646.88
599.71	46763.90
599.87	46574.32
600.03	46780.29
600.18	46621.13
600.34	46490.06
600.50	46176.43
600.65	46244.30
600.81	46625.81
600.97	47075.19
601.12	46852.84
601.28	46218.56
601.44	46410.48
601.59	46319.20
601.75	46452.61
601.91	46316.86
602.06	46447.93
602.22	46464.32
602.37	46611.77
602.53	46623.47
602.69	46927.74
602.84	46555.60
603.00	46136.64
603.16	46141.32
603.31	46759.22
603.47	46518.15
603.62	45972.80
603.78	46761.56
603.94	46679.64
604.09	46883.27
604.25	46473.68
604.40	46543.89
604.56	46384.74
604.71	46534.53
604.87	46490.06
605.03	46522.83
605.18	46213.88
605.34	46590.70
605.49	46429.21
605.65	46487.72
605.80	46483.04
605.96	46253.67
606.12	46368.35
606.27	46473.68
606.43	46550.91
606.58	46632.83
606.74	46405.80
606.89	46143.66
607.05	46164.73
607.20	46092.17
607.36	46293.46
607.51	46518.15
607.67	46600.07
607.82	46433.89
607.98	46241.96
608.13	46134.30
608.29	45525.76
608.44	46082.81
608.60	45397.03
608.75	46160.05
608.91	46073.45
609.06	46300.48
609.22	46031.32
609.37	45925.99
609.53	46532.19
609.68	46326.22
609.84	46293.46
609.99	45937.69
610.15	45928.33
610.30	45897.91
610.46	45528.10
610.61	45617.04
610.76	46120.26
610.92	46021.95
611.07	46171.75
611.23	45799.60
611.38	46227.92
611.54	45621.72
611.69	45666.19
611.84	45579.59
612.00	45333.84
612.15	45237.87
612.31	46136.64
612.46	45647.47
612.62	45935.35
612.77	45872.16
612.92	46148.34
613.08	45642.79
613.23	45504.70
613.39	45174.68
613.54	45317.45
613.69	45500.01
613.85	45392.35
614.00	45649.81
614.15	45530.44
614.31	45574.91
614.46	45715.34
614.62	45368.94
614.77	45455.54
614.92	45656.83
615.08	45212.13
615.23	45153.62
615.38	45333.84
615.54	45258.94
615.69	45059.99
615.84	45078.72
616.00	45331.50
616.15	45153.62
616.30	45186.38
616.46	45563.21
616.61	44811.90
616.76	44828.28
616.92	45031.91
617.07	44666.78
617.22	44718.28
617.37	45069.36
617.53	45242.56
617.68	44790.83
617.83	45123.19
617.99	45043.61
618.14	44535.71
618.29	44825.94
618.45	44832.96
618.60	44734.66
618.75	43924.83
618.90	44432.73
619.06	44414.01
619.21	44889.13
619.36	44847.00
619.51	44531.03
619.67	44395.28
619.82	44327.41
619.97	44554.44
620.12	44748.70
620.28	43845.26
620.43	44765.09
620.58	44634.02
620.73	44371.88
620.89	44598.91
621.04	44533.37
621.19	44383.58
621.34	44198.68
621.49	44435.07
621.65	44734.66
621.80	44755.72
621.95	43995.05
622.10	44552.10
622.25	44170.59
622.41	44334.43
622.56	44264.21
622.71	44301.66
622.86	44041.86
623.01	43990.37
623.16	44219.74
623.32	44156.55
623.47	44144.84
623.62	44163.57
623.77	43873.34
623.92	43969.30
624.07	43756.32
624.23	43557.37
624.38	43496.52
624.53	43854.62
624.68	43835.89
624.83	44172.93
624.98	43908.45
625.13	43246.08
625.29	43386.51
625.44	43508.22
625.59	43423.96
625.74	43093.94
625.89	43084.58
626.04	42941.81
626.19	43430.98
626.34	42981.60
626.49	43569.07
626.65	43578.43
626.80	43100.97
626.95	43157.14
627.10	43063.52
627.25	42918.40
627.40	42951.17
627.55	42564.98
627.70	42878.61
627.85	42920.74
628.00	43203.95
628.15	43203.95
628.30	42993.30
628.45	43161.82
628.60	43054.15
628.76	42745.20
628.91	43014.37
629.06	42190.50
629.21	42422.21
629.36	42632.86
629.51	42719.46
629.66	42871.59
629.81	42504.13
629.96	42373.06
630.11	42370.72
630.26	43164.16
630.41	42579.03
630.56	42639.88
630.71	42600.09
630.86	42181.13
631.01	42117.94
631.16	42396.46
631.31	41916.65
631.46	41961.12
631.61	42389.44
631.76	42206.88
631.91	42698.39
632.06	42869.25
632.21	42192.84
632.36	42225.60
632.51	41956.44
632.66	42017.30
632.81	41933.04
632.96	42021.98
633.10	42026.66
633.25	42101.56
633.40	41565.57
633.55	42019.64
633.70	41773.88
633.85	41743.45
634.00	42122.62
634.15	41869.84
634.30	41530.47
634.45	42075.81
634.60	41581.96
634.75	41729.41
634.90	41584.30
635.05	41874.52
635.19	41816.01
635.34	41928.36
635.49	41720.05
635.64	41408.76
635.79	41488.34
635.94	41792.61
636.09	41469.61
636.24	41144.28
636.39	41198.11
636.53	41750.48
636.68	41191.09
636.83	41301.09
636.98	41532.81
637.13	41308.11
637.28	41471.95
637.43	42066.45
637.57	41275.35
637.72	41455.57
637.87	41532.81
638.02	41174.70
638.17	41155.98
638.32	40959.38
638.46	41001.50
638.61	41455.57
638.76	40715.96
638.91	41062.36
639.06	41130.23
639.20	41315.14
639.35	41661.54
639.50	41127.89
639.65	40945.33
639.80	40514.67
639.94	40720.64
640.09	40491.27
640.24	40547.44
640.39	40486.59
640.54	40474.88
640.68	40648.08
640.83	40610.64
640.98	40858.73
641.13	40828.30
641.27	40760.43
641.42	40170.61
641.57	40414.03
641.72	40884.48
641.86	40039.54
642.01	40144.87
642.16	40079.33
642.31	39723.57
642.45	40528.72
642.60	40364.88
642.75	39847.62
642.90	40285.30
643.04	40430.41
643.19	40465.52
643.34	40163.59
643.48	40060.61
643.63	40027.84
643.78	40027.84
643.93	40385.94
644.07	40130.83
644.22	40072.31
644.37	40184.66
644.51	39936.56
644.66	40444.46
644.81	40018.48
644.95	40205.72
645.10	39672.08
645.25	39772.72
645.39	40020.82
645.54	39632.29
645.69	39225.04
645.83	39826.56
645.98	39433.35
646.13	39372.49
646.27	39484.84
646.42	39840.60
646.57	39461.43
646.71	39353.77
646.86	39529.31
647.00	39667.40
647.15	39468.45
647.30	39356.11
647.44	39524.63
647.59	39304.62
647.74	39349.09
647.88	38972.26
648.03	39934.22
648.17	39175.89
648.32	38845.87
648.47	38831.83
648.61	38799.06
648.76	39679.10
648.90	39019.07
649.05	38897.36
649.20	39498.88
649.34	39454.41
649.49	38834.17
649.63	38866.94
649.78	39337.38
649.92	38780.34
650.07	39374.83
650.21	38988.64
650.36	38724.16
650.51	39248.44
650.65	39765.70
650.80	39475.48
650.94	39358.45
651.09	38763.95
651.23	38412.87
651.38	38689.06
651.52	38450.32
651.67	38127.33
651.81	38696.08
651.96	38653.95
652.10	38684.37
652.25	38939.49
652.39	39054.18
652.54	38672.67
652.68	39009.71
652.83	38471.39
652.97	38941.83
653.12	38572.03
653.26	38258.40
653.41	38340.32
653.55	38618.84
653.70	38309.89
653.84	38555.64
653.99	38532.24
654.13	37968.17
654.27	38195.20
654.42	37940.08
654.56	38036.05
654.71	38274.78
654.85	38300.53
655.00	38143.71
655.14	37699.01
655.29	38017.32
655.43	37687.31
655.57	37605.39
655.72	37530.49
655.86	37565.60
656.01	37277.71
656.15	37202.82
656.30	37303.46
656.44	37558.58
656.58	37493.04
656.73	37514.11
656.87	37706.03
657.01	37280.05
657.16	37493.04
657.30	36840.03
657.45	37060.04
657.59	37083.45
657.73	37649.86
657.88	37694.33
658.02	37626.45
658.16	37521.13
658.31	37605.39
658.45	37888.59
658.60	37635.81
658.74	37258.99
658.88	37237.92
659.03	37062.38
659.17	36767.48
659.31	36582.57
659.46	36919.61
659.60	37071.75
659.74	37244.94
659.89	36287.67
660.03	36608.32
660.17	36870.46
660.32	37158.34
660.46	36659.81
660.60	36769.82
660.74	36809.61
660.89	36746.41
661.03	36362.56
661.17	36388.31
661.32	36526.40
661.46	36559.17
661.60	36921.95
661.74	36388.31
661.89	36306.39
662.03	36510.02
662.17	36367.24
662.31	36109.78
662.46	36554.49
662.60	36184.68
662.74	36273.62
662.88	36194.04
663.03	35894.46
663.17	36161.28
663.31	35739.98
663.45	35562.10
663.60	35821.90
663.74	35311.66
663.88	35510.61
664.02	35276.55
664.17	35173.57
664.31	35220.38
664.45	35412.31
664.59	35335.07
664.73	35182.93
664.88	35281.24
665.02	35192.30
665.16	35110.38
665.30	34918.45
665.44	35187.61
665.59	34693.76
665.73	35250.81
665.87	34974.63
666.01	34934.84
666.15	34773.34
666.29	34675.04
666.44	34895.05
666.58	34991.01
666.72	34703.12
666.86	34628.23
667.00	34745.25
667.14	34066.50
667.28	33802.02
667.43	34377.79
667.57	34553.33
667.71	34012.66
667.85	34295.87
667.99	34387.15
668.13	34190.55
668.27	34424.60
668.41	34162.46
668.56	33890.96
668.70	33977.56
668.84	33813.72
668.98	33596.05
669.12	33647.54
669.26	33729.46
669.40	33661.58
669.54	33567.96
669.68	33593.71
669.82	32917.29
669.96	33237.95
670.10	33411.15
670.25	33434.55
670.39	33106.88
670.53	33158.37
670.67	32751.12
670.81	33027.30
670.95	32844.74
671.09	33139.65
671.23	32664.52
671.37	32833.04
671.51	32594.30
671.65	32535.79
671.79	32669.20
671.93	32877.51
672.07	32374.29
672.21	32393.01
672.35	32290.03
672.49	32304.07
672.63	32261.94
672.77	32456.21
672.91	32030.23
673.05	32313.44
673.19	32006.83
673.33	31660.43
673.47	31484.89
673.61	31744.69
673.75	31477.86
673.89	31157.21
674.03	31510.63
674.17	31723.62
674.31	31505.95
674.45	31189.98
674.59	31503.61
674.73	31449.78
674.87	31402.97
675.01	31154.87
675.15	31175.94
675.29	30972.31
675.43	31337.43
675.56	30764.00
675.70	31061.25
675.84	30670.38
675.98	29832.47
676.12	30497.18
676.26	30646.97
676.40	30698.47
676.54	30539.31
676.68	30361.43
676.82	29551.60
676.96	30195.25
677.10	30015.03
677.23	29832.47
677.37	29947.15
677.51	29837.15
677.65	29717.78
677.79	29312.87
677.93	29493.09
678.07	29230.95
678.21	28896.25
678.34	29081.16
678.48	28863.49
678.62	28343.89
678.76	28519.43
678.90	28524.11
679.04	28072.39
679.18	28599.01
679.31	28306.44
679.45	28313.46
679.59	27999.83
679.73	28285.37
679.87	28355.59
680.00	27953.02
680.14	27667.47
680.28	27660.45
680.42	28034.94
680.56	27761.09
680.70	27700.24
680.83	27728.33
680.97	27054.25
681.11	27285.97
681.25	27255.54
681.39	27159.58
681.52	27145.53
681.66	27138.51
681.80	26962.97
681.94	26881.05
682.07	26789.77
682.21	26850.63
682.35	26581.46
682.49	26384.86
682.62	26450.39
682.76	26338.05
682.90	26272.51
683.04	25898.03
683.17	26206.98
683.31	25928.45
683.45	25626.53
683.59	25687.38
683.72	25589.08
683.86	25841.85
684.00	25539.93
684.13	25453.33
684.27	25181.82
684.41	25614.82
684.55	25383.11
684.68	24666.91
684.82	25109.27
684.96	25252.04
685.09	25064.80
685.23	24863.51
685.37	24805.00
685.50	25392.47
685.64	24861.17
685.78	24603.71
685.91	24493.71
686.05	24156.67
686.19	23941.34
686.32	23690.90
686.46	23573.88
686.60	23646.43
686.73	23159.60
686.87	23063.64
687.01	23489.62
687.14	22993.42
687.28	22899.80
687.42	23379.61
687.55	23234.50
687.69	23445.15
687.82	23026.19
687.96	22904.48
688.10	22649.36
688.23	23021.51
688.37	22970.02
688.50	22721.92
688.64	22569.79
688.78	22359.14
688.91	22232.75
689.05	22040.82
689.18	22288.92
689.32	21685.06
689.46	22293.60
689.59	22462.12
689.73	22223.39
689.86	21818.47
690.00	21738.90
690.13	21902.73
690.27	21619.53
690.41	21357.39
690.54	21336.32
690.68	21329.30
690.81	21647.61
690.95	21345.69
691.08	21116.31
691.22	21146.74
691.35	21266.11
691.49	21420.58
691.62	20919.71
691.76	20905.66
691.89	20800.34
692.03	20900.98
692.16	20737.15
692.30	20276.06
692.43	20489.05
692.57	20177.76
692.70	19882.85
692.84	20173.08
692.97	19924.98
693.11	20133.29
693.24	20081.80
693.38	19601.99
693.51	19845.40
693.65	19655.82
693.78	19599.65
693.92	19349.21
694.05	19393.68
694.19	19302.40
694.32	19295.38
694.45	19576.24
694.59	19477.94
694.72	19140.90
694.86	18925.57
694.99	18754.71
695.13	18838.97
695.26	19082.39
695.39	18586.19
695.53	18897.49
695.66	19056.64
695.80	18733.65
695.93	18401.29
696.07	18499.59
696.20	18445.76
696.33	18417.68
696.47	18164.90
696.60	17961.27
696.73	18211.71
696.87	17633.60
697.00	17621.89
697.14	17855.95
697.27	17326.99
697.40	17322.30
697.54	17467.42
697.67	17289.54
697.80	17256.77
697.94	16879.94
698.07	17422.95
698.21	16954.84
698.34	17238.05
698.47	16912.71
698.61	17015.69
698.74	16968.88
698.87	16666.95
699.01	16795.68
699.14	16418.86
699.27	16531.20
699.40	16334.60
699.54	16505.46
699.67	16348.64
699.80	16348.64
699.94	15868.83
700.07	16205.87
700.20	15953.09
700.34	16102.89
700.47	15999.90
700.60	16044.37
700.73	15866.49
700.87	15648.82
701.00	15613.71
701.13	15667.55
701.26	15414.77
701.40	15393.70
701.53	15281.36
701.66	15365.62
701.79	15293.06
701.93	15199.44
702.06	15129.22
702.19	14651.75
702.32	15005.17
702.46	14782.82
702.59	15002.83
702.72	14792.19
702.85	14803.89
702.99	14593.24
703.12	14527.71
703.25	14462.17
703.38	14391.95
703.51	14586.22
703.65	14384.93
703.78	14155.56
703.91	14190.67
704.04	13975.34
704.17	13987.04
704.31	14022.15
704.44	13956.61
704.57	14003.43
704.70	13785.76
704.83	13823.20
704.96	13858.31
705.10	13647.66
705.23	13724.90
>>>>>End Processed Spectral Data<<<<<
