SpectraSuite Data File
++++++++++++++++++++++++++++++++++++
Date: Fri Oct 25 10:48:03 EDT 2013
User: price-jones
Dark Spectrum Present: No
Reference Spectrum Present: No
Number of Sampled Component Spectra: 1
Spectrometers: USB2+H05261
Integration Time (usec): 100000 (USB2+H05261)
Spectra Averaged: 1 (USB2+H05261)
Boxcar Smoothing: 0 (USB2+H05261)
Correct for Electrical Dark: No (USB2+H05261)
Strobe/Lamp Enabled: No (USB2+H05261)
Correct for Detector Non-linearity: No (USB2+H05261)
Correct for Stray Light: No (USB2+H05261)
Number of Pixels in Processed Spectrum: 2048
>>>>>Begin Processed Spectral Data<<<<<
365.73	166.18
365.92	166.18
366.12	166.18
366.32	39.79
366.52	42.13
366.72	63.19
366.91	42.13
367.11	98.30
367.31	42.13
367.51	51.49
367.70	0.00
367.90	70.22
368.10	53.83
368.30	14.04
368.49	166.18
368.69	16.38
368.89	7.02
369.09	16.38
369.28	25.75
369.48	133.41
369.68	88.94
369.87	95.96
370.07	107.66
370.27	175.54
370.47	208.31
370.66	393.21
370.86	404.91
371.06	475.13
371.25	521.94
371.45	339.38
371.65	489.17
371.84	407.25
372.04	451.72
372.24	465.77
372.44	482.15
372.63	517.26
372.83	519.60
373.03	545.34
373.22	545.34
373.42	486.83
373.62	517.26
373.81	533.64
374.01	533.64
374.21	517.26
374.40	472.79
374.60	603.86
374.79	519.60
374.99	545.34
375.19	517.26
375.38	535.98
375.58	568.75
375.78	582.79
375.97	575.77
376.17	596.84
376.37	587.47
376.56	650.67
376.76	557.05
376.95	564.07
377.15	575.77
377.35	653.01
377.54	645.99
377.74	535.98
377.93	585.13
378.13	608.54
378.33	671.73
378.52	657.69
378.72	641.31
378.91	645.99
379.11	554.71
379.31	669.39
379.50	613.22
379.70	734.93
379.89	671.73
380.09	648.33
380.28	655.35
380.48	629.60
380.68	634.29
380.87	589.82
381.07	662.37
381.26	669.39
381.46	606.20
381.65	615.56
381.85	636.63
382.04	636.63
382.24	664.71
382.43	725.57
382.63	655.35
382.83	613.22
383.02	667.05
383.22	662.37
383.41	741.95
383.61	653.01
383.80	826.21
384.00	692.80
384.19	716.20
384.39	819.19
384.58	746.63
384.78	727.91
384.97	795.78
385.17	713.86
385.36	720.88
385.56	767.70
385.75	713.86
385.95	816.85
386.14	744.29
386.34	777.06
386.53	777.06
386.72	746.63
386.92	788.76
387.11	784.08
387.31	739.61
387.50	863.66
387.70	725.57
387.89	828.55
388.09	812.17
388.28	880.04
388.48	779.40
388.67	816.85
388.86	851.96
389.06	828.55
389.25	842.59
389.45	877.70
389.64	898.77
389.84	826.21
390.03	882.38
390.22	875.36
390.42	901.11
390.61	866.00
390.81	837.91
391.00	882.38
391.19	945.58
391.39	964.30
391.58	903.45
391.78	931.53
391.97	990.05
392.16	947.92
392.36	1039.20
392.55	940.90
392.75	1064.94
392.94	849.61
393.13	931.53
393.33	926.85
393.52	964.30
393.71	1039.20
393.91	1088.35
394.10	1043.88
394.29	1060.26
394.49	1081.33
394.68	1090.69
394.88	1142.18
395.07	1093.03
395.26	1064.94
395.46	1062.60
395.65	1088.35
395.84	1228.78
396.04	1163.25
396.23	1062.60
396.42	1088.35
396.62	1163.25
396.81	1181.97
397.00	1158.57
397.19	1160.91
397.39	1179.63
397.58	1252.19
397.77	1181.97
397.97	1320.06
398.16	1256.87
398.35	1301.34
398.55	1273.25
398.74	1291.98
398.93	1280.27
399.12	1313.04
399.32	1291.98
399.51	1338.79
399.70	1451.13
399.90	1359.85
400.09	1369.21
400.28	1359.85
400.47	1390.28
400.67	1345.81
400.86	1390.28
401.05	1448.79
401.24	1413.68
401.44	1488.58
401.63	1493.26
401.82	1521.35
402.01	1441.77
402.21	1593.90
402.40	1427.73
402.59	1558.80
402.78	1533.05
402.97	1575.18
403.17	1537.73
403.36	1542.41
403.55	1584.54
403.74	1565.82
403.93	1654.76
404.13	1629.01
404.32	1682.85
404.51	1610.29
404.70	1682.85
404.89	1584.54
405.09	1720.29
405.28	1722.63
405.47	1629.01
405.66	1710.93
405.85	1715.61
406.05	1687.53
406.24	1769.44
406.43	1776.47
406.62	1820.94
406.81	1921.58
407.00	1750.72
407.20	1820.94
407.39	1856.04
407.58	1916.90
407.77	1895.83
407.96	1877.11
408.15	1942.64
408.34	1799.87
408.54	1944.99
408.73	1982.43
408.92	1881.79
409.11	2050.31
409.30	1959.03
409.49	1980.09
409.68	1909.88
409.87	2033.93
410.07	2083.08
410.26	2059.67
410.45	2197.76
410.64	1989.46
410.83	2122.87
411.02	2143.93
411.21	2172.02
411.40	2214.15
411.59	2169.68
411.78	2363.94
411.98	2267.98
412.17	2310.11
412.36	2258.62
412.55	2436.50
412.74	2469.27
412.93	2448.20
413.12	2298.41
413.31	2415.43
413.50	2373.30
413.69	2562.89
413.88	2504.37
414.07	2492.67
414.26	2478.63
414.45	2595.65
414.64	2516.08
414.83	2651.83
415.02	2534.80
415.22	2729.06
415.41	2684.59
415.60	2736.09
415.79	2815.66
415.98	2855.45
416.17	2771.19
416.36	2874.18
416.55	2935.03
416.74	2920.99
416.93	2899.92
417.12	2949.08
417.31	2953.76
417.50	2869.50
417.69	3112.91
417.88	2967.80
418.07	3028.65
418.26	3038.02
418.45	3007.59
418.64	3148.02
418.83	3143.34
419.02	3180.79
419.21	3145.68
419.39	3054.40
419.58	3016.95
419.77	3103.55
419.96	3248.66
420.15	3276.75
420.34	3229.94
420.53	3269.73
420.72	3396.12
420.91	3236.96
421.10	3248.66
421.29	3403.14
421.48	3162.06
421.67	3386.76
421.86	3337.60
422.05	3206.53
422.24	3311.86
422.43	3358.67
422.61	3489.74
422.80	3527.19
422.99	3480.38
423.18	3335.26
423.37	3515.48
423.56	3398.46
423.75	3466.33
423.94	3449.95
424.13	3349.31
424.32	3372.71
424.50	3466.33
424.69	3515.48
424.88	3674.64
425.07	3531.87
425.26	3417.18
425.45	3447.61
425.64	3414.84
425.83	3571.66
426.01	3485.06
426.20	3515.48
426.39	3461.65
426.58	3604.42
426.77	3674.64
426.96	3733.15
427.15	3662.94
427.33	3590.38
427.52	3508.46
427.71	3644.21
427.90	3658.26
428.09	3648.90
428.28	3684.00
428.46	3644.21
428.65	3735.50
428.84	3915.72
429.03	3756.56
429.22	3796.35
429.40	3693.37
429.59	3929.76
429.78	3602.08
429.97	3618.47
430.16	3660.60
430.34	3761.24
430.53	3791.67
430.72	3880.61
430.91	3782.31
431.10	3873.59
431.28	3850.18
431.47	4065.51
431.66	4067.85
431.85	3992.95
432.03	3943.80
432.22	4138.07
432.41	4093.60
432.60	4053.81
432.79	4149.77
432.97	4161.47
433.16	4241.05
433.35	4203.60
433.54	4126.36
433.72	4109.98
433.91	4168.49
434.10	4236.37
434.28	4318.29
434.47	4269.14
434.66	4355.74
434.85	4191.90
435.03	4388.50
435.22	4301.90
435.41	4449.36
435.59	4582.77
435.78	4451.70
435.97	4589.79
436.16	4545.32
436.34	4435.32
436.53	4463.40
436.72	4493.83
436.90	4631.92
437.09	4685.75
437.28	4587.45
437.46	4571.07
437.65	4617.88
437.84	4676.39
438.02	4554.68
438.21	4709.16
438.40	4578.09
438.58	4638.94
438.77	4856.61
438.96	4751.29
439.14	4917.47
439.33	5027.47
439.52	4849.59
439.70	5123.43
439.89	5013.43
440.08	5067.26
440.26	5242.80
440.45	4973.64
440.63	5153.86
440.82	5416.00
441.01	5186.63
441.19	5348.12
441.38	5387.91
441.57	5383.23
441.75	5305.99
441.94	5575.16
442.12	5530.69
442.31	5554.09
442.50	5643.03
442.68	5551.75
442.87	5633.67
443.05	5465.15
443.24	5666.44
443.43	5603.24
443.61	5518.98
443.80	5776.44
443.98	5664.10
444.17	5579.84
444.35	5870.06
444.54	5783.46
444.73	5734.31
444.91	5544.73
445.10	5736.65
445.28	5628.99
445.47	5738.99
445.65	5717.93
445.84	5483.88
446.02	5643.03
446.21	5898.15
446.39	5930.92
446.58	5778.78
446.77	5820.91
446.95	5731.97
447.14	5799.85
447.32	5907.51
447.51	5813.89
447.69	5849.00
447.88	5940.28
448.06	5928.58
448.25	5994.11
448.43	5912.19
448.62	6080.71
448.80	5968.37
448.99	6076.03
449.17	5996.45
449.36	6012.84
449.54	6064.33
449.73	6150.93
449.91	6171.99
450.10	6085.39
450.28	6314.77
450.46	6181.35
450.65	6300.72
450.83	6366.26
451.02	6279.66
451.20	6251.57
451.39	6282.00
451.57	6356.90
451.76	6387.32
451.94	6422.43
452.13	6328.81
452.31	6413.07
452.49	6375.62
452.68	6333.49
452.86	6258.59
453.05	6502.01
453.23	6476.26
453.42	6504.35
453.60	6478.60
453.78	6654.14
453.97	6539.46
454.15	6539.46
454.34	6506.69
454.52	6691.59
454.70	6675.21
454.89	6483.28
455.07	6572.22
455.26	6747.76
455.44	6932.67
455.62	6890.54
455.81	6677.55
455.99	6843.73
456.17	6832.02
456.36	6920.96
456.54	7002.88
456.73	7019.27
456.91	7281.41
457.09	7213.53
457.28	7302.47
457.46	7304.81
457.64	7009.90
457.83	7119.91
458.01	7187.79
458.19	7300.13
458.38	7087.14
458.56	7309.49
458.74	7377.37
458.93	7311.83
459.11	7346.94
459.29	7180.76
459.48	7314.17
459.66	7492.05
459.84	7517.80
460.03	7557.59
460.21	7566.95
460.39	7653.55
460.57	7578.65
460.76	7602.06
460.94	7461.63
461.12	7611.42
461.31	7667.60
461.49	7618.44
461.67	7616.10
461.85	7683.98
462.04	7831.43
462.22	8177.83
462.40	7836.11
462.59	7686.32
462.77	7763.56
462.95	7967.18
463.13	7836.11
463.32	7854.84
463.50	8131.02
463.68	7948.46
463.86	8170.81
464.05	7948.46
464.23	7667.60
464.41	8215.28
464.59	7859.52
464.78	8212.94
464.96	8093.57
465.14	8035.06
465.32	8021.02
465.50	8173.15
465.69	8379.12
465.87	8063.15
466.05	8077.19
466.23	8156.77
466.41	8030.38
466.60	8498.49
466.78	8044.42
466.96	8159.11
467.14	8423.59
467.32	8393.16
467.51	8344.01
467.69	8215.28
467.87	8465.72
468.05	8435.29
468.23	8332.31
468.41	8519.55
468.60	8458.70
468.78	8526.57
468.96	8428.27
469.14	8482.10
469.32	8774.67
469.50	8461.04
469.69	8702.11
469.87	8713.81
470.05	8664.66
470.23	8919.78
470.41	8842.54
470.59	8863.61
470.77	8828.50
470.95	8987.66
471.14	9149.15
471.32	8908.08
471.50	9064.89
471.68	9184.26
471.86	9088.30
472.04	9336.40
472.22	9270.86
472.40	9233.41
472.58	9369.16
472.77	9275.54
472.95	9549.39
473.13	9652.37
473.31	9352.78
473.49	9355.12
473.67	9591.52
473.85	9666.41
474.03	9760.03
474.21	9713.22
474.39	9877.06
474.57	9736.63
474.75	9930.89
474.93	9930.89
475.12	9881.74
475.30	9930.89
475.48	10246.87
475.66	10141.54
475.84	9884.08
476.02	10183.67
476.20	10218.78
476.38	10286.65
476.56	10663.48
476.74	10724.33
476.92	10588.58
477.10	10333.47
477.28	10572.20
477.46	10696.25
477.64	10927.96
477.82	10958.39
478.00	11162.01
478.18	11150.31
478.36	11241.59
478.54	11346.92
478.72	11318.83
478.90	11449.90
479.08	11779.92
479.26	11688.64
479.44	11688.64
479.62	12065.46
479.80	11918.01
479.98	11948.43
480.16	12170.79
480.34	12166.10
480.52	12358.03
480.70	12264.41
480.88	12180.15
481.06	12479.74
481.24	12468.03
481.41	12620.17
481.59	12772.30
481.77	12809.75
481.95	12697.41
482.13	12936.14
482.31	13039.12
482.49	13200.62
482.67	13224.03
482.85	13425.31
483.03	13565.74
483.21	13743.63
483.39	13722.56
483.57	13832.57
483.74	13905.12
483.92	14207.05
484.10	14094.71
484.28	14331.10
484.46	14485.58
484.64	14752.40
484.82	14361.53
485.00	14801.55
485.18	14747.72
485.35	15063.69
485.53	14609.62
485.71	14984.11
485.89	15330.51
486.07	15302.42
486.25	15288.38
486.43	15190.08
486.61	15669.89
486.78	15803.30
486.96	15782.23
487.14	15789.25
487.32	16079.48
487.50	16091.18
487.68	16201.19
487.85	16634.19
488.03	16966.54
488.21	16952.50
488.39	16875.26
488.57	16912.71
488.75	17179.53
488.92	17359.75
489.10	17219.32
489.28	17378.48
489.46	17671.04
489.64	17792.75
489.81	18141.49
489.99	18113.41
490.17	18054.89
490.35	18277.24
490.53	18246.82
490.70	18665.77
490.88	18384.91
491.06	18771.10
491.24	18853.02
491.41	18665.77
491.59	18988.77
491.77	18988.77
491.95	18916.21
492.13	19417.08
492.30	19463.90
492.48	19323.46
492.66	19758.80
492.84	19711.99
493.01	19936.68
493.19	20152.01
493.37	20273.72
493.54	20002.22
493.72	20456.28
493.90	20446.92
494.08	20762.89
494.25	21048.44
494.43	20826.09
494.61	21088.23
494.79	21341.00
494.96	21158.44
495.14	21135.04
495.32	21628.89
495.49	21902.73
495.67	21546.97
495.85	22033.80
496.02	21699.11
496.20	22136.79
496.38	22045.51
496.55	22253.81
496.73	22918.53
496.91	22682.13
497.09	22883.42
497.26	22740.64
497.44	22644.68
497.62	22792.14
497.79	23005.13
497.97	22848.31
498.14	23449.83
498.32	23192.37
498.50	23620.69
498.67	23463.87
498.85	23653.45
499.03	23791.55
499.20	23833.68
499.38	23866.44
499.56	24231.57
499.73	24194.12
499.91	24130.92
500.08	24175.39
500.26	24334.55
500.44	24180.07
500.61	24507.75
500.79	24737.12
500.97	24584.99
501.14	24753.51
501.32	24879.89
501.49	25230.98
501.67	24755.85
501.84	24959.47
502.02	25186.50
502.20	25378.43
502.37	25411.20
502.55	25006.28
502.72	25415.88
502.90	25591.42
503.07	25245.02
503.25	25591.42
503.43	25310.55
503.60	26125.06
503.78	26188.25
503.95	25930.80
504.13	26001.01
504.30	26438.69
504.48	26235.06
504.65	26532.31
504.83	26757.00
505.01	26855.31
505.18	26712.53
505.36	27236.81
505.53	26824.88
505.71	27269.58
505.88	27316.39
506.06	27154.90
506.23	27185.32
506.41	27239.15
506.58	27442.78
506.76	27601.94
506.93	27768.12
507.11	27505.98
507.28	27534.06
507.46	27562.15
507.63	27807.90
507.81	27468.53
507.98	27435.76
508.16	27777.48
508.33	28271.33
508.50	27936.63
508.68	28198.77
508.85	28238.56
509.03	28301.76
509.20	28823.70
509.38	28779.23
509.55	28631.77
509.73	28601.35
509.90	28669.22
510.08	28884.55
510.25	28533.47
510.42	29394.79
510.60	29146.69
510.77	29633.52
510.95	29394.79
511.12	29523.52
511.30	29057.75
511.47	29415.85
511.64	29865.24
511.82	29797.36
511.99	29465.00
512.17	30005.67
512.34	29635.86
512.51	29954.18
512.69	29757.57
512.86	29926.09
513.04	30221.00
513.21	30787.41
513.38	30506.54
513.56	30333.34
513.73	30536.97
513.90	30565.06
514.08	30455.05
514.25	30754.64
514.43	30497.18
514.60	30761.66
514.77	30794.43
514.95	31304.67
515.12	31213.38
515.29	31377.22
515.47	31234.45
515.64	31833.63
515.81	31363.18
515.99	31414.67
516.16	31096.36
516.33	31842.99
516.51	31878.10
516.68	31274.24
516.85	31276.58
517.03	31620.64
517.20	31978.74
517.37	31414.67
517.54	31901.50
517.72	31796.18
517.89	31842.99
518.06	32299.39
518.24	31784.48
518.41	31791.50
518.58	32353.23
518.75	31936.61
518.93	32601.32
519.10	32634.09
519.27	32615.37
519.45	32598.98
519.62	32334.50
519.79	32685.58
519.96	32800.27
520.14	33329.23
520.31	32884.53
520.48	33273.06
520.65	33322.21
520.83	33392.42
521.00	33633.50
521.17	33354.97
521.34	33553.92
521.52	33773.93
521.69	33579.67
521.86	33970.54
522.03	33380.72
522.20	33923.72
522.38	34139.05
522.55	33940.11
522.72	33734.14
522.89	33687.33
523.07	34015.01
523.24	33680.31
523.41	34038.41
523.58	34122.67
523.75	35009.73
523.92	34333.32
524.10	34902.07
524.27	34635.25
524.44	34885.68
524.61	35028.46
524.78	34539.29
524.96	34670.36
525.13	34888.03
525.30	34738.23
525.47	35093.99
525.64	35030.80
525.81	35093.99
525.98	34813.13
526.16	35267.19
526.33	35061.22
526.50	35573.80
526.67	35182.93
526.84	34866.96
527.01	35267.19
527.18	35484.86
527.36	35693.17
527.53	35573.80
527.70	36107.44
527.87	35847.64
528.04	35962.33
528.21	35531.67
528.38	35686.15
528.55	36378.95
528.72	36006.80
528.89	36285.33
529.07	36432.78
529.24	35763.39
529.41	36425.76
529.58	36112.13
529.75	36278.30
529.92	36891.52
530.09	36685.56
530.26	36589.59
530.43	36367.24
530.60	36224.47
530.77	36591.94
530.94	36879.82
531.11	36594.28
531.28	37050.68
531.46	36659.81
531.63	36992.17
531.80	37338.57
531.97	36879.82
532.14	36746.41
532.31	36774.50
532.48	36882.16
532.65	37294.10
532.82	37076.43
532.99	37432.19
533.16	37364.31
533.33	37392.40
533.50	37965.83
533.67	37516.45
533.84	37387.72
534.01	37628.79
534.18	37525.81
534.35	37816.04
534.52	37570.28
534.69	38089.88
534.86	38012.64
535.03	37535.17
535.20	38110.94
535.37	38141.37
535.54	38389.47
535.71	37890.93
535.88	38040.73
536.05	37893.27
536.22	38244.35
536.38	38312.23
536.55	38337.98
536.72	38548.62
536.89	37895.61
537.06	38438.62
537.23	38705.44
537.40	38352.02
537.57	38831.83
537.74	38515.86
537.91	38691.40
538.08	38553.30
538.25	38543.94
538.42	38670.33
538.59	38981.62
538.75	38696.08
538.92	38742.89
539.09	38625.86
539.26	38820.13
539.43	38754.59
539.60	38799.06
539.77	38733.53
539.94	39257.81
540.11	38827.15
540.28	38726.50
540.44	39220.36
540.61	38740.55
540.78	39196.95
540.95	39119.71
541.12	39311.64
541.29	39770.38
541.46	38974.60
541.62	39416.96
541.79	39742.30
541.96	39082.27
542.13	39351.43
542.30	39814.85
542.47	39718.89
542.63	39779.74
542.80	39438.03
542.97	40046.57
543.14	40374.24
543.31	39786.77
543.48	39824.22
543.64	40879.80
543.81	40222.11
543.98	40280.62
544.15	40350.84
544.32	40634.04
544.48	40711.28
544.65	40484.25
544.82	40481.91
544.99	40252.53
545.16	40722.98
545.32	40467.86
545.49	40685.53
545.66	40772.13
545.83	40959.38
546.00	41134.92
546.16	41141.94
546.33	40453.82
546.50	40713.62
546.67	40825.96
546.83	40809.58
547.00	40914.90
547.17	40875.12
547.34	40790.86
547.50	41258.96
547.67	41038.95
547.84	41106.83
548.00	41628.77
548.17	41291.73
548.34	41116.19
548.51	41911.97
548.67	41532.81
548.84	41291.73
549.01	41151.30
549.18	40996.82
549.34	41413.44
549.51	41832.39
549.68	41848.78
549.84	41198.11
550.01	42106.24
550.18	41329.18
550.34	41769.20
550.51	41614.72
550.68	41832.39
550.84	41333.86
551.01	41940.06
551.18	41734.09
551.34	41734.09
551.51	41869.84
551.68	41940.06
551.84	41984.53
552.01	42195.18
552.18	41523.44
552.34	41673.24
552.51	42216.24
552.68	41869.84
552.84	42007.94
553.01	42651.58
553.18	41858.14
553.34	41776.22
553.51	41989.21
553.67	42230.29
553.84	42342.63
554.01	42927.77
554.17	42532.22
554.34	42326.25
554.51	42314.55
554.67	42932.45
554.84	42586.05
555.00	42281.78
555.17	42674.99
555.33	42927.77
555.50	42110.92
555.67	42777.97
555.83	42464.34
556.00	43323.32
556.16	43147.78
556.33	42951.17
556.50	42866.91
556.66	42923.08
556.83	42588.39
556.99	43346.72
557.16	42787.33
557.32	43103.31
557.49	42995.64
557.65	42759.25
557.82	42731.16
557.98	42724.14
558.15	43049.47
558.32	43143.09
558.48	43164.16
558.65	43199.27
558.81	42965.21
558.98	43105.65
559.14	43166.50
559.31	43306.93
559.47	43421.62
559.64	43634.61
559.80	43597.16
559.97	42710.10
560.13	43082.24
560.30	42777.97
560.46	43477.79
560.63	43033.09
560.79	43812.49
560.96	43342.04
561.12	43330.34
561.29	42988.62
561.45	43433.32
561.61	43578.43
561.78	43477.79
561.94	43370.13
562.11	43054.15
562.27	43789.08
562.44	43381.83
562.60	43533.96
562.77	43508.22
562.93	43248.42
563.10	43779.72
563.26	43611.20
563.42	43988.03
563.59	43819.51
563.75	43709.50
563.92	43655.67
564.08	43920.15
564.24	43356.08
564.41	43669.72
564.57	43721.21
564.74	43800.79
564.90	43833.55
565.07	43798.44
565.23	43339.70
565.39	43871.00
565.56	44208.04
565.72	43840.57
565.88	43681.42
566.05	43973.98
566.21	43639.29
566.38	43709.50
566.54	43751.63
566.70	44486.56
566.87	43835.89
567.03	43995.05
567.19	44411.67
567.36	43665.03
567.52	43622.90
567.68	44123.78
567.85	43646.31
568.01	44037.18
568.17	44133.14
568.34	43969.30
568.50	44158.89
568.66	43297.57
568.83	43945.90
568.99	43758.66
569.15	43931.86
569.32	43753.97
569.48	43732.91
569.64	44261.87
569.81	44123.78
569.97	43969.30
570.13	44072.29
570.30	43810.15
570.46	43503.54
570.62	44109.74
570.78	43962.28
570.95	43861.64
571.11	44582.52
571.27	43913.13
571.43	44299.32
571.60	44304.00
571.76	44154.21
571.92	44215.06
572.09	44044.20
572.25	44072.29
572.41	44079.31
572.57	44229.10
572.74	44734.66
572.90	44179.95
573.06	44315.70
573.22	44566.14
573.38	43931.86
573.55	43744.61
573.71	44538.05
573.87	44208.04
574.03	43941.22
574.20	44697.21
574.36	44287.62
574.52	44112.08
574.68	44418.69
574.84	44421.03
575.01	44240.81
575.17	44486.56
575.33	44488.90
575.49	43756.32
575.65	44294.64
575.82	44364.85
575.98	44367.20
576.14	44065.27
576.30	44126.12
576.46	44336.77
576.62	44444.43
576.79	44046.54
576.95	43896.75
577.11	44210.38
577.27	44201.02
577.43	44369.54
577.59	44594.23
577.75	44308.68
577.92	44091.01
578.08	44034.84
578.24	44093.35
578.40	44690.19
578.56	44509.97
578.72	44577.84
578.88	44430.39
579.04	44493.58
579.21	44296.98
579.37	44203.36
579.53	44128.46
579.69	44388.26
579.85	44479.54
580.01	44376.56
580.17	44287.62
580.33	44741.68
580.49	44409.32
580.65	44538.05
580.82	44540.39
580.98	44411.67
581.14	44006.75
581.30	44596.57
581.46	44697.21
581.62	44514.65
581.78	44505.29
581.94	44949.99
582.10	44570.82
582.26	44830.62
582.42	44584.86
582.58	44854.03
582.74	44109.74
582.90	44655.08
583.06	44568.48
583.22	44739.34
583.38	44650.40
583.54	44655.08
583.70	44849.35
583.86	44397.62
584.02	44514.65
584.18	44397.62
584.34	44603.59
584.50	44921.90
584.66	44825.94
584.82	44619.97
584.98	45003.82
585.14	44634.02
585.30	44418.69
585.46	44453.79
585.62	44140.16
585.78	44282.94
585.94	43950.58
586.10	44612.95
586.26	44327.41
586.42	44706.57
586.58	44753.38
586.74	44308.68
586.90	44414.01
587.06	44631.68
587.22	44458.48
587.38	44863.39
587.54	44626.99
587.70	44648.06
587.86	44823.60
588.02	44872.75
588.18	45097.44
588.34	44495.92
588.49	44406.98
588.65	44004.41
588.81	44069.95
588.97	44294.64
589.13	44641.04
589.29	44765.09
589.45	44945.31
589.61	44629.34
589.77	44652.74
589.93	44629.34
590.08	44755.72
590.24	45109.14
590.40	44706.57
590.56	44776.79
590.72	44704.23
590.88	44720.62
591.04	44861.05
591.20	45483.63
591.35	44889.13
591.51	45102.12
591.67	45099.78
591.83	45457.88
591.99	44725.30
592.15	44170.59
592.31	44746.36
592.46	45081.06
592.62	44701.89
592.78	44858.71
592.94	44898.50
593.10	44521.67
593.26	44729.98
593.41	44884.45
593.57	44636.36
593.73	44608.27
593.89	45139.57
594.05	44769.77
594.20	45123.19
594.36	45219.15
594.52	44828.28
594.68	44718.28
594.84	45109.14
594.99	44928.92
595.15	44870.41
595.31	45336.18
595.47	44648.06
595.62	45038.93
595.78	45177.02
595.94	45315.11
596.10	45141.91
596.25	45027.23
596.41	45050.63
596.57	45059.99
596.73	45214.47
596.88	44673.81
597.04	45261.28
597.20	44561.46
597.36	45247.24
597.51	45181.70
597.67	44685.51
597.83	45352.56
597.99	45324.47
598.14	44638.70
598.30	44973.39
598.46	44596.57
598.61	45184.04
598.77	44601.25
598.93	44980.42
599.09	45223.83
599.24	45495.33
599.40	45022.54
599.56	44905.52
599.71	45193.40
599.87	45317.45
600.03	44952.33
600.18	45097.44
600.34	44861.05
600.50	45001.48
600.65	44779.13
600.81	45509.38
600.97	45492.99
601.12	45378.31
601.28	45247.24
601.44	45090.42
601.59	45366.60
601.75	44540.39
601.91	44821.26
602.06	44898.50
602.22	45270.64
602.37	44884.45
602.53	45059.99
602.69	45467.25
602.84	45179.36
603.00	44818.92
603.16	44821.26
603.31	44844.66
603.47	44926.58
603.62	44971.05
603.78	45394.69
603.94	44905.52
604.09	45308.09
604.25	45071.70
604.40	45024.89
604.56	45113.83
604.71	44734.66
604.87	44811.90
605.03	45254.26
605.18	44783.81
605.34	45265.96
605.49	44378.90
605.65	45270.64
605.80	44868.07
605.96	44907.86
606.12	44737.00
606.27	44931.26
606.43	44856.37
606.58	44982.76
606.74	45106.80
606.89	45120.85
607.05	45104.46
607.20	44769.77
607.36	45268.30
607.51	45268.30
607.67	45074.04
607.82	44650.40
607.98	44985.10
608.13	44636.36
608.29	44863.39
608.44	44849.35
608.60	44212.72
608.75	45027.23
608.91	44332.09
609.06	44779.13
609.22	44685.51
609.37	44575.50
609.53	44402.30
609.68	44369.54
609.84	44739.34
609.99	44566.14
610.15	44795.51
610.30	44626.99
610.46	43976.33
610.61	44664.44
610.76	44692.53
610.92	44589.55
611.07	44336.77
611.23	44346.13
611.38	44591.89
611.54	44582.52
611.69	44430.39
611.84	44095.69
612.00	44301.66
612.15	44135.48
612.31	44453.79
612.46	44318.04
612.62	44296.98
612.77	44449.11
612.92	44318.04
613.08	44091.01
613.23	44610.61
613.39	44027.82
613.54	43952.92
613.69	43789.08
613.85	44292.30
614.00	44463.16
614.15	44259.53
614.31	44095.69
614.46	43981.01
614.62	43978.67
614.77	43868.66
614.92	44325.07
615.08	43847.60
615.23	44013.77
615.38	44488.90
615.54	43515.24
615.69	43772.70
615.84	43936.54
616.00	43934.20
616.15	43782.06
616.30	44009.09
616.46	43255.44
616.61	43290.55
616.76	43875.68
616.92	43709.50
617.07	43587.80
617.22	43718.87
617.37	43393.53
617.53	44051.22
617.68	43969.30
617.83	43646.31
617.99	43721.21
618.14	43468.43
618.29	43648.65
618.45	43175.86
618.60	43283.53
618.75	43419.28
618.90	43583.12
619.06	43423.96
619.21	43636.95
619.36	43597.16
619.51	43447.36
619.67	43168.84
619.82	43512.90
619.97	43665.03
620.12	43491.83
620.28	42845.85
620.43	43239.06
620.58	43112.67
620.73	43243.74
620.89	42700.73
621.04	43419.28
621.19	42698.39
621.34	42780.31
621.49	42548.60
621.65	42880.95
621.80	43243.74
621.95	43079.90
622.10	42866.91
622.25	42873.93
622.41	42429.23
622.56	42799.04
622.71	43070.54
622.86	42822.44
623.01	43196.93
623.16	43248.42
623.32	42850.53
623.47	42801.38
623.62	43281.19
623.77	42527.53
623.92	42930.11
624.07	42831.80
624.23	42693.71
624.38	42319.23
624.53	42459.66
624.68	42586.05
624.83	42574.34
624.98	42770.95
625.13	42216.24
625.29	42667.97
625.44	42747.54
625.59	42361.36
625.74	42141.35
625.89	42089.85
626.04	42026.66
626.19	42543.92
626.34	42302.84
626.49	42017.30
626.65	42288.80
626.80	42302.84
626.95	42096.88
627.10	41766.86
627.25	41717.71
627.40	41900.27
627.55	41759.84
627.70	41523.44
627.85	41755.16
628.00	41474.29
628.15	42096.88
628.30	42054.75
628.45	42073.47
628.60	41713.03
628.76	41951.76
628.91	42012.62
629.06	41956.44
629.21	41591.32
629.36	41380.67
629.51	41488.34
629.66	41567.91
629.81	41832.39
629.96	41804.31
630.11	41759.84
630.26	41710.69
630.41	41614.72
630.56	41378.33
630.71	41853.46
630.86	41720.05
631.01	41338.54
631.16	41188.75
631.31	41263.64
631.46	40748.73
631.61	41209.81
631.76	41277.69
631.91	41258.96
632.06	41488.34
632.21	41528.13
632.36	41724.73
632.51	41092.79
632.66	41291.73
632.81	40540.42
632.96	40896.18
633.10	40917.25
633.25	40840.01
633.40	41184.07
633.55	41120.87
633.70	41296.41
633.85	40683.19
634.00	41155.98
634.15	40942.99
634.30	40648.08
634.45	40898.52
634.60	40652.76
634.75	40535.74
634.90	40252.53
635.05	40868.09
635.19	41034.27
635.34	41071.72
635.49	41001.50
635.64	40477.22
635.79	39948.26
635.94	40453.82
636.09	40800.22
636.24	40304.02
636.39	39974.01
636.53	39892.09
636.68	40390.62
636.83	40306.37
636.98	40748.73
637.13	40163.59
637.28	40563.82
637.43	40575.53
637.57	40474.88
637.72	40446.80
637.87	40926.61
638.02	40514.67
638.17	40315.73
638.32	39920.18
638.46	39992.73
638.61	40072.31
638.76	39990.39
638.91	40135.51
639.06	39889.75
639.20	39620.59
639.35	40179.98
639.50	39622.93
639.65	39976.35
639.80	40301.68
639.94	40032.52
640.09	40100.40
640.24	39990.39
640.39	40229.13
640.54	39786.77
640.68	39796.13
640.83	39831.24
640.98	39182.91
641.13	39625.27
641.27	40051.25
641.42	39431.01
641.57	39931.88
641.72	39309.30
641.86	39192.27
642.01	39566.76
642.16	39503.56
642.31	38990.98
642.45	39707.19
642.60	39192.27
642.75	39395.90
642.90	39152.48
643.04	39510.58
643.19	39569.10
643.34	39400.58
643.48	39119.71
643.63	39299.94
643.78	39112.69
643.93	39323.34
644.07	39098.65
644.22	39323.34
644.37	39175.89
644.51	39175.89
644.66	39084.61
644.81	39026.09
644.95	39009.71
645.10	39063.54
645.25	38995.67
645.39	39098.65
645.54	39112.69
645.69	39019.07
645.83	39143.12
645.98	39042.48
646.13	39248.44
646.27	38787.36
646.42	38450.32
646.57	38990.98
646.71	38939.49
646.86	38967.58
647.00	39021.41
647.15	38628.20
647.30	39028.43
647.44	38897.36
647.59	38742.89
647.74	38515.86
647.88	38628.20
648.03	38349.68
648.17	38646.93
648.32	38480.75
648.47	38394.15
648.61	38244.35
648.76	38859.91
648.90	38548.62
649.05	38333.29
649.20	38281.80
649.34	38532.24
649.49	38373.08
649.63	38234.99
649.78	38487.77
649.92	38089.88
650.07	38146.05
650.21	37560.92
650.36	37914.34
650.51	38281.80
650.65	38609.48
650.80	38497.13
650.94	38693.74
651.09	38089.88
651.23	38082.86
651.38	37816.04
651.52	37930.72
651.67	38054.77
651.81	38068.81
651.96	37670.92
652.10	37785.61
652.25	37577.30
652.39	37617.09
652.54	37633.47
652.68	38050.09
652.83	37776.25
652.97	38120.31
653.12	37689.65
653.26	37516.45
653.41	38061.79
653.55	37558.58
653.70	37727.10
653.84	38024.34
653.99	37713.05
654.13	37511.77
654.27	37537.51
654.42	37544.53
654.56	37539.85
654.71	37525.81
654.85	37542.19
655.00	37567.94
655.14	37549.21
655.29	37258.99
655.43	36884.50
655.57	36957.06
655.72	37347.93
655.86	36910.25
656.01	37277.71
656.15	37053.02
656.30	36961.74
656.44	36858.76
656.58	36772.16
656.73	36629.38
656.87	36680.88
657.01	36718.32
657.16	36910.25
657.30	36945.36
657.45	36648.11
657.59	36533.42
657.73	36561.51
657.88	36357.88
658.02	36713.64
658.16	36577.89
658.31	36856.42
658.45	36999.19
658.60	36893.86
658.74	36664.49
658.88	36957.06
659.03	36465.55
659.17	36287.67
659.31	36004.46
659.46	36596.62
659.60	36498.31
659.74	36137.87
659.89	36013.82
660.03	36299.37
660.17	36170.64
660.32	36165.96
660.46	36683.22
660.60	35849.99
660.74	36254.90
660.89	35805.52
661.03	35842.96
661.17	35693.17
661.32	35414.65
661.46	35543.38
661.60	35894.46
661.74	35480.18
661.89	35871.05
662.03	35765.73
662.17	35192.30
662.31	35529.33
662.46	35304.64
662.60	35491.88
662.74	35346.77
662.88	35398.26
663.03	34864.62
663.17	35339.75
663.31	35049.52
663.45	35512.95
663.60	35463.80
663.74	35124.42
663.88	35136.12
664.02	34871.64
664.17	34881.00
664.31	34707.80
664.45	34660.99
664.59	34993.35
664.73	35147.82
664.88	34558.01
665.02	34459.71
665.16	34721.85
665.30	34471.41
665.44	34668.02
665.59	34377.79
665.73	34000.96
665.87	34387.15
666.01	34129.69
666.15	33928.41
666.29	34291.19
666.44	34862.28
666.58	34199.91
666.72	33668.61
666.86	34094.58
667.00	34506.52
667.14	33729.46
667.28	33663.93
667.43	33647.54
667.57	33745.84
667.71	33907.34
667.85	33481.36
667.99	33635.84
668.13	33404.13
668.27	33715.42
668.41	33352.63
668.56	33074.11
668.70	33546.90
668.84	33092.83
668.98	33261.35
669.12	33055.39
669.26	33186.46
669.40	33221.56
669.54	32858.78
669.68	32863.46
669.82	32723.03
669.96	33050.70
670.10	32362.59
670.25	32877.51
670.39	32957.08
670.53	32875.16
670.67	32442.17
670.81	32737.07
670.95	32992.19
671.09	32814.31
671.23	32362.59
671.37	32643.45
671.51	32409.40
671.65	32383.65
671.79	32070.02
671.93	32247.90
672.07	32437.48
672.21	31854.69
672.35	31529.36
672.49	31751.71
672.63	32252.58
672.77	32158.96
672.91	31630.00
673.05	31299.98
673.19	31711.92
673.33	31639.36
673.47	31646.38
673.61	30838.90
673.75	31126.78
673.89	30843.58
674.03	30995.71
674.17	30747.62
674.31	30855.28
674.45	30827.20
674.59	31063.59
674.73	31028.48
674.87	30595.48
675.01	31030.82
675.15	31161.89
675.29	30480.80
675.43	30176.53
675.56	30361.43
675.70	30260.79
675.84	30256.11
675.98	29315.21
676.12	30253.76
676.26	29802.04
676.40	29706.08
676.54	29654.59
676.68	29387.77
676.82	29200.52
676.96	29539.90
677.10	29642.88
677.23	29556.28
677.37	29432.24
677.51	29146.69
677.65	29530.54
677.79	28863.49
677.93	28856.46
678.07	29041.37
678.21	28645.82
678.34	28865.83
678.48	28423.47
678.62	28276.01
678.76	28538.15
678.90	28840.08
679.04	28322.82
679.18	28428.15
679.31	28147.28
679.45	27754.07
679.59	27667.47
679.73	28051.32
679.87	28032.60
680.00	27915.57
680.14	27786.84
680.28	27473.21
680.42	27569.17
680.56	27674.49
680.70	27356.18
680.83	27257.88
680.97	26951.27
681.11	26867.01
681.25	26934.88
681.39	27000.42
681.52	27159.58
681.66	26808.50
681.80	26494.86
681.94	26345.07
682.07	26443.37
682.21	26169.53
682.35	26448.05
682.49	26469.12
682.62	26637.64
682.76	26143.78
682.90	26192.94
683.04	26019.74
683.17	25888.67
683.31	25584.40
683.45	26108.68
683.59	25617.16
683.72	25177.14
683.86	25186.50
684.00	25450.99
684.13	25350.34
684.27	25256.72
684.41	24924.36
684.55	25088.20
684.68	24570.94
684.82	24435.19
684.96	24577.97
685.09	24910.32
685.23	24575.62
685.37	24142.63
685.50	24514.77
685.64	24334.55
685.78	24421.15
685.91	24217.52
686.05	24280.72
686.19	23784.52
686.32	24088.79
686.46	24006.87
686.60	23442.81
686.73	23161.94
686.87	23370.25
687.01	23403.02
687.14	22984.06
687.28	23063.64
687.42	23234.50
687.55	22815.54
687.69	22909.16
687.82	23122.15
687.96	23084.70
688.10	22661.07
688.23	22602.55
688.37	22700.86
688.50	22253.81
688.64	22396.59
688.78	22324.03
688.91	22225.73
689.05	22153.17
689.18	22469.14
689.32	21774.00
689.46	22101.68
689.59	21869.97
689.73	22094.66
689.86	21769.32
690.00	21699.11
690.13	21895.71
690.27	21488.46
690.41	21750.60
690.54	21106.95
690.68	21254.40
690.81	21343.35
690.95	20774.60
691.08	20975.88
691.22	20760.55
691.35	21102.27
691.49	20608.42
691.62	21179.51
691.76	20741.83
691.89	20753.53
692.03	20365.00
692.16	20460.96
692.30	20648.21
692.43	20240.95
692.57	20088.82
692.70	20039.67
692.84	20042.01
692.97	19630.07
693.11	19634.75
693.24	19459.21
693.38	19508.37
693.51	19257.93
693.65	19728.38
693.78	19590.28
693.92	19508.37
694.05	19325.80
694.19	19246.23
694.32	19314.10
694.45	19192.39
694.59	19218.14
694.72	18874.08
694.86	18899.83
694.99	18457.46
695.13	18534.70
695.26	18525.34
695.39	18270.22
695.53	18429.38
695.66	18405.97
695.80	18312.35
695.93	18146.17
696.07	17951.91
696.20	18015.10
696.33	17994.04
696.47	18033.83
696.60	17942.55
696.73	17987.02
696.87	17678.07
697.00	17713.17
697.14	17692.11
697.27	17666.36
697.40	17518.91
697.54	17565.72
697.67	17385.50
697.80	17345.71
697.94	17020.38
698.07	16992.29
698.21	17057.82
698.34	16996.97
698.47	17053.14
698.61	16472.69
698.74	16877.60
698.87	16386.09
699.01	16554.61
699.14	16322.90
699.27	16388.43
699.40	16283.11
699.54	16290.13
699.67	16121.61
699.80	16065.44
699.94	16109.91
700.07	16053.73
700.20	15665.21
700.34	16102.89
700.47	15775.21
700.60	15655.84
700.73	15815.00
700.87	15559.88
701.00	15660.52
701.13	15447.54
701.26	15728.40
701.40	15449.88
701.53	15325.83
701.66	15272.00
701.79	14977.09
701.93	14972.41
702.06	14937.30
702.19	14761.76
702.32	15012.20
702.46	14916.23
702.59	14628.35
702.72	14745.38
702.85	14640.05
702.99	14494.94
703.12	14436.42
703.25	14384.93
703.38	14602.60
703.51	14384.93
703.65	14249.18
703.78	14136.84
703.91	13961.30
704.04	13956.61
704.17	13940.23
704.31	13645.32
704.44	13572.77
704.57	13687.45
704.70	13621.92
704.83	13593.83
704.96	13886.40
705.10	13668.73
705.23	13664.05
>>>>>End Processed Spectral Data<<<<<
