SpectraSuite Data File
++++++++++++++++++++++++++++++++++++
Date: Fri Oct 25 11:33:54 EDT 2013
User: price-jones
Dark Spectrum Present: No
Reference Spectrum Present: No
Number of Sampled Component Spectra: 1
Spectrometers: USB2+H05261
Integration Time (usec): 100000 (USB2+H05261)
Spectra Averaged: 1 (USB2+H05261)
Boxcar Smoothing: 0 (USB2+H05261)
Correct for Electrical Dark: No (USB2+H05261)
Strobe/Lamp Enabled: No (USB2+H05261)
Correct for Detector Non-linearity: No (USB2+H05261)
Correct for Stray Light: No (USB2+H05261)
Number of Pixels in Processed Spectrum: 2048
>>>>>Begin Processed Spectral Data<<<<<
365.73	280.86
365.92	280.86
366.12	280.86
366.32	163.84
366.52	149.79
366.72	236.39
366.91	170.86
367.11	234.05
367.31	110.01
367.51	180.22
367.70	149.79
367.90	259.80
368.10	166.18
368.30	107.66
368.49	138.09
368.69	156.82
368.89	184.90
369.09	210.65
369.28	212.99
369.48	173.20
369.68	175.54
369.87	266.82
370.07	271.50
370.27	217.67
370.47	351.08
370.66	444.70
370.86	521.94
371.06	543.00
371.25	500.87
371.45	479.81
371.65	505.56
371.84	568.75
372.04	535.98
372.24	571.09
372.44	507.90
372.63	552.37
372.83	606.20
373.03	578.11
373.22	678.76
373.42	599.18
373.62	650.67
373.81	601.52
374.01	568.75
374.21	660.03
374.40	697.48
374.60	669.39
374.79	650.67
374.99	685.78
375.19	697.48
375.38	763.01
375.58	601.52
375.78	648.33
375.97	669.39
376.17	683.44
376.37	622.58
376.56	786.42
376.76	662.37
376.95	650.67
377.15	676.41
377.35	688.12
377.54	706.84
377.74	697.48
377.93	627.26
378.13	645.99
378.33	667.05
378.52	755.99
378.72	713.86
378.91	770.04
379.11	645.99
379.31	657.69
379.50	683.44
379.70	685.78
379.89	751.31
380.09	678.76
380.28	741.95
380.48	645.99
380.68	683.44
380.87	695.14
381.07	835.57
381.26	791.10
381.46	858.98
381.65	760.67
381.85	683.44
382.04	713.86
382.24	744.29
382.43	798.12
382.63	723.23
382.83	718.54
383.02	837.91
383.22	856.64
383.41	739.61
383.61	739.61
383.80	779.40
384.00	819.19
384.19	755.99
384.39	847.27
384.58	844.93
384.78	821.53
384.97	875.36
385.17	842.59
385.36	770.04
385.56	849.61
385.75	863.66
385.95	805.14
386.14	842.59
386.34	777.06
386.53	875.36
386.72	891.74
386.92	905.79
387.11	933.87
387.31	873.02
387.50	814.51
387.70	861.32
387.89	940.90
388.09	924.51
388.28	805.14
388.48	870.68
388.67	894.08
388.86	964.30
389.06	950.26
389.25	994.73
389.45	945.58
389.64	910.47
389.84	964.30
390.03	1029.84
390.22	976.00
390.42	936.21
390.61	938.55
390.81	947.92
391.00	985.37
391.19	990.05
391.39	992.39
391.58	1034.52
391.78	1018.13
391.97	1013.45
392.16	1008.77
392.36	1086.01
392.55	1090.69
392.75	936.21
392.94	1006.43
393.13	1011.11
393.33	1069.62
393.52	950.26
393.71	1167.93
393.91	1032.18
394.10	1043.88
394.29	1071.97
394.49	1090.69
394.68	1114.10
394.88	1139.84
395.07	1238.14
395.26	1121.12
395.46	1118.78
395.65	1210.06
395.84	1212.40
396.04	1212.40
396.23	1170.27
396.42	1132.82
396.62	1203.04
396.81	1123.46
397.00	1256.87
397.19	1210.06
397.39	1219.42
397.58	1287.29
397.77	1226.44
397.97	1301.34
398.16	1277.93
398.35	1261.55
398.55	1212.40
398.74	1238.14
398.93	1322.40
399.12	1299.00
399.32	1268.57
399.51	1308.36
399.70	1266.23
399.90	1369.21
400.09	1376.24
400.28	1301.34
400.47	1348.15
400.67	1399.64
400.86	1371.55
401.05	1467.52
401.24	1289.64
401.44	1434.75
401.63	1416.02
401.82	1500.28
402.01	1394.96
402.21	1549.43
402.40	1474.54
402.59	1460.49
402.78	1481.56
402.97	1486.24
403.17	1519.01
403.36	1593.90
403.55	1533.05
403.74	1659.44
403.93	1453.47
404.13	1540.07
404.32	1593.90
404.51	1643.06
404.70	1607.95
404.89	1633.69
405.09	1732.00
405.28	1638.38
405.47	1685.19
405.66	1743.70
405.85	1671.14
406.05	1713.27
406.24	1743.70
406.43	1710.93
406.62	1788.17
406.81	1827.96
407.00	1750.72
407.20	1802.21
407.39	1877.11
407.58	1832.64
407.77	1846.68
407.96	1935.62
408.15	1902.86
408.34	1867.75
408.54	1942.64
408.73	1942.64
408.92	1968.39
409.11	1912.22
409.30	1872.43
409.49	2010.52
409.68	1989.46
409.87	2003.50
410.07	2036.27
410.26	2143.93
410.45	2113.50
410.64	2094.78
410.83	2143.93
411.02	2129.89
411.21	2167.34
411.40	2146.27
411.59	2143.93
411.78	2125.21
411.98	2155.63
412.17	2167.34
412.36	2239.89
412.55	2242.23
412.74	2347.56
412.93	2366.28
413.12	2183.72
413.31	2452.88
413.50	2445.86
413.69	2242.23
413.88	2506.71
414.07	2415.43
414.26	2385.01
414.45	2495.01
414.64	2516.08
414.83	2513.74
415.02	2642.46
415.22	2663.53
415.41	2729.06
415.60	2766.51
415.79	2693.96
415.98	2801.62
416.17	2715.02
416.36	2621.40
416.55	2649.49
416.74	2803.96
416.93	2822.69
417.12	2757.15
417.31	2836.73
417.50	2836.73
417.69	2904.60
417.88	2949.08
418.07	2904.60
418.26	2829.71
418.45	2988.86
418.64	3108.23
418.83	2904.60
419.02	3005.25
419.21	2993.55
419.39	3101.21
419.58	2965.46
419.77	3148.02
419.96	3159.72
420.15	2942.05
420.34	3276.75
420.53	3234.62
420.72	3176.11
420.91	3267.39
421.10	3122.27
421.29	3318.88
421.48	3323.56
421.67	3243.98
421.86	3194.83
422.05	3239.30
422.24	3316.54
422.43	3421.86
422.61	3442.93
422.80	3379.73
422.99	3297.81
423.18	3400.80
423.37	3494.42
423.56	3412.50
423.75	3414.84
423.94	3272.07
424.13	3232.28
424.32	3274.41
424.50	3307.18
424.69	3426.54
424.88	3510.80
425.07	3452.29
425.26	3398.46
425.45	3400.80
425.64	3293.13
425.83	3480.38
426.01	3431.23
426.20	3611.45
426.39	3428.88
426.58	3403.14
426.77	3438.25
426.96	3482.72
427.15	3592.72
427.33	3433.57
427.52	3550.59
427.71	3662.94
427.90	3681.66
428.09	3632.51
428.28	3639.53
428.46	3723.79
428.65	3684.00
428.84	3735.50
429.03	3796.35
429.22	3571.66
429.40	3665.28
429.59	3889.97
429.78	3641.87
429.97	3667.62
430.16	3662.94
430.34	3772.94
430.53	3850.18
430.72	3969.55
430.91	3824.44
431.10	3822.09
431.28	4023.38
431.47	3936.78
431.66	3882.95
431.85	3941.46
432.03	3990.61
432.22	4189.56
432.41	4049.13
432.60	4128.70
432.79	4007.00
432.97	4077.21
433.16	4112.32
433.35	4021.04
433.54	4124.02
433.72	4173.18
433.91	4322.97
434.10	4255.09
434.28	4196.58
434.47	4208.28
434.66	4262.12
434.85	4306.59
435.03	4458.72
435.22	4278.50
435.41	4322.97
435.59	4259.78
435.78	4196.58
435.97	4367.44
436.16	4313.61
436.34	4337.01
436.53	4414.25
436.72	4601.49
436.90	4547.66
437.09	4444.68
437.28	4482.13
437.46	4400.21
437.65	4416.59
437.84	4545.32
438.02	4498.51
438.21	4751.29
438.40	4636.60
438.58	4734.90
438.77	4695.11
438.96	4697.46
439.14	4767.67
439.33	4931.51
439.52	5001.72
439.70	4952.57
439.89	4819.16
440.08	4940.87
440.26	5013.43
440.45	5064.92
440.63	5132.79
440.82	4973.64
441.01	5160.88
441.19	5245.14
441.38	5268.55
441.57	5219.39
441.75	5352.81
441.94	5518.98
442.12	5432.38
442.31	5404.30
442.50	5205.35
442.68	5254.50
442.87	5509.62
443.05	5420.68
443.24	5610.26
443.43	5706.23
443.61	5437.06
443.80	5603.24
443.98	5406.64
444.17	5331.74
444.35	5563.45
444.54	5708.57
444.73	5465.15
444.91	5612.60
445.10	5591.54
445.28	5568.13
445.47	5544.73
445.65	5565.79
445.84	5664.10
446.02	5565.79
446.21	5607.92
446.39	5781.12
446.58	5837.30
446.77	5633.67
446.95	5591.54
447.14	5743.67
447.32	5715.59
447.51	5666.44
447.69	5755.38
447.88	5781.12
448.06	5645.37
448.25	5605.58
448.43	5795.17
448.62	5727.29
448.80	5858.36
448.99	5837.30
449.17	5776.44
449.36	5764.74
449.54	6113.48
449.73	5996.45
449.91	6017.52
450.10	5905.17
450.28	5940.28
450.46	6073.69
450.65	5966.03
450.83	6157.95
451.02	6050.28
451.20	6235.19
451.39	6113.48
451.57	6223.48
451.76	6094.76
451.94	6164.97
452.13	6183.70
452.31	6256.25
452.49	6186.04
452.68	6366.26
452.86	6207.10
453.05	6490.31
453.23	6258.59
453.42	6413.07
453.60	6424.77
453.78	6466.90
453.97	6333.49
454.15	6394.34
454.34	6349.87
454.52	6548.82
454.70	6394.34
454.89	6450.52
455.07	6588.61
455.26	6572.22
455.44	6579.25
455.62	6462.22
455.81	6808.62
455.99	6815.64
456.17	6656.48
456.36	6628.40
456.54	6881.18
456.73	6855.43
456.91	7094.16
457.09	7148.00
457.28	7077.78
457.46	6808.62
457.64	7070.76
457.83	7084.80
458.01	7075.44
458.19	7215.87
458.38	7152.68
458.56	7108.21
458.74	7197.15
458.93	7180.76
459.11	7445.24
459.29	7267.36
459.48	7260.34
459.66	7180.76
459.84	7375.03
460.03	7396.09
460.21	7412.48
460.39	7283.75
460.57	7438.22
460.76	7494.40
460.94	7382.05
461.12	7606.74
461.31	7463.97
461.49	7332.90
461.67	7290.77
461.85	7707.38
462.04	7536.52
462.22	7985.91
462.40	7815.05
462.59	7595.04
462.77	7611.42
462.95	7576.31
463.13	7747.17
463.32	7903.99
463.50	7768.24
463.68	7882.92
463.86	7873.56
464.05	7770.58
464.23	7922.71
464.41	7885.26
464.59	7798.66
464.78	8006.97
464.96	8046.76
465.14	7899.31
465.32	8095.91
465.50	7995.27
465.69	8056.12
465.87	8079.53
466.05	8100.59
466.23	8109.96
466.41	8086.55
466.60	8390.82
466.78	7847.82
466.96	8238.69
467.14	8210.60
467.32	8299.54
467.51	8262.09
467.69	8030.38
467.87	8140.38
468.05	8346.35
468.23	8215.28
468.41	8325.29
468.60	8362.73
468.78	8458.70
468.96	8329.97
469.14	8465.72
469.32	8617.85
469.50	8374.44
469.69	8723.18
469.87	8730.20
470.05	8669.34
470.23	8744.24
470.41	8688.07
470.59	8990.00
470.77	8854.25
470.95	8596.79
471.14	9118.73
471.32	8807.44
471.50	8861.27
471.68	9165.54
471.86	9011.06
472.04	9006.38
472.22	9348.10
472.40	8933.82
472.58	9008.72
472.77	9268.52
472.95	9451.08
473.13	9640.67
473.31	9455.76
473.49	9331.72
473.67	9343.42
473.85	9423.00
474.03	9607.90
474.21	9666.41
474.39	9600.88
474.57	9654.71
474.75	9769.40
474.93	9877.06
475.12	9774.08
475.30	9797.48
475.48	9867.70
475.66	9937.91
475.84	10157.92
476.02	10073.67
476.20	10424.75
476.38	10157.92
476.56	10527.73
476.74	10492.62
476.92	10328.78
477.10	10239.84
477.28	10658.80
477.46	10527.73
477.64	10787.53
477.82	10747.74
478.00	11014.56
478.18	10965.41
478.36	11335.21
478.54	11171.38
478.72	11459.26
478.90	11508.41
479.08	11365.64
479.26	11580.97
479.44	11599.70
479.62	11812.68
479.80	11578.63
479.98	11824.39
480.16	12194.19
480.34	12009.29
480.52	12042.06
480.70	12297.17
480.88	12067.80
481.06	12271.43
481.24	12250.36
481.41	12638.89
481.59	12610.81
481.77	12655.28
481.95	12912.74
482.13	12779.32
482.31	13048.49
482.49	13294.24
482.67	13301.26
482.85	13614.90
483.03	13565.74
483.21	13689.79
483.39	13902.78
483.57	13638.30
483.74	13816.18
483.92	13827.88
484.10	13827.88
484.28	14019.81
484.46	14469.19
484.64	14740.69
484.82	14225.78
485.00	14728.99
485.18	14899.85
485.35	15206.46
485.53	15091.77
485.71	14803.89
485.89	15033.26
486.07	15311.78
486.25	15328.17
486.43	15201.78
486.61	15559.88
486.78	15541.16
486.96	15887.56
487.14	15960.11
487.32	16133.31
487.50	15941.39
487.68	16322.90
487.85	16568.65
488.03	16563.97
488.21	16765.26
488.39	16716.11
488.57	17057.82
488.75	16919.73
488.92	17341.03
489.10	17523.59
489.28	17680.41
489.46	17617.21
489.64	17324.65
489.81	17757.64
489.99	17956.59
490.17	17937.87
490.35	18251.50
490.53	18438.74
490.70	18429.38
490.88	18735.99
491.06	18902.17
491.24	19033.24
491.41	18988.77
491.59	19080.05
491.77	18831.95
491.95	19241.54
492.13	19719.01
492.30	19215.80
492.48	19377.30
492.66	19697.95
492.84	20018.60
493.01	20011.58
493.19	20072.43
493.37	20137.97
493.54	20065.41
493.72	20503.09
493.90	20631.82
494.08	20699.70
494.25	20566.29
494.43	20652.89
494.61	21188.87
494.79	21359.73
494.96	21041.42
495.14	21509.52
495.32	21575.06
495.49	21635.91
495.67	21563.36
495.85	22251.47
496.02	21825.50
496.20	22370.84
496.38	22242.11
496.55	22246.79
496.73	22665.75
496.91	22513.61
497.09	22850.65
497.26	22508.93
497.44	22632.98
497.62	22665.75
497.79	23557.49
497.97	23239.18
498.14	23384.29
498.32	23506.00
498.50	23477.91
498.67	23826.65
498.85	23627.71
499.03	23548.13
499.20	23892.19
499.38	23913.25
499.56	24088.79
499.73	24610.73
499.91	24535.84
500.08	24563.92
500.26	24432.85
500.44	24643.50
500.61	24629.46
500.79	24254.97
500.97	24931.39
501.14	24929.05
501.32	25317.57
501.49	25242.68
501.67	25132.67
501.84	25436.94
502.02	25525.88
502.20	25692.06
502.37	25537.59
502.55	25635.89
502.72	25603.12
502.90	25872.28
503.07	25703.76
503.25	25830.15
503.43	25912.07
503.60	26143.78
503.78	26302.94
503.95	26235.06
504.13	26204.64
504.30	26544.02
504.48	26162.51
504.65	26558.06
504.83	26658.70
505.01	27126.81
505.18	26782.75
505.36	27040.21
505.53	26916.16
505.71	27421.72
505.88	27204.05
506.06	27084.68
506.23	27491.93
506.41	27613.64
506.58	27817.27
506.76	27503.64
506.93	28037.28
507.11	27784.50
507.28	28081.75
507.46	27929.61
507.63	27946.00
507.81	28201.11
507.98	28290.06
508.16	28123.88
508.33	28449.21
508.50	28547.51
508.68	28435.17
508.85	28725.39
509.03	28582.62
509.20	28971.15
509.38	29343.30
509.55	29039.03
509.73	29116.26
509.90	29170.10
510.08	29373.72
510.25	29392.45
510.42	29565.65
510.60	29324.57
510.77	29968.22
510.95	30015.03
511.12	29972.90
511.30	29640.54
511.47	30000.99
511.64	30150.78
511.82	30169.51
511.99	29638.20
512.17	30361.43
512.34	30153.12
512.51	30405.90
512.69	30761.66
512.86	30506.54
513.04	30541.65
513.21	30780.39
513.38	30890.39
513.56	30852.94
513.73	30836.56
513.90	30850.60
514.08	31014.44
514.25	31468.50
514.43	31426.37
514.60	31459.14
514.77	31529.36
514.95	31536.38
515.12	31784.48
515.29	31557.44
515.47	31840.65
515.64	31716.60
515.81	31660.43
515.99	31835.97
516.16	32383.65
516.33	32191.73
516.51	32158.96
516.68	32165.98
516.85	32329.82
517.03	32479.61
517.20	32566.21
517.37	32561.53
517.54	32751.12
517.72	32811.97
517.89	33024.96
518.06	32755.80
518.24	32790.91
518.41	32388.33
518.58	32734.73
518.75	32950.06
518.93	33036.66
519.10	33343.27
519.27	33392.42
519.45	33308.16
519.62	33614.77
519.79	33392.42
519.96	33710.74
520.14	33947.13
520.31	33577.33
520.48	33572.64
520.65	33530.51
520.83	34220.97
521.00	34279.49
521.17	34080.54
521.34	34089.90
521.52	34490.13
521.69	34298.21
521.86	34340.34
522.03	34307.57
522.20	34756.96
522.38	34859.94
522.55	34843.56
522.72	34948.88
522.89	34763.98
523.07	35281.24
523.24	34742.91
523.41	34967.60
523.58	34979.31
523.75	35679.13
523.92	35105.70
524.10	35370.18
524.27	35739.98
524.44	35309.32
524.61	35908.50
524.78	35531.67
524.96	35807.86
525.13	35955.31
525.30	35950.63
525.47	35981.06
525.64	35981.06
525.81	36158.94
525.98	36474.91
526.16	36081.70
526.33	36016.16
526.50	36355.54
526.67	36407.03
526.84	36334.48
527.01	36247.88
527.18	36596.62
527.36	36575.55
527.53	36774.50
527.70	37261.33
527.87	36737.05
528.04	36542.78
528.21	36877.48
528.38	36928.97
528.55	37069.40
528.72	37057.70
528.89	37074.09
529.07	37099.83
529.24	36877.48
529.41	37539.85
529.58	37504.74
529.75	37331.54
529.92	36678.54
530.09	37427.51
530.26	37769.22
530.43	37577.30
530.60	37406.44
530.77	37127.92
530.94	37528.15
531.11	37612.41
531.28	37865.19
531.46	37631.13
531.63	38237.33
531.80	37848.80
531.97	38078.18
532.14	38176.48
532.31	38242.01
532.48	38005.62
532.65	38127.33
532.82	38171.80
532.99	38328.61
533.16	38361.38
533.33	38728.84
533.50	38403.51
533.67	38546.28
533.84	38272.44
534.01	38471.39
534.18	38361.38
534.35	39363.13
534.52	39274.19
534.69	39091.63
534.86	39084.61
535.03	38850.55
535.20	39400.58
535.37	39494.20
535.54	39189.93
535.71	39159.50
535.88	39213.34
536.05	38904.38
536.22	39613.57
536.38	39789.11
536.55	39690.80
536.72	39625.27
536.89	39463.77
537.06	39725.91
537.23	39569.10
537.40	39524.63
537.57	39812.51
537.74	39732.93
537.91	39927.20
538.08	39290.57
538.25	39629.95
538.42	39943.58
538.59	40320.41
538.75	39936.56
538.92	40041.88
539.09	40528.72
539.26	40458.50
539.43	40121.46
539.60	40264.24
539.77	40137.85
539.94	40430.41
540.11	40603.61
540.28	40524.04
540.44	40505.31
540.61	40458.50
540.78	40084.01
540.95	40292.32
541.12	40449.14
541.29	41057.68
541.46	40898.52
541.62	40992.14
541.79	41102.15
541.96	40189.34
542.13	40931.29
542.30	40950.01
542.47	41240.24
542.63	40968.74
542.80	41619.41
542.97	41600.68
543.14	41748.14
543.31	41570.25
543.48	41284.71
543.64	41635.79
543.81	41675.58
543.98	41460.25
544.15	41399.40
544.32	41954.10
544.48	42328.59
544.65	41680.26
544.82	42171.77
544.99	41879.21
545.16	41509.40
545.32	42021.98
545.49	42059.43
545.66	42174.11
545.83	42424.55
546.00	42059.43
546.16	42031.34
546.33	42618.81
546.50	41876.86
546.67	42557.96
546.83	41968.15
547.00	42363.70
547.17	42520.51
547.34	42522.85
547.50	42721.80
547.67	42810.74
547.84	42637.54
548.00	43304.59
548.17	43285.87
548.34	42960.53
548.51	43426.30
548.67	42873.93
548.84	43131.39
549.01	42724.14
549.18	43384.17
549.34	43002.66
549.51	43370.13
549.68	43168.84
549.84	43178.20
550.01	43023.73
550.18	42974.58
550.34	43297.57
550.51	43342.04
550.68	43138.41
550.84	42890.32
551.01	43510.56
551.18	43765.68
551.34	43871.00
551.51	43824.19
551.68	43297.57
551.84	43552.69
552.01	43206.29
552.18	43297.57
552.34	43611.20
552.51	44088.67
552.68	43349.06
552.84	43700.14
553.01	43950.58
553.18	43927.17
553.34	44102.71
553.51	43768.02
553.67	43920.15
553.84	43959.94
554.01	43758.66
554.17	43976.33
554.34	44161.23
554.51	43955.26
554.67	44016.11
554.84	44236.12
555.00	44130.80
555.17	44215.06
555.33	44500.61
555.50	44376.56
555.67	44610.61
555.83	44219.74
556.00	44612.95
556.16	44729.98
556.33	44729.98
556.50	44559.12
556.66	44374.22
556.83	44219.74
556.99	44933.60
557.16	44926.58
557.32	44671.46
557.49	45244.90
557.65	44568.48
557.82	44706.57
557.98	45123.19
558.15	44949.99
558.32	44992.12
558.48	45015.52
558.65	44856.37
558.81	44828.28
558.98	44802.53
559.14	44907.86
559.31	45282.34
559.47	45134.89
559.64	44999.14
559.80	44896.16
559.97	45057.65
560.13	44987.44
560.30	45174.68
560.46	45537.46
560.63	45488.31
560.79	45895.56
560.96	45542.14
561.12	45579.59
561.29	45626.40
561.45	46043.02
561.61	45535.12
561.78	45312.77
561.94	45549.17
562.11	45130.21
562.27	45247.24
562.44	45265.96
562.60	46405.80
562.77	45109.14
562.93	45617.04
563.10	45872.16
563.26	45226.17
563.42	45918.97
563.59	45212.13
563.75	45659.17
563.92	45507.04
564.08	45462.57
564.24	45757.47
564.41	45500.01
564.57	45904.93
564.74	45769.18
564.90	45830.03
565.07	45593.64
565.23	45680.24
565.39	45773.86
565.56	45883.86
565.72	45820.67
565.88	45886.20
566.05	45827.69
566.21	45907.27
566.38	45605.34
566.54	46007.91
566.70	46127.28
566.87	45722.37
567.03	46012.59
567.19	46256.01
567.36	46244.30
567.52	46059.40
567.68	46183.45
567.85	46478.36
568.01	46213.88
568.17	45862.80
568.34	46511.13
568.50	46094.51
568.66	46148.34
568.83	46134.30
568.99	46398.78
569.15	46190.47
569.32	46202.18
569.48	46127.28
569.64	46791.99
569.81	46478.36
569.97	46005.57
570.13	46457.29
570.30	46209.20
570.46	46160.05
570.62	46085.15
570.78	46330.90
570.95	45958.76
571.11	46710.07
571.27	46459.63
571.43	46052.38
571.60	46251.33
571.76	46279.41
571.92	46380.06
572.09	46373.03
572.25	46590.70
572.41	46153.02
572.57	46576.66
572.74	46766.24
572.90	46665.60
573.06	46916.04
573.22	46515.81
573.38	46780.29
573.55	46719.43
573.71	46892.63
573.87	46899.65
574.03	46405.80
574.20	46696.03
574.36	46831.78
574.52	46623.47
574.68	46632.83
574.84	46698.37
575.01	46855.18
575.17	47419.25
575.33	46883.27
575.49	46684.33
575.65	46515.81
575.82	46848.16
575.98	46745.18
576.14	46878.59
576.30	47016.68
576.46	47054.13
576.62	46691.35
576.79	46831.78
576.95	46253.67
577.11	46780.29
577.27	46679.64
577.43	46642.20
577.59	46501.76
577.75	46660.92
577.92	46579.00
578.08	46773.27
578.24	47028.38
578.40	46986.25
578.56	47037.75
578.72	46681.98
578.88	47217.97
579.04	46511.13
579.21	46466.66
579.37	47175.84
579.53	46714.75
579.69	46536.87
579.85	46380.06
580.01	46979.23
580.17	46976.89
580.33	47047.11
580.49	46749.86
580.65	46738.16
580.82	46887.95
580.98	46920.72
581.14	46569.64
581.30	46752.20
581.46	46483.04
581.62	46962.85
581.78	46480.70
581.94	47133.71
582.10	46740.50
582.26	47285.84
582.42	46918.38
582.58	46745.18
582.74	47236.69
582.90	47311.59
583.06	46927.74
583.22	46700.71
583.38	47131.37
583.54	47292.86
583.70	46892.63
583.86	47229.67
584.02	46904.34
584.18	47489.47
584.34	47316.27
584.50	47217.97
584.66	46974.55
584.82	46981.57
584.98	47278.82
585.14	47068.17
585.30	47152.43
585.46	47334.99
585.62	46918.38
585.78	47571.39
585.94	46745.18
586.10	47161.79
586.26	46829.44
586.42	47203.92
586.58	47028.38
586.74	47416.91
586.90	46885.61
587.06	46890.29
587.22	46759.22
587.38	46777.95
587.54	47241.37
587.70	47515.22
587.86	47232.01
588.02	47079.88
588.18	46864.55
588.34	47241.37
588.49	47267.12
588.65	46600.07
588.81	46909.02
588.97	46890.29
589.13	46913.70
589.29	47339.68
589.45	47260.10
589.61	47136.05
589.77	47503.51
589.93	46869.23
590.08	47770.33
590.24	47508.19
590.40	48240.78
590.56	47810.12
590.72	47838.21
590.88	47428.62
591.04	47646.29
591.20	47805.44
591.35	47334.99
591.51	47613.52
591.67	47496.49
591.83	48023.11
591.99	47442.66
592.15	47461.38
592.31	47037.75
592.46	47234.35
592.62	47753.95
592.78	47622.88
592.94	47980.98
593.10	47498.83
593.26	48072.26
593.41	47807.78
593.57	48088.65
593.73	47838.21
593.89	48002.05
594.05	47929.49
594.20	47805.44
594.36	47929.49
594.52	48222.06
594.68	48208.01
594.84	47555.00
594.99	47971.62
595.15	47711.82
595.31	47859.27
595.47	47892.04
595.62	47908.43
595.78	47870.98
595.94	48088.65
596.10	47971.62
596.25	47763.31
596.41	47908.43
596.57	47683.73
596.73	48140.14
596.88	48107.37
597.04	47484.79
597.20	47948.21
597.36	47796.08
597.51	47833.53
597.67	47973.96
597.83	47796.08
597.99	47686.07
598.14	48144.82
598.30	47959.92
598.46	48168.22
598.61	48102.69
598.77	47941.19
598.93	48133.12
599.09	47988.00
599.24	48130.78
599.40	47878.00
599.56	48245.46
599.71	48090.99
599.87	48446.75
600.03	48406.96
600.18	48360.15
600.34	48144.82
600.50	47613.52
600.65	47728.20
600.81	47966.94
600.97	48350.79
601.12	48254.82
601.28	47964.60
601.44	48053.54
601.59	48037.16
601.75	47739.91
601.91	48477.18
602.06	47929.49
602.22	48275.89
602.37	47721.18
602.53	48137.80
602.69	48341.42
602.84	47643.94
603.00	47913.11
603.16	48238.44
603.31	48215.04
603.47	48041.84
603.62	48060.56
603.78	48289.93
603.94	48182.27
604.09	48006.73
604.25	47885.02
604.40	47835.87
604.56	47973.96
604.71	48610.59
604.87	47964.60
605.03	47824.17
605.18	47929.49
605.34	48266.53
605.49	47746.93
605.65	47903.74
605.80	48060.56
605.96	47835.87
606.12	48032.47
606.27	48231.42
606.43	47882.68
606.58	48119.07
606.74	47999.71
606.89	47957.58
607.05	48196.31
607.20	48053.54
607.36	47870.98
607.51	47615.86
607.67	48119.07
607.82	47688.42
607.98	47632.24
608.13	48158.86
608.29	47873.32
608.44	48100.35
608.60	47519.90
608.75	47679.05
608.91	47714.16
609.06	47175.84
609.22	47618.20
609.37	47995.03
609.53	48030.13
609.68	47435.64
609.84	47573.73
609.99	47847.57
610.15	48058.22
610.30	47950.56
610.46	47489.47
610.61	47632.24
610.76	47786.72
610.92	47676.71
611.07	47674.37
611.23	47412.23
611.38	47903.74
611.54	47903.74
611.69	47990.34
611.84	47744.59
612.00	47540.96
612.15	47522.24
612.31	47767.99
612.46	47564.37
612.62	47482.45
612.77	47253.08
612.92	47760.97
613.08	47327.97
613.23	47166.48
613.39	47051.79
613.54	47330.31
613.69	47643.94
613.85	47236.69
614.00	47358.40
614.15	47632.24
614.31	47234.35
614.46	47393.51
614.62	47152.43
614.77	47260.10
614.92	47309.25
615.08	47414.57
615.23	47592.45
615.38	47550.32
615.54	47189.88
615.69	47351.38
615.84	47107.96
616.00	47552.66
616.15	47402.87
616.30	47000.30
616.46	47068.17
616.61	47100.94
616.76	46986.25
616.92	46906.68
617.07	47370.10
617.22	46894.97
617.37	46986.25
617.53	47243.71
617.68	47445.00
617.83	47091.58
617.99	47299.89
618.14	47278.82
618.29	47267.12
618.45	46649.22
618.60	46361.33
618.75	46649.22
618.90	46607.09
619.06	46733.48
619.21	46944.12
619.36	46780.29
619.51	46909.02
619.67	46211.54
619.82	46443.25
619.97	46937.10
620.12	46787.31
620.28	46656.24
620.43	46906.68
620.58	46557.94
620.73	46962.85
620.89	46955.83
621.04	47117.32
621.19	46459.63
621.34	46607.09
621.49	46485.38
621.65	46513.47
621.80	47014.34
621.95	46333.24
622.10	47019.02
622.25	46391.76
622.41	46742.84
622.56	46401.12
622.71	46745.18
622.86	46382.40
623.01	46293.46
623.16	46234.94
623.32	46567.30
623.47	46368.35
623.62	46457.29
623.77	46532.19
623.92	46307.50
624.07	46436.23
624.23	46241.96
624.38	46333.24
624.53	45965.78
624.68	45940.04
624.83	46157.70
624.98	45904.93
625.13	45432.14
625.29	45848.75
625.44	45808.96
625.59	45837.05
625.74	46089.83
625.89	45715.34
626.04	45682.58
626.19	45635.77
626.34	45492.99
626.49	45649.81
626.65	45769.18
626.80	45750.45
626.95	45041.27
627.10	45123.19
627.25	45757.47
627.40	45401.71
627.55	45986.85
627.70	45628.74
627.85	45961.10
628.00	45263.62
628.15	45455.54
628.30	45703.64
628.45	45102.12
628.60	44737.00
628.76	45148.93
628.91	45563.21
629.06	45256.60
629.21	45221.49
629.36	44968.71
629.51	45343.20
629.66	45724.71
629.81	45193.40
629.96	45411.07
630.11	45263.62
630.26	44947.65
630.41	45191.06
630.56	45099.78
630.71	45343.20
630.86	45052.97
631.01	45282.34
631.16	45233.19
631.31	44952.33
631.46	44774.45
631.61	45188.72
631.76	45186.38
631.91	44891.48
632.06	44978.07
632.21	45078.72
632.36	45291.71
632.51	44842.32
632.66	45254.26
632.81	44886.79
632.96	44964.03
633.10	44524.01
633.25	44722.96
633.40	44701.89
633.55	44917.22
633.70	45120.85
633.85	44329.75
634.00	44210.38
634.15	44612.95
634.30	44596.57
634.45	44753.38
634.60	44369.54
634.75	44458.48
634.90	44772.11
635.05	44797.85
635.19	44224.42
635.34	44273.57
635.49	44151.87
635.64	44428.05
635.79	44299.32
635.94	44432.73
636.09	44807.22
636.24	44577.84
636.39	44250.17
636.53	44409.32
636.68	43779.72
636.83	43807.81
636.98	43903.77
637.13	44147.18
637.28	43611.20
637.43	43889.73
637.57	44149.53
637.72	43814.83
637.87	43866.32
638.02	44025.48
638.17	43746.95
638.32	43807.81
638.46	43545.67
638.61	44109.74
638.76	43571.41
638.91	43672.06
639.06	43695.46
639.20	43203.95
639.35	43407.58
639.50	43416.94
639.65	43854.62
639.80	43906.11
639.94	43903.77
640.09	43817.17
640.24	43735.25
640.39	43482.47
640.54	42967.55
640.68	43538.65
640.83	43374.81
640.98	43402.89
641.13	43323.32
641.27	43878.02
641.42	43840.57
641.57	43489.49
641.72	43447.36
641.86	43026.07
642.01	43159.48
642.16	43033.09
642.31	42834.14
642.45	43456.73
642.60	43058.84
642.75	43335.02
642.90	43047.13
643.04	42885.64
643.19	42724.14
643.34	42822.44
643.48	42735.84
643.63	42904.36
643.78	42710.10
643.93	43173.52
644.07	42909.04
644.22	43213.31
644.37	43056.50
644.51	43000.32
644.66	43311.61
644.81	42501.79
644.95	42958.19
645.10	42726.48
645.25	42377.74
645.39	42843.51
645.54	42895.00
645.69	42782.65
645.83	42211.56
645.98	42256.03
646.13	42904.36
646.27	42838.83
646.42	42029.00
646.57	42483.06
646.71	42733.50
646.86	42389.44
647.00	42532.22
647.15	42834.14
647.30	42300.50
647.44	42476.04
647.59	42305.18
647.74	42337.95
647.88	42050.06
648.03	42532.22
648.17	42684.35
648.32	42583.71
648.47	43000.32
648.61	41649.83
648.76	42487.74
648.90	41855.80
649.05	42157.73
649.20	42377.74
649.34	42204.54
649.49	42096.88
649.63	42366.04
649.78	42356.67
649.92	41914.31
650.07	42553.28
650.21	42251.35
650.36	42440.93
650.51	41984.53
650.65	42560.30
650.80	42089.85
650.94	42033.68
651.09	42337.95
651.23	41614.72
651.38	41200.45
651.52	41202.79
651.67	41928.36
651.81	41961.12
651.96	41336.20
652.10	41411.10
652.25	41195.77
652.39	41333.86
652.54	41696.64
652.68	41462.59
652.83	41581.96
652.97	41696.64
653.12	41345.56
653.26	41848.78
653.41	41226.20
653.55	41504.72
653.70	41446.21
653.84	41542.17
653.99	41689.62
654.13	41572.60
654.27	40823.62
654.42	41378.33
654.56	41277.69
654.71	41603.02
654.85	41202.79
655.00	41074.06
655.14	40900.86
655.29	41478.97
655.43	41523.44
655.57	40884.48
655.72	40374.24
655.86	40811.92
656.01	40657.45
656.15	40861.07
656.30	40622.34
656.44	40701.92
656.58	40978.10
656.73	40823.62
656.87	40432.75
657.01	40463.18
657.16	40631.70
657.30	40769.79
657.45	40870.43
657.59	40297.00
657.73	40278.28
657.88	40842.35
658.02	40556.80
658.16	40713.62
658.31	40671.49
658.45	40261.90
658.60	40147.21
658.74	40474.88
658.88	40566.16
659.03	40100.40
659.17	40086.36
659.31	40245.51
659.46	39997.41
659.60	40517.01
659.74	40142.53
659.89	39737.62
660.03	39536.33
660.17	40294.66
660.32	39803.15
660.46	39756.34
660.60	39313.98
660.74	39665.06
660.89	39690.80
661.03	39241.42
661.17	39297.59
661.32	39484.84
661.46	39349.09
661.60	39431.01
661.74	39278.87
661.89	39569.10
662.03	39122.05
662.17	38920.77
662.31	39313.98
662.46	39318.66
662.60	39133.76
662.74	38780.34
662.88	39138.44
663.03	38300.53
663.17	38618.84
663.31	38682.03
663.45	38925.45
663.60	39213.34
663.74	38792.04
663.88	38995.67
664.02	38728.84
664.17	38766.29
664.31	38438.62
664.45	38188.18
664.59	38227.97
664.73	38244.35
664.88	38330.95
665.02	37912.00
665.16	38445.64
665.30	38031.36
665.44	38277.12
665.59	37794.97
665.73	38024.34
665.87	37794.97
666.01	37816.04
666.15	37830.08
666.29	37486.02
666.44	38139.03
666.58	37729.44
666.72	37174.73
666.86	37816.04
667.00	37507.08
667.14	37324.52
667.28	37429.85
667.43	37373.67
667.57	37242.60
667.71	37542.19
667.85	37202.82
667.99	36825.99
668.13	36669.17
668.27	36495.97
668.41	36917.27
668.56	36442.14
668.70	36348.52
668.84	36355.54
668.98	36112.13
669.12	36947.70
669.26	36744.07
669.40	36121.49
669.54	36732.37
669.68	36381.29
669.82	36343.84
669.96	35620.61
670.10	35583.16
670.25	36161.28
670.39	36184.68
670.53	36135.53
670.67	35821.90
670.81	36250.22
670.95	35627.63
671.09	35903.82
671.23	35709.55
671.37	35908.50
671.51	35632.32
671.65	35344.43
671.79	35323.36
671.93	35421.67
672.07	35587.85
672.21	35374.86
672.35	35421.67
672.49	35192.30
672.63	35077.61
672.77	34506.52
672.91	34885.68
673.05	34836.53
673.19	34436.30
673.33	34576.73
673.47	34609.50
673.61	34213.95
673.75	34043.09
673.89	34204.59
674.03	33544.56
674.17	33888.62
674.31	33841.81
674.45	33619.46
674.59	34089.90
674.73	33640.52
674.87	33483.70
675.01	33631.16
675.15	33546.90
675.29	33303.48
675.43	33268.37
675.56	33975.22
675.70	33420.51
675.84	33165.39
675.98	32119.17
676.12	32921.98
676.26	33074.11
676.40	32907.93
676.54	32664.52
676.68	32378.97
676.82	32304.07
676.96	32556.85
677.10	32156.62
677.23	31960.02
677.37	32151.94
677.51	32507.70
677.65	31730.64
677.79	31901.50
677.93	31786.82
678.07	31421.69
678.21	31585.53
678.34	31269.56
678.48	31206.36
678.62	30998.06
678.76	31002.74
678.90	30829.54
679.04	31037.84
679.18	31393.61
679.31	30576.76
679.45	30675.06
679.59	30323.98
679.73	30705.49
679.87	30204.61
680.00	30338.02
680.14	30281.85
680.28	30211.64
680.42	29993.97
680.56	30218.66
680.70	29977.58
680.83	29872.26
680.97	29591.39
681.11	29378.40
681.25	29303.51
681.39	29230.95
681.52	29425.22
681.66	29046.05
681.80	28905.62
681.94	28563.90
682.07	28582.62
682.21	28746.46
682.35	28657.52
682.49	28624.75
682.62	28563.90
682.76	28404.74
682.90	28465.60
683.04	28428.15
683.17	28238.56
683.31	27999.83
683.45	27796.20
683.59	27501.29
683.72	27262.56
683.86	27709.60
684.00	27583.21
684.13	27611.30
684.27	27208.73
684.41	27524.70
684.55	27295.33
684.68	26817.86
684.82	26511.25
684.96	26831.90
685.09	26977.01
685.23	26890.41
685.37	26939.57
685.50	26827.22
685.64	26693.81
685.78	26363.79
685.91	26412.95
686.05	25750.57
686.19	25778.66
686.32	25860.58
686.46	25472.05
686.60	25593.76
686.73	25755.26
686.87	25378.43
687.01	25465.03
687.14	25549.29
687.28	25036.71
687.42	25465.03
687.55	24954.79
687.69	24678.61
687.82	24603.71
687.96	24725.42
688.10	24919.68
688.23	24596.69
688.37	24900.96
688.50	24453.92
688.64	24451.58
688.78	24629.46
688.91	24107.52
689.05	24121.56
689.18	24252.63
689.32	23573.88
689.46	23616.01
689.59	23709.63
689.73	23531.75
689.86	23726.01
690.00	23325.78
690.13	23772.82
690.27	23016.83
690.41	23246.20
690.54	23073.00
690.68	22843.63
690.81	22782.77
690.95	22679.79
691.08	22494.89
691.22	22504.25
691.35	22256.15
691.49	22581.49
691.62	22616.60
691.76	21884.01
691.89	21884.01
692.03	21930.82
692.16	21965.93
692.30	21523.57
692.43	21827.84
692.57	21652.30
692.70	21514.20
692.84	21633.57
692.97	21221.64
693.11	21135.04
693.24	20847.15
693.38	20896.30
693.51	20891.62
693.65	20931.41
693.78	20847.15
693.92	20695.02
694.05	20542.88
694.19	20865.88
694.32	20470.33
694.45	20264.36
694.59	20367.34
694.72	20596.71
694.86	20133.29
694.99	19730.72
695.13	19871.15
695.26	19714.33
695.39	19667.52
695.53	19660.50
695.66	19707.31
695.80	19590.28
695.93	19506.02
696.07	19410.06
696.20	18963.02
696.33	18728.97
696.47	18939.62
696.60	19030.90
696.73	18972.38
696.87	18764.07
697.00	18588.53
697.14	18824.93
697.27	18476.19
697.40	18375.55
697.54	18515.98
697.67	18235.11
697.80	18483.21
697.94	18094.68
698.07	18071.28
698.21	18427.04
698.34	18005.74
698.47	17692.11
698.61	17516.57
698.74	17413.59
698.87	17486.14
699.01	17336.35
699.14	17554.02
699.27	17532.95
699.40	17441.67
699.54	17301.24
699.67	17235.70
699.80	16938.46
699.94	16989.95
700.07	17057.82
700.20	16526.52
700.34	16343.96
700.47	16774.62
700.60	17067.19
700.73	16505.46
700.87	16421.20
701.00	15983.52
701.13	16187.14
701.26	16388.43
701.40	15868.83
701.53	15737.76
701.66	15885.22
701.79	15978.84
701.93	15634.78
702.06	15190.08
702.19	15744.78
702.32	15527.11
702.46	15452.22
702.59	15372.64
702.72	15559.88
702.85	15391.36
702.99	15414.77
703.12	15059.01
703.25	14993.47
703.38	14848.36
703.51	14544.09
703.65	14707.93
703.78	14579.20
703.91	14532.39
704.04	14555.79
704.17	14373.23
704.31	14331.10
704.44	14382.59
704.57	14422.38
704.70	14132.15
704.83	13888.74
704.96	13949.59
705.10	13926.19
705.23	13703.84
>>>>>End Processed Spectral Data<<<<<
