SpectraSuite Data File
++++++++++++++++++++++++++++++++++++
Date: Fri Oct 25 10:48:35 EDT 2013
User: price-jones
Dark Spectrum Present: No
Reference Spectrum Present: No
Number of Sampled Component Spectra: 1
Spectrometers: USB2+H05261
Integration Time (usec): 100000 (USB2+H05261)
Spectra Averaged: 1 (USB2+H05261)
Boxcar Smoothing: 0 (USB2+H05261)
Correct for Electrical Dark: No (USB2+H05261)
Strobe/Lamp Enabled: No (USB2+H05261)
Correct for Detector Non-linearity: No (USB2+H05261)
Correct for Stray Light: No (USB2+H05261)
Number of Pixels in Processed Spectrum: 2048
>>>>>Begin Processed Spectral Data<<<<<
365.73	154.48
365.92	154.48
366.12	154.48
366.32	32.77
366.52	23.41
366.72	95.96
366.91	56.17
367.11	60.85
367.31	23.41
367.51	23.41
367.70	0.00
367.90	42.13
368.10	37.45
368.30	11.70
368.49	21.06
368.69	49.15
368.89	110.01
369.09	63.19
369.28	65.54
369.48	46.81
369.68	112.35
369.87	147.45
370.07	53.83
370.27	100.64
370.47	140.43
370.66	489.17
370.86	498.53
371.06	458.74
371.25	564.07
371.45	489.17
371.65	489.17
371.84	500.87
372.04	526.62
372.24	470.45
372.44	578.11
372.63	505.56
372.83	486.83
373.03	496.19
373.22	547.69
373.42	561.73
373.62	580.45
373.81	543.00
374.01	561.73
374.21	596.84
374.40	550.03
374.60	641.31
374.79	507.90
374.99	587.47
375.19	564.07
375.38	585.13
375.58	643.65
375.78	592.16
375.97	617.90
376.17	655.35
376.37	650.67
376.56	706.84
376.76	676.41
376.95	653.01
377.15	704.50
377.35	692.80
377.54	655.35
377.74	695.14
377.93	695.14
378.13	718.54
378.33	657.69
378.52	718.54
378.72	695.14
378.91	758.33
379.11	716.20
379.31	763.01
379.50	690.46
379.70	774.72
379.89	713.86
380.09	716.20
380.28	737.27
380.48	727.91
380.68	746.63
380.87	713.86
381.07	765.36
381.26	814.51
381.46	716.20
381.65	709.18
381.85	699.82
382.04	741.95
382.24	741.95
382.43	798.12
382.63	711.52
382.83	763.01
383.02	763.01
383.22	727.91
383.41	823.87
383.61	765.36
383.80	725.57
384.00	826.21
384.19	823.87
384.39	847.27
384.58	812.17
384.78	858.98
384.97	774.72
385.17	847.27
385.36	856.64
385.56	858.98
385.75	833.23
385.95	973.66
386.14	915.15
386.34	854.30
386.53	922.17
386.72	933.87
386.92	912.81
387.11	896.43
387.31	922.17
387.50	866.00
387.70	915.15
387.89	861.32
388.09	884.72
388.28	971.32
388.48	887.06
388.67	968.98
388.86	954.94
389.06	1039.20
389.25	1064.94
389.45	1053.24
389.64	973.66
389.84	1086.01
390.03	1139.84
390.22	1088.35
390.42	1088.35
390.61	1090.69
390.81	1067.28
391.00	1107.07
391.19	1090.69
391.39	1041.54
391.58	1186.65
391.78	1146.86
391.97	1029.84
392.16	1057.92
392.36	1121.12
392.55	1128.14
392.75	983.02
392.94	1001.75
393.13	1107.07
393.33	1142.18
393.52	1050.90
393.71	1097.71
393.91	1128.14
394.10	1114.10
394.29	1205.38
394.49	1254.53
394.68	1301.34
394.88	1289.64
395.07	1249.85
395.26	1291.98
395.46	1242.82
395.65	1315.38
395.84	1259.21
396.04	1294.32
396.23	1306.02
396.42	1301.34
396.62	1277.93
396.81	1196.01
397.00	1231.12
397.19	1306.02
397.39	1315.38
397.58	1425.39
397.77	1486.24
397.97	1509.65
398.16	1476.88
398.35	1544.75
398.55	1479.22
398.74	1614.97
398.93	1619.65
399.12	1577.52
399.32	1631.35
399.51	1575.18
399.70	1631.35
399.90	1570.50
400.09	1579.86
400.28	1694.55
400.47	1610.29
400.67	1713.27
400.86	1720.29
401.05	1806.89
401.24	1830.30
401.44	1867.75
401.63	1764.76
401.82	1870.09
402.01	1776.47
402.21	1872.43
402.40	1949.67
402.59	1708.59
402.78	1872.43
402.97	1776.47
403.17	1914.56
403.36	1846.68
403.55	1909.88
403.74	2026.90
403.93	1987.11
404.13	1942.64
404.32	1834.98
404.51	1956.69
404.70	2064.35
404.89	2003.50
405.09	2069.03
405.28	2155.63
405.47	2094.78
405.66	2008.18
405.85	2106.48
406.05	1963.71
406.24	2064.35
406.43	2113.50
406.62	2127.55
406.81	2209.47
407.00	2024.56
407.20	2150.95
407.39	2087.76
407.58	2326.49
407.77	2214.15
407.96	2335.85
408.15	2284.36
408.34	2272.66
408.54	2335.85
408.73	2368.62
408.92	2363.94
409.11	2431.82
409.30	2431.82
409.49	2373.30
409.68	2338.20
409.87	2436.50
410.07	2520.76
410.26	2417.77
410.45	2569.91
410.64	2525.44
410.83	2523.10
411.02	2595.65
411.21	2633.10
411.40	2799.28
411.59	2803.96
411.78	2731.41
411.98	2764.17
412.17	2799.28
412.36	2803.96
412.55	2757.15
412.74	2860.13
412.93	2843.75
413.12	2904.60
413.31	3014.61
413.50	2928.01
413.69	2956.10
413.88	3052.06
414.07	3035.67
414.26	3096.53
414.45	3075.46
414.64	3136.32
414.83	3110.57
415.02	3136.32
415.22	3283.77
415.41	3248.66
415.60	3258.03
415.79	3321.22
415.98	3328.24
416.17	3344.63
416.36	3391.44
416.55	3351.65
416.74	3351.65
416.93	3372.71
417.12	3524.85
417.31	3421.86
417.50	3480.38
417.69	3543.57
417.88	3559.95
418.07	3485.06
418.26	3471.01
418.45	3632.51
418.64	3730.81
418.83	3775.28
419.02	3695.71
419.21	3817.41
419.39	3588.04
419.58	3695.71
419.77	3796.35
419.96	3866.56
420.15	3889.97
420.34	3892.31
420.53	3971.89
420.72	4098.28
420.91	3941.46
421.10	3913.38
421.29	4142.75
421.48	3882.95
421.67	4065.51
421.86	3880.61
422.05	3939.12
422.24	3918.06
422.43	3918.06
422.61	4046.79
422.80	4056.15
422.99	4086.58
423.18	3896.99
423.37	4231.69
423.56	4145.09
423.75	4077.21
423.94	4016.36
424.13	3749.54
424.32	3868.91
424.50	4147.43
424.69	4037.42
424.88	4117.00
425.07	4147.43
425.26	3967.21
425.45	3894.65
425.64	4074.87
425.83	4042.11
426.01	4205.94
426.20	4159.13
426.39	4400.21
426.58	4032.74
426.77	4093.60
426.96	4140.41
427.15	4114.66
427.33	4184.88
427.52	4201.26
427.71	4248.07
427.90	4241.05
428.09	4365.10
428.28	4358.08
428.46	4367.44
428.65	4280.84
428.84	4489.15
429.03	4407.23
429.22	4383.82
429.40	4290.20
429.59	4234.03
429.78	4093.60
429.97	4126.36
430.16	4159.13
430.34	4348.72
430.53	4367.44
430.72	4390.84
430.91	4470.42
431.10	4454.04
431.28	4772.35
431.47	4737.24
431.66	4842.57
431.85	4662.35
432.03	4713.84
432.22	4894.06
432.41	4629.58
432.60	4863.63
432.79	4741.93
432.97	4882.36
433.16	4873.00
433.35	4814.48
433.54	4718.52
433.72	4926.83
433.91	4915.12
434.10	4865.97
434.28	4908.10
434.47	5062.58
434.66	5090.67
434.85	5224.08
435.03	5327.06
435.22	5224.08
435.41	5345.78
435.59	5263.86
435.78	5256.84
435.97	5329.40
436.16	5380.89
436.34	5336.42
436.53	5408.98
436.72	5596.22
436.90	5266.21
437.09	5474.51
437.28	5401.96
437.46	5298.97
437.65	5383.23
437.84	5507.28
438.02	5336.42
438.21	5444.09
438.40	5322.38
438.58	5715.59
438.77	5530.69
438.96	5504.94
439.14	5729.63
439.33	5785.80
439.52	5909.85
439.70	6026.88
439.89	5827.93
440.08	5884.11
440.26	5886.45
440.45	5832.62
440.63	6066.67
440.82	6235.19
441.01	6054.97
441.19	6408.39
441.38	6307.74
441.57	6171.99
441.75	6349.87
441.94	6410.73
442.12	6413.07
442.31	6595.63
442.50	6476.26
442.68	6544.14
442.87	6544.14
443.05	6647.12
443.24	6677.55
443.43	6768.83
443.61	6710.32
443.80	6916.28
443.98	6604.99
444.17	6588.61
444.35	6609.67
444.54	6874.15
444.73	6993.52
444.91	6736.06
445.10	6752.45
445.28	6609.67
445.47	6539.46
445.65	6649.46
445.84	6843.73
446.02	6897.56
446.21	6951.39
446.39	6785.21
446.58	6925.65
446.77	6925.65
446.95	6710.32
447.14	6871.81
447.32	7133.95
447.51	7028.63
447.69	6862.45
447.88	6920.96
448.06	6892.88
448.25	6988.84
448.43	6951.39
448.62	6913.94
448.80	6960.75
448.99	6953.73
449.17	7250.98
449.36	7005.22
449.54	7208.85
449.73	7360.98
449.91	7349.28
450.10	7321.20
450.28	7679.30
450.46	7527.16
450.65	7555.25
450.83	7520.14
451.02	7410.14
451.20	7578.65
451.39	7585.68
451.57	7475.67
451.76	7407.80
451.94	7377.37
452.13	7625.47
452.31	7300.13
452.49	7360.98
452.68	7302.47
452.86	7461.63
453.05	7515.46
453.23	7550.57
453.42	7639.51
453.60	7573.97
453.78	7693.34
453.97	7630.15
454.15	7702.70
454.34	7630.15
454.52	7822.07
454.70	7721.43
454.89	7735.47
455.07	7803.35
455.26	7915.69
455.44	8187.19
455.62	7941.44
455.81	8124.00
455.99	8072.51
456.17	8056.12
456.36	8264.43
456.54	8196.56
456.73	8400.18
456.91	8219.96
457.09	8514.87
457.28	8465.72
457.46	8294.86
457.64	8428.27
457.83	8329.97
458.01	8224.64
458.19	8650.62
458.38	8388.48
458.56	8645.94
458.74	8683.39
458.93	8603.81
459.11	8706.79
459.29	8676.37
459.48	8580.40
459.66	8697.43
459.84	8805.10
460.03	9020.42
460.21	8863.61
460.39	8987.66
460.57	8777.01
460.76	8830.84
460.94	8973.61
461.12	8919.78
461.31	8807.44
461.49	9088.30
461.67	9156.18
461.85	8964.25
462.04	9092.98
462.22	9427.68
462.40	9523.64
462.59	9163.20
462.77	9202.99
462.95	9369.16
463.13	9074.26
463.32	9266.18
463.50	9378.53
463.68	9448.74
463.86	9284.91
464.05	9392.57
464.23	9191.28
464.41	9469.81
464.59	9399.59
464.78	9626.62
464.96	9329.38
465.14	9348.10
465.32	9586.83
465.50	9886.42
465.69	9411.29
465.87	9668.75
466.05	9561.09
466.23	9434.70
466.41	9439.38
466.60	9877.06
466.78	9579.81
466.96	9682.80
467.14	9640.67
467.32	10017.49
467.51	9701.52
467.69	9745.99
467.87	9750.67
468.05	9846.63
468.23	9870.04
468.41	9806.84
468.60	9720.24
468.78	9872.38
468.96	9863.02
469.14	10010.47
469.32	10083.03
469.50	9966.00
469.69	10253.89
469.87	10146.22
470.05	10324.10
470.23	10005.79
470.41	10195.37
470.59	10298.36
470.77	10270.27
470.95	10108.77
471.14	10375.59
471.32	10333.47
471.50	10808.59
471.68	10864.77
471.86	10773.49
472.04	10808.59
472.22	10995.84
472.40	10649.44
472.58	10808.59
472.77	10721.99
472.95	10824.98
473.13	11166.70
473.31	11145.63
473.49	11016.90
473.67	10937.32
473.85	11101.16
474.03	11307.13
474.21	11274.36
474.39	11466.28
474.57	11541.18
474.75	11578.63
474.93	11634.80
475.12	11700.34
475.30	11957.80
475.48	11573.95
475.66	11623.10
475.84	11726.08
476.02	12028.01
476.20	11964.82
476.38	12175.47
476.56	12423.56
476.74	12407.18
476.92	12334.62
477.10	12273.77
477.28	12505.48
477.46	12709.11
477.64	12769.96
477.82	12753.58
478.00	13034.44
478.18	12767.62
478.36	13114.02
478.54	13256.79
478.72	13069.55
478.90	13411.27
479.08	13535.32
479.26	13535.32
479.44	13518.93
479.62	13593.83
479.80	14075.98
479.98	13860.65
480.16	14083.00
480.34	13909.80
480.52	14216.41
480.70	14263.22
480.88	14120.45
481.06	14422.38
481.24	14621.33
481.41	14806.23
481.59	14750.06
481.77	14906.87
481.95	14972.41
482.13	15192.42
482.31	14927.94
482.49	15023.90
482.67	15611.37
482.85	15627.76
483.03	15847.77
483.21	15810.32
483.39	15885.22
483.57	15702.65
483.74	15885.22
483.92	16269.06
484.10	16081.82
484.28	16561.63
484.46	16702.06
484.64	17177.19
484.82	16791.00
485.00	16872.92
485.18	17041.44
485.35	16755.90
485.53	16666.95
485.71	16856.54
485.89	16938.46
486.07	17071.87
486.25	17247.41
486.43	17563.38
486.61	17631.26
486.78	17549.34
486.96	18008.08
487.14	17975.31
487.32	18597.90
487.50	18448.10
487.68	18726.63
487.85	19133.88
488.03	19234.52
488.21	19133.88
488.39	19194.73
488.57	19538.79
488.75	19557.52
488.92	19517.73
489.10	20156.69
489.28	19946.05
489.46	20514.80
489.64	20269.04
489.81	20727.78
489.99	20847.15
490.17	20814.38
490.35	21233.34
490.53	21186.53
490.70	21270.79
490.88	21249.72
491.06	21521.23
491.24	21350.37
491.41	21542.29
491.59	21448.67
491.77	21521.23
491.95	21570.38
492.13	22192.96
492.30	22368.50
492.48	22630.64
492.66	22668.09
492.84	22600.21
493.01	22792.14
493.19	22728.94
493.37	23103.43
493.54	23192.37
493.72	23484.94
493.90	23714.31
494.08	23573.88
494.25	24173.05
494.43	24018.58
494.61	24233.91
494.79	24397.74
494.96	24430.51
495.14	24247.95
495.32	24414.13
495.49	24512.43
495.67	24765.21
495.85	25055.43
496.02	25324.60
496.20	24910.32
496.38	25593.76
496.55	25146.72
496.73	26096.97
496.91	25586.74
497.09	25865.26
497.26	25949.52
497.44	25907.39
497.62	25862.92
497.79	26211.66
497.97	25900.37
498.14	26483.16
498.32	26630.62
498.50	26686.79
498.67	26768.71
498.85	26920.84
499.03	27349.16
499.20	27241.50
499.38	27395.97
499.56	26993.40
499.73	27536.40
499.91	27157.24
500.08	27473.21
500.26	27358.52
500.44	27573.85
500.61	27690.88
500.79	27676.83
500.97	27838.33
501.14	27728.33
501.32	27957.70
501.49	27697.90
501.67	28182.39
501.84	28486.66
502.02	28137.92
502.20	28643.48
502.37	28849.44
502.55	28638.80
502.72	28964.13
502.90	29008.60
503.07	29102.22
503.25	29048.39
503.43	28467.94
503.60	29326.91
503.78	29043.71
503.95	29488.41
504.13	29495.43
504.30	29879.28
504.48	29741.19
504.65	29738.85
504.83	30141.42
505.01	30609.53
505.18	30520.59
505.36	30391.86
505.53	30202.27
505.71	30525.27
505.88	30572.08
506.06	30293.55
506.23	31208.70
506.41	30689.10
506.58	30845.92
506.76	30913.80
506.93	31204.02
507.11	31178.28
507.28	31161.89
507.46	30843.58
507.63	30951.24
507.81	31225.09
507.98	31168.91
508.16	30972.31
508.33	31859.37
508.50	31864.05
508.68	31707.24
508.85	32385.99
509.03	31924.91
509.20	32400.04
509.38	32210.45
509.55	32404.72
509.73	32559.19
509.90	32629.41
510.08	32524.08
510.25	32526.42
510.42	32566.21
510.60	32751.12
510.77	33057.73
510.95	33467.32
511.12	33067.09
511.30	33251.99
511.47	32933.68
511.64	33577.33
511.82	33769.25
511.99	33296.46
512.17	33446.26
512.34	33511.79
512.51	33764.57
512.69	33565.62
512.86	33645.20
513.04	33825.42
513.21	33872.23
513.38	33745.84
513.56	34218.63
513.73	34384.81
513.90	34132.03
514.08	33912.02
514.25	34469.07
514.43	34162.46
514.60	34153.10
514.77	34665.67
514.95	34555.67
515.12	34644.61
515.29	34859.94
515.47	35009.73
515.64	35115.06
515.81	34672.70
515.99	34714.83
516.16	35012.07
516.33	34721.85
516.51	35110.38
516.68	34466.73
516.85	34218.63
517.03	34326.30
517.20	34766.32
517.37	35028.46
517.54	35234.42
517.72	35377.20
517.89	35187.61
518.06	35421.67
518.24	35342.09
518.41	35227.40
518.58	35629.98
518.75	35967.01
518.93	35601.89
519.10	36320.43
519.27	36194.04
519.45	36294.69
519.62	36287.67
519.79	36360.22
519.96	36786.20
520.14	36596.62
520.31	36390.65
520.48	36971.10
520.65	36797.90
520.83	37027.28
521.00	37249.63
521.17	36921.95
521.34	37446.23
521.52	37191.11
521.69	37399.42
521.86	37610.07
522.03	37666.24
522.20	37340.91
522.38	37652.20
522.55	37759.86
522.72	37680.28
522.89	37373.67
523.07	37865.19
523.24	37567.94
523.41	38174.14
523.58	38155.41
523.75	38778.00
523.92	38342.66
524.10	38052.43
524.27	38459.68
524.44	38443.30
524.61	38857.57
524.78	38632.88
524.96	38972.26
525.13	39164.18
525.30	39206.31
525.47	39285.89
525.64	39175.89
525.81	38660.97
525.98	38703.10
526.16	38653.95
526.33	38270.10
526.50	38611.82
526.67	38625.86
526.84	38923.11
527.01	38167.12
527.18	39016.73
527.36	39349.09
527.53	39412.28
527.70	39854.64
527.87	39639.31
528.04	39077.58
528.21	39910.82
528.38	39920.18
528.55	40275.94
528.72	40140.19
528.89	40554.46
529.07	40318.07
529.24	39840.60
529.41	39929.54
529.58	39508.24
529.75	40126.14
529.92	40561.48
530.09	40308.71
530.26	40399.99
530.43	40648.08
530.60	39835.92
530.77	40385.94
530.94	40676.17
531.11	40411.69
531.28	40849.37
531.46	40449.14
531.63	40692.55
531.80	40704.26
531.97	40744.05
532.14	41034.27
532.31	39957.63
532.48	40886.82
532.65	40748.73
532.82	41228.54
532.99	41200.45
533.16	40928.95
533.33	40879.80
533.50	41612.38
533.67	41254.28
533.84	41317.48
534.01	41127.89
534.18	41357.27
534.35	41698.98
534.52	41642.81
534.69	42043.04
534.86	41778.56
535.03	42014.96
535.20	41970.49
535.37	42014.96
535.54	42307.52
535.71	41649.83
535.88	41638.13
536.05	42298.16
536.22	42094.53
536.38	41713.03
536.55	42047.72
536.72	42061.77
536.89	41972.83
537.06	42050.06
537.23	42356.67
537.40	42497.11
537.57	42321.57
537.74	42618.81
537.91	42815.42
538.08	42436.25
538.25	42579.03
538.42	42117.94
538.59	42803.72
538.75	42284.12
538.92	42878.61
539.09	42550.94
539.26	42939.47
539.43	42333.27
539.60	42351.99
539.77	42445.62
539.94	42941.81
540.11	42167.09
540.28	42895.00
540.44	42763.93
540.61	42572.00
540.78	42766.27
540.95	42843.51
541.12	42621.16
541.29	42815.42
541.46	43028.41
541.62	42930.11
541.79	43751.63
541.96	43129.05
542.13	43208.63
542.30	42923.08
542.47	43012.02
542.63	42937.13
542.80	42993.30
542.97	44067.61
543.14	44076.97
543.31	44252.51
543.48	44055.90
543.64	44322.72
543.81	44472.52
543.98	44130.80
544.15	43871.00
544.32	44495.92
544.48	44666.78
544.65	44154.21
544.82	44390.60
544.99	43662.69
545.16	44278.25
545.32	44011.43
545.49	44828.28
545.66	44638.70
545.83	44811.90
546.00	44425.71
546.16	44547.42
546.33	44264.21
546.50	44435.07
546.67	44587.21
546.83	44341.45
547.00	44116.76
547.17	44313.36
547.34	44453.79
547.50	44737.00
547.67	44568.48
547.84	44671.46
548.00	44996.80
548.17	44704.23
548.34	44938.29
548.51	45226.17
548.67	45230.85
548.84	45209.79
549.01	45172.34
549.18	44905.52
549.34	44575.50
549.51	45427.46
549.68	45116.17
549.84	45584.27
550.01	45237.87
550.18	45186.38
550.34	45422.78
550.51	45474.27
550.68	44900.84
550.84	44954.67
551.01	45600.66
551.18	45130.21
551.34	45350.22
551.51	45698.96
551.68	45467.25
551.84	45425.12
552.01	44912.54
552.18	45429.80
552.34	45272.98
552.51	45544.48
552.68	45652.15
552.84	45865.14
553.01	45649.81
553.18	45830.03
553.34	45310.43
553.51	45827.69
553.67	45059.99
553.84	46021.95
554.01	45839.39
554.17	46120.26
554.34	46087.49
554.51	45682.58
554.67	46244.30
554.84	46096.85
555.00	46209.20
555.17	45933.01
555.33	45762.15
555.50	45984.51
555.67	46344.95
555.83	45797.26
556.00	46323.88
556.16	46174.09
556.33	46305.16
556.50	46241.96
556.66	46508.79
556.83	45954.08
556.99	46309.84
557.16	46326.22
557.32	46052.38
557.49	46167.07
557.65	45897.91
557.82	46447.93
557.98	46483.04
558.15	46499.42
558.32	46223.24
558.48	46131.96
558.65	46066.42
558.81	46204.52
558.98	46424.53
559.14	46658.58
559.31	46309.84
559.47	46256.01
559.64	46810.71
559.80	46438.57
559.97	46422.19
560.13	46801.35
560.30	46838.80
560.46	46777.95
560.63	46740.50
560.79	47012.00
560.96	46539.21
561.12	46660.92
561.29	46850.50
561.45	46564.96
561.61	46628.15
561.78	46649.22
561.94	46586.02
562.11	46897.31
562.27	46497.08
562.44	46686.67
562.60	47213.29
562.77	46883.27
562.93	47093.92
563.10	47096.26
563.26	46272.39
563.42	47325.63
563.59	46335.59
563.75	46810.71
563.92	47051.79
564.08	46700.71
564.24	47386.49
564.41	46916.04
564.57	47119.66
564.74	46967.53
564.90	47161.79
565.07	46607.09
565.23	47201.58
565.39	46801.35
565.56	47047.11
565.72	46354.31
565.88	47222.65
566.05	46880.93
566.21	47082.22
566.38	47119.66
566.54	47421.59
566.70	47302.23
566.87	47276.48
567.03	47091.58
567.19	47473.09
567.36	47234.35
567.52	47114.98
567.68	47206.26
567.85	46897.31
568.01	47342.02
568.17	47114.98
568.34	46777.95
568.50	46897.31
568.66	46997.96
568.83	47021.36
568.99	47140.73
569.15	46810.71
569.32	47154.77
569.48	46630.49
569.64	47330.31
569.81	47056.47
569.97	46967.53
570.13	46855.18
570.30	46817.74
570.46	46843.48
570.62	46639.86
570.78	46925.40
570.95	46625.81
571.11	47136.05
571.27	47150.09
571.43	47042.43
571.60	47040.09
571.76	46866.89
571.92	47140.73
572.09	47304.57
572.25	47304.57
572.41	47194.56
572.57	46932.42
572.74	47845.23
572.90	47484.79
573.06	47459.04
573.22	47154.77
573.38	47447.34
573.55	47405.21
573.71	47250.74
573.87	47145.41
574.03	47201.58
574.20	47119.66
574.36	47262.44
574.52	47040.09
574.68	47089.24
574.84	46904.34
575.01	47377.12
575.17	47295.21
575.33	46920.72
575.49	47026.04
575.65	47288.18
575.82	47665.01
575.98	47470.75
576.14	47533.94
576.30	47430.96
576.46	47145.41
576.62	47353.72
576.79	47547.98
576.95	47199.24
577.11	47367.76
577.27	47569.05
577.43	47180.52
577.59	47215.63
577.75	46862.21
577.92	47072.85
578.08	47019.02
578.24	46791.99
578.40	46925.40
578.56	47157.11
578.72	47278.82
578.88	47540.96
579.04	47154.77
579.21	47447.34
579.37	47164.14
579.53	47260.10
579.69	47026.04
579.85	47309.25
580.01	47615.86
580.17	47760.97
580.33	47519.90
580.49	47555.00
580.65	47468.40
580.82	47573.73
580.98	47435.64
581.14	47049.45
581.30	47711.82
581.46	47274.14
581.62	47573.73
581.78	47309.25
581.94	47810.12
582.10	47505.85
582.26	47157.11
582.42	47232.01
582.58	47522.24
582.74	47337.33
582.90	47496.49
583.06	47737.57
583.22	47831.19
583.38	47159.45
583.54	47646.29
583.70	47278.82
583.86	47388.83
584.02	46941.78
584.18	47552.66
584.34	47409.89
584.50	47683.73
584.66	47592.45
584.82	47159.45
584.98	47679.05
585.14	47657.99
585.30	47035.41
585.46	47309.25
585.62	47592.45
585.78	47386.49
585.94	46684.33
586.10	47337.33
586.26	47110.30
586.42	47526.92
586.58	47562.03
586.74	47412.23
586.90	47063.49
587.06	47206.26
587.22	47159.45
587.38	46909.02
587.54	47707.14
587.70	47447.34
587.86	47566.71
588.02	47058.81
588.18	47613.52
588.34	47210.95
588.49	46859.87
588.65	46417.50
588.81	46894.97
588.97	47318.61
589.13	46834.12
589.29	47082.22
589.45	47023.70
589.61	46979.23
589.77	47454.36
589.93	47510.53
590.08	47454.36
590.24	47185.20
590.40	47538.62
590.56	47545.64
590.72	47311.59
590.88	47489.47
591.04	47693.10
591.20	47971.62
591.35	47789.06
591.51	47950.56
591.67	47676.71
591.83	47742.25
591.99	47634.58
592.15	47543.30
592.31	47269.46
592.46	47688.42
592.62	47531.60
592.78	47655.65
592.94	47381.80
593.10	47585.43
593.26	47732.89
593.41	47232.01
593.57	47456.70
593.73	47571.39
593.89	47833.53
594.05	47538.62
594.20	47405.21
594.36	47501.17
594.52	47501.17
594.68	47384.15
594.84	47470.75
594.99	47920.13
595.15	47295.21
595.31	47997.37
595.47	47540.96
595.62	47657.99
595.78	47730.54
595.94	47999.71
596.10	47922.47
596.25	48322.70
596.41	48257.17
596.57	47365.42
596.73	47592.45
596.88	47440.32
597.04	47505.85
597.20	47606.50
597.36	47372.44
597.51	47365.42
597.67	47791.40
597.83	48062.90
597.99	47756.29
598.14	47695.44
598.30	47641.60
598.46	47641.60
598.61	47545.64
598.77	47337.33
598.93	47700.12
599.09	47419.25
599.24	47962.26
599.40	47917.79
599.56	47859.27
599.71	47480.11
599.87	47571.39
600.03	47765.65
600.18	47585.43
600.34	47044.77
600.50	47697.78
600.65	47339.68
600.81	48023.11
600.97	48023.11
601.12	47718.84
601.28	47800.76
601.44	47323.29
601.59	47709.48
601.75	47012.00
601.91	47613.52
602.06	47180.52
602.22	47491.81
602.37	47622.88
602.53	47842.89
602.69	47751.61
602.84	47697.78
603.00	47859.27
603.16	47489.47
603.31	47702.46
603.47	47430.96
603.62	47426.28
603.78	48055.88
603.94	47611.18
604.09	47758.63
604.25	47899.06
604.40	47349.04
604.56	47803.10
604.71	47751.61
604.87	47281.16
605.03	47709.48
605.18	47583.09
605.34	47243.71
605.49	47344.36
605.65	47599.47
605.80	47608.84
605.96	47650.97
606.12	47388.83
606.27	48016.09
606.43	47562.03
606.58	47903.74
606.74	47267.12
606.89	47100.94
607.05	46740.50
607.20	47381.80
607.36	47470.75
607.51	47672.03
607.67	47608.84
607.82	47285.84
607.98	47339.68
608.13	47421.59
608.29	47049.45
608.44	46958.17
608.60	46824.76
608.75	47014.34
608.91	47161.79
609.06	47271.80
609.22	47606.50
609.37	47072.85
609.53	47103.28
609.68	46665.60
609.84	46749.86
609.99	46831.78
610.15	47299.89
610.30	47075.19
610.46	46951.15
610.61	46993.28
610.76	47077.54
610.92	46979.23
611.07	46674.96
611.23	46857.52
611.38	46976.89
611.54	47215.63
611.69	46827.10
611.84	46983.91
612.00	46880.93
612.15	46368.35
612.31	47178.18
612.46	47021.36
612.62	47070.51
612.77	46939.44
612.92	46672.62
613.08	46513.47
613.23	46492.40
613.39	46351.97
613.54	46316.86
613.69	46419.84
613.85	46234.94
614.00	46728.80
614.15	46902.00
614.31	46583.68
614.46	46677.30
614.62	46527.51
614.77	46850.50
614.92	46347.29
615.08	46284.09
615.23	46342.61
615.38	46256.01
615.54	46153.02
615.69	46176.43
615.84	45839.39
616.00	46115.58
616.15	45776.20
616.30	46579.00
616.46	46033.66
616.61	45485.97
616.76	46021.95
616.92	45755.13
617.07	46038.34
617.22	45570.23
617.37	45851.09
617.53	46265.37
617.68	46223.24
617.83	46225.58
617.99	46461.97
618.14	46178.77
618.29	45818.33
618.45	45317.45
618.60	45902.59
618.75	45434.48
618.90	45808.96
619.06	45694.28
619.21	45734.07
619.36	45771.52
619.51	45202.77
619.67	45287.03
619.82	45565.55
619.97	45659.17
620.12	45471.93
620.28	45207.45
620.43	45427.46
620.58	45373.63
620.73	45535.12
620.89	45392.35
621.04	45401.71
621.19	45298.73
621.34	45251.92
621.49	44807.22
621.65	45382.99
621.80	45280.00
621.95	45357.24
622.10	45184.04
622.25	44975.73
622.41	45078.72
622.56	44914.88
622.71	44753.38
622.86	44886.79
623.01	45048.29
623.16	45174.68
623.32	44947.65
623.47	44917.22
623.62	45237.87
623.77	45113.83
623.92	45008.50
624.07	44755.72
624.23	44687.85
624.38	44575.50
624.53	44863.39
624.68	44875.09
624.83	44353.15
624.98	44949.99
625.13	44692.53
625.29	44964.03
625.44	44430.39
625.59	44989.78
625.74	44594.23
625.89	43964.62
626.04	44170.59
626.19	44531.03
626.34	44102.71
626.49	44425.71
626.65	44701.89
626.80	44421.03
626.95	44512.31
627.10	43983.35
627.25	44238.47
627.40	44121.44
627.55	43583.12
627.70	43810.15
627.85	43601.84
628.00	44130.80
628.15	43922.49
628.30	43569.07
628.45	43920.15
628.60	44257.19
628.76	43686.10
628.91	44334.43
629.06	43976.33
629.21	43669.72
629.36	43660.35
629.51	43526.94
629.66	43498.86
629.81	43344.38
629.96	43559.71
630.11	44219.74
630.26	43587.80
630.41	43768.02
630.56	43910.79
630.71	43681.42
630.86	43690.78
631.01	43524.60
631.16	43461.41
631.31	43288.21
631.46	42862.23
631.61	43669.72
631.76	43725.89
631.91	43316.29
632.06	43236.72
632.21	43475.45
632.36	43597.16
632.51	43274.16
632.66	43367.79
632.81	42656.26
632.96	43143.09
633.10	42885.64
633.25	43124.37
633.40	43133.73
633.55	43063.52
633.70	42759.25
633.85	42848.19
634.00	42784.99
634.15	42878.61
634.30	42513.49
634.45	42476.04
634.60	43229.69
634.75	42885.64
634.90	42440.93
635.05	42784.99
635.19	42415.19
635.34	42913.72
635.49	42976.92
635.64	42810.74
635.79	42607.11
635.94	42349.65
636.09	42880.95
636.24	42508.81
636.39	42518.17
636.53	42579.03
636.68	42110.92
636.83	42321.57
636.98	42632.86
637.13	42279.44
637.28	42536.90
637.43	42941.81
637.57	42543.92
637.72	42529.87
637.87	42373.06
638.02	42384.76
638.17	42813.08
638.32	42089.85
638.46	42113.26
638.61	42272.42
638.76	42029.00
638.91	42106.24
639.06	42251.35
639.20	42213.90
639.35	42368.38
639.50	41942.40
639.65	41989.21
639.80	41979.85
639.94	41984.53
640.09	42108.58
640.24	41687.28
640.39	41214.49
640.54	41827.71
640.68	41984.53
640.83	41729.41
640.98	41764.52
641.13	41762.18
641.27	42085.17
641.42	41422.80
641.57	42036.02
641.72	41471.95
641.86	41563.23
642.01	41324.50
642.16	41319.82
642.31	41010.87
642.45	41481.31
642.60	40737.02
642.75	41261.30
642.90	41186.41
643.04	41258.96
643.19	41476.63
643.34	41226.20
643.48	41060.02
643.63	41425.14
643.78	41050.66
643.93	41062.36
644.07	41207.47
644.22	41024.91
644.37	40624.68
644.51	41141.94
644.66	41027.25
644.81	40580.21
644.95	41450.89
645.10	41127.89
645.25	40987.46
645.39	40882.14
645.54	41038.95
645.69	41219.17
645.83	40903.20
645.98	40746.39
646.13	41057.68
646.27	40629.36
646.42	40610.64
646.57	40617.66
646.71	40900.86
646.86	40678.51
647.00	40858.73
647.15	40978.10
647.30	40650.42
647.44	40950.01
647.59	40339.13
647.74	40304.02
647.88	40421.05
648.03	40233.81
648.17	40060.61
648.32	39826.56
648.47	39924.86
648.61	40039.54
648.76	40399.99
648.90	40509.99
649.05	40107.42
649.20	40591.91
649.34	40421.05
649.49	40039.54
649.63	40002.10
649.78	40076.99
649.92	40191.68
650.07	40119.12
650.21	39742.30
650.36	40109.76
650.51	40112.10
650.65	40514.67
650.80	40374.24
650.94	39892.09
651.09	39971.67
651.23	39782.09
651.38	39908.47
651.52	39667.40
651.67	39817.19
651.81	39995.07
651.96	39709.53
652.10	39992.73
652.25	39412.28
652.39	39271.85
652.54	39798.47
652.68	39335.04
652.83	39875.71
652.97	39943.58
653.12	39796.13
653.26	39697.83
653.41	39508.24
653.55	39461.43
653.70	39042.48
653.84	39555.05
653.99	39093.97
654.13	39168.87
654.27	39229.72
654.42	39625.27
654.56	39171.21
654.71	39044.82
654.85	39496.54
655.00	39302.28
655.14	39164.18
655.29	38986.30
655.43	38836.51
655.57	38366.06
655.72	38440.96
655.86	39037.80
656.01	38089.88
656.15	38199.88
656.30	38380.10
656.44	38171.80
656.58	38408.19
656.73	38132.01
656.87	38277.12
657.01	38422.23
657.16	38403.51
657.30	38178.82
657.45	38211.59
657.59	38480.75
657.73	38361.38
657.88	38611.82
658.02	38693.74
658.16	37961.15
658.31	39051.84
658.45	38581.39
658.60	38534.58
658.74	38258.40
658.88	37998.60
659.03	37928.38
659.17	37858.17
659.31	38031.36
659.46	37928.38
659.60	38204.56
659.74	37993.92
659.89	38022.00
660.03	38031.36
660.17	37404.10
660.32	37675.60
660.46	37790.29
660.60	37755.18
660.74	37350.27
660.89	37640.50
661.03	37354.95
661.17	37476.66
661.32	37184.09
661.46	37024.93
661.60	37294.10
661.74	37251.97
661.89	37251.97
662.03	37558.58
662.17	37038.98
662.31	36935.99
662.46	36889.18
662.60	37310.48
662.74	36786.20
662.88	36629.38
663.03	36400.01
663.17	36669.17
663.31	36788.54
663.45	36959.40
663.60	36914.93
663.74	36261.92
663.88	36376.61
664.02	36144.89
664.17	36266.60
664.31	36327.45
664.45	36231.49
664.59	36378.95
664.73	35997.44
664.88	36622.36
665.02	36261.92
665.16	36613.00
665.30	36144.89
665.44	35927.22
665.59	35721.26
665.73	35833.60
665.87	35599.55
666.01	36086.38
666.15	35690.83
666.29	35548.06
666.44	35503.59
666.58	35557.42
666.72	35690.83
666.86	35651.04
667.00	35880.41
667.14	35182.93
667.28	35538.69
667.43	35594.87
667.57	35304.64
667.71	35065.91
667.85	34696.10
667.99	35058.88
668.13	34993.35
668.27	34623.54
668.41	35360.81
668.56	34806.11
668.70	35023.78
668.84	34609.50
668.98	34396.51
669.12	34623.54
669.26	34864.62
669.40	34302.89
669.54	34436.30
669.68	34677.38
669.82	34235.02
669.96	34380.13
670.10	34050.11
670.25	34373.11
670.39	34176.50
670.53	33692.01
670.67	33731.80
670.81	33528.17
670.95	34094.58
671.09	34148.42
671.23	33841.81
671.37	33823.08
671.51	33764.57
671.65	33628.82
671.79	33413.49
671.93	33362.00
672.07	33507.11
672.21	33504.77
672.35	33453.28
672.49	33282.42
672.63	32989.85
672.77	33029.64
672.91	33347.95
673.05	33188.80
673.19	33055.39
673.33	32905.59
673.47	32613.02
673.61	32807.29
673.75	32648.13
673.89	32278.33
674.03	32217.47
674.17	32348.54
674.31	32247.90
674.45	32250.24
674.59	32065.34
674.73	32371.95
674.87	32559.19
675.01	32123.85
675.15	31969.38
675.29	32030.23
675.43	31887.46
675.56	32081.72
675.70	32060.66
675.84	31534.04
675.98	30398.88
676.12	31377.22
676.26	31365.52
676.40	31108.06
676.54	30944.22
676.68	31094.02
676.82	30799.11
676.96	31185.30
677.10	30731.23
677.23	30911.46
677.37	30412.92
677.51	30705.49
677.65	30569.74
677.79	30433.99
677.93	30075.88
678.07	29961.20
678.21	29956.52
678.34	29783.32
678.48	29645.23
678.62	29329.25
678.76	29392.45
678.90	29731.83
679.04	29347.98
679.18	29390.11
679.31	29060.09
679.45	29663.95
679.59	29404.15
679.73	28992.22
679.87	29207.55
680.00	29240.31
680.14	28809.65
680.28	28751.14
680.42	28109.83
680.56	28524.11
680.70	28386.02
680.83	28484.32
680.97	28264.31
681.11	27908.55
681.25	28004.51
681.39	27709.60
681.52	27814.93
681.66	28133.24
681.80	27929.61
681.94	27578.53
682.07	27831.31
682.21	27676.83
682.35	27524.70
682.49	27365.54
682.62	27288.31
682.76	26988.72
682.90	27278.94
683.04	26876.37
683.17	27023.83
683.31	26993.40
683.45	27040.21
683.59	27019.14
683.72	26487.84
683.86	26394.22
684.00	26111.02
684.13	26546.36
684.27	26679.77
684.41	26293.58
684.55	25862.92
684.68	25769.30
684.82	25914.41
684.96	25586.74
685.09	26010.37
685.23	25614.82
685.37	25277.79
685.50	25633.55
685.64	25439.28
685.78	25050.75
685.91	25214.59
686.05	25287.15
686.19	24776.91
686.32	24926.71
686.46	24519.45
686.60	24458.60
686.73	24315.83
686.87	23819.63
687.01	23641.75
687.14	23686.22
687.28	23854.74
687.42	24006.87
687.55	23618.35
687.69	23452.17
687.82	23611.32
687.96	23854.74
688.10	23529.41
688.23	23819.63
688.37	23030.87
688.50	23098.75
688.64	22881.08
688.78	22677.45
688.91	22721.92
689.05	23166.62
689.18	23178.33
689.32	22487.87
689.46	22670.43
689.59	22810.86
689.73	22836.61
689.86	22759.37
690.00	22127.42
690.13	22366.16
690.27	22469.14
690.41	22153.17
690.54	21769.32
690.68	21935.50
690.81	21640.59
690.95	21734.21
691.08	21757.62
691.22	21678.04
691.35	21441.65
691.49	21846.56
691.62	21734.21
691.76	21511.86
691.89	21418.24
692.03	21411.22
692.16	20884.60
692.30	21226.32
692.43	20872.90
692.57	20959.50
692.70	20835.45
692.84	20662.25
692.97	20479.69
693.11	20540.54
693.24	20395.43
693.38	20432.88
693.51	19948.39
693.65	20467.98
693.78	20240.95
693.92	20486.71
694.05	20027.96
694.19	20163.72
694.32	19805.61
694.45	20067.75
694.59	19630.07
694.72	19482.62
694.86	19566.88
694.99	19183.03
695.13	19421.77
695.26	19229.84
695.39	18988.77
695.53	19293.04
695.66	18953.66
695.80	18775.78
695.93	18705.56
696.07	18567.47
696.20	18876.42
696.33	18799.18
696.47	18621.30
696.60	18504.28
696.73	18459.81
696.87	18492.57
697.00	18429.38
697.14	18319.37
697.27	18239.79
697.40	18132.13
697.54	18150.85
697.67	17944.89
697.80	18087.66
697.94	17671.04
698.07	17591.47
698.21	17741.26
698.34	17776.37
698.47	17610.19
698.61	17411.25
698.74	17336.35
698.87	17406.56
699.01	17118.68
699.14	17193.58
699.27	17069.53
699.40	17216.98
699.54	16856.54
699.67	16578.01
699.80	16435.24
699.94	16863.56
700.07	16505.46
700.20	16608.44
700.34	16306.51
700.47	16308.85
700.60	16449.28
700.73	16372.05
700.87	16327.58
701.00	16233.96
701.13	16067.78
701.26	16046.71
701.40	16233.96
701.53	15873.51
701.66	15756.49
701.79	15578.61
701.93	15761.17
702.06	15192.42
702.19	15396.04
702.32	15440.51
702.46	15470.94
702.59	15393.70
702.72	15178.37
702.85	15108.16
702.99	15250.93
703.12	15229.87
703.25	15066.03
703.38	14993.47
703.51	14988.79
703.65	14658.78
703.78	14799.21
703.91	14434.08
704.04	14633.03
704.17	14420.04
704.31	14513.66
704.44	14312.38
704.57	14164.92
704.70	14057.26
704.83	14221.10
704.96	14211.73
705.10	14136.84
705.23	14368.55
>>>>>End Processed Spectral Data<<<<<
