SpectraSuite Data File
++++++++++++++++++++++++++++++++++++
Date: Fri Oct 25 11:34:14 EDT 2013
User: price-jones
Dark Spectrum Present: No
Reference Spectrum Present: No
Number of Sampled Component Spectra: 1
Spectrometers: USB2+H05261
Integration Time (usec): 100000 (USB2+H05261)
Spectra Averaged: 1 (USB2+H05261)
Boxcar Smoothing: 0 (USB2+H05261)
Correct for Electrical Dark: No (USB2+H05261)
Strobe/Lamp Enabled: No (USB2+H05261)
Correct for Detector Non-linearity: No (USB2+H05261)
Correct for Stray Light: No (USB2+H05261)
Number of Pixels in Processed Spectrum: 2048
>>>>>Begin Processed Spectral Data<<<<<
365.73	313.63
365.92	313.63
366.12	313.63
366.32	229.37
366.52	198.95
366.72	238.73
366.91	161.50
367.11	168.52
367.31	229.37
367.51	105.32
367.70	156.82
367.90	145.11
368.10	93.62
368.30	182.56
368.49	81.92
368.69	229.37
368.89	306.61
369.09	187.24
369.28	252.78
369.48	210.65
369.68	241.08
369.87	217.67
370.07	280.86
370.27	283.20
370.47	318.31
370.66	444.70
370.86	498.53
371.06	463.43
371.25	578.11
371.45	533.64
371.65	613.22
371.84	568.75
372.04	489.17
372.24	538.32
372.44	554.71
372.63	552.37
372.83	573.43
373.03	587.47
373.22	585.13
373.42	653.01
373.62	629.60
373.81	629.60
374.01	613.22
374.21	603.86
374.40	564.07
374.60	648.33
374.79	683.44
374.99	631.94
375.19	688.12
375.38	671.73
375.58	650.67
375.78	746.63
375.97	690.46
376.17	706.84
376.37	702.16
376.56	638.97
376.76	730.25
376.95	657.69
377.15	681.10
377.35	664.71
377.54	678.76
377.74	688.12
377.93	650.67
378.13	629.60
378.33	697.48
378.52	784.08
378.72	695.14
378.91	699.82
379.11	641.31
379.31	692.80
379.50	690.46
379.70	793.44
379.89	760.67
380.09	683.44
380.28	699.82
380.48	695.14
380.68	748.97
380.87	671.73
381.07	720.88
381.26	784.08
381.46	713.86
381.65	772.38
381.85	802.80
382.04	770.04
382.24	737.27
382.43	737.27
382.63	812.17
382.83	770.04
383.02	819.19
383.22	833.23
383.41	866.00
383.61	826.21
383.80	786.42
384.00	821.53
384.19	830.89
384.39	781.74
384.58	770.04
384.78	882.38
384.97	873.02
385.17	826.21
385.36	854.30
385.56	875.36
385.75	812.17
385.95	800.46
386.14	830.89
386.34	901.11
386.53	821.53
386.72	835.57
386.92	880.04
387.11	828.55
387.31	905.79
387.50	814.51
387.70	849.61
387.89	800.46
388.09	877.70
388.28	901.11
388.48	868.34
388.67	915.15
388.86	976.00
389.06	985.37
389.25	842.59
389.45	894.08
389.64	931.53
389.84	1006.43
390.03	947.92
390.22	980.68
390.42	990.05
390.61	866.00
390.81	898.77
391.00	1025.15
391.19	1001.75
391.39	1006.43
391.58	990.05
391.78	1025.15
391.97	1071.97
392.16	912.81
392.36	1027.50
392.55	1032.18
392.75	1015.79
392.94	1011.11
393.13	1055.58
393.33	990.05
393.52	1039.20
393.71	1153.88
393.91	1142.18
394.10	1088.35
394.29	1083.67
394.49	1104.73
394.68	1130.48
394.88	1055.58
395.07	1111.75
395.26	1153.88
395.46	1097.71
395.65	1123.46
395.84	1210.06
396.04	1139.84
396.23	1132.82
396.42	1139.84
396.62	1207.72
396.81	1188.99
397.00	1184.31
397.19	1102.39
397.39	1158.57
397.58	1256.87
397.77	1184.31
397.97	1188.99
398.16	1132.82
398.35	1200.69
398.55	1287.29
398.74	1291.98
398.93	1210.06
399.12	1299.00
399.32	1219.42
399.51	1245.16
399.70	1287.29
399.90	1385.60
400.09	1238.14
400.28	1380.92
400.47	1331.76
400.67	1369.21
400.86	1331.76
401.05	1352.83
401.24	1465.18
401.44	1404.32
401.63	1418.36
401.82	1537.73
402.01	1394.96
402.21	1488.58
402.40	1479.22
402.59	1448.79
402.78	1432.41
402.97	1509.65
403.17	1502.62
403.36	1483.90
403.55	1598.59
403.74	1584.54
403.93	1619.65
404.13	1619.65
404.32	1528.37
404.51	1544.75
404.70	1558.80
404.89	1556.46
405.09	1584.54
405.28	1694.55
405.47	1722.63
405.66	1715.61
405.85	1746.04
406.05	1624.33
406.24	1724.97
406.43	1785.83
406.62	1734.34
406.81	1774.13
407.00	1809.23
407.20	1849.02
407.39	1732.00
407.58	1853.70
407.77	1832.64
407.96	1930.94
408.15	1741.36
408.34	1785.83
408.54	1907.54
408.73	1935.62
408.92	1937.96
409.11	1919.24
409.30	1921.58
409.49	1860.73
409.68	1966.05
409.87	1834.98
410.07	2050.31
410.26	2040.95
410.45	2101.80
410.64	2026.90
410.83	1984.77
411.02	2012.86
411.21	2078.40
411.40	2022.22
411.59	2127.55
411.78	2167.34
411.98	2244.57
412.17	2174.36
412.36	2214.15
412.55	2148.61
412.74	2333.51
412.93	2263.30
413.12	2251.60
413.31	2361.60
413.50	2279.68
413.69	2319.47
413.88	2396.71
414.07	2345.22
414.26	2427.14
414.45	2483.31
414.64	2509.05
414.83	2541.82
415.02	2530.12
415.22	2670.55
415.41	2560.55
415.60	2576.93
415.79	2499.69
415.98	2726.72
416.17	2567.57
416.36	2654.17
416.55	2663.53
416.74	2778.22
416.93	2782.90
417.12	2745.45
417.31	2801.62
417.50	2850.77
417.69	2909.29
417.88	2874.18
418.07	2832.05
418.26	2937.37
418.45	2904.60
418.64	2956.10
418.83	2874.18
419.02	2928.01
419.21	3028.65
419.39	3047.38
419.58	2920.99
419.77	2998.23
419.96	3066.10
420.15	3126.96
420.34	3052.06
420.53	3035.67
420.72	3098.87
420.91	3169.09
421.10	3300.16
421.29	3180.79
421.48	3180.79
421.67	3171.43
421.86	3201.85
422.05	3239.30
422.24	3330.58
422.43	3302.50
422.61	3316.54
422.80	3281.43
422.99	3363.35
423.18	3379.73
423.37	3361.01
423.56	3412.50
423.75	3290.79
423.94	3318.88
424.13	3178.45
424.32	3225.26
424.50	3356.33
424.69	3372.71
424.88	3316.54
425.07	3363.35
425.26	3410.16
425.45	3241.64
425.64	3225.26
425.83	3262.71
426.01	3267.39
426.20	3414.84
426.39	3281.43
426.58	3400.80
426.77	3459.31
426.96	3433.57
427.15	3459.31
427.33	3440.59
427.52	3417.18
427.71	3595.06
427.90	3517.83
428.09	3562.30
428.28	3602.08
428.46	3588.04
428.65	3604.42
428.84	3644.21
429.03	3660.60
429.22	3611.45
429.40	3616.13
429.59	3620.81
429.78	3454.63
429.97	3571.66
430.16	3611.45
430.34	3819.75
430.53	3691.02
430.72	3831.46
430.91	3777.62
431.10	3721.45
431.28	3887.63
431.47	3761.24
431.66	3913.38
431.85	3915.72
432.03	3824.44
432.22	4044.45
432.41	4002.32
432.60	3929.76
432.79	3927.42
432.97	4039.76
433.16	4102.96
433.35	4074.87
433.54	4159.13
433.72	4145.09
433.91	3953.16
434.10	3915.72
434.28	4014.02
434.47	4084.23
434.66	4102.96
434.85	4119.34
435.03	4112.32
435.22	4126.36
435.41	4416.59
435.59	4236.37
435.78	4198.92
435.97	4205.94
436.16	4322.97
436.34	4339.35
436.53	4348.72
436.72	4327.65
436.90	4341.69
437.09	4482.13
437.28	4124.02
437.46	4397.87
437.65	4507.87
437.84	4503.19
438.02	4514.89
438.21	4545.32
438.40	4475.10
438.58	4655.33
438.77	4578.09
438.96	4681.07
439.14	4709.16
439.33	4676.39
439.52	4697.46
439.70	4748.95
439.89	5001.72
440.08	4880.02
440.26	4784.06
440.45	4950.23
440.63	4959.60
440.82	4978.32
441.01	5013.43
441.19	4835.55
441.38	5076.62
441.57	5088.32
441.75	5235.78
441.94	5408.98
442.12	5221.74
442.31	5245.14
442.50	5418.34
442.68	5207.69
442.87	5245.14
443.05	5341.10
443.24	5460.47
443.43	5341.10
443.61	5570.48
443.80	5453.45
443.98	5308.34
444.17	5170.24
444.35	5303.65
444.54	5511.96
444.73	5502.60
444.91	5549.41
445.10	5565.79
445.28	5584.52
445.47	5397.28
445.65	5579.84
445.84	5577.50
446.02	5734.31
446.21	5537.71
446.39	5540.05
446.58	5596.22
446.77	5776.44
446.95	5668.78
447.14	5572.82
447.32	5617.29
447.51	5671.12
447.69	5476.85
447.88	5563.45
448.06	5696.86
448.25	5682.82
448.43	5696.86
448.62	5610.26
448.80	5650.05
448.99	5846.66
449.17	5820.91
449.36	5696.86
449.54	5870.06
449.73	5951.98
449.91	5865.38
450.10	5987.09
450.28	6052.63
450.46	6024.54
450.65	5926.24
450.83	6047.94
451.02	5767.08
451.20	5921.56
451.39	6038.58
451.57	6038.58
451.76	5982.41
451.94	6061.99
452.13	6029.22
452.31	6008.16
452.49	6038.58
452.68	6078.37
452.86	6066.67
453.05	6183.70
453.23	6094.76
453.42	6101.78
453.60	6071.35
453.78	6361.58
453.97	6237.53
454.15	6118.16
454.34	6244.55
454.52	6530.09
454.70	6377.96
454.89	6356.90
455.07	6448.18
455.26	6293.70
455.44	6506.69
455.62	6410.73
455.81	6541.80
455.99	6476.26
456.17	6670.53
456.36	6700.95
456.54	6729.04
456.73	6740.74
456.91	6883.52
457.09	6956.07
457.28	6815.64
457.46	6649.46
457.64	6785.21
457.83	6810.96
458.01	7138.63
458.19	7007.56
458.38	6892.88
458.56	7091.82
458.74	7045.01
458.93	6951.39
459.11	7052.03
459.29	7028.63
459.48	7190.13
459.66	7162.04
459.84	7178.42
460.03	7150.34
460.21	7269.70
460.39	7136.29
460.57	7297.79
460.76	7236.94
460.94	7250.98
461.12	7265.02
461.31	7208.85
461.49	7353.96
461.67	7304.81
461.85	7428.86
462.04	7281.41
462.22	7885.26
462.40	7447.58
462.59	7627.81
462.77	7400.77
462.95	7648.87
463.13	7571.63
463.32	7461.63
463.50	7609.08
463.68	7559.93
463.86	7653.55
464.05	7616.10
464.23	7555.25
464.41	7658.23
464.59	7602.06
464.78	7988.25
464.96	7651.21
465.14	7702.70
465.32	7843.14
465.50	7939.10
465.69	7831.43
465.87	7735.47
466.05	7868.88
466.23	7957.82
466.41	7929.74
466.60	8098.25
466.78	7866.54
466.96	8004.63
467.14	7885.26
467.32	8285.50
467.51	8032.72
467.69	7845.48
467.87	7878.24
468.05	8093.57
468.23	8079.53
468.41	8028.04
468.60	8222.30
468.78	8224.64
468.96	8177.83
469.14	8208.26
469.32	8461.04
469.50	8212.94
469.69	8344.01
469.87	8484.44
470.05	8458.70
470.23	8491.46
470.41	8681.05
470.59	8711.47
470.77	8671.68
470.95	8454.02
471.14	8767.65
471.32	8617.85
471.50	8837.86
471.68	8664.66
471.86	8992.34
472.04	8833.18
472.22	9060.21
472.40	8905.74
472.58	9060.21
472.77	9289.59
472.95	9064.89
473.13	9582.15
473.31	9233.41
473.49	9310.65
473.67	9142.13
473.85	9235.75
474.03	9387.89
474.21	9390.23
474.39	9446.40
474.57	9575.13
474.75	9582.15
474.93	9774.08
475.12	9701.52
475.30	9652.37
475.48	9745.99
475.66	9820.89
475.84	9633.64
476.02	9966.00
476.20	10097.07
476.38	10120.48
476.56	10291.34
476.74	10197.71
476.92	10134.52
477.10	10349.85
477.28	10403.68
477.46	10534.75
477.64	10539.43
477.82	10721.99
478.00	10766.46
478.18	10853.06
478.36	11016.90
478.54	11131.59
478.72	10984.13
478.90	11037.97
479.08	11309.47
479.26	11433.52
479.44	11236.91
479.62	11698.00
479.80	11485.01
479.98	11688.64
480.16	11892.26
480.34	11651.19
480.52	11992.90
480.70	12156.74
480.88	11826.73
481.06	12060.78
481.24	12091.21
481.41	12142.70
481.59	12411.86
481.77	12772.30
481.95	12624.85
482.13	12671.66
482.31	12692.73
482.49	12992.31
482.67	12786.35
482.85	13135.09
483.03	13132.75
483.21	13268.50
483.39	13345.73
483.57	13287.22
483.74	13359.78
483.92	13577.45
484.10	13752.99
484.28	14132.15
484.46	14115.77
484.64	14195.35
484.82	13940.23
485.00	14342.80
485.18	14487.92
485.35	14628.35
485.53	14810.91
485.71	14380.25
485.89	15002.83
486.07	14878.79
486.25	14899.85
486.43	15241.57
486.61	15208.80
486.78	15276.68
486.96	15602.01
487.14	15410.09
487.32	15630.10
487.50	15843.09
487.68	15988.20
487.85	16264.38
488.03	16133.31
488.21	16561.63
488.39	16622.48
488.57	16812.07
488.75	16718.45
488.92	16828.45
489.10	17219.32
489.28	17252.09
489.46	17259.11
489.64	17081.23
489.81	17582.10
489.99	17563.38
490.17	17493.16
490.35	17888.71
490.53	17869.99
490.70	18008.08
490.88	18307.67
491.06	18232.77
491.24	18349.80
491.41	18464.49
491.59	18565.13
491.77	18373.21
491.95	18597.90
492.13	19103.45
492.30	18970.04
492.48	19297.72
492.66	19433.47
492.84	19335.17
493.01	19805.61
493.19	19623.05
493.37	19653.48
493.54	19641.78
493.72	20121.59
493.90	19939.02
494.08	20053.71
494.25	20400.11
494.43	20470.33
494.61	20463.30
494.79	20805.02
494.96	20720.76
495.14	20982.90
495.32	21036.74
495.49	21081.21
495.67	20905.66
495.85	21233.34
496.02	21493.14
496.20	21778.68
496.38	21729.53
496.55	21633.57
496.73	22199.98
496.91	22015.08
497.09	22281.90
497.26	22073.59
497.44	22485.53
497.62	22476.16
497.79	22691.49
497.97	22541.70
498.14	22658.73
498.32	22881.08
498.50	23089.38
498.67	23178.33
498.85	22548.72
499.03	23461.53
499.20	23290.67
499.38	23503.66
499.56	23477.91
499.73	23819.63
499.91	23772.82
500.08	23873.46
500.26	23857.08
500.44	24325.19
500.61	24058.37
500.79	24006.87
500.97	24531.15
501.14	24542.86
501.32	24507.75
501.49	24641.16
501.67	24741.80
501.84	24610.73
502.02	24554.56
502.20	24694.99
502.37	25167.78
502.55	24973.52
502.72	25280.13
502.90	25153.74
503.07	24982.88
503.25	25565.67
503.43	25376.09
503.60	25649.93
503.78	25848.88
503.95	25605.46
504.13	25909.73
504.30	25891.01
504.48	25991.65
504.65	25848.88
504.83	26054.84
505.01	26260.81
505.18	26274.85
505.36	26654.02
505.53	26574.44
505.71	26663.38
505.88	26909.14
506.06	27042.55
506.23	26813.18
506.41	26541.68
506.58	26728.92
506.76	27538.74
506.93	27323.41
507.11	27154.90
507.28	27363.20
507.46	27075.32
507.63	27665.13
507.81	27866.42
507.98	27349.16
508.16	27725.99
508.33	27761.09
508.50	27777.48
508.68	28105.15
508.85	28594.32
509.03	27639.39
509.20	27931.95
509.38	28620.07
509.55	28610.71
509.73	28329.84
509.90	28615.39
510.08	28608.37
510.25	28432.83
510.42	28709.01
510.60	28973.49
510.77	29113.92
510.95	29394.79
511.12	29158.39
511.30	29315.21
511.47	29153.71
511.64	29123.29
511.82	29556.28
511.99	29036.69
512.17	30253.76
512.34	29420.53
512.51	29923.75
512.69	29851.19
512.86	30043.12
513.04	30293.55
513.21	29677.99
513.38	30101.63
513.56	30340.36
513.73	30010.35
513.90	30309.94
514.08	30448.03
514.25	30672.72
514.43	30623.57
514.60	30661.02
514.77	30883.37
514.95	30712.51
515.12	30878.69
515.29	30686.76
515.47	31082.31
515.64	30946.56
515.81	30855.28
515.99	31276.58
516.16	31615.96
516.33	31318.71
516.51	31744.69
516.68	31030.82
516.85	31644.04
517.03	31981.08
517.20	31578.51
517.37	31747.03
517.54	31913.20
517.72	32252.58
517.89	32093.43
518.06	32107.47
518.24	31889.80
518.41	32161.30
518.58	32154.28
518.75	31725.96
518.93	32477.27
519.10	32444.51
519.27	32727.71
519.45	32760.48
519.62	32582.60
519.79	32500.68
519.96	32666.86
520.14	33195.82
520.31	32432.80
520.48	32907.93
520.65	32882.19
520.83	32978.15
521.00	33362.00
521.17	33188.80
521.34	33282.42
521.52	33486.04
521.69	33610.09
521.86	33467.32
522.03	33603.07
522.20	34010.32
522.38	33916.70
522.55	34349.70
522.72	34265.44
522.89	34085.22
523.07	34616.52
523.24	33771.59
523.41	34216.29
523.58	34057.14
523.75	34405.88
523.92	34403.53
524.10	34653.97
524.27	34850.58
524.44	34586.10
524.61	35014.41
524.78	34480.77
524.96	34789.72
525.13	34689.08
525.30	35632.32
525.47	35122.08
525.64	35077.61
525.81	35431.03
525.98	35704.87
526.16	34911.43
526.33	35246.13
526.50	35906.16
526.67	35358.47
526.84	35325.71
527.01	35924.88
527.18	35625.29
527.36	35665.08
527.53	35526.99
527.70	36245.54
527.87	35981.06
528.04	36280.64
528.21	36077.02
528.38	36364.90
528.55	36121.49
528.72	36229.15
528.89	36231.49
529.07	35824.24
529.24	36299.37
529.41	36385.97
529.58	36212.77
529.75	36187.02
529.92	36430.44
530.09	36460.87
530.26	36381.29
530.43	36601.30
530.60	36582.57
530.77	36804.92
530.94	36856.42
531.11	36456.18
531.28	36973.44
531.46	36952.38
531.63	36985.15
531.80	37130.26
531.97	37404.10
532.14	37322.18
532.31	37221.54
532.48	37537.51
532.65	37191.11
532.82	37195.79
532.99	37703.69
533.16	37177.07
533.33	37359.63
533.50	37895.61
533.67	37322.18
533.84	37352.61
534.01	38176.48
534.18	37666.24
534.35	37841.78
534.52	38068.81
534.69	38403.51
534.86	38473.73
535.03	37621.77
535.20	37776.25
535.37	38328.61
535.54	38658.63
535.71	38288.82
535.88	38373.08
536.05	38389.47
536.22	38597.77
536.38	38529.90
536.55	38499.47
536.72	38391.81
536.89	38684.37
537.06	39075.24
537.23	38780.34
537.40	38909.07
537.57	38396.49
537.74	38515.86
537.91	38869.28
538.08	39189.93
538.25	38836.51
538.42	38890.34
538.59	39468.45
538.75	39072.90
538.92	39468.45
539.09	39557.39
539.26	39435.69
539.43	39227.38
539.60	39157.16
539.77	39110.35
539.94	39618.25
540.11	39597.18
540.28	39625.27
540.44	39592.50
540.61	39578.46
540.78	39302.28
540.95	39674.42
541.12	39721.23
541.29	39484.84
541.46	39695.49
541.62	40243.17
541.79	40023.16
541.96	39470.79
542.13	40069.97
542.30	39976.35
542.47	39976.35
542.63	40236.15
542.80	39974.01
542.97	40896.18
543.14	40957.03
543.31	40797.88
543.48	40620.00
543.64	40938.31
543.81	40821.28
543.98	40584.89
544.15	40542.76
544.32	40917.25
544.48	41270.67
544.65	41045.97
544.82	41291.73
544.99	40641.06
545.16	40772.13
545.32	41214.49
545.49	41427.48
545.66	41322.16
545.83	41282.37
546.00	41708.35
546.16	41579.62
546.33	41097.47
546.50	41453.23
546.67	41680.26
546.83	40961.72
547.00	41759.84
547.17	41397.06
547.34	41347.90
547.50	41420.46
547.67	41996.23
547.84	41631.11
548.00	41406.42
548.17	42464.34
548.34	41963.46
548.51	42059.43
548.67	42153.05
548.84	42174.11
549.01	42127.30
549.18	41752.82
549.34	42021.98
549.51	42188.16
549.68	42375.40
549.84	42504.13
550.01	42593.07
550.18	42139.00
550.34	42122.62
550.51	42464.34
550.68	42670.31
550.84	42162.41
551.01	42808.40
551.18	42153.05
551.34	42899.68
551.51	42492.43
551.68	42328.59
551.84	42866.91
552.01	42581.37
552.18	42824.78
552.34	42871.59
552.51	42878.61
552.68	42478.38
552.84	43323.32
553.01	42520.51
553.18	42710.10
553.34	42925.42
553.51	43014.37
553.67	42895.00
553.84	43225.01
554.01	43320.98
554.17	43154.80
554.34	43082.24
554.51	43264.80
554.67	43578.43
554.84	43180.54
555.00	43133.73
555.17	43185.22
555.33	43597.16
555.50	43608.86
555.67	43505.88
555.83	43320.98
556.00	43459.07
556.16	44030.16
556.33	43571.41
556.50	43285.87
556.66	43873.34
556.83	43178.20
556.99	43634.61
557.16	44109.74
557.32	43796.10
557.49	44006.75
557.65	43536.30
557.82	43449.70
557.98	43988.03
558.15	43681.42
558.32	43709.50
558.48	43777.38
558.65	43728.23
558.81	43742.27
558.98	44112.08
559.14	44048.88
559.31	43969.30
559.47	44083.99
559.64	43871.00
559.80	44435.07
559.97	44196.34
560.13	44404.64
560.30	44210.38
560.46	44346.13
560.63	44385.92
560.79	44383.58
560.96	44793.17
561.12	44435.07
561.29	44378.90
561.45	43955.26
561.61	44271.23
561.78	44526.35
561.94	44327.41
562.11	44772.11
562.27	44095.69
562.44	44259.53
562.60	44912.54
562.77	44261.87
562.93	44451.45
563.10	44739.34
563.26	44849.35
563.42	44999.14
563.59	44697.21
563.75	44722.96
563.92	44875.09
564.08	44435.07
564.24	44839.98
564.41	45043.61
564.57	44673.81
564.74	44655.08
564.90	44554.44
565.07	44957.01
565.23	44701.89
565.39	44711.25
565.56	44973.39
565.72	44774.45
565.88	45036.59
566.05	44942.97
566.21	44891.48
566.38	44659.76
566.54	45284.68
566.70	45017.86
566.87	44744.02
567.03	44690.19
567.19	45221.49
567.36	44765.09
567.52	45546.82
567.68	45762.15
567.85	45153.62
568.01	45095.10
568.17	45052.97
568.34	45144.25
568.50	45289.37
568.66	45155.96
568.83	45200.43
568.99	45251.92
569.15	45303.41
569.32	45240.21
569.48	44570.82
569.64	45464.91
569.81	45539.80
569.97	45471.93
570.13	45815.99
570.30	45752.79
570.46	45418.10
570.62	45593.64
570.78	45397.03
570.95	45308.09
571.11	45652.15
571.27	45570.23
571.43	45214.47
571.60	45364.26
571.76	45406.39
571.92	45247.24
572.09	45202.77
572.25	45619.38
572.41	45184.04
572.57	45659.17
572.74	45614.70
572.90	45565.55
573.06	45357.24
573.22	45336.18
573.38	45530.44
573.55	45492.99
573.71	46089.83
573.87	45722.37
574.03	45769.18
574.20	46124.94
574.36	45710.66
574.52	45818.33
574.68	45958.76
574.84	45776.20
575.01	46043.02
575.17	45965.78
575.33	45684.92
575.49	45839.39
575.65	45776.20
575.82	45539.80
575.98	45158.30
576.14	46071.10
576.30	46103.87
576.46	45937.69
576.62	46108.55
576.79	45469.59
576.95	45399.37
577.11	45598.32
577.27	45806.62
577.43	45823.01
577.59	45612.36
577.75	45532.78
577.92	45544.48
578.08	45560.87
578.24	45982.16
578.40	46223.24
578.56	46181.11
578.72	46237.28
578.88	45916.63
579.04	46092.17
579.21	45879.18
579.37	45951.74
579.53	46080.47
579.69	45432.14
579.85	45818.33
580.01	46005.57
580.17	45478.95
580.33	45567.89
580.49	46038.34
580.65	45916.63
580.82	45834.71
580.98	45780.88
581.14	45586.61
581.30	45930.67
581.46	45947.06
581.62	45951.74
581.78	45560.87
581.94	46211.54
582.10	45832.37
582.26	45916.63
582.42	46061.74
582.58	46071.10
582.74	46178.77
582.90	45909.61
583.06	46061.74
583.22	45560.87
583.38	45904.93
583.54	46195.15
583.70	45661.51
583.86	46478.36
584.02	45745.77
584.18	46279.41
584.34	46178.77
584.50	46199.83
584.66	46256.01
584.82	46164.73
584.98	46553.26
585.14	46218.56
585.30	45883.86
585.46	46026.63
585.62	45696.62
585.78	46068.76
585.94	45806.62
586.10	46347.29
586.26	45785.56
586.42	46199.83
586.58	45904.93
586.74	46017.27
586.90	46014.93
587.06	45689.60
587.22	46649.22
587.38	45771.52
587.54	46642.20
587.70	46504.10
587.86	46176.43
588.02	45567.89
588.18	45993.87
588.34	46134.30
588.49	46536.87
588.65	46089.83
588.81	46358.99
588.97	46223.24
589.13	46075.79
589.29	46263.03
589.45	46483.04
589.61	46770.93
589.77	46106.21
589.93	46389.42
590.08	46653.90
590.24	46490.06
590.40	46876.25
590.56	46958.17
590.72	46691.35
590.88	46602.41
591.04	46389.42
591.20	46859.87
591.35	46113.23
591.51	46927.74
591.67	46670.28
591.83	46829.44
591.99	46607.09
592.15	46749.86
592.31	46740.50
592.46	46550.91
592.62	46244.30
592.78	46504.10
592.94	46817.74
593.10	47138.39
593.26	47051.79
593.41	46995.62
593.57	46803.69
593.73	46883.27
593.89	47505.85
594.05	47213.29
594.20	46756.88
594.36	47100.94
594.52	46752.20
594.68	46887.95
594.84	46993.28
594.99	46836.46
595.15	46714.75
595.31	46890.29
595.47	46625.81
595.62	46639.86
595.78	46925.40
595.94	46590.70
596.10	46689.01
596.25	47274.14
596.41	47096.26
596.57	46787.31
596.73	47122.01
596.88	47000.30
597.04	46735.82
597.20	46871.57
597.36	46660.92
597.51	46602.41
597.67	46707.73
597.83	47009.66
597.99	46820.08
598.14	46806.03
598.30	46721.77
598.46	47117.32
598.61	47007.32
598.77	46714.75
598.93	47414.57
599.09	46829.44
599.24	47459.04
599.40	47313.93
599.56	47138.39
599.71	47302.23
599.87	47445.00
600.03	47086.90
600.18	47007.32
600.34	47019.02
600.50	46728.80
600.65	46920.72
600.81	47161.79
600.97	47306.91
601.12	47522.24
601.28	47072.85
601.44	47063.49
601.59	47122.01
601.75	47234.35
601.91	47299.89
602.06	46625.81
602.22	46969.87
602.37	47323.29
602.53	46913.70
602.69	47285.84
602.84	46562.62
603.00	46689.01
603.16	47084.56
603.31	46953.49
603.47	47084.56
603.62	47189.88
603.78	47260.10
603.94	46939.44
604.09	46913.70
604.25	46838.80
604.40	46925.40
604.56	46871.57
604.71	47166.48
604.87	47220.31
605.03	46941.78
605.18	47316.27
605.34	47168.82
605.49	46866.89
605.65	46862.21
605.80	46986.25
605.96	46731.14
606.12	47030.72
606.27	47004.98
606.43	46815.40
606.58	46871.57
606.74	46862.21
606.89	47084.56
607.05	46897.31
607.20	46740.50
607.36	46894.97
607.51	46628.15
607.67	46485.38
607.82	46581.34
607.98	47014.34
608.13	46967.53
608.29	47103.28
608.44	46553.26
608.60	46445.59
608.75	46906.68
608.91	46852.84
609.06	46440.91
609.22	46841.14
609.37	46164.73
609.53	46850.50
609.68	46693.69
609.84	46555.60
609.99	47000.30
610.15	46443.25
610.30	46686.67
610.46	46820.08
610.61	46759.22
610.76	46995.62
610.92	46443.25
611.07	46356.65
611.23	46134.30
611.38	46347.29
611.54	46602.41
611.69	46880.93
611.84	46770.93
612.00	46815.40
612.15	46635.17
612.31	46831.78
612.46	46440.91
612.62	46251.33
612.77	46740.50
612.92	46890.29
613.08	46714.75
613.23	46635.17
613.39	46143.66
613.54	46630.49
613.69	46487.72
613.85	46564.96
614.00	46667.94
614.15	46075.79
614.31	46314.52
614.46	46330.90
614.62	45975.14
614.77	46426.87
614.92	45979.82
615.08	46452.61
615.23	46209.20
615.38	46288.77
615.54	45879.18
615.69	46454.95
615.84	46019.61
616.00	46431.55
616.15	46253.67
616.30	46094.51
616.46	46188.13
616.61	45963.44
616.76	46515.81
616.92	45937.69
617.07	46106.21
617.22	45904.93
617.37	45736.41
617.53	45860.46
617.68	46361.33
617.83	45954.08
617.99	46213.88
618.14	46284.09
618.29	45778.54
618.45	45951.74
618.60	45584.27
618.75	45595.98
618.90	45865.14
619.06	45855.78
619.21	45610.02
619.36	46096.85
619.51	45364.26
619.67	45172.34
619.82	45851.09
619.97	45677.90
620.12	45352.56
620.28	45743.43
620.43	46014.93
620.58	45743.43
620.73	45963.44
620.89	46047.70
621.04	45982.16
621.19	45298.73
621.34	46005.57
621.49	45464.91
621.65	45390.01
621.80	45876.84
621.95	45853.44
622.10	45352.56
622.25	45485.97
622.41	45198.09
622.56	45130.21
622.71	45406.39
622.86	45565.55
623.01	45226.17
623.16	45006.16
623.32	45446.18
623.47	45628.74
623.62	45539.80
623.77	45127.87
623.92	45593.64
624.07	45158.30
624.23	45617.04
624.38	45010.84
624.53	45270.64
624.68	44961.69
624.83	45062.33
624.98	45345.54
625.13	44655.08
625.29	45071.70
625.44	45228.51
625.59	44952.33
625.74	44966.37
625.89	44755.72
626.04	44811.90
626.19	44786.15
626.34	44748.70
626.49	44772.11
626.65	44657.42
626.80	44437.41
626.95	44587.21
627.10	44414.01
627.25	44659.76
627.40	44552.10
627.55	44395.28
627.70	44685.51
627.85	44662.10
628.00	44603.59
628.15	44872.75
628.30	44165.91
628.45	44395.28
628.60	44325.07
628.76	44467.84
628.91	44205.70
629.06	43952.92
629.21	43775.04
629.36	44250.17
629.51	44168.25
629.66	44282.94
629.81	43957.60
629.96	44257.19
630.11	44570.82
630.26	44067.61
630.41	43992.71
630.56	43732.91
630.71	44507.63
630.86	44025.48
631.01	43803.13
631.16	43650.99
631.31	43758.66
631.46	43742.27
631.61	44140.16
631.76	43988.03
631.91	43475.45
632.06	44140.16
632.21	43845.26
632.36	44032.50
632.51	43667.37
632.66	43896.75
632.81	43562.05
632.96	43548.01
633.10	43611.20
633.25	43730.57
633.40	43873.34
633.55	44037.18
633.70	43339.70
633.85	43629.93
634.00	43414.60
634.15	43435.66
634.30	43227.35
634.45	43299.91
634.60	43414.60
634.75	43498.86
634.90	43835.89
635.05	43583.12
635.19	43599.50
635.34	43405.23
635.49	42880.95
635.64	43395.87
635.79	43875.68
635.94	43416.94
636.09	43555.03
636.24	43206.29
636.39	43161.82
636.53	43761.00
636.68	43173.52
636.83	43100.97
636.98	42845.85
637.13	42349.65
637.28	42710.10
637.43	42895.00
637.57	42932.45
637.72	43091.60
637.87	42761.59
638.02	43454.39
638.17	42508.81
638.32	42354.33
638.46	42792.01
638.61	42632.86
638.76	42848.19
638.91	42934.79
639.06	42508.81
639.20	42539.24
639.35	42630.52
639.50	42572.00
639.65	42623.50
639.80	42653.92
639.94	42782.65
640.09	42932.45
640.24	42806.06
640.39	42192.84
640.54	42094.53
640.68	42632.86
640.83	42775.63
640.98	42581.37
641.13	42368.38
641.27	42588.39
641.42	42122.62
641.57	42281.78
641.72	42471.36
641.86	42197.52
642.01	41914.31
642.16	42190.50
642.31	41673.24
642.45	42099.22
642.60	41844.10
642.75	41677.92
642.90	42092.19
643.04	41954.10
643.19	41867.50
643.34	41762.18
643.48	41771.54
643.63	41394.71
643.78	42225.60
643.93	42239.65
644.07	42644.56
644.22	41736.43
644.37	41610.04
644.51	41867.50
644.66	42014.96
644.81	41577.28
644.95	41792.61
645.10	41785.58
645.25	41380.67
645.39	41509.40
645.54	41432.16
645.69	41731.75
645.83	41083.42
645.98	41427.48
646.13	41188.75
646.27	41434.50
646.42	40987.46
646.57	41357.27
646.71	41556.21
646.86	41677.92
647.00	41682.60
647.15	41242.58
647.30	41493.02
647.44	41586.64
647.59	41221.52
647.74	41160.66
647.88	41338.54
648.03	41404.08
648.17	41572.60
648.32	41404.08
648.47	41797.29
648.61	41298.75
648.76	41219.17
648.90	40683.19
649.05	41134.92
649.20	40832.99
649.34	41006.19
649.49	41738.77
649.63	41289.39
649.78	41174.70
649.92	41099.81
650.07	41708.35
650.21	41205.13
650.36	41352.58
650.51	41029.59
650.65	40872.78
650.80	41240.24
650.94	40858.73
651.09	40776.81
651.23	40404.67
651.38	40512.33
651.52	40514.67
651.67	40811.92
651.81	40919.59
651.96	40657.45
652.10	40378.92
652.25	40479.57
652.39	40362.54
652.54	40755.75
652.68	40184.66
652.83	40474.88
652.97	40755.75
653.12	40699.58
653.26	40362.54
653.41	40308.71
653.55	40128.48
653.70	40507.65
653.84	40210.40
653.99	40275.94
654.13	40154.23
654.27	39983.37
654.42	40238.49
654.56	40142.53
654.71	39936.56
654.85	40172.96
655.00	40315.73
655.14	40261.90
655.29	40414.03
655.43	40301.68
655.57	39505.90
655.72	39878.05
655.86	39370.15
656.01	39442.71
656.15	39297.59
656.30	39924.86
656.44	39810.17
656.58	40161.25
656.73	39966.99
656.87	39498.88
657.01	39330.36
657.16	39990.39
657.30	39955.29
657.45	39807.83
657.59	39164.18
657.73	39140.78
657.88	39749.32
658.02	39999.76
658.16	39854.64
658.31	39604.20
658.45	39494.20
658.60	39138.44
658.74	39283.55
658.88	39342.06
659.03	39033.11
659.17	38639.90
659.31	39093.97
659.46	38679.69
659.60	39213.34
659.74	39136.10
659.89	38569.69
660.03	38728.84
660.17	39175.89
660.32	38998.01
660.46	38794.38
660.60	38345.00
660.74	38677.35
660.89	38466.70
661.03	38424.57
661.17	38649.27
661.32	38490.11
661.46	38593.09
661.60	38660.97
661.74	38288.82
661.89	38071.15
662.03	38642.24
662.17	38270.10
662.31	38497.13
662.46	38403.51
662.60	37958.81
662.74	37696.67
662.88	37851.14
663.03	37364.31
663.17	37336.23
663.31	37619.43
663.45	37556.24
663.60	37909.66
663.74	37846.46
663.88	37483.68
664.02	37450.91
664.17	37654.54
664.31	37420.48
664.45	37085.79
664.59	37743.48
664.73	37359.63
664.88	37308.14
665.02	36950.04
665.16	37495.38
665.30	37113.87
665.44	37427.51
665.59	36755.77
665.73	37095.15
665.87	36484.27
666.01	36753.43
666.15	36748.75
666.29	36678.54
666.44	36584.91
666.58	36627.04
666.72	36460.87
666.86	36669.17
667.00	36732.37
667.14	36631.72
667.28	36219.79
667.43	36886.84
667.57	36486.61
667.71	36144.89
667.85	36311.07
667.99	36329.80
668.13	36306.39
668.27	35847.64
668.41	36044.25
668.56	35938.93
668.70	35295.28
668.84	35400.60
668.98	35330.39
669.12	35227.40
669.26	35971.69
669.40	35709.55
669.54	35459.12
669.68	35552.74
669.82	35150.17
669.96	35044.84
670.10	34813.13
670.25	35187.61
670.39	34983.99
670.53	35412.31
670.67	35182.93
670.81	35445.07
670.95	34803.77
671.09	34796.74
671.23	34693.76
671.37	34253.74
671.51	34761.64
671.65	34625.89
671.79	34405.88
671.93	34129.69
672.07	34653.97
672.21	34230.33
672.35	34277.15
672.49	34487.79
672.63	34319.28
672.77	33731.80
672.91	34162.46
673.05	33621.80
673.19	33582.01
673.33	33446.26
673.47	33579.67
673.61	33113.90
673.75	33457.96
673.89	33244.97
674.03	32947.72
674.17	33006.23
674.31	33111.56
674.45	32919.63
674.59	32854.10
674.73	32772.18
674.87	32697.28
675.01	32875.16
675.15	32165.98
675.29	32271.31
675.43	32091.09
675.56	32608.34
675.70	32680.90
675.84	31969.38
675.98	31065.93
676.12	32217.47
676.26	32053.64
676.40	31646.38
676.54	31311.69
676.68	31793.84
676.82	31028.48
676.96	31512.97
677.10	31597.23
677.23	31503.61
677.37	31028.48
677.51	31201.68
677.65	31239.13
677.79	30986.35
677.93	31197.00
678.07	31035.50
678.21	30663.36
678.34	30541.65
678.48	30319.30
678.62	30359.09
678.76	30389.52
678.90	30146.10
679.04	30082.91
679.18	30387.18
679.31	30061.84
679.45	29785.66
679.59	29797.36
679.73	29902.68
679.87	29551.60
680.00	29699.06
680.14	29549.26
680.28	29717.78
680.42	28961.79
680.56	28996.90
680.70	29071.79
680.83	28500.70
680.97	28870.51
681.11	29015.62
681.25	28833.06
681.39	28400.06
681.52	28952.43
681.66	27969.40
681.80	27868.76
681.94	27950.68
682.07	27880.46
682.21	27536.40
682.35	27515.34
682.49	27761.09
682.62	28004.51
682.76	27943.66
682.90	27557.47
683.04	27222.77
683.17	27536.40
683.31	26995.74
683.45	27166.60
683.59	27033.19
683.72	26902.12
683.86	26806.16
684.00	26536.99
684.13	26628.27
684.27	26267.83
684.41	26405.92
684.55	26576.78
684.68	26426.99
684.82	25984.63
684.96	26050.16
685.09	26279.54
685.23	26089.95
685.37	26263.15
685.50	26052.50
685.64	25762.28
685.78	25722.49
685.91	25474.39
686.05	25369.07
686.19	24996.92
686.32	25245.02
686.46	24840.11
686.60	24620.10
686.73	24842.45
686.87	24643.50
687.01	24685.63
687.14	25025.01
687.28	24540.52
687.42	24608.39
687.55	24182.42
687.69	24683.29
687.82	23917.93
687.96	24109.86
688.10	24093.47
688.23	24173.05
688.37	24210.50
688.50	24002.19
688.64	23527.06
688.78	23821.97
688.91	23470.89
689.05	23070.66
689.18	23302.37
689.32	22848.31
689.46	22941.93
689.59	23168.96
689.73	23042.57
689.86	23208.75
690.00	23145.56
690.13	22611.92
690.27	22799.16
690.41	22927.89
690.54	22607.23
690.68	22448.08
690.81	21844.22
690.95	22106.36
691.08	21792.73
691.22	21696.77
691.35	21764.64
691.49	22024.44
691.62	21685.06
691.76	21635.91
691.89	21577.40
692.03	20961.84
692.16	21069.50
692.30	21078.86
692.43	20989.92
692.57	20872.90
692.70	21041.42
692.84	20814.38
692.97	20615.44
693.11	20835.45
693.24	20489.05
693.38	20666.93
693.51	20453.94
693.65	20613.10
693.78	20020.94
693.92	20180.10
694.05	19913.28
694.19	19843.06
694.32	19885.19
694.45	20154.35
694.59	19880.51
694.72	20025.62
694.86	19625.39
694.99	19176.01
695.13	19302.40
695.26	19332.82
695.39	19199.41
695.53	18906.85
695.66	19269.63
695.80	18768.76
695.93	18862.38
696.07	18363.84
696.20	18682.16
696.33	18363.84
696.47	18293.63
696.60	18349.80
696.73	18508.96
696.87	18544.06
697.00	18003.40
697.14	18143.83
697.27	18052.55
697.40	18139.15
697.54	17750.62
697.67	17809.14
697.80	17706.15
697.94	17486.14
698.07	17568.06
698.21	17575.08
698.34	17427.63
698.47	16978.25
698.61	17118.68
698.74	16910.37
698.87	17088.25
699.01	16657.59
699.14	16943.14
699.27	16690.36
699.40	16666.95
699.54	16477.37
699.67	16772.28
699.80	16404.81
699.94	16350.98
700.07	16360.34
700.20	16540.57
700.34	16414.18
700.47	16332.26
700.60	16343.96
700.73	16313.53
700.87	15836.06
701.00	15765.85
701.13	15744.78
701.26	15791.59
701.40	15648.82
701.53	15524.77
701.66	15524.77
701.79	15580.95
701.93	15283.70
702.06	15370.30
702.19	15201.78
702.32	15147.95
702.46	15126.88
702.59	15117.52
702.72	15297.74
702.85	15199.44
702.99	14764.10
703.12	14513.66
703.25	14691.54
703.38	14501.96
703.51	14527.71
703.65	14572.18
703.78	14153.22
703.91	13996.40
704.04	13989.38
704.17	14026.83
704.31	14001.08
704.44	13867.67
704.57	13900.44
704.70	13701.50
704.83	13839.59
704.96	13537.66
705.10	13584.47
705.23	13575.11
>>>>>End Processed Spectral Data<<<<<
