SpectraSuite Data File
++++++++++++++++++++++++++++++++++++
Date: Fri Oct 25 10:48:16 EDT 2013
User: price-jones
Dark Spectrum Present: No
Reference Spectrum Present: No
Number of Sampled Component Spectra: 1
Spectrometers: USB2+H05261
Integration Time (usec): 100000 (USB2+H05261)
Spectra Averaged: 1 (USB2+H05261)
Boxcar Smoothing: 0 (USB2+H05261)
Correct for Electrical Dark: No (USB2+H05261)
Strobe/Lamp Enabled: No (USB2+H05261)
Correct for Detector Non-linearity: No (USB2+H05261)
Correct for Stray Light: No (USB2+H05261)
Number of Pixels in Processed Spectrum: 2048
>>>>>Begin Processed Spectral Data<<<<<
365.73	189.58
365.92	189.58
366.12	189.58
366.32	135.75
366.52	53.83
366.72	100.64
366.91	63.19
367.11	95.96
367.31	21.06
367.51	105.32
367.70	32.77
367.90	11.70
368.10	14.04
368.30	28.09
368.49	0.00
368.69	126.39
368.89	58.51
369.09	84.26
369.28	72.56
369.48	72.56
369.68	112.35
369.87	95.96
370.07	46.81
370.27	98.30
370.47	280.86
370.66	407.25
370.86	425.98
371.06	475.13
371.25	409.59
371.45	416.62
371.65	512.58
371.84	449.38
372.04	503.22
372.24	449.38
372.44	533.64
372.63	519.60
372.83	582.79
373.03	533.64
373.22	444.70
373.42	540.66
373.62	543.00
373.81	582.79
374.01	547.69
374.21	620.24
374.40	475.13
374.60	610.88
374.79	545.34
374.99	557.05
375.19	601.52
375.38	594.50
375.58	561.73
375.78	550.03
375.97	571.09
376.17	631.94
376.37	643.65
376.56	571.09
376.76	585.13
376.95	603.86
377.15	664.71
377.35	676.41
377.54	638.97
377.74	662.37
377.93	648.33
378.13	723.23
378.33	716.20
378.52	650.67
378.72	716.20
378.91	648.33
379.11	610.88
379.31	692.80
379.50	676.41
379.70	732.59
379.89	730.25
380.09	699.82
380.28	690.46
380.48	678.76
380.68	753.65
380.87	648.33
381.07	697.48
381.26	734.93
381.46	732.59
381.65	695.14
381.85	653.01
382.04	737.27
382.24	650.67
382.43	699.82
382.63	718.54
382.83	723.23
383.02	784.08
383.22	751.31
383.41	725.57
383.61	741.95
383.80	774.72
384.00	830.89
384.19	816.85
384.39	795.78
384.58	830.89
384.78	826.21
384.97	821.53
385.17	784.08
385.36	786.42
385.56	880.04
385.75	856.64
385.95	835.57
386.14	877.70
386.34	929.19
386.53	847.27
386.72	837.91
386.92	840.25
387.11	912.81
387.31	891.74
387.50	891.74
387.70	929.19
387.89	973.66
388.09	826.21
388.28	896.43
388.48	856.64
388.67	1011.11
388.86	924.51
389.06	929.19
389.25	1008.77
389.45	966.64
389.64	964.30
389.84	1060.26
390.03	1032.18
390.22	992.39
390.42	990.05
390.61	1001.75
390.81	1008.77
391.00	992.39
391.19	1025.15
391.39	966.64
391.58	1097.71
391.78	1144.52
391.97	1135.16
392.16	1055.58
392.36	999.41
392.55	1088.35
392.75	978.34
392.94	1041.54
393.13	976.00
393.33	1034.52
393.52	1041.54
393.71	1048.56
393.91	1156.22
394.10	1074.31
394.29	1151.54
394.49	1139.84
394.68	1263.89
394.88	1268.57
395.07	1203.04
395.26	1217.08
395.46	1170.27
395.65	1210.06
395.84	1200.69
396.04	1291.98
396.23	1111.75
396.42	1179.63
396.62	1144.52
396.81	1198.35
397.00	1247.51
397.19	1308.36
397.39	1200.69
397.58	1427.73
397.77	1394.96
397.97	1460.49
398.16	1458.15
398.35	1390.28
398.55	1420.71
398.74	1502.62
398.93	1488.58
399.12	1446.45
399.32	1535.39
399.51	1551.78
399.70	1528.37
399.90	1504.96
400.09	1523.69
400.28	1626.67
400.47	1685.19
400.67	1631.35
400.86	1673.48
401.05	1565.82
401.24	1701.57
401.44	1645.40
401.63	1685.19
401.82	1626.67
402.01	1675.82
402.21	1802.21
402.40	1650.08
402.59	1781.15
402.78	1680.50
402.97	1666.46
403.17	1605.61
403.36	1694.55
403.55	1785.83
403.74	1816.26
403.93	1820.94
404.13	1870.09
404.32	1849.02
404.51	1790.51
404.70	1975.41
404.89	1797.53
405.09	1944.99
405.28	1970.73
405.47	1980.09
405.66	1963.71
405.85	1987.11
406.05	1949.67
406.24	1970.73
406.43	1886.47
406.62	1996.48
406.81	2150.95
407.00	1984.77
407.20	2087.76
407.39	2083.08
407.58	2078.40
407.77	2246.91
407.96	2045.63
408.15	2186.06
408.34	2122.87
408.54	2214.15
408.73	2148.61
408.92	2221.17
409.11	2260.96
409.30	2345.22
409.49	2221.17
409.68	2286.70
409.87	2366.28
410.07	2424.80
410.26	2401.39
410.45	2413.09
410.64	2342.88
410.83	2551.18
411.02	2562.89
411.21	2551.18
411.40	2450.54
411.59	2532.46
411.78	2581.61
411.98	2616.72
412.17	2586.29
412.36	2607.36
412.55	2633.10
412.74	2703.32
412.93	2661.19
413.12	2572.25
413.31	2785.24
413.50	2710.34
413.69	2712.68
413.88	2871.84
414.07	2862.48
414.26	2895.24
414.45	2972.48
414.64	2935.03
414.83	3014.61
415.02	3005.25
415.22	3056.74
415.41	3035.67
415.60	3124.62
415.79	3077.80
415.98	3173.77
416.17	3190.15
416.36	3159.72
416.55	3183.13
416.74	3171.43
416.93	3166.74
417.12	3311.86
417.31	3213.56
417.50	3389.10
417.69	3468.67
417.88	3398.46
418.07	3316.54
418.26	3370.37
418.45	3389.10
418.64	3634.85
418.83	3583.36
419.02	3485.06
419.21	3517.83
419.39	3482.72
419.58	3382.07
419.77	3574.00
419.96	3555.27
420.15	3646.55
420.34	3665.28
420.53	3775.28
420.72	3669.96
420.91	3779.97
421.10	3768.26
421.29	3758.90
421.48	3775.28
421.67	3796.35
421.86	3667.62
422.05	3770.60
422.24	3660.60
422.43	3669.96
422.61	3688.68
422.80	3829.12
422.99	3915.72
423.18	3824.44
423.37	3915.72
423.56	3913.38
423.75	3864.22
423.94	3625.49
424.13	3602.08
424.32	3810.39
424.50	3801.03
424.69	3901.67
424.88	3939.12
425.07	3749.54
425.26	3815.07
425.45	3941.46
425.64	3950.82
425.83	3854.86
426.01	3997.64
426.20	3871.25
426.39	4009.34
426.58	3866.56
426.77	3847.84
426.96	3887.63
427.15	3829.12
427.33	3918.06
427.52	3978.91
427.71	4156.79
427.90	3964.87
428.09	4095.94
428.28	4086.58
428.46	4091.26
428.65	4095.94
428.84	4093.60
429.03	4184.88
429.22	4088.92
429.40	4250.41
429.59	4191.90
429.78	3955.51
429.97	3918.06
430.16	4053.81
430.34	4046.79
430.53	4100.62
430.72	4138.07
430.91	4081.89
431.10	4451.70
431.28	4442.34
431.47	4573.41
431.66	4578.09
431.85	4484.47
432.03	4521.92
432.22	4603.83
432.41	4613.20
432.60	4660.01
432.79	4442.34
432.97	4622.56
433.16	4683.41
433.35	4512.55
433.54	4660.01
433.72	4564.04
433.91	4564.04
434.10	4683.41
434.28	4781.71
434.47	4718.52
434.66	4968.96
434.85	4770.01
435.03	4912.78
435.22	4849.59
435.41	5109.39
435.59	4997.04
435.78	4931.51
435.97	5137.48
436.16	4987.68
436.34	5043.85
436.53	5039.17
436.72	5156.20
436.90	5043.85
437.09	5055.56
437.28	5015.77
437.46	5032.15
437.65	5118.75
437.84	5172.58
438.02	5104.71
438.21	5153.86
438.40	4966.62
438.58	5392.59
438.77	5313.02
438.96	5125.77
439.14	5324.72
439.33	5558.77
439.52	5455.79
439.70	5542.39
439.89	5416.00
440.08	5657.07
440.26	5544.73
440.45	5432.38
440.63	5776.44
440.82	5893.47
441.01	5720.27
441.19	5959.00
441.38	6157.95
441.57	5879.43
441.75	5968.37
441.94	6176.67
442.12	6167.31
442.31	6228.17
442.50	6139.23
442.68	6179.01
442.87	6347.53
443.05	6232.85
443.24	6401.37
443.43	6284.34
443.61	6265.61
443.80	6588.61
443.98	6108.80
444.17	6076.03
444.35	6326.47
444.54	6450.52
444.73	6424.77
444.91	6232.85
445.10	6150.93
445.28	6392.00
445.47	6335.83
445.65	6307.74
445.84	6558.18
446.02	6520.73
446.21	6415.41
446.39	6408.39
446.58	6548.82
446.77	6485.62
446.95	6483.28
447.14	6551.16
447.32	6541.80
447.51	6691.59
447.69	6647.12
447.88	6562.86
448.06	6492.65
448.25	6684.57
448.43	6658.82
448.62	6581.59
448.80	6658.82
448.99	6642.44
449.17	6679.89
449.36	6558.18
449.54	6949.05
449.73	6796.92
449.91	6981.82
450.10	6951.39
450.28	6995.86
450.46	7049.69
450.65	6906.92
450.83	6932.67
451.02	6977.14
451.20	7070.76
451.39	6956.07
451.57	7009.90
451.76	7056.72
451.94	7115.23
452.13	7070.76
452.31	7197.15
452.49	6808.62
452.68	7091.82
452.86	6895.22
453.05	7052.03
453.23	7309.49
453.42	7045.01
453.60	7199.49
453.78	7330.56
453.97	7281.41
454.15	7344.60
454.34	7108.21
454.52	7325.88
454.70	7344.60
454.89	7358.64
455.07	7403.11
455.26	7480.35
455.44	7634.83
455.62	7468.65
455.81	7651.21
455.99	7583.34
456.17	7691.00
456.36	7733.13
456.54	7681.64
456.73	7840.79
456.91	7903.99
457.09	8072.51
457.28	8006.97
457.46	7861.86
457.64	7873.56
457.83	8217.62
458.01	7948.46
458.19	8084.21
458.38	8004.63
458.56	8032.72
458.74	8109.96
458.93	8011.65
459.11	8042.08
459.29	8081.87
459.48	8358.05
459.66	8184.85
459.84	8280.82
460.03	8336.99
460.21	8131.02
460.39	8231.66
460.57	8519.55
460.76	8367.42
460.94	8505.51
461.12	8376.78
461.31	8432.95
461.49	8454.02
461.67	8486.78
461.85	8788.71
462.04	8566.36
462.22	9118.73
462.40	8659.98
462.59	8774.67
462.77	8737.22
462.95	8685.73
463.13	8875.31
463.32	8547.64
463.50	8826.16
463.68	9008.72
463.86	8858.93
464.05	8540.61
464.23	8699.77
464.41	8781.69
464.59	8667.00
464.78	8954.89
464.96	8999.36
465.14	8975.95
465.32	9149.15
465.50	8936.17
465.69	9195.96
465.87	9001.70
466.05	9149.15
466.23	9057.87
466.41	9118.73
466.60	9146.81
466.78	8940.85
466.96	9160.86
467.14	9174.90
467.32	9277.88
467.51	9235.75
467.69	8968.93
467.87	9275.54
468.05	9434.70
468.23	9062.55
468.41	9202.99
468.60	9479.17
468.78	9385.55
468.96	9352.78
469.14	9535.34
469.32	9607.90
469.50	9383.21
469.69	9507.26
469.87	9635.99
470.05	9404.27
470.23	9701.52
470.41	9741.31
470.59	9886.42
470.77	9750.67
470.95	9633.64
471.14	9996.43
471.32	9729.61
471.50	10139.20
471.68	9961.32
471.86	10087.71
472.04	10092.39
472.22	10303.04
472.40	10073.67
472.58	10176.65
472.77	10342.83
472.95	10324.10
473.13	10525.39
473.31	10267.93
473.49	10384.96
473.67	10394.32
473.85	10457.51
474.03	10679.86
474.21	10939.66
474.39	10808.59
474.57	10815.62
474.75	10939.66
474.93	11047.33
475.12	10923.28
475.30	11199.46
475.48	11187.76
475.66	11075.42
475.84	11187.76
476.02	11302.45
476.20	11037.97
476.38	11590.33
476.56	11889.92
476.74	11735.45
476.92	11442.88
477.10	11618.42
477.28	11981.20
477.46	11693.32
477.64	11946.09
477.82	12081.85
478.00	12332.28
478.18	12266.75
478.36	12353.35
478.54	12486.76
478.72	12451.65
478.90	12578.04
479.08	12889.33
479.26	12791.03
479.44	13202.96
479.62	13200.62
479.80	13193.60
479.98	13069.55
480.16	13530.64
480.34	13200.62
480.52	13671.07
480.70	13575.11
480.88	13523.62
481.06	13640.64
481.24	13790.44
481.41	14129.81
481.59	14265.57
481.77	14249.18
481.95	14075.98
482.13	14324.08
482.31	14434.08
482.49	14597.92
482.67	14588.56
482.85	14874.10
483.03	14815.59
483.21	15066.03
483.39	15021.56
483.57	15066.03
483.74	15257.95
483.92	15669.89
484.10	15438.17
484.28	15616.05
484.46	15630.10
484.64	16308.85
484.82	15611.37
485.00	16163.74
485.18	16140.33
485.35	16217.57
485.53	15946.07
485.71	16142.67
485.89	16238.64
486.07	16189.49
486.25	16783.98
486.43	16521.84
486.61	16844.84
486.78	17198.26
486.96	17305.92
487.14	17156.13
487.32	17336.35
487.50	17642.96
487.68	18113.41
487.85	17965.95
488.03	18354.48
488.21	18427.04
488.39	18314.69
488.57	18218.73
488.75	18656.41
488.92	19026.21
489.10	19122.18
489.28	19089.41
489.46	19236.86
489.64	19262.61
489.81	19777.53
489.99	19906.26
490.17	20051.37
490.35	19892.21
490.53	20034.99
490.70	20201.16
490.88	20273.72
491.06	20456.28
491.24	20437.56
491.41	20458.62
491.59	20381.38
491.77	20329.89
491.95	20601.40
492.13	21256.75
492.30	21359.73
492.48	21411.22
492.66	21252.06
492.84	21057.80
493.01	21813.79
493.19	21790.39
493.37	21891.03
493.54	22068.91
493.72	22239.77
493.90	22288.92
494.08	22628.30
494.25	22796.82
494.43	22920.87
494.61	22831.93
494.79	23377.27
494.96	23278.97
495.14	22946.61
495.32	23438.12
495.49	23410.04
495.67	23597.28
495.85	24112.20
496.02	23934.32
496.20	24128.58
496.38	24217.52
496.55	24135.60
496.73	24823.72
496.91	24453.92
497.09	24725.42
497.26	24479.66
497.44	24945.43
497.62	24896.28
497.79	25099.90
497.97	24383.70
498.14	25015.65
498.32	25310.55
498.50	25193.53
498.67	25303.53
498.85	25757.60
499.03	25937.82
499.20	26005.69
499.38	26242.09
499.56	25879.30
499.73	25862.92
499.91	26185.91
500.08	26387.20
500.26	26183.57
500.44	26309.96
500.61	26391.88
500.79	26267.83
500.97	26429.33
501.14	27016.80
501.32	26969.99
501.49	27105.74
501.67	26974.67
501.84	27077.66
502.02	27309.37
502.20	27110.43
502.37	27686.20
502.55	27309.37
502.72	27786.84
502.90	28201.11
503.07	27536.40
503.25	27749.39
503.43	27920.25
503.60	27866.42
503.78	27880.46
503.95	28067.70
504.13	28229.20
504.30	28505.38
504.48	28201.11
504.65	28163.67
504.83	28802.63
505.01	28725.39
505.18	28732.42
505.36	29329.25
505.53	29167.76
505.71	29324.57
505.88	29607.78
506.06	29184.14
506.23	29415.85
506.41	29525.86
506.58	29146.69
506.76	29628.84
506.93	29661.61
507.11	29537.56
507.28	29277.76
507.46	29624.16
507.63	30061.84
507.81	30005.67
507.98	30015.03
508.16	30267.81
508.33	30368.45
508.50	30335.68
508.68	30347.39
508.85	30796.77
509.03	30361.43
509.20	30345.05
509.38	31470.84
509.55	31269.56
509.73	31091.68
509.90	30787.41
510.08	30883.37
510.25	31442.76
510.42	31182.96
510.60	31358.50
510.77	31409.99
510.95	31255.51
511.12	31381.90
511.30	31627.66
511.47	32011.51
511.64	32098.11
511.82	32325.14
511.99	31955.33
512.17	32051.30
512.34	31861.71
512.51	32341.52
512.69	32222.16
512.86	32395.35
513.04	32610.68
513.21	32650.47
513.38	32624.73
513.56	32650.47
513.73	32615.37
513.90	32444.51
514.08	32371.95
514.25	32725.37
514.43	32982.83
514.60	33078.79
514.77	32603.66
514.95	33289.44
515.12	32835.38
515.29	33097.52
515.47	33963.51
515.64	33897.98
515.81	33694.35
515.99	33558.60
516.16	33670.95
516.33	33441.57
516.51	33596.05
516.68	33261.35
516.85	33251.99
517.03	33212.20
517.20	33668.61
517.37	34209.27
517.54	34569.71
517.72	34139.05
517.89	33909.68
518.06	33848.83
518.24	33839.47
518.41	34082.88
518.58	34017.35
518.75	33982.24
518.93	34815.47
519.10	34366.09
519.27	34787.38
519.45	34892.71
519.62	34785.04
519.79	35384.22
519.96	35370.18
520.14	35131.44
520.31	35519.97
520.48	35175.91
520.65	35044.84
520.83	35079.95
521.00	35580.82
521.17	35555.08
521.34	35721.26
521.52	36268.94
521.69	36102.76
521.86	36065.31
522.03	35906.16
522.20	36180.00
522.38	35805.52
522.55	36226.81
522.72	36217.45
522.89	36388.31
523.07	36524.06
523.24	36376.61
523.41	36685.56
523.58	36273.62
523.75	36973.44
523.92	36870.46
524.10	37081.11
524.27	36818.97
524.44	37420.48
524.61	37062.38
524.78	37361.97
524.96	37577.30
525.13	37727.10
525.30	37912.00
525.47	37701.35
525.64	37502.40
525.81	37357.29
525.98	37411.12
526.16	37383.04
526.33	37359.63
526.50	37158.34
526.67	37256.65
526.84	37549.21
527.01	37163.03
527.18	37596.03
527.36	37820.72
527.53	38103.92
527.70	38022.00
527.87	38012.64
528.04	38134.35
528.21	38363.72
528.38	38213.93
528.55	38609.48
528.72	38799.06
528.89	38597.77
529.07	39129.08
529.24	38363.72
529.41	38946.51
529.58	38033.71
529.75	38464.36
529.92	38930.13
530.09	38609.48
530.26	38770.97
530.43	39409.94
530.60	39112.69
530.77	38532.24
530.94	39438.03
531.11	39044.82
531.28	38855.23
531.46	39145.46
531.63	39278.87
531.80	39093.97
531.97	39192.27
532.14	39250.78
532.31	39040.14
532.48	39246.10
532.65	39222.70
532.82	39810.17
532.99	39512.92
533.16	39555.05
533.33	39707.19
533.50	39948.26
533.67	39421.64
533.84	39557.39
534.01	40105.08
534.18	39707.19
534.35	40163.59
534.52	39959.97
534.69	40114.44
534.86	39976.35
535.03	40126.14
535.20	40390.62
535.37	40664.47
535.54	40456.16
535.71	40556.80
535.88	40622.34
536.05	40495.95
536.22	40769.79
536.38	40797.88
536.55	41001.50
536.72	40502.97
536.89	40498.29
537.06	40741.71
537.23	40711.28
537.40	40816.60
537.57	40741.71
537.74	41069.38
537.91	41535.15
538.08	40933.63
538.25	40849.37
538.42	40954.69
538.59	41514.08
538.75	40903.20
538.92	41462.59
539.09	41642.81
539.26	41003.85
539.43	41425.14
539.60	41368.97
539.77	41233.22
539.94	41598.34
540.11	40804.90
540.28	41160.66
540.44	41682.60
540.61	41071.72
540.78	41420.46
540.95	41067.04
541.12	41448.55
541.29	41240.24
541.46	41460.25
541.62	42099.22
541.79	41839.42
541.96	41450.89
542.13	41600.68
542.30	41874.52
542.47	41916.65
542.63	41523.44
542.80	41923.68
542.97	42234.97
543.14	42845.85
543.31	42277.10
543.48	42653.92
543.64	42918.40
543.81	42579.03
543.98	42703.07
544.15	42445.62
544.32	42623.50
544.48	43014.37
544.65	42845.85
544.82	43370.13
544.99	42087.51
545.16	42813.08
545.32	42426.89
545.49	43023.73
545.66	43276.51
545.83	43030.75
546.00	43089.26
546.16	43091.60
546.33	43040.11
546.50	42478.38
546.67	43138.41
546.83	42600.09
547.00	43107.99
547.17	42850.53
547.34	43175.86
547.50	42918.40
547.67	43311.61
547.84	43421.62
548.00	43798.44
548.17	43646.31
548.34	43292.89
548.51	43613.54
548.67	44009.09
548.84	43833.55
549.01	43573.75
549.18	43419.28
549.34	43831.21
549.51	43831.21
549.68	43866.32
549.84	44023.14
550.01	43672.06
550.18	43707.16
550.34	43702.48
550.51	43665.03
550.68	43655.67
550.84	43508.22
551.01	44041.86
551.18	43929.51
551.34	43683.76
551.51	44098.03
551.68	44418.69
551.84	44194.00
552.01	44306.34
552.18	43906.11
552.34	44243.15
552.51	44250.17
552.68	44353.15
552.84	44790.83
553.01	44388.26
553.18	44128.46
553.34	44341.45
553.51	44053.56
553.67	44236.12
553.84	44278.25
554.01	44676.15
554.17	44570.82
554.34	44652.74
554.51	44364.85
554.67	44954.67
554.84	44699.55
555.00	44149.53
555.17	44538.05
555.33	44886.79
555.50	44701.89
555.67	44722.96
555.83	44926.58
556.00	45069.36
556.16	44872.75
556.33	44858.71
556.50	45120.85
556.66	44425.71
556.83	44737.00
556.99	44718.28
557.16	45034.25
557.32	44966.37
557.49	45226.17
557.65	44692.53
557.82	44751.04
557.98	45219.15
558.15	45022.54
558.32	45095.10
558.48	45167.66
558.65	45137.23
558.81	45160.64
558.98	45158.30
559.14	45340.86
559.31	44957.01
559.47	45130.21
559.64	45167.66
559.80	45790.24
559.97	44912.54
560.13	45167.66
560.30	45401.71
560.46	45422.78
560.63	45708.32
560.79	45315.11
560.96	45605.34
561.12	45172.34
561.29	44648.06
561.45	45109.14
561.61	45329.16
561.78	45565.55
561.94	45209.79
562.11	45235.53
562.27	45727.05
562.44	45354.90
562.60	45572.57
562.77	45949.40
562.93	45769.18
563.10	45724.71
563.26	45481.29
563.42	45778.54
563.59	45691.94
563.75	45567.89
563.92	45631.08
564.08	45558.53
564.24	45860.46
564.41	45923.65
564.57	45904.93
564.74	45900.25
564.90	45808.96
565.07	45698.96
565.23	45745.77
565.39	45230.85
565.56	45617.04
565.72	45886.20
565.88	45914.29
566.05	46045.36
566.21	45621.72
566.38	45603.00
566.54	45492.99
566.70	46080.47
566.87	46131.96
567.03	45680.24
567.19	46237.28
567.36	45897.91
567.52	45684.92
567.68	46127.28
567.85	46007.91
568.01	45881.52
568.17	46190.47
568.34	46103.87
568.50	46050.04
568.66	45633.42
568.83	46012.59
568.99	45579.59
569.15	45851.09
569.32	45961.10
569.48	45434.48
569.64	46169.41
569.81	46279.41
569.97	45923.65
570.13	45839.39
570.30	45832.37
570.46	45661.51
570.62	45647.47
570.78	45640.45
570.95	45820.67
571.11	46520.49
571.27	46181.11
571.43	45626.40
571.60	45876.84
571.76	45979.82
571.92	45944.72
572.09	45998.55
572.25	46288.77
572.41	45832.37
572.57	46520.49
572.74	46616.45
572.90	46066.42
573.06	46136.64
573.22	46141.32
573.38	46103.87
573.55	45839.39
573.71	46653.90
573.87	45691.94
574.03	45996.21
574.20	46162.39
574.36	46124.94
574.52	46270.05
574.68	46059.40
574.84	46307.50
575.01	46288.77
575.17	45900.25
575.33	45935.35
575.49	45991.53
575.65	46398.78
575.82	46387.08
575.98	46162.39
576.14	46176.43
576.30	46246.65
576.46	45815.99
576.62	46082.81
576.79	45940.04
576.95	45614.70
577.11	46124.94
577.27	46555.60
577.43	46387.08
577.59	46085.15
577.75	46305.16
577.92	45633.42
578.08	45865.14
578.24	46057.06
578.40	45925.99
578.56	45958.76
578.72	45888.54
578.88	46312.18
579.04	46344.95
579.21	46094.51
579.37	45820.67
579.53	46216.22
579.69	46103.87
579.85	46340.27
580.01	46185.79
580.17	46157.70
580.33	46253.67
580.49	46529.85
580.65	46391.76
580.82	46590.70
580.98	45766.84
581.14	46216.22
581.30	46569.64
581.46	46539.21
581.62	46305.16
581.78	46588.36
581.94	46429.21
582.10	46387.08
582.26	46319.20
582.42	46469.00
582.58	46471.34
582.74	46286.43
582.90	45996.21
583.06	46506.44
583.22	46307.50
583.38	46574.32
583.54	46459.63
583.70	46148.34
583.86	46120.26
584.02	45846.41
584.18	46160.05
584.34	45951.74
584.50	46745.18
584.66	46438.57
584.82	46162.39
584.98	46232.60
585.14	46057.06
585.30	46450.27
585.46	46314.52
585.62	46143.66
585.78	46038.34
585.94	45921.31
586.10	46300.48
586.26	46363.67
586.42	46363.67
586.58	46595.38
586.74	46330.90
586.90	46007.91
587.06	45834.71
587.22	46136.64
587.38	45968.12
587.54	46642.20
587.70	46529.85
587.86	46429.21
588.02	46263.03
588.18	46604.75
588.34	45909.61
588.49	45951.74
588.65	45769.18
588.81	45783.22
588.97	45937.69
589.13	46078.13
589.29	46192.81
589.45	46263.03
589.61	46412.82
589.77	46340.27
589.93	46614.11
590.08	46780.29
590.24	46443.25
590.40	46431.55
590.56	46616.45
590.72	46909.02
590.88	45928.33
591.04	46153.02
591.20	46843.48
591.35	46581.34
591.51	46684.33
591.67	46546.23
591.83	46256.01
591.99	46370.69
592.15	46717.09
592.31	46387.08
592.46	46887.95
592.62	46412.82
592.78	46461.97
592.94	46543.89
593.10	46644.54
593.26	46813.05
593.41	46543.89
593.57	47035.41
593.73	46438.57
593.89	46532.19
594.05	46450.27
594.20	46553.26
594.36	46607.09
594.52	46749.86
594.68	46560.28
594.84	46164.73
594.99	46873.91
595.15	46644.54
595.31	46817.74
595.47	46525.17
595.62	46387.08
595.78	46656.24
595.94	46719.43
596.10	46721.77
596.25	46918.38
596.41	46803.69
596.57	46529.85
596.73	46747.52
596.88	46239.62
597.04	46553.26
597.20	46415.16
597.36	46485.38
597.51	47096.26
597.67	46813.05
597.83	46742.84
597.99	46885.61
598.14	46712.41
598.30	46183.45
598.46	46452.61
598.61	46878.59
598.77	46597.73
598.93	46183.45
599.09	46864.55
599.24	46869.23
599.40	46590.70
599.56	46457.29
599.71	46766.24
599.87	46876.25
600.03	46562.62
600.18	46391.76
600.34	46206.86
600.50	46440.91
600.65	46773.27
600.81	46511.13
600.97	46618.79
601.12	47100.94
601.28	47004.98
601.44	46630.49
601.59	46569.64
601.75	45645.13
601.91	46422.19
602.06	46529.85
602.22	46579.00
602.37	46326.22
602.53	46588.36
602.69	46892.63
602.84	46639.86
603.00	46749.86
603.16	46663.26
603.31	46625.81
603.47	46213.88
603.62	46581.34
603.78	46415.16
603.94	46553.26
604.09	46796.67
604.25	46777.95
604.40	46927.74
604.56	46583.68
604.71	46672.62
604.87	46646.88
605.03	46209.20
605.18	46710.07
605.34	46347.29
605.49	46312.18
605.65	46391.76
605.80	46841.14
605.96	46185.79
606.12	46511.13
606.27	46693.69
606.43	46401.12
606.58	46663.26
606.74	45818.33
606.89	46529.85
607.05	46616.45
607.20	46415.16
607.36	46476.02
607.51	46611.77
607.67	46122.60
607.82	46452.61
607.98	46504.10
608.13	46127.28
608.29	46368.35
608.44	45954.08
608.60	46185.79
608.75	46216.22
608.91	45872.16
609.06	45897.91
609.22	46508.79
609.37	45626.40
609.53	46239.62
609.68	46279.41
609.84	46087.49
609.99	46340.27
610.15	45715.34
610.30	46101.53
610.46	45895.56
610.61	46443.25
610.76	45977.48
610.92	46288.77
611.07	46033.66
611.23	46258.35
611.38	45958.76
611.54	45418.10
611.69	46066.42
611.84	45886.20
612.00	46110.89
612.15	45593.64
612.31	45954.08
612.46	45701.30
612.62	45862.80
612.77	45963.44
612.92	45951.74
613.08	46244.30
613.23	45825.35
613.39	45635.77
613.54	45441.50
613.69	45595.98
613.85	45511.72
614.00	45441.50
614.15	45823.01
614.31	45818.33
614.46	46052.38
614.62	45336.18
614.77	45705.98
614.92	45979.82
615.08	45387.67
615.23	45689.60
615.38	45507.04
615.54	44748.70
615.69	45350.22
615.84	44947.65
616.00	45464.91
616.15	45741.09
616.30	45254.26
616.46	44889.13
616.61	44748.70
616.76	45476.61
616.92	45336.18
617.07	44964.03
617.22	45223.83
617.37	45237.87
617.53	44847.00
617.68	45570.23
617.83	45319.79
617.99	45404.05
618.14	45034.25
618.29	45481.29
618.45	44603.59
618.60	44926.58
618.75	45017.86
618.90	45174.68
619.06	45223.83
619.21	45064.67
619.36	45331.50
619.51	45237.87
619.67	45038.93
619.82	44093.35
619.97	44729.98
620.12	44804.88
620.28	44460.82
620.43	44416.35
620.58	44720.62
620.73	44795.51
620.89	44376.56
621.04	44385.92
621.19	44414.01
621.34	44870.41
621.49	44264.21
621.65	43992.71
621.80	44325.07
621.95	44205.70
622.10	44479.54
622.25	44360.17
622.41	44105.06
622.56	44666.78
622.71	44650.40
622.86	44353.15
623.01	44268.89
623.16	44411.67
623.32	44126.12
623.47	44493.58
623.62	44266.55
623.77	44229.10
623.92	44072.29
624.07	43641.63
624.23	43723.55
624.38	43880.36
624.53	43615.88
624.68	43803.13
624.83	43847.60
624.98	44037.18
625.13	43861.64
625.29	43826.53
625.44	43978.67
625.59	43487.15
625.74	43606.52
625.89	43213.31
626.04	43566.73
626.19	43524.60
626.34	43672.06
626.49	43278.85
626.65	43819.51
626.80	43597.16
626.95	43412.26
627.10	43185.22
627.25	43199.27
627.40	42965.21
627.55	42780.31
627.70	42724.14
627.85	43129.05
628.00	43276.51
628.15	43061.18
628.30	42862.23
628.45	43093.94
628.60	42941.81
628.76	43250.76
628.91	43419.28
629.06	42792.01
629.21	43054.15
629.36	43234.38
629.51	42548.60
629.66	42735.84
629.81	42761.59
629.96	43271.82
630.11	42843.51
630.26	43138.41
630.41	42841.17
630.56	42820.10
630.71	43133.73
630.86	42595.41
631.01	42349.65
631.16	42377.74
631.31	42464.34
631.46	42534.56
631.61	42176.45
631.76	42284.12
631.91	42597.75
632.06	42553.28
632.21	42742.86
632.36	42995.64
632.51	42431.57
632.66	42679.67
632.81	42073.47
632.96	42227.95
633.10	42110.92
633.25	42223.26
633.40	42263.05
633.55	42405.83
633.70	42677.33
633.85	41881.55
634.00	41853.46
634.15	42174.11
634.30	42316.89
634.45	42424.55
634.60	41979.85
634.75	42167.09
634.90	41462.59
635.05	41792.61
635.19	41684.94
635.34	41923.68
635.49	41860.48
635.64	41722.39
635.79	41792.61
635.94	41764.52
636.09	42071.13
636.24	41710.69
636.39	41556.21
636.53	41855.80
636.68	41261.30
636.83	41434.50
636.98	41656.85
637.13	41195.77
637.28	41766.86
637.43	41621.75
637.57	41951.76
637.72	42021.98
637.87	41670.90
638.02	41586.64
638.17	41654.51
638.32	41249.60
638.46	41155.98
638.61	40935.97
638.76	41130.23
638.91	41333.86
639.06	41003.85
639.20	41256.62
639.35	41427.48
639.50	41221.52
639.65	41085.76
639.80	41464.93
639.94	40975.76
640.09	40882.14
640.24	41031.93
640.39	40966.40
640.54	40889.16
640.68	40971.08
640.83	40954.69
640.98	40898.52
641.13	40617.66
641.27	40950.01
641.42	40210.40
641.57	40877.46
641.72	40360.20
641.86	40128.48
642.01	40701.92
642.16	40388.28
642.31	39959.97
642.45	40847.03
642.60	40126.14
642.75	40170.61
642.90	40411.69
643.04	40584.89
643.19	40570.85
643.34	40765.11
643.48	40486.59
643.63	40453.82
643.78	40301.68
643.93	40292.32
644.07	40048.91
644.22	40325.09
644.37	40105.08
644.51	40491.27
644.66	40542.76
644.81	40416.37
644.95	40039.54
645.10	40165.93
645.25	40547.44
645.39	40399.99
645.54	40690.21
645.69	40109.76
645.83	39990.39
645.98	40350.84
646.13	40135.51
646.27	40119.12
646.42	39793.79
646.57	40184.66
646.71	39964.65
646.86	39955.29
647.00	39775.06
647.15	39763.36
647.30	39868.69
647.44	39854.64
647.59	39529.31
647.74	39686.12
647.88	39641.65
648.03	39941.24
648.17	39321.00
648.32	39257.81
648.47	39356.11
648.61	39531.65
648.76	39648.68
648.90	39423.98
649.05	39590.16
649.20	39756.34
649.34	39702.51
649.49	39456.75
649.63	39508.24
649.78	39625.27
649.92	39407.60
650.07	39646.33
650.21	39061.20
650.36	39421.64
650.51	39236.74
650.65	39697.83
650.80	39494.20
650.94	39269.51
651.09	39435.69
651.23	38953.54
651.38	38972.26
651.52	38972.26
651.67	38920.77
651.81	38679.69
651.96	39084.61
652.10	38794.38
652.25	38635.22
652.39	38892.68
652.54	38965.24
652.68	39112.69
652.83	39100.99
652.97	39063.54
653.12	39098.65
653.26	38960.56
653.41	38646.93
653.55	38955.88
653.70	38658.63
653.84	38815.44
653.99	38831.83
654.13	39077.58
654.27	38649.27
654.42	38443.30
654.56	38813.10
654.71	38733.53
654.85	38543.94
655.00	38520.54
655.14	38639.90
655.29	37883.91
655.43	38188.18
655.57	37612.41
655.72	38082.86
655.86	37968.17
656.01	37930.72
656.15	37724.75
656.30	37584.32
656.44	37970.51
656.58	37816.04
656.73	37853.48
656.87	37603.05
657.01	37546.87
657.16	37841.78
657.30	37308.14
657.45	37677.94
657.59	37806.67
657.73	37684.97
657.88	37916.68
658.02	37057.70
658.16	37729.44
658.31	37773.91
658.45	37769.22
658.60	37481.34
658.74	37294.10
658.88	37797.31
659.03	37188.77
659.17	37476.66
659.31	37687.31
659.46	37106.85
659.60	37205.16
659.74	36900.89
659.89	36882.16
660.03	37008.55
660.17	37359.63
660.32	37067.06
660.46	36959.40
660.60	37343.25
660.74	37366.65
660.89	36875.14
661.03	36652.79
661.17	36526.40
661.32	36114.47
661.46	36854.08
661.60	36409.37
661.74	36643.43
661.89	36851.73
662.03	36624.70
662.17	36554.49
662.31	36470.23
662.46	36549.81
662.60	36575.55
662.74	36346.18
662.88	36383.63
663.03	36025.53
663.17	36203.41
663.31	36290.01
663.45	36175.32
663.60	36360.22
663.74	36088.72
663.88	35793.81
664.02	36037.23
664.17	36121.49
664.31	35438.05
664.45	35948.29
664.59	35702.53
664.73	35393.58
664.88	35894.46
665.02	35363.15
665.16	35442.73
665.30	35445.07
665.44	35615.93
665.59	35447.41
665.73	35288.26
665.87	34686.74
666.01	35028.46
666.15	35379.54
666.29	35122.08
666.44	35297.62
666.58	34953.56
666.72	34911.43
666.86	35283.58
667.00	35267.19
667.14	34756.96
667.28	34572.05
667.43	34579.07
667.57	34852.92
667.71	34373.11
667.85	34501.84
667.99	34199.91
668.13	34267.78
668.27	34419.92
668.41	34527.58
668.56	33937.77
668.70	34679.72
668.84	34412.90
668.98	33862.87
669.12	34249.06
669.26	34136.71
669.40	34405.88
669.54	33979.90
669.68	34061.82
669.82	33518.81
669.96	33736.48
670.10	33305.82
670.25	33626.48
670.39	33532.86
670.53	33509.45
670.67	33310.50
670.81	33715.42
670.95	33567.96
671.09	33638.18
671.23	32992.19
671.37	33497.75
671.51	33640.52
671.65	33074.11
671.79	32786.22
671.93	32847.08
672.07	33383.06
672.21	32790.91
672.35	32638.77
672.49	32893.89
672.63	32978.15
672.77	32865.80
672.91	32528.77
673.05	32416.42
673.19	32325.14
673.33	32477.27
673.47	32219.81
673.61	32109.81
673.75	31735.32
673.89	31618.30
674.03	31709.58
674.17	32002.14
674.31	31718.94
674.45	31793.84
674.59	31831.29
674.73	31826.60
674.87	31615.96
675.01	31632.34
675.15	31466.16
675.29	31613.62
675.43	31122.10
675.56	31571.49
675.70	31405.31
675.84	31363.18
675.98	30359.09
676.12	30607.19
676.26	30518.25
676.40	30345.05
676.54	30586.12
676.68	30955.93
676.82	29954.18
676.96	30305.26
677.10	30256.11
677.23	30015.03
677.37	30024.39
677.51	29668.63
677.65	29858.21
677.79	29802.04
677.93	29823.11
678.07	29649.91
678.21	29397.13
678.34	29584.37
678.48	29221.59
678.62	29228.61
678.76	29057.75
678.90	28732.42
679.04	28636.45
679.18	29146.69
679.31	28678.58
679.45	28556.88
679.59	28694.97
679.73	29015.62
679.87	28381.34
680.00	28594.32
680.14	28386.02
680.28	28521.77
680.42	28254.95
680.56	28144.94
680.70	28350.91
680.83	27908.55
680.97	27452.14
681.11	27868.76
681.25	27637.05
681.39	27583.21
681.52	27351.50
681.66	27360.86
681.80	27316.39
681.94	27068.30
682.07	27117.45
682.21	27098.72
682.35	26979.36
682.49	26602.53
682.62	27087.02
682.76	26916.16
682.90	26654.02
683.04	26710.19
683.17	26962.97
683.31	26391.88
683.45	26689.13
683.59	26141.44
683.72	25998.67
683.86	26178.89
684.00	25778.66
684.13	26274.85
684.27	25977.61
684.41	25488.43
684.55	25378.43
684.68	25413.54
684.82	24767.55
684.96	25282.47
685.09	25401.83
685.23	25041.39
685.37	24980.54
685.50	24989.90
685.64	25378.43
685.78	24601.37
685.91	24699.67
686.05	24666.91
686.19	24430.51
686.32	24580.31
686.46	24081.77
686.60	23840.70
686.73	24023.26
686.87	23517.70
687.01	23489.62
687.14	23576.22
687.28	23351.52
687.42	23513.02
687.55	23339.82
687.69	23293.01
687.82	23297.69
687.96	23285.99
688.10	23180.67
688.23	23077.68
688.37	22665.75
688.50	22750.01
688.64	22817.88
688.78	22796.82
688.91	22417.65
689.05	22647.02
689.18	22284.24
689.32	22033.80
689.46	22335.73
689.59	22455.10
689.73	22370.84
689.86	22251.47
690.00	22352.12
690.13	22078.27
690.27	21867.63
690.41	21797.41
690.54	21834.86
690.68	21404.20
690.81	21483.78
690.95	21582.08
691.08	21521.23
691.22	21476.76
691.35	20961.84
691.49	21392.50
691.62	21081.21
691.76	21238.02
691.89	21160.78
692.03	20996.95
692.16	20982.90
692.30	21233.34
692.43	20568.63
692.57	20826.09
692.70	20716.08
692.84	20669.27
692.97	20102.86
693.11	20306.49
693.24	20250.32
693.38	20077.12
693.51	20013.92
693.65	20039.67
693.78	19976.47
693.92	20009.24
694.05	19967.11
694.19	19559.86
694.32	19536.45
694.45	19623.05
694.59	19419.42
694.72	19403.04
694.86	19236.86
694.99	18890.46
695.13	18848.33
695.26	18967.70
695.39	18719.60
695.53	18764.07
695.66	19007.49
695.80	18721.95
695.93	18412.99
696.07	18520.66
696.20	18799.18
696.33	18293.63
696.47	18328.74
696.60	18658.75
696.73	18359.16
696.87	18298.31
697.00	18036.17
697.14	18068.94
697.27	18082.98
697.40	17996.38
697.54	17605.51
697.67	17734.24
697.80	17727.22
697.94	17469.76
698.07	17481.46
698.21	17352.73
698.34	17322.30
698.47	17247.41
698.61	16730.15
698.74	17034.42
698.87	17109.32
699.01	16737.17
699.14	16933.78
699.27	16908.03
699.40	16732.49
699.54	16411.84
699.67	16196.51
699.80	16460.99
699.94	16688.02
700.07	16238.64
700.20	16248.00
700.34	16154.38
700.47	16114.59
700.60	16318.22
700.73	16112.25
700.87	16196.51
701.00	15946.07
701.13	15887.56
701.26	15597.33
701.40	15866.49
701.53	15599.67
701.66	15737.76
701.79	15410.09
701.93	15349.23
702.06	15351.57
702.19	15122.20
702.32	15101.14
702.46	15021.56
702.59	15150.29
702.72	15396.04
702.85	15199.44
702.99	15035.60
703.12	15037.94
703.25	14801.55
703.38	14810.91
703.51	14523.02
703.65	14888.15
703.78	14478.55
703.91	14478.55
704.04	14228.12
704.17	14300.67
704.31	14370.89
704.44	13855.97
704.57	13900.44
704.70	13884.06
704.83	13865.33
704.96	14057.26
705.10	14085.34
705.23	14101.73
>>>>>End Processed Spectral Data<<<<<
