SpectraSuite Data File
++++++++++++++++++++++++++++++++++++
Date: Fri Oct 25 10:44:28 EDT 2013
User: price-jones
Dark Spectrum Present: No
Reference Spectrum Present: No
Number of Sampled Component Spectra: 1
Spectrometers: USB2+H05261
Integration Time (usec): 100000 (USB2+H05261)
Spectra Averaged: 1 (USB2+H05261)
Boxcar Smoothing: 0 (USB2+H05261)
Correct for Electrical Dark: No (USB2+H05261)
Strobe/Lamp Enabled: No (USB2+H05261)
Correct for Detector Non-linearity: No (USB2+H05261)
Correct for Stray Light: No (USB2+H05261)
Number of Pixels in Processed Spectrum: 2048
>>>>>Begin Processed Spectral Data<<<<<
365.73	161.50
365.92	161.50
366.12	161.50
366.32	53.83
366.52	37.45
366.72	0.00
366.91	16.38
367.11	51.49
367.31	39.79
367.51	67.88
367.70	28.09
367.90	72.56
368.10	0.00
368.30	58.51
368.49	14.04
368.69	51.49
368.89	32.77
369.09	16.38
369.28	84.26
369.48	72.56
369.68	67.88
369.87	91.28
370.07	44.47
370.27	107.66
370.47	248.10
370.66	369.80
370.86	407.25
371.06	470.45
371.25	451.72
371.45	435.34
371.65	393.21
371.84	430.66
372.04	449.38
372.24	505.56
372.44	575.77
372.63	557.05
372.83	531.30
373.03	484.49
373.22	550.03
373.42	500.87
373.62	531.30
373.81	538.32
374.01	589.82
374.21	613.22
374.40	543.00
374.60	545.34
374.79	486.83
374.99	636.63
375.19	622.58
375.38	617.90
375.58	582.79
375.78	578.11
375.97	622.58
376.17	641.31
376.37	547.69
376.56	550.03
376.76	599.18
376.95	566.41
377.15	697.48
377.35	613.22
377.54	737.27
377.74	592.16
377.93	596.84
378.13	685.78
378.33	711.52
378.52	636.63
378.72	624.92
378.91	662.37
379.11	667.05
379.31	718.54
379.50	641.31
379.70	704.50
379.89	760.67
380.09	702.16
380.28	650.67
380.48	725.57
380.68	664.71
380.87	653.01
381.07	596.84
381.26	779.40
381.46	650.67
381.65	699.82
381.85	697.48
382.04	664.71
382.24	718.54
382.43	667.05
382.63	748.97
382.83	732.59
383.02	732.59
383.22	795.78
383.41	713.86
383.61	779.40
383.80	795.78
384.00	713.86
384.19	779.40
384.39	833.23
384.58	777.06
384.78	816.85
384.97	926.85
385.17	821.53
385.36	821.53
385.56	802.80
385.75	858.98
385.95	854.30
386.14	823.87
386.34	800.46
386.53	823.87
386.72	786.42
386.92	842.59
387.11	849.61
387.31	875.36
387.50	856.64
387.70	870.68
387.89	882.38
388.09	905.79
388.28	854.30
388.48	940.90
388.67	908.13
388.86	964.30
389.06	894.08
389.25	915.15
389.45	978.34
389.64	873.02
389.84	992.39
390.03	1004.09
390.22	1062.60
390.42	1039.20
390.61	926.85
390.81	1057.92
391.00	994.73
391.19	1090.69
391.39	1128.14
391.58	1022.81
391.78	1125.80
391.97	1020.47
392.16	1020.47
392.36	1043.88
392.55	1067.28
392.75	1034.52
392.94	985.37
393.13	1160.91
393.33	1071.97
393.52	1074.31
393.71	1032.18
393.91	1081.33
394.10	1090.69
394.29	1142.18
394.49	1186.65
394.68	1184.31
394.88	1158.57
395.07	1357.51
395.26	1242.82
395.46	1210.06
395.65	1310.70
395.84	1149.20
396.04	1228.78
396.23	1184.31
396.42	1198.35
396.62	1179.63
396.81	1205.38
397.00	1249.85
397.19	1266.23
397.39	1294.32
397.58	1390.28
397.77	1303.68
397.97	1469.86
398.16	1418.36
398.35	1495.60
398.55	1476.88
398.74	1488.58
398.93	1504.96
399.12	1418.36
399.32	1565.82
399.51	1563.48
399.70	1504.96
399.90	1600.93
400.09	1696.89
400.28	1668.80
400.47	1654.76
400.67	1680.50
400.86	1654.76
401.05	1673.48
401.24	1734.34
401.44	1790.51
401.63	1696.89
401.82	1696.89
402.01	1743.70
402.21	1771.79
402.40	1783.49
402.59	1715.61
402.78	1764.76
402.97	1776.47
403.17	1753.06
403.36	1832.64
403.55	1912.22
403.74	1877.11
403.93	1874.77
404.13	1916.90
404.32	1930.94
404.51	1806.89
404.70	1888.81
404.89	1851.36
405.09	2003.50
405.28	1984.77
405.47	1919.24
405.66	2017.54
405.85	2062.01
406.05	1994.14
406.24	1975.41
406.43	1947.33
406.62	2106.48
406.81	2190.74
407.00	2050.31
407.20	2125.21
407.39	2106.48
407.58	2186.06
407.77	2256.28
407.96	2202.44
408.15	2331.17
408.34	2223.51
408.54	2321.81
408.73	2427.14
408.92	2361.60
409.11	2385.01
409.30	2399.05
409.49	2270.32
409.68	2277.34
409.87	2186.06
410.07	2305.43
410.26	2424.80
410.45	2431.82
410.64	2495.01
410.83	2504.37
411.02	2562.89
411.21	2654.17
411.40	2495.01
411.59	2590.97
411.78	2656.51
411.98	2679.91
412.17	2726.72
412.36	2700.98
412.55	2818.00
412.74	2829.71
412.93	2796.94
413.12	2803.96
413.31	2949.08
413.50	2848.43
413.69	2878.86
413.88	3007.59
414.07	2944.39
414.26	2881.20
414.45	2970.14
414.64	3023.97
414.83	3136.32
415.02	3143.34
415.22	3183.13
415.41	3159.72
415.60	3206.53
415.79	3297.81
415.98	3379.73
416.17	3349.31
416.36	3279.09
416.55	3243.98
416.74	3421.86
416.93	3302.50
417.12	3243.98
417.31	3435.91
417.50	3405.48
417.69	3454.63
417.88	3410.16
418.07	3412.50
418.26	3445.27
418.45	3449.95
418.64	3669.96
418.83	3552.93
419.02	3501.44
419.21	3592.72
419.39	3590.38
419.58	3555.27
419.77	3623.15
419.96	3761.24
420.15	3737.84
420.34	3840.82
420.53	3803.37
420.72	3913.38
420.91	3782.31
421.10	3761.24
421.29	3978.91
421.48	3899.33
421.67	3892.31
421.86	3836.14
422.05	3850.18
422.24	3742.52
422.43	3822.09
422.61	3868.91
422.80	4044.45
422.99	3934.44
423.18	4053.81
423.37	4011.68
423.56	3967.21
423.75	3974.23
423.94	3927.42
424.13	3723.79
424.32	3859.54
424.50	4131.05
424.69	4032.74
424.88	4009.34
425.07	3995.29
425.26	3974.23
425.45	3999.98
425.64	4065.51
425.83	4002.32
426.01	4079.55
426.20	4053.81
426.39	4014.02
426.58	4023.38
426.77	3920.40
426.96	4028.06
427.15	4067.85
427.33	4098.28
427.52	4067.85
427.71	4168.49
427.90	4229.35
428.09	4318.29
428.28	4142.75
428.46	4205.94
428.65	4145.09
428.84	4365.10
429.03	4255.09
429.22	4248.07
429.40	4177.86
429.59	4245.73
429.78	3896.99
429.97	3974.23
430.16	4156.79
430.34	4177.86
430.53	4081.89
430.72	4318.29
430.91	4355.74
431.10	4346.37
431.28	4533.62
431.47	4671.71
431.66	4711.50
431.85	4582.77
432.03	4730.22
432.22	4753.63
432.41	4730.22
432.60	4711.50
432.79	4835.55
432.97	4798.10
433.16	4828.53
433.35	4655.33
433.54	4636.60
433.72	4765.33
433.91	4683.41
434.10	4816.82
434.28	4767.67
434.47	4830.87
434.66	5041.51
434.85	4994.70
435.03	5050.88
435.22	5022.79
435.41	5097.69
435.59	5064.92
435.78	5060.24
435.97	5181.95
436.16	5158.54
436.34	5203.01
436.53	5121.09
436.72	5303.65
436.90	5055.56
437.09	5296.63
437.28	5095.35
437.46	5188.97
437.65	5313.02
437.84	5172.58
438.02	5217.05
438.21	5348.12
438.40	5095.35
438.58	5362.17
438.77	5614.95
438.96	5547.07
439.14	5509.62
439.33	5582.18
439.52	5724.95
439.70	5717.93
439.89	5788.14
440.08	5738.99
440.26	5797.51
440.45	5746.02
440.63	5895.81
440.82	5912.19
441.01	6090.07
441.19	5968.37
441.38	6132.20
441.57	6087.73
441.75	6237.53
441.94	6438.81
442.12	6478.60
442.31	6511.37
442.50	6445.84
442.68	6291.36
442.87	6530.09
443.05	6469.24
443.24	6719.68
443.43	6518.39
443.61	6427.11
443.80	6665.85
443.98	6394.34
444.17	6221.14
444.35	6649.46
444.54	6785.21
444.73	6607.33
444.91	6569.88
445.10	6443.49
445.28	6560.52
445.47	6544.14
445.65	6420.09
445.84	6546.48
446.02	6640.10
446.21	6677.55
446.39	6424.77
446.58	6698.61
446.77	6965.43
446.95	6490.31
447.14	6738.40
447.32	6665.85
447.51	6806.28
447.69	6750.10
447.88	6698.61
448.06	6626.06
448.25	6663.51
448.43	6963.09
448.62	6532.44
448.80	6705.63
448.99	6979.48
449.17	6881.18
449.36	6888.20
449.54	6913.94
449.73	7068.42
449.91	7180.76
450.10	7026.29
450.28	7314.17
450.46	7199.49
450.65	7405.46
450.83	7382.05
451.02	7143.32
451.20	7405.46
451.39	7344.60
451.57	7372.69
451.76	7157.36
451.94	7243.96
452.13	7332.90
452.31	7169.06
452.49	7089.48
452.68	7178.42
452.86	7204.17
453.05	7377.37
453.23	7330.56
453.42	7267.36
453.60	7506.10
453.78	7499.08
453.97	7576.31
454.15	7391.41
454.34	7555.25
454.52	7646.53
454.70	7719.09
454.89	7714.41
455.07	7627.81
455.26	7751.85
455.44	7903.99
455.62	7644.19
455.81	7906.33
455.99	7880.58
456.17	7836.11
456.36	8049.10
456.54	7857.18
456.73	7896.97
456.91	8203.58
457.09	8098.25
457.28	8168.47
457.46	8058.46
457.64	8191.88
457.83	8329.97
458.01	8126.34
458.19	8290.18
458.38	8049.10
458.56	8290.18
458.74	8229.32
458.93	8475.08
459.11	8283.16
459.29	8365.07
459.48	8568.70
459.66	8468.06
459.84	8683.39
460.03	8695.09
460.21	8503.17
460.39	8517.21
460.57	8601.47
460.76	8500.83
460.94	8706.79
461.12	8734.88
461.31	8753.60
461.49	8638.92
461.67	8931.48
461.85	8821.48
462.04	8870.63
462.22	8847.22
462.40	9137.45
462.59	8971.27
462.77	9053.19
462.95	9043.83
463.13	8814.46
463.32	9046.17
463.50	8842.54
463.68	9121.07
463.86	9074.26
464.05	8992.34
464.23	8975.95
464.41	9123.41
464.59	8854.25
464.78	9390.23
464.96	9130.43
465.14	9076.60
465.32	9207.67
465.50	9399.59
465.69	9334.06
465.87	9125.75
466.05	9139.79
466.23	9308.31
466.41	9282.56
466.60	9413.63
466.78	9139.79
466.96	9231.07
467.14	9495.55
467.32	9439.38
467.51	9378.53
467.69	9331.72
467.87	9401.93
468.05	9596.20
468.23	9689.82
468.41	9687.48
468.60	9680.46
468.78	9764.72
468.96	9568.11
469.14	9907.49
469.32	9811.53
469.50	9486.19
469.69	9895.78
469.87	10019.83
470.05	9944.94
470.23	9902.81
470.41	10101.75
470.59	10136.86
470.77	9921.53
470.95	10017.49
471.14	10045.58
471.32	9809.19
471.50	10415.38
471.68	10312.40
471.86	10520.71
472.04	10338.15
472.22	10810.93
472.40	10544.11
472.58	10307.72
472.77	10677.52
472.95	10499.64
473.13	10937.32
473.31	10579.22
473.49	10523.05
473.67	10719.65
473.85	10883.49
474.03	11089.46
474.21	10946.69
474.39	11068.39
474.57	11098.82
474.75	11260.32
474.93	11325.85
475.12	11384.37
475.30	11171.38
475.48	11166.70
475.66	11447.56
475.84	11372.66
476.02	11515.44
476.20	11548.20
476.38	11632.46
476.56	12070.14
476.74	12046.74
476.92	11974.18
477.10	11723.74
477.28	12149.72
477.46	12081.85
477.64	12379.09
477.82	12552.29
478.00	12657.62
478.18	12704.43
478.36	12681.02
478.54	12802.73
478.72	12847.20
478.90	12870.61
479.08	13125.72
479.26	13343.39
479.44	13170.19
479.62	13287.22
479.80	13441.70
479.98	13380.84
480.16	13947.25
480.34	13799.80
480.52	13909.80
480.70	14054.92
480.88	13792.78
481.06	13998.74
481.24	14185.99
481.41	14305.35
481.59	14530.05
481.77	14525.36
481.95	14586.22
482.13	14586.22
482.31	14663.46
482.49	14958.36
482.67	14949.00
482.85	15215.82
483.03	15281.36
483.21	15314.13
483.39	15599.67
483.57	15358.60
483.74	15421.79
483.92	15868.83
484.10	15758.83
484.28	16166.08
484.46	16278.43
484.64	16444.60
484.82	16004.58
485.00	16545.25
485.18	16613.12
485.35	16868.24
485.53	16322.90
485.71	16301.83
485.89	16947.82
486.07	16475.03
486.25	16879.94
486.43	17003.99
486.61	17231.02
486.78	17497.84
486.96	17500.19
487.14	18082.98
487.32	18073.62
487.50	18024.47
487.68	18263.20
487.85	18668.11
488.03	18764.07
488.21	18796.84
488.39	18883.44
488.57	18801.52
488.75	18862.38
488.92	19597.31
489.10	19833.70
489.28	19419.42
489.46	19819.66
489.64	19950.73
489.81	20519.48
489.99	20269.04
490.17	20472.67
490.35	20601.40
490.53	20521.82
490.70	20615.44
490.88	20851.83
491.06	20872.90
491.24	20912.69
491.41	21064.82
491.59	20805.02
491.77	20863.54
491.95	21443.99
492.13	21137.38
492.30	21687.40
492.48	21919.12
492.66	22005.72
492.84	22033.80
493.01	22335.73
493.19	22169.55
493.37	22298.28
493.54	22530.00
493.72	22845.97
493.90	23035.55
494.08	22862.35
494.25	23311.74
494.43	23255.56
494.61	23903.89
494.79	23882.83
494.96	23608.98
495.14	23522.38
495.32	23917.93
495.49	23868.78
495.67	24156.67
495.85	24507.75
496.02	24367.32
496.20	24922.02
496.38	24465.62
496.55	25006.28
496.73	25329.28
496.91	24538.18
497.09	24985.22
497.26	25172.46
497.44	25350.34
497.62	25713.13
497.79	25535.24
497.97	25476.73
498.14	25528.22
498.32	26061.87
498.50	25797.38
498.67	26434.01
498.85	26450.39
499.03	26515.93
499.20	26742.96
499.38	26771.05
499.56	26541.68
499.73	26967.65
499.91	26967.65
500.08	26965.31
500.26	26721.90
500.44	27049.57
500.61	26888.07
500.79	27049.57
500.97	27075.32
501.14	27421.72
501.32	27192.34
501.49	27417.04
501.67	27384.27
501.84	27878.12
502.02	27578.53
502.20	27955.36
502.37	28039.62
502.55	27707.26
502.72	28205.80
502.90	28290.06
503.07	28318.14
503.25	28556.88
503.43	28257.29
503.60	28397.72
503.78	28404.74
503.95	28390.70
504.13	28819.02
504.30	28779.23
504.48	29177.12
504.65	29118.60
504.83	29521.18
505.01	29247.33
505.18	29200.52
505.36	29944.81
505.53	29593.73
505.71	29937.79
505.88	30022.05
506.06	29310.53
506.23	29909.71
506.41	29483.73
506.58	29998.65
506.76	30038.44
506.93	30094.61
507.11	30225.68
507.28	30511.22
507.46	29862.90
507.63	30284.19
507.81	30679.74
507.98	30139.08
508.16	30822.51
508.33	30560.37
508.50	30623.57
508.68	31386.58
508.85	31817.24
509.03	31407.65
509.20	31206.36
509.38	31569.15
509.55	31491.91
509.73	31665.11
509.90	31737.66
510.08	31599.57
510.25	31681.49
510.42	31906.18
510.60	32091.09
510.77	32137.90
510.95	32327.48
511.12	32163.64
511.30	32432.80
511.47	32858.78
511.64	32547.49
511.82	32767.50
511.99	32549.83
512.17	32687.92
512.34	32395.35
512.51	33179.43
512.69	32765.16
512.86	32870.48
513.04	33539.88
513.21	33123.26
513.38	32872.82
513.56	33120.92
513.73	32638.77
513.90	33017.94
514.08	33127.94
514.25	33209.86
514.43	33659.24
514.60	33640.52
514.77	33635.84
514.95	33593.71
515.12	33998.62
515.29	33839.47
515.47	34171.82
515.64	34361.40
515.81	34115.65
515.99	34117.99
516.16	33881.60
516.33	33797.34
516.51	33680.31
516.68	33666.27
516.85	33596.05
517.03	33956.49
517.20	34286.51
517.37	34588.44
517.54	34899.73
517.72	34855.26
517.89	34146.08
518.06	34429.28
518.24	34178.84
518.41	35150.17
518.58	35026.12
518.75	34864.62
518.93	35136.12
519.10	35140.80
519.27	35599.55
519.45	35424.01
519.62	35239.11
519.79	35988.08
519.96	36018.50
520.14	36084.04
520.31	35786.79
520.48	35541.03
520.65	36002.12
520.83	36058.29
521.00	36474.91
521.17	36339.16
521.34	36023.19
521.52	36292.35
521.69	36374.27
521.86	36751.09
522.03	36210.43
522.20	36449.16
522.38	36746.41
522.55	36847.05
522.72	36931.31
522.89	36278.30
523.07	37097.49
523.24	36727.69
523.41	37207.50
523.58	37340.91
523.75	37493.04
523.92	37521.13
524.10	37839.44
524.27	37607.73
524.44	37675.60
524.61	37663.90
524.78	37682.62
524.96	37996.26
525.13	38136.69
525.30	38234.99
525.47	38455.00
525.64	37968.17
525.81	38178.82
525.98	37715.39
526.16	37497.72
526.33	37368.99
526.50	38073.49
526.67	37345.59
526.84	37612.41
527.01	37691.99
527.18	37738.80
527.36	38422.23
527.53	38356.70
527.70	39063.54
527.87	38967.58
528.04	38712.46
528.21	38700.76
528.38	38707.78
528.55	39538.67
528.72	39178.23
528.89	39323.34
529.07	39463.77
529.24	39210.99
529.41	39426.32
529.58	39007.37
529.75	38951.20
529.92	39047.16
530.09	39086.95
530.26	39218.02
530.43	39461.43
530.60	39728.25
530.77	39814.85
530.94	39674.42
531.11	40137.85
531.28	40074.65
531.46	40203.38
531.63	39854.64
531.80	39119.71
531.97	39971.67
532.14	39606.55
532.31	39466.11
532.48	40119.12
532.65	40016.14
532.82	39910.82
532.99	40081.67
533.16	39992.73
533.33	40350.84
533.50	40404.67
533.67	40357.86
533.84	39988.05
534.01	40793.20
534.18	40364.88
534.35	40762.77
534.52	40512.33
534.69	40751.07
534.86	40554.46
535.03	40552.12
535.20	41446.21
535.37	41174.70
535.54	41099.81
535.71	41375.99
535.88	41228.54
536.05	40924.27
536.22	41378.33
536.38	40931.29
536.55	40971.08
536.72	41134.92
536.89	40968.74
537.06	41907.29
537.23	41193.43
537.40	41666.22
537.57	41787.92
537.74	41256.62
537.91	41542.17
538.08	41598.34
538.25	41502.38
538.42	42012.62
538.59	42110.92
538.75	41123.21
538.92	41727.07
539.09	41930.70
539.26	41944.74
539.43	41521.10
539.60	41621.75
539.77	41621.75
539.94	41710.69
540.11	41446.21
540.28	41745.80
540.44	41418.12
540.61	41816.01
540.78	41766.86
540.95	42029.00
541.12	41713.03
541.29	42354.33
541.46	42141.35
541.62	42232.63
541.79	42593.07
541.96	41577.28
542.13	42171.77
542.30	42178.79
542.47	42663.28
542.63	42148.37
542.80	42644.56
542.97	42789.67
543.14	43016.71
543.31	42880.95
543.48	43082.24
543.64	43625.25
543.81	43133.73
543.98	42990.96
544.15	42899.68
544.32	43131.39
544.48	43393.53
544.65	43419.28
544.82	43283.53
544.99	43089.26
545.16	43505.88
545.32	43290.55
545.49	43749.29
545.66	43653.33
545.83	43873.34
546.00	44105.06
546.16	43702.48
546.33	43330.34
546.50	43274.16
546.67	43566.73
546.83	43903.77
547.00	43519.92
547.17	43679.08
547.34	43480.13
547.50	43934.20
547.67	43515.24
547.84	43814.83
548.00	44114.42
548.17	44144.84
548.34	43889.73
548.51	44282.94
548.67	44626.99
548.84	44179.95
549.01	44025.48
549.18	43887.39
549.34	44697.21
549.51	44421.03
549.68	44528.69
549.84	44376.56
550.01	44657.42
550.18	44243.15
550.34	44404.64
550.51	44399.96
550.68	44535.71
550.84	44072.29
551.01	44289.96
551.18	43868.66
551.34	44409.32
551.51	44402.30
551.68	44648.06
551.84	44996.80
552.01	44477.20
552.18	44758.06
552.34	44561.46
552.51	44769.77
552.68	44533.37
552.84	44811.90
553.01	45038.93
553.18	44568.48
553.34	45088.08
553.51	44467.84
553.67	44961.69
553.84	45375.97
554.01	45099.78
554.17	45092.76
554.34	45413.41
554.51	45221.49
554.67	45305.75
554.84	45130.21
555.00	45188.72
555.17	45200.43
555.33	45277.66
555.50	45083.40
555.67	45043.61
555.83	45144.25
556.00	45373.63
556.16	45134.89
556.33	45432.14
556.50	45397.03
556.66	45661.51
556.83	45092.76
556.99	45455.54
557.16	45799.60
557.32	45600.66
557.49	45649.81
557.65	45052.97
557.82	45230.85
557.98	45897.91
558.15	45116.17
558.32	45745.77
558.48	45502.35
558.65	45270.64
558.81	45074.04
558.98	45413.41
559.14	45439.16
559.31	45390.01
559.47	45546.82
559.64	45652.15
559.80	45579.59
559.97	45921.31
560.13	45607.68
560.30	45682.58
560.46	45764.49
560.63	46330.90
560.79	46080.47
560.96	46220.90
561.12	45923.65
561.29	45752.79
561.45	45886.20
561.61	45771.52
561.78	45954.08
561.94	45558.53
562.11	45830.03
562.27	45680.24
562.44	45565.55
562.60	45848.75
562.77	46415.16
562.93	45680.24
563.10	46543.89
563.26	45677.90
563.42	46099.19
563.59	45937.69
563.75	46028.98
563.92	45794.92
564.08	46188.13
564.24	45972.80
564.41	45769.18
564.57	45841.73
564.74	45991.53
564.90	45949.40
565.07	45909.61
565.23	46270.05
565.39	45762.15
565.56	45626.40
565.72	45993.87
565.88	46183.45
566.05	45937.69
566.21	45848.75
566.38	46164.73
566.54	46309.84
566.70	46019.61
566.87	46337.93
567.03	46281.75
567.19	46211.54
567.36	46241.96
567.52	46092.17
567.68	46162.39
567.85	46185.79
568.01	46344.95
568.17	46078.13
568.34	46431.55
568.50	46300.48
568.66	45977.48
568.83	46550.91
568.99	46054.72
569.15	46024.29
569.32	46213.88
569.48	46167.07
569.64	45956.42
569.81	46185.79
569.97	46227.92
570.13	46689.01
570.30	45900.25
570.46	46436.23
570.62	46260.69
570.78	46153.02
570.95	46089.83
571.11	46122.60
571.27	45823.01
571.43	46316.86
571.60	46344.95
571.76	45961.10
571.92	46206.86
572.09	46754.54
572.25	46082.81
572.41	46354.31
572.57	46319.20
572.74	46312.18
572.90	46258.35
573.06	46672.62
573.22	46270.05
573.38	46326.22
573.55	45904.93
573.71	46684.33
573.87	46431.55
574.03	46323.88
574.20	46319.20
574.36	46408.14
574.52	45970.46
574.68	46354.31
574.84	46553.26
575.01	46579.00
575.17	46382.40
575.33	46300.48
575.49	46305.16
575.65	46370.69
575.82	46429.21
575.98	46043.02
576.14	46946.47
576.30	46691.35
576.46	46705.39
576.62	46342.61
576.79	46745.18
576.95	46178.77
577.11	46387.08
577.27	46677.30
577.43	46164.73
577.59	46253.67
577.75	46401.12
577.92	45951.74
578.08	45993.87
578.24	46052.38
578.40	45741.09
578.56	46541.55
578.72	46581.34
578.88	46689.01
579.04	46674.96
579.21	46199.83
579.37	46958.17
579.53	46080.47
579.69	46052.38
579.85	46990.94
580.01	46396.44
580.17	46649.22
580.33	46504.10
580.49	46373.03
580.65	46534.53
580.82	46553.26
580.98	46403.46
581.14	46216.22
581.30	46649.22
581.46	46445.59
581.62	46518.15
581.78	46457.29
581.94	46885.61
582.10	46274.73
582.26	46454.95
582.42	46403.46
582.58	46185.79
582.74	46391.76
582.90	46831.78
583.06	47122.01
583.22	46539.21
583.38	46880.93
583.54	47114.98
583.70	46504.10
583.86	46398.78
584.02	46246.65
584.18	46588.36
584.34	46490.06
584.50	46492.40
584.66	46492.40
584.82	46192.81
584.98	46763.90
585.14	46628.15
585.30	45970.46
585.46	46916.04
585.62	46061.74
585.78	46461.97
585.94	46080.47
586.10	46335.59
586.26	46735.82
586.42	46698.37
586.58	47000.30
586.74	46499.42
586.90	46153.02
587.06	46162.39
587.22	46822.42
587.38	46167.07
587.54	46461.97
587.70	46368.35
587.86	46946.47
588.02	47002.64
588.18	46684.33
588.34	46504.10
588.49	45778.54
588.65	45911.95
588.81	45991.53
588.97	46148.34
589.13	46096.85
589.29	46284.09
589.45	46281.75
589.61	46433.89
589.77	46724.11
589.93	46628.15
590.08	46403.46
590.24	46639.86
590.40	46581.34
590.56	46883.27
590.72	46834.12
590.88	46464.32
591.04	46717.09
591.20	47203.92
591.35	46927.74
591.51	46768.58
591.67	46684.33
591.83	46740.50
591.99	46567.30
592.15	46663.26
592.31	46644.54
592.46	46714.75
592.62	46621.13
592.78	46705.39
592.94	46815.40
593.10	46738.16
593.26	46801.35
593.41	46288.77
593.57	46665.60
593.73	46370.69
593.89	46665.60
594.05	46532.19
594.20	47012.00
594.36	46667.94
594.52	46525.17
594.68	46471.34
594.84	46344.95
594.99	46745.18
595.15	46775.61
595.31	46618.79
595.47	46564.96
595.62	46351.97
595.78	46911.36
595.94	46831.78
596.10	47234.35
596.25	46740.50
596.41	46946.47
596.57	46883.27
596.73	46602.41
596.88	46714.75
597.04	46651.56
597.20	46820.08
597.36	46691.35
597.51	46808.37
597.67	46951.15
597.83	47136.05
597.99	47012.00
598.14	47042.43
598.30	46747.52
598.46	46621.13
598.61	46829.44
598.77	46422.19
598.93	46499.42
599.09	46703.05
599.24	47615.86
599.40	47009.66
599.56	46775.61
599.71	46679.64
599.87	46939.44
600.03	46829.44
600.18	46649.22
600.34	46930.08
600.50	46485.38
600.65	47089.24
600.81	46909.02
600.97	47363.08
601.12	47161.79
601.28	46993.28
601.44	46508.79
601.59	46419.84
601.75	46628.15
601.91	46557.94
602.06	46691.35
602.22	46904.34
602.37	46986.25
602.53	46972.21
602.69	46972.21
602.84	46583.68
603.00	46609.43
603.16	46904.34
603.31	46562.62
603.47	47082.22
603.62	46712.41
603.78	47026.04
603.94	46738.16
604.09	47161.79
604.25	46703.05
604.40	46831.78
604.56	46920.72
604.71	46939.44
604.87	46185.79
605.03	46520.49
605.18	46703.05
605.34	46499.42
605.49	46174.09
605.65	46525.17
605.80	46567.30
605.96	46686.67
606.12	46604.75
606.27	47152.43
606.43	46401.12
606.58	46827.10
606.74	46590.70
606.89	46684.33
607.05	46295.80
607.20	46693.69
607.36	46604.75
607.51	46525.17
607.67	46536.87
607.82	46602.41
607.98	46536.87
608.13	46129.62
608.29	46232.60
608.44	46218.56
608.60	46071.10
608.75	45764.49
608.91	46103.87
609.06	46117.92
609.22	46672.62
609.37	46080.47
609.53	46263.03
609.68	46110.89
609.84	46330.90
609.99	46220.90
610.15	45998.55
610.30	46043.02
610.46	45783.22
610.61	45851.09
610.76	45958.76
610.92	46401.12
611.07	46410.48
611.23	46270.05
611.38	45801.94
611.54	46080.47
611.69	45324.47
611.84	45453.20
612.00	45762.15
612.15	45823.01
612.31	45492.99
612.46	45797.26
612.62	46059.40
612.77	45977.48
612.92	46059.40
613.08	45645.13
613.23	45607.68
613.39	45806.62
613.54	45422.78
613.69	45771.52
613.85	45684.92
614.00	45635.77
614.15	46082.81
614.31	45780.88
614.46	45933.01
614.62	45794.92
614.77	45610.02
614.92	45729.39
615.08	45139.57
615.23	45359.58
615.38	45588.95
615.54	45155.96
615.69	45413.41
615.84	45078.72
616.00	45170.00
616.15	45237.87
616.30	45235.53
616.46	45092.76
616.61	44858.71
616.76	45155.96
616.92	44643.38
617.07	44896.16
617.22	45270.64
617.37	44957.01
617.53	45490.65
617.68	45137.23
617.83	44938.29
617.99	45024.89
618.14	44964.03
618.29	45272.98
618.45	45205.11
618.60	44832.96
618.75	44332.09
618.90	45048.29
619.06	45158.30
619.21	45127.87
619.36	45422.78
619.51	45059.99
619.67	45401.71
619.82	44924.24
619.97	44875.09
620.12	44942.97
620.28	44701.89
620.43	44449.11
620.58	44875.09
620.73	44353.15
620.89	44655.08
621.04	44842.32
621.19	44839.98
621.34	44694.87
621.49	44212.72
621.65	44610.61
621.80	44325.07
621.95	44533.37
622.10	44374.22
622.25	44289.96
622.41	43768.02
622.56	44292.30
622.71	44561.46
622.86	44013.77
623.01	44147.18
623.16	44268.89
623.32	44039.52
623.47	44212.72
623.62	44114.42
623.77	43842.92
623.92	44086.33
624.07	43948.24
624.23	44098.03
624.38	43938.88
624.53	44201.02
624.68	43484.81
624.83	43777.38
624.98	43913.13
625.13	43587.80
625.29	43978.67
625.44	43688.44
625.59	43782.06
625.74	43552.69
625.89	43456.73
626.04	43271.82
626.19	43648.65
626.34	43187.56
626.49	43372.47
626.65	43650.99
626.80	43924.83
626.95	43262.46
627.10	42953.51
627.25	43339.70
627.40	42824.78
627.55	43339.70
627.70	42574.34
627.85	43182.88
628.00	43236.72
628.15	42887.98
628.30	42799.04
628.45	43147.78
628.60	43232.04
628.76	42787.33
628.91	43386.51
629.06	43283.53
629.21	42944.15
629.36	42756.91
629.51	42763.93
629.66	42541.58
629.81	42773.29
629.96	42773.29
630.11	42824.78
630.26	42398.80
630.41	43084.58
630.56	42920.74
630.71	42696.05
630.86	42836.48
631.01	42799.04
631.16	42740.52
631.31	42141.35
631.46	42183.48
631.61	42300.50
631.76	42422.21
631.91	42232.63
632.06	42370.72
632.21	42541.58
632.36	42122.62
632.51	42492.43
632.66	42141.35
632.81	41937.72
632.96	41617.07
633.10	41918.99
633.25	41764.52
633.40	42527.53
633.55	42431.57
633.70	42078.15
633.85	42066.45
634.00	42574.34
634.15	42216.24
634.30	42419.87
634.45	42305.18
634.60	41893.25
634.75	41909.63
634.90	41944.74
635.05	41780.90
635.19	41881.55
635.34	41729.41
635.49	42176.45
635.64	41441.53
635.79	41769.20
635.94	41680.26
636.09	41675.58
636.24	41727.07
636.39	41427.48
636.53	41469.61
636.68	41242.58
636.83	41750.48
636.98	41500.04
637.13	41895.59
637.28	41401.74
637.43	41668.56
637.57	41415.78
637.72	41488.34
637.87	41790.27
638.02	41242.58
638.17	42014.96
638.32	41322.16
638.46	41296.41
638.61	41450.89
638.76	41256.62
638.91	41422.80
639.06	41230.88
639.20	41401.74
639.35	41235.56
639.50	41008.53
639.65	41528.13
639.80	41537.49
639.94	41060.02
640.09	41034.27
640.24	41347.90
640.39	40596.59
640.54	40701.92
640.68	40968.74
640.83	40872.78
640.98	40783.83
641.13	40517.01
641.27	40886.82
641.42	41020.23
641.57	40914.90
641.72	40587.23
641.86	40718.30
642.01	40601.27
642.16	40514.67
642.31	40282.96
642.45	40357.86
642.60	40460.84
642.75	40587.23
642.90	40664.47
643.04	40495.95
643.19	40091.04
643.34	40931.29
643.48	40182.32
643.63	40376.58
643.78	40067.63
643.93	39859.32
644.07	39878.05
644.22	40175.30
644.37	39854.64
644.51	40189.34
644.66	40158.91
644.81	40128.48
644.95	40320.41
645.10	40449.14
645.25	40268.92
645.39	40477.22
645.54	40084.01
645.69	40072.31
645.83	39938.90
645.98	39772.72
646.13	39515.26
646.27	40037.20
646.42	39929.54
646.57	39817.19
646.71	39856.98
646.86	40203.38
647.00	40041.88
647.15	39917.84
647.30	39559.73
647.44	39871.03
647.59	39541.01
647.74	39587.82
647.88	39414.62
648.03	39620.59
648.17	40004.44
648.32	39552.71
648.47	39552.71
648.61	39218.02
648.76	39849.96
648.90	39356.11
649.05	39257.81
649.20	39655.70
649.34	39185.25
649.49	39648.68
649.63	39559.73
649.78	39255.46
649.92	39012.05
650.07	39601.86
650.21	39096.31
650.36	39054.18
650.51	39278.87
650.65	39543.35
650.80	39772.72
650.94	39772.72
651.09	39393.56
651.23	38665.65
651.38	38937.15
651.52	38890.34
651.67	39185.25
651.81	39026.09
651.96	38653.95
652.10	38279.46
652.25	38831.83
652.39	39100.99
652.54	38684.37
652.68	38967.58
652.83	38522.88
652.97	38946.51
653.12	38440.96
653.26	38567.35
653.41	38602.46
653.55	38679.69
653.70	38288.82
653.84	38642.24
653.99	38366.06
654.13	38518.20
654.27	38359.04
654.42	38408.19
654.56	38326.27
654.71	38459.68
654.85	38476.07
655.00	38534.58
655.14	38024.34
655.29	37776.25
655.43	38167.12
655.57	37621.77
655.72	37769.22
655.86	37390.06
656.01	37776.25
656.15	37483.68
656.30	37642.84
656.44	37521.13
656.58	37373.67
656.73	37865.19
656.87	37762.20
657.01	37762.20
657.16	37909.66
657.30	37706.03
657.45	37631.13
657.59	37869.87
657.73	37792.63
657.88	38019.66
658.02	37771.57
658.16	37900.29
658.31	37825.40
658.45	37607.73
658.60	37436.87
658.74	37558.58
658.88	37879.23
659.03	37476.66
659.17	37296.44
659.31	37254.31
659.46	36863.44
659.60	37373.67
659.74	37368.99
659.89	36994.51
660.03	37078.77
660.17	37184.09
660.32	37029.62
660.46	37347.93
660.60	36900.89
660.74	36638.75
660.89	36856.42
661.03	37109.19
661.17	36690.24
661.32	36603.64
661.46	36613.00
661.60	36727.69
661.74	36706.62
661.89	37118.56
662.03	36678.54
662.17	36334.48
662.31	36383.63
662.46	36318.09
662.60	36385.97
662.74	36126.17
662.88	36243.20
663.03	35744.66
663.17	35917.86
663.31	36123.83
663.45	36233.83
663.60	35971.69
663.74	35831.26
663.88	35707.21
664.02	35723.60
664.17	35648.70
664.31	35690.83
664.45	35999.78
664.59	35531.67
664.73	35419.33
664.88	35332.73
665.02	35800.83
665.16	35489.54
665.30	35129.10
665.44	35398.26
665.59	35274.21
665.73	35344.43
665.87	35255.49
666.01	34635.25
666.15	34965.26
666.29	34986.33
666.44	34976.97
666.58	34717.17
666.72	34473.75
666.86	34857.60
667.00	34976.97
667.14	34583.76
667.28	34330.98
667.43	34492.47
667.57	34710.14
667.71	34220.97
667.85	34595.46
667.99	34043.09
668.13	34293.53
668.27	34632.91
668.41	34412.90
668.56	33961.17
668.70	34359.06
668.84	34195.23
668.98	33881.60
669.12	33511.79
669.26	33596.05
669.40	33855.85
669.54	33996.28
669.68	33900.32
669.82	33535.20
669.96	33605.41
670.10	33567.96
670.25	33530.51
670.39	33294.12
670.53	33057.73
670.67	33347.95
670.81	33631.16
670.95	33362.00
671.09	33132.62
671.23	33104.54
671.37	33364.34
671.51	33113.90
671.65	33090.49
671.79	32545.15
671.93	32121.51
672.07	32716.01
672.21	32844.74
672.35	32498.34
672.49	32692.60
672.63	32224.50
672.77	32173.00
672.91	32353.23
673.05	32341.52
673.19	32264.28
673.33	32280.67
673.47	32034.91
673.61	31505.95
673.75	31828.95
673.89	31985.76
674.03	31576.17
674.17	31505.95
674.31	31929.59
674.45	31302.32
674.59	31353.82
674.73	31821.92
674.87	31571.49
675.01	31583.19
675.15	31353.82
675.29	31402.97
675.43	31573.83
675.56	31328.07
675.70	31311.69
675.84	30658.68
675.98	30232.70
676.12	30824.86
676.26	30728.89
676.40	30438.67
676.54	30480.80
676.68	30412.92
676.82	30148.44
676.96	30237.38
677.10	30497.18
677.23	30192.91
677.37	29715.44
677.51	29951.84
677.65	29802.04
677.79	29202.86
677.93	29450.96
678.07	29689.70
678.21	29062.43
678.34	29439.26
678.48	29216.91
678.62	28816.68
678.76	28613.05
678.90	28861.15
679.04	28741.78
679.18	28774.55
679.31	28329.84
679.45	28355.59
679.59	28077.07
679.73	28505.38
679.87	28367.29
680.00	28032.60
680.14	28163.67
680.28	28229.20
680.42	27906.21
680.56	28215.16
680.70	27646.41
680.83	27608.96
680.97	27592.58
681.11	27906.21
681.25	27232.13
681.39	27632.36
681.52	27803.22
681.66	27491.93
681.80	26927.86
681.94	27414.69
682.07	27356.18
682.21	26850.63
682.35	26939.57
682.49	26642.32
682.62	26600.19
682.76	26445.71
682.90	26778.07
683.04	26352.09
683.17	26235.06
683.31	26448.05
683.45	26410.60
683.59	25928.45
683.72	25523.54
683.86	25785.68
684.00	25425.24
684.13	26031.44
684.27	25860.58
684.41	25846.54
684.55	25233.32
684.68	25577.37
684.82	25312.89
684.96	25467.37
685.09	25003.94
685.23	25006.28
685.37	24842.45
685.50	25132.67
685.64	24907.98
685.78	24748.82
685.91	24430.51
686.05	24229.23
686.19	24137.94
686.32	24142.63
686.46	23929.64
686.60	23520.04
686.73	23571.54
686.87	23592.60
687.01	23288.33
687.14	23283.65
687.28	23241.52
687.42	23206.41
687.55	23309.40
687.69	23543.45
687.82	23358.55
687.96	23314.08
688.10	23157.26
688.23	22991.08
688.37	22632.98
688.50	22663.41
688.64	22677.45
688.78	22604.89
688.91	22754.69
689.05	22398.93
689.18	22843.63
689.32	22302.96
689.46	22312.33
689.59	22539.36
689.73	22436.38
689.86	22291.26
690.00	21914.44
690.13	21935.50
690.27	21626.55
690.41	22005.72
690.54	21603.14
690.68	21252.06
690.81	21436.97
690.95	21479.10
691.08	21191.21
691.22	21348.03
691.35	21401.86
691.49	21579.74
691.62	21289.51
691.76	21238.02
691.89	20788.64
692.03	20805.02
692.16	20823.75
692.30	20828.43
692.43	20563.95
692.57	20016.26
692.70	19964.77
692.84	20240.95
692.97	20212.87
693.11	20250.32
693.24	20051.37
693.38	19882.85
693.51	19756.46
693.65	19936.68
693.78	19948.39
693.92	20046.69
694.05	19730.72
694.19	19765.82
694.32	19386.66
694.45	19276.65
694.59	19112.81
694.72	19316.44
694.86	19019.19
694.99	19096.43
695.13	19222.82
695.26	18590.88
695.39	18544.06
695.53	18642.37
695.66	18750.03
695.80	18677.48
695.93	18562.79
696.07	18445.76
696.20	18675.13
696.33	18352.14
696.47	18225.75
696.60	18295.97
696.73	18202.35
696.87	18167.24
697.00	17926.16
697.14	18127.45
697.27	17958.93
697.40	18005.74
697.54	17757.64
697.67	17455.72
697.80	17090.59
697.94	17411.25
698.07	17200.60
698.21	17003.99
698.34	16950.16
698.47	16982.93
698.61	17116.34
698.74	16987.61
698.87	16666.95
699.01	16390.77
699.14	16608.44
699.27	16383.75
699.40	16744.19
699.54	16264.38
699.67	16231.62
699.80	16273.74
699.94	16074.80
700.07	16287.79
700.20	16126.29
700.34	16266.72
700.47	16210.55
700.60	16397.79
700.73	16325.24
700.87	16030.33
701.00	15782.23
701.13	15955.43
701.26	15800.96
701.40	15503.71
701.53	15494.35
701.66	15550.52
701.79	15400.72
701.93	15101.14
702.06	15143.27
702.19	14862.40
702.32	14998.15
702.46	14970.07
702.59	14885.81
702.72	15009.86
702.85	15016.88
702.99	14890.49
703.12	14864.74
703.25	14328.76
703.38	14745.38
703.51	14375.57
703.65	14611.96
703.78	14422.38
703.91	14366.21
704.04	14518.34
704.17	14216.41
704.31	14120.45
704.44	14345.14
704.57	14214.07
704.70	14167.26
704.83	14052.58
704.96	13865.33
705.10	13907.46
705.23	14033.85
>>>>>End Processed Spectral Data<<<<<
