SpectraSuite Data File
++++++++++++++++++++++++++++++++++++
Date: Fri Oct 25 11:34:49 EDT 2013
User: price-jones
Dark Spectrum Present: No
Reference Spectrum Present: No
Number of Sampled Component Spectra: 1
Spectrometers: USB2+H05261
Integration Time (usec): 100000 (USB2+H05261)
Spectra Averaged: 1 (USB2+H05261)
Boxcar Smoothing: 0 (USB2+H05261)
Correct for Electrical Dark: No (USB2+H05261)
Strobe/Lamp Enabled: No (USB2+H05261)
Correct for Detector Non-linearity: No (USB2+H05261)
Correct for Stray Light: No (USB2+H05261)
Number of Pixels in Processed Spectrum: 2048
>>>>>Begin Processed Spectral Data<<<<<
365.73	344.06
365.92	344.06
366.12	344.06
366.32	255.12
366.52	161.50
366.72	175.54
366.91	189.58
367.11	243.42
367.31	224.69
367.51	191.92
367.70	102.98
367.90	212.99
368.10	154.48
368.30	222.35
368.49	210.65
368.69	205.97
368.89	231.71
369.09	220.01
369.28	147.45
369.48	212.99
369.68	262.14
369.87	271.50
370.07	215.33
370.27	231.71
370.47	320.65
370.66	472.79
370.86	521.94
371.06	482.15
371.25	433.00
371.45	526.62
371.65	566.41
371.84	566.41
372.04	451.72
372.24	540.66
372.44	636.63
372.63	580.45
372.83	559.39
373.03	596.84
373.22	629.60
373.42	624.92
373.62	629.60
373.81	540.66
374.01	608.54
374.21	669.39
374.40	573.43
374.60	671.73
374.79	653.01
374.99	613.22
375.19	648.33
375.38	631.94
375.58	596.84
375.78	641.31
375.97	645.99
376.17	720.88
376.37	669.39
376.56	603.86
376.76	681.10
376.95	622.58
377.15	669.39
377.35	770.04
377.54	676.41
377.74	683.44
377.93	664.71
378.13	636.63
378.33	695.14
378.52	594.50
378.72	653.01
378.91	739.61
379.11	739.61
379.31	667.05
379.50	681.10
379.70	770.04
379.89	730.25
380.09	739.61
380.28	716.20
380.48	688.12
380.68	760.67
380.87	638.97
381.07	690.46
381.26	791.10
381.46	800.46
381.65	755.99
381.85	711.52
382.04	704.50
382.24	755.99
382.43	727.91
382.63	739.61
382.83	823.87
383.02	746.63
383.22	800.46
383.41	793.44
383.61	755.99
383.80	814.51
384.00	755.99
384.19	805.14
384.39	840.25
384.58	786.42
384.78	812.17
384.97	793.44
385.17	723.23
385.36	837.91
385.56	826.21
385.75	863.66
385.95	781.74
386.14	805.14
386.34	814.51
386.53	858.98
386.72	833.23
386.92	863.66
387.11	851.96
387.31	889.40
387.50	809.83
387.70	861.32
387.89	863.66
388.09	877.70
388.28	882.38
388.48	884.72
388.67	777.06
388.86	917.49
389.06	873.02
389.25	882.38
389.45	973.66
389.64	917.49
389.84	919.83
390.03	947.92
390.22	896.43
390.42	903.45
390.61	903.45
390.81	919.83
391.00	999.41
391.19	999.41
391.39	929.19
391.58	997.07
391.78	959.62
391.97	1046.22
392.16	924.51
392.36	1064.94
392.55	1032.18
392.75	1074.31
392.94	1062.60
393.13	1006.43
393.33	971.32
393.52	987.71
393.71	1039.20
393.91	994.73
394.10	1090.69
394.29	1081.33
394.49	1067.28
394.68	1057.92
394.88	1036.86
395.07	1135.16
395.26	1088.35
395.46	1060.26
395.65	1107.07
395.84	1144.52
396.04	1107.07
396.23	1153.88
396.42	1165.59
396.62	1188.99
396.81	1266.23
397.00	1158.57
397.19	1104.73
397.39	1116.44
397.58	1210.06
397.77	1186.65
397.97	1196.01
398.16	1294.32
398.35	1233.46
398.55	1135.16
398.74	1226.44
398.93	1247.51
399.12	1310.70
399.32	1280.27
399.51	1338.79
399.70	1228.78
399.90	1320.06
400.09	1240.48
400.28	1228.78
400.47	1313.04
400.67	1226.44
400.86	1308.36
401.05	1301.34
401.24	1336.45
401.44	1416.02
401.63	1404.32
401.82	1362.19
402.01	1329.42
402.21	1401.98
402.40	1500.28
402.59	1397.30
402.78	1378.58
402.97	1399.64
403.17	1528.37
403.36	1439.43
403.55	1423.05
403.74	1645.40
403.93	1509.65
404.13	1544.75
404.32	1535.39
404.51	1582.20
404.70	1582.20
404.89	1568.16
405.09	1558.80
405.28	1600.93
405.47	1631.35
405.66	1629.01
405.85	1659.44
406.05	1699.23
406.24	1645.40
406.43	1762.42
406.62	1696.89
406.81	1827.96
407.00	1703.91
407.20	1689.87
407.39	1729.66
407.58	1762.42
407.77	1823.28
407.96	1802.21
408.15	1743.70
408.34	1839.66
408.54	1820.94
408.73	1675.82
408.92	1865.41
409.11	1907.54
409.30	1888.81
409.49	1825.62
409.68	1954.35
409.87	1874.77
410.07	1956.69
410.26	2026.90
410.45	1954.35
410.64	1888.81
410.83	2080.74
411.02	2092.44
411.21	2085.42
411.40	2017.54
411.59	2127.55
411.78	2125.21
411.98	2045.63
412.17	2129.89
412.36	2097.12
412.55	2263.30
412.74	2239.89
412.93	2132.23
413.12	2235.21
413.31	2260.96
413.50	2326.49
413.69	2249.25
413.88	2328.83
414.07	2338.20
414.26	2420.11
414.45	2324.15
414.64	2413.09
414.83	2520.76
415.02	2495.01
415.22	2544.16
415.41	2527.78
415.60	2485.65
415.79	2523.10
415.98	2480.97
416.17	2565.23
416.36	2562.89
416.55	2609.70
416.74	2717.36
416.93	2539.48
417.12	2693.96
417.31	2757.15
417.50	2759.49
417.69	2764.17
417.88	2799.28
418.07	2818.00
418.26	2855.45
418.45	2827.37
418.64	2935.03
418.83	2740.77
419.02	2803.96
419.21	2864.82
419.39	2960.78
419.58	3014.61
419.77	2902.26
419.96	2998.23
420.15	3028.65
420.34	2930.35
420.53	3082.49
420.72	3063.76
420.91	3026.31
421.10	3150.36
421.29	3014.61
421.48	3019.29
421.67	3129.30
421.86	3166.74
422.05	3115.25
422.24	3122.27
422.43	3180.79
422.61	3269.73
422.80	3201.85
422.99	3162.06
423.18	3279.09
423.37	3386.76
423.56	3215.90
423.75	3297.81
423.94	3185.47
424.13	3030.99
424.32	3112.91
424.50	3321.22
424.69	3407.82
424.88	3335.26
425.07	3344.63
425.26	3194.83
425.45	3220.58
425.64	3332.92
425.83	3267.39
426.01	3337.60
426.20	3293.13
426.39	3286.11
426.58	3243.98
426.77	3314.20
426.96	3342.28
427.15	3342.28
427.33	3391.44
427.52	3417.18
427.71	3435.91
427.90	3309.52
428.09	3463.99
428.28	3466.33
428.46	3492.08
428.65	3396.12
428.84	3564.64
429.03	3529.53
429.22	3438.25
429.40	3555.27
429.59	3625.49
429.78	3487.40
429.97	3538.89
430.16	3784.65
430.34	3684.00
430.53	3698.05
430.72	3655.92
430.91	3749.54
431.10	3763.58
431.28	3709.75
431.47	3770.60
431.66	3684.00
431.85	3756.56
432.03	3831.46
432.22	3861.88
432.41	3794.01
432.60	3913.38
432.79	3906.35
432.97	3885.29
433.16	3885.29
433.35	3962.53
433.54	4067.85
433.72	4093.60
433.91	4009.34
434.10	3999.98
434.28	3927.42
434.47	4023.38
434.66	4126.36
434.85	4114.66
435.03	4046.79
435.22	4011.68
435.41	4344.03
435.59	4088.92
435.78	4210.62
435.97	4231.69
436.16	4189.56
436.34	4121.68
436.53	4191.90
436.72	4215.30
436.90	4119.34
437.09	4241.05
437.28	4236.37
437.46	4222.33
437.65	4372.12
437.84	4386.16
438.02	4381.48
438.21	4252.75
438.40	4351.06
438.58	4461.06
438.77	4528.94
438.96	4564.04
439.14	4510.21
439.33	4865.97
439.52	4720.86
439.70	4582.77
439.89	4767.67
440.08	4713.84
440.26	4711.50
440.45	4774.69
440.63	4699.80
440.82	4887.04
441.01	4770.01
441.19	4936.19
441.38	4835.55
441.57	4924.49
441.75	4985.34
441.94	5191.31
442.12	4985.34
442.31	5039.17
442.50	5071.94
442.68	5057.90
442.87	5123.43
443.05	5095.35
443.24	5305.99
443.43	5298.97
443.61	5322.38
443.80	5266.21
443.98	5128.11
444.17	4980.66
444.35	5240.46
444.54	5408.98
444.73	5296.63
444.91	5291.95
445.10	5228.76
445.28	5408.98
445.47	5132.79
445.65	5420.68
445.84	5401.96
446.02	5437.06
446.21	5352.81
446.39	5315.36
446.58	5537.71
446.77	5460.47
446.95	5277.91
447.14	5282.59
447.32	5479.19
447.51	5284.93
447.69	5294.29
447.88	5411.32
448.06	5479.19
448.25	5547.07
448.43	5472.17
448.62	5514.30
448.80	5619.63
448.99	5551.75
449.17	5544.73
449.36	5467.49
449.54	5666.44
449.73	5743.67
449.91	5727.29
450.10	5692.18
450.28	5874.74
450.46	5834.96
450.65	5741.33
450.83	5804.53
451.02	5743.67
451.20	5795.17
451.39	5970.71
451.57	5788.14
451.76	5844.32
451.94	5832.62
452.13	5923.90
452.31	5872.40
452.49	5823.25
452.68	5944.96
452.86	5867.72
453.05	6019.86
453.23	6153.27
453.42	5916.87
453.60	6066.67
453.78	6092.41
453.97	5865.38
454.15	5928.58
454.34	5973.05
454.52	6221.14
454.70	6204.76
454.89	6080.71
455.07	6249.23
455.26	6260.93
455.44	6651.80
455.62	6317.11
455.81	6340.51
455.99	6300.72
456.17	6410.73
456.36	6221.14
456.54	6417.75
456.73	6459.88
456.91	6506.69
457.09	6623.72
457.28	6733.72
457.46	6520.73
457.64	6649.46
457.83	6633.08
458.01	6485.62
458.19	6808.62
458.38	6724.36
458.56	6942.03
458.74	6822.66
458.93	6803.94
459.11	6689.25
459.29	6731.38
459.48	6827.34
459.66	6764.15
459.84	6803.94
460.03	6981.82
460.21	6927.99
460.39	7042.67
460.57	6970.12
460.76	7073.10
460.94	7213.53
461.12	6972.46
461.31	7215.87
461.49	6881.18
461.67	6984.16
461.85	7211.19
462.04	7236.94
462.22	7283.75
462.40	7384.39
462.59	7276.73
462.77	7330.56
462.95	7438.22
463.13	7218.21
463.32	7375.03
463.50	7368.01
463.68	7639.51
463.86	7405.46
464.05	7330.56
464.23	7534.18
464.41	7557.59
464.59	7375.03
464.78	7770.58
464.96	7597.38
465.14	7581.00
465.32	7541.21
465.50	7744.83
465.69	7691.00
465.87	7555.25
466.05	7616.10
466.23	7733.13
466.41	7698.02
466.60	7861.86
466.78	7674.62
466.96	7915.69
467.14	7796.32
467.32	7840.79
467.51	8051.44
467.69	7616.10
467.87	7730.79
468.05	7761.22
468.23	8060.80
468.41	7913.35
468.60	7880.58
468.78	7824.41
468.96	8018.68
469.14	8168.47
469.32	8100.59
469.50	7969.52
469.69	8306.56
469.87	8163.79
470.05	8285.50
470.23	8533.59
470.41	8255.07
470.59	8278.47
470.77	8318.26
470.95	8313.58
471.14	8613.17
471.32	8358.05
471.50	8533.59
471.68	8432.95
471.86	8571.04
472.04	8765.31
472.22	8821.48
472.40	8718.50
472.58	8702.11
472.77	8645.94
472.95	8793.39
473.13	9015.74
473.31	8891.70
473.49	9057.87
473.67	9043.83
473.85	9036.81
474.03	9200.65
474.21	9226.39
474.39	9228.73
474.57	9439.38
474.75	9331.72
474.93	9376.19
475.12	9502.58
475.30	9451.08
475.48	9453.42
475.66	9577.47
475.84	9533.00
476.02	9341.08
476.20	9734.29
476.38	9991.75
476.56	10104.09
476.74	9921.53
476.92	9760.03
477.10	9900.47
477.28	10193.03
477.46	10071.33
477.64	9928.55
477.82	10497.30
478.00	10490.28
478.18	10300.70
478.36	10406.02
478.54	10771.15
478.72	10897.53
478.90	10827.32
479.08	10890.51
479.26	11023.92
479.44	10913.92
479.62	11070.73
479.80	11346.92
479.98	11199.46
480.16	11403.09
480.34	11360.96
480.52	11468.62
480.70	11485.01
480.88	11719.06
481.06	11424.15
481.24	11831.41
481.41	11789.28
481.59	12020.99
481.77	12018.65
481.95	11939.07
482.13	12233.98
482.31	12222.28
482.49	12587.40
482.67	12484.42
482.85	12578.04
483.03	12898.69
483.21	12753.58
483.39	12947.84
483.57	12802.73
483.74	13167.85
483.92	13259.13
484.10	13465.10
484.28	13434.68
484.46	13657.03
484.64	13767.03
484.82	13458.08
485.00	13895.76
485.18	14303.01
485.35	14141.52
485.53	14162.58
485.71	14459.83
485.89	14611.96
486.07	14441.11
486.25	14434.08
486.43	14693.88
486.61	14658.78
486.78	14792.19
486.96	14813.25
487.14	15330.51
487.32	14932.62
487.50	15449.88
487.68	15569.24
487.85	15723.72
488.03	15864.15
488.21	15920.32
488.39	15765.85
488.57	16137.99
488.75	16421.20
488.92	16531.20
489.10	16332.26
489.28	16594.40
489.46	16776.96
489.64	16659.93
489.81	17205.28
489.99	17076.55
490.17	17135.06
490.35	17315.28
490.53	17343.37
490.70	17734.24
490.88	17369.12
491.06	17633.60
491.24	17638.28
491.41	17991.70
491.59	18216.39
491.77	18015.10
491.95	17998.72
492.13	18389.59
492.30	18485.55
492.48	18436.40
492.66	18291.29
492.84	18420.02
493.01	18878.76
493.19	18813.23
493.37	19143.24
493.54	19288.35
493.72	19187.71
493.90	19501.34
494.08	19349.21
494.25	19716.67
494.43	19690.93
494.61	19686.25
494.79	20039.67
494.96	19976.47
495.14	20224.57
495.32	20372.02
495.49	20313.51
495.67	20779.28
495.85	20423.51
496.02	20645.87
496.20	20709.06
496.38	20863.54
496.55	20985.24
496.73	21298.88
496.91	21245.04
497.09	21336.32
497.26	21535.27
497.44	21619.53
497.62	21862.94
497.79	21783.37
497.97	21671.02
498.14	21923.80
498.32	22211.68
498.50	22185.94
498.67	22321.69
498.85	22253.81
499.03	22588.51
499.20	22464.46
499.38	22675.11
499.56	22775.75
499.73	22778.09
499.91	22946.61
500.08	23199.39
500.26	22927.89
500.44	23393.65
500.61	23241.52
500.79	23269.61
500.97	23255.56
501.14	23852.40
501.32	23997.51
501.49	23515.36
501.67	23817.29
501.84	23917.93
502.02	23828.99
502.20	24278.38
502.37	24329.87
502.55	24025.60
502.72	24233.91
502.90	24444.56
503.07	24334.55
503.25	24496.05
503.43	24746.48
503.60	24503.07
503.78	25048.41
503.95	24720.74
504.13	24987.56
504.30	25085.86
504.48	25212.25
504.65	25048.41
504.83	25214.59
505.01	25359.70
505.18	25603.12
505.36	25694.40
505.53	25371.41
505.71	25448.64
505.88	25942.50
506.06	25722.49
506.23	26080.59
506.41	25963.56
506.58	26380.18
506.76	26059.52
506.93	26106.34
507.11	26581.46
507.28	26267.83
507.46	26609.55
507.63	26431.67
507.81	26462.10
507.98	26757.00
508.16	26569.76
508.33	26747.64
508.50	26822.54
508.68	26993.40
508.85	27260.22
509.03	27108.08
509.20	27342.14
509.38	27548.11
509.55	27274.26
509.73	27716.62
509.90	27524.70
510.08	27910.89
510.25	27744.71
510.42	27803.22
510.60	28123.88
510.77	28093.45
510.95	28472.62
511.12	28283.03
511.30	28109.83
511.47	28114.52
511.64	27976.42
511.82	28865.83
511.99	28053.66
512.17	28519.43
512.34	28556.88
512.51	29247.33
512.69	28985.19
512.86	28973.49
513.04	28966.47
513.21	28877.53
513.38	29085.84
513.56	29483.73
513.73	28994.56
513.90	29446.28
514.08	29291.80
514.25	29333.93
514.43	29151.37
514.60	29673.31
514.77	29570.33
514.95	30073.54
515.12	29682.67
515.29	30008.01
515.47	30043.12
515.64	30052.48
515.81	30057.16
515.99	30115.67
516.16	30628.25
516.33	30459.73
516.51	30162.48
516.68	30789.75
516.85	30471.43
517.03	30630.59
517.20	30536.97
517.37	30548.67
517.54	30773.36
517.72	31014.44
517.89	30862.30
518.06	30960.61
518.24	30892.73
518.41	31087.00
518.58	31056.57
518.75	30822.51
518.93	31267.22
519.10	30974.65
519.27	31358.50
519.45	31449.78
519.62	31239.13
519.79	31852.35
519.96	31646.38
520.14	31974.06
520.31	31587.87
520.48	31786.82
520.65	32233.86
520.83	32353.23
521.00	32254.92
521.17	32051.30
521.34	32526.42
521.52	32657.49
521.69	32004.49
521.86	32603.66
522.03	32706.65
522.20	33085.81
522.38	32807.29
522.55	32893.89
522.72	32966.45
522.89	32692.60
523.07	33160.71
523.24	32896.23
523.41	33008.58
523.58	33193.48
523.75	33303.48
523.92	32947.72
524.10	33600.73
524.27	33123.26
524.44	33476.68
524.61	33921.38
524.78	33876.91
524.96	33507.11
525.13	34015.01
525.30	33862.87
525.47	34188.21
525.64	33439.23
525.81	34223.31
525.98	34242.04
526.16	34178.84
526.33	33968.19
526.50	34522.90
526.67	34328.64
526.84	34291.19
527.01	34389.49
527.18	34543.97
527.36	34398.85
527.53	34698.44
527.70	35058.88
527.87	35026.12
528.04	34803.77
528.21	34717.17
528.38	34824.83
528.55	34607.16
528.72	34572.05
528.89	34834.19
529.07	34815.47
529.24	34572.05
529.41	35517.63
529.58	35192.30
529.75	35124.42
529.92	35431.03
530.09	35246.13
530.26	35379.54
530.43	35566.78
530.60	35344.43
530.77	35306.98
530.94	35391.24
531.11	35578.48
531.28	36004.46
531.46	35866.37
531.63	36081.70
531.80	36044.25
531.97	36037.23
532.14	36500.65
532.31	36041.91
532.48	36088.72
532.65	36650.45
532.82	36072.34
532.99	35950.63
533.16	36189.36
533.33	36294.69
533.50	36491.29
533.67	36177.66
533.84	36055.95
534.01	36533.42
534.18	36411.71
534.35	36893.86
534.52	36732.37
534.69	36971.10
534.86	36884.50
535.03	36840.03
535.20	36683.22
535.37	37027.28
535.54	37385.38
535.71	36928.97
535.88	36884.50
536.05	37380.70
536.22	37055.36
536.38	37205.16
536.55	37015.57
536.72	37022.59
536.89	37319.84
537.06	37481.34
537.23	37619.43
537.40	37315.16
537.57	37542.19
537.74	37294.10
537.91	37780.93
538.08	37411.12
538.25	37415.80
538.42	37581.98
538.59	37876.89
538.75	38101.58
538.92	37923.70
539.09	38422.23
539.26	37626.45
539.43	38164.78
539.60	38288.82
539.77	37645.18
539.94	38525.22
540.11	38265.42
540.28	38335.63
540.44	38010.30
540.61	38270.10
540.78	38188.18
540.95	38417.55
541.12	38490.11
541.29	38223.29
541.46	38635.22
541.62	38487.77
541.79	38672.67
541.96	38377.76
542.13	38164.78
542.30	38946.51
542.47	38974.60
542.63	38728.84
542.80	38909.07
542.97	39178.23
543.14	39325.68
543.31	39145.46
543.48	39564.42
543.64	39519.95
543.81	39545.69
543.98	39063.54
544.15	39157.16
544.32	39632.29
544.48	39765.70
544.65	39688.46
544.82	39880.39
544.99	39295.25
545.16	39484.84
545.32	39800.81
545.49	40198.70
545.66	39772.72
545.83	40184.66
546.00	39906.13
546.16	39894.43
546.33	39653.36
546.50	40219.77
546.67	40421.05
546.83	39672.08
547.00	40231.47
547.17	40076.99
547.34	40034.86
547.50	40353.18
547.67	40627.02
547.84	40528.72
548.00	40509.99
548.17	41088.10
548.34	40495.95
548.51	40818.94
548.67	40781.49
548.84	40484.25
549.01	40849.37
549.18	40818.94
549.34	40825.96
549.51	40816.60
549.68	40704.26
549.84	41064.70
550.01	40854.05
550.18	40428.07
550.34	40821.28
550.51	41041.29
550.68	41060.02
550.84	40818.94
551.01	41528.13
551.18	41165.34
551.34	41099.81
551.51	41184.07
551.68	41216.83
551.84	41296.41
552.01	40985.12
552.18	41219.17
552.34	41420.46
552.51	41446.21
552.68	41338.54
552.84	41736.43
553.01	41242.58
553.18	41507.06
553.34	41736.43
553.51	41930.70
553.67	41703.67
553.84	41675.58
554.01	41963.46
554.17	41598.34
554.34	41593.66
554.51	41926.02
554.67	41720.05
554.84	42227.95
555.00	41968.15
555.17	41560.89
555.33	41984.53
555.50	41832.39
555.67	42038.36
555.83	42024.32
556.00	41937.72
556.16	42707.76
556.33	41977.51
556.50	42323.91
556.66	42101.56
556.83	41918.99
556.99	42660.94
557.16	42543.92
557.32	42658.60
557.49	42717.12
557.65	42005.59
557.82	42625.84
557.98	42087.51
558.15	42389.44
558.32	42380.08
558.48	41968.15
558.65	42770.95
558.81	42590.73
558.98	42253.69
559.14	42426.89
559.31	42445.62
559.47	42518.17
559.64	43241.40
559.80	43051.81
559.97	43213.31
560.13	42792.01
560.30	42883.30
560.46	42913.72
560.63	42782.65
560.79	42658.60
560.96	42916.06
561.12	43129.05
561.29	43047.13
561.45	42808.40
561.61	42682.01
561.78	43072.88
561.94	42740.52
562.11	43049.47
562.27	42974.58
562.44	43166.50
562.60	43058.84
562.77	43306.93
562.93	43016.71
563.10	43302.25
563.26	42904.36
563.42	43779.72
563.59	43824.19
563.75	43161.82
563.92	43178.20
564.08	43150.12
564.24	43346.72
564.41	43480.13
564.57	43407.58
564.74	43920.15
564.90	43250.76
565.07	43330.34
565.23	43365.45
565.39	43269.48
565.56	43356.08
565.72	43449.70
565.88	43203.95
566.05	43681.42
566.21	42876.27
566.38	43627.59
566.54	43278.85
566.70	43650.99
566.87	43665.03
567.03	43215.65
567.19	43533.96
567.36	43594.82
567.52	43683.76
567.68	44142.50
567.85	44107.40
568.01	43803.13
568.17	43253.10
568.34	43763.34
568.50	43761.00
568.66	43398.21
568.83	43721.21
568.99	43353.74
569.15	43622.90
569.32	43564.39
569.48	43763.34
569.64	44072.29
569.81	43833.55
569.97	44069.95
570.13	44119.10
570.30	43824.19
570.46	43597.16
570.62	43789.08
570.78	43517.58
570.95	43920.15
571.11	44210.38
571.27	43838.23
571.43	43894.41
571.60	43828.87
571.76	44018.46
571.92	44126.12
572.09	44067.61
572.25	43746.95
572.41	44004.41
572.57	44329.75
572.74	44278.25
572.90	43962.28
573.06	44184.63
573.22	44121.44
573.38	44119.10
573.55	44285.28
573.71	44194.00
573.87	44189.31
574.03	43875.68
574.20	44704.23
574.36	44156.55
574.52	44130.80
574.68	44509.97
574.84	44144.84
575.01	44449.11
575.17	44626.99
575.33	44701.89
575.49	44638.70
575.65	44247.83
575.82	44512.31
575.98	44261.87
576.14	44900.84
576.30	44676.15
576.46	44491.24
576.62	44098.03
576.79	44711.25
576.95	43999.73
577.11	44498.26
577.27	43643.97
577.43	44168.25
577.59	43763.34
577.75	44582.52
577.92	43934.20
578.08	44414.01
578.24	44470.18
578.40	44486.56
578.56	44334.43
578.72	44140.16
578.88	44264.21
579.04	44425.71
579.21	44172.93
579.37	44477.20
579.53	44465.50
579.69	44622.31
579.85	44320.38
580.01	44493.58
580.17	44374.22
580.33	44442.09
580.49	44638.70
580.65	44439.75
580.82	44470.18
580.98	44250.17
581.14	44549.76
581.30	45095.10
581.46	44308.68
581.62	44435.07
581.78	44208.04
581.94	44397.62
582.10	44704.23
582.26	44872.75
582.42	44470.18
582.58	44252.51
582.74	44713.59
582.90	44250.17
583.06	44594.23
583.22	44165.91
583.38	44818.92
583.54	44739.34
583.70	44428.05
583.86	44786.15
584.02	44114.42
584.18	45158.30
584.34	44500.61
584.50	44989.78
584.66	45116.17
584.82	44879.77
584.98	44814.24
585.14	44945.31
585.30	44619.97
585.46	44608.27
585.62	44430.39
585.78	44584.86
585.94	44524.01
586.10	44601.25
586.26	44615.29
586.42	44301.66
586.58	44945.31
586.74	44406.98
586.90	44554.44
587.06	44769.77
587.22	44715.93
587.38	44402.30
587.54	44774.45
587.70	45446.18
587.86	45010.84
588.02	44636.36
588.18	44708.91
588.34	44341.45
588.49	44697.21
588.65	44868.07
588.81	44884.45
588.97	44769.77
589.13	45144.25
589.29	44612.95
589.45	45397.03
589.61	44610.61
589.77	44493.58
589.93	44671.46
590.08	44858.71
590.24	45139.57
590.40	45251.92
590.56	45352.56
590.72	45291.71
590.88	44968.71
591.04	44868.07
591.20	45270.64
591.35	45109.14
591.51	45392.35
591.67	45422.78
591.83	45694.28
591.99	45177.02
592.15	44533.37
592.31	45092.76
592.46	44704.23
592.62	44994.46
592.78	45432.14
592.94	45624.06
593.10	45055.31
593.26	45319.79
593.41	45542.14
593.57	45130.21
593.73	45052.97
593.89	45607.68
594.05	45509.38
594.20	45041.27
594.36	45469.59
594.52	45703.64
594.68	44985.10
594.84	45123.19
594.99	45727.05
595.15	45118.51
595.31	45411.07
595.47	45099.78
595.62	45298.73
595.78	45586.61
595.94	45059.99
596.10	45289.37
596.25	45717.68
596.41	45696.62
596.57	44938.29
596.73	45240.21
596.88	45818.33
597.04	45326.81
597.20	45485.97
597.36	45752.79
597.51	45488.31
597.67	45221.49
597.83	45193.40
597.99	45137.23
598.14	45191.06
598.30	45305.75
598.46	45031.91
598.61	45542.14
598.77	45654.49
598.93	45815.99
599.09	45762.15
599.24	46075.79
599.40	45659.17
599.56	45661.51
599.71	45654.49
599.87	45841.73
600.03	45567.89
600.18	45832.37
600.34	45333.84
600.50	45455.54
600.65	45390.01
600.81	45902.59
600.97	45815.99
601.12	45846.41
601.28	45666.19
601.44	45766.84
601.59	45853.44
601.75	45698.96
601.91	45710.66
602.06	45453.20
602.22	45982.16
602.37	45450.86
602.53	45691.94
602.69	45528.10
602.84	45099.78
603.00	45464.91
603.16	45647.47
603.31	45715.34
603.47	45745.77
603.62	45418.10
603.78	45752.79
603.94	45689.60
604.09	45881.52
604.25	45586.61
604.40	45350.22
604.56	45778.54
604.71	45670.87
604.87	45336.18
605.03	45418.10
605.18	45773.86
605.34	45603.00
605.49	45099.78
605.65	45696.62
605.80	45228.51
605.96	45427.46
606.12	45141.91
606.27	45500.01
606.43	45780.88
606.58	45771.52
606.74	45577.25
606.89	45308.09
607.05	45401.71
607.20	45228.51
607.36	45523.42
607.51	45528.10
607.67	45390.01
607.82	45488.31
607.98	44947.65
608.13	45317.45
608.29	45249.58
608.44	45385.33
608.60	45214.47
608.75	45614.70
608.91	45509.38
609.06	45095.10
609.22	45567.89
609.37	44886.79
609.53	45516.40
609.68	45390.01
609.84	44910.20
609.99	45144.25
610.15	45399.37
610.30	45329.16
610.46	44940.63
610.61	45485.97
610.76	45408.73
610.92	44964.03
611.07	45113.83
611.23	45069.36
611.38	45027.23
611.54	45158.30
611.69	45350.22
611.84	44760.40
612.00	45003.82
612.15	44802.53
612.31	45184.04
612.46	44844.66
612.62	44472.52
612.77	44870.41
612.92	44949.99
613.08	44818.92
613.23	44954.67
613.39	44964.03
613.54	45221.49
613.69	45284.68
613.85	44957.01
614.00	44414.01
614.15	44982.76
614.31	44910.20
614.46	44587.21
614.62	44875.09
614.77	44783.81
614.92	44982.76
615.08	44622.31
615.23	44479.54
615.38	44973.39
615.54	44921.90
615.69	45092.76
615.84	44818.92
616.00	45088.08
616.15	44900.84
616.30	45001.48
616.46	44767.43
616.61	44828.28
616.76	45280.00
616.92	44486.56
617.07	44690.19
617.22	44175.27
617.37	44016.11
617.53	44863.39
617.68	44566.14
617.83	44456.14
617.99	44741.68
618.14	44626.99
618.29	44304.00
618.45	44252.51
618.60	43957.60
618.75	44109.74
618.90	44313.36
619.06	44266.55
619.21	44524.01
619.36	44399.96
619.51	43962.28
619.67	44287.62
619.82	44439.75
619.97	44165.91
620.12	44034.84
620.28	44240.81
620.43	44292.30
620.58	44154.21
620.73	44406.98
620.89	44486.56
621.04	44318.04
621.19	44086.33
621.34	43908.45
621.49	44013.77
621.65	44069.95
621.80	44350.81
621.95	44158.89
622.10	44254.85
622.25	43789.08
622.41	43824.19
622.56	43903.77
622.71	44130.80
622.86	43824.19
623.01	43934.20
623.16	44020.80
623.32	43838.23
623.47	44198.68
623.62	43625.25
623.77	44091.01
623.92	44030.16
624.07	44086.33
624.23	43751.63
624.38	44051.22
624.53	43709.50
624.68	43187.56
624.83	43372.47
624.98	43721.21
625.13	42742.86
625.29	43271.82
625.44	43466.09
625.59	43564.39
625.74	43761.00
625.89	42911.38
626.04	43344.38
626.19	43283.53
626.34	43316.29
626.49	42904.36
626.65	42925.42
626.80	43344.38
626.95	43002.66
627.10	43210.97
627.25	43175.86
627.40	43203.95
627.55	43421.62
627.70	43213.31
627.85	43145.44
628.00	42960.53
628.15	43339.70
628.30	42691.37
628.45	42794.36
628.60	42387.10
628.76	42504.13
628.91	42696.05
629.06	42836.48
629.21	42871.59
629.36	42309.86
629.51	42707.76
629.66	42525.19
629.81	42719.46
629.96	42562.64
630.11	42579.03
630.26	42321.57
630.41	42614.13
630.56	42869.25
630.71	42646.90
630.86	42672.65
631.01	42749.88
631.16	42579.03
631.31	42361.36
631.46	42731.16
631.61	42770.95
631.76	42707.76
631.91	42693.71
632.06	42815.42
632.21	42817.76
632.36	42955.85
632.51	41785.58
632.66	42557.96
632.81	42426.89
632.96	42258.37
633.10	41947.08
633.25	42330.93
633.40	42270.08
633.55	42511.15
633.70	42061.77
633.85	42220.92
634.00	41811.33
634.15	41918.99
634.30	42394.12
634.45	42038.36
634.60	42026.66
634.75	42183.48
634.90	42043.04
635.05	41986.87
635.19	42213.90
635.34	41654.51
635.49	41708.35
635.64	41853.46
635.79	42153.05
635.94	41954.10
636.09	41787.92
636.24	42029.00
636.39	41909.63
636.53	41593.66
636.68	41556.21
636.83	41350.24
636.98	41394.71
637.13	40959.38
637.28	41294.07
637.43	41787.92
637.57	41462.59
637.72	41361.95
637.87	41593.66
638.02	41591.32
638.17	41486.00
638.32	41413.44
638.46	40877.46
638.61	40968.74
638.76	41268.33
638.91	41291.73
639.06	41055.34
639.20	41099.81
639.35	41106.83
639.50	41137.26
639.65	41048.32
639.80	41308.11
639.94	41532.81
640.09	40950.01
640.24	41268.33
640.39	40942.99
640.54	40699.58
640.68	41214.49
640.83	41455.57
640.98	40598.93
641.13	40559.14
641.27	40957.03
641.42	40893.84
641.57	40601.27
641.72	41001.50
641.86	40755.75
642.01	40076.99
642.16	41001.50
642.31	40456.16
642.45	40694.89
642.60	40439.78
642.75	40624.68
642.90	40692.55
643.04	40818.94
643.19	40547.44
643.34	40460.84
643.48	40694.89
643.63	40271.26
643.78	40669.15
643.93	40617.66
644.07	40650.42
644.22	40477.22
644.37	40982.78
644.51	40704.26
644.66	40715.96
644.81	40285.30
644.95	40285.30
645.10	39730.59
645.25	40432.75
645.39	40041.88
645.54	40458.50
645.69	39864.00
645.83	39782.09
645.98	39976.35
646.13	39746.98
646.27	40074.65
646.42	39866.34
646.57	39910.82
646.71	40002.10
646.86	40575.53
647.00	39962.31
647.15	40046.57
647.30	39945.92
647.44	39693.15
647.59	40189.34
647.74	39824.22
647.88	39796.13
648.03	40182.32
648.17	39861.66
648.32	40203.38
648.47	39761.02
648.61	39419.30
648.76	39594.84
648.90	39756.34
649.05	39742.30
649.20	39358.45
649.34	39803.15
649.49	39922.52
649.63	40025.50
649.78	40102.74
649.92	39526.97
650.07	39976.35
650.21	39985.71
650.36	39585.48
650.51	39548.03
650.65	39845.28
650.80	39772.72
650.94	39318.66
651.09	39566.76
651.23	39213.34
651.38	39051.84
651.52	38635.22
651.67	39271.85
651.81	39468.45
651.96	38967.58
652.10	39019.07
652.25	38906.73
652.39	39318.66
652.54	39103.33
652.68	39246.10
652.83	39044.82
652.97	39744.64
653.12	38827.15
653.26	38696.08
653.41	39154.82
653.55	39175.89
653.70	39309.30
653.84	39129.08
653.99	38972.26
654.13	39402.92
654.27	38810.76
654.42	38782.68
654.56	38373.08
654.71	38595.43
654.85	39290.57
655.00	38890.34
655.14	38775.66
655.29	39047.16
655.43	38815.44
655.57	38595.43
655.72	38124.99
655.86	38295.85
656.01	38438.62
656.15	38073.49
656.30	38281.80
656.44	38630.54
656.58	38352.02
656.73	38651.61
656.87	38295.85
657.01	37837.10
657.16	38253.72
657.30	38181.16
657.45	38464.36
657.59	38216.27
657.73	37750.50
657.88	38209.25
658.02	38604.80
658.16	38478.41
658.31	38401.17
658.45	38256.06
658.60	38286.48
658.74	38139.03
658.88	38211.59
659.03	38120.31
659.17	37790.29
659.31	37825.40
659.46	37617.09
659.60	37752.84
659.74	37413.46
659.89	37322.18
660.03	37158.34
660.17	37453.25
660.32	37848.80
660.46	37022.59
660.60	37031.96
660.74	36807.26
660.89	37186.43
661.03	36996.85
661.17	37230.90
661.32	37064.72
661.46	37233.24
661.60	36828.33
661.74	37036.64
661.89	36966.42
662.03	37060.04
662.17	36776.84
662.31	36556.83
662.46	37017.91
662.60	36723.01
662.74	36271.28
662.88	36510.02
663.03	36620.02
663.17	36187.02
663.31	36444.48
663.45	36400.01
663.60	36643.43
663.74	36772.16
663.88	36425.76
664.02	36013.82
664.17	36062.97
664.31	36510.02
664.45	36128.51
664.59	36180.00
664.73	35866.37
664.88	36137.87
665.02	35658.06
665.16	35744.66
665.30	35468.48
665.44	36219.79
665.59	35566.78
665.73	35325.71
665.87	35218.04
666.01	35686.15
666.15	35461.46
666.29	35173.57
666.44	35852.33
666.58	35068.25
666.72	35028.46
666.86	35468.48
667.00	35519.97
667.14	34913.77
667.28	34981.65
667.43	34773.34
667.57	35826.58
667.71	34953.56
667.85	34873.98
667.99	35152.51
668.13	34789.72
668.27	34574.39
668.41	34501.84
668.56	34003.30
668.70	34572.05
668.84	34476.09
668.98	34019.69
669.12	34576.73
669.26	34553.33
669.40	34089.90
669.54	33729.46
669.68	34499.50
669.82	33528.17
669.96	33469.66
670.10	33523.49
670.25	33748.18
670.39	33804.36
670.53	33890.96
670.67	33652.22
670.81	33823.08
670.95	33577.33
671.09	33464.98
671.23	33406.47
671.37	33638.18
671.51	33305.82
671.65	33472.00
671.79	33195.82
671.93	33326.89
672.07	33591.37
672.21	33202.84
672.35	32877.51
672.49	32776.86
672.63	32664.52
672.77	32594.30
672.91	32854.10
673.05	32659.84
673.19	32245.56
673.33	32666.86
673.47	32149.60
673.61	31997.46
673.75	31938.95
673.89	31732.98
674.03	31899.16
674.17	31744.69
674.31	32198.75
674.45	32016.19
674.59	31707.24
674.73	31630.00
674.87	31557.44
675.01	31323.39
675.15	31143.17
675.29	31243.81
675.43	31489.57
675.56	31590.21
675.70	31124.44
675.84	31028.48
675.98	29984.60
676.12	30501.86
676.26	30979.33
676.40	30740.60
676.54	30445.69
676.68	31138.49
676.82	30335.68
676.96	30302.92
677.10	30586.12
677.23	30586.12
677.37	30302.92
677.51	30008.01
677.65	30106.31
677.79	29979.92
677.93	30213.98
678.07	29928.43
678.21	29149.03
678.34	29530.54
678.48	29509.47
678.62	29303.51
678.76	29177.12
678.90	29123.29
679.04	29142.01
679.18	29179.46
679.31	29053.07
679.45	28645.82
679.59	28769.86
679.73	28779.23
679.87	28680.92
680.00	28194.09
680.14	28428.15
680.28	28683.27
680.42	28175.37
680.56	27988.13
680.70	27751.73
680.83	27840.67
680.97	27796.20
681.11	27922.59
681.25	27449.80
681.39	27309.37
681.52	27475.55
681.66	27218.09
681.80	26764.03
681.94	26984.04
682.07	26785.09
682.21	27133.83
682.35	26560.40
682.49	26604.87
682.62	26799.13
682.76	26946.59
682.90	26609.55
683.04	26590.83
683.17	26483.16
683.31	26480.82
683.45	25972.92
683.59	26075.91
683.72	25638.23
683.86	25493.12
684.00	25685.04
684.13	26169.53
684.27	25298.85
684.41	25621.84
684.55	25418.22
684.68	25261.40
684.82	25165.44
684.96	25118.63
685.09	25036.71
685.23	25048.41
685.37	25378.43
685.50	25247.36
685.64	24800.32
685.78	24610.73
685.91	24748.82
686.05	24177.73
686.19	24151.99
686.32	24212.84
686.46	23859.42
686.60	23447.49
686.73	24105.18
686.87	23995.17
687.01	23995.17
687.14	23749.42
687.28	23679.20
687.42	23751.76
687.55	23466.21
687.69	23264.92
687.82	23367.91
687.96	23290.67
688.10	23311.74
688.23	23419.40
688.37	23421.74
688.50	23307.05
688.64	22860.01
688.78	22838.95
688.91	22405.95
689.05	22511.27
689.18	22499.57
689.32	21989.33
689.46	22185.94
689.59	22401.27
689.73	22396.59
689.86	22609.58
690.00	22146.15
690.13	21837.20
690.27	21694.43
690.41	21855.92
690.54	21734.21
690.68	21556.33
690.81	21376.11
690.95	21287.17
691.08	20975.88
691.22	21287.17
691.35	21174.83
691.49	21221.64
691.62	21359.73
691.76	20603.74
691.89	20393.09
692.03	20442.24
692.16	20500.75
692.30	20240.95
692.43	20430.54
692.57	19960.09
692.70	20233.93
692.84	19779.87
692.97	19826.68
693.11	19814.98
693.24	19613.69
693.38	19751.78
693.51	19601.99
693.65	19536.45
693.78	19396.02
693.92	19206.44
694.05	19124.52
694.19	18904.51
694.32	18815.57
694.45	19374.95
694.59	19503.68
694.72	19346.87
694.86	19042.60
694.99	18808.54
695.13	18813.23
695.26	18448.10
695.39	18485.55
695.53	18092.34
695.66	18178.94
695.80	18010.42
695.93	18258.52
696.07	18075.96
696.20	17736.58
696.33	17699.13
696.47	17436.99
696.60	17572.74
696.73	17436.99
696.87	17907.44
697.00	17628.92
697.14	17369.12
697.27	17376.14
697.40	17429.97
697.54	17261.45
697.67	17418.27
697.80	17163.15
697.94	16755.90
698.07	16975.91
698.21	16655.25
698.34	16975.91
698.47	16648.23
698.61	16161.40
698.74	16444.60
698.87	16320.56
699.01	16327.58
699.14	16428.22
699.27	16126.29
699.40	16142.67
699.54	15852.45
699.67	16032.67
699.80	16013.95
699.94	15875.85
700.07	15742.44
700.20	15763.51
700.34	15538.82
700.47	15323.49
700.60	15786.91
700.73	15704.99
700.87	15403.07
701.00	15014.54
701.13	15080.07
701.26	15115.18
701.40	15021.56
701.53	15084.75
701.66	15063.69
701.79	15019.22
701.93	14459.83
702.06	14455.15
702.19	14534.73
702.32	14801.55
702.46	14581.54
702.59	14464.51
702.72	14562.81
702.85	14471.53
702.99	14148.54
703.12	14068.96
703.25	14253.86
703.38	13923.85
703.51	14237.48
703.65	13631.28
703.78	13734.26
703.91	13645.32
704.04	13544.68
704.17	13413.61
704.31	13233.39
704.44	13486.17
704.57	13282.54
704.70	13310.63
704.83	13179.56
704.96	13165.51
705.10	13123.38
705.23	13055.51
>>>>>End Processed Spectral Data<<<<<
