SpectraSuite Data File
++++++++++++++++++++++++++++++++++++
Date: Fri Oct 25 10:47:04 EDT 2013
User: price-jones
Dark Spectrum Present: No
Reference Spectrum Present: No
Number of Sampled Component Spectra: 1
Spectrometers: USB2+H05261
Integration Time (usec): 100000 (USB2+H05261)
Spectra Averaged: 1 (USB2+H05261)
Boxcar Smoothing: 0 (USB2+H05261)
Correct for Electrical Dark: No (USB2+H05261)
Strobe/Lamp Enabled: No (USB2+H05261)
Correct for Detector Non-linearity: No (USB2+H05261)
Correct for Stray Light: No (USB2+H05261)
Number of Pixels in Processed Spectrum: 2048
>>>>>Begin Processed Spectral Data<<<<<
365.73	173.20
365.92	173.20
366.12	173.20
366.32	28.09
366.52	0.00
366.72	91.28
366.91	63.19
367.11	63.19
367.31	51.49
367.51	107.66
367.70	42.13
367.90	46.81
368.10	110.01
368.30	37.45
368.49	4.68
368.69	7.02
368.89	95.96
369.09	35.11
369.28	42.13
369.48	49.15
369.68	49.15
369.87	100.64
370.07	102.98
370.27	133.41
370.47	117.03
370.66	451.72
370.86	461.09
371.06	477.47
371.25	449.38
371.45	430.66
371.65	479.81
371.84	369.80
372.04	489.17
372.24	472.79
372.44	447.04
372.63	489.17
372.83	512.58
373.03	547.69
373.22	416.62
373.42	503.22
373.62	475.13
373.81	510.24
374.01	557.05
374.21	517.26
374.40	533.64
374.60	641.31
374.79	554.71
374.99	641.31
375.19	496.19
375.38	599.18
375.58	538.32
375.78	617.90
375.97	582.79
376.17	634.29
376.37	528.96
376.56	629.60
376.76	559.39
376.95	620.24
377.15	657.69
377.35	592.16
377.54	631.94
377.74	575.77
377.93	627.26
378.13	631.94
378.33	613.22
378.52	706.84
378.72	716.20
378.91	638.97
379.11	627.26
379.31	552.37
379.50	627.26
379.70	650.67
379.89	744.29
380.09	601.52
380.28	622.58
380.48	709.18
380.68	648.33
380.87	660.03
381.07	653.01
381.26	699.82
381.46	676.41
381.65	711.52
381.85	685.78
382.04	662.37
382.24	723.23
382.43	702.16
382.63	723.23
382.83	664.71
383.02	758.33
383.22	788.76
383.41	718.54
383.61	716.20
383.80	758.33
384.00	660.03
384.19	753.65
384.39	655.35
384.58	741.95
384.78	854.30
384.97	767.70
385.17	784.08
385.36	753.65
385.56	777.06
385.75	805.14
385.95	737.27
386.14	844.93
386.34	732.59
386.53	807.48
386.72	777.06
386.92	863.66
387.11	840.25
387.31	917.49
387.50	837.91
387.70	938.55
387.89	816.85
388.09	786.42
388.28	847.27
388.48	786.42
388.67	898.77
388.86	896.43
389.06	926.85
389.25	842.59
389.45	854.30
389.64	905.79
389.84	844.93
390.03	931.53
390.22	940.90
390.42	992.39
390.61	954.94
390.81	964.30
391.00	957.28
391.19	1039.20
391.39	1008.77
391.58	999.41
391.78	1057.92
391.97	1034.52
392.16	940.90
392.36	1032.18
392.55	1032.18
392.75	1025.15
392.94	908.13
393.13	983.02
393.33	1036.86
393.52	915.15
393.71	1001.75
393.91	1022.81
394.10	994.73
394.29	1095.37
394.49	1053.24
394.68	1109.41
394.88	1083.67
395.07	1118.78
395.26	1163.25
395.46	1188.99
395.65	1198.35
395.84	1125.80
396.04	1142.18
396.23	1137.50
396.42	1083.67
396.62	1088.35
396.81	1060.26
397.00	1177.29
397.19	1184.31
397.39	1231.12
397.58	1193.67
397.77	1231.12
397.97	1329.42
398.16	1350.49
398.35	1409.00
398.55	1273.25
398.74	1212.40
398.93	1432.41
399.12	1366.87
399.32	1364.53
399.51	1401.98
399.70	1345.81
399.90	1441.77
400.09	1465.18
400.28	1474.54
400.47	1455.81
400.67	1537.73
400.86	1509.65
401.05	1497.94
401.24	1647.74
401.44	1416.02
401.63	1577.52
401.82	1575.18
402.01	1427.73
402.21	1476.88
402.40	1591.56
402.59	1596.25
402.78	1577.52
402.97	1554.12
403.17	1558.80
403.36	1671.14
403.55	1598.59
403.74	1661.78
403.93	1673.48
404.13	1652.42
404.32	1638.38
404.51	1710.93
404.70	1703.91
404.89	1741.36
405.09	1729.66
405.28	1842.00
405.47	1783.49
405.66	1865.41
405.85	1823.28
406.05	1823.28
406.24	1827.96
406.43	1720.29
406.62	1797.53
406.81	1842.00
407.00	1905.20
407.20	1877.11
407.39	1846.68
407.58	1961.37
407.77	2001.16
407.96	2005.84
408.15	2080.74
408.34	2038.61
408.54	2036.27
408.73	2059.67
408.92	2038.61
409.11	2045.63
409.30	2104.14
409.49	2062.01
409.68	2003.50
409.87	2090.10
410.07	2155.63
410.26	2167.34
410.45	2225.85
410.64	2155.63
410.83	2242.23
411.02	2188.40
411.21	2260.96
411.40	2253.94
411.59	2347.56
411.78	2408.41
411.98	2377.98
412.17	2340.54
412.36	2303.09
412.55	2469.27
412.74	2427.14
412.93	2490.33
413.12	2368.62
413.31	2525.44
413.50	2424.80
413.69	2656.51
413.88	2663.53
414.07	2567.57
414.26	2628.42
414.45	2677.57
414.64	2729.06
414.83	2661.19
415.02	2773.53
415.22	2862.48
415.41	2832.05
415.60	2899.92
415.79	2825.03
415.98	2874.18
416.17	2822.69
416.36	2930.35
416.55	3082.49
416.74	3096.53
416.93	2949.08
417.12	3049.72
417.31	2904.60
417.50	3105.89
417.69	3162.06
417.88	3148.02
418.07	3115.25
418.26	3145.68
418.45	3162.06
418.64	3353.99
418.83	3211.22
419.02	3206.53
419.21	3288.45
419.39	3297.81
419.58	3171.43
419.77	3255.69
419.96	3276.75
420.15	3419.52
420.34	3295.47
420.53	3372.71
420.72	3325.90
420.91	3449.95
421.10	3358.67
421.29	3487.40
421.48	3438.25
421.67	3534.21
421.86	3410.16
422.05	3456.97
422.24	3536.55
422.43	3377.39
422.61	3609.11
422.80	3637.19
422.99	3559.95
423.18	3595.06
423.37	3574.00
423.56	3569.32
423.75	3552.93
423.94	3480.38
424.13	3335.26
424.32	3431.23
424.50	3684.00
424.69	3646.55
424.88	3637.19
425.07	3440.59
425.26	3508.46
425.45	3503.78
425.64	3679.32
425.83	3623.15
426.01	3641.87
426.20	3709.75
426.39	3733.15
426.58	3655.92
426.77	3531.87
426.96	3737.84
427.15	3599.74
427.33	3679.32
427.52	3861.88
427.71	3878.27
427.90	3866.56
428.09	3810.39
428.28	3857.20
428.46	3749.54
428.65	3772.94
428.84	3887.63
429.03	4007.00
429.22	3805.71
429.40	3892.31
429.59	3911.04
429.78	3618.47
429.97	3721.45
430.16	3730.81
430.34	3836.14
430.53	3969.55
430.72	3941.46
430.91	3826.78
431.10	4060.83
431.28	4196.58
431.47	4227.01
431.66	4290.20
431.85	4140.41
432.03	4262.12
432.22	4215.30
432.41	4194.24
432.60	4262.12
432.79	4187.22
432.97	4227.01
433.16	4231.69
433.35	4250.41
433.54	4418.93
433.72	4159.13
433.91	4386.16
434.10	4365.10
434.28	4482.13
434.47	4372.12
434.66	4528.94
434.85	4449.36
435.03	4573.41
435.22	4568.73
435.41	4674.05
435.59	4582.77
435.78	4695.11
435.97	4566.39
436.16	4610.86
436.34	4587.45
436.53	4589.79
436.72	4760.65
436.90	4615.54
437.09	4702.14
437.28	4667.03
437.46	4765.33
437.65	4767.67
437.84	4840.23
438.02	4748.95
438.21	4851.93
438.40	4734.90
438.58	5039.17
438.77	4994.70
438.96	5114.07
439.14	5053.22
439.33	5217.05
439.52	5114.07
439.70	5085.98
439.89	5364.51
440.08	5156.20
440.26	5149.18
440.45	5069.60
440.63	5334.08
440.82	5439.40
441.01	5427.70
441.19	5554.09
441.38	5474.51
441.57	5387.91
441.75	5668.78
441.94	5746.02
442.12	5804.53
442.31	5926.24
442.50	5710.91
442.68	5589.20
442.87	5671.12
443.05	5671.12
443.24	5898.15
443.43	5769.42
443.61	5853.68
443.80	5902.83
443.98	5841.98
444.17	5659.42
444.35	5865.38
444.54	5940.28
444.73	5877.09
444.91	5888.79
445.10	5781.12
445.28	5818.57
445.47	5816.23
445.65	5825.59
445.84	5975.39
446.02	5834.96
446.21	6024.54
446.39	6071.35
446.58	6143.91
446.77	6029.22
446.95	5891.13
447.14	6073.69
447.32	6052.63
447.51	6015.18
447.69	6101.78
447.88	6076.03
448.06	6111.14
448.25	6064.33
448.43	6052.63
448.62	6223.48
448.80	6115.82
448.99	6127.52
449.17	6277.32
449.36	6064.33
449.54	6349.87
449.73	6328.81
449.91	6415.41
450.10	6424.77
450.28	6420.09
450.46	6480.94
450.65	6499.67
450.83	6384.98
451.02	6417.75
451.20	6555.84
451.39	6604.99
451.57	6396.68
451.76	6427.11
451.94	6654.14
452.13	6689.25
452.31	6497.33
452.49	6380.30
452.68	6420.09
452.86	6476.26
453.05	6724.36
453.23	6623.72
453.42	6604.99
453.60	6696.27
453.78	6855.43
453.97	6935.01
454.15	6703.29
454.34	6558.18
454.52	6810.96
454.70	6726.70
454.89	6829.68
455.07	6944.37
455.26	7030.97
455.44	7208.85
455.62	6836.70
455.81	7129.27
455.99	7023.95
456.17	6974.80
456.36	7276.73
456.54	7370.35
456.73	7091.82
456.91	7302.47
457.09	7520.14
457.28	7489.71
457.46	7339.92
457.64	7513.12
457.83	7389.07
458.01	7267.36
458.19	7569.29
458.38	7590.36
458.56	7573.97
458.74	7386.73
458.93	7468.65
459.11	7744.83
459.29	7548.23
459.48	7817.39
459.66	7611.42
459.84	7859.52
460.03	7901.65
460.21	7674.62
460.39	7616.10
460.57	7882.92
460.76	7922.71
460.94	7758.88
461.12	7829.09
461.31	7880.58
461.49	8013.99
461.67	7777.60
461.85	7976.55
462.04	8023.36
462.22	8486.78
462.40	8262.09
462.59	7913.35
462.77	8241.03
462.95	8362.73
463.13	8051.44
463.32	8201.24
463.50	8226.98
463.68	8100.59
463.86	8325.29
464.05	8077.19
464.23	8194.22
464.41	8386.14
464.59	8329.97
464.78	8416.57
464.96	8336.99
465.14	8135.70
465.32	8432.95
465.50	8730.20
465.69	8596.79
465.87	8432.95
466.05	8327.63
466.23	8517.21
466.41	8311.24
466.60	8531.25
466.78	8500.83
466.96	8671.68
467.14	8486.78
467.32	8685.73
467.51	8851.91
467.69	8395.50
467.87	8786.37
468.05	8807.44
468.23	8564.02
468.41	8697.43
468.60	8704.45
468.78	8730.20
468.96	8765.31
469.14	8929.14
469.32	8961.91
469.50	8711.47
469.69	8957.23
469.87	9123.41
470.05	9057.87
470.23	9198.31
470.41	8973.61
470.59	9242.78
470.77	9062.55
470.95	9191.28
471.14	9329.38
471.32	9259.16
471.50	9359.80
471.68	9413.63
471.86	9551.73
472.04	9582.15
472.22	9741.31
472.40	9184.26
472.58	9504.92
472.77	9516.62
472.95	9767.06
473.13	9834.93
473.31	9933.23
473.49	9689.82
473.67	9834.93
473.85	9802.16
474.03	10153.24
474.21	9989.41
474.39	10122.82
474.57	10197.71
474.75	10221.12
474.93	10480.92
475.12	10186.01
475.30	10370.91
475.48	10066.64
475.66	10504.32
475.84	10403.68
476.02	10684.55
476.20	10607.31
476.38	10602.63
476.56	11066.05
476.74	10897.53
476.92	10836.68
477.10	10911.58
477.28	10972.43
477.46	10967.75
477.64	11229.89
477.82	11115.20
478.00	11665.23
478.18	11501.39
478.36	11562.25
478.54	11782.26
478.72	11840.77
478.90	11922.69
479.08	11871.20
479.26	12020.99
479.44	11871.20
479.62	12236.32
479.80	12449.31
479.98	12308.88
480.16	12753.58
480.34	12648.26
480.52	12732.51
480.70	12636.55
480.88	12451.65
481.06	12980.61
481.24	12758.26
481.41	12959.55
481.59	13209.98
481.77	13399.57
481.95	13036.78
482.13	13397.23
482.31	13619.58
482.49	13752.99
482.67	13715.54
482.85	13923.85
483.03	14178.97
483.21	13961.30
483.39	14019.81
483.57	14185.99
483.74	14516.00
483.92	14523.02
484.10	14551.11
484.28	14518.34
484.46	14944.32
484.64	14920.92
484.82	15080.07
485.00	15059.01
485.18	15140.93
485.35	15391.36
485.53	15115.18
485.71	15234.55
485.89	15627.76
486.07	15672.23
486.25	15651.16
486.43	15822.02
486.61	15728.40
486.78	16065.44
486.96	16332.26
487.14	16582.70
487.32	16400.13
487.50	16657.59
487.68	16451.63
487.85	17011.01
488.03	17287.20
488.21	17289.54
488.39	17331.67
488.57	17490.82
488.75	17493.16
488.92	17635.94
489.10	17886.37
489.28	18022.12
489.46	18246.82
489.64	18010.42
489.81	18424.70
489.99	18597.90
490.17	18731.31
490.35	19054.30
490.53	18604.92
490.70	19077.71
490.88	18923.23
491.06	19349.21
491.24	19337.51
491.41	19389.00
491.59	19435.81
491.77	19314.10
491.95	19833.70
492.13	19747.10
492.30	20128.61
492.48	20147.33
492.66	20203.50
492.84	19978.81
493.01	20678.63
493.19	20613.10
493.37	20783.96
493.54	20753.53
493.72	20875.24
493.90	20985.24
494.08	21041.42
494.25	21443.99
494.43	21443.99
494.61	21731.87
494.79	21682.72
494.96	21881.67
495.14	21748.26
495.32	22221.05
495.49	22216.36
495.67	22218.71
495.85	22417.65
496.02	22607.23
496.20	22768.73
496.38	22518.29
496.55	22747.67
496.73	23211.09
496.91	23094.07
497.09	23185.35
497.26	22902.14
497.44	23257.90
497.62	23417.06
497.79	23707.29
497.97	23616.01
498.14	23920.28
498.32	23611.32
498.50	24276.04
498.67	24453.92
498.85	24390.72
499.03	24428.17
499.20	24269.01
499.38	24364.98
499.56	24676.27
499.73	25088.20
499.91	24524.13
500.08	24748.82
500.26	24889.26
500.44	25060.12
500.61	24877.55
500.79	24903.30
500.97	25123.31
501.14	25242.68
501.32	25476.73
501.49	25469.71
501.67	25596.10
501.84	25724.83
502.02	25635.89
502.20	25675.68
502.37	26209.32
502.55	25958.88
502.72	26209.32
502.90	26073.57
503.07	26206.98
503.25	26082.93
503.43	26260.81
503.60	26621.25
503.78	26771.05
503.95	26675.09
504.13	26623.59
504.30	26761.69
504.48	27070.64
504.65	26881.05
504.83	27220.43
505.01	27365.54
505.18	27321.07
505.36	27573.85
505.53	27285.97
505.71	27644.07
505.88	27878.12
506.06	27758.75
506.23	27672.15
506.41	27496.61
506.58	27864.08
506.76	28044.30
506.93	28180.05
507.11	28037.28
507.28	28477.30
507.46	28716.03
507.63	28180.05
507.81	28449.21
507.98	28521.77
508.16	28568.58
508.33	28498.36
508.50	29064.77
508.68	29237.97
508.85	29273.08
509.03	28994.56
509.20	29062.43
509.38	29670.97
509.55	29766.93
509.73	29495.43
509.90	29764.59
510.08	29539.90
510.25	29326.91
510.42	29553.94
510.60	29708.42
510.77	30228.02
510.95	29722.46
511.12	29809.06
511.30	30501.86
511.47	30195.25
511.64	30583.78
511.82	30548.67
511.99	30511.22
512.17	30677.40
512.34	30059.50
512.51	30773.36
512.69	30824.86
512.86	31042.53
513.04	31136.15
513.21	31021.46
513.38	31002.74
513.56	31201.68
513.73	30927.84
513.90	31332.75
514.08	31105.72
514.25	31428.71
514.43	31129.12
514.60	31405.31
514.77	31232.11
514.95	31789.16
515.12	32013.85
515.29	31763.41
515.47	31971.72
515.64	32112.15
515.81	32100.45
515.99	31810.22
516.16	32055.98
516.33	31990.44
516.51	31637.02
516.68	31910.86
516.85	31559.78
517.03	32142.58
517.20	32238.54
517.37	32259.60
517.54	32507.70
517.72	32769.84
517.89	32376.63
518.06	32566.21
518.24	32493.66
518.41	32488.98
518.58	32961.76
518.75	33031.98
518.93	32994.53
519.10	33139.65
519.27	33092.83
519.45	33373.70
519.62	33092.83
519.79	33509.45
519.96	33436.89
520.14	34160.12
520.31	33434.55
520.48	33802.02
520.65	33277.74
520.83	34560.35
521.00	33759.89
521.17	34218.63
521.34	34286.51
521.52	34220.97
521.69	33776.27
521.86	34206.93
522.03	34387.15
522.20	34583.76
522.38	34349.70
522.55	34810.79
522.72	34462.05
522.89	34745.25
523.07	35002.71
523.24	34895.05
523.41	34761.64
523.58	34448.00
523.75	35349.11
523.92	35161.87
524.10	34981.65
524.27	35365.49
524.44	35201.66
524.61	35611.25
524.78	35489.54
524.96	35810.20
525.13	35449.75
525.30	36004.46
525.47	35831.26
525.64	35660.40
525.81	35831.26
525.98	35480.18
526.16	35772.75
526.33	35494.22
526.50	35765.73
526.67	35529.33
526.84	35772.75
527.01	35749.34
527.18	35831.26
527.36	36425.76
527.53	36435.12
527.70	36978.12
527.87	36568.53
528.04	36250.22
528.21	36540.44
528.38	36725.35
528.55	36800.24
528.72	36795.56
528.89	36912.59
529.07	37064.72
529.24	36659.81
529.41	36964.08
529.58	36987.49
529.75	36844.71
529.92	37205.16
530.09	37329.20
530.26	37638.15
530.43	37614.75
530.60	37160.69
530.77	37563.26
530.94	37706.03
531.11	37350.27
531.28	37818.38
531.46	37619.43
531.63	37680.28
531.80	37645.18
531.97	37867.53
532.14	37467.30
532.31	37479.00
532.48	37574.96
532.65	37677.94
532.82	38007.96
532.99	37670.92
533.16	37593.68
533.33	37832.42
533.50	38445.64
533.67	37993.92
533.84	38328.61
534.01	38508.83
534.18	38185.84
534.35	38375.42
534.52	38471.39
534.69	38293.50
534.86	38789.70
535.03	38281.80
535.20	39065.88
535.37	38625.86
535.54	39309.30
535.71	38618.84
535.88	38649.27
536.05	38625.86
536.22	39009.71
536.38	38572.03
536.55	38614.16
536.72	38944.17
536.89	38438.62
537.06	38775.66
537.23	39028.43
537.40	39299.94
537.57	39042.48
537.74	39086.95
537.91	39908.47
538.08	39583.14
538.25	39161.84
538.42	39473.13
538.59	39482.50
538.75	39210.99
538.92	39543.35
539.09	39585.48
539.26	39379.51
539.43	39398.24
539.60	39690.80
539.77	39765.70
539.94	39728.25
540.11	39824.22
540.28	39814.85
540.44	39569.10
540.61	39541.01
540.78	39906.13
540.95	39873.37
541.12	40006.78
541.29	40055.93
541.46	39976.35
541.62	39941.24
541.79	40601.27
541.96	39810.17
542.13	40243.17
542.30	40488.93
542.47	40524.04
542.63	40753.41
542.80	40643.40
542.97	40779.15
543.14	41111.51
543.31	41053.00
543.48	41116.19
543.64	41247.26
543.81	41006.19
543.98	41069.38
544.15	41528.13
544.32	41291.73
544.48	41368.97
544.65	40973.42
544.82	41235.56
544.99	40727.66
545.16	41413.44
545.32	41148.96
545.49	41525.78
545.66	41380.67
545.83	41418.12
546.00	41373.65
546.16	41160.66
546.33	41516.42
546.50	41338.54
546.67	41525.78
546.83	41216.83
547.00	41673.24
547.17	41656.85
547.34	41350.24
547.50	41586.64
547.67	41813.67
547.84	41860.48
548.00	41677.92
548.17	42211.56
548.34	42361.36
548.51	41813.67
548.67	42195.18
548.84	42342.63
549.01	42124.96
549.18	41834.74
549.34	42106.24
549.51	42742.86
549.68	42190.50
549.84	42541.58
550.01	42906.70
550.18	42321.57
550.34	42316.89
550.51	42232.63
550.68	42017.30
550.84	41900.27
551.01	42469.02
551.18	41937.72
551.34	42351.99
551.51	42483.06
551.68	42417.53
551.84	43115.01
552.01	42494.77
552.18	42986.28
552.34	42347.31
552.51	43100.97
552.68	42862.23
552.84	42602.43
553.01	43452.05
553.18	42789.67
553.34	42670.31
553.51	42686.69
553.67	42904.36
553.84	43381.83
554.01	43290.55
554.17	43529.28
554.34	43669.72
554.51	43161.82
554.67	43454.39
554.84	43257.78
555.00	42766.27
555.17	43100.97
555.33	42906.70
555.50	43131.39
555.67	43248.42
555.83	43107.99
556.00	43093.94
556.16	43730.57
556.33	43384.17
556.50	43182.88
556.66	43952.92
556.83	43463.75
556.99	44034.84
557.16	43545.67
557.32	43796.10
557.49	43835.89
557.65	43576.09
557.82	43449.70
557.98	43428.64
558.15	43643.97
558.32	43461.41
558.48	43538.65
558.65	43445.02
558.81	43908.45
558.98	43519.92
559.14	43625.25
559.31	43524.60
559.47	43573.75
559.64	44243.15
559.80	43901.43
559.97	43920.15
560.13	43634.61
560.30	43594.82
560.46	43709.50
560.63	43721.21
560.79	44245.49
560.96	44343.79
561.12	43824.19
561.29	44151.87
561.45	43981.01
561.61	44376.56
561.78	43903.77
561.94	43784.40
562.11	43920.15
562.27	43723.55
562.44	43739.93
562.60	44336.77
562.77	44198.68
562.93	43800.79
563.10	44432.73
563.26	43880.36
563.42	44250.17
563.59	44191.65
563.75	44208.04
563.92	44364.85
564.08	44287.62
564.24	44348.47
564.41	44388.26
564.57	44296.98
564.74	44168.25
564.90	44683.17
565.07	44814.24
565.23	44098.03
565.39	44130.80
565.56	44612.95
565.72	44533.37
565.88	44194.00
566.05	44383.58
566.21	44418.69
566.38	44416.35
566.54	44287.62
566.70	44505.29
566.87	44917.22
567.03	44505.29
567.19	44425.71
567.36	44535.71
567.52	44282.94
567.68	44814.24
567.85	44287.62
568.01	44797.85
568.17	44037.18
568.34	45045.95
568.50	44311.02
568.66	44032.50
568.83	44357.83
568.99	44285.28
569.15	44626.99
569.32	44369.54
569.48	44027.82
569.64	44495.92
569.81	44933.60
569.97	44814.24
570.13	44751.04
570.30	44460.82
570.46	44935.95
570.62	44442.09
570.78	44336.77
570.95	44748.70
571.11	44575.50
571.27	44634.02
571.43	44729.98
571.60	44858.71
571.76	44629.34
571.92	44711.25
572.09	44399.96
572.25	44837.64
572.41	44425.71
572.57	44767.43
572.74	45310.43
572.90	45214.47
573.06	44718.28
573.22	44842.32
573.38	44388.26
573.55	44465.50
573.71	44851.69
573.87	44912.54
574.03	44299.32
574.20	44914.88
574.36	44231.44
574.52	44711.25
574.68	45291.71
574.84	44720.62
575.01	44666.78
575.17	44526.35
575.33	44484.22
575.49	44631.68
575.65	45284.68
575.82	45085.74
575.98	45120.85
576.14	45179.36
576.30	45287.03
576.46	44367.20
576.62	44907.86
576.79	44786.15
576.95	44514.65
577.11	45174.68
577.27	45153.62
577.43	45160.64
577.59	44762.75
577.75	44931.26
577.92	44584.86
578.08	44800.19
578.24	44739.34
578.40	45193.40
578.56	44680.83
578.72	44491.24
578.88	45228.51
579.04	44999.14
579.21	44507.63
579.37	44701.89
579.53	44903.18
579.69	45085.74
579.85	45212.13
580.01	45397.03
580.17	44931.26
580.33	44924.24
580.49	45141.91
580.65	44973.39
580.82	44856.37
580.98	45146.59
581.14	44964.03
581.30	45221.49
581.46	45074.04
581.62	45057.65
581.78	44910.20
581.94	45095.10
582.10	45209.79
582.26	45015.52
582.42	45216.81
582.58	44994.46
582.74	45085.74
582.90	45200.43
583.06	45361.92
583.22	45280.00
583.38	45500.01
583.54	45130.21
583.70	45261.28
583.86	44994.46
584.02	44498.26
584.18	45212.13
584.34	45043.61
584.50	44961.69
584.66	44863.39
584.82	44444.43
584.98	45490.65
585.14	45265.96
585.30	44772.11
585.46	44971.05
585.62	44917.22
585.78	44966.37
585.94	44257.19
586.10	44877.43
586.26	44755.72
586.42	45006.16
586.58	45104.46
586.74	45134.89
586.90	44959.35
587.06	44989.78
587.22	45310.43
587.38	44882.11
587.54	45148.93
587.70	45338.52
587.86	45574.91
588.02	45382.99
588.18	45200.43
588.34	45268.30
588.49	44488.90
588.65	44556.78
588.81	44854.03
588.97	44692.53
589.13	44783.81
589.29	44601.25
589.45	45141.91
589.61	44940.63
589.77	45312.77
589.93	45200.43
590.08	45296.39
590.24	45378.31
590.40	45111.49
590.56	45237.87
590.72	45158.30
590.88	44830.62
591.04	45280.00
591.20	45427.46
591.35	45406.39
591.51	45879.18
591.67	44954.67
591.83	45485.97
591.99	45450.86
592.15	44797.85
592.31	45001.48
592.46	45010.84
592.62	45272.98
592.78	45059.99
592.94	45448.52
593.10	45340.86
593.26	45095.10
593.41	45116.17
593.57	45287.03
593.73	45076.38
593.89	45308.09
594.05	45371.28
594.20	45090.42
594.36	45883.86
594.52	45434.48
594.68	45287.03
594.84	45310.43
594.99	45703.64
595.15	45052.97
595.31	45734.07
595.47	45921.31
595.62	45247.24
595.78	45343.20
595.94	45413.41
596.10	45457.88
596.25	45600.66
596.41	45118.51
596.57	44964.03
596.73	45638.11
596.88	45371.28
597.04	45179.36
597.20	45411.07
597.36	45738.75
597.51	45268.30
597.67	45743.43
597.83	45380.65
597.99	45890.88
598.14	45200.43
598.30	45111.49
598.46	45612.36
598.61	45771.52
598.77	45038.93
598.93	45879.18
599.09	45289.37
599.24	45832.37
599.40	45336.18
599.56	45530.44
599.71	45291.71
599.87	45605.34
600.03	45619.38
600.18	45797.26
600.34	45734.07
600.50	45212.13
600.65	45226.17
600.81	45827.69
600.97	45724.71
601.12	45595.98
601.28	45525.76
601.44	45544.48
601.59	45333.84
601.75	45034.25
601.91	45294.05
602.06	45277.66
602.22	45567.89
602.37	45448.52
602.53	45743.43
602.69	45598.32
602.84	45425.12
603.00	45436.82
603.16	45127.87
603.31	45132.55
603.47	45296.39
603.62	45233.19
603.78	45687.26
603.94	45797.26
604.09	45715.34
604.25	45689.60
604.40	45532.78
604.56	45380.65
604.71	45696.62
604.87	45106.80
605.03	45656.83
605.18	45020.20
605.34	45256.60
605.49	44996.80
605.65	45287.03
605.80	44919.56
605.96	45516.40
606.12	45373.63
606.27	45652.15
606.43	45034.25
606.58	45364.26
606.74	45420.44
606.89	45144.25
607.05	45247.24
607.20	45574.91
607.36	45436.82
607.51	45794.92
607.67	45268.30
607.82	44954.67
607.98	45010.84
608.13	45155.96
608.29	45289.37
608.44	44912.54
608.60	44622.31
608.75	44671.46
608.91	44910.20
609.06	44673.81
609.22	45336.18
609.37	44584.86
609.53	45256.60
609.68	45179.36
609.84	45130.21
609.99	44863.39
610.15	44957.01
610.30	44755.72
610.46	44999.14
610.61	44809.56
610.76	44975.73
610.92	44816.58
611.07	44725.30
611.23	44732.32
611.38	44657.42
611.54	44924.24
611.69	44435.07
611.84	44800.19
612.00	44788.49
612.15	44912.54
612.31	44538.05
612.46	44662.10
612.62	45010.84
612.77	44659.76
612.92	44912.54
613.08	44556.78
613.23	44706.57
613.39	44561.46
613.54	44449.11
613.69	44369.54
613.85	44259.53
614.00	44692.53
614.15	44814.24
614.31	45118.51
614.46	45036.59
614.62	44741.68
614.77	44650.40
614.92	44367.20
615.08	44343.79
615.23	44130.80
615.38	44704.23
615.54	43728.23
615.69	44156.55
615.84	44182.29
616.00	44243.15
616.15	44444.43
616.30	44559.12
616.46	44261.87
616.61	44158.89
616.76	43917.81
616.92	43920.15
617.07	43943.56
617.22	43840.57
617.37	43882.70
617.53	44041.86
617.68	43941.22
617.83	43854.62
617.99	44041.86
618.14	44191.65
618.29	43758.66
618.45	43770.36
618.60	43779.72
618.75	43945.90
618.90	43889.73
619.06	44065.27
619.21	43456.73
619.36	43922.49
619.51	43653.33
619.67	43632.27
619.82	43861.64
619.97	43990.37
620.12	43126.71
620.28	43363.11
620.43	43580.78
620.58	43449.70
620.73	43789.08
620.89	43278.85
621.04	43943.56
621.19	43328.00
621.34	43468.43
621.49	43353.74
621.65	43264.80
621.80	43407.58
621.95	43569.07
622.10	43496.52
622.25	43194.59
622.41	43253.10
622.56	42934.79
622.71	43384.17
622.86	42948.83
623.01	43515.24
623.16	43587.80
623.32	43007.34
623.47	43428.64
623.62	43229.69
623.77	43477.79
623.92	43182.88
624.07	42827.12
624.23	42862.23
624.38	42960.53
624.53	42745.20
624.68	43210.97
624.83	42780.31
624.98	42831.80
625.13	42686.69
625.29	42920.74
625.44	42618.81
625.59	42717.12
625.74	42419.87
625.89	42045.38
626.04	42696.05
626.19	42553.28
626.34	42946.49
626.49	42445.62
626.65	42873.93
626.80	42962.87
626.95	42513.49
627.10	42522.85
627.25	42017.30
627.40	42131.98
627.55	42078.15
627.70	41855.80
627.85	41673.24
628.00	42373.06
628.15	42735.84
628.30	42604.77
628.45	42220.92
628.60	41914.31
628.76	42391.78
628.91	42225.60
629.06	41947.08
629.21	42272.42
629.36	41708.35
629.51	41949.42
629.66	41500.04
629.81	41979.85
629.96	41862.82
630.11	41951.76
630.26	42246.67
630.41	42103.90
630.56	41818.35
630.71	41624.09
630.86	41954.10
631.01	41696.64
631.16	41855.80
631.31	41514.08
631.46	41198.11
631.61	41940.06
631.76	41794.95
631.91	41514.08
632.06	41633.45
632.21	41961.12
632.36	41717.71
632.51	41130.23
632.66	41621.75
632.81	40755.75
632.96	41553.87
633.10	41490.68
633.25	41179.39
633.40	41097.47
633.55	41546.85
633.70	41045.97
633.85	41518.76
634.00	41986.87
634.15	41422.80
634.30	40957.03
634.45	41116.19
634.60	40994.48
634.75	41200.45
634.90	41277.69
635.05	40844.69
635.19	40900.86
635.34	41127.89
635.49	41476.63
635.64	40582.55
635.79	40591.91
635.94	40430.41
636.09	41106.83
636.24	40495.95
636.39	40594.25
636.53	40933.63
636.68	40577.87
636.83	40591.91
636.98	40680.85
637.13	40556.80
637.28	40636.38
637.43	40978.10
637.57	40730.00
637.72	40402.33
637.87	40701.92
638.02	40381.26
638.17	40666.81
638.32	40407.01
638.46	40297.00
638.61	40732.34
638.76	40374.24
638.91	40165.93
639.06	40254.87
639.20	40346.15
639.35	40376.58
639.50	40133.17
639.65	40793.20
639.80	40320.41
639.94	40233.81
640.09	40531.06
640.24	40161.25
640.39	39880.39
640.54	39817.19
640.68	40236.15
640.83	40306.37
640.98	40058.27
641.13	39758.68
641.27	40502.97
641.42	39908.47
641.57	40526.38
641.72	40156.57
641.86	40086.36
642.01	39983.37
642.16	39498.88
642.31	39613.57
642.45	39620.59
642.60	39199.29
642.75	39763.36
642.90	39871.03
643.04	39585.48
643.19	39779.74
643.34	39709.53
643.48	39590.16
643.63	39271.85
643.78	39643.99
643.93	39295.25
644.07	39374.83
644.22	39749.32
644.37	38920.77
644.51	39229.72
644.66	39023.75
644.81	39089.29
644.95	39257.81
645.10	39583.14
645.25	39651.02
645.39	39536.33
645.54	39746.98
645.69	39175.89
645.83	38902.04
645.98	39412.28
646.13	39447.39
646.27	39742.30
646.42	39068.22
646.57	38937.15
646.71	39550.37
646.86	39313.98
647.00	39100.99
647.15	39463.77
647.30	39173.55
647.44	38691.40
647.59	39445.05
647.74	38677.35
647.88	38880.98
648.03	38892.68
648.17	38995.67
648.32	38455.00
648.47	38501.81
648.61	38609.48
648.76	39138.44
648.90	38497.13
649.05	38583.73
649.20	38824.81
649.34	39082.27
649.49	38532.24
649.63	38785.02
649.78	38998.01
649.92	38387.13
650.07	38747.57
650.21	38546.28
650.36	38469.04
650.51	38274.78
650.65	38660.97
650.80	38656.29
650.94	38679.69
651.09	38230.31
651.23	38499.47
651.38	38485.43
651.52	37851.14
651.67	38167.12
651.81	38267.76
651.96	38094.56
652.10	38206.90
652.25	37940.08
652.39	38143.71
652.54	38443.30
652.68	38136.69
652.83	38192.86
652.97	37926.04
653.12	38249.03
653.26	37493.04
653.41	38550.96
653.55	37801.99
653.70	38164.78
653.84	37982.21
653.99	38291.16
654.13	38024.34
654.27	37881.57
654.42	37738.80
654.56	37523.47
654.71	37914.34
654.85	37443.89
655.00	37160.69
655.14	37572.62
655.29	37460.27
655.43	37560.92
655.57	37228.56
655.72	37415.80
655.86	37170.05
656.01	37275.37
656.15	37263.67
656.30	37113.87
656.44	37034.30
656.58	37516.45
656.73	37146.64
656.87	36987.49
657.01	36924.29
657.16	37359.63
657.30	36547.47
657.45	37235.58
657.59	36849.39
657.73	36954.72
657.88	37151.32
658.02	36886.84
658.16	37060.04
658.31	37130.26
658.45	37130.26
658.60	36964.08
658.74	36877.48
658.88	36835.35
659.03	36753.43
659.17	36495.97
659.31	36547.47
659.46	36680.88
659.60	36549.81
659.74	36657.47
659.89	36051.27
660.03	36486.61
660.17	36343.84
660.32	36334.48
660.46	36556.83
660.60	36643.43
660.74	36753.43
660.89	36142.55
661.03	35662.74
661.17	35590.19
661.32	35941.27
661.46	35866.37
661.60	35831.26
661.74	35995.10
661.89	36091.06
662.03	35817.22
662.17	35716.58
662.31	35629.98
662.46	35934.24
662.60	35817.22
662.74	35653.38
662.88	35803.17
663.03	35468.48
663.17	35424.01
663.31	35388.90
663.45	35299.96
663.60	34925.47
663.74	35030.80
663.88	35416.99
664.02	34946.54
664.17	35323.36
664.31	34735.89
664.45	34944.20
664.59	35152.51
664.73	35381.88
664.88	35393.58
665.02	34789.72
665.16	34511.20
665.30	34534.60
665.44	35009.73
665.59	34309.91
665.73	34389.49
665.87	34553.33
666.01	34469.07
666.15	34408.22
666.29	34312.25
666.44	34382.47
666.58	34443.32
666.72	34073.52
666.86	34408.22
667.00	34450.35
667.14	34188.21
667.28	33500.09
667.43	33848.83
667.57	33989.26
667.71	33741.16
667.85	33942.45
667.99	33701.37
668.13	33876.91
668.27	33757.55
668.41	33635.84
668.56	33663.93
668.70	33663.93
668.84	33432.21
668.98	33687.33
669.12	33610.09
669.26	33617.11
669.40	33261.35
669.54	32996.87
669.68	33137.30
669.82	32889.21
669.96	33289.44
670.10	32662.18
670.25	33212.20
670.39	33296.46
670.53	32933.68
670.67	32898.57
670.81	32701.96
670.95	32821.33
671.09	32755.80
671.23	33013.26
671.37	32884.53
671.51	32481.95
671.65	32091.09
671.79	31873.42
671.93	32044.27
672.07	32589.62
672.21	32470.25
672.35	32114.49
672.49	32194.07
672.63	32273.65
672.77	31957.67
672.91	31859.37
673.05	31620.64
673.19	31508.29
673.33	31449.78
673.47	31393.61
673.61	31468.50
673.75	31433.39
673.89	31363.18
674.03	31147.85
674.17	31421.69
674.31	31304.67
674.45	31299.98
674.59	30991.03
674.73	31316.37
674.87	30885.71
675.01	31037.84
675.15	30639.95
675.29	31009.76
675.43	30710.17
675.56	31201.68
675.70	30864.64
675.84	30436.33
675.98	29476.71
676.12	30249.08
676.26	30148.44
676.40	29930.77
676.54	29968.22
676.68	29830.13
676.82	29514.16
676.96	29823.11
677.10	29628.84
677.23	29216.91
677.37	29390.11
677.51	29532.88
677.65	29280.10
677.79	28758.16
677.93	29039.03
678.07	28790.93
678.21	29034.35
678.34	28914.98
678.48	28966.47
678.62	28624.75
678.76	28837.74
678.90	28636.45
679.04	28446.87
679.18	28350.91
679.31	28226.86
679.45	28212.82
679.59	27861.74
679.73	27709.60
679.87	27866.42
680.00	27840.67
680.14	27857.06
680.28	27784.50
680.42	27316.39
680.56	27641.73
680.70	27594.92
680.83	27047.23
680.97	27239.15
681.11	27101.06
681.25	26827.22
681.39	26918.50
681.52	27056.59
681.66	27047.23
681.80	27002.76
681.94	26773.39
682.07	26576.78
682.21	27028.51
682.35	26850.63
682.49	26754.66
682.62	26417.63
682.76	26148.46
682.90	25977.61
683.04	25778.66
683.17	25883.98
683.31	25776.32
683.45	25783.34
683.59	25975.27
683.72	25546.95
683.86	25123.31
684.00	25277.79
684.13	25521.20
684.27	25233.32
684.41	25207.57
684.55	25001.60
684.68	25390.13
684.82	25008.62
684.96	25179.48
685.09	24730.10
685.23	24702.01
685.37	24430.51
685.50	24833.08
685.64	24554.56
685.78	24800.32
685.91	24512.43
686.05	24276.04
686.19	23962.40
686.32	24250.29
686.46	23810.27
686.60	23653.45
686.73	23606.64
686.87	23782.18
687.01	23548.13
687.14	23454.51
687.28	23110.45
687.42	23005.13
687.55	23302.37
687.69	22916.19
687.82	22588.51
687.96	22923.21
688.10	22876.40
688.23	22955.97
688.37	22532.34
688.50	22277.22
688.64	22527.66
688.78	22382.54
688.91	22127.42
689.05	22682.13
689.18	22113.38
689.32	21994.01
689.46	21846.56
689.59	22459.78
689.73	22616.60
689.86	21832.52
690.00	21455.69
690.13	21956.57
690.27	21809.11
690.41	21448.67
690.54	21120.99
690.68	21537.61
690.81	21488.46
690.95	20758.21
691.08	21090.57
691.22	20837.79
691.35	21008.65
691.49	20952.48
691.62	20915.03
691.76	21167.80
691.89	21109.29
692.03	20643.52
692.16	20381.38
692.30	20390.75
692.43	20018.60
692.57	20262.02
692.70	20051.37
692.84	20329.89
692.97	19833.70
693.11	19634.75
693.24	19536.45
693.38	19730.72
693.51	19831.36
693.65	19594.96
693.78	19271.97
693.92	19662.84
694.05	19609.01
694.19	19473.26
694.32	19412.40
694.45	19339.85
694.59	19136.22
694.72	19136.22
694.86	18923.23
694.99	18883.44
695.13	19066.00
695.26	18625.98
695.39	18530.02
695.53	18483.21
695.66	18684.50
695.80	18347.46
695.93	18204.69
696.07	18136.81
696.20	18216.39
696.33	18043.19
696.47	17769.35
696.60	18122.77
696.73	18033.83
696.87	17554.02
697.00	17642.96
697.14	17830.20
697.27	17563.38
697.40	17767.01
697.54	17834.88
697.67	17380.82
697.80	17502.53
697.94	17198.26
698.07	17184.21
698.21	17090.59
698.34	17097.61
698.47	17092.93
698.61	16627.17
698.74	16489.07
698.87	16671.64
699.01	16477.37
699.14	16439.92
699.27	16332.26
699.40	16400.13
699.54	16343.96
699.67	16077.14
699.80	16184.80
699.94	16198.85
700.07	15990.54
700.20	16201.19
700.34	16074.80
700.47	16018.63
700.60	16013.95
700.73	15826.70
700.87	15866.49
701.00	15721.38
701.13	15389.02
701.26	15477.96
701.40	15295.40
701.53	15206.46
701.66	15534.14
701.79	15192.42
701.93	15096.46
702.06	14888.15
702.19	14853.04
702.32	15066.03
702.46	15028.58
702.59	14909.21
702.72	14736.01
702.85	14595.58
702.99	14611.96
703.12	14654.09
703.25	14607.28
703.38	14766.44
703.51	14621.33
703.65	14565.15
703.78	14195.35
703.91	14162.58
704.04	14033.85
704.17	14038.53
704.31	14019.81
704.44	13982.36
704.57	13776.39
704.70	13820.86
704.83	13645.32
704.96	13472.12
705.10	13858.31
705.23	13799.80
>>>>>End Processed Spectral Data<<<<<
