SpectraSuite Data File
++++++++++++++++++++++++++++++++++++
Date: Fri Oct 25 11:34:17 EDT 2013
User: price-jones
Dark Spectrum Present: No
Reference Spectrum Present: No
Number of Sampled Component Spectra: 1
Spectrometers: USB2+H05261
Integration Time (usec): 100000 (USB2+H05261)
Spectra Averaged: 1 (USB2+H05261)
Boxcar Smoothing: 0 (USB2+H05261)
Correct for Electrical Dark: No (USB2+H05261)
Strobe/Lamp Enabled: No (USB2+H05261)
Correct for Detector Non-linearity: No (USB2+H05261)
Correct for Stray Light: No (USB2+H05261)
Number of Pixels in Processed Spectrum: 2048
>>>>>Begin Processed Spectral Data<<<<<
365.73	367.46
365.92	367.46
366.12	367.46
366.32	184.90
366.52	196.60
366.72	128.73
366.91	189.58
367.11	182.56
367.31	173.20
367.51	161.50
367.70	215.33
367.90	189.58
368.10	152.13
368.30	147.45
368.49	131.07
368.69	166.18
368.89	210.65
369.09	201.29
369.28	224.69
369.48	177.88
369.68	248.10
369.87	278.52
370.07	231.71
370.27	287.89
370.47	271.50
370.66	505.56
370.86	440.02
371.06	535.98
371.25	608.54
371.45	557.05
371.65	573.43
371.84	512.58
372.04	594.50
372.24	571.09
372.44	620.24
372.63	601.52
372.83	592.16
373.03	620.24
373.22	561.73
373.42	587.47
373.62	568.75
373.81	601.52
374.01	667.05
374.21	676.41
374.40	627.26
374.60	669.39
374.79	624.92
374.99	681.10
375.19	606.20
375.38	711.52
375.58	603.86
375.78	681.10
375.97	655.35
376.17	650.67
376.37	683.44
376.56	809.83
376.76	599.18
376.95	634.29
377.15	718.54
377.35	758.33
377.54	648.33
377.74	676.41
377.93	737.27
378.13	683.44
378.33	709.18
378.52	711.52
378.72	718.54
378.91	657.69
379.11	660.03
379.31	758.33
379.50	667.05
379.70	741.95
379.89	727.91
380.09	763.01
380.28	711.52
380.48	753.65
380.68	660.03
380.87	713.86
381.07	662.37
381.26	802.80
381.46	767.70
381.65	734.93
381.85	692.80
382.04	746.63
382.24	823.87
382.43	755.99
382.63	737.27
382.83	772.38
383.02	842.59
383.22	786.42
383.41	812.17
383.61	861.32
383.80	842.59
384.00	744.29
384.19	779.40
384.39	873.02
384.58	770.04
384.78	821.53
384.97	856.64
385.17	842.59
385.36	866.00
385.56	833.23
385.75	849.61
385.95	833.23
386.14	866.00
386.34	844.93
386.53	830.89
386.72	861.32
386.92	870.68
387.11	908.13
387.31	922.17
387.50	889.40
387.70	875.36
387.89	840.25
388.09	863.66
388.28	922.17
388.48	992.39
388.67	983.02
388.86	936.21
389.06	926.85
389.25	1025.15
389.45	947.92
389.64	964.30
389.84	980.68
390.03	903.45
390.22	1008.77
390.42	990.05
390.61	943.24
390.81	898.77
391.00	901.11
391.19	1006.43
391.39	994.73
391.58	968.98
391.78	983.02
391.97	1018.13
392.16	950.26
392.36	1018.13
392.55	968.98
392.75	1064.94
392.94	990.05
393.13	1071.97
393.33	1067.28
393.52	1151.54
393.71	1102.39
393.91	1067.28
394.10	1041.54
394.29	1027.50
394.49	1074.31
394.68	1043.88
394.88	1100.05
395.07	1188.99
395.26	1102.39
395.46	1086.01
395.65	1123.46
395.84	1076.65
396.04	1095.37
396.23	1214.74
396.42	1158.57
396.62	1128.14
396.81	1177.29
397.00	1188.99
397.19	1179.63
397.39	1158.57
397.58	1242.82
397.77	1224.10
397.97	1163.25
398.16	1217.08
398.35	1186.65
398.55	1287.29
398.74	1245.16
398.93	1291.98
399.12	1310.70
399.32	1252.19
399.51	1345.81
399.70	1254.53
399.90	1364.53
400.09	1324.74
400.28	1345.81
400.47	1352.83
400.67	1268.57
400.86	1352.83
401.05	1341.13
401.24	1336.45
401.44	1434.75
401.63	1465.18
401.82	1453.47
402.01	1430.07
402.21	1458.15
402.40	1409.00
402.59	1488.58
402.78	1519.01
402.97	1462.83
403.17	1425.39
403.36	1451.13
403.55	1521.35
403.74	1568.16
403.93	1591.56
404.13	1509.65
404.32	1610.29
404.51	1600.93
404.70	1675.82
404.89	1645.40
405.09	1654.76
405.28	1596.25
405.47	1675.82
405.66	1668.80
405.85	1703.91
406.05	1624.33
406.24	1706.25
406.43	1722.63
406.62	1823.28
406.81	1750.72
407.00	1851.36
407.20	1727.32
407.39	1675.82
407.58	1895.83
407.77	1795.19
407.96	1858.39
408.15	1856.04
408.34	1923.92
408.54	1860.73
408.73	1825.62
408.92	1842.00
409.11	1797.53
409.30	1956.69
409.49	1919.24
409.68	1949.67
409.87	2031.58
410.07	2026.90
410.26	2012.86
410.45	2026.90
410.64	2015.20
410.83	2003.50
411.02	2038.61
411.21	1956.69
411.40	2076.06
411.59	2183.72
411.78	2085.42
411.98	2200.10
412.17	2282.02
412.36	2197.76
412.55	2256.28
412.74	2279.68
412.93	2188.40
413.12	2232.87
413.31	2366.28
413.50	2399.05
413.69	2387.35
413.88	2443.52
414.07	2495.01
414.26	2443.52
414.45	2473.95
414.64	2408.41
414.83	2459.90
415.02	2499.69
415.22	2581.61
415.41	2597.99
415.60	2700.98
415.79	2504.37
415.98	2689.28
416.17	2722.04
416.36	2597.99
416.55	2771.19
416.74	2686.94
416.93	2670.55
417.12	2773.53
417.31	2848.43
417.50	2808.64
417.69	2883.54
417.88	2946.73
418.07	2834.39
418.26	3042.70
418.45	3038.02
418.64	3045.04
418.83	2967.80
419.02	3075.46
419.21	3059.08
419.39	3038.02
419.58	3054.40
419.77	3040.36
419.96	2953.76
420.15	3176.11
420.34	3225.26
420.53	3066.10
420.72	3222.92
420.91	3080.14
421.10	3070.78
421.29	3129.30
421.48	3141.00
421.67	3307.18
421.86	3239.30
422.05	3267.39
422.24	3255.69
422.43	3295.47
422.61	3232.28
422.80	3358.67
422.99	3251.00
423.18	3386.76
423.37	3316.54
423.56	3323.56
423.75	3272.07
423.94	3302.50
424.13	3122.27
424.32	3201.85
424.50	3400.80
424.69	3417.18
424.88	3365.69
425.07	3337.60
425.26	3279.09
425.45	3222.92
425.64	3274.41
425.83	3239.30
426.01	3433.57
426.20	3201.85
426.39	3440.59
426.58	3410.16
426.77	3267.39
426.96	3522.51
427.15	3478.04
427.33	3707.41
427.52	3344.63
427.71	3356.33
427.90	3407.82
428.09	3620.81
428.28	3454.63
428.46	3534.21
428.65	3578.68
428.84	3599.74
429.03	3676.98
429.22	3634.85
429.40	3721.45
429.59	3693.37
429.78	3679.32
429.97	3548.25
430.16	3641.87
430.34	3730.81
430.53	3899.33
430.72	3861.88
430.91	3730.81
431.10	3969.55
431.28	3840.82
431.47	3882.95
431.66	3913.38
431.85	3908.69
432.03	3845.50
432.22	3983.59
432.41	4044.45
432.60	4014.02
432.79	3995.29
432.97	3971.89
433.16	4086.58
433.35	4051.47
433.54	3995.29
433.72	4072.53
433.91	4070.19
434.10	4049.13
434.28	4025.72
434.47	4224.67
434.66	4098.28
434.85	4191.90
435.03	4196.58
435.22	4351.06
435.41	4285.52
435.59	4278.50
435.78	4276.16
435.97	4376.80
436.16	4337.01
436.34	4362.76
436.53	4315.95
436.72	4477.44
436.90	4271.48
437.09	4461.06
437.28	4308.93
437.46	4444.68
437.65	4299.56
437.84	4367.44
438.02	4411.91
438.21	4482.13
438.40	4477.44
438.58	4601.49
438.77	4580.43
438.96	4634.26
439.14	4683.41
439.33	4678.73
439.52	4713.84
439.70	4805.12
439.89	4887.04
440.08	4929.17
440.26	4891.72
440.45	4781.71
440.63	5006.41
440.82	5027.47
441.01	4945.55
441.19	5008.75
441.38	5006.41
441.57	5107.05
441.75	5224.08
441.94	5322.38
442.12	5195.99
442.31	5329.40
442.50	5294.29
442.68	5444.09
442.87	5284.93
443.05	5413.66
443.24	5476.85
443.43	5275.57
443.61	5352.81
443.80	5509.62
443.98	5373.87
444.17	5158.54
444.35	5320.04
444.54	5434.72
444.73	5357.49
444.91	5509.62
445.10	5399.62
445.28	5607.92
445.47	5394.93
445.65	5488.56
445.84	5640.69
446.02	5612.60
446.21	5591.54
446.39	5530.69
446.58	5605.58
446.77	5652.39
446.95	5479.19
447.14	5638.35
447.32	5678.14
447.51	5731.97
447.69	5516.64
447.88	5577.50
448.06	5685.16
448.25	5563.45
448.43	5640.69
448.62	5771.76
448.80	5650.05
448.99	5678.14
449.17	5696.86
449.36	5708.57
449.54	5954.32
449.73	5872.40
449.91	5973.05
450.10	5928.58
450.28	5980.07
450.46	5942.62
450.65	5893.47
450.83	5991.77
451.02	6003.47
451.20	5870.06
451.39	6050.28
451.57	6017.52
451.76	6071.35
451.94	6033.90
452.13	6097.10
452.31	6099.44
452.49	5959.00
452.68	6085.39
452.86	6083.05
453.05	6026.88
453.23	6296.04
453.42	6207.10
453.60	6108.80
453.78	6387.32
453.97	6031.56
454.15	6324.13
454.34	6216.46
454.52	6464.56
454.70	6403.71
454.89	6368.60
455.07	6403.71
455.26	6436.47
455.44	6586.27
455.62	6370.94
455.81	6590.95
455.99	6497.33
456.17	6513.71
456.36	6541.80
456.54	6637.76
456.73	6822.66
456.91	6825.00
457.09	6825.00
457.28	6848.41
457.46	6876.49
457.64	6869.47
457.83	7033.31
458.01	6890.54
458.19	6839.05
458.38	6909.26
458.56	6949.05
458.74	6876.49
458.93	7014.59
459.11	7042.67
459.29	7066.08
459.48	6998.20
459.66	7288.43
459.84	7035.65
460.03	7304.81
460.21	7080.12
460.39	7201.83
460.57	7169.06
460.76	7173.74
460.94	7531.84
461.12	7255.66
461.31	7260.34
461.49	7218.21
461.67	7262.68
461.85	7489.71
462.04	7377.37
462.22	7850.16
462.40	7569.29
462.59	7258.00
462.77	7431.20
462.95	7674.62
463.13	7599.72
463.32	7665.25
463.50	7707.38
463.68	7578.65
463.86	7840.79
464.05	7581.00
464.23	7571.63
464.41	7822.07
464.59	7698.02
464.78	7873.56
464.96	7812.71
465.14	7625.47
465.32	7887.61
465.50	7918.03
465.69	7845.48
465.87	7981.23
466.05	7918.03
466.23	7833.77
466.41	7983.57
466.60	7908.67
466.78	8004.63
466.96	7920.37
467.14	8028.04
467.32	8051.44
467.51	8135.70
467.69	7866.54
467.87	8018.68
468.05	8105.28
468.23	7763.56
468.41	8081.87
468.60	8114.64
468.78	8208.26
468.96	8208.26
469.14	8311.24
469.32	8449.33
469.50	8318.26
469.69	8491.46
469.87	8430.61
470.05	8521.89
470.23	8592.11
470.41	8416.57
470.59	8645.94
470.77	8589.77
470.95	8465.72
471.14	8603.81
471.32	8699.77
471.50	8795.73
471.68	8748.92
471.86	8542.96
472.04	8709.13
472.22	9062.55
472.40	8793.39
472.58	8982.98
472.77	9081.28
472.95	9135.11
473.13	9467.47
473.31	9020.42
473.49	9179.58
473.67	9228.73
473.85	9378.53
474.03	9324.69
474.21	9547.05
474.39	9741.31
474.57	9394.91
474.75	9607.90
474.93	9659.39
475.12	9741.31
475.30	9870.04
475.48	9617.26
475.66	9872.38
475.84	9806.84
476.02	9891.10
476.20	9863.02
476.38	10061.96
476.56	10305.38
476.74	10090.05
476.92	10560.50
477.10	10281.97
477.28	10366.23
477.46	10480.92
477.64	10532.41
477.82	10775.83
478.00	10918.60
478.18	10899.87
478.36	10932.64
478.54	10876.47
478.72	11105.84
478.90	11021.58
479.08	11222.87
479.26	11061.37
479.44	11400.75
479.62	11503.73
479.80	11419.47
479.98	11754.17
480.16	11782.26
480.34	11824.39
480.52	11999.93
480.70	11985.88
480.88	11779.92
481.06	11669.91
481.24	12100.57
481.41	12264.41
481.59	12325.26
481.77	12329.94
481.95	12400.16
482.13	12442.29
482.31	12479.74
482.49	12774.64
482.67	13048.49
482.85	13013.38
483.03	13146.79
483.21	13233.39
483.39	13472.12
483.57	13088.28
483.74	13589.15
483.92	13598.51
484.10	13458.08
484.28	13825.54
484.46	14113.43
484.64	14291.31
484.82	13951.93
485.00	14108.75
485.18	14417.70
485.35	14609.62
485.53	14579.20
485.71	14707.93
485.89	15094.11
486.07	14918.57
486.25	14817.93
486.43	15227.53
486.61	15339.87
486.78	15412.43
486.96	15279.02
487.14	15782.23
487.32	15562.22
487.50	15948.41
487.68	15885.22
487.85	15925.00
488.03	16596.74
488.21	16587.38
488.39	16180.12
488.57	16496.10
488.75	16409.50
488.92	16734.83
489.10	16828.45
489.28	16908.03
489.46	17465.08
489.64	17179.53
489.81	17502.53
489.99	17748.28
490.17	17820.84
490.35	18031.49
490.53	17989.36
490.70	18022.12
490.88	17888.71
491.06	18265.54
491.24	18366.18
491.41	18164.90
491.59	18607.26
491.77	18487.89
491.95	18874.08
492.13	18831.95
492.30	18970.04
492.48	19152.60
492.66	19138.56
492.84	19061.32
493.01	19524.75
493.19	19527.09
493.37	19660.50
493.54	19934.34
493.72	20032.65
493.90	19686.25
494.08	20372.02
494.25	20203.50
494.43	20407.13
494.61	20645.87
494.79	20739.49
494.96	20521.82
495.14	20865.88
495.32	20704.38
495.49	21202.91
495.67	20844.81
495.85	21216.96
496.02	21553.99
496.20	21881.67
496.38	21518.89
496.55	21649.96
496.73	22396.59
496.91	22043.17
497.09	22057.21
497.26	22368.50
497.44	22462.12
497.62	22286.58
497.79	22913.84
497.97	22609.58
498.14	22656.39
498.32	22658.73
498.50	23089.38
498.67	23005.13
498.85	23117.47
499.03	23304.71
499.20	23302.37
499.38	23307.05
499.56	23386.63
499.73	23658.14
499.91	23608.98
500.08	23721.33
500.26	23758.78
500.44	24154.33
500.61	23957.72
500.79	23974.11
500.97	24393.06
501.14	24510.09
501.32	24470.30
501.49	24748.82
501.67	24575.62
501.84	24671.59
502.02	24805.00
502.20	24615.41
502.37	25032.03
502.55	24641.16
502.72	24711.38
502.90	25165.44
503.07	24957.13
503.25	25109.27
503.43	25268.42
503.60	25556.31
503.78	25720.15
503.95	25633.55
504.13	25678.02
504.30	26291.24
504.48	25680.36
504.65	26279.54
504.83	26288.90
505.01	26265.49
505.18	26429.33
505.36	26827.22
505.53	26511.25
505.71	26726.58
505.88	26532.31
506.06	26436.35
506.23	26560.40
506.41	27002.76
506.58	26918.50
506.76	27098.72
506.93	27218.09
507.11	27117.45
507.28	27604.28
507.46	27302.35
507.63	27522.36
507.81	27424.06
507.98	27349.16
508.16	27562.15
508.33	27882.80
508.50	27922.59
508.68	27754.07
508.85	28271.33
509.03	27946.00
509.20	28278.35
509.38	28346.23
509.55	28690.29
509.73	28559.22
509.90	28414.10
510.08	28545.17
510.25	28189.41
510.42	28924.34
510.60	28814.34
510.77	29275.42
510.95	28917.32
511.12	28678.58
511.30	28973.49
511.47	29254.36
511.64	29071.79
511.82	29544.58
511.99	29268.40
512.17	29530.54
512.34	29783.32
512.51	30010.35
512.69	29991.62
512.86	30050.14
513.04	30134.40
513.21	30157.80
513.38	30466.75
513.56	30272.49
513.73	29919.07
513.90	30534.63
514.08	30328.66
514.25	30541.65
514.43	30501.86
514.60	30778.04
514.77	30546.33
514.95	30803.79
515.12	30658.68
515.29	31009.76
515.47	30909.11
515.64	31211.04
515.81	30609.53
515.99	31374.88
516.16	31587.87
516.33	31328.07
516.51	30972.31
516.68	31386.58
516.85	31709.58
517.03	31365.52
517.20	31662.77
517.37	31927.25
517.54	32121.51
517.72	31796.18
517.89	31915.54
518.06	32018.53
518.24	32299.39
518.41	31995.12
518.58	31798.52
518.75	31981.08
518.93	32048.96
519.10	32105.13
519.27	32493.66
519.45	32299.39
519.62	32533.45
519.79	32411.74
519.96	32484.30
520.14	32814.31
520.31	32811.97
520.48	33031.98
520.65	33106.88
520.83	33439.23
521.00	33488.38
521.17	33273.06
521.34	33099.86
521.52	33301.14
521.69	33408.81
521.86	33174.75
522.03	33806.70
522.20	34129.69
522.38	33907.34
522.55	33778.61
522.72	33682.65
522.89	33886.28
523.07	34487.79
523.24	34087.56
523.41	33949.47
523.58	33991.60
523.75	34532.26
523.92	34431.62
524.10	34206.93
524.27	34380.13
524.44	34815.47
524.61	34932.50
524.78	34459.71
524.96	35000.37
525.13	34707.80
525.30	34871.64
525.47	34969.94
525.64	34653.97
525.81	34864.62
525.98	35145.48
526.16	35192.30
526.33	34878.66
526.50	35344.43
526.67	34824.83
526.84	35140.80
527.01	35620.61
527.18	35358.47
527.36	35468.48
527.53	35842.96
527.70	35470.82
527.87	36318.09
528.04	35967.01
528.21	35779.77
528.38	36212.77
528.55	36013.82
528.72	36198.73
528.89	35992.76
529.07	36184.68
529.24	36165.96
529.41	36353.20
529.58	36467.89
529.75	36306.39
529.92	36671.51
530.09	36566.19
530.26	36591.94
530.43	36690.24
530.60	36493.63
530.77	36650.45
530.94	36636.41
531.11	36739.39
531.28	36708.96
531.46	36755.77
531.63	36760.45
531.80	37102.17
531.97	37258.99
532.14	37109.19
532.31	37067.06
532.48	37289.42
532.65	37385.38
532.82	37453.25
532.99	37436.87
533.16	37230.90
533.33	37570.28
533.50	37748.16
533.67	37701.35
533.84	37277.71
534.01	37476.66
534.18	37893.27
534.35	38141.37
534.52	37682.62
534.69	38148.39
534.86	38213.93
535.03	37956.47
535.20	38225.63
535.37	38352.02
535.54	38239.67
535.71	38134.35
535.88	38328.61
536.05	38136.69
536.22	38789.70
536.38	38120.31
536.55	38323.93
536.72	38419.89
536.89	38693.74
537.06	38733.53
537.23	38850.55
537.40	38665.65
537.57	38824.81
537.74	38841.19
537.91	39012.05
538.08	38827.15
538.25	38700.76
538.42	38792.04
538.59	39391.22
538.75	39084.61
538.92	39264.83
539.09	39592.50
539.26	39236.74
539.43	39105.67
539.60	39049.50
539.77	38897.36
539.94	39868.69
540.11	39070.56
540.28	39592.50
540.44	39419.30
540.61	39264.83
540.78	39330.36
540.95	39674.42
541.12	39239.08
541.29	39536.33
541.46	39988.05
541.62	39686.12
541.79	40168.27
541.96	39578.46
542.13	39573.78
542.30	39927.20
542.47	39924.86
542.63	40076.99
542.80	40498.29
542.97	40722.98
543.14	40156.57
543.31	40491.27
543.48	40430.41
543.64	40629.36
543.81	40673.83
543.98	40926.61
544.15	40851.71
544.32	40996.82
544.48	41109.17
544.65	40821.28
544.82	41209.81
544.99	40676.17
545.16	41055.34
545.32	40891.50
545.49	41404.08
545.66	41457.91
545.83	41228.54
546.00	41003.85
546.16	41280.03
546.33	40748.73
546.50	40844.69
546.67	41289.39
546.83	40507.65
547.00	41385.35
547.17	41223.86
547.34	41413.44
547.50	41956.44
547.67	41764.52
547.84	41673.24
548.00	41834.74
548.17	42075.81
548.34	41727.07
548.51	42101.56
548.67	41684.94
548.84	41797.29
549.01	41598.34
549.18	42033.68
549.34	42054.75
549.51	42218.58
549.68	41846.44
549.84	42019.64
550.01	42162.41
550.18	41851.12
550.34	42005.59
550.51	42686.69
550.68	42841.17
550.84	42302.84
551.01	42630.52
551.18	41996.23
551.34	42504.13
551.51	42471.36
551.68	42384.76
551.84	42504.13
552.01	42033.68
552.18	42464.34
552.34	42590.73
552.51	42745.20
552.68	42618.81
552.84	42593.07
553.01	43002.66
553.18	42848.19
553.34	43047.13
553.51	42649.24
553.67	43430.98
553.84	43438.00
554.01	43143.09
554.17	43023.73
554.34	43241.40
554.51	43475.45
554.67	43660.35
554.84	43299.91
555.00	43419.28
555.17	42883.30
555.33	43306.93
555.50	43426.30
555.67	43328.00
555.83	43356.08
556.00	43536.30
556.16	44004.41
556.33	43746.95
556.50	43714.19
556.66	43426.30
556.83	43454.39
556.99	43639.29
557.16	43840.57
557.32	43709.50
557.49	43871.00
557.65	43515.24
557.82	44065.27
557.98	43849.94
558.15	43250.76
558.32	43821.85
558.48	43962.28
558.65	43704.82
558.81	43517.58
558.98	43758.66
559.14	43564.39
559.31	43753.97
559.47	44149.53
559.64	43988.03
559.80	43938.88
559.97	44402.30
560.13	43906.11
560.30	44299.32
560.46	44470.18
560.63	44273.57
560.79	44292.30
560.96	44395.28
561.12	44399.96
561.29	44533.37
561.45	44416.35
561.61	43962.28
561.78	44048.88
561.94	44406.98
562.11	44346.13
562.27	44329.75
562.44	44414.01
562.60	44428.05
562.77	44472.52
562.93	44484.22
563.10	44715.93
563.26	44341.45
563.42	44584.86
563.59	44329.75
563.75	44449.11
563.92	44498.26
564.08	44671.46
564.24	44486.56
564.41	44554.44
564.57	44575.50
564.74	45001.48
564.90	44669.12
565.07	44669.12
565.23	44568.48
565.39	44645.72
565.56	45228.51
565.72	44507.63
565.88	44697.21
566.05	44638.70
566.21	44734.66
566.38	44690.19
566.54	45361.92
566.70	45212.13
566.87	45059.99
567.03	44734.66
567.19	44989.78
567.36	45052.97
567.52	44957.01
567.68	44732.32
567.85	45406.39
568.01	45237.87
568.17	45518.74
568.34	45244.90
568.50	44961.69
568.66	44825.94
568.83	44891.48
568.99	45097.44
569.15	45010.84
569.32	44774.45
569.48	44594.23
569.64	45146.59
569.81	45235.53
569.97	45471.93
570.13	45727.05
570.30	45106.80
570.46	45371.28
570.62	45319.79
570.78	45397.03
570.95	45338.52
571.11	45415.76
571.27	45240.21
571.43	45308.09
571.60	45340.86
571.76	45188.72
571.92	45214.47
572.09	45343.20
572.25	45460.23
572.41	45319.79
572.57	45436.82
572.74	45963.44
572.90	45350.22
573.06	45483.63
573.22	45436.82
573.38	45738.75
573.55	45240.21
573.71	45837.05
573.87	45998.55
574.03	45827.69
574.20	45427.46
574.36	45713.00
574.52	45776.20
574.68	45577.25
574.84	45605.34
575.01	45757.47
575.17	45916.63
575.33	45521.08
575.49	45485.97
575.65	45830.03
575.82	45687.26
575.98	45415.76
576.14	45546.82
576.30	45893.22
576.46	45502.35
576.62	45357.24
576.79	45848.75
576.95	45352.56
577.11	45422.78
577.27	45619.38
577.43	45743.43
577.59	45972.80
577.75	45806.62
577.92	45546.82
578.08	45600.66
578.24	45542.14
578.40	46260.69
578.56	45925.99
578.72	45612.36
578.88	45872.16
579.04	45691.94
579.21	45715.34
579.37	45659.17
579.53	46134.30
579.69	45963.44
579.85	45705.98
580.01	45780.88
580.17	45338.52
580.33	46263.03
580.49	46129.62
580.65	45841.73
580.82	45364.26
580.98	45713.00
581.14	45312.77
581.30	46094.51
581.46	45677.90
581.62	45638.11
581.78	45558.53
581.94	46232.60
582.10	45797.26
582.26	46003.23
582.42	45284.68
582.58	45579.59
582.74	46061.74
582.90	45930.67
583.06	46387.08
583.22	45710.66
583.38	45935.35
583.54	45977.48
583.70	45694.28
583.86	46075.79
584.02	45806.62
584.18	46195.15
584.34	46103.87
584.50	46024.29
584.66	45968.12
584.82	46068.76
584.98	46703.05
585.14	45918.97
585.30	45720.02
585.46	46253.67
585.62	45832.37
585.78	45993.87
585.94	45811.31
586.10	45984.51
586.26	45591.30
586.42	46019.61
586.58	46312.18
586.74	46314.52
586.90	45837.05
587.06	46333.24
587.22	46351.97
587.38	46171.75
587.54	46445.59
587.70	46405.80
587.86	46368.35
588.02	46031.32
588.18	45921.31
588.34	45867.48
588.49	46178.77
588.65	45993.87
588.81	46131.96
588.97	46354.31
589.13	46419.84
589.29	46445.59
589.45	46326.22
589.61	46178.77
589.77	46265.37
589.93	46052.38
590.08	46646.88
590.24	46457.29
590.40	46340.27
590.56	46396.44
590.72	46293.46
590.88	46780.29
591.04	46937.10
591.20	46415.16
591.35	46520.49
591.51	46789.65
591.67	46665.60
591.83	46791.99
591.99	46494.74
592.15	46265.37
592.31	46593.04
592.46	46412.82
592.62	46286.43
592.78	46543.89
592.94	46431.55
593.10	46380.06
593.26	47316.27
593.41	47026.04
593.57	46499.42
593.73	46948.81
593.89	46773.27
594.05	46925.40
594.20	46452.61
594.36	47077.54
594.52	47007.32
594.68	46775.61
594.84	46569.64
594.99	47274.14
595.15	46873.91
595.31	46710.07
595.47	46443.25
595.62	46838.80
595.78	46644.54
595.94	46754.54
596.10	46796.67
596.25	47044.77
596.41	46838.80
596.57	46370.69
596.73	46902.00
596.88	46651.56
597.04	46904.34
597.20	46543.89
597.36	46564.96
597.51	46698.37
597.67	46415.16
597.83	46674.96
597.99	46405.80
598.14	46576.66
598.30	46773.27
598.46	46581.34
598.61	47051.79
598.77	46944.12
598.93	47173.50
599.09	47164.14
599.24	47004.98
599.40	47140.73
599.56	47199.24
599.71	47466.06
599.87	47608.84
600.03	47299.89
600.18	46784.97
600.34	47196.90
600.50	46597.73
600.65	46822.42
600.81	47026.04
600.97	47028.38
601.12	46951.15
601.28	47119.66
601.44	47150.09
601.59	46939.44
601.75	46567.30
601.91	47075.19
602.06	46887.95
602.22	47021.36
602.37	47044.77
602.53	47409.89
602.69	47033.07
602.84	46878.59
603.00	46759.22
603.16	46616.45
603.31	46803.69
603.47	47164.14
603.62	47222.65
603.78	47192.22
603.94	46855.18
604.09	46513.47
604.25	46791.99
604.40	46323.88
604.56	47302.23
604.71	46705.39
604.87	46789.65
605.03	46574.32
605.18	46880.93
605.34	47480.11
605.49	46557.94
605.65	47007.32
605.80	46391.76
605.96	47100.94
606.12	46635.17
606.27	46803.69
606.43	46553.26
606.58	47103.28
606.74	46738.16
606.89	46953.49
607.05	47180.52
607.20	47342.02
607.36	46651.56
607.51	46941.78
607.67	46689.01
607.82	46588.36
607.98	46934.76
608.13	46499.42
608.29	46684.33
608.44	46892.63
608.60	46452.61
608.75	46609.43
608.91	46866.89
609.06	46546.23
609.22	46728.80
609.37	46450.27
609.53	46752.20
609.68	46632.83
609.84	46445.59
609.99	46993.28
610.15	46738.16
610.30	46939.44
610.46	46644.54
610.61	46499.42
610.76	46497.08
610.92	46492.40
611.07	46178.77
611.23	46258.35
611.38	46562.62
611.54	46836.46
611.69	46522.83
611.84	46653.90
612.00	46520.49
612.15	46562.62
612.31	46925.40
612.46	46253.67
612.62	46684.33
612.77	46698.37
612.92	46801.35
613.08	46410.48
613.23	46499.42
613.39	46213.88
613.54	46167.07
613.69	46431.55
613.85	46270.05
614.00	46361.33
614.15	46487.72
614.31	46445.59
614.46	46075.79
614.62	45881.52
614.77	46146.00
614.92	46162.39
615.08	46213.88
615.23	46227.92
615.38	46213.88
615.54	46003.23
615.69	46518.15
615.84	46340.27
616.00	46581.34
616.15	45729.39
616.30	46195.15
616.46	45834.71
616.61	45720.02
616.76	45755.13
616.92	45834.71
617.07	45923.65
617.22	45853.44
617.37	45792.58
617.53	45687.26
617.68	45595.98
617.83	45811.31
617.99	46277.07
618.14	45773.86
618.29	45858.12
618.45	45495.33
618.60	46021.95
618.75	45514.06
618.90	45806.62
619.06	45769.18
619.21	45916.63
619.36	45659.17
619.51	45694.28
619.67	45460.23
619.82	45280.00
619.97	45741.09
620.12	45663.85
620.28	45787.90
620.43	45811.31
620.58	45467.25
620.73	45310.43
620.89	45890.88
621.04	45834.71
621.19	45406.39
621.34	45378.31
621.49	45127.87
621.65	45544.48
621.80	45586.61
621.95	45413.41
622.10	45099.78
622.25	45581.93
622.41	45455.54
622.56	45413.41
622.71	45401.71
622.86	45404.05
623.01	45345.54
623.16	45205.11
623.32	45048.29
623.47	45132.55
623.62	44903.18
623.77	45074.04
623.92	45287.03
624.07	44650.40
624.23	45212.13
624.38	45088.08
624.53	45322.13
624.68	45062.33
624.83	44858.71
624.98	45425.12
625.13	44762.75
625.29	44814.24
625.44	45148.93
625.59	45045.95
625.74	44559.12
625.89	44891.48
626.04	44854.03
626.19	44772.11
626.34	44512.31
626.49	44830.62
626.65	44065.27
626.80	44678.49
626.95	44664.44
627.10	44514.65
627.25	44610.61
627.40	44533.37
627.55	44392.94
627.70	44439.75
627.85	44584.86
628.00	44545.08
628.15	44304.00
628.30	44224.42
628.45	43672.06
628.60	44039.52
628.76	44577.84
628.91	43796.10
629.06	43885.04
629.21	43966.96
629.36	43838.23
629.51	43908.45
629.66	44201.02
629.81	43927.17
629.96	44542.74
630.11	44198.68
630.26	43985.69
630.41	43772.70
630.56	44231.44
630.71	44048.88
630.86	44229.10
631.01	44023.14
631.16	43952.92
631.31	43662.69
631.46	43761.00
631.61	44011.43
631.76	43892.07
631.91	43791.42
632.06	44168.25
632.21	44076.97
632.36	43737.59
632.51	43702.48
632.66	43653.33
632.81	43761.00
632.96	43498.86
633.10	43220.33
633.25	43927.17
633.40	43686.10
633.55	43917.81
633.70	43597.16
633.85	43171.18
634.00	43360.76
634.15	43550.35
634.30	43274.16
634.45	43143.09
634.60	43161.82
634.75	44044.20
634.90	43555.03
635.05	43438.00
635.19	43072.88
635.34	42967.55
635.49	43234.38
635.64	43222.67
635.79	43627.59
635.94	43578.43
636.09	43056.50
636.24	43068.20
636.39	43278.85
636.53	43122.03
636.68	43138.41
636.83	42572.00
636.98	42583.71
637.13	42707.76
637.28	43105.65
637.43	42937.13
637.57	42923.08
637.72	42780.31
637.87	42607.11
638.02	42841.17
638.17	42937.13
638.32	42590.73
638.46	42586.05
638.61	42667.97
638.76	42120.28
638.91	42497.11
639.06	42918.40
639.20	42014.96
639.35	41933.04
639.50	42513.49
639.65	42789.67
639.80	42674.99
639.94	42927.77
640.09	42813.08
640.24	42375.40
640.39	42113.26
640.54	42054.75
640.68	42340.29
640.83	42660.94
640.98	42010.28
641.13	42157.73
641.27	42728.82
641.42	42232.63
641.57	42141.35
641.72	42408.17
641.86	42349.65
642.01	42167.09
642.16	41769.20
642.31	41886.23
642.45	42218.58
642.60	41940.06
642.75	42478.38
642.90	42185.82
643.04	42120.28
643.19	41450.89
643.34	41654.51
643.48	41670.90
643.63	41918.99
643.78	41813.67
643.93	41848.78
644.07	41771.54
644.22	41846.44
644.37	41624.09
644.51	42036.02
644.66	42110.92
644.81	41855.80
644.95	41603.02
645.10	41841.76
645.25	41605.36
645.39	41544.51
645.54	41572.60
645.69	41029.59
645.83	41574.94
645.98	41303.43
646.13	41132.57
646.27	41022.57
646.42	41448.55
646.57	41104.49
646.71	41846.44
646.86	41099.81
647.00	40999.16
647.15	41202.79
647.30	41490.68
647.44	41212.15
647.59	40928.95
647.74	41230.88
647.88	41406.42
648.03	41202.79
648.17	41191.09
648.32	40863.41
648.47	41500.04
648.61	40830.65
648.76	41116.19
648.90	41111.51
649.05	40842.35
649.20	41074.06
649.34	41050.66
649.49	41148.96
649.63	41490.68
649.78	41092.79
649.92	40655.11
650.07	40919.59
650.21	40942.99
650.36	41605.36
650.51	40807.24
650.65	41043.63
650.80	41134.92
650.94	41109.17
651.09	40622.34
651.23	40423.39
651.38	40095.72
651.52	40112.10
651.67	40114.44
651.81	40655.11
651.96	40449.14
652.10	40156.57
652.25	40491.27
652.39	40444.46
652.54	40802.56
652.68	40648.08
652.83	40479.57
652.97	40311.05
653.12	40563.82
653.26	40432.75
653.41	40079.33
653.55	40657.45
653.70	40170.61
653.84	40458.50
653.99	39976.35
654.13	40264.24
654.27	40034.86
654.42	39913.16
654.56	39896.77
654.71	40388.28
654.85	40411.69
655.00	40460.84
655.14	39756.34
655.29	40404.67
655.43	40154.23
655.57	39775.06
655.72	39620.59
655.86	39761.02
656.01	39714.21
656.15	39690.80
656.30	39817.19
656.44	39913.16
656.58	40140.19
656.73	39901.45
656.87	38855.23
657.01	39267.17
657.16	39756.34
657.30	39643.99
657.45	39882.73
657.59	39075.24
657.73	38969.92
657.88	39494.20
658.02	39770.38
658.16	39496.54
658.31	39304.62
658.45	39248.44
658.60	39133.76
658.74	39498.88
658.88	39269.51
659.03	39189.93
659.17	38693.74
659.31	38869.28
659.46	39028.43
659.60	39178.23
659.74	39328.02
659.89	38593.09
660.03	38429.26
660.17	39150.14
660.32	38731.18
660.46	38651.61
660.60	38314.57
660.74	38534.58
660.89	38834.17
661.03	38026.68
661.17	38038.39
661.32	38607.14
661.46	37954.13
661.60	38309.89
661.74	38291.16
661.89	38515.86
662.03	38380.10
662.17	38288.82
662.31	38019.66
662.46	37947.11
662.60	38050.09
662.74	37867.53
662.88	37598.37
663.03	37715.39
663.17	37371.33
663.31	37366.65
663.45	37816.04
663.60	37589.00
663.74	37687.31
663.88	37401.76
664.02	37530.49
664.17	37542.19
664.31	37153.66
664.45	37422.83
664.59	37509.43
664.73	36971.10
664.88	37340.91
665.02	37008.55
665.16	37207.50
665.30	37296.44
665.44	36575.55
665.59	36605.98
665.73	36776.84
665.87	36350.86
666.01	37207.50
666.15	36378.95
666.29	36849.39
666.44	36898.55
666.58	36760.45
666.72	36240.86
666.86	36788.54
667.00	36411.71
667.14	36130.85
667.28	36491.29
667.43	35985.74
667.57	36453.84
667.71	36009.14
667.85	36512.36
667.99	35831.26
668.13	35749.34
668.27	35791.47
668.41	35920.20
668.56	35386.56
668.70	35412.31
668.84	35658.06
668.98	35519.97
669.12	35248.47
669.26	35365.49
669.40	35601.89
669.54	35632.32
669.68	35480.18
669.82	35054.20
669.96	34845.90
670.10	34574.39
670.25	34923.13
670.39	35115.06
670.53	35370.18
670.67	34719.51
670.81	34895.05
670.95	35091.65
671.09	34920.79
671.23	34375.45
671.37	34553.33
671.51	34401.19
671.65	34232.68
671.79	34295.87
671.93	34656.31
672.07	34373.11
672.21	34375.45
672.35	33893.30
672.49	34099.26
672.63	34110.97
672.77	34012.66
672.91	34230.33
673.05	33757.55
673.19	33401.79
673.33	33619.46
673.47	33301.14
673.61	33141.99
673.75	32999.21
673.89	32921.98
674.03	33172.41
674.17	33064.75
674.31	33163.05
674.45	32921.98
674.59	32772.18
674.73	32723.03
674.87	32713.67
675.01	32418.76
675.15	32580.26
675.29	32353.23
675.43	32580.26
675.56	32428.12
675.70	32467.91
675.84	32374.29
675.98	31522.34
676.12	31999.80
676.26	31983.42
676.40	31786.82
676.54	31550.42
676.68	31728.30
676.82	31323.39
676.96	31608.93
677.10	31412.33
677.23	31330.41
677.37	31545.74
677.51	31143.17
677.65	31328.07
677.79	30719.53
677.93	30656.34
678.07	30752.30
678.21	30384.83
678.34	30607.19
678.48	30031.41
678.62	30143.76
678.76	30101.63
678.90	30075.88
679.04	30419.94
679.18	30363.77
679.31	30031.41
679.45	29677.99
679.59	29385.43
679.73	29486.07
679.87	29474.37
680.00	29600.76
680.14	29469.69
680.28	29263.72
680.42	29319.89
680.56	28947.75
680.70	28840.08
680.83	28512.41
680.97	28545.17
681.11	28725.39
681.25	28542.83
681.39	28680.92
681.52	28474.96
681.66	28292.40
681.80	27817.27
681.94	27618.32
682.07	28093.45
682.21	27653.43
682.35	27819.61
682.49	27672.15
682.62	27744.71
682.76	27908.55
682.90	27711.94
683.04	27725.99
683.17	27473.21
683.31	27126.81
683.45	27229.79
683.59	26789.77
683.72	26927.86
683.86	26998.08
684.00	26445.71
684.13	26794.45
684.27	26274.85
684.41	26630.62
684.55	26366.13
684.68	26443.37
684.82	26089.95
684.96	26204.64
685.09	25895.69
685.23	26146.12
685.37	26122.72
685.50	26043.14
685.64	25839.51
685.78	25949.52
685.91	25488.43
686.05	24978.20
686.19	24737.12
686.32	25156.08
686.46	24533.50
686.60	24606.05
686.73	24694.99
686.87	24882.24
687.01	24498.39
687.14	24538.18
687.28	24833.08
687.42	24432.85
687.55	24393.06
687.69	24608.39
687.82	23992.83
687.96	24161.35
688.10	24084.11
688.23	24130.92
688.37	24261.99
688.50	23836.02
688.64	23714.31
688.78	23433.44
688.91	23473.23
689.05	23489.62
689.18	23056.62
689.32	22881.08
689.46	22773.41
689.59	22785.12
689.73	22860.01
689.86	22991.08
690.00	22654.05
690.13	22909.16
690.27	22579.15
690.41	22352.12
690.54	22731.28
690.68	22647.02
690.81	22284.24
690.95	22223.39
691.08	22066.57
691.22	21633.57
691.35	21832.52
691.49	22101.68
691.62	21900.39
691.76	21509.52
691.89	21493.14
692.03	21249.72
692.16	20858.85
692.30	21287.17
692.43	21348.03
692.57	20915.03
692.70	20872.90
692.84	21277.81
692.97	20442.24
693.11	20673.95
693.24	20563.95
693.38	20383.73
693.51	20240.95
693.65	20388.41
693.78	20264.36
693.92	20250.32
694.05	19978.81
694.19	19875.83
694.32	19695.61
694.45	19967.11
694.59	19871.15
694.72	19852.42
694.86	19255.59
694.99	19365.59
695.13	19297.72
695.26	19346.87
695.39	19026.21
695.53	19204.10
695.66	19070.68
695.80	18796.84
695.93	19096.43
696.07	18569.81
696.20	18471.51
696.33	18422.36
696.47	18389.59
696.60	18354.48
696.73	18525.34
696.87	18370.86
697.00	18200.01
697.14	18068.94
697.27	18164.90
697.40	18090.00
697.54	17792.75
697.67	18064.25
697.80	17823.18
697.94	17399.54
698.07	17460.40
698.21	17444.01
698.34	17390.18
698.47	17165.49
698.61	16910.37
698.74	16952.50
698.87	17032.08
699.01	16828.45
699.14	16688.02
699.27	17011.01
699.40	16666.95
699.54	16732.49
699.67	16519.50
699.80	16620.14
699.94	16528.86
700.07	16624.83
700.20	16472.69
700.34	16152.04
700.47	16233.96
700.60	16430.56
700.73	16184.80
700.87	15981.18
701.00	15651.16
701.13	15653.50
701.26	15719.04
701.40	15573.92
701.53	15398.38
701.66	15501.37
701.79	15283.70
701.93	15030.92
702.06	14981.77
702.19	15059.01
702.32	14785.16
702.46	14871.76
702.59	14951.34
702.72	14972.41
702.85	14953.68
702.99	14721.97
703.12	14693.88
703.25	14710.27
703.38	14408.34
703.51	14572.18
703.65	14347.48
703.78	14080.66
703.91	14003.43
704.04	13802.14
704.17	14099.39
704.31	14017.47
704.44	13898.10
704.57	13823.20
704.70	13680.43
704.83	13731.92
704.96	13839.59
705.10	13472.12
705.23	13645.32
>>>>>End Processed Spectral Data<<<<<
