SpectraSuite Data File
++++++++++++++++++++++++++++++++++++
Date: Fri Oct 25 10:43:28 EDT 2013
User: price-jones
Dark Spectrum Present: No
Reference Spectrum Present: No
Number of Sampled Component Spectra: 1
Spectrometers: USB2+H05261
Integration Time (usec): 100000 (USB2+H05261)
Spectra Averaged: 1 (USB2+H05261)
Boxcar Smoothing: 0 (USB2+H05261)
Correct for Electrical Dark: No (USB2+H05261)
Strobe/Lamp Enabled: No (USB2+H05261)
Correct for Detector Non-linearity: No (USB2+H05261)
Correct for Stray Light: No (USB2+H05261)
Number of Pixels in Processed Spectrum: 2048
>>>>>Begin Processed Spectral Data<<<<<
365.73	142.77
365.92	142.77
366.12	142.77
366.32	25.75
366.52	0.00
366.72	79.58
366.91	56.17
367.11	16.38
367.31	11.70
367.51	79.58
367.70	0.00
367.90	2.34
368.10	0.00
368.30	30.43
368.49	0.00
368.69	42.13
368.89	16.38
369.09	14.04
369.28	95.96
369.48	95.96
369.68	42.13
369.87	102.98
370.07	163.84
370.27	58.51
370.47	196.60
370.66	360.44
370.86	418.96
371.06	456.40
371.25	456.40
371.45	444.70
371.65	472.79
371.84	430.66
372.04	421.30
372.24	468.11
372.44	411.93
372.63	517.26
372.83	505.56
373.03	578.11
373.22	503.22
373.42	557.05
373.62	454.06
373.81	496.19
374.01	657.69
374.21	587.47
374.40	566.41
374.60	526.62
374.79	500.87
374.99	561.73
375.19	582.79
375.38	524.28
375.58	589.82
375.78	592.16
375.97	543.00
376.17	655.35
376.37	622.58
376.56	596.84
376.76	596.84
376.95	638.97
377.15	669.39
377.35	578.11
377.54	599.18
377.74	585.13
377.93	667.05
378.13	627.26
378.33	592.16
378.52	615.56
378.72	681.10
378.91	585.13
379.11	660.03
379.31	580.45
379.50	575.77
379.70	624.92
379.89	725.57
380.09	690.46
380.28	695.14
380.48	638.97
380.68	662.37
380.87	755.99
381.07	690.46
381.26	791.10
381.46	709.18
381.65	585.13
381.85	704.50
382.04	674.07
382.24	737.27
382.43	692.80
382.63	770.04
382.83	730.25
383.02	685.78
383.22	744.29
383.41	676.41
383.61	650.67
383.80	777.06
384.00	739.61
384.19	821.53
384.39	730.25
384.58	692.80
384.78	741.95
384.97	751.31
385.17	851.96
385.36	826.21
385.56	819.19
385.75	674.07
385.95	770.04
386.14	774.72
386.34	767.70
386.53	901.11
386.72	779.40
386.92	819.19
387.11	945.58
387.31	905.79
387.50	826.21
387.70	828.55
387.89	791.10
388.09	877.70
388.28	875.36
388.48	891.74
388.67	856.64
388.86	908.13
389.06	959.62
389.25	1008.77
389.45	1046.22
389.64	903.45
389.84	1043.88
390.03	938.55
390.22	987.71
390.42	1004.09
390.61	1004.09
390.81	966.64
391.00	1121.12
391.19	1093.03
391.39	933.87
391.58	994.73
391.78	1008.77
391.97	1004.09
392.16	992.39
392.36	1046.22
392.55	1039.20
392.75	994.73
392.94	999.41
393.13	947.92
393.33	1008.77
393.52	1060.26
393.71	1048.56
393.91	1107.07
394.10	1121.12
394.29	1149.20
394.49	1167.93
394.68	1198.35
394.88	1174.95
395.07	1228.78
395.26	1170.27
395.46	1135.16
395.65	1181.97
395.84	1210.06
396.04	1345.81
396.23	1132.82
396.42	1036.86
396.62	1149.20
396.81	1198.35
397.00	1132.82
397.19	1352.83
397.39	1266.23
397.58	1275.59
397.77	1299.00
397.97	1416.02
398.16	1324.74
398.35	1406.66
398.55	1469.86
398.74	1437.09
398.93	1540.07
399.12	1469.86
399.32	1542.41
399.51	1451.13
399.70	1467.52
399.90	1596.25
400.09	1603.27
400.28	1575.18
400.47	1572.84
400.67	1547.09
400.86	1633.69
401.05	1680.50
401.24	1661.78
401.44	1657.10
401.63	1666.46
401.82	1692.21
402.01	1760.08
402.21	1727.32
402.40	1755.40
402.59	1720.29
402.78	1734.34
402.97	1715.61
403.17	1809.23
403.36	1804.55
403.55	1830.30
403.74	1881.79
403.93	1923.92
404.13	1914.56
404.32	1802.21
404.51	1743.70
404.70	2019.88
404.89	1944.99
405.09	1937.96
405.28	1980.09
405.47	1935.62
405.66	1952.01
405.85	1816.26
406.05	2026.90
406.24	2038.61
406.43	1980.09
406.62	2139.25
406.81	2101.80
407.00	2057.33
407.20	2012.86
407.39	2064.35
407.58	2157.97
407.77	2143.93
407.96	2202.44
408.15	2225.85
408.34	2181.38
408.54	2345.22
408.73	2272.66
408.92	2270.32
409.11	2150.95
409.30	2183.72
409.49	2260.96
409.68	2359.26
409.87	2319.47
410.07	2282.02
410.26	2282.02
410.45	2340.54
410.64	2377.98
410.83	2452.88
411.02	2422.45
411.21	2562.89
411.40	2555.86
411.59	2551.18
411.78	2452.88
411.98	2497.35
412.17	2635.44
412.36	2649.49
412.55	2649.49
412.74	2635.44
412.93	2754.81
413.12	2619.06
413.31	2789.92
413.50	2752.47
413.69	2736.09
413.88	2782.90
414.07	2841.41
414.26	2974.82
414.45	2841.41
414.64	3089.51
414.83	3019.29
415.02	2909.29
415.22	3070.78
415.41	3222.92
415.60	3063.76
415.79	3138.66
415.98	3215.90
416.17	3166.74
416.36	3136.32
416.55	3185.47
416.74	3213.56
416.93	3194.83
417.12	3251.00
417.31	3255.69
417.50	3236.96
417.69	3349.31
417.88	3419.52
418.07	3426.54
418.26	3361.01
418.45	3468.67
418.64	3637.19
418.83	3681.66
419.02	3454.63
419.21	3674.64
419.39	3466.33
419.58	3557.61
419.77	3485.06
419.96	3522.51
420.15	3641.87
420.34	3698.05
420.53	3751.88
420.72	3772.94
420.91	3850.18
421.10	3796.35
421.29	3852.52
421.48	3712.09
421.67	3896.99
421.86	3765.92
422.05	3681.66
422.24	3815.07
422.43	3770.60
422.61	3852.52
422.80	3892.31
422.99	3836.14
423.18	3829.12
423.37	4042.11
423.56	3927.42
423.75	3808.05
423.94	3960.19
424.13	3695.71
424.32	3810.39
424.50	3915.72
424.69	4025.72
424.88	4159.13
425.07	3941.46
425.26	3735.50
425.45	3805.71
425.64	4044.45
425.83	3873.59
426.01	4156.79
426.20	3932.10
426.39	3915.72
426.58	3646.55
426.77	3918.06
426.96	3999.98
427.15	3995.29
427.33	4035.08
427.52	4084.23
427.71	4049.13
427.90	4067.85
428.09	4032.74
428.28	4138.07
428.46	4109.98
428.65	4121.68
428.84	4203.60
429.03	4245.73
429.22	4095.94
429.40	4177.86
429.59	4053.81
429.78	3824.44
429.97	3737.84
430.16	4002.32
430.34	3955.51
430.53	4014.02
430.72	4163.81
430.91	4126.36
431.10	4381.48
431.28	4280.84
431.47	4416.59
431.66	4622.56
431.85	4503.19
432.03	4608.51
432.22	4624.90
432.41	4723.20
432.60	4606.17
432.79	4645.96
432.97	4638.94
433.16	4734.90
433.35	4648.30
433.54	4737.24
433.72	4681.07
433.91	4564.04
434.10	4603.83
434.28	4917.47
434.47	4758.31
434.66	4798.10
434.85	4952.57
435.03	4924.49
435.22	5011.09
435.41	5004.07
435.59	5004.07
435.78	5088.32
435.97	5013.43
436.16	4999.38
436.34	5165.56
436.53	5071.94
436.72	5184.29
436.90	5128.11
437.09	5203.01
437.28	4971.30
437.46	5071.94
437.65	5102.37
437.84	5074.28
438.02	5104.71
438.21	5221.74
438.40	5100.03
438.58	5263.86
438.77	5413.66
438.96	5263.86
439.14	5518.98
439.33	5423.02
439.52	5404.30
439.70	5467.49
439.89	5628.99
440.08	5636.01
440.26	5589.20
440.45	5699.20
440.63	5781.12
440.82	5830.27
441.01	5928.58
441.19	6078.37
441.38	6036.24
441.57	5982.41
441.75	6223.48
441.94	6127.52
442.12	6111.14
442.31	6193.06
442.50	6324.13
442.68	6216.46
442.87	6244.55
443.05	6319.45
443.24	6394.34
443.43	6331.15
443.61	6380.30
443.80	6532.44
443.98	6204.76
444.17	6061.99
444.35	6363.92
444.54	6392.00
444.73	6490.31
444.91	6523.07
445.10	6363.92
445.28	6595.63
445.47	6239.87
445.65	6441.15
445.84	6497.33
446.02	6504.35
446.21	6497.33
446.39	6530.09
446.58	6532.44
446.77	6700.95
446.95	6651.80
447.14	6689.25
447.32	6581.59
447.51	6682.23
447.69	6497.33
447.88	6649.46
448.06	6548.82
448.25	6483.28
448.43	6663.51
448.62	6654.14
448.80	6668.19
448.99	6846.07
449.17	6949.05
449.36	6597.97
449.54	6754.79
449.73	6930.33
449.91	7009.90
450.10	7096.50
450.28	7166.72
450.46	7206.51
450.65	7225.23
450.83	7089.48
451.02	7021.61
451.20	7150.34
451.39	6998.20
451.57	7084.80
451.76	7087.14
451.94	7000.54
452.13	7138.63
452.31	7089.48
452.49	6899.90
452.68	7208.85
452.86	7094.16
453.05	7105.87
453.23	7169.06
453.42	7105.87
453.60	7250.98
453.78	7435.88
453.97	7105.87
454.15	7349.28
454.34	7438.22
454.52	7360.98
454.70	7548.23
454.89	7456.95
455.07	7339.92
455.26	7538.87
455.44	7646.53
455.62	7562.27
455.81	7761.22
455.99	7648.87
456.17	7756.54
456.36	7740.15
456.54	7953.14
456.73	7946.12
456.91	8128.68
457.09	8037.40
457.28	8112.30
457.46	7866.54
457.64	7971.86
457.83	8128.68
458.01	7850.16
458.19	7943.78
458.38	7843.14
458.56	8463.38
458.74	8177.83
458.93	8081.87
459.11	8175.49
459.29	8074.85
459.48	8243.37
459.66	8407.20
459.84	8458.70
460.03	8641.26
460.21	8322.94
460.39	8276.13
460.57	8521.89
460.76	8512.53
460.94	8507.85
461.12	8674.03
461.31	8564.02
461.49	8571.04
461.67	8723.18
461.85	8997.02
462.04	8697.43
462.22	9111.71
462.40	8858.93
462.59	8711.47
462.77	8877.65
462.95	8865.95
463.13	8840.20
463.32	8861.27
463.50	8898.72
463.68	8833.18
463.86	8915.10
464.05	9076.60
464.23	8786.37
464.41	8830.84
464.59	8835.52
464.78	9125.75
464.96	8982.98
465.14	9029.79
465.32	9242.78
465.50	9366.82
465.69	9252.14
465.87	8964.25
466.05	9015.74
466.23	9392.57
466.41	9231.07
466.60	9235.75
466.78	9006.38
466.96	9160.86
467.14	9289.59
467.32	9235.75
467.51	9228.73
467.69	9125.75
467.87	9448.74
468.05	9408.95
468.23	9439.38
468.41	9483.85
468.60	9497.89
468.78	9373.85
468.96	9308.31
469.14	9600.88
469.32	9509.60
469.50	9198.31
469.69	9605.56
469.87	9820.89
470.05	9839.61
470.23	9673.43
470.41	9741.31
470.59	9961.32
470.77	9720.24
470.95	9741.31
471.14	10073.67
471.32	9790.46
471.50	10249.21
471.68	10045.58
471.86	10328.78
472.04	10188.35
472.22	10380.28
472.40	10228.14
472.58	10289.00
472.77	10090.05
472.95	10487.94
473.13	10609.65
473.31	10296.02
473.49	10359.21
473.67	10581.56
473.85	10628.37
474.03	10956.05
474.21	10759.44
474.39	11028.60
474.57	10934.98
474.75	10881.15
474.93	11066.05
475.12	10951.37
475.30	11005.20
475.48	11098.82
475.66	11063.71
475.84	11019.24
476.02	11510.75
476.20	11199.46
476.38	11470.97
476.56	11709.70
476.74	11602.04
476.92	11648.85
477.10	11700.34
477.28	11896.94
477.46	11639.48
477.64	11995.25
477.82	12133.34
478.00	12416.54
478.18	12407.18
478.36	12456.33
478.54	12397.82
478.72	12411.86
478.90	12798.05
479.08	12765.28
479.26	12999.34
479.44	12936.14
479.62	13034.44
479.80	13301.26
479.98	13373.82
480.16	13446.38
480.34	13373.82
480.52	13860.65
480.70	13781.07
480.88	13507.23
481.06	13860.65
481.24	13872.36
481.41	14155.56
481.59	14272.59
481.77	14097.05
481.95	14438.76
482.13	14663.46
482.31	14216.41
482.49	15021.56
482.67	14888.15
482.85	14761.76
483.03	15033.26
483.21	15279.02
483.39	15370.30
483.57	15136.24
483.74	15225.18
483.92	15459.24
484.10	15042.62
484.28	15850.11
484.46	15892.24
484.64	15974.16
484.82	16088.84
485.00	16123.95
485.18	16362.69
485.35	16486.73
485.53	16081.82
485.71	15997.56
485.89	16266.72
486.07	16084.16
486.25	16217.57
486.43	16613.12
486.61	16870.58
486.78	17067.19
486.96	17029.74
487.14	17521.25
487.32	17699.13
487.50	17895.74
487.68	18097.02
487.85	18017.44
488.03	18127.45
488.21	18256.18
488.39	18113.41
488.57	18326.39
488.75	18532.36
488.92	18874.08
489.10	19276.65
489.28	19105.79
489.46	19384.32
489.64	19360.91
489.81	19924.98
489.99	19999.88
490.17	19978.81
490.35	20283.08
490.53	20194.14
490.70	20278.40
490.88	20210.53
491.06	20624.80
491.24	20629.48
491.41	20533.52
491.59	20362.66
491.77	20297.13
491.95	20870.56
492.13	21153.76
492.30	21535.27
492.48	21301.22
492.66	21724.85
492.84	21727.19
493.01	22101.68
493.19	21635.91
493.37	21986.99
493.54	21956.57
493.72	22104.02
493.90	22249.13
494.08	22597.87
494.25	22857.67
494.43	23208.75
494.61	23211.09
494.79	23185.35
494.96	23243.86
495.14	23166.62
495.32	23513.02
495.49	23639.41
495.67	23208.75
495.85	23714.31
496.02	23845.38
496.20	23861.76
496.38	23948.36
496.55	24198.80
496.73	24739.46
496.91	24570.94
497.09	24678.61
497.26	24641.16
497.44	24851.81
497.62	25081.18
497.79	25144.38
497.97	24985.22
498.14	25130.33
498.32	25481.41
498.50	25446.30
498.67	25647.59
498.85	25635.89
499.03	25888.67
499.20	25954.20
499.38	26015.05
499.56	26031.44
499.73	25916.75
499.91	26384.86
500.08	26253.79
500.26	26171.87
500.44	26309.96
500.61	26721.90
500.79	26373.16
500.97	26415.29
501.14	26761.69
501.32	26916.16
501.49	26628.27
501.67	26932.54
501.84	27351.50
502.02	26974.67
502.20	27300.01
502.37	27615.98
502.55	27431.08
502.72	27641.73
502.90	27995.15
503.07	27828.97
503.25	27707.26
503.43	27672.15
503.60	27637.05
503.78	27920.25
503.95	27805.56
504.13	28339.21
504.30	28166.01
504.48	28226.86
504.65	28753.48
504.83	28521.77
505.01	28765.18
505.18	28964.13
505.36	29142.01
505.53	29212.23
505.71	29352.66
505.88	29411.17
506.06	29111.58
506.23	29191.16
506.41	28931.36
506.58	29619.48
506.76	29432.24
506.93	29640.54
507.11	29497.77
507.28	29780.98
507.46	29818.42
507.63	29757.57
507.81	30139.08
507.98	29736.51
508.16	30185.89
508.33	30092.27
508.50	30279.51
508.68	30731.23
508.85	30939.54
509.03	30724.21
509.20	30808.47
509.38	31304.67
509.55	30885.71
509.73	30852.94
509.90	31056.57
510.08	30675.06
510.25	31278.92
510.42	31199.34
510.60	30866.98
510.77	31435.74
510.95	31531.70
511.12	31601.91
511.30	31594.89
511.47	32060.66
511.64	31964.70
511.82	32079.38
511.99	31828.95
512.17	31924.91
512.34	32149.60
512.51	32437.48
512.69	32416.42
512.86	32360.25
513.04	32203.43
513.21	32861.12
513.38	32402.38
513.56	32442.17
513.73	32570.90
513.90	32797.93
514.08	32353.23
514.25	32701.96
514.43	32896.23
514.60	32664.52
514.77	33191.14
514.95	33134.96
515.12	33418.17
515.29	32783.88
515.47	33661.58
515.64	33659.24
515.81	33640.52
515.99	33603.07
516.16	33731.80
516.33	32964.10
516.51	33062.41
516.68	33003.89
516.85	33008.58
517.03	33123.26
517.20	33628.82
517.37	33839.47
517.54	34017.35
517.72	33862.87
517.89	33621.80
518.06	33509.45
518.24	33692.01
518.41	33755.21
518.58	34338.00
518.75	34223.31
518.93	34368.43
519.10	34600.14
519.27	34850.58
519.45	34778.02
519.62	34871.64
519.79	34803.77
519.96	35194.64
520.14	34604.82
520.31	34897.39
520.48	34944.20
520.65	34794.40
520.83	35704.87
521.00	35676.79
521.17	35608.91
521.34	35587.85
521.52	35686.15
521.69	35768.07
521.86	35931.90
522.03	35681.47
522.20	35845.30
522.38	36123.83
522.55	35899.14
522.72	36018.50
522.89	35707.21
523.07	36479.59
523.24	35777.43
523.41	36402.35
523.58	36212.77
523.75	36907.91
523.92	36493.63
524.10	36987.49
524.27	36608.32
524.44	36989.83
524.61	36980.46
524.78	36657.47
524.96	37017.91
525.13	37266.01
525.30	37399.42
525.47	36973.44
525.64	37340.91
525.81	36844.71
525.98	36971.10
526.16	37048.34
526.33	36818.97
526.50	37074.09
526.67	36746.41
526.84	36807.26
527.01	37212.18
527.18	37212.18
527.36	37785.61
527.53	37848.80
527.70	37893.27
527.87	37902.64
528.04	37970.51
528.21	38115.62
528.38	37886.25
528.55	38485.43
528.72	37900.29
528.89	38983.96
529.07	38717.14
529.24	38553.30
529.41	38792.04
529.58	38387.13
529.75	38019.66
529.92	38536.92
530.09	38918.43
530.26	38471.39
530.43	38660.97
530.60	39033.11
530.77	38696.08
530.94	38979.28
531.11	38880.98
531.28	39056.52
531.46	39290.57
531.63	39175.89
531.80	38857.57
531.97	38845.87
532.14	38878.64
532.31	38532.24
532.48	39229.72
532.65	38909.07
532.82	39035.45
532.99	39412.28
533.16	39164.18
533.33	39505.90
533.50	39950.60
533.67	39604.20
533.84	39716.55
534.01	39786.77
534.18	39468.45
534.35	40102.74
534.52	40210.40
534.69	39988.05
534.86	40172.96
535.03	39915.50
535.20	40430.41
535.37	40542.76
535.54	40615.32
535.71	40121.46
535.88	40917.25
536.05	40053.59
536.22	40189.34
536.38	39896.77
536.55	40573.19
536.72	40030.18
536.89	39782.09
537.06	40500.63
537.23	40774.47
537.40	40589.57
537.57	40886.82
537.74	40669.15
537.91	40982.78
538.08	40641.06
538.25	40453.82
538.42	40701.92
538.59	41055.34
538.75	40540.42
538.92	41097.47
539.09	41287.05
539.26	40957.03
539.43	41134.92
539.60	40601.27
539.77	40725.32
539.94	41085.76
540.11	41230.88
540.28	41441.53
540.44	41202.79
540.61	41001.50
540.78	41317.48
540.95	41106.83
541.12	41031.93
541.29	41308.11
541.46	41191.09
541.62	41387.69
541.79	41668.56
541.96	41336.20
542.13	41532.81
542.30	41656.85
542.47	41289.39
542.63	41514.08
542.80	41563.23
542.97	42335.61
543.14	42274.76
543.31	41979.85
543.48	42113.26
543.64	41989.21
543.81	42775.63
543.98	42302.84
544.15	42335.61
544.32	42520.51
544.48	42862.23
544.65	42763.93
544.82	42550.94
544.99	42162.41
545.16	42630.52
545.32	42024.32
545.49	42784.99
545.66	42677.33
545.83	42670.31
546.00	42866.91
546.16	43117.35
546.33	42483.06
546.50	42246.67
546.67	43168.84
546.83	42326.25
547.00	43014.37
547.17	42815.42
547.34	42997.98
547.50	42831.80
547.67	42848.19
547.84	43129.05
548.00	43166.50
548.17	43164.16
548.34	43047.13
548.51	43793.76
548.67	43653.33
548.84	43536.30
549.01	43381.83
549.18	43456.73
549.34	43295.23
549.51	43250.76
549.68	43381.83
549.84	43438.00
550.01	43402.89
550.18	43257.78
550.34	43365.45
550.51	43735.25
550.68	43611.20
550.84	43325.66
551.01	43636.95
551.18	43517.58
551.34	43686.10
551.51	44170.59
551.68	44020.80
551.84	43405.23
552.01	43646.31
552.18	43861.64
552.34	43627.59
552.51	43908.45
552.68	43924.83
552.84	43772.70
553.01	44156.55
553.18	43714.19
553.34	44304.00
553.51	43847.60
553.67	43901.43
553.84	44432.73
554.01	44449.11
554.17	44236.12
554.34	44219.74
554.51	44348.47
554.67	44378.90
554.84	44081.65
555.00	44439.75
555.17	44060.58
555.33	44226.76
555.50	44348.47
555.67	44236.12
555.83	44212.72
556.00	44250.17
556.16	44624.65
556.33	44027.82
556.50	44481.88
556.66	44495.92
556.83	44495.92
556.99	44854.03
557.16	44507.63
557.32	44353.15
557.49	44741.68
557.65	44381.24
557.82	44617.63
557.98	44512.31
558.15	44701.89
558.32	44334.43
558.48	44287.62
558.65	44329.75
558.81	44177.61
558.98	44762.75
559.14	44737.00
559.31	44711.25
559.47	44402.30
559.64	44942.97
559.80	44889.13
559.97	44598.91
560.13	44292.30
560.30	44645.72
560.46	44856.37
560.63	45017.86
560.79	45184.04
560.96	45422.78
561.12	45034.25
561.29	44825.94
561.45	45031.91
561.61	44985.10
561.78	44729.98
561.94	45181.70
562.11	44767.43
562.27	44701.89
562.44	44875.09
562.60	45317.45
562.77	45277.66
562.93	45181.70
563.10	45464.91
563.26	44884.45
563.42	45432.14
563.59	44966.37
563.75	45212.13
563.92	45146.59
564.08	45544.48
564.24	45067.02
564.41	44891.48
564.57	45411.07
564.74	45200.43
564.90	45181.70
565.07	45294.05
565.23	45045.95
565.39	45226.17
565.56	45059.99
565.72	44938.29
565.88	45127.87
566.05	44680.83
566.21	45450.86
566.38	45532.78
566.54	45315.11
566.70	45607.68
566.87	45553.85
567.03	45284.68
567.19	45982.16
567.36	45937.69
567.52	45450.86
567.68	45331.50
567.85	45315.11
568.01	45560.87
568.17	45263.62
568.34	45759.81
568.50	45492.99
568.66	45097.44
568.83	45303.41
568.99	44776.79
569.15	45282.34
569.32	45780.88
569.48	45469.59
569.64	45659.17
569.81	45212.13
569.97	45427.46
570.13	45577.25
570.30	44872.75
570.46	45118.51
570.62	44694.87
570.78	45034.25
570.95	45207.45
571.11	45755.13
571.27	45029.57
571.43	45661.51
571.60	45617.04
571.76	45731.73
571.92	45750.45
572.09	45469.59
572.25	45839.39
572.41	45436.82
572.57	45614.70
572.74	45851.09
572.90	45628.74
573.06	45635.77
573.22	45848.75
573.38	45237.87
573.55	45319.79
573.71	45979.82
573.87	45635.77
574.03	45268.30
574.20	45151.27
574.36	45521.08
574.52	45560.87
574.68	45591.30
574.84	45565.55
575.01	45160.64
575.17	45584.27
575.33	45125.53
575.49	45577.25
575.65	45703.64
575.82	45818.33
575.98	45670.87
576.14	45670.87
576.30	45689.60
576.46	45511.72
576.62	45364.26
576.79	45558.53
576.95	45111.49
577.11	45734.07
577.27	45684.92
577.43	45832.37
577.59	45603.00
577.75	45186.38
577.92	45612.36
578.08	45464.91
578.24	45404.05
578.40	45509.38
578.56	45464.91
578.72	45607.68
578.88	46019.61
579.04	45769.18
579.21	45443.84
579.37	45256.60
579.53	45745.77
579.69	45567.89
579.85	45544.48
580.01	45385.33
580.17	45631.08
580.33	45790.24
580.49	45687.26
580.65	45727.05
580.82	45352.56
580.98	45736.41
581.14	45549.17
581.30	45883.86
581.46	45298.73
581.62	45757.47
581.78	45647.47
581.94	46539.21
582.10	45263.62
582.26	45844.07
582.42	45563.21
582.58	45839.39
582.74	45762.15
582.90	45783.22
583.06	45832.37
583.22	45813.65
583.38	46368.35
583.54	45677.90
583.70	45792.58
583.86	45631.08
584.02	45565.55
584.18	45776.20
584.34	45357.24
584.50	45925.99
584.66	46101.53
584.82	45823.01
584.98	45563.21
585.14	46064.08
585.30	45408.73
585.46	45766.84
585.62	45347.88
585.78	45483.63
585.94	45434.48
586.10	45595.98
586.26	45532.78
586.42	46424.53
586.58	45705.98
586.74	45743.43
586.90	45748.11
587.06	45776.20
587.22	45584.27
587.38	45890.88
587.54	45874.50
587.70	45879.18
587.86	45483.63
588.02	45621.72
588.18	45837.05
588.34	45551.51
588.49	45441.50
588.65	45514.06
588.81	45148.93
588.97	45242.56
589.13	45441.50
589.29	45179.36
589.45	45308.09
589.61	45769.18
589.77	45769.18
589.93	45858.12
590.08	45752.79
590.24	46162.39
590.40	45825.35
590.56	46050.04
590.72	46019.61
590.88	45972.80
591.04	46110.89
591.20	46068.76
591.35	46293.46
591.51	46733.48
591.67	45778.54
591.83	45708.32
591.99	45500.01
592.15	45776.20
592.31	45904.93
592.46	45769.18
592.62	46061.74
592.78	46000.89
592.94	45956.42
593.10	45951.74
593.26	46185.79
593.41	45787.90
593.57	45741.09
593.73	45713.00
593.89	45792.58
594.05	45921.31
594.20	46363.67
594.36	45773.86
594.52	46024.29
594.68	46131.96
594.84	45492.99
594.99	46115.58
595.15	45937.69
595.31	46080.47
595.47	45951.74
595.62	45727.05
595.78	45752.79
595.94	46202.18
596.10	45776.20
596.25	46033.66
596.41	46019.61
596.57	45748.11
596.73	46010.25
596.88	45577.25
597.04	45656.83
597.20	45827.69
597.36	46181.11
597.51	45839.39
597.67	45925.99
597.83	46138.98
597.99	45937.69
598.14	46131.96
598.30	45525.76
598.46	46188.13
598.61	45855.78
598.77	45497.67
598.93	45806.62
599.09	46174.09
599.24	46438.57
599.40	45837.05
599.56	46258.35
599.71	46005.57
599.87	46157.70
600.03	45918.97
600.18	46148.34
600.34	45673.21
600.50	45764.49
600.65	45743.43
600.81	45853.44
600.97	46036.00
601.12	45797.26
601.28	46344.95
601.44	45954.08
601.59	45521.08
601.75	45607.68
601.91	45581.93
602.06	45713.00
602.22	46202.18
602.37	45991.53
602.53	45841.73
602.69	46073.45
602.84	45588.95
603.00	45811.31
603.16	45942.38
603.31	45741.09
603.47	45897.91
603.62	45673.21
603.78	45799.60
603.94	45965.78
604.09	46054.72
604.25	45792.58
604.40	45717.68
604.56	45991.53
604.71	45897.91
604.87	45792.58
605.03	45766.84
605.18	45757.47
605.34	45947.06
605.49	45446.18
605.65	45982.16
605.80	45799.60
605.96	46405.80
606.12	45897.91
606.27	46127.28
606.43	45460.23
606.58	46003.23
606.74	45764.49
606.89	45404.05
607.05	45453.20
607.20	45680.24
607.36	45823.01
607.51	45563.21
607.67	45380.65
607.82	45556.19
607.98	45497.67
608.13	45291.71
608.29	45364.26
608.44	45151.27
608.60	44966.37
608.75	45675.55
608.91	45502.35
609.06	45537.46
609.22	45184.04
609.37	45296.39
609.53	45514.06
609.68	45567.89
609.84	45251.92
609.99	45139.57
610.15	45331.50
610.30	45457.88
610.46	45336.18
610.61	45024.89
610.76	45450.86
610.92	45167.66
611.07	45340.86
611.23	45188.72
611.38	45579.59
611.54	45397.03
611.69	44935.95
611.84	45111.49
612.00	45067.02
612.15	44809.56
612.31	45287.03
612.46	45162.98
612.62	45195.74
612.77	45212.13
612.92	45158.30
613.08	45076.38
613.23	44708.91
613.39	44856.37
613.54	44538.05
613.69	44456.14
613.85	44622.31
614.00	44814.24
614.15	45092.76
614.31	45233.19
614.46	45162.98
614.62	44470.18
614.77	44451.45
614.92	44737.00
615.08	44612.95
615.23	44467.84
615.38	44428.05
615.54	44296.98
615.69	44266.55
615.84	44493.58
616.00	44748.70
616.15	44594.23
616.30	44626.99
616.46	44561.46
616.61	44453.79
616.76	44421.03
616.92	44383.58
617.07	44772.11
617.22	44219.74
617.37	44479.54
617.53	44402.30
617.68	44423.37
617.83	44512.31
617.99	44512.31
618.14	43950.58
618.29	43969.30
618.45	44039.52
618.60	44069.95
618.75	43756.32
618.90	43400.55
619.06	44325.07
619.21	43669.72
619.36	43840.57
619.51	44123.78
619.67	43964.62
619.82	43880.36
619.97	44037.18
620.12	44247.83
620.28	43290.55
620.43	43606.52
620.58	43821.85
620.73	43936.54
620.89	43826.53
621.04	44154.21
621.19	43798.44
621.34	43681.42
621.49	43510.56
621.65	43587.80
621.80	43735.25
621.95	43842.92
622.10	43641.63
622.25	43594.82
622.41	43145.44
622.56	43147.78
622.71	43405.23
622.86	43620.56
623.01	43035.43
623.16	43646.31
623.32	43309.27
623.47	43089.26
623.62	43257.78
623.77	43721.21
623.92	43325.66
624.07	43124.37
624.23	42513.49
624.38	43042.45
624.53	42906.70
624.68	43346.72
624.83	43051.81
624.98	43732.91
625.13	42349.65
625.29	43370.13
625.44	42663.28
625.59	42270.08
625.74	42298.16
625.89	42740.52
626.04	42684.35
626.19	42871.59
626.34	43255.44
626.49	42960.53
626.65	42726.48
626.80	42597.75
626.95	42515.83
627.10	42773.29
627.25	42724.14
627.40	42115.60
627.55	42160.07
627.70	42293.48
627.85	42335.61
628.00	42265.39
628.15	42354.33
628.30	42249.01
628.45	42665.63
628.60	42223.26
628.76	42359.02
628.91	42230.29
629.06	41982.19
629.21	42068.79
629.36	42007.94
629.51	41923.68
629.66	41890.91
629.81	42080.49
629.96	41947.08
630.11	42106.24
630.26	42253.69
630.41	42085.17
630.56	41991.55
630.71	41989.21
630.86	42043.04
631.01	41532.81
631.16	41701.32
631.31	41642.81
631.46	41375.99
631.61	41886.23
631.76	41757.50
631.91	41701.32
632.06	41904.95
632.21	42218.58
632.36	41883.89
632.51	41102.15
632.66	41240.24
632.81	41329.18
632.96	41645.15
633.10	41687.28
633.25	41338.54
633.40	41296.41
633.55	41539.83
633.70	41879.21
633.85	41134.92
634.00	41642.81
634.15	41642.81
634.30	41280.03
634.45	41207.47
634.60	40903.20
634.75	41425.14
634.90	41160.66
635.05	41436.84
635.19	41406.42
635.34	41188.75
635.49	41198.11
635.64	40671.49
635.79	40767.45
635.94	40816.60
636.09	41041.29
636.24	40868.09
636.39	40458.50
636.53	40730.00
636.68	40744.05
636.83	40390.62
636.98	40790.86
637.13	40928.95
637.28	40891.50
637.43	41401.74
637.57	40762.77
637.72	40299.34
637.87	41067.04
638.02	40664.47
638.17	41099.81
638.32	40308.71
638.46	40484.25
638.61	40299.34
638.76	40472.54
638.91	40612.98
639.06	40439.78
639.20	40605.95
639.35	41198.11
639.50	40053.59
639.65	40500.63
639.80	40191.68
639.94	40348.50
640.09	40423.39
640.24	39732.93
640.39	39835.92
640.54	40128.48
640.68	39847.62
640.83	40187.00
640.98	39739.96
641.13	39606.55
641.27	40065.29
641.42	39739.96
641.57	39908.47
641.72	40095.72
641.86	39840.60
642.01	39709.53
642.16	39363.13
642.31	39332.70
642.45	39983.37
642.60	39576.12
642.75	39636.97
642.90	39735.27
643.04	39763.36
643.19	39679.10
643.34	40025.50
643.48	39536.33
643.63	39526.97
643.78	39412.28
643.93	39990.39
644.07	39611.23
644.22	39419.30
644.37	39166.52
644.51	39171.21
644.66	39585.48
644.81	39562.08
644.95	39051.84
645.10	39391.22
645.25	39599.52
645.39	39159.50
645.54	39260.15
645.69	38873.96
645.83	39194.61
645.98	38829.49
646.13	38841.19
646.27	38953.54
646.42	38698.42
646.57	38946.51
646.71	38965.24
646.86	39330.36
647.00	39096.31
647.15	38770.97
647.30	39225.04
647.44	39093.97
647.59	38588.41
647.74	38440.96
647.88	38426.92
648.03	38796.72
648.17	38937.15
648.32	38181.16
648.47	38330.95
648.61	38382.45
648.76	38733.53
648.90	38890.34
649.05	38588.41
649.20	38983.96
649.34	38302.87
649.49	38326.27
649.63	38595.43
649.78	38689.06
649.92	38387.13
650.07	38405.85
650.21	38630.54
650.36	38209.25
650.51	38569.69
650.65	39091.63
650.80	39000.35
650.94	38660.97
651.09	38359.04
651.23	37935.40
651.38	37837.10
651.52	38260.74
651.67	37706.03
651.81	37783.27
651.96	38314.57
652.10	38440.96
652.25	38024.34
652.39	38237.33
652.54	38017.32
652.68	37790.29
652.83	38497.13
652.97	37668.58
653.12	38249.03
653.26	37701.35
653.41	37556.24
653.55	37902.64
653.70	38103.92
653.84	37839.44
653.99	38005.62
654.13	37682.62
654.27	37251.97
654.42	37738.80
654.56	37968.17
654.71	37352.61
654.85	37741.14
655.00	37816.04
655.14	37422.83
655.29	37322.18
655.43	37390.06
655.57	36608.32
655.72	36924.29
655.86	36917.27
656.01	36793.22
656.15	36357.88
656.30	36856.42
656.44	36978.12
656.58	36999.19
656.73	37198.13
656.87	36451.50
657.01	36877.48
657.16	36783.86
657.30	36734.71
657.45	36598.96
657.59	36484.27
657.73	36790.88
657.88	37141.96
658.02	36861.10
658.16	36950.04
658.31	36706.62
658.45	36837.69
658.60	36800.24
658.74	37399.42
658.88	37060.04
659.03	36355.54
659.17	36432.78
659.31	36493.63
659.46	36320.43
659.60	36655.13
659.74	36484.27
659.89	36474.91
660.03	36236.17
660.17	36655.13
660.32	36240.86
660.46	36601.30
660.60	36278.30
660.74	36350.86
660.89	36280.64
661.03	36065.31
661.17	36032.55
661.32	35959.99
661.46	35981.06
661.60	35943.61
661.74	35744.66
661.89	35798.49
662.03	35931.90
662.17	35669.76
662.31	35765.73
662.46	35992.76
662.60	35852.33
662.74	35604.23
662.88	35473.16
663.03	35414.65
663.17	35618.27
663.31	35260.17
663.45	35246.13
663.60	35470.82
663.74	35220.38
663.88	35248.47
664.02	35267.19
664.17	35407.62
664.31	34808.45
664.45	34740.57
664.59	34897.39
664.73	34881.00
664.88	34948.88
665.02	34621.20
665.16	34749.93
665.30	34003.30
665.44	34176.50
665.59	34338.00
665.73	34733.55
665.87	34382.47
666.01	34733.55
666.15	34349.70
666.29	34115.65
666.44	34508.86
666.58	34195.23
666.72	34354.38
666.86	34099.26
667.00	34419.92
667.14	33787.97
667.28	33481.36
667.43	34117.99
667.57	34015.01
667.71	33701.37
667.85	34171.82
667.99	33727.12
668.13	34019.69
668.27	34087.56
668.41	33907.34
668.56	33574.98
668.70	33422.85
668.84	33247.31
668.98	33495.41
669.12	33048.36
669.26	33202.84
669.40	32720.69
669.54	33364.34
669.68	33001.55
669.82	33160.71
669.96	32615.37
670.10	32650.47
670.25	32730.05
670.39	32404.72
670.53	32723.03
670.67	32598.98
670.81	32746.44
670.95	32409.40
671.09	32556.85
671.23	32100.45
671.37	32388.33
671.51	32299.39
671.65	32332.16
671.79	32053.64
671.93	32385.99
672.07	31749.37
672.21	31765.75
672.35	31592.55
672.49	31910.86
672.63	31700.22
672.77	31674.47
672.91	31667.45
673.05	31332.75
673.19	31489.57
673.33	31648.72
673.47	31803.20
673.61	31122.10
673.75	30806.13
673.89	31075.29
674.03	31250.83
674.17	31150.19
674.31	31051.89
674.45	31323.39
674.59	30529.95
674.73	30927.84
674.87	31194.66
675.01	30686.76
675.15	30658.68
675.29	30473.78
675.43	30501.86
675.56	30253.76
675.70	30712.51
675.84	30501.86
675.98	29596.07
676.12	30281.85
676.26	30211.64
676.40	30368.45
676.54	29970.56
676.68	30010.35
676.82	29401.81
676.96	29586.71
677.10	29408.83
677.23	29467.34
677.37	29900.34
677.51	29551.60
677.65	29174.78
677.79	28978.17
677.93	28907.96
678.07	28910.30
678.21	28383.68
678.34	28531.13
678.48	28594.32
678.62	28379.00
678.76	28184.73
678.90	27782.16
679.04	28006.85
679.18	27999.83
679.31	27857.06
679.45	27725.99
679.59	27709.60
679.73	28041.96
679.87	27599.60
680.00	27452.14
680.14	27782.16
680.28	27625.34
680.42	27414.69
680.56	27267.24
680.70	27269.58
680.83	27290.65
680.97	26977.01
681.11	27314.05
681.25	27042.55
681.39	27180.64
681.52	27208.73
681.66	26958.29
681.80	26623.59
681.94	26567.42
682.07	26312.30
682.21	26270.17
682.35	26356.77
682.49	26033.78
682.62	26260.81
682.76	25963.56
682.90	25916.75
683.04	25893.35
683.17	25458.01
683.31	25525.88
683.45	25738.87
683.59	25575.03
683.72	25621.84
683.86	25301.19
684.00	24877.55
684.13	25130.33
684.27	25003.94
684.41	25043.73
684.55	24861.17
684.68	25015.65
684.82	24891.60
684.96	24837.76
685.09	24577.97
685.23	24489.03
685.37	24453.92
685.50	24292.42
685.64	24369.66
685.78	24493.71
685.91	24184.76
686.05	23920.28
686.19	23562.17
686.32	23744.73
686.46	23276.63
686.60	23159.60
686.73	23154.92
686.87	23012.15
687.01	23089.38
687.14	22590.85
687.28	22843.63
687.42	22913.84
687.55	22644.68
687.69	22792.14
687.82	22682.13
687.96	22845.97
688.10	22455.10
688.23	22752.35
688.37	22604.89
688.50	22012.74
688.64	22317.01
688.78	22284.24
688.91	21905.07
689.05	21699.11
689.18	21986.99
689.32	21860.60
689.46	22008.06
689.59	21862.94
689.73	21954.22
689.86	21706.13
690.00	21572.72
690.13	21748.26
690.27	20961.84
690.41	21486.12
690.54	21032.05
690.68	21034.39
690.81	21238.02
690.95	21095.25
691.08	20961.84
691.22	20702.04
691.35	20744.17
691.49	20552.24
691.62	20711.40
691.76	20643.52
691.89	20762.89
692.03	20299.47
692.16	20334.57
692.30	20294.79
692.43	19899.23
692.57	20098.18
692.70	19822.00
692.84	19974.13
692.97	19456.87
693.11	19508.37
693.24	19583.26
693.38	19613.69
693.51	19489.64
693.65	19461.55
693.78	19431.13
693.92	19260.27
694.05	19199.41
694.19	19431.13
694.32	19108.13
694.45	19171.33
694.59	18953.66
694.72	18579.17
694.86	18808.54
694.99	18569.81
695.13	18656.41
695.26	18642.37
695.39	18366.18
695.53	18565.13
695.66	18490.23
695.80	18349.80
695.93	18085.32
696.07	18104.04
696.20	18237.45
696.33	18078.30
696.47	17977.65
696.60	17839.56
696.73	17539.97
696.87	17844.24
697.00	17614.87
697.14	17348.05
697.27	17085.91
697.40	17193.58
697.54	17149.11
697.67	17156.13
697.80	16978.25
697.94	17135.06
698.07	16795.68
698.21	16732.49
698.34	17025.06
698.47	16849.52
698.61	16542.91
698.74	16872.92
698.87	16535.88
699.01	16563.97
699.14	16208.21
699.27	16229.27
699.40	16395.45
699.54	15915.64
699.67	16091.18
699.80	15836.06
699.94	15913.30
700.07	16112.25
700.20	15861.81
700.34	15749.46
700.47	15646.48
700.60	15754.15
700.73	15915.64
700.87	15536.48
701.00	15342.21
701.13	15316.47
701.26	15477.96
701.40	15281.36
701.53	15166.67
701.66	15314.13
701.79	14899.85
701.93	15342.21
702.06	14768.78
702.19	14902.19
702.32	14799.21
702.46	14733.67
702.59	14860.06
702.72	14724.31
702.85	14569.83
702.99	14541.75
703.12	14291.31
703.25	14576.86
703.38	14300.67
703.51	14366.21
703.65	13975.34
703.78	13902.78
703.91	13680.43
704.04	14026.83
704.17	14012.79
704.31	13820.86
704.44	13809.16
704.57	13661.71
704.70	13762.35
704.83	13635.96
704.96	13542.34
705.10	13437.02
705.23	13549.36
>>>>>End Processed Spectral Data<<<<<
