SpectraSuite Data File
++++++++++++++++++++++++++++++++++++
Date: Fri Oct 25 11:34:13 EDT 2013
User: price-jones
Dark Spectrum Present: No
Reference Spectrum Present: No
Number of Sampled Component Spectra: 1
Spectrometers: USB2+H05261
Integration Time (usec): 100000 (USB2+H05261)
Spectra Averaged: 1 (USB2+H05261)
Boxcar Smoothing: 0 (USB2+H05261)
Correct for Electrical Dark: No (USB2+H05261)
Strobe/Lamp Enabled: No (USB2+H05261)
Correct for Detector Non-linearity: No (USB2+H05261)
Correct for Stray Light: No (USB2+H05261)
Number of Pixels in Processed Spectrum: 2048
>>>>>Begin Processed Spectral Data<<<<<
365.73	266.82
365.92	266.82
366.12	266.82
366.32	245.76
366.52	224.69
366.72	252.78
366.91	166.18
367.11	210.65
367.31	175.54
367.51	145.11
367.70	248.10
367.90	236.39
368.10	201.29
368.30	212.99
368.49	149.79
368.69	149.79
368.89	203.63
369.09	210.65
369.28	205.97
369.48	196.60
369.68	224.69
369.87	248.10
370.07	215.33
370.27	271.50
370.47	444.70
370.66	447.04
370.86	587.47
371.06	512.58
371.25	552.37
371.45	458.74
371.65	535.98
371.84	622.58
372.04	507.90
372.24	559.39
372.44	585.13
372.63	631.94
372.83	528.96
373.03	594.50
373.22	599.18
373.42	550.03
373.62	571.09
373.81	578.11
374.01	695.14
374.21	568.75
374.40	648.33
374.60	676.41
374.79	645.99
374.99	653.01
375.19	613.22
375.38	732.59
375.58	692.80
375.78	664.71
375.97	678.76
376.17	613.22
376.37	648.33
376.56	617.90
376.76	683.44
376.95	681.10
377.15	634.29
377.35	681.10
377.54	716.20
377.74	653.01
377.93	704.50
378.13	664.71
378.33	732.59
378.52	716.20
378.72	683.44
378.91	727.91
379.11	690.46
379.31	655.35
379.50	636.63
379.70	685.78
379.89	730.25
380.09	713.86
380.28	734.93
380.48	774.72
380.68	681.10
380.87	674.07
381.07	741.95
381.26	788.76
381.46	751.31
381.65	795.78
381.85	704.50
382.04	758.33
382.24	765.36
382.43	765.36
382.63	732.59
382.83	751.31
383.02	774.72
383.22	781.74
383.41	737.27
383.61	814.51
383.80	784.08
384.00	833.23
384.19	779.40
384.39	861.32
384.58	840.25
384.78	819.19
384.97	798.12
385.17	858.98
385.36	866.00
385.56	823.87
385.75	851.96
385.95	828.55
386.14	849.61
386.34	844.93
386.53	788.76
386.72	847.27
386.92	926.85
387.11	929.19
387.31	858.98
387.50	751.31
387.70	791.10
387.89	828.55
388.09	866.00
388.28	922.17
388.48	933.87
388.67	924.51
388.86	887.06
389.06	884.72
389.25	877.70
389.45	901.11
389.64	931.53
389.84	915.15
390.03	891.74
390.22	978.34
390.42	926.85
390.61	980.68
390.81	992.39
391.00	1001.75
391.19	1004.09
391.39	997.07
391.58	1036.86
391.78	1050.90
391.97	1071.97
392.16	976.00
392.36	1022.81
392.55	1067.28
392.75	1055.58
392.94	1032.18
393.13	1057.92
393.33	990.05
393.52	992.39
393.71	1100.05
393.91	1132.82
394.10	1032.18
394.29	1025.15
394.49	1008.77
394.68	1107.07
394.88	1104.73
395.07	1174.95
395.26	1128.14
395.46	1107.07
395.65	1121.12
395.84	1205.38
396.04	1231.12
396.23	1158.57
396.42	1196.01
396.62	1186.65
396.81	1179.63
397.00	1093.03
397.19	1217.08
397.39	1203.04
397.58	1219.42
397.77	1135.16
397.97	1273.25
398.16	1289.64
398.35	1299.00
398.55	1167.93
398.74	1282.61
398.93	1275.59
399.12	1228.78
399.32	1219.42
399.51	1352.83
399.70	1343.47
399.90	1310.70
400.09	1378.58
400.28	1348.15
400.47	1299.00
400.67	1331.76
400.86	1378.58
401.05	1380.92
401.24	1392.62
401.44	1409.00
401.63	1350.49
401.82	1411.34
402.01	1441.77
402.21	1483.90
402.40	1411.34
402.59	1455.81
402.78	1385.60
402.97	1472.20
403.17	1530.71
403.36	1565.82
403.55	1577.52
403.74	1535.39
403.93	1596.25
404.13	1666.46
404.32	1521.35
404.51	1638.38
404.70	1596.25
404.89	1551.78
405.09	1640.72
405.28	1633.69
405.47	1626.67
405.66	1664.12
405.85	1654.76
406.05	1640.72
406.24	1671.14
406.43	1724.97
406.62	1842.00
406.81	1804.55
407.00	1638.38
407.20	1732.00
407.39	1739.02
407.58	1799.87
407.77	1706.25
407.96	1825.62
408.15	1909.88
408.34	1837.32
408.54	1872.43
408.73	1970.73
408.92	1912.22
409.11	1863.07
409.30	1921.58
409.49	1870.09
409.68	2005.84
409.87	1933.28
410.07	1998.82
410.26	1907.54
410.45	2094.78
410.64	2019.88
410.83	2078.40
411.02	2092.44
411.21	2214.15
411.40	2172.02
411.59	2249.25
411.78	2106.48
411.98	2165.00
412.17	2204.78
412.36	2183.72
412.55	2239.89
412.74	2277.34
412.93	2352.24
413.12	2293.72
413.31	2333.51
413.50	2312.45
413.69	2333.51
413.88	2588.63
414.07	2375.64
414.26	2516.08
414.45	2427.14
414.64	2480.97
414.83	2502.03
415.02	2527.78
415.22	2448.20
415.41	2513.74
415.60	2576.93
415.79	2612.04
415.98	2635.44
416.17	2581.61
416.36	2700.98
416.55	2745.45
416.74	2731.41
416.93	2782.90
417.12	2813.32
417.31	2888.22
417.50	2794.60
417.69	2832.05
417.88	2834.39
418.07	2853.11
418.26	2888.22
418.45	2871.84
418.64	2946.73
418.83	2890.56
419.02	3005.25
419.21	2986.52
419.39	3019.29
419.58	2988.86
419.77	3026.31
419.96	3080.14
420.15	3157.38
420.34	2988.86
420.53	3101.21
420.72	3141.00
420.91	3197.17
421.10	3225.26
421.29	3262.71
421.48	3269.73
421.67	3117.59
421.86	3169.09
422.05	3201.85
422.24	3141.00
422.43	3243.98
422.61	3353.99
422.80	3211.22
422.99	3456.97
423.18	3279.09
423.37	3428.88
423.56	3424.20
423.75	3286.11
423.94	3232.28
424.13	2970.14
424.32	3152.70
424.50	3346.97
424.69	3552.93
424.88	3456.97
425.07	3276.75
425.26	3286.11
425.45	3211.22
425.64	3318.88
425.83	3438.25
426.01	3412.50
426.20	3220.58
426.39	3426.54
426.58	3356.33
426.77	3365.69
426.96	3389.10
427.15	3386.76
427.33	3391.44
427.52	3435.91
427.71	3590.38
427.90	3482.72
428.09	3562.30
428.28	3492.08
428.46	3623.15
428.65	3611.45
428.84	3726.13
429.03	3667.62
429.22	3529.53
429.40	3691.02
429.59	3775.28
429.78	3630.17
429.97	3435.91
430.16	3611.45
430.34	3758.90
430.53	3838.48
430.72	3817.41
430.91	3721.45
431.10	3646.55
431.28	3803.37
431.47	3896.99
431.66	3843.16
431.85	3948.48
432.03	4065.51
432.22	3927.42
432.41	3896.99
432.60	3967.21
432.79	4124.02
432.97	4074.87
433.16	4060.83
433.35	4135.73
433.54	3913.38
433.72	4088.92
433.91	4208.28
434.10	4166.15
434.28	4093.60
434.47	4133.39
434.66	4084.23
434.85	4161.47
435.03	4337.01
435.22	4227.01
435.41	4245.73
435.59	4227.01
435.78	4278.50
435.97	4243.39
436.16	4294.88
436.34	4257.43
436.53	4337.01
436.72	4507.87
436.90	4334.67
437.09	4435.32
437.28	4409.57
437.46	4479.79
437.65	4498.51
437.84	4510.21
438.02	4533.62
438.21	4526.60
438.40	4358.08
438.58	4709.16
438.77	4622.56
438.96	4535.96
439.14	4706.82
439.33	4931.51
439.52	4884.70
439.70	4849.59
439.89	4978.32
440.08	4936.19
440.26	4929.17
440.45	4870.65
440.63	5057.90
440.82	5011.09
441.01	5029.81
441.19	5046.20
441.38	5184.29
441.57	5006.41
441.75	5163.22
441.94	5263.86
442.12	5233.44
442.31	5198.33
442.50	5348.12
442.68	5252.16
442.87	5296.63
443.05	5310.68
443.24	5371.53
443.43	5305.99
443.61	5408.98
443.80	5462.81
443.98	5359.83
444.17	5191.31
444.35	5502.60
444.54	5472.17
444.73	5509.62
444.91	5488.56
445.10	5610.26
445.28	5509.62
445.47	5434.72
445.65	5446.43
445.84	5682.82
446.02	5558.77
446.21	5486.22
446.39	5584.52
446.58	5661.76
446.77	5633.67
446.95	5483.88
447.14	5404.30
447.32	5603.24
447.51	5465.15
447.69	5572.82
447.88	5593.88
448.06	5605.58
448.25	5589.20
448.43	5738.99
448.62	5507.28
448.80	5654.73
448.99	5797.51
449.17	5628.99
449.36	5757.72
449.54	5893.47
449.73	5678.14
449.91	6029.22
450.10	5914.53
450.28	5984.75
450.46	6115.82
450.65	5893.47
450.83	5907.51
451.02	5879.43
451.20	6169.65
451.39	6157.95
451.57	6033.90
451.76	5912.19
451.94	6008.16
452.13	6087.73
452.31	6101.78
452.49	6059.65
452.68	6207.10
452.86	6176.67
453.05	6244.55
453.23	6242.21
453.42	6118.16
453.60	6090.07
453.78	6239.87
453.97	6244.55
454.15	6265.61
454.34	6207.10
454.52	6242.21
454.70	6429.45
454.89	6415.41
455.07	6420.09
455.26	6572.22
455.44	6499.67
455.62	6459.88
455.81	6459.88
455.99	6551.16
456.17	6675.21
456.36	6527.75
456.54	6532.44
456.73	6839.05
456.91	6750.10
457.09	7087.14
457.28	6883.52
457.46	6864.79
457.64	6899.90
457.83	6806.28
458.01	6731.38
458.19	6977.14
458.38	6927.99
458.56	6942.03
458.74	7030.97
458.93	6967.77
459.11	6977.14
459.29	7002.88
459.48	7232.26
459.66	7124.59
459.84	7269.70
460.03	7297.79
460.21	7183.10
460.39	7119.91
460.57	7155.02
460.76	7314.17
460.94	7243.96
461.12	7300.13
461.31	7211.19
461.49	7236.94
461.67	7279.07
461.85	7431.20
462.04	7501.42
462.22	7857.18
462.40	7632.49
462.59	7445.24
462.77	7410.14
462.95	7702.70
463.13	7583.34
463.32	7756.54
463.50	7548.23
463.68	7674.62
463.86	7749.51
464.05	7688.66
464.23	7777.60
464.41	7566.95
464.59	7669.94
464.78	7875.90
464.96	7913.35
465.14	7737.81
465.32	8056.12
465.50	7845.48
465.69	7911.01
465.87	7925.05
466.05	7882.92
466.23	7911.01
466.41	7728.45
466.60	8098.25
466.78	7922.71
466.96	8114.64
467.14	7894.63
467.32	8021.02
467.51	8109.96
467.69	7885.26
467.87	8102.93
468.05	8248.05
468.23	8269.11
468.41	8222.30
468.60	8177.83
468.78	8276.13
468.96	8322.94
469.14	8259.75
469.32	8435.29
469.50	8294.86
469.69	8421.25
469.87	8545.30
470.05	8505.51
470.23	8542.96
470.41	8439.97
470.59	8695.09
470.77	8723.18
470.95	8538.27
471.14	8891.70
471.32	8414.23
471.50	8734.88
471.68	8767.65
471.86	8788.71
472.04	8828.50
472.22	9102.34
472.40	8861.27
472.58	9011.06
472.77	9046.17
472.95	9142.13
473.13	9460.45
473.31	8964.25
473.49	9235.75
473.67	9291.93
473.85	9167.88
474.03	9563.43
474.21	9317.67
474.39	9507.26
474.57	9682.80
474.75	9523.64
474.93	9687.48
475.12	9666.41
475.30	9811.53
475.48	9891.10
475.66	9724.93
475.84	9755.35
476.02	9860.68
476.20	10200.05
476.38	10078.35
476.56	10499.64
476.74	10296.02
476.92	10319.42
477.10	10366.23
477.28	10307.72
477.46	10391.98
477.64	10399.00
477.82	10628.37
478.00	10801.57
478.18	10958.39
478.36	10860.09
478.54	10932.64
478.72	11061.37
478.90	11166.70
479.08	11187.76
479.26	11391.39
479.44	11424.15
479.62	11508.41
479.80	11707.36
479.98	11501.39
480.16	12091.21
480.34	11927.37
480.52	11845.45
480.70	11922.69
480.88	11859.49
481.06	11908.65
481.24	12100.57
481.41	12311.22
481.59	12549.95
481.77	12435.27
481.95	12564.00
482.13	12786.35
482.31	12666.98
482.49	13004.02
482.67	12659.96
482.85	13172.54
483.03	13462.76
483.21	13114.02
483.39	13329.35
483.57	13490.85
483.74	13509.57
483.92	13788.10
484.10	13467.44
484.28	13898.10
484.46	14043.21
484.64	14260.88
484.82	14295.99
485.00	14136.84
485.18	14420.04
485.35	14455.15
485.53	14539.41
485.71	14586.22
485.89	14899.85
486.07	14672.82
486.25	15068.37
486.43	15300.08
486.61	15337.53
486.78	15232.21
486.96	15536.48
487.14	15679.25
487.32	15726.06
487.50	15768.19
487.68	15857.13
487.85	16058.42
488.03	16325.24
488.21	16924.41
488.39	16409.50
488.57	16245.66
488.75	16823.77
488.92	16901.01
489.10	16765.26
489.28	16987.61
489.46	17532.95
489.64	17301.24
489.81	17334.01
489.99	17802.11
490.17	17619.55
490.35	17944.89
490.53	18108.72
490.70	17912.12
490.88	18143.83
491.06	18443.42
491.24	18225.75
491.41	18232.77
491.59	18939.62
491.77	18724.29
491.95	19063.66
492.13	18871.74
492.30	19000.47
492.48	19129.20
492.66	19307.08
492.84	19300.06
493.01	19772.85
493.19	19686.25
493.37	19405.38
493.54	19747.10
493.72	20013.92
493.90	20154.35
494.08	20400.11
494.25	20030.30
494.43	20329.89
494.61	20648.21
494.79	20702.04
494.96	20762.89
495.14	20954.82
495.32	21083.55
495.49	20896.30
495.67	20950.14
495.85	21298.88
496.02	21333.98
496.20	21649.96
496.38	21802.09
496.55	22022.10
496.73	22202.32
496.91	21923.80
497.09	22045.51
497.26	22331.05
497.44	22235.09
497.62	22607.23
497.79	22677.45
497.97	22785.12
498.14	22682.13
498.32	23007.47
498.50	23056.62
498.67	23019.17
498.85	23021.51
499.03	23262.58
499.20	23154.92
499.38	23290.67
499.56	23587.92
499.73	23960.06
499.91	23704.95
500.08	24095.82
500.26	23885.17
500.44	24025.60
500.61	24063.05
500.79	24025.60
500.97	24266.67
501.14	24669.25
501.32	24690.31
501.49	24496.05
501.67	24589.67
501.84	24917.34
502.02	24573.28
502.20	24861.17
502.37	24915.00
502.55	24968.84
502.72	25315.23
502.90	25181.82
503.07	24980.54
503.25	25120.97
503.43	25109.27
503.60	25598.44
503.78	25493.12
503.95	25853.56
504.13	25745.89
504.30	26094.63
504.48	25942.50
504.65	26003.35
504.83	26057.18
505.01	26267.83
505.18	26419.97
505.36	26307.62
505.53	26223.36
505.71	26396.56
505.88	26867.01
506.06	26691.47
506.23	26855.31
506.41	26916.16
506.58	27222.77
506.76	26951.27
506.93	27246.18
507.11	26869.35
507.28	27402.99
507.46	27246.18
507.63	27417.04
507.81	27639.39
507.98	27515.34
508.16	27866.42
508.33	27835.99
508.50	27962.38
508.68	28046.64
508.85	28371.97
509.03	28025.57
509.20	28409.42
509.38	28404.74
509.55	28222.18
509.73	28446.87
509.90	28741.78
510.08	28837.74
510.25	28687.95
510.42	28507.72
510.60	28872.85
510.77	28922.00
510.95	29172.44
511.12	29247.33
511.30	29312.87
511.47	29109.24
511.64	29020.30
511.82	29490.75
511.99	29509.47
512.17	29324.57
512.34	29827.79
512.51	29816.08
512.69	30103.97
512.86	29930.77
513.04	29979.92
513.21	30015.03
513.38	30068.86
513.56	30405.90
513.73	29848.85
513.90	30279.51
514.08	30216.32
514.25	30202.27
514.43	31035.50
514.60	30876.35
514.77	30483.14
514.95	31295.30
515.12	30593.14
515.29	30810.81
515.47	30934.86
515.64	31131.47
515.81	30654.00
515.99	31332.75
516.16	31494.25
516.33	31367.86
516.51	31786.82
516.68	31747.03
516.85	31065.93
517.03	31328.07
517.20	31882.78
517.37	31665.11
517.54	31892.14
517.72	31922.57
517.89	32081.72
518.06	32205.77
518.24	32077.04
518.41	31842.99
518.58	32339.18
518.75	31861.71
518.93	32374.29
519.10	32503.02
519.27	32397.70
519.45	32407.06
519.62	32762.82
519.79	33261.35
519.96	32751.12
520.14	33120.92
520.31	32865.80
520.48	32921.98
520.65	33233.27
520.83	33434.55
521.00	33376.04
521.17	33186.46
521.34	33221.56
521.52	33490.73
521.69	33640.52
521.86	33666.27
522.03	33385.40
522.20	34017.35
522.38	34155.44
522.55	34209.27
522.72	34085.22
522.89	34333.32
523.07	34504.18
523.24	34092.24
523.41	34473.75
523.58	34038.41
523.75	34485.45
523.92	34504.18
524.10	34646.95
524.27	34864.62
524.44	34543.97
524.61	34883.34
524.78	34401.19
524.96	35075.27
525.13	34976.97
525.30	35353.79
525.47	35374.86
525.64	34890.37
525.81	35084.63
525.98	35304.64
526.16	35154.85
526.33	35459.12
526.50	35545.72
526.67	35044.84
526.84	35426.35
527.01	35264.85
527.18	35894.46
527.36	35892.12
527.53	35529.33
527.70	35646.36
527.87	35999.78
528.04	35564.44
528.21	35917.86
528.38	35700.19
528.55	36177.66
528.72	36168.30
528.89	36519.38
529.07	36212.77
529.24	36100.42
529.41	36624.70
529.58	36392.99
529.75	36510.02
529.92	36521.72
530.09	36692.58
530.26	36437.46
530.43	36596.62
530.60	36329.80
530.77	36601.30
530.94	36596.62
531.11	36739.39
531.28	36959.40
531.46	36919.61
531.63	36938.33
531.80	37097.49
531.97	37212.18
532.14	37399.42
532.31	37247.29
532.48	37521.13
532.65	37268.35
532.82	37174.73
532.99	37031.96
533.16	37151.32
533.33	37656.88
533.50	37457.93
533.67	37743.48
533.84	37537.51
534.01	37673.26
534.18	38127.33
534.35	38108.60
534.52	38087.54
534.69	38160.09
534.86	37970.51
535.03	38087.54
535.20	38005.62
535.37	38237.33
535.54	38157.75
535.71	38424.57
535.88	38766.29
536.05	38335.63
536.22	38850.55
536.38	38277.12
536.55	38117.96
536.72	38518.20
536.89	38801.40
537.06	38773.31
537.23	38974.60
537.40	38635.22
537.57	38576.71
537.74	38824.81
537.91	38817.78
538.08	38778.00
538.25	38885.66
538.42	38780.34
538.59	39379.51
538.75	39061.20
538.92	39318.66
539.09	39426.32
539.26	39131.42
539.43	39180.57
539.60	39491.86
539.77	39463.77
539.94	39477.82
540.11	39512.92
540.28	39426.32
540.44	39461.43
540.61	39922.52
540.78	39585.48
540.95	39564.42
541.12	39651.02
541.29	39861.66
541.46	39765.70
541.62	40156.57
541.79	39908.47
541.96	39927.20
542.13	39641.65
542.30	40098.06
542.47	40196.36
542.63	40215.08
542.80	40769.79
542.97	40549.78
543.14	40596.59
543.31	40612.98
543.48	40381.26
543.64	41256.62
543.81	40725.32
543.98	40837.67
544.15	40809.58
544.32	41387.69
544.48	41308.11
544.65	40854.05
544.82	41373.65
544.99	41195.77
545.16	41104.49
545.32	41036.61
545.49	41698.98
545.66	41703.67
545.83	41247.26
546.00	41394.71
546.16	41530.47
546.33	41425.14
546.50	40917.25
546.67	41549.19
546.83	41050.66
547.00	41308.11
547.17	41106.83
547.34	41574.94
547.50	41729.41
547.67	41750.48
547.84	41916.65
548.00	42148.37
548.17	42272.42
548.34	41787.92
548.51	42096.88
548.67	42295.82
548.84	42127.30
549.01	41574.94
549.18	41794.95
549.34	42457.32
549.51	42272.42
549.68	42265.39
549.84	42136.66
550.01	42335.61
550.18	41841.76
550.34	41933.04
550.51	42471.36
550.68	42497.11
550.84	42300.50
551.01	42651.58
551.18	42223.26
551.34	42120.28
551.51	42850.53
551.68	42497.11
551.84	42078.15
552.01	42895.00
552.18	42696.05
552.34	42712.44
552.51	43154.80
552.68	42794.36
552.84	42897.34
553.01	42799.04
553.18	42831.80
553.34	43042.45
553.51	43185.22
553.67	43367.79
553.84	43271.82
554.01	43005.00
554.17	43147.78
554.34	43335.02
554.51	43063.52
554.67	43070.54
554.84	43445.02
555.00	43196.93
555.17	43304.59
555.33	43728.23
555.50	43281.19
555.67	43688.44
555.83	43435.66
556.00	43660.35
556.16	44144.84
556.33	43845.26
556.50	43700.14
556.66	43412.26
556.83	43185.22
556.99	43676.74
557.16	43962.28
557.32	43751.63
557.49	44182.29
557.65	43646.31
557.82	43555.03
557.98	43941.22
558.15	43922.49
558.32	44018.46
558.48	43882.70
558.65	43908.45
558.81	43922.49
558.98	43746.95
559.14	43927.17
559.31	43910.79
559.47	44299.32
559.64	44208.04
559.80	43959.94
559.97	44268.89
560.13	43796.10
560.30	44301.66
560.46	44219.74
560.63	44313.36
560.79	44563.80
560.96	44861.05
561.12	44233.78
561.29	44608.27
561.45	44446.77
561.61	44381.24
561.78	44041.86
561.94	44570.82
562.11	44589.55
562.27	44301.66
562.44	44261.87
562.60	44598.91
562.77	44931.26
562.93	44594.23
563.10	44884.45
563.26	44292.30
563.42	44982.76
563.59	44205.70
563.75	44823.60
563.92	44568.48
564.08	44870.41
564.24	44744.02
564.41	44762.75
564.57	44776.79
564.74	44832.96
564.90	44837.64
565.07	44708.91
565.23	44685.51
565.39	44964.03
565.56	44994.46
565.72	44737.00
565.88	45071.70
566.05	44928.92
566.21	44680.83
566.38	45165.32
566.54	44893.82
566.70	45404.05
566.87	45265.96
567.03	45193.40
567.19	45188.72
567.36	44868.07
567.52	45214.47
567.68	45408.73
567.85	45153.62
568.01	45228.51
568.17	44821.26
568.34	45326.81
568.50	45258.94
568.66	44935.95
568.83	45357.24
568.99	45111.49
569.15	44825.94
569.32	45097.44
569.48	44999.14
569.64	45497.67
569.81	45780.88
569.97	45127.87
570.13	45443.84
570.30	45153.62
570.46	45457.88
570.62	45713.00
570.78	45481.29
570.95	45062.33
571.11	45787.90
571.27	45106.80
571.43	45045.95
571.60	45340.86
571.76	45191.06
571.92	45036.59
572.09	45399.37
572.25	45275.32
572.41	45539.80
572.57	45347.88
572.74	45820.67
572.90	45359.58
573.06	45743.43
573.22	45853.44
573.38	45656.83
573.55	45298.73
573.71	45893.22
573.87	45469.59
574.03	45666.19
574.20	45759.81
574.36	45675.55
574.52	45556.19
574.68	45404.05
574.84	45820.67
575.01	46010.25
575.17	45813.65
575.33	45886.20
575.49	45308.09
575.65	45633.42
575.82	46017.27
575.98	45544.48
576.14	45972.80
576.30	46155.36
576.46	45923.65
576.62	45544.48
576.79	45478.95
576.95	45989.19
577.11	45858.12
577.27	45729.39
577.43	45296.39
577.59	45830.03
577.75	45567.89
577.92	45696.62
578.08	45659.17
578.24	46094.51
578.40	46003.23
578.56	45949.40
578.72	45914.29
578.88	45954.08
579.04	45961.10
579.21	45617.04
579.37	46043.02
579.53	45902.59
579.69	45736.41
579.85	45397.03
580.01	46005.57
580.17	45986.85
580.33	46108.55
580.49	46160.05
580.65	46199.83
580.82	46410.48
580.98	45495.33
581.14	45851.09
581.30	46490.06
581.46	45624.06
581.62	45886.20
581.78	45631.08
581.94	45904.93
582.10	45893.22
582.26	46354.31
582.42	46246.65
582.58	46316.86
582.74	46286.43
582.90	46171.75
583.06	46391.76
583.22	45907.27
583.38	45935.35
583.54	46103.87
583.70	45918.97
583.86	46274.73
584.02	45764.49
584.18	46178.77
584.34	46031.32
584.50	46574.32
584.66	46433.89
584.82	46326.22
584.98	46560.28
585.14	45956.42
585.30	46307.50
585.46	45951.74
585.62	46017.27
585.78	46075.79
585.94	45874.50
586.10	46164.73
586.26	46216.22
586.42	46160.05
586.58	46038.34
586.74	46040.68
586.90	45862.80
587.06	46050.04
587.22	46499.42
587.38	46038.34
587.54	46017.27
587.70	46351.97
587.86	46052.38
588.02	46066.42
588.18	46117.92
588.34	46202.18
588.49	46279.41
588.65	46120.26
588.81	46429.21
588.97	46078.13
589.13	46251.33
589.29	46274.73
589.45	46426.87
589.61	46291.12
589.77	46653.90
589.93	46251.33
590.08	46848.16
590.24	46824.76
590.40	46897.31
590.56	46747.52
590.72	46344.95
590.88	46103.87
591.04	46384.74
591.20	46546.23
591.35	46822.42
591.51	46897.31
591.67	46527.51
591.83	46845.82
591.99	46899.65
592.15	46557.94
592.31	46859.87
592.46	46564.96
592.62	46740.50
592.78	46555.60
592.94	46806.03
593.10	47072.85
593.26	46843.48
593.41	47119.66
593.57	46389.42
593.73	46906.68
593.89	47037.75
594.05	46717.09
594.20	46843.48
594.36	46939.44
594.52	47276.48
594.68	46777.95
594.84	46885.61
594.99	46880.93
595.15	47126.69
595.31	46656.24
595.47	46604.75
595.62	46892.63
595.78	46543.89
595.94	47304.57
596.10	46787.31
596.25	47054.13
596.41	46707.73
596.57	46747.52
596.73	46801.35
596.88	46784.97
597.04	46927.74
597.20	46993.28
597.36	46852.84
597.51	47133.71
597.67	46932.42
597.83	46639.86
597.99	47126.69
598.14	46768.58
598.30	46972.21
598.46	46672.62
598.61	47363.08
598.77	47334.99
598.93	47269.46
599.09	47019.02
599.24	47342.02
599.40	46972.21
599.56	46997.96
599.71	47306.91
599.87	47725.86
600.03	47255.42
600.18	47222.65
600.34	47267.12
600.50	46930.08
600.65	47058.81
600.81	47601.82
600.97	47590.11
601.12	46965.19
601.28	47199.24
601.44	47112.64
601.59	47072.85
601.75	47129.03
601.91	47400.53
602.06	47299.89
602.22	47299.89
602.37	46836.46
602.53	47093.92
602.69	47075.19
602.84	47421.59
603.00	47292.86
603.16	46761.56
603.31	47201.58
603.47	47395.85
603.62	46892.63
603.78	47107.96
603.94	46794.33
604.09	47004.98
604.25	46925.40
604.40	47042.43
604.56	46988.60
604.71	47192.22
604.87	47143.07
605.03	46515.81
605.18	46855.18
605.34	47035.41
605.49	46728.80
605.65	47096.26
605.80	46768.58
605.96	46663.26
606.12	46859.87
606.27	46630.49
606.43	46890.29
606.58	46756.88
606.74	46869.23
606.89	47061.15
607.05	47220.31
607.20	46806.03
607.36	46859.87
607.51	46927.74
607.67	46665.60
607.82	46796.67
607.98	47112.64
608.13	46852.84
608.29	46618.79
608.44	46951.15
608.60	46815.40
608.75	46923.06
608.91	46763.90
609.06	46646.88
609.22	47051.79
609.37	46382.40
609.53	46838.80
609.68	46787.31
609.84	46576.66
609.99	46667.94
610.15	47075.19
610.30	47157.11
610.46	46312.18
610.61	46508.79
610.76	47077.54
610.92	46791.99
611.07	46733.48
611.23	46440.91
611.38	46506.44
611.54	46445.59
611.69	46579.00
611.84	46710.07
612.00	46649.22
612.15	46550.91
612.31	46539.21
612.46	46185.79
612.62	46452.61
612.77	46384.74
612.92	46986.25
613.08	46146.00
613.23	46880.93
613.39	46403.46
613.54	46326.22
613.69	46965.19
613.85	46246.65
614.00	46326.22
614.15	46820.08
614.31	46138.98
614.46	46490.06
614.62	45801.94
614.77	46567.30
614.92	46380.06
615.08	46099.19
615.23	46286.43
615.38	46445.59
615.54	46068.76
615.69	46546.23
615.84	45942.38
616.00	46349.63
616.15	46218.56
616.30	46382.40
616.46	46340.27
616.61	46122.60
616.76	46071.10
616.92	45982.16
617.07	46279.41
617.22	46323.88
617.37	45757.47
617.53	46344.95
617.68	45949.40
617.83	45797.26
617.99	46469.00
618.14	46270.05
618.29	45893.22
618.45	45586.61
618.60	45610.02
618.75	45911.95
618.90	46059.40
619.06	45518.74
619.21	45923.65
619.36	45743.43
619.51	45647.47
619.67	45680.24
619.82	45649.81
619.97	45965.78
620.12	45900.25
620.28	45701.30
620.43	46216.22
620.58	45738.75
620.73	45661.51
620.89	46036.00
621.04	45872.16
621.19	45631.08
621.34	45722.37
621.49	45656.83
621.65	45303.41
621.80	45879.18
621.95	44999.14
622.10	45558.53
622.25	45130.21
622.41	45354.90
622.56	45289.37
622.71	45177.02
622.86	45638.11
623.01	45579.59
623.16	45219.15
623.32	45198.09
623.47	45654.49
623.62	45184.04
623.77	45364.26
623.92	45544.48
624.07	45352.56
624.23	45155.96
624.38	45691.94
624.53	45013.18
624.68	44774.45
624.83	45130.21
624.98	45514.06
625.13	44872.75
625.29	45118.51
625.44	44748.70
625.59	45240.21
625.74	44825.94
625.89	44788.49
626.04	44954.67
626.19	44863.39
626.34	44971.05
626.49	44280.60
626.65	44528.69
626.80	44767.43
626.95	44329.75
627.10	44652.74
627.25	44472.52
627.40	44725.30
627.55	44603.59
627.70	44416.35
627.85	44617.63
628.00	44776.79
628.15	44957.01
628.30	44116.76
628.45	44051.22
628.60	43952.92
628.76	44278.25
628.91	44217.40
629.06	44051.22
629.21	44460.82
629.36	44184.63
629.51	44374.22
629.66	44437.41
629.81	44266.55
629.96	44404.64
630.11	44474.86
630.26	44446.77
630.41	44196.34
630.56	43957.60
630.71	44332.09
630.86	43943.56
631.01	44044.20
631.16	43791.42
631.31	44011.43
631.46	44133.14
631.61	43892.07
631.76	43927.17
631.91	44259.53
632.06	44037.18
632.21	43920.15
632.36	44093.35
632.51	43655.67
632.66	43924.83
632.81	43913.13
632.96	44055.90
633.10	43697.80
633.25	43695.46
633.40	43608.86
633.55	44219.74
633.70	43739.93
633.85	43693.12
634.00	43356.08
634.15	43824.19
634.30	43360.76
634.45	43220.33
634.60	43466.09
634.75	43690.78
634.90	43845.26
635.05	43711.84
635.19	43648.65
635.34	43494.18
635.49	43323.32
635.64	43047.13
635.79	43573.75
635.94	43484.81
636.09	43676.74
636.24	43054.15
636.39	43311.61
636.53	43166.50
636.68	43035.43
636.83	42951.17
636.98	42904.36
637.13	42534.56
637.28	42492.43
637.43	43260.12
637.57	43178.20
637.72	42511.15
637.87	42761.59
638.02	43236.72
638.17	42902.02
638.32	42920.74
638.46	42422.21
638.61	42911.38
638.76	42981.60
638.91	42890.32
639.06	42546.26
639.20	42190.50
639.35	42742.86
639.50	42447.96
639.65	42873.93
639.80	42593.07
639.94	42696.05
640.09	42459.66
640.24	42852.87
640.39	42349.65
640.54	42099.22
640.68	42373.06
640.83	42412.85
640.98	42071.13
641.13	42447.96
641.27	42749.88
641.42	42291.14
641.57	42632.86
641.72	42291.14
641.86	42050.06
642.01	42047.72
642.16	42443.27
642.31	41647.49
642.45	42188.16
642.60	41790.27
642.75	42492.43
642.90	42223.26
643.04	42628.18
643.19	41818.35
643.34	41771.54
643.48	41567.91
643.63	41273.01
643.78	41574.94
643.93	42129.64
644.07	42199.86
644.22	42263.05
644.37	41806.65
644.51	41984.53
644.66	41717.71
644.81	41607.70
644.95	41897.93
645.10	42092.19
645.25	41872.18
645.39	41621.75
645.54	41565.57
645.69	41261.30
645.83	41174.70
645.98	41315.14
646.13	41024.91
646.27	41420.46
646.42	41298.75
646.57	41769.20
646.71	41448.55
646.86	41808.99
647.00	41584.30
647.15	41406.42
647.30	41574.94
647.44	41258.96
647.59	41144.28
647.74	40980.44
647.88	41743.45
648.03	41144.28
648.17	41855.80
648.32	40715.96
648.47	41792.61
648.61	40898.52
648.76	41418.12
648.90	40776.81
649.05	41368.97
649.20	41179.39
649.34	41516.42
649.49	41350.24
649.63	41621.75
649.78	41375.99
649.92	41200.45
650.07	41713.03
650.21	41495.36
650.36	41380.67
650.51	40832.99
650.65	41123.21
650.80	40987.46
650.94	41038.95
651.09	41006.19
651.23	40437.44
651.38	40301.68
651.52	40463.18
651.67	40470.20
651.81	40994.48
651.96	40739.36
652.10	40346.15
652.25	40299.34
652.39	40545.10
652.54	40690.21
652.68	40889.16
652.83	40137.85
652.97	40793.20
653.12	40538.08
653.26	40098.06
653.41	40767.45
653.55	40315.73
653.70	40788.52
653.84	40521.69
653.99	40634.04
654.13	40315.73
654.27	40327.43
654.42	40172.96
654.56	40240.83
654.71	40259.55
654.85	40126.14
655.00	40741.71
655.14	40189.34
655.29	40542.76
655.43	40430.41
655.57	39489.52
655.72	39812.51
655.86	39997.41
656.01	40002.10
656.15	40219.77
656.30	39915.50
656.44	40112.10
656.58	40095.72
656.73	40105.08
656.87	39206.31
657.01	39541.01
657.16	39840.60
657.30	39997.41
657.45	39805.49
657.59	39725.91
657.73	39634.63
657.88	39533.99
658.02	39803.15
658.16	39648.68
658.31	39503.56
658.45	39770.38
658.60	39136.10
658.74	39297.59
658.88	39433.35
659.03	39503.56
659.17	39159.50
659.31	38869.28
659.46	39040.14
659.60	39220.36
659.74	39328.02
659.89	38983.96
660.03	38618.84
660.17	38972.26
660.32	38789.70
660.46	38855.23
660.60	38394.15
660.74	38707.78
660.89	38899.70
661.03	38286.48
661.17	38501.81
661.32	38813.10
661.46	38476.07
661.60	38483.09
661.74	38742.89
661.89	38562.67
662.03	38337.98
662.17	38073.49
662.31	38237.33
662.46	38288.82
662.60	37818.38
662.74	37687.31
662.88	37748.16
663.03	37645.18
663.17	37706.03
663.31	37268.35
663.45	37823.06
663.60	37769.22
663.74	38171.80
663.88	37450.91
664.02	37450.91
664.17	37600.71
664.31	37670.92
664.45	37748.16
664.59	37551.56
664.73	37432.19
664.88	37479.00
665.02	36994.51
665.16	37448.57
665.30	37708.37
665.44	37083.45
665.59	36893.86
665.73	36900.89
665.87	36795.56
666.01	37024.93
666.15	36917.27
666.29	36514.70
666.44	37291.76
666.58	37116.22
666.72	36465.55
666.86	36793.22
667.00	36294.69
667.14	36332.14
667.28	36341.50
667.43	36608.32
667.57	36336.82
667.71	36123.83
667.85	36451.50
667.99	36343.84
668.13	36404.69
668.27	36100.42
668.41	35821.90
668.56	35461.46
668.70	35786.79
668.84	35676.79
668.98	35321.02
669.12	35805.52
669.26	35587.85
669.40	35374.86
669.54	35672.10
669.68	35480.18
669.82	35243.79
669.96	34632.91
670.10	35098.67
670.25	34852.92
670.39	34939.52
670.53	35030.80
670.67	34682.06
670.81	35119.74
670.95	35035.48
671.09	34412.90
671.23	34249.06
671.37	35042.50
671.51	34670.36
671.65	34588.44
671.79	34492.47
671.93	34862.28
672.07	34433.96
672.21	34658.65
672.35	33930.75
672.49	34375.45
672.63	34359.06
672.77	33998.62
672.91	34448.00
673.05	34015.01
673.19	33703.71
673.33	33736.48
673.47	33174.75
673.61	33305.82
673.75	33266.03
673.89	33090.49
674.03	33254.33
674.17	32994.53
674.31	33212.20
674.45	32861.12
674.59	32648.13
674.73	33006.23
674.87	32968.79
675.01	32849.42
675.15	32444.51
675.29	32535.79
675.43	32591.96
675.56	32547.49
675.70	32341.52
675.84	32128.53
675.98	31311.69
676.12	31962.36
676.26	32147.26
676.40	31922.57
676.54	31646.38
676.68	31763.41
676.82	31122.10
676.96	31711.92
677.10	31740.00
677.23	31304.67
677.37	31007.42
677.51	31339.77
677.65	31014.44
677.79	31201.68
677.93	30939.54
678.07	30712.51
678.21	30335.68
678.34	30483.14
678.48	30015.03
678.62	30419.94
678.76	30199.93
678.90	30279.51
679.04	29979.92
679.18	30256.11
679.31	29472.03
679.45	30052.48
679.59	29851.19
679.73	30101.63
679.87	29661.61
680.00	29778.64
680.14	29539.90
680.28	29415.85
680.42	29308.19
680.56	28926.68
680.70	29027.32
680.83	29106.90
680.97	28720.71
681.11	28975.83
681.25	28425.81
681.39	28709.01
681.52	28285.37
681.66	28381.34
681.80	28133.24
681.94	27749.39
682.07	27962.38
682.21	28065.36
682.35	28006.85
682.49	27985.79
682.62	27688.54
682.76	27606.62
682.90	27737.69
683.04	27646.41
683.17	27623.00
683.31	27161.92
683.45	27138.51
683.59	26480.82
683.72	26988.72
683.86	26913.82
684.00	26553.38
684.13	26579.12
684.27	26639.98
684.41	26368.48
684.55	26565.08
684.68	26064.21
684.82	26251.45
684.96	25956.54
685.09	26366.13
685.23	25954.20
685.37	26120.38
685.50	26492.52
685.64	25963.56
685.78	25769.30
685.91	25703.76
686.05	25429.92
686.19	25041.39
686.32	25198.21
686.46	24723.08
686.60	24830.74
686.73	24936.07
686.87	24573.28
687.01	25289.49
687.14	24741.80
687.28	24407.11
687.42	24364.98
687.55	24467.96
687.69	24147.31
687.82	24273.70
687.96	24402.43
688.10	24144.97
688.23	23903.89
688.37	24229.23
688.50	24168.37
688.64	24046.66
688.78	23569.19
688.91	23920.28
689.05	23850.06
689.18	23171.30
689.32	22614.26
689.46	22752.35
689.59	22993.42
689.73	23119.81
689.86	23527.06
690.00	22932.57
690.13	22867.03
690.27	22609.58
690.41	22534.68
690.54	22408.29
690.68	22251.47
690.81	22333.39
690.95	21851.24
691.08	21907.41
691.22	21799.75
691.35	22036.14
691.49	21774.00
691.62	21954.22
691.76	21537.61
691.89	21247.38
692.03	21371.43
692.16	20996.95
692.30	21153.76
692.43	21308.24
692.57	20884.60
692.70	21139.72
692.84	21018.01
692.97	20673.95
693.11	20664.59
693.24	20662.25
693.38	20500.75
693.51	20449.26
693.65	20512.46
693.78	20273.72
693.92	20081.80
694.05	20140.31
694.19	20049.03
694.32	20020.94
694.45	20067.75
694.59	19843.06
694.72	19536.45
694.86	19557.52
694.99	19143.24
695.13	19435.81
695.26	19201.76
695.39	18979.40
695.53	19288.35
695.66	19119.84
695.80	19000.47
695.93	18801.52
696.07	18874.08
696.20	18569.81
696.33	18405.97
696.47	18288.95
696.60	18298.31
696.73	18583.85
696.87	18625.98
697.00	18427.04
697.14	18132.13
697.27	18080.64
697.40	17900.42
697.54	17980.00
697.67	17820.84
697.80	17940.21
697.94	17408.90
698.07	17383.16
698.21	17542.32
698.34	17551.68
698.47	17177.19
698.61	17069.53
698.74	17029.74
698.87	17188.89
699.01	16893.99
699.14	16966.54
699.27	16849.52
699.40	16545.25
699.54	16573.33
699.67	16695.04
699.80	16704.40
699.94	16283.11
700.07	16482.05
700.20	16297.15
700.34	16238.64
700.47	16123.95
700.60	16514.82
700.73	16072.46
700.87	15887.56
701.00	15882.88
701.13	15590.31
701.26	15824.36
701.40	15667.55
701.53	15463.92
701.66	15419.45
701.79	15400.72
701.93	15087.09
702.06	14923.26
702.19	15044.96
702.32	15253.27
702.46	15206.46
702.59	15122.20
702.72	15119.86
702.85	15161.99
702.99	14909.21
703.12	14658.78
703.25	14846.02
703.38	14530.05
703.51	14223.44
703.65	14635.37
703.78	14256.20
703.91	13898.10
704.04	14106.41
704.17	14169.60
704.31	13898.10
704.44	13818.52
704.57	13767.03
704.70	13790.44
704.83	13659.37
704.96	13811.50
705.10	13472.12
705.23	13460.42
>>>>>End Processed Spectral Data<<<<<
