SpectraSuite Data File
++++++++++++++++++++++++++++++++++++
Date: Fri Oct 25 11:34:40 EDT 2013
User: price-jones
Dark Spectrum Present: No
Reference Spectrum Present: No
Number of Sampled Component Spectra: 1
Spectrometers: USB2+H05261
Integration Time (usec): 100000 (USB2+H05261)
Spectra Averaged: 1 (USB2+H05261)
Boxcar Smoothing: 0 (USB2+H05261)
Correct for Electrical Dark: No (USB2+H05261)
Strobe/Lamp Enabled: No (USB2+H05261)
Correct for Detector Non-linearity: No (USB2+H05261)
Correct for Stray Light: No (USB2+H05261)
Number of Pixels in Processed Spectrum: 2048
>>>>>Begin Processed Spectral Data<<<<<
365.73	231.71
365.92	231.71
366.12	231.71
366.32	205.97
366.52	163.84
366.72	210.65
366.91	114.69
367.11	236.39
367.31	145.11
367.51	203.63
367.70	149.79
367.90	168.52
368.10	147.45
368.30	191.92
368.49	194.26
368.69	255.12
368.89	212.99
369.09	159.16
369.28	250.44
369.48	191.92
369.68	245.76
369.87	276.18
370.07	269.16
370.27	278.52
370.47	337.04
370.66	491.51
370.86	535.98
371.06	533.64
371.25	573.43
371.45	507.90
371.65	498.53
371.84	543.00
372.04	559.39
372.24	613.22
372.44	510.24
372.63	608.54
372.83	561.73
373.03	587.47
373.22	596.84
373.42	587.47
373.62	608.54
373.81	540.66
374.01	624.92
374.21	688.12
374.40	674.07
374.60	669.39
374.79	615.56
374.99	662.37
375.19	716.20
375.38	671.73
375.58	685.78
375.78	702.16
375.97	657.69
376.17	767.70
376.37	622.58
376.56	657.69
376.76	620.24
376.95	592.16
377.15	662.37
377.35	692.80
377.54	674.07
377.74	690.46
377.93	690.46
378.13	734.93
378.33	683.44
378.52	737.27
378.72	706.84
378.91	734.93
379.11	636.63
379.31	709.18
379.50	653.01
379.70	615.56
379.89	713.86
380.09	711.52
380.28	697.48
380.48	767.70
380.68	678.76
380.87	711.52
381.07	702.16
381.26	744.29
381.46	798.12
381.65	748.97
381.85	763.01
382.04	713.86
382.24	786.42
382.43	744.29
382.63	732.59
382.83	774.72
383.02	767.70
383.22	753.65
383.41	814.51
383.61	758.33
383.80	828.55
384.00	786.42
384.19	765.36
384.39	851.96
384.58	779.40
384.78	854.30
384.97	809.83
385.17	793.44
385.36	741.95
385.56	786.42
385.75	704.50
385.95	763.01
386.14	873.02
386.34	875.36
386.53	830.89
386.72	821.53
386.92	826.21
387.11	863.66
387.31	830.89
387.50	863.66
387.70	877.70
387.89	826.21
388.09	870.68
388.28	828.55
388.48	800.46
388.67	912.81
388.86	849.61
389.06	952.60
389.25	947.92
389.45	851.96
389.64	887.06
389.84	973.66
390.03	959.62
390.22	940.90
390.42	947.92
390.61	887.06
390.81	856.64
391.00	983.02
391.19	999.41
391.39	999.41
391.58	961.96
391.78	926.85
391.97	983.02
392.16	1015.79
392.36	992.39
392.55	1057.92
392.75	997.07
392.94	999.41
393.13	1046.22
393.33	1004.09
393.52	1053.24
393.71	1086.01
393.91	1025.15
394.10	1076.65
394.29	1018.13
394.49	1025.15
394.68	1090.69
394.88	1057.92
395.07	1130.48
395.26	1109.41
395.46	1149.20
395.65	1109.41
395.84	1095.37
396.04	1170.27
396.23	1149.20
396.42	1221.76
396.62	1158.57
396.81	1193.67
397.00	1071.97
397.19	1228.78
397.39	1221.76
397.58	1196.01
397.77	1252.19
397.97	1174.95
398.16	1130.48
398.35	1282.61
398.55	1240.48
398.74	1160.91
398.93	1299.00
399.12	1249.85
399.32	1289.64
399.51	1174.95
399.70	1268.57
399.90	1287.29
400.09	1296.66
400.28	1310.70
400.47	1291.98
400.67	1451.13
400.86	1355.17
401.05	1348.15
401.24	1359.85
401.44	1252.19
401.63	1430.07
401.82	1380.92
402.01	1390.28
402.21	1458.15
402.40	1521.35
402.59	1465.18
402.78	1432.41
402.97	1432.41
403.17	1444.11
403.36	1458.15
403.55	1383.26
403.74	1542.41
403.93	1462.83
404.13	1572.84
404.32	1537.73
404.51	1561.14
404.70	1582.20
404.89	1540.07
405.09	1554.12
405.28	1572.84
405.47	1657.10
405.66	1565.82
405.85	1544.75
406.05	1638.38
406.24	1610.29
406.43	1673.48
406.62	1898.17
406.81	1781.15
407.00	1666.46
407.20	1734.34
407.39	1671.14
407.58	1795.19
407.77	1762.42
407.96	1736.68
408.15	1860.73
408.34	1820.94
408.54	1797.53
408.73	1881.79
408.92	1827.96
409.11	1860.73
409.30	1827.96
409.49	1888.81
409.68	1771.79
409.87	1851.36
410.07	1940.30
410.26	1914.56
410.45	1963.71
410.64	1954.35
410.83	2118.18
411.02	2090.10
411.21	1982.43
411.40	1984.77
411.59	2193.08
411.78	2132.23
411.98	2129.89
412.17	2132.23
412.36	2242.23
412.55	2221.17
412.74	2275.00
412.93	2221.17
413.12	2263.30
413.31	2307.77
413.50	2291.38
413.69	2289.04
413.88	2345.22
414.07	2438.84
414.26	2415.43
414.45	2363.94
414.64	2436.50
414.83	2436.50
415.02	2546.50
415.22	2471.61
415.41	2562.89
415.60	2490.33
415.79	2513.74
415.98	2567.57
416.17	2579.27
416.36	2539.48
416.55	2658.85
416.74	2738.43
416.93	2506.71
417.12	2630.76
417.31	2818.00
417.50	2726.72
417.69	2803.96
417.88	2869.50
418.07	2675.23
418.26	2782.90
418.45	2860.13
418.64	2939.71
418.83	2913.97
419.02	2850.77
419.21	2883.54
419.39	2977.16
419.58	3045.04
419.77	2881.20
419.96	3030.99
420.15	2951.42
420.34	3007.59
420.53	3094.19
420.72	3171.43
420.91	3035.67
421.10	3131.64
421.29	3056.74
421.48	3028.65
421.67	3248.66
421.86	3148.02
422.05	3150.36
422.24	3119.93
422.43	3234.62
422.61	3222.92
422.80	3283.77
422.99	3220.58
423.18	3332.92
423.37	3393.78
423.56	3318.88
423.75	3255.69
423.94	3211.22
424.13	2993.55
424.32	3016.95
424.50	3382.07
424.69	3309.52
424.88	3255.69
425.07	3218.24
425.26	3194.83
425.45	3260.37
425.64	3260.37
425.83	3246.32
426.01	3314.20
426.20	3309.52
426.39	3349.31
426.58	3330.58
426.77	3255.69
426.96	3365.69
427.15	3295.47
427.33	3328.24
427.52	3311.86
427.71	3353.99
427.90	3452.29
428.09	3316.54
428.28	3522.51
428.46	3468.67
428.65	3569.32
428.84	3660.60
429.03	3789.33
429.22	3454.63
429.40	3555.27
429.59	3590.38
429.78	3463.99
429.97	3543.57
430.16	3691.02
430.34	3574.00
430.53	3695.71
430.72	3770.60
430.91	3627.83
431.10	3707.41
431.28	3740.18
431.47	3770.60
431.66	3838.48
431.85	3794.01
432.03	3852.52
432.22	3878.27
432.41	3969.55
432.60	3836.14
432.79	3904.01
432.97	3784.65
433.16	3950.82
433.35	3794.01
433.54	4067.85
433.72	4084.23
433.91	3864.22
434.10	3999.98
434.28	4074.87
434.47	4079.55
434.66	3992.95
434.85	4112.32
435.03	4077.21
435.22	4234.03
435.41	4245.73
435.59	4219.99
435.78	4184.88
435.97	4100.62
436.16	4131.05
436.34	4161.47
436.53	4142.75
436.72	4346.37
436.90	4264.46
437.09	4245.73
437.28	4117.00
437.46	4255.09
437.65	4189.56
437.84	4397.87
438.02	4236.37
438.21	4437.66
438.40	4367.44
438.58	4580.43
438.77	4456.38
438.96	4503.19
439.14	4603.83
439.33	4603.83
439.52	4688.09
439.70	4561.70
439.89	4704.48
440.08	4755.97
440.26	4772.35
440.45	4732.56
440.63	4821.50
440.82	4819.16
441.01	4606.17
441.19	5011.09
441.38	4770.01
441.57	4926.83
441.75	5034.49
441.94	5046.20
442.12	5116.41
442.31	5107.05
442.50	5123.43
442.68	5069.60
442.87	5137.48
443.05	5207.69
443.24	5172.58
443.43	5221.74
443.61	5186.63
443.80	5308.34
443.98	5233.44
444.17	5097.69
444.35	5247.48
444.54	5502.60
444.73	5423.02
444.91	5160.88
445.10	5352.81
445.28	5315.36
445.47	5359.83
445.65	5186.63
445.84	5324.72
446.02	5448.77
446.21	5495.58
446.39	5329.40
446.58	5387.91
446.77	5336.42
446.95	5336.42
447.14	5425.36
447.32	5474.51
447.51	5397.28
447.69	5497.92
447.88	5540.05
448.06	5437.06
448.25	5504.94
448.43	5455.79
448.62	5638.35
448.80	5476.85
448.99	5558.77
449.17	5666.44
449.36	5497.92
449.54	5624.31
449.73	5678.14
449.91	5841.98
450.10	5748.36
450.28	5834.96
450.46	5806.87
450.65	5778.78
450.83	5797.51
451.02	5830.27
451.20	5905.17
451.39	6008.16
451.57	5813.89
451.76	5746.02
451.94	5928.58
452.13	6003.47
452.31	5982.41
452.49	5886.45
452.68	5921.56
452.86	5863.04
453.05	6160.29
453.23	6008.16
453.42	6066.67
453.60	5996.45
453.78	6153.27
453.97	6029.22
454.15	5884.11
454.34	5973.05
454.52	6354.55
454.70	6277.32
454.89	6328.81
455.07	6256.25
455.26	6438.81
455.44	6497.33
455.62	6197.74
455.81	6228.17
455.99	6354.55
456.17	6502.01
456.36	6370.94
456.54	6476.26
456.73	6387.32
456.91	6644.78
457.09	6626.06
457.28	6759.47
457.46	6612.01
457.64	6614.35
457.83	6796.92
458.01	6698.61
458.19	6719.68
458.38	6565.20
458.56	6693.93
458.74	6754.79
458.93	6731.38
459.11	6932.67
459.29	6841.39
459.48	6986.50
459.66	6883.52
459.84	7045.01
460.03	7105.87
460.21	6927.99
460.39	7066.08
460.57	7005.22
460.76	7049.69
460.94	7213.53
461.12	7030.97
461.31	7152.68
461.49	7155.02
461.67	7187.79
461.85	7262.68
462.04	7028.63
462.22	7831.43
462.40	7428.86
462.59	7290.77
462.77	7199.49
462.95	7372.69
463.13	7316.51
463.32	7573.97
463.50	7321.20
463.68	7468.65
463.86	7531.84
464.05	7447.58
464.23	7358.64
464.41	7648.87
464.59	7496.74
464.78	7674.62
464.96	7470.99
465.14	7550.57
465.32	7625.47
465.50	7683.98
465.69	7700.36
465.87	7695.68
466.05	7679.30
466.23	7772.92
466.41	7786.96
466.60	7960.16
466.78	7810.37
466.96	7775.26
467.14	7784.62
467.32	7950.80
467.51	8124.00
467.69	7763.56
467.87	7712.07
468.05	8081.87
468.23	7868.88
468.41	7922.71
468.60	8032.72
468.78	7943.78
468.96	8053.78
469.14	7971.86
469.32	8280.82
469.50	8086.55
469.69	8128.68
469.87	8222.30
470.05	8170.81
470.23	8432.95
470.41	8194.22
470.59	8353.37
470.77	8189.53
470.95	8573.38
471.14	8636.58
471.32	8465.72
471.50	8489.12
471.68	8369.76
471.86	8634.24
472.04	8627.21
472.22	8917.44
472.40	8608.49
472.58	8751.26
472.77	8905.74
472.95	8973.61
473.13	9334.06
473.31	8891.70
473.49	8877.65
473.67	9008.72
473.85	9247.46
474.03	9015.74
474.21	9116.39
474.39	9259.16
474.57	9312.99
474.75	9210.01
474.93	9355.12
475.12	9373.85
475.30	9495.55
475.48	9490.87
475.66	9673.43
475.84	9504.92
476.02	9736.63
476.20	9848.97
476.38	9863.02
476.56	9926.21
476.74	9750.67
476.92	9991.75
477.10	9949.62
477.28	10106.43
477.46	10169.63
477.64	10258.57
477.82	10251.55
478.00	10567.52
478.18	10745.40
478.36	10621.35
478.54	10876.47
478.72	10607.31
478.90	10775.83
479.08	10881.15
479.26	10965.41
479.44	10949.03
479.62	11075.42
479.80	11012.22
479.98	11335.21
480.16	11468.62
480.34	11548.20
480.52	11548.20
480.70	11763.53
480.88	11653.53
481.06	11838.43
481.24	11686.29
481.41	11815.02
481.59	12039.72
481.77	12086.53
481.95	12135.68
482.13	12538.25
482.31	12348.67
482.49	12273.77
482.67	12601.44
482.85	12669.32
483.03	12798.05
483.21	12912.74
483.39	13212.32
483.57	12898.69
483.74	13053.17
483.92	13256.79
484.10	13352.76
484.28	13460.42
484.46	13493.19
484.64	14040.87
484.82	13497.87
485.00	13642.98
485.18	14031.51
485.35	14333.44
485.53	14410.68
485.71	14253.86
485.89	14553.45
486.07	14527.71
486.25	14700.90
486.43	14752.40
486.61	14841.34
486.78	14967.73
486.96	14881.13
487.14	15353.91
487.32	15257.95
487.50	15639.46
487.68	15520.09
487.85	15667.55
488.03	15807.98
488.21	15955.43
488.39	15946.07
488.57	16278.43
488.75	15957.77
488.92	16425.88
489.10	16460.99
489.28	16545.25
489.46	16706.74
489.64	16781.64
489.81	16954.84
489.99	16989.95
490.17	17256.77
490.35	17301.24
490.53	17448.69
490.70	17638.28
490.88	17586.79
491.06	17748.28
491.24	18043.19
491.41	17790.41
491.59	18005.74
491.77	17954.25
491.95	18295.97
492.13	18616.62
492.30	18628.32
492.48	18677.48
492.66	18345.12
492.84	18647.05
493.01	19042.60
493.19	19220.48
493.37	19091.75
493.54	18878.76
493.72	19295.38
493.90	19590.28
494.08	19623.05
494.25	19824.34
494.43	19534.11
494.61	20023.28
494.79	20053.71
494.96	20030.30
495.14	20325.21
495.32	20500.75
495.49	20428.20
495.67	20746.51
495.85	20650.55
496.02	20938.43
496.20	20865.88
496.38	20940.77
496.55	20889.28
496.73	21579.74
496.91	21235.68
497.09	21619.53
497.26	21535.27
497.44	21490.80
497.62	21682.72
497.79	22256.15
497.97	22015.08
498.14	22485.53
498.32	22333.39
498.50	22167.21
498.67	22663.41
498.85	22277.22
499.03	22668.09
499.20	22747.67
499.38	22810.86
499.56	22944.27
499.73	23012.15
499.91	23084.70
500.08	23201.73
500.26	23187.69
500.44	23403.02
500.61	23536.43
500.79	23058.96
500.97	23777.50
501.14	24027.94
501.32	24041.98
501.49	23702.61
501.67	24063.05
501.84	24367.32
502.02	24133.26
502.20	24166.03
502.37	24205.82
502.55	24254.97
502.72	24659.88
502.90	24566.26
503.07	24386.04
503.25	24437.53
503.43	24374.34
503.60	25003.94
503.78	25020.33
503.95	25277.79
504.13	24947.77
504.30	25214.59
504.48	25216.93
504.65	25345.66
504.83	25399.49
505.01	25338.64
505.18	25586.74
505.36	25418.22
505.53	25776.32
505.71	25848.88
505.88	26106.34
506.06	25551.63
506.23	26157.83
506.41	26054.84
506.58	26160.17
506.76	26539.33
506.93	26188.25
507.11	26581.46
507.28	26452.73
507.46	26586.15
507.63	26614.23
507.81	26937.23
507.98	26539.33
508.16	26843.60
508.33	26986.38
508.50	27510.66
508.68	27159.58
508.85	27257.88
509.03	27154.90
509.20	27503.64
509.38	27585.55
509.55	27597.26
509.73	27714.28
509.90	27744.71
510.08	27501.29
510.25	27978.76
510.42	28311.12
510.60	28151.96
510.77	28095.79
510.95	28353.25
511.12	28264.31
511.30	28254.95
511.47	28154.30
511.64	28205.80
511.82	28402.40
511.99	28877.53
512.17	28830.72
512.34	28732.42
512.51	29120.95
512.69	29345.64
512.86	28989.88
513.04	29284.78
513.21	28903.28
513.38	29399.47
513.56	29474.37
513.73	29242.65
513.90	29762.25
514.08	29462.66
514.25	29722.46
514.43	29617.14
514.60	29958.86
514.77	29820.77
514.95	29748.21
515.12	29773.95
515.29	29975.24
515.47	29898.00
515.64	30508.88
515.81	29963.54
515.99	30426.96
516.16	30501.86
516.33	30665.70
516.51	30539.31
516.68	30565.06
516.85	30464.41
517.03	30646.97
517.20	30995.71
517.37	30693.79
517.54	31087.00
517.72	31136.15
517.89	31051.89
518.06	31489.57
518.24	30836.56
518.41	30841.24
518.58	31569.15
518.75	31051.89
518.93	31187.64
519.10	31379.56
519.27	31360.84
519.45	31777.45
519.62	31873.42
519.79	31742.35
519.96	32032.57
520.14	31899.16
520.31	32095.77
520.48	31768.09
520.65	32142.58
520.83	32484.30
521.00	32231.52
521.17	32512.38
521.34	32257.26
521.52	32182.37
521.69	32285.35
521.86	32982.83
522.03	32840.06
522.20	32734.73
522.38	33251.99
522.55	32811.97
522.72	32903.25
522.89	33390.08
523.07	33528.17
523.24	32989.85
523.41	33490.73
523.58	33408.81
523.75	33486.04
523.92	33394.76
524.10	33879.25
524.27	33715.42
524.44	33324.55
524.61	33825.42
524.78	33778.61
524.96	33652.22
525.13	34075.86
525.30	34146.08
525.47	34368.43
525.64	34401.19
525.81	33989.26
525.98	34581.42
526.16	34590.78
526.33	34157.78
526.50	34707.80
526.67	34209.27
526.84	34536.94
527.01	34419.92
527.18	34462.05
527.36	34712.49
527.53	34773.34
527.70	34803.77
527.87	35030.80
528.04	34941.86
528.21	34866.96
528.38	34675.04
528.55	35316.34
528.72	35035.48
528.89	35002.71
529.07	35068.25
529.24	35016.75
529.41	35615.93
529.58	35152.51
529.75	35089.31
529.92	35534.01
530.09	35922.54
530.26	35590.19
530.43	35697.85
530.60	35438.05
530.77	35557.42
530.94	35901.48
531.11	35468.48
531.28	35955.31
531.46	36058.29
531.63	36341.50
531.80	35768.07
531.97	35981.06
532.14	36238.51
532.31	36044.25
532.48	36280.64
532.65	36575.55
532.82	36622.36
532.99	36334.48
533.16	36364.90
533.33	36659.81
533.50	36477.25
533.67	36699.60
533.84	36341.50
534.01	36526.40
534.18	36608.32
534.35	37268.35
534.52	37230.90
534.69	37460.27
534.86	36999.19
535.03	36879.82
535.20	37261.33
535.37	37656.88
535.54	37198.13
535.71	37046.00
535.88	37364.31
536.05	37495.38
536.22	37504.74
536.38	37235.58
536.55	37165.37
536.72	37577.30
536.89	37425.17
537.06	37605.39
537.23	37869.87
537.40	37876.89
537.57	37589.00
537.74	37663.90
537.91	37919.02
538.08	37991.58
538.25	37708.37
538.42	37750.50
538.59	38054.77
538.75	38005.62
538.92	38312.23
539.09	38586.07
539.26	38419.89
539.43	37914.34
539.60	38588.41
539.77	38272.44
539.94	38494.79
540.11	38497.13
540.28	38632.88
540.44	38541.60
540.61	38576.71
540.78	38328.61
540.95	38565.01
541.12	38265.42
541.29	38314.57
541.46	38539.26
541.62	38548.62
541.79	39232.06
541.96	38726.50
542.13	38494.79
542.30	38712.46
542.47	38682.03
542.63	39281.21
542.80	39269.51
542.97	39770.38
543.14	39723.57
543.31	39140.78
543.48	39000.35
543.64	39885.07
543.81	40086.36
543.98	39374.83
544.15	39592.50
544.32	39899.11
544.48	40126.14
544.65	40297.00
544.82	39868.69
544.99	39688.46
545.16	39674.42
545.32	39962.31
545.49	40650.42
545.66	40381.26
545.83	40376.58
546.00	40535.74
546.16	40055.93
546.33	40069.97
546.50	39852.30
546.67	40683.19
546.83	39592.50
547.00	40493.61
547.17	40811.92
547.34	40774.47
547.50	40858.73
547.67	40591.91
547.84	40615.32
548.00	40627.02
548.17	41064.70
548.34	41205.13
548.51	41031.93
548.67	40811.92
548.84	40722.98
549.01	41155.98
549.18	40989.80
549.34	40924.27
549.51	40999.16
549.68	41198.11
549.84	40650.42
550.01	41027.25
550.18	40767.45
550.34	41158.32
550.51	41890.91
550.68	41324.50
550.84	40737.02
551.01	41528.13
551.18	41179.39
551.34	41050.66
551.51	41574.94
551.68	41464.93
551.84	41027.25
552.01	41216.83
552.18	41282.37
552.34	41675.58
552.51	41509.40
552.68	41043.63
552.84	42003.25
553.01	41989.21
553.18	41462.59
553.34	41532.81
553.51	41827.71
553.67	42258.37
553.84	41806.65
554.01	42174.11
554.17	41790.27
554.34	41977.51
554.51	42127.30
554.67	41979.85
554.84	42281.78
555.00	42071.13
555.17	41867.50
555.33	42113.26
555.50	42050.06
555.67	41963.46
555.83	42745.20
556.00	42452.64
556.16	42843.51
556.33	42529.87
556.50	42007.94
556.66	42405.83
556.83	42408.17
556.99	43098.62
557.16	43049.47
557.32	42932.45
557.49	42822.44
557.65	42579.03
557.82	42546.26
557.98	42822.44
558.15	42356.67
558.32	42415.19
558.48	42595.41
558.65	43026.07
558.81	42916.06
558.98	42918.40
559.14	43077.56
559.31	42469.02
559.47	42869.25
559.64	42789.67
559.80	43112.67
559.97	42934.79
560.13	42691.37
560.30	43100.97
560.46	43185.22
560.63	43466.09
560.79	43189.91
560.96	43089.26
561.12	43246.08
561.29	43496.52
561.45	43491.83
561.61	43185.22
561.78	42946.49
561.94	43119.69
562.11	43253.10
562.27	43323.32
562.44	43014.37
562.60	43686.10
562.77	43447.36
562.93	43089.26
563.10	43531.62
563.26	43255.44
563.42	43526.94
563.59	43442.68
563.75	43068.20
563.92	43421.62
564.08	43620.56
564.24	43973.98
564.41	43463.75
564.57	43842.92
564.74	43232.04
564.90	43440.34
565.07	43821.85
565.23	43213.31
565.39	43615.88
565.56	43655.67
565.72	43852.28
565.88	43292.89
566.05	43765.68
566.21	43735.25
566.38	43524.60
566.54	44074.63
566.70	43885.04
566.87	43988.03
567.03	43573.75
567.19	44046.54
567.36	44091.01
567.52	43658.01
567.68	43964.62
567.85	44217.40
568.01	44428.05
568.17	44172.93
568.34	44058.24
568.50	44027.82
568.66	44177.61
568.83	44081.65
568.99	43756.32
569.15	43950.58
569.32	43997.39
569.48	43908.45
569.64	44542.74
569.81	44353.15
569.97	44416.35
570.13	44002.07
570.30	44116.76
570.46	44069.95
570.62	44671.46
570.78	43896.75
570.95	44041.86
571.11	44315.70
571.27	43763.34
571.43	44130.80
571.60	43957.60
571.76	43679.08
571.92	44203.36
572.09	44350.81
572.25	43863.98
572.41	44161.23
572.57	44404.64
572.74	44329.75
572.90	43988.03
573.06	44013.77
573.22	44128.46
573.38	44879.77
573.55	44659.76
573.71	44699.55
573.87	44409.32
574.03	44098.03
574.20	44435.07
574.36	44343.79
574.52	44336.77
574.68	44474.86
574.84	44737.00
575.01	44776.79
575.17	44456.14
575.33	44825.94
575.49	44699.55
575.65	44226.76
575.82	44694.87
575.98	44355.49
576.14	44914.88
576.30	44879.77
576.46	44549.76
576.62	44240.81
576.79	44561.46
576.95	44311.02
577.11	44205.70
577.27	44563.80
577.43	44545.08
577.59	44570.82
577.75	44491.24
577.92	44353.15
578.08	44570.82
578.24	44804.88
578.40	44828.28
578.56	44781.47
578.72	44781.47
578.88	44940.63
579.04	44577.84
579.21	44374.22
579.37	44795.51
579.53	45298.73
579.69	44273.57
579.85	44713.59
580.01	44456.14
580.17	44615.29
580.33	44591.89
580.49	45144.25
580.65	44804.88
580.82	44144.84
580.98	44453.79
581.14	44404.64
581.30	44713.59
581.46	44697.21
581.62	44444.43
581.78	44418.69
581.94	44928.92
582.10	44697.21
582.26	44729.98
582.42	44762.75
582.58	44542.74
582.74	45055.31
582.90	44912.54
583.06	44868.07
583.22	44903.18
583.38	44928.92
583.54	44879.77
583.70	44697.21
583.86	45071.70
584.02	44687.85
584.18	45336.18
584.34	44882.11
584.50	45406.39
584.66	45067.02
584.82	44933.60
584.98	45181.70
585.14	45141.91
585.30	44802.53
585.46	44861.05
585.62	44786.15
585.78	44329.75
585.94	44582.52
586.10	44652.74
586.26	44484.22
586.42	45038.93
586.58	44758.06
586.74	44839.98
586.90	44474.86
587.06	44739.34
587.22	44802.53
587.38	44851.69
587.54	44809.56
587.70	45783.22
587.86	44921.90
588.02	44987.44
588.18	44772.11
588.34	44790.83
588.49	44809.56
588.65	44760.40
588.81	44706.57
588.97	45202.77
589.13	45235.53
589.29	45324.47
589.45	45792.58
589.61	45352.56
589.77	45324.47
589.93	45151.27
590.08	45146.59
590.24	45057.65
590.40	45478.95
590.56	45675.55
590.72	45296.39
590.88	45230.85
591.04	45354.90
591.20	45427.46
591.35	45326.81
591.51	45542.14
591.67	45059.99
591.83	45652.15
591.99	45549.17
592.15	45123.19
592.31	45382.99
592.46	45289.37
592.62	45727.05
592.78	45516.40
592.94	46010.25
593.10	45668.53
593.26	45806.62
593.41	45673.21
593.57	45492.99
593.73	45731.73
593.89	45914.29
594.05	46031.32
594.20	45584.27
594.36	45914.29
594.52	45799.60
594.68	45656.83
594.84	45460.23
594.99	46087.49
595.15	45713.00
595.31	45617.04
595.47	45687.26
595.62	45659.17
595.78	45366.60
595.94	45830.03
596.10	45399.37
596.25	45937.69
596.41	46291.12
596.57	45375.97
596.73	46143.66
596.88	45748.11
597.04	45645.13
597.20	45663.85
597.36	46026.63
597.51	45743.43
597.67	45338.52
597.83	45652.15
597.99	45813.65
598.14	45736.41
598.30	45846.41
598.46	45701.30
598.61	45797.26
598.77	45603.00
598.93	46307.50
599.09	45734.07
599.24	46073.45
599.40	45942.38
599.56	45984.51
599.71	46148.34
599.87	46532.19
600.03	45888.54
600.18	45909.61
600.34	45736.41
600.50	45998.55
600.65	45553.85
600.81	45944.72
600.97	45846.41
601.12	45532.78
601.28	45642.79
601.44	45694.28
601.59	45425.12
601.75	45862.80
601.91	46071.10
602.06	45975.14
602.22	46110.89
602.37	45544.48
602.53	45879.18
602.69	45858.12
602.84	45743.43
603.00	45516.40
603.16	45698.96
603.31	45867.48
603.47	45574.91
603.62	45998.55
603.78	45839.39
603.94	45832.37
604.09	45694.28
604.25	45780.88
604.40	45546.82
604.56	45296.39
604.71	46473.68
604.87	45696.62
605.03	45640.45
605.18	45773.86
605.34	45544.48
605.49	45865.14
605.65	46136.64
605.80	45579.59
605.96	45631.08
606.12	45914.29
606.27	46017.27
606.43	45375.97
606.58	45610.02
606.74	45375.97
606.89	45390.01
607.05	45764.49
607.20	46028.98
607.36	45322.13
607.51	45694.28
607.67	45415.76
607.82	45848.75
607.98	45895.56
608.13	45860.46
608.29	45567.89
608.44	45855.78
608.60	45535.12
608.75	45464.91
608.91	45736.41
609.06	45411.07
609.22	45874.50
609.37	45263.62
609.53	45698.96
609.68	45427.46
609.84	45076.38
609.99	45228.51
610.15	45698.96
610.30	45738.75
610.46	45125.53
610.61	45446.18
610.76	45731.73
610.92	45338.52
611.07	45268.30
611.23	45420.44
611.38	45322.13
611.54	45397.03
611.69	45600.66
611.84	45724.71
612.00	45240.21
612.15	45659.17
612.31	45460.23
612.46	44823.60
612.62	45350.22
612.77	45366.60
612.92	45521.08
613.08	44751.04
613.23	45256.60
613.39	45113.83
613.54	45392.35
613.69	44959.35
613.85	45041.27
614.00	45265.96
614.15	45474.27
614.31	45003.82
614.46	45099.78
614.62	44619.97
614.77	44868.07
614.92	45104.46
615.08	44910.20
615.23	44996.80
615.38	45371.28
615.54	44992.12
615.69	45170.00
615.84	44807.22
616.00	45003.82
616.15	45090.42
616.30	45031.91
616.46	44685.51
616.61	44905.52
616.76	45045.95
616.92	44746.36
617.07	45411.07
617.22	44921.90
617.37	44659.76
617.53	44889.13
617.68	44655.08
617.83	44711.25
617.99	44903.18
618.14	45354.90
618.29	44488.90
618.45	44582.52
618.60	44769.77
618.75	44179.95
618.90	44467.84
619.06	44514.65
619.21	44353.15
619.36	44779.13
619.51	44512.31
619.67	44072.29
619.82	44484.22
619.97	44495.92
620.12	44348.47
620.28	44605.93
620.43	45003.82
620.58	44711.25
620.73	44629.34
620.89	44774.45
621.04	44381.24
621.19	44198.68
621.34	44219.74
621.49	44257.19
621.65	44196.34
621.80	44692.53
621.95	44332.09
622.10	44432.73
622.25	44486.56
622.41	44626.99
622.56	44009.09
622.71	44264.21
622.86	44514.65
623.01	44201.02
623.16	44229.10
623.32	43999.73
623.47	44402.30
623.62	43838.23
623.77	44144.84
623.92	44004.41
624.07	43735.25
624.23	43761.00
624.38	43833.55
624.53	43653.33
624.68	43658.01
624.83	43861.64
624.98	43735.25
625.13	43339.70
625.29	43723.55
625.44	43688.44
625.59	43704.82
625.74	43580.78
625.89	43557.37
626.04	43618.22
626.19	43480.13
626.34	43070.54
626.49	43643.97
626.65	43206.29
626.80	43449.70
626.95	43557.37
627.10	43243.74
627.25	43250.76
627.40	43484.81
627.55	43203.95
627.70	43278.85
627.85	43583.12
628.00	43353.74
628.15	43393.53
628.30	43309.27
628.45	42721.80
628.60	42916.06
628.76	43012.02
628.91	42822.44
629.06	42834.14
629.21	42997.98
629.36	42866.91
629.51	42770.95
629.66	43304.59
629.81	42866.91
629.96	42939.47
630.11	42841.17
630.26	42707.76
630.41	43030.75
630.56	43136.07
630.71	42834.14
630.86	42747.54
631.01	42653.92
631.16	42700.73
631.31	42529.87
631.46	42806.06
631.61	43093.94
631.76	42880.95
631.91	42834.14
632.06	42824.78
632.21	42628.18
632.36	42777.97
632.51	42454.98
632.66	42440.93
632.81	42312.20
632.96	42852.87
633.10	42684.35
633.25	42410.51
633.40	42464.34
633.55	42366.04
633.70	42192.84
633.85	42277.10
634.00	42188.16
634.15	41972.83
634.30	41947.08
634.45	42415.19
634.60	41954.10
634.75	42665.63
634.90	42541.58
635.05	42401.14
635.19	42178.79
635.34	41923.68
635.49	42368.38
635.64	42115.60
635.79	42649.24
635.94	42192.84
636.09	42684.35
636.24	42326.25
636.39	41830.05
636.53	42314.55
636.68	41820.69
636.83	41722.39
636.98	41825.37
637.13	41738.77
637.28	41680.26
637.43	41670.90
637.57	41698.98
637.72	41380.67
637.87	41497.70
638.02	42003.25
638.17	41352.58
638.32	41563.23
638.46	41701.32
638.61	41813.67
638.76	41254.28
638.91	41345.56
639.06	41364.29
639.20	41368.97
639.35	41205.13
639.50	41062.36
639.65	41542.17
639.80	41212.15
639.94	41614.72
640.09	41090.44
640.24	41567.91
640.39	40879.80
640.54	41036.61
640.68	41551.53
640.83	41230.88
640.98	41170.02
641.13	41163.00
641.27	41652.17
641.42	41111.51
641.57	41057.68
641.72	41591.32
641.86	41092.79
642.01	40697.24
642.16	40954.69
642.31	41200.45
642.45	41013.21
642.60	40694.89
642.75	40872.78
642.90	40917.25
643.04	40554.46
643.19	40739.36
643.34	40673.83
643.48	40804.90
643.63	40662.13
643.78	41024.91
643.93	41116.19
644.07	40535.74
644.22	40491.27
644.37	40601.27
644.51	40900.86
644.66	40964.06
644.81	40999.16
644.95	40416.37
645.10	40168.27
645.25	40435.10
645.39	40425.73
645.54	40428.07
645.69	40226.79
645.83	39957.63
645.98	40325.09
646.13	40465.52
646.27	40079.33
646.42	39690.80
646.57	39978.69
646.71	40004.44
646.86	40463.18
647.00	40105.08
647.15	40191.68
647.30	40395.31
647.44	40280.62
647.59	40294.66
647.74	39856.98
647.88	40250.19
648.03	40046.57
648.17	40568.51
648.32	40360.20
648.47	40795.54
648.61	40170.61
648.76	40446.80
648.90	39810.17
649.05	39803.15
649.20	39938.90
649.34	39966.99
649.49	40109.76
649.63	39779.74
649.78	39901.45
649.92	40112.10
650.07	40177.64
650.21	40032.52
650.36	40062.95
650.51	39782.09
650.65	39798.47
650.80	39683.78
650.94	39838.26
651.09	39714.21
651.23	39072.90
651.38	39662.72
651.52	39276.53
651.67	39580.80
651.81	39484.84
651.96	39150.14
652.10	39620.59
652.25	39517.60
652.39	39428.66
652.54	39281.21
652.68	39140.78
652.83	39269.51
652.97	39555.05
653.12	39388.88
653.26	39164.18
653.41	39358.45
653.55	38857.57
653.70	39470.79
653.84	39124.40
653.99	39330.36
654.13	39253.12
654.27	39110.35
654.42	39414.62
654.56	38682.03
654.71	39082.27
654.85	39077.58
655.00	38859.91
655.14	38773.31
655.29	39089.29
655.43	39082.27
655.57	38890.34
655.72	38213.93
655.86	38747.57
656.01	38759.27
656.15	38335.63
656.30	38536.92
656.44	38604.80
656.58	38761.61
656.73	38859.91
656.87	38024.34
657.01	38141.37
657.16	38445.64
657.30	38249.03
657.45	38532.24
657.59	38043.07
657.73	38326.27
657.88	38595.43
658.02	38410.53
658.16	39077.58
658.31	38209.25
658.45	38234.99
658.60	38352.02
658.74	38244.35
658.88	38422.23
659.03	38356.70
659.17	37846.46
659.31	37783.27
659.46	37696.67
659.60	38307.55
659.74	38132.01
659.89	37572.62
660.03	37624.11
660.17	37832.42
660.32	37886.25
660.46	37806.67
660.60	37523.47
660.74	37612.41
660.89	37722.41
661.03	37228.56
661.17	37111.53
661.32	37436.87
661.46	37432.19
661.60	37315.16
661.74	37247.29
661.89	37305.80
662.03	37244.94
662.17	37118.56
662.31	37076.43
662.46	37394.74
662.60	36978.12
662.74	36397.67
662.88	36964.08
663.03	36495.97
663.17	36638.75
663.31	36563.85
663.45	36861.10
663.60	37261.33
663.74	36533.42
663.88	36744.07
664.02	36350.86
664.17	36903.23
664.31	36327.45
664.45	36226.81
664.59	36339.16
664.73	36535.76
664.88	36631.72
665.02	35695.51
665.16	35798.49
665.30	36170.64
665.44	35943.61
665.59	35428.69
665.73	35821.90
665.87	35466.14
666.01	35901.48
666.15	35934.24
666.29	35974.03
666.44	35849.99
666.58	35590.19
666.72	35491.88
666.86	35599.55
667.00	35194.64
667.14	35311.66
667.28	35014.41
667.43	35468.48
667.57	35517.63
667.71	35510.61
667.85	35297.62
667.99	35356.13
668.13	35077.61
668.27	34785.04
668.41	34916.11
668.56	34960.58
668.70	34550.99
668.84	34562.69
668.98	34319.28
669.12	34132.03
669.26	34403.53
669.40	34424.60
669.54	34455.03
669.68	34593.12
669.82	34359.06
669.96	33832.44
670.10	33624.14
670.25	34064.16
670.39	34033.73
670.53	34265.44
670.67	33902.66
670.81	34167.14
670.95	34110.97
671.09	33743.50
671.23	33797.34
671.37	33731.80
671.51	33574.98
671.65	33467.32
671.79	33109.22
671.93	33876.91
672.07	33387.74
672.21	33221.56
672.35	32992.19
672.49	33013.26
672.63	33209.86
672.77	33085.81
672.91	32608.34
673.05	32800.27
673.19	32659.84
673.33	32580.26
673.47	32575.58
673.61	32521.74
673.75	32126.19
673.89	32123.85
674.03	32123.85
674.17	31887.46
674.31	31948.31
674.45	31599.57
674.59	31899.16
674.73	31892.14
674.87	31594.89
675.01	31536.38
675.15	31496.59
675.29	31438.08
675.43	31527.02
675.56	31697.88
675.70	31529.36
675.84	31269.56
675.98	30738.26
676.12	31140.83
676.26	31101.04
676.40	31274.24
676.54	30490.16
676.68	30806.13
676.82	30361.43
676.96	30878.69
677.10	30881.03
677.23	30267.81
677.37	30459.73
677.51	30094.61
677.65	29736.51
677.79	30242.06
677.93	30174.19
678.07	30012.69
678.21	29340.96
678.34	29879.28
678.48	29544.58
678.62	29390.11
678.76	29626.50
678.90	29305.85
679.04	29567.99
679.18	29235.63
679.31	29233.29
679.45	29237.97
679.59	28975.83
679.73	28601.35
679.87	28769.86
680.00	28451.55
680.14	28517.09
680.28	28840.08
680.42	28306.44
680.56	28194.09
680.70	28240.90
680.83	27931.95
680.97	27796.20
681.11	27740.03
681.25	27534.06
681.39	27346.82
681.52	27868.76
681.66	27475.55
681.80	27005.10
681.94	26899.78
682.07	27513.00
682.21	27072.98
682.35	27201.71
682.49	27080.00
682.62	26831.90
682.76	27101.06
682.90	26668.06
683.04	26457.42
683.17	26728.92
683.31	26335.71
683.45	26302.94
683.59	26265.49
683.72	25687.38
683.86	25666.31
684.00	25642.91
684.13	25727.17
684.27	25759.94
684.41	25610.14
684.55	25799.73
684.68	25429.92
684.82	25638.23
684.96	25429.92
685.09	25439.28
685.23	25118.63
685.37	25212.25
685.50	25060.12
685.64	25362.04
685.78	24676.27
685.91	24666.91
686.05	24608.39
686.19	24301.78
686.32	24435.19
686.46	24336.89
686.60	23356.21
686.73	24201.14
686.87	24168.37
687.01	23927.30
687.14	24037.30
687.28	23988.15
687.42	23941.34
687.55	23587.92
687.69	23765.80
687.82	23536.43
687.96	23585.58
688.10	23501.32
688.23	23403.02
688.37	23187.69
688.50	23503.66
688.64	23061.30
688.78	23197.05
688.91	23061.30
689.05	22682.13
689.18	22684.47
689.32	21970.61
689.46	22066.57
689.59	22274.88
689.73	22525.32
689.86	22691.49
690.00	21818.47
690.13	21734.21
690.27	21876.99
690.41	22052.53
690.54	21593.78
690.68	21504.84
690.81	21415.90
690.95	21088.23
691.08	21355.05
691.22	21362.07
691.35	21233.34
691.49	20999.29
691.62	21294.19
691.76	20837.79
691.89	20411.81
692.03	20521.82
692.16	20680.97
692.30	20350.96
692.43	20435.22
692.57	20044.35
692.70	20449.26
692.84	20339.26
692.97	20112.22
693.11	19852.42
693.24	20379.04
693.38	19737.74
693.51	19697.95
693.65	19791.57
693.78	19484.96
693.92	19372.61
694.05	19370.27
694.19	19257.93
694.32	19379.64
694.45	19438.15
694.59	19625.39
694.72	19391.34
694.86	19000.47
694.99	18885.78
695.13	18817.91
695.26	18466.83
695.39	18394.27
695.53	18373.21
695.66	18824.93
695.80	18307.67
695.93	18298.31
696.07	18408.31
696.20	18298.31
696.33	17694.45
696.47	17504.87
696.60	17827.86
696.73	18157.88
696.87	17741.26
697.00	18005.74
697.14	17224.00
697.27	17539.97
697.40	17504.87
697.54	17359.75
697.67	17458.06
697.80	17142.08
697.94	16889.31
698.07	17116.34
698.21	16957.18
698.34	16744.19
698.47	16704.40
698.61	16465.67
698.74	16517.16
698.87	16453.97
699.01	16308.85
699.14	16203.53
699.27	16297.15
699.40	16065.44
699.54	16196.51
699.67	15983.52
699.80	16182.46
699.94	16060.76
700.07	16037.35
700.20	15791.59
700.34	15590.31
700.47	15784.57
700.60	16065.44
700.73	15707.34
700.87	15508.39
701.00	15012.20
701.13	14963.04
701.26	15176.03
701.40	15005.17
701.53	15028.58
701.66	15145.61
701.79	15129.22
701.93	14661.12
702.06	14602.60
702.19	14455.15
702.32	14876.44
702.46	14581.54
702.59	14560.47
702.72	14476.21
702.85	14434.08
702.99	14464.51
703.12	14097.05
703.25	14115.77
703.38	14218.75
703.51	14193.01
703.65	13837.25
703.78	13731.92
703.91	13727.24
704.04	13605.53
704.17	13429.99
704.31	13790.44
704.44	13577.45
704.57	13605.53
704.70	13411.27
704.83	13362.12
704.96	13401.91
705.10	13123.38
705.23	13238.07
>>>>>End Processed Spectral Data<<<<<
