SpectraSuite Data File
++++++++++++++++++++++++++++++++++++
Date: Fri Oct 25 10:47:33 EDT 2013
User: price-jones
Dark Spectrum Present: No
Reference Spectrum Present: No
Number of Sampled Component Spectra: 1
Spectrometers: USB2+H05261
Integration Time (usec): 100000 (USB2+H05261)
Spectra Averaged: 1 (USB2+H05261)
Boxcar Smoothing: 0 (USB2+H05261)
Correct for Electrical Dark: No (USB2+H05261)
Strobe/Lamp Enabled: No (USB2+H05261)
Correct for Detector Non-linearity: No (USB2+H05261)
Correct for Stray Light: No (USB2+H05261)
Number of Pixels in Processed Spectrum: 2048
>>>>>Begin Processed Spectral Data<<<<<
365.73	212.99
365.92	212.99
366.12	212.99
366.32	91.28
366.52	11.70
366.72	32.77
366.91	0.00
367.11	4.68
367.31	16.38
367.51	84.26
367.70	65.54
367.90	58.51
368.10	49.15
368.30	53.83
368.49	25.75
368.69	42.13
368.89	21.06
369.09	35.11
369.28	51.49
369.48	84.26
369.68	140.43
369.87	95.96
370.07	72.56
370.27	128.73
370.47	231.71
370.66	299.59
370.86	365.12
371.06	456.40
371.25	489.17
371.45	440.02
371.65	484.49
371.84	477.47
372.04	437.68
372.24	491.51
372.44	498.53
372.63	559.39
372.83	496.19
373.03	442.36
373.22	456.40
373.42	489.17
373.62	514.92
373.81	545.34
374.01	627.26
374.21	578.11
374.40	533.64
374.60	514.92
374.79	615.56
374.99	557.05
375.19	538.32
375.38	557.05
375.58	552.37
375.78	622.58
375.97	512.58
376.17	596.84
376.37	528.96
376.56	535.98
376.76	589.82
376.95	596.84
377.15	634.29
377.35	547.69
377.54	596.84
377.74	631.94
377.93	592.16
378.13	596.84
378.33	653.01
378.52	580.45
378.72	655.35
378.91	669.39
379.11	645.99
379.31	622.58
379.50	645.99
379.70	704.50
379.89	559.39
380.09	690.46
380.28	575.77
380.48	704.50
380.68	599.18
380.87	601.52
381.07	568.75
381.26	617.90
381.46	723.23
381.65	676.41
381.85	664.71
382.04	671.73
382.24	739.61
382.43	678.76
382.63	634.29
382.83	760.67
383.02	704.50
383.22	622.58
383.41	683.44
383.61	753.65
383.80	795.78
384.00	732.59
384.19	674.07
384.39	807.48
384.58	725.57
384.78	725.57
384.97	755.99
385.17	702.16
385.36	683.44
385.56	699.82
385.75	758.33
385.95	741.95
386.14	739.61
386.34	713.86
386.53	823.87
386.72	770.04
386.92	748.97
387.11	777.06
387.31	727.91
387.50	774.72
387.70	814.51
387.89	746.63
388.09	791.10
388.28	840.25
388.48	753.65
388.67	863.66
388.86	856.64
389.06	833.23
389.25	884.72
389.45	938.55
389.64	973.66
389.84	821.53
390.03	908.13
390.22	933.87
390.42	858.98
390.61	873.02
390.81	875.36
391.00	933.87
391.19	964.30
391.39	926.85
391.58	983.02
391.78	929.19
391.97	889.40
392.16	959.62
392.36	908.13
392.55	940.90
392.75	910.47
392.94	1086.01
393.13	1015.79
393.33	952.60
393.52	919.83
393.71	1018.13
393.91	1022.81
394.10	1008.77
394.29	1067.28
394.49	978.34
394.68	1032.18
394.88	1130.48
395.07	1064.94
395.26	1146.86
395.46	1139.84
395.65	1123.46
395.84	1090.69
396.04	1193.67
396.23	1146.86
396.42	1088.35
396.62	1083.67
396.81	1193.67
397.00	1029.84
397.19	1097.71
397.39	1261.55
397.58	1177.29
397.77	1207.72
397.97	1247.51
398.16	1224.10
398.35	1228.78
398.55	1200.69
398.74	1198.35
398.93	1291.98
399.12	1249.85
399.32	1301.34
399.51	1343.47
399.70	1334.11
399.90	1392.62
400.09	1331.76
400.28	1394.96
400.47	1362.19
400.67	1411.34
400.86	1502.62
401.05	1486.24
401.24	1364.53
401.44	1535.39
401.63	1430.07
401.82	1486.24
402.01	1516.67
402.21	1444.11
402.40	1469.86
402.59	1420.71
402.78	1537.73
402.97	1540.07
403.17	1551.78
403.36	1516.67
403.55	1570.50
403.74	1640.72
403.93	1612.63
404.13	1582.20
404.32	1591.56
404.51	1664.12
404.70	1600.93
404.89	1650.08
405.09	1804.55
405.28	1706.25
405.47	1687.53
405.66	1673.48
405.85	1722.63
406.05	1727.32
406.24	1650.08
406.43	1713.27
406.62	1762.42
406.81	1795.19
407.00	1736.68
407.20	1757.74
407.39	1776.47
407.58	1842.00
407.77	1935.62
407.96	1849.02
408.15	1928.60
408.34	1902.86
408.54	2022.22
408.73	1879.45
408.92	1996.48
409.11	1947.33
409.30	2024.56
409.49	1954.35
409.68	1966.05
409.87	1982.43
410.07	2092.44
410.26	2090.10
410.45	2122.87
410.64	2113.50
410.83	2136.91
411.02	2162.66
411.21	2244.57
411.40	2092.44
411.59	2300.75
411.78	2186.06
411.98	2218.83
412.17	2197.76
412.36	2286.70
412.55	2270.32
412.74	2385.01
412.93	2473.95
413.12	2331.17
413.31	2471.61
413.50	2480.97
413.69	2370.96
413.88	2668.21
414.07	2520.76
414.26	2581.61
414.45	2593.31
414.64	2658.85
414.83	2555.86
415.02	2626.08
415.22	2583.95
415.41	2677.57
415.60	2668.21
415.79	2750.13
415.98	2888.22
416.17	2782.90
416.36	2862.48
416.55	2918.65
416.74	2883.54
416.93	2850.77
417.12	2885.88
417.31	2913.97
417.50	2796.94
417.69	2862.48
417.88	3038.02
418.07	2937.37
418.26	2928.01
418.45	3138.66
418.64	3194.83
418.83	3098.87
419.02	3068.44
419.21	3155.04
419.39	3110.57
419.58	3063.76
419.77	2993.55
419.96	3279.09
420.15	3145.68
420.34	3087.17
420.53	3169.09
420.72	3180.79
420.91	3248.66
421.10	3267.39
421.29	3421.86
421.48	3349.31
421.67	3304.84
421.86	3365.69
422.05	3361.01
422.24	3300.16
422.43	3311.86
422.61	3351.65
422.80	3398.46
422.99	3300.16
423.18	3445.27
423.37	3405.48
423.56	3566.98
423.75	3536.55
423.94	3279.09
424.13	3243.98
424.32	3307.18
424.50	3353.99
424.69	3403.14
424.88	3445.27
425.07	3363.35
425.26	3335.26
425.45	3501.44
425.64	3557.61
425.83	3361.01
426.01	3545.91
426.20	3456.97
426.39	3513.14
426.58	3510.80
426.77	3466.33
426.96	3508.46
427.15	3496.76
427.33	3562.30
427.52	3590.38
427.71	3625.49
427.90	3674.64
428.09	3763.58
428.28	3744.86
428.46	3688.68
428.65	3632.51
428.84	3700.39
429.03	3815.07
429.22	3618.47
429.40	3639.53
429.59	3723.79
429.78	3625.49
429.97	3625.49
430.16	3698.05
430.34	3735.50
430.53	4002.32
430.72	3885.29
430.91	3765.92
431.10	3843.16
431.28	3866.56
431.47	4049.13
431.66	4147.43
431.85	3981.25
432.03	4109.98
432.22	4187.22
432.41	4032.74
432.60	4168.49
432.79	4133.39
432.97	4161.47
433.16	4315.95
433.35	4060.83
433.54	4173.18
433.72	4182.54
433.91	4077.21
434.10	4227.01
434.28	4222.33
434.47	4315.95
434.66	4177.86
434.85	4428.29
435.03	4425.95
435.22	4449.36
435.41	4503.19
435.59	4407.23
435.78	4360.42
435.97	4559.36
436.16	4416.59
436.34	4479.79
436.53	4411.91
436.72	4573.41
436.90	4645.96
437.09	4568.73
437.28	4599.15
437.46	4442.34
437.65	4685.75
437.84	4554.68
438.02	4484.47
438.21	4571.07
438.40	4587.45
438.58	4720.86
438.77	4713.84
438.96	4676.39
439.14	4983.00
439.33	4926.83
439.52	4987.68
439.70	4849.59
439.89	4980.66
440.08	5036.83
440.26	5048.54
440.45	4968.96
440.63	5205.35
440.82	5298.97
441.01	5275.57
441.19	5172.58
441.38	5324.72
441.57	5263.86
441.75	5343.44
441.94	5514.30
442.12	5341.10
442.31	5523.66
442.50	5458.13
442.68	5439.40
442.87	5383.23
443.05	5701.54
443.24	5760.06
443.43	5586.86
443.61	5563.45
443.80	5664.10
443.98	5462.81
444.17	5430.04
444.35	5710.91
444.54	5715.59
444.73	5717.93
444.91	5652.39
445.10	5853.68
445.28	5748.36
445.47	5722.61
445.65	5757.72
445.84	5750.70
446.02	5722.61
446.21	5731.97
446.39	5804.53
446.58	5743.67
446.77	5863.04
446.95	5731.97
447.14	5877.09
447.32	5811.55
447.51	5895.81
447.69	5935.60
447.88	5891.13
448.06	5874.74
448.25	5678.14
448.43	5799.85
448.62	5729.63
448.80	5820.91
448.99	5977.73
449.17	5991.77
449.36	5865.38
449.54	6094.76
449.73	6207.10
449.91	6296.04
450.10	6031.56
450.28	6202.42
450.46	6150.93
450.65	6113.48
450.83	6588.61
451.02	6127.52
451.20	6314.77
451.39	6310.08
451.57	6384.98
451.76	6354.55
451.94	6307.74
452.13	6214.12
452.31	6464.56
452.49	6338.17
452.68	6490.31
452.86	6324.13
453.05	6504.35
453.23	6626.06
453.42	6450.52
453.60	6487.96
453.78	6635.42
453.97	6562.86
454.15	6382.64
454.34	6473.92
454.52	6581.59
454.70	6537.12
454.89	6651.80
455.07	6530.09
455.26	6604.99
455.44	6686.91
455.62	6651.80
455.81	6782.87
455.99	6822.66
456.17	6768.83
456.36	6850.75
456.54	6963.09
456.73	7021.61
456.91	7138.63
457.09	7164.38
457.28	7281.41
457.46	7059.06
457.64	7222.89
457.83	7318.86
458.01	7136.29
458.19	7342.26
458.38	7150.34
458.56	7377.37
458.74	7349.28
458.93	7276.73
459.11	7325.88
459.29	7213.53
459.48	7363.33
459.66	7478.01
459.84	7456.95
460.03	7470.99
460.21	7330.56
460.39	7590.36
460.57	7403.11
460.76	7468.65
460.94	7641.85
461.12	7494.40
461.31	7527.16
461.49	7573.97
461.67	7573.97
461.85	7723.77
462.04	7728.45
462.22	8168.47
462.40	7667.60
462.59	7801.01
462.77	7702.70
462.95	7903.99
463.13	7786.96
463.32	7960.16
463.50	8093.57
463.68	7941.44
463.86	7826.75
464.05	7974.21
464.23	7978.89
464.41	8126.34
464.59	7899.31
464.78	8039.74
464.96	7992.93
465.14	7967.18
465.32	7957.82
465.50	8128.68
465.69	7976.55
465.87	7932.08
466.05	8145.06
466.23	8074.85
466.41	8133.36
466.60	8266.77
466.78	8156.77
466.96	8105.28
467.14	8205.92
467.32	8341.67
467.51	8294.86
467.69	8138.04
467.87	8346.35
468.05	8428.27
468.23	8336.99
468.41	8365.07
468.60	8446.99
468.78	8732.54
468.96	8421.25
469.14	8559.34
469.32	8622.53
469.50	8407.20
469.69	8730.20
469.87	8704.45
470.05	8627.21
470.23	8819.14
470.41	8814.46
470.59	8758.28
470.77	8968.93
470.95	8872.97
471.14	9092.98
471.32	8769.99
471.50	9104.68
471.68	9240.44
471.86	9284.91
472.04	8938.51
472.22	9600.88
472.40	9158.52
472.58	9219.37
472.77	9291.93
472.95	9465.13
473.13	9659.39
473.31	9446.40
473.49	9408.95
473.67	9418.32
473.85	9390.23
474.03	9844.29
474.21	9825.57
474.39	9792.80
474.57	9535.34
474.75	9900.47
474.93	9940.26
475.12	9863.02
475.30	9935.57
475.48	9760.03
475.66	9947.28
475.84	10061.96
476.02	10101.75
476.20	9963.66
476.38	10368.57
476.56	10628.37
476.74	10647.10
476.92	10501.98
477.10	10644.76
477.28	10572.20
477.46	10611.99
477.64	11176.06
477.82	11077.76
478.00	11391.39
478.18	11105.84
478.36	11075.42
478.54	11506.07
478.72	11337.56
478.90	11178.40
479.08	11662.89
479.26	11658.21
479.44	11477.99
479.62	11793.96
479.80	11735.45
479.98	11896.94
480.16	12297.17
480.34	12226.96
480.52	12339.30
480.70	12442.29
480.88	12210.57
481.06	12421.22
481.24	12498.46
481.41	12844.86
481.59	12973.59
481.77	12954.87
481.95	12814.43
482.13	12982.95
482.31	12996.99
482.49	13263.82
482.67	13305.95
482.85	13247.43
483.03	13462.76
483.21	13680.43
483.39	13741.29
483.57	13708.52
483.74	13785.76
483.92	13870.01
484.10	14111.09
484.28	14176.62
484.46	14539.41
484.64	14656.43
484.82	14490.26
485.00	14672.82
485.18	14544.09
485.35	14972.41
485.53	14995.81
485.71	14590.90
485.89	14960.70
486.07	14937.30
486.25	15243.91
486.43	15073.05
486.61	15578.61
486.78	15503.71
486.96	15653.50
487.14	15611.37
487.32	16013.95
487.50	16409.50
487.68	16353.32
487.85	16453.97
488.03	16673.98
488.21	16959.52
488.39	16570.99
488.57	16793.34
488.75	17109.32
488.92	17095.27
489.10	17118.68
489.28	17357.41
489.46	17537.63
489.64	17479.12
489.81	18022.12
489.99	17933.18
490.17	18097.02
490.35	18347.46
490.53	18008.08
490.70	18455.12
490.88	18775.78
491.06	18892.80
491.24	18712.58
491.41	18548.75
491.59	19021.53
491.77	18956.00
491.95	18995.79
492.13	19213.46
492.30	19625.39
492.48	19494.32
492.66	19660.50
492.84	19304.74
493.01	20020.94
493.19	19768.16
493.37	20203.50
493.54	19922.64
493.72	20369.68
493.90	20276.06
494.08	20521.82
494.25	20599.05
494.43	20765.23
494.61	21057.80
494.79	20903.32
494.96	21191.21
495.14	21563.36
495.32	21483.78
495.49	21593.78
495.67	21401.86
495.85	21874.65
496.02	21495.48
496.20	22115.72
496.38	21743.58
496.55	22331.05
496.73	22565.10
496.91	22375.52
497.09	22029.12
497.26	22794.48
497.44	22604.89
497.62	22864.69
497.79	23297.69
497.97	22817.88
498.14	23157.26
498.32	23356.21
498.50	22965.34
498.67	23311.74
498.85	23487.28
499.03	23695.58
499.20	23742.39
499.38	24032.62
499.56	24018.58
499.73	23864.10
499.91	23828.99
500.08	24294.76
500.26	24147.31
500.44	24411.79
500.61	24437.53
500.79	24294.76
500.97	24739.46
501.14	24606.05
501.32	24926.71
501.49	25006.28
501.67	24762.87
501.84	24889.26
502.02	25017.99
502.20	25020.33
502.37	25165.44
502.55	25252.04
502.72	25418.22
502.90	25343.32
503.07	25252.04
503.25	25619.50
503.43	25905.05
503.60	25888.67
503.78	25923.77
503.95	26038.46
504.13	25881.64
504.30	26085.27
504.48	25933.14
504.65	26242.09
504.83	26462.10
505.01	26532.31
505.18	26525.29
505.36	26771.05
505.53	26572.10
505.71	27054.25
505.88	26986.38
506.06	26771.05
506.23	26902.12
506.41	26551.04
506.58	27098.72
506.76	27136.17
506.93	27454.48
507.11	27211.07
507.28	27431.08
507.46	27501.29
507.63	27484.91
507.81	27520.02
507.98	27571.51
508.16	27796.20
508.33	28009.19
508.50	27868.76
508.68	28222.18
508.85	28332.18
509.03	28348.57
509.20	28313.46
509.38	28474.96
509.55	28601.35
509.73	28744.12
509.90	28936.04
510.08	28779.23
510.25	28638.80
510.42	28987.53
510.60	28746.46
510.77	29298.83
510.95	29104.56
511.12	29289.46
511.30	29235.63
511.47	29525.86
511.64	29537.56
511.82	29666.29
511.99	29584.37
512.17	29785.66
512.34	29769.27
512.51	30015.03
512.69	30057.16
512.86	29855.87
513.04	30052.48
513.21	30134.40
513.38	30185.89
513.56	30216.32
513.73	30478.46
513.90	30089.93
514.08	30459.73
514.25	30764.00
514.43	30529.95
514.60	30731.23
514.77	30869.33
514.95	30930.18
515.12	30787.41
515.29	31063.59
515.47	31358.50
515.64	31302.32
515.81	31124.44
515.99	31452.12
516.16	31147.85
516.33	31278.92
516.51	31393.61
516.68	31267.22
516.85	31271.90
517.03	31433.39
517.20	31468.50
517.37	31328.07
517.54	31211.04
517.72	31775.11
517.89	31758.73
518.06	31945.97
518.24	31597.23
518.41	31672.13
518.58	31648.72
518.75	32322.80
518.93	32439.82
519.10	32151.94
519.27	32446.85
519.45	32350.88
519.62	32765.16
519.79	32706.65
519.96	32669.20
520.14	33010.92
520.31	32950.06
520.48	32875.16
520.65	32772.18
520.83	33195.82
521.00	33027.30
521.17	33216.88
521.34	33207.52
521.52	33453.28
521.69	33495.41
521.86	33666.27
522.03	33874.57
522.20	33628.82
522.38	33516.47
522.55	33928.41
522.72	33467.32
522.89	33923.72
523.07	33893.30
523.24	33413.49
523.41	33982.24
523.58	33717.76
523.75	34309.91
523.92	34436.30
524.10	34057.14
524.27	34546.31
524.44	34590.78
524.61	34803.77
524.78	34672.70
524.96	34724.19
525.13	34983.99
525.30	35030.80
525.47	35091.65
525.64	34930.16
525.81	35119.74
525.98	35119.74
526.16	34763.98
526.33	34670.36
526.50	34991.01
526.67	35185.27
526.84	35220.38
527.01	34876.32
527.18	34939.52
527.36	35536.35
527.53	35541.03
527.70	35864.03
527.87	35730.62
528.04	35620.61
528.21	35669.76
528.38	35374.86
528.55	35899.14
528.72	36287.67
528.89	36273.62
529.07	36545.12
529.24	35882.75
529.41	36163.62
529.58	36109.78
529.75	36184.68
529.92	36175.32
530.09	36175.32
530.26	36449.16
530.43	36615.34
530.60	36257.24
530.77	36371.92
530.94	36636.41
531.11	36360.22
531.28	36591.94
531.46	36811.95
531.63	36463.21
531.80	36488.95
531.97	36797.90
532.14	36580.23
532.31	37015.57
532.48	37020.25
532.65	37099.83
532.82	36498.31
532.99	36769.82
533.16	36730.03
533.33	37137.28
533.50	37186.43
533.67	37193.45
533.84	37235.58
534.01	37511.77
534.18	37322.18
534.35	37846.46
534.52	37443.89
534.69	37811.35
534.86	37727.10
535.03	37565.60
535.20	37481.34
535.37	38352.02
535.54	38092.22
535.71	37696.67
535.88	37766.88
536.05	38036.05
536.22	37762.20
536.38	38162.43
536.55	37900.29
536.72	37949.45
536.89	37839.44
537.06	37912.00
537.23	38232.65
537.40	38150.73
537.57	38724.16
537.74	38625.86
537.91	38754.59
538.08	38513.52
538.25	38225.63
538.42	38518.20
538.59	38361.38
538.75	38239.67
538.92	38506.49
539.09	38906.73
539.26	39147.80
539.43	38906.73
539.60	39056.52
539.77	38604.80
539.94	39140.78
540.11	39030.77
540.28	39129.08
540.44	38990.98
540.61	38773.31
540.78	39065.88
540.95	38763.95
541.12	39117.37
541.29	39070.56
541.46	38918.43
541.62	39051.84
541.79	39746.98
541.96	38883.32
542.13	39271.85
542.30	39777.40
542.47	39428.66
542.63	39079.92
542.80	39988.05
542.97	39915.50
543.14	39964.65
543.31	40203.38
543.48	39751.66
543.64	40294.66
543.81	39981.03
543.98	40095.72
544.15	39576.12
544.32	40034.86
544.48	40030.18
544.65	40556.80
544.82	40538.08
544.99	40252.53
545.16	40524.04
545.32	40240.83
545.49	40718.30
545.66	40453.82
545.83	40568.51
546.00	41127.89
546.16	40652.76
546.33	40669.15
546.50	40194.02
546.67	40481.91
546.83	40177.64
547.00	40683.19
547.17	40622.34
547.34	40456.16
547.50	40678.51
547.67	41326.84
547.84	40877.46
548.00	41596.00
548.17	41329.18
548.34	41083.42
548.51	41331.52
548.67	41280.03
548.84	41429.82
549.01	41380.67
549.18	41031.93
549.34	41516.42
549.51	41394.71
549.68	41551.53
549.84	41282.37
550.01	41497.70
550.18	41069.38
550.34	41106.83
550.51	41701.32
550.68	41207.47
550.84	40828.30
551.01	41633.45
551.18	41462.59
551.34	41542.17
551.51	41523.44
551.68	41628.77
551.84	41516.42
552.01	41635.79
552.18	41638.13
552.34	41750.48
552.51	42167.09
552.68	42024.32
552.84	42019.64
553.01	42532.22
553.18	41385.35
553.34	42169.43
553.51	41874.52
553.67	42101.56
553.84	42452.64
554.01	42169.43
554.17	42382.42
554.34	42483.06
554.51	42078.15
554.67	42646.90
554.84	42241.99
555.00	42162.41
555.17	42267.73
555.33	42267.73
555.50	42499.45
555.67	42586.05
555.83	42337.95
556.00	42270.08
556.16	42895.00
556.33	42838.83
556.50	42557.96
556.66	42623.50
556.83	42693.71
556.99	42801.38
557.16	42630.52
557.32	42768.61
557.49	42658.60
557.65	42639.88
557.82	41944.74
557.98	42696.05
558.15	42660.94
558.32	42911.38
558.48	42958.19
558.65	42330.93
558.81	42579.03
558.98	43292.89
559.14	42932.45
559.31	43051.81
559.47	43040.11
559.64	43241.40
559.80	43269.48
559.97	43386.51
560.13	43168.84
560.30	42731.16
560.46	42965.21
560.63	43253.10
560.79	43292.89
560.96	42974.58
561.12	42871.59
561.29	43461.41
561.45	43356.08
561.61	43358.42
561.78	43255.44
561.94	42904.36
562.11	43599.50
562.27	43180.54
562.44	43285.87
562.60	44121.44
562.77	43636.95
562.93	43445.02
563.10	43428.64
563.26	43192.25
563.42	43529.28
563.59	43662.69
563.75	42794.36
563.92	43281.19
564.08	43414.60
564.24	43885.04
564.41	43629.93
564.57	43405.23
564.74	43889.73
564.90	43964.62
565.07	43414.60
565.23	43578.43
565.39	43491.83
565.56	43667.37
565.72	43552.69
565.88	43676.74
566.05	43571.41
566.21	43578.43
566.38	43206.29
566.54	43667.37
566.70	43592.48
566.87	44172.93
567.03	43611.20
567.19	44371.88
567.36	43557.37
567.52	43636.95
567.68	43852.28
567.85	43608.86
568.01	43618.22
568.17	43688.44
568.34	43758.66
568.50	43639.29
568.66	43288.21
568.83	43854.62
568.99	43540.99
569.15	43529.28
569.32	43208.63
569.48	43477.79
569.64	44182.29
569.81	44135.48
569.97	43569.07
570.13	44020.80
570.30	43658.01
570.46	44032.50
570.62	43505.88
570.78	43840.57
570.95	43871.00
571.11	43999.73
571.27	44226.76
571.43	43875.68
571.60	43814.83
571.76	43885.04
571.92	43775.04
572.09	43847.60
572.25	43983.35
572.41	44175.27
572.57	44156.55
572.74	44631.68
572.90	43606.52
573.06	44273.57
573.22	43934.20
573.38	44273.57
573.55	43957.60
573.71	44486.56
573.87	44102.71
574.03	43824.19
574.20	43880.36
574.36	43856.96
574.52	43665.03
574.68	43941.22
574.84	44149.53
575.01	43901.43
575.17	43833.55
575.33	44170.59
575.49	43789.08
575.65	44100.37
575.82	44292.30
575.98	44076.97
576.14	44112.08
576.30	44273.57
576.46	43948.24
576.62	44154.21
576.79	44158.89
576.95	43643.97
577.11	43978.67
577.27	44313.36
577.43	44243.15
577.59	44404.64
577.75	44088.67
577.92	44205.70
578.08	44205.70
578.24	44100.37
578.40	43938.88
578.56	44339.11
578.72	44268.89
578.88	44524.01
579.04	44285.28
579.21	43978.67
579.37	44250.17
579.53	44072.29
579.69	44002.07
579.85	43716.53
580.01	44568.48
580.17	44039.52
580.33	44453.79
580.49	44177.61
580.65	44467.84
580.82	44554.44
580.98	44458.48
581.14	44388.26
581.30	44233.78
581.46	44107.40
581.62	44175.27
581.78	44425.71
581.94	44414.01
582.10	44404.64
582.26	44442.09
582.42	44327.41
582.58	44416.35
582.74	43931.86
582.90	44285.28
583.06	44313.36
583.22	44776.79
583.38	44547.42
583.54	44266.55
583.70	44165.91
583.86	44425.71
584.02	43824.19
584.18	44533.37
584.34	44201.02
584.50	44273.57
584.66	44112.08
584.82	44285.28
584.98	44641.04
585.14	44023.14
585.30	44430.39
585.46	44254.85
585.62	44156.55
585.78	44353.15
585.94	43517.58
586.10	44325.07
586.26	44215.06
586.42	44432.73
586.58	44528.69
586.74	44828.28
586.90	44002.07
587.06	44091.01
587.22	44706.57
587.38	44264.21
587.54	44842.32
587.70	44776.79
587.86	44760.40
588.02	44264.21
588.18	45027.23
588.34	44292.30
588.49	44222.08
588.65	44140.16
588.81	44121.44
588.97	44402.30
589.13	44168.25
589.29	44229.10
589.45	44671.46
589.61	44907.86
589.77	44573.16
589.93	44617.63
590.08	44973.39
590.24	44879.77
590.40	44900.84
590.56	44870.41
590.72	44662.10
590.88	44479.54
591.04	44708.91
591.20	44935.95
591.35	44797.85
591.51	45048.29
591.67	44767.43
591.83	44383.58
591.99	44268.89
592.15	44699.55
592.31	44669.12
592.46	44554.44
592.62	44538.05
592.78	44591.89
592.94	44865.73
593.10	44664.44
593.26	44865.73
593.41	44744.02
593.57	44519.33
593.73	44940.63
593.89	44982.76
594.05	44727.64
594.20	44514.65
594.36	44847.00
594.52	44704.23
594.68	44858.71
594.84	44664.44
594.99	44999.14
595.15	44746.36
595.31	44748.70
595.47	45031.91
595.62	44638.70
595.78	44947.65
595.94	44870.41
596.10	44634.02
596.25	44788.49
596.41	44549.76
596.57	44645.72
596.73	44968.71
596.88	44500.61
597.04	44542.74
597.20	44657.42
597.36	44715.93
597.51	45055.31
597.67	44634.02
597.83	44814.24
597.99	44912.54
598.14	44772.11
598.30	44542.74
598.46	44809.56
598.61	44584.86
598.77	44250.17
598.93	44596.57
599.09	45031.91
599.24	44924.24
599.40	44919.56
599.56	44587.21
599.71	44694.87
599.87	44903.18
600.03	44863.39
600.18	44844.66
600.34	44744.02
600.50	44547.42
600.65	44748.70
600.81	44987.44
600.97	45146.59
601.12	45265.96
601.28	45198.09
601.44	44823.60
601.59	44903.18
601.75	44343.79
601.91	44835.30
602.06	44685.51
602.22	44795.51
602.37	44818.92
602.53	44795.51
602.69	45071.70
602.84	45118.51
603.00	44266.55
603.16	44776.79
603.31	44704.23
603.47	44568.48
603.62	44790.83
603.78	45048.29
603.94	44690.19
604.09	44868.07
604.25	45195.74
604.40	44823.60
604.56	44825.94
604.71	45167.66
604.87	44516.99
605.03	44638.70
605.18	44568.48
605.34	44715.93
605.49	44559.12
605.65	44790.83
605.80	44456.14
605.96	44652.74
606.12	44722.96
606.27	44582.52
606.43	44514.65
606.58	45148.93
606.74	44472.52
606.89	44231.44
607.05	44650.40
607.20	44802.53
607.36	44540.39
607.51	44720.62
607.67	44751.04
607.82	44772.11
607.98	44144.84
608.13	44947.65
608.29	44559.12
608.44	44102.71
608.60	44563.80
608.75	44254.85
608.91	44091.01
609.06	44432.73
609.22	44931.26
609.37	44168.25
609.53	44151.87
609.68	44460.82
609.84	44758.06
609.99	44336.77
610.15	44280.60
610.30	44327.41
610.46	43868.66
610.61	44135.48
610.76	44105.06
610.92	44444.43
611.07	44531.03
611.23	44212.72
611.38	44027.82
611.54	44257.19
611.69	44243.15
611.84	44458.48
612.00	44289.96
612.15	44081.65
612.31	44421.03
612.46	44069.95
612.62	44346.13
612.77	44299.32
612.92	44414.01
613.08	43498.86
613.23	43833.55
613.39	44016.11
613.54	43601.84
613.69	43863.98
613.85	43976.33
614.00	44133.14
614.15	44332.09
614.31	43915.47
614.46	43983.35
614.62	43997.39
614.77	43494.18
614.92	43901.43
615.08	44020.80
615.23	43611.20
615.38	43896.75
615.54	43414.60
615.69	43700.14
615.84	43215.65
616.00	43690.78
616.15	44088.67
616.30	43777.38
616.46	43604.18
616.61	43283.53
616.76	43702.48
616.92	43863.98
617.07	42995.64
617.22	43157.14
617.37	43283.53
617.53	43419.28
617.68	43440.34
617.83	43468.43
617.99	43370.13
618.14	43241.40
618.29	42754.57
618.45	43082.24
618.60	43047.13
618.75	43641.63
618.90	43358.42
619.06	43548.01
619.21	43157.14
619.36	43522.26
619.51	42951.17
619.67	43175.86
619.82	43178.20
619.97	43082.24
620.12	43107.99
620.28	42504.13
620.43	42480.72
620.58	43145.44
620.73	42944.15
620.89	42684.35
621.04	42927.77
621.19	43021.39
621.34	42862.23
621.49	42560.30
621.65	42532.22
621.80	43044.79
621.95	42700.73
622.10	42447.96
622.25	43115.01
622.41	42543.92
622.56	42494.77
622.71	42941.81
622.86	42782.65
623.01	42632.86
623.16	42976.92
623.32	42705.41
623.47	42747.54
623.62	43047.13
623.77	42644.56
623.92	42522.85
624.07	42237.31
624.23	42396.46
624.38	42347.31
624.53	42611.79
624.68	42450.30
624.83	42298.16
624.98	42492.43
625.13	42195.18
625.29	42363.70
625.44	42043.04
625.59	42043.04
625.74	41921.34
625.89	41689.62
626.04	42155.39
626.19	42206.88
626.34	41926.02
626.49	42244.33
626.65	42239.65
626.80	42312.20
626.95	41804.31
627.10	41928.36
627.25	41769.20
627.40	41661.54
627.55	41226.20
627.70	41125.55
627.85	42057.09
628.00	41741.11
628.15	42040.70
628.30	41399.40
628.45	42295.82
628.60	41413.44
628.76	41851.12
628.91	41591.32
629.06	41481.31
629.21	41544.51
629.36	41202.79
629.51	41610.04
629.66	40989.80
629.81	41291.73
629.96	41596.00
630.11	41329.18
630.26	41273.01
630.41	41640.47
630.56	41624.09
630.71	41551.53
630.86	41247.26
631.01	41127.89
631.16	41247.26
631.31	41092.79
631.46	40659.79
631.61	41275.35
631.76	41333.86
631.91	41177.04
632.06	41268.33
632.21	41024.91
632.36	40816.60
632.51	40877.46
632.66	40989.80
632.81	40753.41
632.96	41055.34
633.10	40559.14
633.25	40444.46
633.40	40587.23
633.55	41230.88
633.70	40734.68
633.85	40753.41
634.00	41064.70
634.15	40671.49
634.30	40634.04
634.45	40114.44
634.60	40428.07
634.75	40605.95
634.90	40453.82
635.05	40325.09
635.19	40435.10
635.34	41024.91
635.49	40744.05
635.64	40168.27
635.79	40301.68
635.94	40521.69
636.09	40051.25
636.24	39903.79
636.39	40189.34
636.53	40093.38
636.68	39995.07
636.83	39901.45
636.98	40334.45
637.13	39924.86
637.28	39962.31
637.43	39824.22
637.57	40086.36
637.72	40362.54
637.87	40229.13
638.02	40172.96
638.17	39796.13
638.32	40219.77
638.46	39936.56
638.61	39955.29
638.76	39945.92
638.91	40151.89
639.06	39826.56
639.20	39805.49
639.35	39723.57
639.50	40006.78
639.65	40201.04
639.80	40098.06
639.94	39683.78
640.09	39463.77
640.24	39342.06
640.39	39545.69
640.54	39419.30
640.68	39655.70
640.83	39594.84
640.98	39627.61
641.13	39564.42
641.27	39498.88
641.42	39328.02
641.57	39959.97
641.72	39646.33
641.86	38948.85
642.01	39529.31
642.16	39262.49
642.31	38962.90
642.45	39536.33
642.60	38834.17
642.75	39084.61
642.90	39576.12
643.04	38799.06
643.19	39124.40
643.34	39388.88
643.48	39330.36
643.63	39426.32
643.78	38920.77
643.93	38817.78
644.07	38986.30
644.22	38831.83
644.37	38742.89
644.51	38700.76
644.66	38621.18
644.81	39096.31
644.95	38909.07
645.10	38742.89
645.25	38763.95
645.39	38986.30
645.54	39075.24
645.69	38227.97
645.83	38700.76
645.98	38724.16
646.13	38635.22
646.27	38944.17
646.42	38478.41
646.57	38897.36
646.71	38036.05
646.86	38948.85
647.00	38422.23
647.15	38843.53
647.30	39185.25
647.44	38560.33
647.59	38703.10
647.74	38368.40
647.88	38117.96
648.03	38469.04
648.17	38328.61
648.32	38054.77
648.47	38288.82
648.61	38162.43
648.76	38457.34
648.90	38438.62
649.05	38373.08
649.20	38412.87
649.34	37876.89
649.49	38059.45
649.63	38092.22
649.78	38380.10
649.92	38061.79
650.07	38450.32
650.21	38082.86
650.36	37865.19
650.51	37926.04
650.65	38616.50
650.80	38574.37
650.94	38094.56
651.09	38043.07
651.23	37682.62
651.38	38038.39
651.52	38047.75
651.67	37659.22
651.81	37961.15
651.96	37432.19
652.10	37724.75
652.25	37490.70
652.39	37600.71
652.54	37790.29
652.68	37764.54
652.83	37839.44
652.97	38366.06
653.12	37649.86
653.26	37603.05
653.41	37596.03
653.55	37530.49
653.70	37118.56
653.84	37500.06
653.99	37247.29
654.13	37366.65
654.27	37273.03
654.42	37310.48
654.56	37095.15
654.71	37694.33
654.85	37376.01
655.00	36751.09
655.14	37287.07
655.29	36751.09
655.43	37092.81
655.57	36666.83
655.72	36999.19
655.86	36865.78
656.01	37263.67
656.15	37003.87
656.30	36662.15
656.44	36912.59
656.58	36790.88
656.73	36765.14
656.87	36615.34
657.01	36594.28
657.16	36620.02
657.30	36472.57
657.45	36484.27
657.59	36362.56
657.73	36165.96
657.88	36877.48
658.02	36446.82
658.16	36613.00
658.31	36608.32
658.45	36519.38
658.60	36767.48
658.74	36439.80
658.88	36208.09
659.03	36655.13
659.17	36306.39
659.31	36470.23
659.46	36177.66
659.60	36484.27
659.74	35999.78
659.89	35580.82
660.03	36203.41
660.17	36161.28
660.32	36044.25
660.46	36177.66
660.60	36404.69
660.74	36208.09
660.89	35484.86
661.03	35749.34
661.17	35688.49
661.32	35363.15
661.46	35594.87
661.60	35360.81
661.74	35461.46
661.89	35690.83
662.03	35669.76
662.17	35367.84
662.31	34873.98
662.46	35421.67
662.60	35328.05
662.74	35452.09
662.88	34979.31
663.03	35157.19
663.17	35374.86
663.31	34682.06
663.45	35461.46
663.60	35309.32
663.74	34684.40
663.88	34586.10
664.02	34892.71
664.17	34932.50
664.31	34298.21
664.45	34808.45
664.59	34831.85
664.73	34794.40
664.88	34609.50
665.02	34347.36
665.16	34668.02
665.30	34476.09
665.44	34604.82
665.59	34134.37
665.73	34010.32
665.87	33886.28
666.01	34054.79
666.15	33874.57
666.29	33745.84
666.44	34206.93
666.58	34185.86
666.72	34167.14
666.86	33975.22
667.00	34167.14
667.14	33481.36
667.28	33441.57
667.43	33509.45
667.57	33989.26
667.71	33383.06
667.85	33207.52
667.99	33359.66
668.13	33413.49
668.27	33326.89
668.41	33301.14
668.56	33146.67
668.70	33240.29
668.84	32875.16
668.98	32950.06
669.12	33303.48
669.26	33132.62
669.40	32889.21
669.54	32830.69
669.68	32755.80
669.82	32627.07
669.96	32671.54
670.10	32676.22
670.25	32568.55
670.39	32730.05
670.53	32479.61
670.67	32297.05
670.81	32535.79
670.95	32311.10
671.09	32503.02
671.23	32594.30
671.37	32727.71
671.51	32231.52
671.65	32140.24
671.79	31786.82
671.93	31700.22
672.07	32105.13
672.21	31725.96
672.35	31693.19
672.49	31948.31
672.63	31929.59
672.77	31630.00
672.91	31555.10
673.05	31234.45
673.19	31552.76
673.33	31056.57
673.47	30843.58
673.61	31391.26
673.75	30820.17
673.89	30813.15
674.03	31108.06
674.17	30766.34
674.31	30845.92
674.45	30632.93
674.59	30593.14
674.73	30817.83
674.87	30719.53
675.01	30827.20
675.15	30850.60
675.29	30405.90
675.43	30658.68
675.56	30541.65
675.70	30228.02
675.84	30103.97
675.98	29069.45
676.12	29603.10
676.26	29460.32
676.40	29666.29
676.54	29305.85
676.68	29734.17
676.82	29036.69
676.96	29692.04
677.10	29324.57
677.23	29134.99
677.37	29352.66
677.51	29369.04
677.65	29024.98
677.79	29277.76
677.93	28823.70
678.07	28786.25
678.21	28819.02
678.34	28718.37
678.48	28449.21
678.62	28570.92
678.76	28409.42
678.90	28051.32
679.04	28048.98
679.18	28517.09
679.31	27646.41
679.45	27798.54
679.59	27737.69
679.73	27833.65
679.87	27669.81
680.00	27517.68
680.14	27555.13
680.28	27323.41
680.42	27328.10
680.56	27557.47
680.70	27197.02
680.83	27351.50
680.97	26972.33
681.11	26609.55
681.25	26754.66
681.39	26513.59
681.52	26768.71
681.66	26717.22
681.80	26455.08
681.94	26352.09
682.07	26073.57
682.21	26096.97
682.35	26471.46
682.49	26300.60
682.62	26183.57
682.76	25923.77
682.90	26125.06
683.04	26012.71
683.17	25853.56
683.31	25642.91
683.45	25661.63
683.59	25348.00
683.72	24851.81
683.86	25221.61
684.00	24917.34
684.13	25401.83
684.27	25249.70
684.41	24992.24
684.55	24898.62
684.68	24816.70
684.82	24776.91
684.96	24634.14
685.09	24355.61
685.23	24264.33
685.37	24678.61
685.50	24332.21
685.64	24154.33
685.78	24166.03
685.91	24037.30
686.05	23936.66
686.19	23608.98
686.32	23903.89
686.46	23791.55
686.60	23421.74
686.73	23424.08
686.87	23761.12
687.01	23353.87
687.14	23087.04
687.28	23033.21
687.42	22824.90
687.55	22867.03
687.69	22649.36
687.82	22897.46
687.96	22869.37
688.10	22621.28
688.23	22728.94
688.37	22480.85
688.50	22312.33
688.64	22190.62
688.78	22113.38
688.91	22113.38
689.05	22155.51
689.18	21710.81
689.32	21577.40
689.46	21766.98
689.59	22120.40
689.73	21862.94
689.86	21656.98
690.00	21329.30
690.13	21764.64
690.27	21429.94
690.41	21312.92
690.54	20830.77
690.68	20772.25
690.81	21039.08
690.95	20996.95
691.08	20585.01
691.22	20643.52
691.35	20819.07
691.49	20905.66
691.62	20952.48
691.76	21144.40
691.89	20865.88
692.03	20533.52
692.16	20369.68
692.30	20304.15
692.43	19934.34
692.57	20020.94
692.70	20044.35
692.84	19875.83
692.97	19623.05
693.11	19606.67
693.24	19658.16
693.38	19438.15
693.51	19484.96
693.65	18956.00
693.78	19295.38
693.92	19351.55
694.05	19255.59
694.19	19201.76
694.32	18974.72
694.45	18948.98
694.59	18661.09
694.72	19019.19
694.86	18740.67
694.99	18867.06
695.13	18691.52
695.26	18228.09
695.39	17965.95
695.53	18314.69
695.66	18312.35
695.80	18251.50
695.93	17937.87
696.07	18029.15
696.20	17970.63
696.33	18192.98
696.47	18071.28
696.60	17809.14
696.73	17593.81
696.87	17507.21
697.00	17537.63
697.14	17516.57
697.27	17334.01
697.40	17287.20
697.54	17294.22
697.67	17238.05
697.80	16989.95
697.94	17202.94
698.07	16985.27
698.21	16879.94
698.34	16989.95
698.47	16821.43
698.61	16552.27
698.74	16365.03
698.87	16739.51
699.01	16470.35
699.14	16112.25
699.27	16107.57
699.40	16280.77
699.54	15988.20
699.67	15957.77
699.80	16180.12
699.94	16009.26
700.07	15978.84
700.20	16037.35
700.34	15737.76
700.47	15800.96
700.60	15861.81
700.73	15880.53
700.87	15508.39
701.00	15304.76
701.13	15323.49
701.26	15405.41
701.40	15482.64
701.53	15220.50
701.66	15400.72
701.79	15183.06
701.93	14909.21
702.06	14885.81
702.19	14693.88
702.32	14806.23
702.46	14750.06
702.59	14527.71
702.72	14654.09
702.85	14476.21
702.99	14808.57
703.12	14520.68
703.25	14260.88
703.38	14553.45
703.51	14218.75
703.65	14317.06
703.78	14221.10
703.91	14068.96
704.04	13706.18
704.17	14012.79
704.31	13860.65
704.44	13734.26
704.57	13467.44
704.70	13600.85
704.83	13659.37
704.96	13715.54
705.10	13790.44
705.23	14066.62
>>>>>End Processed Spectral Data<<<<<
