SpectraSuite Data File
++++++++++++++++++++++++++++++++++++
Date: Fri Oct 25 10:44:36 EDT 2013
User: price-jones
Dark Spectrum Present: No
Reference Spectrum Present: No
Number of Sampled Component Spectra: 1
Spectrometers: USB2+H05261
Integration Time (usec): 100000 (USB2+H05261)
Spectra Averaged: 1 (USB2+H05261)
Boxcar Smoothing: 0 (USB2+H05261)
Correct for Electrical Dark: No (USB2+H05261)
Strobe/Lamp Enabled: No (USB2+H05261)
Correct for Detector Non-linearity: No (USB2+H05261)
Correct for Stray Light: No (USB2+H05261)
Number of Pixels in Processed Spectrum: 2048
>>>>>Begin Processed Spectral Data<<<<<
365.73	105.32
365.92	105.32
366.12	105.32
366.32	39.79
366.52	14.04
366.72	74.90
366.91	4.68
367.11	32.77
367.31	4.68
367.51	28.09
367.70	58.51
367.90	86.60
368.10	95.96
368.30	0.00
368.49	23.41
368.69	86.60
368.89	35.11
369.09	9.36
369.28	56.17
369.48	0.00
369.68	81.92
369.87	126.39
370.07	32.77
370.27	117.03
370.47	245.76
370.66	395.55
370.86	407.25
371.06	407.25
371.25	409.59
371.45	463.43
371.65	461.09
371.84	493.85
372.04	496.19
372.24	456.40
372.44	430.66
372.63	531.30
372.83	468.11
373.03	505.56
373.22	465.77
373.42	545.34
373.62	528.96
373.81	554.71
374.01	498.53
374.21	489.17
374.40	505.56
374.60	535.98
374.79	545.34
374.99	472.79
375.19	447.04
375.38	585.13
375.58	543.00
375.78	599.18
375.97	582.79
376.17	589.82
376.37	568.75
376.56	557.05
376.76	664.71
376.95	550.03
377.15	531.30
377.35	552.37
377.54	545.34
377.74	564.07
377.93	568.75
378.13	610.88
378.33	655.35
378.52	650.67
378.72	631.94
378.91	599.18
379.11	622.58
379.31	566.41
379.50	582.79
379.70	622.58
379.89	601.52
380.09	568.75
380.28	706.84
380.48	692.80
380.68	608.54
380.87	594.50
381.07	636.63
381.26	702.16
381.46	697.48
381.65	685.78
381.85	657.69
382.04	692.80
382.24	643.65
382.43	662.37
382.63	631.94
382.83	676.41
383.02	678.76
383.22	678.76
383.41	648.33
383.61	709.18
383.80	683.44
384.00	758.33
384.19	713.86
384.39	709.18
384.58	674.07
384.78	844.93
384.97	732.59
385.17	744.29
385.36	648.33
385.56	791.10
385.75	706.84
385.95	788.76
386.14	802.80
386.34	674.07
386.53	800.46
386.72	760.67
386.92	816.85
387.11	786.42
387.31	812.17
387.50	802.80
387.70	800.46
387.89	896.43
388.09	933.87
388.28	873.02
388.48	828.55
388.67	835.57
388.86	837.91
389.06	887.06
389.25	936.21
389.45	910.47
389.64	891.74
389.84	973.66
390.03	896.43
390.22	940.90
390.42	919.83
390.61	915.15
390.81	936.21
391.00	1006.43
391.19	997.07
391.39	950.26
391.58	1011.11
391.78	926.85
391.97	976.00
392.16	957.28
392.36	1001.75
392.55	931.53
392.75	971.32
392.94	922.17
393.13	994.73
393.33	959.62
393.52	1032.18
393.71	1029.84
393.91	1004.09
394.10	1008.77
394.29	1086.01
394.49	1074.31
394.68	1090.69
394.88	1149.20
395.07	1193.67
395.26	1097.71
395.46	1188.99
395.65	1039.20
395.84	1179.63
396.04	1191.33
396.23	1142.18
396.42	1118.78
396.62	1153.88
396.81	1205.38
397.00	1139.84
397.19	1172.61
397.39	1259.21
397.58	1299.00
397.77	1191.33
397.97	1364.53
398.16	1188.99
398.35	1336.45
398.55	1359.85
398.74	1359.85
398.93	1352.83
399.12	1275.59
399.32	1245.16
399.51	1317.72
399.70	1432.41
399.90	1413.68
400.09	1404.32
400.28	1476.88
400.47	1411.34
400.67	1479.22
400.86	1486.24
401.05	1451.13
401.24	1554.12
401.44	1502.62
401.63	1504.96
401.82	1504.96
402.01	1554.12
402.21	1526.03
402.40	1582.20
402.59	1542.41
402.78	1488.58
402.97	1568.16
403.17	1565.82
403.36	1600.93
403.55	1631.35
403.74	1734.34
403.93	1570.50
404.13	1668.80
404.32	1661.78
404.51	1558.80
404.70	1736.68
404.89	1706.25
405.09	1657.10
405.28	1790.51
405.47	1755.40
405.66	1783.49
405.85	1755.40
406.05	1872.43
406.24	1795.19
406.43	1750.72
406.62	1806.89
406.81	1804.55
407.00	1907.54
407.20	1813.92
407.39	1797.53
407.58	1891.15
407.77	1944.99
407.96	1916.90
408.15	1987.11
408.34	1959.03
408.54	2087.76
408.73	1944.99
408.92	2040.95
409.11	2092.44
409.30	2008.18
409.49	2139.25
409.68	2029.24
409.87	2040.95
410.07	2139.25
410.26	2193.08
410.45	2031.58
410.64	2237.55
410.83	2296.07
411.02	2242.23
411.21	2284.36
411.40	2286.70
411.59	2258.62
411.78	2258.62
411.98	2401.39
412.17	2368.62
412.36	2459.90
412.55	2349.90
412.74	2469.27
412.93	2476.29
413.12	2410.75
413.31	2551.18
413.50	2455.22
413.69	2436.50
413.88	2499.69
414.07	2616.72
414.26	2700.98
414.45	2682.25
414.64	2712.68
414.83	2637.78
415.02	2719.70
415.22	2860.13
415.41	2684.59
415.60	2715.02
415.79	2841.41
415.98	2864.82
416.17	2766.51
416.36	2843.75
416.55	2970.14
416.74	2864.82
416.93	2916.31
417.12	3038.02
417.31	3038.02
417.50	3000.57
417.69	3148.02
417.88	3080.14
418.07	3108.23
418.26	3178.45
418.45	3084.83
418.64	3119.93
418.83	3215.90
419.02	3339.94
419.21	3243.98
419.39	3236.96
419.58	3145.68
419.77	3124.62
419.96	3295.47
420.15	3389.10
420.34	3368.03
420.53	3342.28
420.72	3447.61
420.91	3304.84
421.10	3412.50
421.29	3463.99
421.48	3410.16
421.67	3447.61
421.86	3375.05
422.05	3482.72
422.24	3475.70
422.43	3386.76
422.61	3569.32
422.80	3492.08
422.99	3517.83
423.18	3513.14
423.37	3562.30
423.56	3620.81
423.75	3492.08
423.94	3569.32
424.13	3304.84
424.32	3545.91
424.50	3557.61
424.69	3644.21
424.88	3667.62
425.07	3524.85
425.26	3597.40
425.45	3578.68
425.64	3658.26
425.83	3466.33
426.01	3716.77
426.20	3723.79
426.39	3531.87
426.58	3662.94
426.77	3620.81
426.96	3639.53
427.15	3632.51
427.33	3719.11
427.52	3676.98
427.71	3756.56
427.90	3712.09
428.09	3920.40
428.28	3927.42
428.46	3786.99
428.65	3684.00
428.84	3988.27
429.03	3955.51
429.22	3751.88
429.40	3744.86
429.59	3791.67
429.78	3705.07
429.97	3618.47
430.16	3667.62
430.34	3730.81
430.53	3878.27
430.72	3995.29
430.91	3950.82
431.10	3967.21
431.28	4072.53
431.47	4145.09
431.66	4245.73
431.85	4105.30
432.03	4212.96
432.22	4290.20
432.41	4131.05
432.60	4280.84
432.79	4290.20
432.97	4334.67
433.16	4329.99
433.35	4308.93
433.54	4283.18
433.72	4341.69
433.91	4404.89
434.10	4341.69
434.28	4379.14
434.47	4374.46
434.66	4362.76
434.85	4550.00
435.03	4620.22
435.22	4299.56
435.41	4617.88
435.59	4674.05
435.78	4599.15
435.97	4645.96
436.16	4744.27
436.34	4641.28
436.53	4667.03
436.72	4786.40
436.90	4561.70
437.09	4699.80
437.28	4507.87
437.46	4667.03
437.65	4727.88
437.84	4753.63
438.02	4814.48
438.21	4734.90
438.40	4711.50
438.58	4800.44
438.77	4882.36
438.96	4938.53
439.14	5055.56
439.33	5102.37
439.52	5203.01
439.70	5111.73
439.89	5198.33
440.08	5146.84
440.26	5200.67
440.45	5156.20
440.63	5247.48
440.82	5469.83
441.01	5390.25
441.19	5439.40
441.38	5514.30
441.57	5647.71
441.75	5444.09
441.94	5710.91
442.12	5692.18
442.31	5888.79
442.50	5654.73
442.68	5540.05
442.87	5603.24
443.05	5811.55
443.24	5916.87
443.43	5900.49
443.61	5930.92
443.80	6097.10
443.98	5792.83
444.17	5710.91
444.35	6113.48
444.54	6026.88
444.73	5853.68
444.91	5846.66
445.10	5774.10
445.28	5949.64
445.47	5881.77
445.65	5764.74
445.84	5722.61
446.02	5975.39
446.21	5954.32
446.39	5865.38
446.58	6141.57
446.77	6059.65
446.95	5834.96
447.14	5895.81
447.32	6083.05
447.51	6148.59
447.69	6115.82
447.88	6211.78
448.06	6076.03
448.25	6047.94
448.43	6183.70
448.62	6139.23
448.80	6162.63
448.99	6015.18
449.17	6125.18
449.36	5998.79
449.54	6296.04
449.73	6469.24
449.91	6494.99
450.10	6361.58
450.28	6581.59
450.46	6530.09
450.65	6614.35
450.83	6401.37
451.02	6466.90
451.20	6541.80
451.39	6558.18
451.57	6459.88
451.76	6431.79
451.94	6490.31
452.13	6630.74
452.31	6370.94
452.49	6338.17
452.68	6654.14
452.86	6590.95
453.05	6555.84
453.23	6633.08
453.42	6516.05
453.60	6693.93
453.78	6729.04
453.97	6576.91
454.15	6846.07
454.34	6942.03
454.52	6855.43
454.70	6890.54
454.89	6918.62
455.07	6916.28
455.26	7016.93
455.44	6932.67
455.62	7042.67
455.81	6942.03
455.99	6864.79
456.17	6925.65
456.36	6951.39
456.54	7136.29
456.73	7405.46
456.91	7487.37
457.09	7372.69
457.28	7314.17
457.46	7274.38
457.64	7414.82
457.83	7344.60
458.01	7258.00
458.19	7391.41
458.38	7424.18
458.56	7449.93
458.74	7576.31
458.93	7550.57
459.11	7709.72
459.29	7377.37
459.48	7583.34
459.66	7330.56
459.84	7709.72
460.03	7674.62
460.21	7744.83
460.39	7730.79
460.57	7705.04
460.76	7693.34
460.94	7967.18
461.12	7969.52
461.31	7822.07
461.49	7957.82
461.67	7875.90
461.85	8224.64
462.04	7906.33
462.22	8184.85
462.40	8189.53
462.59	8006.97
462.77	8187.19
462.95	8070.17
463.13	7922.71
463.32	8116.98
463.50	8149.75
463.68	8208.26
463.86	8322.94
464.05	8182.51
464.23	8035.06
464.41	8290.18
464.59	8140.38
464.78	8449.33
464.96	8201.24
465.14	8217.62
465.32	8369.76
465.50	8594.45
465.69	8559.34
465.87	8390.82
466.05	8346.35
466.23	8304.22
466.41	8514.87
466.60	8716.16
466.78	8468.06
466.96	8428.27
467.14	8500.83
467.32	8554.66
467.51	8727.86
467.69	8528.91
467.87	8631.90
468.05	8648.28
468.23	8592.11
468.41	8624.87
468.60	8659.98
468.78	8802.75
468.96	8779.35
469.14	8847.22
469.32	8655.30
469.50	8657.64
469.69	9006.38
469.87	9029.79
470.05	9142.13
470.23	8971.27
470.41	8954.89
470.59	9022.77
470.77	8982.98
470.95	9123.41
471.14	9329.38
471.32	9139.79
471.50	9509.60
471.68	9308.31
471.86	9490.87
472.04	9418.32
472.22	9610.24
472.40	9511.94
472.58	9537.68
472.77	9415.98
472.95	9514.28
473.13	10104.09
473.31	9806.84
473.49	9706.20
473.67	9570.45
473.85	9593.86
474.03	10113.45
474.21	10031.54
474.39	10193.03
474.57	10094.73
474.75	10244.52
474.93	10534.75
475.12	10352.19
475.30	10347.51
475.48	10445.81
475.66	10466.88
475.84	10143.88
476.02	10490.28
476.20	10391.98
476.38	10846.04
476.56	10939.66
476.74	10839.02
476.92	10820.30
477.10	10832.00
477.28	10977.11
477.46	11178.40
477.64	11250.96
477.82	11276.70
478.00	11702.68
478.18	11461.60
478.36	11358.62
478.54	11693.32
478.72	11700.34
478.90	11955.46
479.08	11908.65
479.26	12065.46
479.44	11992.90
479.62	11999.93
479.80	12280.79
479.98	12168.45
480.16	12776.98
480.34	12358.03
480.52	12559.31
480.70	12430.59
480.88	12510.16
481.06	12547.61
481.24	12725.49
481.41	13029.76
481.59	13170.19
481.77	13296.58
481.95	13408.93
482.13	13444.04
482.31	13401.91
482.49	13862.99
482.67	13678.09
482.85	13919.17
483.03	13949.59
483.21	13996.40
483.39	14270.25
483.57	14214.07
483.74	14506.64
483.92	14319.40
484.10	14527.71
484.28	14539.41
484.46	14555.79
484.64	15009.86
484.82	14923.26
485.00	15084.75
485.18	15227.53
485.35	15190.08
485.53	15307.10
485.71	14850.70
485.89	15133.90
486.07	15152.63
486.25	15779.89
486.43	15508.39
486.61	15756.49
486.78	16123.95
486.96	16255.02
487.14	16503.12
487.32	16376.73
487.50	16535.88
487.68	16875.26
487.85	16917.39
488.03	17053.14
488.21	17081.23
488.39	17205.28
488.57	16987.61
488.75	17694.45
488.92	17577.42
489.10	17767.01
489.28	17958.93
489.46	18113.41
489.64	18221.07
489.81	18499.59
489.99	18621.30
490.17	18686.84
490.35	18665.77
490.53	18675.13
490.70	19098.77
490.88	18838.97
491.06	19145.58
491.24	19101.11
491.41	19014.51
491.59	19412.40
491.77	19264.95
491.95	19749.44
492.13	19929.66
492.30	20123.93
492.48	19845.40
492.66	20280.74
492.84	20107.54
493.01	20301.81
493.19	20173.08
493.37	21064.82
493.54	20884.60
493.72	20683.31
493.90	20978.22
494.08	21020.35
494.25	21376.11
494.43	21593.78
494.61	21488.46
494.79	21598.46
494.96	21671.02
495.14	21731.87
495.32	21944.86
495.49	22019.76
495.67	21895.71
495.85	22387.22
496.02	22593.19
496.20	22773.41
496.38	22834.27
496.55	22576.81
496.73	23009.81
496.91	22630.64
497.09	23215.77
497.26	23117.47
497.44	23391.31
497.62	23585.58
497.79	23686.22
497.97	23498.98
498.14	23709.63
498.32	23903.89
498.50	24133.26
498.67	24386.04
498.85	24004.53
499.03	24233.91
499.20	24240.93
499.38	24379.02
499.56	24465.62
499.73	24482.00
499.91	24898.62
500.08	24805.00
500.26	24437.53
500.44	24694.99
500.61	25039.05
500.79	24767.55
500.97	25083.52
501.14	25338.64
501.32	25238.00
501.49	25254.38
501.67	25179.48
501.84	25776.32
502.02	25724.83
502.20	25825.47
502.37	26113.36
502.55	25935.48
502.72	25996.33
502.90	26111.02
503.07	25909.73
503.25	26045.48
503.43	26263.15
503.60	26246.77
503.78	26424.65
503.95	26639.98
504.13	26164.85
504.30	27122.13
504.48	26693.81
504.65	27136.17
504.83	27044.89
505.01	27096.38
505.18	27054.25
505.36	27297.67
505.53	27168.94
505.71	27875.78
505.88	27218.09
506.06	27360.86
506.23	27632.36
506.41	27611.30
506.58	27838.33
506.76	27894.50
506.93	28137.92
507.11	27634.71
507.28	28144.94
507.46	28397.72
507.63	27976.42
507.81	28278.35
507.98	28133.24
508.16	28367.29
508.33	28613.05
508.50	29003.92
508.68	28889.23
508.85	29448.62
509.03	28664.54
509.20	29010.94
509.38	29170.10
509.55	29001.58
509.73	29373.72
509.90	29385.43
510.08	29418.19
510.25	29172.44
510.42	29310.53
510.60	29713.10
510.77	29514.16
510.95	29844.17
511.12	30064.18
511.30	30202.27
511.47	30309.94
511.64	30253.76
511.82	30356.75
511.99	30345.05
512.17	30040.78
512.34	30108.65
512.51	30492.50
512.69	30632.93
512.86	30876.35
513.04	30625.91
513.21	31047.21
513.38	30675.06
513.56	30991.03
513.73	30766.34
513.90	31281.26
514.08	30822.51
514.25	31475.52
514.43	31681.49
514.60	31152.53
514.77	31414.67
514.95	31700.22
515.12	31784.48
515.29	31079.97
515.47	31894.48
515.64	32376.63
515.81	31573.83
515.99	31747.03
516.16	31573.83
516.33	31641.70
516.51	31981.08
516.68	31831.29
516.85	31697.88
517.03	31847.67
517.20	32086.40
517.37	32058.32
517.54	32294.71
517.72	32493.66
517.89	31955.33
518.06	31983.42
518.24	32105.13
518.41	32606.00
518.58	32432.80
518.75	32519.40
518.93	32795.59
519.10	32634.09
519.27	33132.62
519.45	32849.42
519.62	33511.79
519.79	33305.82
519.96	33298.80
520.14	33385.40
520.31	33383.06
520.48	33474.34
520.65	33333.91
520.83	33825.42
521.00	34045.43
521.17	34211.61
521.34	33977.56
521.52	33785.63
521.69	33897.98
521.86	34061.82
522.03	34080.54
522.20	34033.73
522.38	34274.80
522.55	34539.29
522.72	34466.73
522.89	34204.59
523.07	34429.28
523.24	34588.44
523.41	34848.24
523.58	34808.45
523.75	35124.42
523.92	35131.44
524.10	35393.58
524.27	34618.86
524.44	35374.86
524.61	35400.60
524.78	35264.85
524.96	35637.00
525.13	35480.18
525.30	35461.46
525.47	35840.62
525.64	35552.74
525.81	35283.58
525.98	35526.99
526.16	35777.43
526.33	35281.24
526.50	35859.35
526.67	35606.57
526.84	35765.73
527.01	35601.89
527.18	35695.51
527.36	36219.79
527.53	36224.47
527.70	36397.67
527.87	36271.28
528.04	36311.07
528.21	36273.62
528.38	36252.56
528.55	36491.29
528.72	36498.31
528.89	36704.28
529.07	36484.27
529.24	36371.92
529.41	36652.79
529.58	36711.30
529.75	36538.10
529.92	37146.64
530.09	37130.26
530.26	36952.38
530.43	37156.00
530.60	36802.58
530.77	37275.37
530.94	37266.01
531.11	36879.82
531.28	38089.88
531.46	37500.06
531.63	37296.44
531.80	37404.10
531.97	37544.53
532.14	37261.33
532.31	37455.59
532.48	37750.50
532.65	37923.70
532.82	37813.70
532.99	37776.25
533.16	37778.59
533.33	37537.51
533.50	38412.87
533.67	38089.88
533.84	37797.31
534.01	37956.47
534.18	37881.57
534.35	38410.53
534.52	38185.84
534.69	38267.76
534.86	38298.19
535.03	38197.54
535.20	38532.24
535.37	38450.32
535.54	38728.84
535.71	38256.06
535.88	38234.99
536.05	38094.56
536.22	38749.91
536.38	38778.00
536.55	38834.17
536.72	39054.18
536.89	38576.71
537.06	38642.24
537.23	38817.78
537.40	39098.65
537.57	39126.74
537.74	39292.91
537.91	39360.79
538.08	39157.16
538.25	38735.87
538.42	38831.83
538.59	39339.72
538.75	38990.98
538.92	39002.69
539.09	39257.81
539.26	39571.44
539.43	39555.05
539.60	39571.44
539.77	39388.88
539.94	39597.18
540.11	39175.89
540.28	40006.78
540.44	39622.93
540.61	39346.75
540.78	39632.29
540.95	39849.96
541.12	39323.34
541.29	39793.79
541.46	39966.99
541.62	39779.74
541.79	40091.04
541.96	39704.85
542.13	39842.94
542.30	40175.30
542.47	39824.22
542.63	40261.90
542.80	39969.33
542.97	40634.04
543.14	40884.48
543.31	40814.26
543.48	41062.36
543.64	41060.02
543.81	40636.38
543.98	40587.23
544.15	40821.28
544.32	40832.99
544.48	41207.47
544.65	40964.06
544.82	41155.98
544.99	40942.99
545.16	40893.84
545.32	41055.34
545.49	41167.68
545.66	41933.04
545.83	41083.42
546.00	41453.23
546.16	41017.89
546.33	40790.86
546.50	40886.82
546.67	41422.80
546.83	40793.20
547.00	41268.33
547.17	40842.35
547.34	41450.89
547.50	41478.97
547.67	41675.58
547.84	41486.00
548.00	41876.86
548.17	41794.95
548.34	41890.91
548.51	41666.22
548.67	41720.05
548.84	42108.58
549.01	41659.20
549.18	41425.14
549.34	41918.99
549.51	42068.79
549.68	42171.77
549.84	41865.16
550.01	42066.45
550.18	41614.72
550.34	42068.79
550.51	41748.14
550.68	42087.51
550.84	41991.55
551.01	42651.58
551.18	42087.51
551.34	42108.58
551.51	42335.61
551.68	42319.23
551.84	42403.49
552.01	42000.91
552.18	42579.03
552.34	42169.43
552.51	42223.26
552.68	42433.91
552.84	42595.41
553.01	42887.98
553.18	42490.09
553.34	42604.77
553.51	42340.29
553.67	42550.94
553.84	43194.59
554.01	42625.84
554.17	42684.35
554.34	42824.78
554.51	42951.17
554.67	43054.15
554.84	42876.27
555.00	42637.54
555.17	42735.84
555.33	42913.72
555.50	42789.67
555.67	42827.12
555.83	42787.33
556.00	42733.50
556.16	43484.81
556.33	42733.50
556.50	42993.30
556.66	42794.36
556.83	42965.21
556.99	43583.12
557.16	43454.39
557.32	43695.46
557.49	43129.05
557.65	43220.33
557.82	42869.25
557.98	43192.25
558.15	43178.20
558.32	43084.58
558.48	43288.21
558.65	43012.02
558.81	42759.25
558.98	43330.34
559.14	43505.88
559.31	42990.96
559.47	43592.48
559.64	43859.30
559.80	43892.07
559.97	43374.81
560.13	43056.50
560.30	43346.72
560.46	43636.95
560.63	43367.79
560.79	43697.80
560.96	43489.49
561.12	43438.00
561.29	43643.97
561.45	43615.88
561.61	43969.30
561.78	44083.99
561.94	43580.78
562.11	43903.77
562.27	43438.00
562.44	43714.19
562.60	43948.24
562.77	44002.07
562.93	43540.99
563.10	43985.69
563.26	43655.67
563.42	44165.91
563.59	43445.02
563.75	43814.83
563.92	44121.44
564.08	43590.14
564.24	43793.76
564.41	44299.32
564.57	43674.40
564.74	43580.78
564.90	43510.56
565.07	44275.91
565.23	43889.73
565.39	44196.34
565.56	44112.08
565.72	43873.34
565.88	44091.01
566.05	43871.00
566.21	43761.00
566.38	44306.34
566.54	44687.85
566.70	44154.21
566.87	44456.14
567.03	44224.42
567.19	44409.32
567.36	44458.48
567.52	44219.74
567.68	44495.92
567.85	44091.01
568.01	44025.48
568.17	44098.03
568.34	44334.43
568.50	44208.04
568.66	44069.95
568.83	44179.95
568.99	43643.97
569.15	44098.03
569.32	44208.04
569.48	43985.69
569.64	44194.00
569.81	44439.75
569.97	44100.37
570.13	44322.72
570.30	44341.45
570.46	43840.57
570.62	44252.51
570.78	44137.82
570.95	44287.62
571.11	44149.53
571.27	44437.41
571.43	44339.11
571.60	44058.24
571.76	44109.74
571.92	43976.33
572.09	44311.02
572.25	44287.62
572.41	44552.10
572.57	44322.72
572.74	44643.38
572.90	44116.76
573.06	44479.54
573.22	44516.99
573.38	44594.23
573.55	44423.37
573.71	44362.51
573.87	44666.78
574.03	44320.38
574.20	44818.92
574.36	44481.88
574.52	44308.68
574.68	44296.98
574.84	44502.95
575.01	44584.86
575.17	44552.10
575.33	44320.38
575.49	44083.99
575.65	44811.90
575.82	44222.08
575.98	44250.17
576.14	44596.57
576.30	44458.48
576.46	44252.51
576.62	44638.70
576.79	44453.79
576.95	44428.05
577.11	44470.18
577.27	44416.35
577.43	44556.78
577.59	44683.17
577.75	44556.78
577.92	43950.58
578.08	44196.34
578.24	44521.67
578.40	44552.10
578.56	44690.19
578.72	44528.69
578.88	44772.11
579.04	44486.56
579.21	44369.54
579.37	44299.32
579.53	44626.99
579.69	44528.69
579.85	44222.08
580.01	44701.89
580.17	44928.92
580.33	44591.89
580.49	44772.11
580.65	44774.45
580.82	44479.54
580.98	44339.11
581.14	44547.42
581.30	44758.06
581.46	44781.47
581.62	44662.10
581.78	44865.73
581.94	44875.09
582.10	44727.64
582.26	44788.49
582.42	44842.32
582.58	44514.65
582.74	44547.42
582.90	44584.86
583.06	44933.60
583.22	44931.26
583.38	45207.45
583.54	44935.95
583.70	44481.88
583.86	44357.83
584.02	44456.14
584.18	44587.21
584.34	44737.00
584.50	44612.95
584.66	44783.81
584.82	44568.48
584.98	44655.08
585.14	44561.46
585.30	44933.60
585.46	44863.39
585.62	44397.62
585.78	44746.36
585.94	44662.10
586.10	44896.16
586.26	44556.78
586.42	44507.63
586.58	45069.36
586.74	44474.86
586.90	44591.89
587.06	44755.72
587.22	44636.36
587.38	43990.37
587.54	44851.69
587.70	44863.39
587.86	44779.13
588.02	44818.92
588.18	44992.12
588.34	44687.85
588.49	44245.49
588.65	43983.35
588.81	44828.28
588.97	44725.30
589.13	44282.94
589.29	44526.35
589.45	44797.85
589.61	44561.46
589.77	45052.97
589.93	45088.08
590.08	44877.43
590.24	44905.52
590.40	44987.44
590.56	44847.00
590.72	45261.28
590.88	44940.63
591.04	44973.39
591.20	45287.03
591.35	45041.27
591.51	45036.59
591.67	45113.83
591.83	45422.78
591.99	44952.33
592.15	44907.86
592.31	44783.81
592.46	44912.54
592.62	44779.13
592.78	45198.09
592.94	44877.43
593.10	44891.48
593.26	45193.40
593.41	44966.37
593.57	44435.07
593.73	44921.90
593.89	45043.61
594.05	44673.81
594.20	45041.27
594.36	45319.79
594.52	44828.28
594.68	45170.00
594.84	44692.53
594.99	45174.68
595.15	45235.53
595.31	45181.70
595.47	45043.61
595.62	45099.78
595.78	45095.10
595.94	44999.14
596.10	45160.64
596.25	45289.37
596.41	45429.80
596.57	45287.03
596.73	45120.85
596.88	44940.63
597.04	44823.60
597.20	44741.68
597.36	45008.50
597.51	45179.36
597.67	45095.10
597.83	45565.55
597.99	45289.37
598.14	45483.63
598.30	45301.07
598.46	44870.41
598.61	45024.89
598.77	44788.49
598.93	45375.97
599.09	44783.81
599.24	45228.51
599.40	45354.90
599.56	45170.00
599.71	45226.17
599.87	45418.10
600.03	45240.21
600.18	44720.62
600.34	45160.64
600.50	44886.79
600.65	45043.61
600.81	45139.57
600.97	45530.44
601.12	45549.17
601.28	44910.20
601.44	44982.76
601.59	44949.99
601.75	45022.54
601.91	44844.66
602.06	44715.93
602.22	45024.89
602.37	45048.29
602.53	44914.88
602.69	45134.89
602.84	45191.06
603.00	44678.49
603.16	45043.61
603.31	44952.33
603.47	44835.30
603.62	44926.58
603.78	44999.14
603.94	44851.69
604.09	45212.13
604.25	45378.31
604.40	45104.46
604.56	44989.78
604.71	45350.22
604.87	44514.65
605.03	44699.55
605.18	44924.24
605.34	44818.92
605.49	44828.28
605.65	45031.91
605.80	44863.39
605.96	44598.91
606.12	45272.98
606.27	45085.74
606.43	45134.89
606.58	45284.68
606.74	44659.76
606.89	45162.98
607.05	44437.41
607.20	44835.30
607.36	44861.05
607.51	44484.22
607.67	44912.54
607.82	44842.32
607.98	44708.91
608.13	44533.37
608.29	44671.46
608.44	44685.51
608.60	44542.74
608.75	44135.48
608.91	44514.65
609.06	45067.02
609.22	45001.48
609.37	44109.74
609.53	44418.69
609.68	44465.50
609.84	44453.79
609.99	44772.11
610.15	44587.21
610.30	44364.85
610.46	44350.81
610.61	44135.48
610.76	44589.55
610.92	44371.88
611.07	44507.63
611.23	44671.46
611.38	44636.36
611.54	44631.68
611.69	44406.98
611.84	44561.46
612.00	44177.61
612.15	44081.65
612.31	44306.34
612.46	44299.32
612.62	44102.71
612.77	44402.30
612.92	44547.42
613.08	43826.53
613.23	43849.94
613.39	44491.24
613.54	44051.22
613.69	44357.83
613.85	43775.04
614.00	44229.10
614.15	44364.85
614.31	44458.48
614.46	44268.89
614.62	43957.60
614.77	43704.82
614.92	44355.49
615.08	43681.42
615.23	43995.05
615.38	43676.74
615.54	43690.78
615.69	43508.22
615.84	43592.48
616.00	43971.64
616.15	44009.09
616.30	43892.07
616.46	43342.04
616.61	43763.34
616.76	43627.59
616.92	43124.37
617.07	43405.23
617.22	43779.72
617.37	43594.82
617.53	44020.80
617.68	44032.50
617.83	43597.16
617.99	43714.19
618.14	43941.22
618.29	43573.75
618.45	43264.80
618.60	43328.00
618.75	43391.19
618.90	43112.67
619.06	43613.54
619.21	43597.16
619.36	43758.66
619.51	43309.27
619.67	43456.73
619.82	43372.47
619.97	43302.25
620.12	43318.64
620.28	42808.40
620.43	42600.09
620.58	43517.58
620.73	43140.75
620.89	43391.19
621.04	43147.78
621.19	43693.12
621.34	43414.60
621.49	42747.54
621.65	43213.31
621.80	43154.80
621.95	42770.95
622.10	42419.87
622.25	42944.15
622.41	42955.85
622.56	42686.69
622.71	42969.90
622.86	42476.04
623.01	42663.28
623.16	42609.45
623.32	42682.01
623.47	42630.52
623.62	42660.94
623.77	42787.33
623.92	42789.67
624.07	42405.83
624.23	42611.79
624.38	42478.38
624.53	42394.12
624.68	42316.89
624.83	42447.96
624.98	42595.41
625.13	42071.13
625.29	42279.44
625.44	42007.94
625.59	42167.09
625.74	41731.75
625.89	41844.10
626.04	41972.83
626.19	41813.67
626.34	41975.17
626.49	42403.49
626.65	42330.93
626.80	42445.62
626.95	42466.68
627.10	41846.44
627.25	41900.27
627.40	41535.15
627.55	41918.99
627.70	41724.73
627.85	41787.92
628.00	42047.72
628.15	41736.43
628.30	41703.67
628.45	41844.10
628.60	41897.93
628.76	41965.81
628.91	41876.86
629.06	41635.79
629.21	41572.60
629.36	41769.20
629.51	41413.44
629.66	41303.43
629.81	41228.54
629.96	41483.66
630.11	41413.44
630.26	41584.30
630.41	41497.70
630.56	41666.22
630.71	41113.85
630.86	41219.17
631.01	40786.18
631.16	41060.02
631.31	41221.52
631.46	41308.11
631.61	41048.32
631.76	41090.44
631.91	41448.55
632.06	41464.93
632.21	41207.47
632.36	41621.75
632.51	41013.21
632.66	40999.16
632.81	40437.44
632.96	41106.83
633.10	40947.67
633.25	41116.19
633.40	40942.99
633.55	40971.08
633.70	40830.65
633.85	40678.51
634.00	40437.44
634.15	40994.48
634.30	40931.29
634.45	40694.89
634.60	40531.06
634.75	40610.64
634.90	40856.39
635.05	40596.59
635.19	40488.93
635.34	40823.62
635.49	40547.44
635.64	40559.14
635.79	40065.29
635.94	40233.81
636.09	40226.79
636.24	40128.48
636.39	40350.84
636.53	40128.48
636.68	39950.60
636.83	40320.41
636.98	40004.44
637.13	39931.88
637.28	40545.10
637.43	40837.67
637.57	40502.97
637.72	40037.20
637.87	39842.94
638.02	40240.83
638.17	40329.77
638.32	40313.39
638.46	40222.11
638.61	40135.51
638.76	39849.96
638.91	40046.57
639.06	40257.21
639.20	40011.46
639.35	40275.94
639.50	39880.39
639.65	40458.50
639.80	40123.80
639.94	39508.24
640.09	39646.33
640.24	39908.47
640.39	39243.76
640.54	39524.63
640.68	39639.31
640.83	39721.23
640.98	39744.64
641.13	39662.72
641.27	39871.03
641.42	39049.50
641.57	39555.05
641.72	39559.73
641.86	39234.40
642.01	39353.77
642.16	39203.97
642.31	39108.01
642.45	39545.69
642.60	39063.54
642.75	38892.68
642.90	39325.68
643.04	39159.50
643.19	39103.33
643.34	39295.25
643.48	38586.07
643.63	39093.97
643.78	38902.04
643.93	39175.89
644.07	39012.05
644.22	39112.69
644.37	38866.94
644.51	38665.65
644.66	39110.35
644.81	38660.97
644.95	38888.00
645.10	39084.61
645.25	39199.29
645.39	39000.35
645.54	39171.21
645.69	38775.66
645.83	38682.03
645.98	38597.77
646.13	38691.40
646.27	39079.92
646.42	38962.90
646.57	39051.84
646.71	38866.94
646.86	39133.76
647.00	38799.06
647.15	38841.19
647.30	38569.69
647.44	38164.78
647.59	38384.79
647.74	38244.35
647.88	38246.69
648.03	38464.36
648.17	38305.21
648.32	38368.40
648.47	38220.95
648.61	37684.97
648.76	38164.78
648.90	38309.89
649.05	38305.21
649.20	38342.66
649.34	38054.77
649.49	37717.73
649.63	38157.75
649.78	37804.33
649.92	37703.69
650.07	38649.27
650.21	37979.87
650.36	37961.15
650.51	38026.68
650.65	38167.12
650.80	38539.26
650.94	38295.85
651.09	38316.91
651.23	37773.91
651.38	38054.77
651.52	37883.91
651.67	38045.41
651.81	37390.06
651.96	37502.40
652.10	37530.49
652.25	37759.86
652.39	37516.45
652.54	38007.96
652.68	37926.04
652.83	37731.78
652.97	37862.85
653.12	37769.22
653.26	37486.02
653.41	37364.31
653.55	37404.10
653.70	37464.96
653.84	37619.43
653.99	37106.85
654.13	36870.46
654.27	37656.88
654.42	37273.03
654.56	37411.12
654.71	37546.87
654.85	37258.99
655.00	37577.30
655.14	37064.72
655.29	37165.37
655.43	37240.26
655.57	36950.04
655.72	36605.98
655.86	36479.59
656.01	36896.20
656.15	36662.15
656.30	37036.64
656.44	36968.76
656.58	36935.99
656.73	36978.12
656.87	36503.00
657.01	36999.19
657.16	36905.57
657.30	36531.08
657.45	36535.76
657.59	36591.94
657.73	36610.66
657.88	36992.17
658.02	37186.43
658.16	36968.76
658.31	36765.14
658.45	36643.43
658.60	36191.70
658.74	36465.55
658.88	36395.33
659.03	36425.76
659.17	36601.30
659.31	36275.96
659.46	36367.24
659.60	36554.49
659.74	36650.45
659.89	36292.35
660.03	36088.72
660.17	36149.57
660.32	35646.36
660.46	35868.71
660.60	35849.99
660.74	36107.44
660.89	36137.87
661.03	35978.72
661.17	35896.80
661.32	35637.00
661.46	35412.31
661.60	35599.55
661.74	35487.20
661.89	35276.55
662.03	35861.69
662.17	35299.96
662.31	35194.64
662.46	35587.85
662.60	35501.25
662.74	35290.60
662.88	35192.30
663.03	34941.86
663.17	35082.29
663.31	35131.44
663.45	35019.10
663.60	34930.16
663.74	34445.66
663.88	34831.85
664.02	34705.46
664.17	34611.84
664.31	34852.92
664.45	34609.50
664.59	35082.29
664.73	34660.99
664.88	34356.72
665.02	34302.89
665.16	34462.05
665.30	33738.82
665.44	34242.04
665.59	33951.81
665.73	34120.33
665.87	33582.01
666.01	34099.26
666.15	34115.65
666.29	34099.26
666.44	33975.22
666.58	33851.17
666.72	34033.73
666.86	34153.10
667.00	33855.85
667.14	33514.13
667.28	33773.93
667.43	34040.75
667.57	33799.68
667.71	33518.81
667.85	33324.55
667.99	33240.29
668.13	33165.39
668.27	33614.77
668.41	33270.72
668.56	32950.06
668.70	33605.41
668.84	32943.04
668.98	32907.93
669.12	32959.42
669.26	32898.57
669.40	32891.55
669.54	32357.91
669.68	32851.76
669.82	32900.91
669.96	32549.83
670.10	32437.48
670.25	32526.42
670.39	32549.83
670.53	32055.98
670.67	32084.06
670.81	32264.28
670.95	32334.50
671.09	32247.90
671.23	32215.13
671.37	32063.00
671.51	31943.63
671.65	32360.25
671.79	32016.19
671.93	31850.01
672.07	31812.56
672.21	31929.59
672.35	31253.17
672.49	31597.23
672.63	31723.62
672.77	31892.14
672.91	31407.65
673.05	31281.26
673.19	31400.63
673.33	31409.99
673.47	31094.02
673.61	31061.25
673.75	30958.27
673.89	30789.75
674.03	30934.86
674.17	30298.23
674.31	30902.09
674.45	31112.74
674.59	30707.83
674.73	30974.65
674.87	30775.70
675.01	30342.70
675.15	30520.59
675.29	30492.50
675.43	30284.19
675.56	30443.35
675.70	29998.65
675.84	30073.54
675.98	29413.51
676.12	29823.11
676.26	29963.54
676.40	29860.55
676.54	29724.80
676.68	29916.73
676.82	29252.02
676.96	29408.83
677.10	29460.32
677.23	29127.97
677.37	29317.55
677.51	28994.56
677.65	28809.65
677.79	28821.36
677.93	28500.70
678.07	28842.42
678.21	28240.90
678.34	28641.14
678.48	28547.51
678.62	28367.29
678.76	28041.96
678.90	27857.06
679.04	27786.84
679.18	27805.56
679.31	27527.04
679.45	27871.10
679.59	27344.48
679.73	27597.26
679.87	27421.72
680.00	27182.98
680.14	27213.41
680.28	27229.79
680.42	27220.43
680.56	27140.85
680.70	27316.39
680.83	27227.45
680.97	27117.45
681.11	27096.38
681.25	26597.85
681.39	26394.22
681.52	26923.18
681.66	26242.09
681.80	26553.38
681.94	26934.88
682.07	26684.45
682.21	26469.12
682.35	26036.12
682.49	26171.87
682.62	26148.46
682.76	25790.36
682.90	25738.87
683.04	25661.63
683.17	25458.01
683.31	25277.79
683.45	25303.53
683.59	25556.31
683.72	25118.63
683.86	24879.89
684.00	24793.29
684.13	25500.14
684.27	25017.99
684.41	24994.58
684.55	24856.49
684.68	24819.04
684.82	24465.62
684.96	24240.93
685.09	24568.60
685.23	24589.67
685.37	24449.24
685.50	24451.58
685.64	24056.03
685.78	23943.68
685.91	23969.43
686.05	23728.35
686.19	23772.82
686.32	23859.42
686.46	23309.40
686.60	23328.12
686.73	23508.34
686.87	23332.80
687.01	22754.69
687.14	23035.55
687.28	22904.48
687.42	23236.84
687.55	22977.04
687.69	23330.46
687.82	22548.72
687.96	22555.74
688.10	22579.15
688.23	22434.03
688.37	22148.49
688.50	21717.83
688.64	21998.70
688.78	21862.94
688.91	22263.18
689.05	22230.41
689.18	21844.22
689.32	21610.17
689.46	21834.86
689.59	21839.54
689.73	21776.34
689.86	21556.33
690.00	21586.76
690.13	21341.00
690.27	21490.80
690.41	21263.77
690.54	21001.63
690.68	20905.66
690.81	20858.85
690.95	20629.48
691.08	20879.92
691.22	20847.15
691.35	20837.79
691.49	21034.39
691.62	20648.21
691.76	20643.52
691.89	20620.12
692.03	20294.79
692.16	20372.02
692.30	20322.87
692.43	20049.03
692.57	20013.92
692.70	19936.68
692.84	19758.80
692.97	19641.78
693.11	19791.57
693.24	19580.92
693.38	19665.18
693.51	19398.36
693.65	19510.71
693.78	19421.77
693.92	19545.81
694.05	19323.46
694.19	19173.67
694.32	18834.29
694.45	19058.98
694.59	18696.20
694.72	18831.95
694.86	18497.25
694.99	18548.75
695.13	18614.28
695.26	18476.19
695.39	18200.01
695.53	18190.64
695.66	18068.94
695.80	18314.69
695.93	18141.49
696.07	17949.57
696.20	17919.14
696.33	17982.34
696.47	18066.60
696.60	17790.41
696.73	17383.16
696.87	17556.36
697.00	17928.50
697.14	17238.05
697.27	17268.47
697.40	17369.12
697.54	17106.98
697.67	17282.52
697.80	17336.35
697.94	16800.37
698.07	16737.17
698.21	16695.04
698.34	16732.49
698.47	16875.26
698.61	16318.22
698.74	16465.67
698.87	16369.71
699.01	16358.00
699.14	16042.03
699.27	16215.23
699.40	16390.77
699.54	15805.64
699.67	15756.49
699.80	16006.92
699.94	16044.37
700.07	15571.58
700.20	15580.95
700.34	15597.33
700.47	15651.16
700.60	15775.21
700.73	16119.27
700.87	15517.75
701.00	15620.74
701.13	15632.44
701.26	15229.87
701.40	15089.43
701.53	15138.58
701.66	15138.58
701.79	14932.62
701.93	14986.45
702.06	14771.12
702.19	14806.23
702.32	14644.73
702.46	14396.64
702.59	14661.12
702.72	14607.28
702.85	14469.19
702.99	14253.86
703.12	14438.76
703.25	14307.69
703.38	14118.11
703.51	14045.55
703.65	14178.97
703.78	14429.40
703.91	14085.34
704.04	14015.13
704.17	14111.09
704.31	13774.05
704.44	13703.84
704.57	13710.86
704.70	13844.27
704.83	13647.66
704.96	13563.40
705.10	13769.37
705.23	13331.69
>>>>>End Processed Spectral Data<<<<<
