SpectraSuite Data File
++++++++++++++++++++++++++++++++++++
Date: Fri Oct 25 10:44:54 EDT 2013
User: price-jones
Dark Spectrum Present: No
Reference Spectrum Present: No
Number of Sampled Component Spectra: 1
Spectrometers: USB2+H05261
Integration Time (usec): 100000 (USB2+H05261)
Spectra Averaged: 1 (USB2+H05261)
Boxcar Smoothing: 0 (USB2+H05261)
Correct for Electrical Dark: No (USB2+H05261)
Strobe/Lamp Enabled: No (USB2+H05261)
Correct for Detector Non-linearity: No (USB2+H05261)
Correct for Stray Light: No (USB2+H05261)
Number of Pixels in Processed Spectrum: 2048
>>>>>Begin Processed Spectral Data<<<<<
365.73	154.48
365.92	154.48
366.12	154.48
366.32	70.22
366.52	58.51
366.72	46.81
366.91	0.00
367.11	0.00
367.31	37.45
367.51	16.38
367.70	0.00
367.90	44.47
368.10	39.79
368.30	44.47
368.49	23.41
368.69	53.83
368.89	0.00
369.09	23.41
369.28	32.77
369.48	42.13
369.68	32.77
369.87	86.60
370.07	18.72
370.27	93.62
370.47	210.65
370.66	351.08
370.86	348.74
371.06	440.02
371.25	486.83
371.45	435.34
371.65	421.30
371.84	418.96
372.04	468.11
372.24	451.72
372.44	505.56
372.63	465.77
372.83	538.32
373.03	493.85
373.22	521.94
373.42	545.34
373.62	477.47
373.81	503.22
374.01	526.62
374.21	554.71
374.40	613.22
374.60	528.96
374.79	498.53
374.99	503.22
375.19	540.66
375.38	543.00
375.58	610.88
375.78	521.94
375.97	617.90
376.17	601.52
376.37	601.52
376.56	589.82
376.76	557.05
376.95	573.43
377.15	489.17
377.35	585.13
377.54	601.52
377.74	683.44
377.93	601.52
378.13	622.58
378.33	678.76
378.52	578.11
378.72	627.26
378.91	631.94
379.11	653.01
379.31	613.22
379.50	561.73
379.70	674.07
379.89	624.92
380.09	622.58
380.28	697.48
380.48	709.18
380.68	671.73
380.87	603.86
381.07	645.99
381.26	662.37
381.46	678.76
381.65	564.07
381.85	606.20
382.04	641.31
382.24	671.73
382.43	650.67
382.63	716.20
382.83	655.35
383.02	753.65
383.22	664.71
383.41	617.90
383.61	676.41
383.80	720.88
384.00	755.99
384.19	791.10
384.39	713.86
384.58	653.01
384.78	763.01
384.97	765.36
385.17	690.46
385.36	781.74
385.56	718.54
385.75	730.25
385.95	755.99
386.14	788.76
386.34	744.29
386.53	767.70
386.72	840.25
386.92	854.30
387.11	868.34
387.31	770.04
387.50	873.02
387.70	800.46
387.89	748.97
388.09	744.29
388.28	746.63
388.48	821.53
388.67	875.36
388.86	866.00
389.06	774.72
389.25	884.72
389.45	929.19
389.64	908.13
389.84	908.13
390.03	905.79
390.22	947.92
390.42	882.38
390.61	870.68
390.81	994.73
391.00	983.02
391.19	968.98
391.39	1020.47
391.58	887.06
391.78	966.64
391.97	961.96
392.16	929.19
392.36	968.98
392.55	1015.79
392.75	952.60
392.94	952.60
393.13	994.73
393.33	858.98
393.52	922.17
393.71	952.60
393.91	952.60
394.10	992.39
394.29	1018.13
394.49	1048.56
394.68	1102.39
394.88	1034.52
395.07	1170.27
395.26	1111.75
395.46	1128.14
395.65	1123.46
395.84	1151.54
396.04	1228.78
396.23	1146.86
396.42	1090.69
396.62	1130.48
396.81	1086.01
397.00	1165.59
397.19	1142.18
397.39	1186.65
397.58	1254.53
397.77	1214.74
397.97	1289.64
398.16	1233.46
398.35	1303.68
398.55	1259.21
398.74	1247.51
398.93	1310.70
399.12	1289.64
399.32	1277.93
399.51	1322.40
399.70	1341.13
399.90	1352.83
400.09	1343.47
400.28	1390.28
400.47	1411.34
400.67	1444.11
400.86	1451.13
401.05	1469.86
401.24	1551.78
401.44	1596.25
401.63	1401.98
401.82	1455.81
402.01	1516.67
402.21	1511.99
402.40	1584.54
402.59	1537.73
402.78	1521.35
402.97	1474.54
403.17	1600.93
403.36	1561.14
403.55	1565.82
403.74	1577.52
403.93	1624.33
404.13	1636.03
404.32	1610.29
404.51	1636.03
404.70	1633.69
404.89	1776.47
405.09	1713.27
405.28	1764.76
405.47	1748.38
405.66	1783.49
405.85	1809.23
406.05	1797.53
406.24	1746.04
406.43	1785.83
406.62	1813.92
406.81	1902.86
407.00	1799.87
407.20	1813.92
407.39	1729.66
407.58	1870.09
407.77	1823.28
407.96	1956.69
408.15	1954.35
408.34	1952.01
408.54	1952.01
408.73	2003.50
408.92	2010.52
409.11	2069.03
409.30	2139.25
409.49	2064.35
409.68	1973.07
409.87	1989.46
410.07	2040.95
410.26	2162.66
410.45	2101.80
410.64	2108.82
410.83	2218.83
411.02	2300.75
411.21	2427.14
411.40	2279.68
411.59	2211.81
411.78	2291.38
411.98	2340.54
412.17	2275.00
412.36	2328.83
412.55	2441.18
412.74	2429.48
412.93	2408.41
413.12	2385.01
413.31	2523.10
413.50	2457.56
413.69	2495.01
413.88	2562.89
414.07	2509.05
414.26	2572.25
414.45	2668.21
414.64	2593.31
414.83	2712.68
415.02	2710.34
415.22	2899.92
415.41	2710.34
415.60	2785.24
415.79	2803.96
415.98	2806.30
416.17	2740.77
416.36	2974.82
416.55	2911.63
416.74	2960.78
416.93	2869.50
417.12	2925.67
417.31	3075.46
417.50	3056.74
417.69	2991.20
417.88	3068.44
418.07	2928.01
418.26	3126.96
418.45	3098.87
418.64	3108.23
418.83	3162.06
419.02	3190.15
419.21	3101.21
419.39	3229.94
419.58	3197.17
419.77	3180.79
419.96	3281.43
420.15	3304.84
420.34	3382.07
420.53	3267.39
420.72	3353.99
420.91	3424.20
421.10	3272.07
421.29	3386.76
421.48	3335.26
421.67	3316.54
421.86	3461.65
422.05	3435.91
422.24	3515.48
422.43	3438.25
422.61	3501.44
422.80	3445.27
422.99	3468.67
423.18	3503.78
423.37	3461.65
423.56	3620.81
423.75	3583.36
423.94	3396.12
424.13	3262.71
424.32	3410.16
424.50	3529.53
424.69	3576.34
424.88	3763.58
425.07	3602.08
425.26	3447.61
425.45	3559.95
425.64	3543.57
425.83	3552.93
426.01	3627.83
426.20	3627.83
426.39	3604.42
426.58	3623.15
426.77	3398.46
426.96	3461.65
427.15	3543.57
427.33	3632.51
427.52	3599.74
427.71	3763.58
427.90	3702.73
428.09	3789.33
428.28	3688.68
428.46	3691.02
428.65	3859.54
428.84	3908.69
429.03	3868.91
429.22	3714.43
429.40	3845.50
429.59	3871.25
429.78	3660.60
429.97	3758.90
430.16	3648.90
430.34	3906.35
430.53	3758.90
430.72	3756.56
430.91	3796.35
431.10	3969.55
431.28	3983.59
431.47	4212.96
431.66	4079.55
431.85	4109.98
432.03	4166.15
432.22	4245.73
432.41	4023.38
432.60	4208.28
432.79	4088.92
432.97	4348.72
433.16	4222.33
433.35	4198.92
433.54	4109.98
433.72	4273.82
433.91	4287.86
434.10	4348.72
434.28	4451.70
434.47	4447.02
434.66	4589.79
434.85	4500.85
435.03	4472.76
435.22	4440.00
435.41	4671.71
435.59	4449.36
435.78	4533.62
435.97	4601.49
436.16	4510.21
436.34	4545.32
436.53	4514.89
436.72	4676.39
436.90	4601.49
437.09	4767.67
437.28	4578.09
437.46	4681.07
437.65	4709.16
437.84	4772.35
438.02	4615.54
438.21	4674.05
438.40	4669.37
438.58	4716.18
438.77	4868.31
438.96	4856.61
439.14	5027.47
439.33	5097.69
439.52	4992.36
439.70	5060.24
439.89	5151.52
440.08	5137.48
440.26	5151.52
440.45	5207.69
440.63	5380.89
440.82	5387.91
441.01	5362.17
441.19	5416.00
441.38	5488.56
441.57	5535.37
441.75	5528.35
441.94	5633.67
442.12	5584.52
442.31	5696.86
442.50	5713.25
442.68	5586.86
442.87	5654.73
443.05	5659.42
443.24	6019.86
443.43	5799.85
443.61	5764.74
443.80	5912.19
443.98	5680.48
444.17	5753.04
444.35	5743.67
444.54	6001.13
444.73	5783.46
444.91	5846.66
445.10	5881.77
445.28	5893.47
445.47	5771.76
445.65	5722.61
445.84	5907.51
446.02	5846.66
446.21	6029.22
446.39	5893.47
446.58	5858.36
446.77	6136.88
446.95	5804.53
447.14	5961.34
447.32	5874.74
447.51	6003.47
447.69	5909.85
447.88	6090.07
448.06	5975.39
448.25	6218.80
448.43	6047.94
448.62	5930.92
448.80	6061.99
448.99	6120.50
449.17	6160.29
449.36	6113.48
449.54	6143.91
449.73	6260.93
449.91	6141.57
450.10	6392.00
450.28	6518.39
450.46	6441.15
450.65	6504.35
450.83	6345.19
451.02	6286.68
451.20	6420.09
451.39	6513.71
451.57	6438.81
451.76	6485.62
451.94	6352.21
452.13	6530.09
452.31	6399.02
452.49	6518.39
452.68	6590.95
452.86	6509.03
453.05	6626.06
453.23	6705.63
453.42	6574.56
453.60	6553.50
453.78	6768.83
453.97	6466.90
454.15	6658.82
454.34	6642.44
454.52	6780.53
454.70	6764.15
454.89	6799.26
455.07	6747.76
455.26	6951.39
455.44	6864.79
455.62	7159.70
455.81	6970.12
455.99	7009.90
456.17	7115.23
456.36	7049.69
456.54	7150.34
456.73	7152.68
456.91	7133.95
457.09	7131.61
457.28	7449.93
457.46	7393.75
457.64	7297.79
457.83	7363.33
458.01	7295.45
458.19	7463.97
458.38	7468.65
458.56	7258.00
458.74	7368.01
458.93	7515.46
459.11	7515.46
459.29	7412.48
459.48	7543.55
459.66	7456.95
459.84	7573.97
460.03	7824.41
460.21	7637.17
460.39	7812.71
460.57	7716.75
460.76	7728.45
460.94	7845.48
461.12	7845.48
461.31	7723.77
461.49	7681.64
461.67	7712.07
461.85	7868.88
462.04	8025.70
462.22	7957.82
462.40	8191.88
462.59	7978.89
462.77	8018.68
462.95	7939.10
463.13	8070.17
463.32	7922.71
463.50	7992.93
463.68	8056.12
463.86	8234.00
464.05	8126.34
464.23	7939.10
464.41	8304.22
464.59	8212.94
464.78	8383.80
464.96	8355.71
465.14	8196.56
465.32	8379.12
465.50	8468.06
465.69	8374.44
465.87	8283.16
466.05	8116.98
466.23	8650.62
466.41	8285.50
466.60	8589.77
466.78	8315.92
466.96	8276.13
467.14	8470.40
467.32	8432.95
467.51	8636.58
467.69	8430.61
467.87	8512.53
468.05	8571.04
468.23	8519.55
468.41	8416.57
468.60	8334.65
468.78	8746.58
468.96	8627.21
469.14	8727.86
469.32	8734.88
469.50	8624.87
469.69	8837.86
469.87	8905.74
470.05	8849.57
470.23	8837.86
470.41	8805.10
470.59	9193.62
470.77	9083.62
470.95	8926.80
471.14	9184.26
471.32	9018.08
471.50	9430.02
471.68	9312.99
471.86	9357.46
472.04	9465.13
472.22	9533.00
472.40	9221.71
472.58	9217.03
472.77	9399.59
472.95	9610.24
473.13	10061.96
473.31	9617.26
473.49	9645.35
473.67	9561.09
473.85	9736.63
474.03	9891.10
474.21	9804.50
474.39	10047.92
474.57	9909.83
474.75	9937.91
474.93	10076.01
475.12	10134.52
475.30	10216.44
475.48	10293.68
475.66	10120.48
475.84	10190.69
476.02	10483.26
476.20	10361.55
476.38	10562.84
476.56	10932.64
476.74	10740.72
476.92	10740.72
477.10	10663.48
477.28	11054.35
477.46	10920.94
477.64	11094.14
477.82	11204.14
478.00	11159.67
478.18	11489.69
478.36	11520.12
478.54	11389.05
478.72	11599.70
478.90	11808.00
479.08	11955.46
479.26	12287.81
479.44	12212.92
479.62	11962.48
479.80	12035.03
479.98	12147.38
480.16	12561.66
480.34	12287.81
480.52	12688.04
480.70	12510.16
480.88	12556.97
481.06	12751.24
481.24	12774.64
481.41	12901.03
481.59	13001.68
481.77	13095.30
481.95	13004.02
482.13	13631.28
482.31	13322.33
482.49	13336.37
482.67	13378.50
482.85	13547.02
483.03	13724.90
483.21	14270.25
483.39	13947.25
483.57	14160.24
483.74	14136.84
483.92	14394.29
484.10	14143.86
484.28	14597.92
484.46	14719.63
484.64	14768.78
484.82	14614.30
485.00	14867.08
485.18	15073.05
485.35	15260.29
485.53	15023.90
485.71	15124.54
485.89	15323.49
486.07	15297.74
486.25	15087.09
486.43	15653.50
486.61	15576.27
486.78	16070.12
486.96	16238.64
487.14	16397.79
487.32	16582.70
487.50	16402.47
487.68	16547.59
487.85	16903.35
488.03	17057.82
488.21	16901.01
488.39	17034.42
488.57	17181.87
488.75	17235.70
488.92	17558.70
489.10	17874.67
489.28	17708.49
489.46	17998.72
489.64	18101.70
489.81	18455.12
489.99	18424.70
490.17	18459.81
490.35	18703.22
490.53	18724.29
490.70	18733.65
490.88	18361.50
491.06	19037.92
491.24	18820.25
491.41	19154.94
491.59	19236.86
491.77	19157.28
491.95	19597.31
492.13	19665.18
492.30	20011.58
492.48	20016.26
492.66	19894.55
492.84	19899.23
493.01	20170.74
493.19	20339.26
493.37	20594.37
493.54	20870.56
493.72	20786.30
493.90	20748.85
494.08	21268.45
494.25	20947.79
494.43	21254.40
494.61	21603.14
494.79	21619.53
494.96	21546.97
495.14	21451.01
495.32	21937.84
495.49	22197.64
495.67	21975.29
495.85	22143.81
496.02	22148.49
496.20	22202.32
496.38	22155.51
496.55	22281.90
496.73	23023.85
496.91	22953.63
497.09	22897.46
497.26	23204.07
497.44	23117.47
497.62	23290.67
497.79	23503.66
497.97	23412.38
498.14	23557.49
498.32	23772.82
498.50	23632.39
498.67	23985.81
498.85	23899.21
499.03	24161.35
499.20	24159.01
499.38	24479.66
499.56	24390.72
499.73	24482.00
499.91	24353.27
500.08	24650.52
500.26	24594.35
500.44	24673.93
500.61	24009.22
500.79	24645.84
500.97	24971.18
501.14	25261.40
501.32	24870.53
501.49	24886.92
501.67	25160.76
501.84	25324.60
502.02	25521.20
502.20	25619.50
502.37	25734.19
502.55	25883.98
502.72	25881.64
502.90	25891.01
503.07	25949.52
503.25	26504.23
503.43	26106.34
503.60	26012.71
503.78	26284.22
503.95	26326.35
504.13	26398.90
504.30	26778.07
504.48	26654.02
504.65	26757.00
504.83	27040.21
505.01	26731.26
505.18	27143.19
505.36	27241.50
505.53	27339.80
505.71	27428.74
505.88	27398.31
506.06	27494.27
506.23	27363.20
506.41	27311.71
506.58	27538.74
506.76	27562.15
506.93	27765.78
507.11	27747.05
507.28	28058.34
507.46	27702.58
507.63	27978.76
507.81	28397.72
507.98	27866.42
508.16	28161.33
508.33	28439.85
508.50	28545.17
508.68	28512.41
508.85	28889.23
509.03	28734.76
509.20	29109.24
509.38	29046.05
509.55	29015.62
509.73	29289.46
509.90	29280.10
510.08	29015.62
510.25	29460.32
510.42	29474.37
510.60	29240.31
510.77	29788.00
510.95	29748.21
511.12	29769.27
511.30	30206.95
511.47	29914.39
511.64	29780.98
511.82	30497.18
511.99	30192.91
512.17	30342.70
512.34	30174.19
512.51	30216.32
512.69	30242.06
512.86	30218.66
513.04	30574.42
513.21	30698.47
513.38	30551.01
513.56	31161.89
513.73	30504.20
513.90	30714.85
514.08	30897.41
514.25	30960.61
514.43	31094.02
514.60	31227.43
514.77	31323.39
514.95	30913.80
515.12	31002.74
515.29	31803.20
515.47	31835.97
515.64	31559.78
515.81	31349.14
515.99	31353.82
516.16	31721.28
516.33	31573.83
516.51	31676.81
516.68	31555.10
516.85	31323.39
517.03	31735.32
517.20	32100.45
517.37	32065.34
517.54	32032.57
517.72	32168.32
517.89	31763.41
518.06	32084.06
518.24	32098.11
518.41	32201.09
518.58	32486.64
518.75	32407.06
518.93	32680.90
519.10	32683.24
519.27	32748.78
519.45	32783.88
519.62	32629.41
519.79	33214.54
519.96	33130.28
520.14	33247.31
520.31	33146.67
520.48	33563.28
520.65	33488.38
520.83	34143.74
521.00	33858.19
521.17	33399.44
521.34	33542.22
521.52	33668.61
521.69	33897.98
521.86	34134.37
522.03	34113.31
522.20	33787.97
522.38	34213.95
522.55	34548.65
522.72	34213.95
522.89	34396.51
523.07	34490.13
523.24	34284.17
523.41	34782.70
523.58	34483.11
523.75	35337.41
523.92	34595.46
524.10	35086.97
524.27	34841.21
524.44	35218.04
524.61	34829.51
524.78	35086.97
524.96	35592.53
525.13	35297.62
525.30	35171.23
525.47	35435.71
525.64	35447.41
525.81	35498.91
525.98	35548.06
526.16	35391.24
526.33	35229.74
526.50	35508.27
526.67	35395.92
526.84	35152.51
527.01	35761.05
527.18	35821.90
527.36	35934.24
527.53	36243.20
527.70	36603.64
527.87	36175.32
528.04	36238.51
528.21	36030.21
528.38	35910.84
528.55	36236.17
528.72	36346.18
528.89	36371.92
529.07	36467.89
529.24	36147.23
529.41	36573.21
529.58	36718.32
529.75	36559.17
529.92	37125.58
530.09	36624.70
530.26	36479.59
530.43	37111.53
530.60	36914.93
530.77	36751.09
530.94	37282.39
531.11	36807.26
531.28	37078.77
531.46	37228.56
531.63	37092.81
531.80	37085.79
531.97	37083.45
532.14	37420.48
532.31	37083.45
532.48	36818.97
532.65	37467.30
532.82	37511.77
532.99	37640.50
533.16	37376.01
533.33	37750.50
533.50	37991.58
533.67	37834.76
533.84	37668.58
534.01	37846.46
534.18	38064.13
534.35	38249.03
534.52	38085.20
534.69	38286.48
534.86	37900.29
535.03	37972.85
535.20	38443.30
535.37	38607.14
535.54	38719.48
535.71	38326.27
535.88	38637.56
536.05	38157.75
536.22	38518.20
536.38	38794.38
536.55	38534.58
536.72	38433.94
536.89	38508.83
537.06	38155.41
537.23	38572.03
537.40	38588.41
537.57	38595.43
537.74	38738.21
537.91	39484.84
538.08	39541.01
538.25	38864.60
538.42	38667.99
538.59	39082.27
538.75	38600.12
538.92	39133.76
539.09	39100.99
539.26	39154.82
539.43	39164.18
539.60	39248.44
539.77	38696.08
539.94	38946.51
540.11	39651.02
540.28	39529.31
540.44	39651.02
540.61	39627.61
540.78	39295.25
540.95	39143.12
541.12	39129.08
541.29	39562.08
541.46	39594.84
541.62	39714.21
541.79	39683.78
541.96	39466.11
542.13	39639.31
542.30	39945.92
542.47	39934.22
542.63	40025.50
542.80	40194.02
542.97	40669.15
543.14	40531.06
543.31	40219.77
543.48	40502.97
543.64	40903.20
543.81	40631.70
543.98	40584.89
544.15	40556.80
544.32	40561.48
544.48	40907.88
544.65	40231.47
544.82	40823.62
544.99	40886.82
545.16	41127.89
545.32	40561.48
545.49	41361.95
545.66	41045.97
545.83	40914.90
546.00	41198.11
546.16	40879.80
546.33	40940.65
546.50	40861.07
546.67	40992.14
546.83	40816.60
547.00	41315.14
547.17	41198.11
547.34	41347.90
547.50	41090.44
547.67	41486.00
547.84	41394.71
548.00	41893.25
548.17	41535.15
548.34	41832.39
548.51	41872.18
548.67	41427.48
548.84	41949.42
549.01	41167.68
549.18	41844.10
549.34	41476.63
549.51	42014.96
549.68	42000.91
549.84	41755.16
550.01	42071.13
550.18	41394.71
550.34	42249.01
550.51	41991.55
550.68	41825.37
550.84	41965.81
551.01	42232.63
551.18	41921.34
551.34	41443.87
551.51	41984.53
551.68	42176.45
551.84	42291.14
552.01	42134.32
552.18	42270.08
552.34	42483.06
552.51	42239.65
552.68	42223.26
552.84	42471.36
553.01	42609.45
553.18	41933.04
553.34	42485.40
553.51	42131.98
553.67	42625.84
553.84	42794.36
554.01	42274.76
554.17	42450.30
554.34	42958.19
554.51	42859.89
554.67	42515.83
554.84	42796.70
555.00	42450.30
555.17	42595.41
555.33	43154.80
555.50	42667.97
555.67	42738.18
555.83	42536.90
556.00	42462.00
556.16	42983.94
556.33	43098.62
556.50	42735.84
556.66	43091.60
556.83	42761.59
556.99	43402.89
557.16	42953.51
557.32	43133.73
557.49	43068.20
557.65	43119.69
557.82	42986.28
557.98	43136.07
558.15	43540.99
558.32	43070.54
558.48	43274.16
558.65	43292.89
558.81	42794.36
558.98	43423.96
559.14	43330.34
559.31	42773.29
559.47	43421.62
559.64	43498.86
559.80	43599.50
559.97	43248.42
560.13	43129.05
560.30	43323.32
560.46	43585.46
560.63	43136.07
560.79	43849.94
560.96	43814.83
561.12	43318.64
561.29	43061.18
561.45	43330.34
561.61	43477.79
561.78	43578.43
561.94	43196.93
562.11	43330.34
562.27	43641.63
562.44	43854.62
562.60	43753.97
562.77	43917.81
562.93	43971.64
563.10	43711.84
563.26	42979.26
563.42	44046.54
563.59	43723.55
563.75	43629.93
563.92	44170.59
564.08	43749.29
564.24	44250.17
564.41	44149.53
564.57	44025.48
564.74	43695.46
564.90	43650.99
565.07	43873.34
565.23	43882.70
565.39	44219.74
565.56	43770.36
565.72	43730.57
565.88	44079.31
566.05	43973.98
566.21	43945.90
566.38	43526.94
566.54	44135.48
566.70	44371.88
566.87	44395.28
567.03	44039.52
567.19	44411.67
567.36	43821.85
567.52	44016.11
567.68	43859.30
567.85	43957.60
568.01	44055.90
568.17	44196.34
568.34	44641.04
568.50	43973.98
568.66	43985.69
568.83	43901.43
568.99	43716.53
569.15	43866.32
569.32	43768.02
569.48	43599.50
569.64	44458.48
569.81	44240.81
569.97	44119.10
570.13	44100.37
570.30	44289.96
570.46	44135.48
570.62	44055.90
570.78	43910.79
570.95	43920.15
571.11	44374.22
571.27	44325.07
571.43	44086.33
571.60	43957.60
571.76	44048.88
571.92	43707.16
572.09	43812.49
572.25	43594.82
572.41	44353.15
572.57	44348.47
572.74	44870.41
572.90	44292.30
573.06	44198.68
573.22	44161.23
573.38	44362.51
573.55	44591.89
573.71	44786.15
573.87	44615.29
574.03	44069.95
574.20	44577.84
574.36	44418.69
574.52	44704.23
574.68	44397.62
574.84	44119.10
575.01	44102.71
575.17	44236.12
575.33	44282.94
575.49	44481.88
575.65	44844.66
575.82	44519.33
575.98	44238.47
576.14	44301.66
576.30	44591.89
576.46	44201.02
576.62	44292.30
576.79	44282.94
576.95	44156.55
577.11	43866.32
577.27	44563.80
577.43	44582.52
577.59	44996.80
577.75	44282.94
577.92	44184.63
578.08	44002.07
578.24	44289.96
578.40	44142.50
578.56	43978.67
578.72	44928.92
578.88	44563.80
579.04	44442.09
579.21	44437.41
579.37	44435.07
579.53	44636.36
579.69	44264.21
579.85	43847.60
580.01	44444.43
580.17	43955.26
580.33	44367.20
580.49	44690.19
580.65	44484.22
580.82	44481.88
580.98	44474.86
581.14	44521.67
581.30	44912.54
581.46	43995.05
581.62	44626.99
581.78	44322.72
581.94	45062.33
582.10	44479.54
582.26	44402.30
582.42	44619.97
582.58	44388.26
582.74	44374.22
582.90	44278.25
583.06	44940.63
583.22	44921.90
583.38	44758.06
583.54	44554.44
583.70	44573.16
583.86	44655.08
584.02	44299.32
584.18	44854.03
584.34	44467.84
584.50	44568.48
584.66	44259.53
584.82	43957.60
584.98	44980.42
585.14	44933.60
585.30	44369.54
585.46	44493.58
585.62	44650.40
585.78	44507.63
585.94	44364.85
586.10	44371.88
586.26	44753.38
586.42	44711.25
586.58	44975.73
586.74	44509.97
586.90	44713.59
587.06	44318.04
587.22	44432.73
587.38	44498.26
587.54	44713.59
587.70	44844.66
587.86	44526.35
588.02	44832.96
588.18	44966.37
588.34	44507.63
588.49	44201.02
588.65	44107.40
588.81	44121.44
588.97	44556.78
589.13	44273.57
589.29	44278.25
589.45	44622.31
589.61	44685.51
589.77	44540.39
589.93	44641.04
590.08	44774.45
590.24	44830.62
590.40	44783.81
590.56	45008.50
590.72	44851.69
590.88	44992.12
591.04	44947.65
591.20	45263.62
591.35	44978.07
591.51	45043.61
591.67	45146.59
591.83	45202.77
591.99	44973.39
592.15	44528.69
592.31	44980.42
592.46	44720.62
592.62	44542.74
592.78	45230.85
592.94	44793.17
593.10	44921.90
593.26	44638.70
593.41	45017.86
593.57	44439.75
593.73	44818.92
593.89	44971.05
594.05	44924.24
594.20	44582.52
594.36	45050.63
594.52	44872.75
594.68	44842.32
594.84	44430.39
594.99	44914.88
595.15	44729.98
595.31	45214.47
595.47	44795.51
595.62	45378.31
595.78	44779.13
595.94	45233.19
596.10	44989.78
596.25	45324.47
596.41	45481.29
596.57	44879.77
596.73	45619.38
596.88	44430.39
597.04	44907.86
597.20	44802.53
597.36	44926.58
597.51	45099.78
597.67	45303.41
597.83	45052.97
597.99	44722.96
598.14	44772.11
598.30	44994.46
598.46	45052.97
598.61	45130.21
598.77	44411.67
598.93	44933.60
599.09	44725.30
599.24	45593.64
599.40	45979.82
599.56	45446.18
599.71	45043.61
599.87	44839.98
600.03	44767.43
600.18	45069.36
600.34	44964.03
600.50	44957.01
600.65	44708.91
600.81	44982.76
600.97	45415.76
601.12	45296.39
601.28	45251.92
601.44	45008.50
601.59	44868.07
601.75	44568.48
601.91	44912.54
602.06	44938.29
602.22	44828.28
602.37	44582.52
602.53	45038.93
602.69	45153.62
602.84	45237.87
603.00	44971.05
603.16	44732.32
603.31	45027.23
603.47	44760.40
603.62	44758.06
603.78	45565.55
603.94	45078.72
604.09	44715.93
604.25	45347.88
604.40	44945.31
604.56	44708.91
604.71	45045.95
604.87	44636.36
605.03	44861.05
605.18	44374.22
605.34	44722.96
605.49	44360.17
605.65	44683.17
605.80	44879.77
605.96	44673.81
606.12	45022.54
606.27	44985.10
606.43	44680.83
606.58	44954.67
606.74	44844.66
606.89	44849.35
607.05	44889.13
607.20	44910.20
607.36	44868.07
607.51	44949.99
607.67	45221.49
607.82	44463.16
607.98	44502.95
608.13	44353.15
608.29	44673.81
608.44	44233.78
608.60	44397.62
608.75	44708.91
608.91	44479.54
609.06	44409.32
609.22	44851.69
609.37	44322.72
609.53	44851.69
609.68	44863.39
609.84	44687.85
609.99	44556.78
610.15	44189.31
610.30	44540.39
610.46	44432.73
610.61	44074.63
610.76	44809.56
610.92	44350.81
611.07	44198.68
611.23	44477.20
611.38	44320.38
611.54	44069.95
611.69	44648.06
611.84	44137.82
612.00	44109.74
612.15	43917.81
612.31	44430.39
612.46	43964.62
612.62	44226.76
612.77	44381.24
612.92	44594.23
613.08	44121.44
613.23	44416.35
613.39	43777.38
613.54	44039.52
613.69	43679.08
613.85	43913.13
614.00	44051.22
614.15	44559.12
614.31	44013.77
614.46	44002.07
614.62	44245.49
614.77	43917.81
614.92	43915.47
615.08	43728.23
615.23	44313.36
615.38	43756.32
615.54	43889.73
615.69	43388.85
615.84	43683.76
616.00	44016.11
616.15	44011.43
616.30	43342.04
616.46	43496.52
616.61	43407.58
616.76	43758.66
616.92	43026.07
617.07	43409.92
617.22	43283.53
617.37	43585.46
617.53	43672.06
617.68	43480.13
617.83	44076.97
617.99	43372.47
618.14	43665.03
618.29	43576.09
618.45	43328.00
618.60	43283.53
618.75	43445.02
618.90	43098.62
619.06	43566.73
619.21	43398.21
619.36	43508.22
619.51	43882.70
619.67	43168.84
619.82	43124.37
619.97	43370.13
620.12	43239.06
620.28	42796.70
620.43	42972.24
620.58	43250.76
620.73	42663.28
620.89	43037.77
621.04	42953.51
621.19	43026.07
621.34	43044.79
621.49	43203.95
621.65	42981.60
621.80	42855.21
621.95	42742.86
622.10	42810.74
622.25	42742.86
622.41	42197.52
622.56	42272.42
622.71	42651.58
622.86	42944.15
623.01	42483.06
623.16	42696.05
623.32	42927.77
623.47	42572.00
623.62	42768.61
623.77	42665.63
623.92	42515.83
624.07	42553.28
624.23	42206.88
624.38	42403.49
624.53	42761.59
624.68	42742.86
624.83	42370.72
624.98	42349.65
625.13	42209.22
625.29	42410.51
625.44	42373.06
625.59	42012.62
625.74	42029.00
625.89	41584.30
626.04	41797.29
626.19	42429.23
626.34	42251.35
626.49	42136.66
626.65	42197.52
626.80	42094.53
626.95	41841.76
627.10	41911.97
627.25	41385.35
627.40	41869.84
627.55	41163.00
627.70	41670.90
627.85	41619.41
628.00	41635.79
628.15	41574.94
628.30	41691.96
628.45	41619.41
628.60	41565.57
628.76	41743.45
628.91	41766.86
629.06	41457.91
629.21	41673.24
629.36	41254.28
629.51	41352.58
629.66	41268.33
629.81	41010.87
629.96	41654.51
630.11	41345.56
630.26	41361.95
630.41	41790.27
630.56	41483.66
630.71	40889.16
630.86	41031.93
631.01	41139.60
631.16	41427.48
631.31	40816.60
631.46	40828.30
631.61	41125.55
631.76	40954.69
631.91	41099.81
632.06	41165.34
632.21	41469.61
632.36	41577.28
632.51	40772.13
632.66	41076.40
632.81	40250.19
632.96	40666.81
633.10	40683.19
633.25	40840.01
633.40	40687.87
633.55	41064.70
633.70	40685.53
633.85	41008.53
634.00	40484.25
634.15	40847.03
634.30	40507.65
634.45	40512.33
634.60	40774.47
634.75	40531.06
634.90	40947.67
635.05	40690.21
635.19	40360.20
635.34	40292.32
635.49	40435.10
635.64	40341.47
635.79	40617.66
635.94	40444.46
636.09	40587.23
636.24	40353.18
636.39	39990.39
636.53	40168.27
636.68	39948.26
636.83	40627.02
636.98	40072.31
637.13	40109.76
637.28	40016.14
637.43	40177.64
637.57	40268.92
637.72	39826.56
637.87	39985.71
638.02	40304.02
638.17	40158.91
638.32	39920.18
638.46	39826.56
638.61	39945.92
638.76	39709.53
638.91	40203.38
639.06	40112.10
639.20	40154.23
639.35	40194.02
639.50	40020.82
639.65	39768.04
639.80	40177.64
639.94	39503.56
640.09	39718.89
640.24	39283.55
640.39	39597.18
640.54	39206.31
640.68	39634.63
640.83	39777.40
640.98	39695.49
641.13	39075.24
641.27	39894.43
641.42	39452.07
641.57	39445.05
641.72	39782.09
641.86	39065.88
642.01	39152.48
642.16	39150.14
642.31	38656.29
642.45	39669.74
642.60	38995.67
642.75	39288.23
642.90	39332.70
643.04	39592.50
643.19	39241.42
643.34	39213.34
643.48	38895.02
643.63	38859.91
643.78	38766.29
643.93	38522.88
644.07	38789.70
644.22	38820.13
644.37	38766.29
644.51	39049.50
644.66	39227.38
644.81	38967.58
644.95	39117.37
645.10	39084.61
645.25	39105.67
645.39	38745.23
645.54	38934.81
645.69	38939.49
645.83	38492.45
645.98	38845.87
646.13	38778.00
646.27	39143.12
646.42	38356.70
646.57	38445.64
646.71	38752.25
646.86	38506.49
647.00	38848.21
647.15	38836.51
647.30	38703.10
647.44	38518.20
647.59	38604.80
647.74	38473.73
647.88	38192.86
648.03	38298.19
648.17	38220.95
648.32	38567.35
648.47	38433.94
648.61	38103.92
648.76	38398.83
648.90	38445.64
649.05	38164.78
649.20	38602.46
649.34	37879.23
649.49	38218.61
649.63	38298.19
649.78	38326.27
649.92	37640.50
650.07	38190.52
650.21	37998.60
650.36	38073.49
650.51	38134.35
650.65	38113.28
650.80	38422.23
650.94	38110.94
651.09	37996.26
651.23	38340.32
651.38	37748.16
651.52	37872.21
651.67	37874.55
651.81	37642.84
651.96	37867.53
652.10	37801.99
652.25	37787.95
652.39	37607.73
652.54	37855.82
652.68	37991.58
652.83	38096.90
652.97	37736.46
653.12	37954.13
653.26	37425.17
653.41	37535.17
653.55	37333.89
653.70	37287.07
653.84	37312.82
653.99	37387.72
654.13	36868.12
654.27	37118.56
654.42	37214.52
654.56	37069.40
654.71	37303.46
654.85	37160.69
655.00	37464.96
655.14	37195.79
655.29	37015.57
655.43	37301.12
655.57	36687.90
655.72	36175.32
655.86	36638.75
656.01	36566.19
656.15	36346.18
656.30	36364.90
656.44	36620.02
656.58	36533.42
656.73	36882.16
656.87	36631.72
657.01	36748.75
657.16	36257.24
657.30	36327.45
657.45	36861.10
657.59	36772.16
657.73	36528.74
657.88	36982.80
658.02	36914.93
658.16	36261.92
658.31	37043.66
658.45	36189.36
658.60	36392.99
658.74	36318.09
658.88	36479.59
659.03	36194.04
659.17	36161.28
659.31	36294.69
659.46	35868.71
659.60	36201.07
659.74	36320.43
659.89	36182.34
660.03	35920.20
660.17	36168.30
660.32	35929.56
660.46	36753.43
660.60	35878.07
660.74	35871.05
660.89	36128.51
661.03	35400.60
661.17	35548.06
661.32	35049.52
661.46	35583.16
661.60	35400.60
661.74	35351.45
661.89	35721.26
662.03	35571.46
662.17	35402.94
662.31	35093.99
662.46	35526.99
662.60	35285.92
662.74	35416.99
662.88	34752.27
663.03	34539.29
663.17	35049.52
663.31	34946.54
663.45	34497.16
663.60	34918.45
663.74	34838.87
663.88	34485.45
664.02	35105.70
664.17	34712.49
664.31	34342.68
664.45	34726.53
664.59	34352.04
664.73	34436.30
664.88	34848.24
665.02	34363.75
665.16	34492.47
665.30	34483.11
665.44	34164.80
665.59	34174.16
665.73	34525.24
665.87	34422.26
666.01	33972.88
666.15	34092.24
666.29	34085.22
666.44	34066.50
666.58	33759.89
666.72	33923.72
666.86	34033.73
667.00	33806.70
667.14	33778.61
667.28	33446.26
667.43	33621.80
667.57	33467.32
667.71	33446.26
667.85	33310.50
667.99	33240.29
668.13	33298.80
668.27	33558.60
668.41	33006.23
668.56	33048.36
668.70	33549.24
668.84	33036.66
668.98	32872.82
669.12	32964.10
669.26	32800.27
669.40	32442.17
669.54	32694.94
669.68	32629.41
669.82	32584.94
669.96	32285.35
670.10	32201.09
670.25	32554.51
670.39	32673.88
670.53	32603.66
670.67	32388.33
670.81	32758.14
670.95	32376.63
671.09	32575.58
671.23	31927.25
671.37	32432.80
671.51	32245.56
671.65	32004.49
671.79	31950.65
671.93	31826.60
672.07	31749.37
672.21	31447.44
672.35	31929.59
672.49	31709.58
672.63	31854.69
672.77	31580.85
672.91	31545.74
673.05	31295.30
673.19	31264.88
673.33	31421.69
673.47	30888.05
673.61	31360.84
673.75	31068.27
673.89	30668.04
674.03	30792.09
674.17	30787.41
674.31	31152.53
674.45	30806.13
674.59	30705.49
674.73	30881.03
674.87	30506.54
675.01	30452.71
675.15	30403.56
675.29	30586.12
675.43	30270.15
675.56	30419.94
675.70	30188.23
675.84	29867.58
675.98	29514.16
676.12	29979.92
676.26	30110.99
676.40	29624.16
676.54	29841.83
676.68	29556.28
676.82	29111.58
676.96	29436.92
677.10	29177.12
677.23	29509.47
677.37	29062.43
677.51	29050.73
677.65	28868.17
677.79	28718.37
677.93	28985.19
678.07	28460.91
678.21	28348.57
678.34	28816.68
678.48	28322.82
678.62	28077.07
678.76	27969.40
678.90	27910.89
679.04	27866.42
679.18	27798.54
679.31	27498.95
679.45	27463.85
679.59	27304.69
679.73	27470.87
679.87	27517.68
680.00	27496.61
680.14	27234.47
680.28	27316.39
680.42	27292.99
680.56	27222.77
680.70	27180.64
680.83	27185.32
680.97	26969.99
681.11	27007.44
681.25	26824.88
681.39	26525.29
681.52	27161.92
681.66	26544.02
681.80	26469.12
681.94	26438.69
682.07	26253.79
682.21	26073.57
682.35	26103.99
682.49	26368.48
682.62	26387.20
682.76	26169.53
682.90	25834.83
683.04	25762.28
683.17	25088.20
683.31	25495.46
683.45	25317.57
683.59	25429.92
683.72	25221.61
683.86	25020.33
684.00	24980.54
684.13	25429.92
684.27	24687.97
684.41	24727.76
684.55	24805.00
684.68	24622.44
684.82	24503.07
684.96	24912.66
685.09	24680.95
685.23	24790.95
685.37	24121.56
685.50	24505.41
685.64	24570.94
685.78	24058.37
685.91	23878.15
686.05	23981.13
686.19	23604.30
686.32	23524.72
686.46	23211.09
686.60	23400.68
686.73	23363.23
686.87	23126.83
687.01	23190.03
687.14	22752.35
687.28	22789.80
687.42	22869.37
687.55	22714.90
687.69	23183.01
687.82	22728.94
687.96	22944.27
688.10	22466.80
688.23	22473.82
688.37	22260.84
688.50	22237.43
688.64	22092.32
688.78	22293.60
688.91	21886.35
689.05	22422.33
689.18	21886.35
689.32	21792.73
689.46	21661.66
689.59	21553.99
689.73	21757.62
689.86	21378.45
690.00	21546.97
690.13	21542.29
690.27	21392.50
690.41	21149.08
690.54	21118.65
690.68	20936.09
690.81	20926.73
690.95	21027.37
691.08	20685.65
691.22	20840.13
691.35	20809.70
691.49	20643.52
691.62	20861.19
691.76	20503.09
691.89	20475.01
692.03	20137.97
692.16	20362.66
692.30	19686.25
692.43	20318.19
692.57	19873.49
692.70	19763.48
692.84	19932.00
692.97	19913.28
693.11	19417.08
693.24	19276.65
693.38	19262.61
693.51	19398.36
693.65	19412.40
693.78	19515.39
693.92	19213.46
694.05	19377.30
694.19	19161.97
694.32	19080.05
694.45	18960.68
694.59	18607.26
694.72	18663.43
694.86	18925.57
694.99	18747.69
695.13	18368.52
695.26	18487.89
695.39	18242.14
695.53	18272.56
695.66	18579.17
695.80	18305.33
695.93	18410.65
696.07	18164.90
696.20	18338.10
696.33	18263.20
696.47	18029.15
696.60	17841.90
696.73	17528.27
696.87	17460.40
697.00	17837.22
697.14	17668.70
697.27	17418.27
697.40	17355.07
697.54	17441.67
697.67	17034.42
697.80	17289.54
697.94	16893.99
698.07	16549.93
698.21	16685.68
698.34	16774.62
698.47	16439.92
698.61	16568.65
698.74	16404.81
698.87	16290.13
699.01	16226.93
699.14	16238.64
699.27	16156.72
699.40	16016.29
699.54	16032.67
699.67	16009.26
699.80	16070.12
699.94	15784.57
700.07	16208.21
700.20	15810.32
700.34	15899.26
700.47	15681.59
700.60	15522.43
700.73	15805.64
700.87	15786.91
701.00	15414.77
701.13	15318.81
701.26	15250.93
701.40	15082.41
701.53	15005.17
701.66	15206.46
701.79	15098.80
701.93	15159.65
702.06	15021.56
702.19	14546.43
702.32	14656.43
702.46	14352.16
702.59	14415.36
702.72	14927.94
702.85	14792.19
702.99	14349.82
703.12	14291.31
703.25	14265.57
703.38	14012.79
703.51	14061.94
703.65	14167.26
703.78	14050.24
703.91	14083.00
704.04	14162.58
704.17	13942.57
704.31	13874.70
704.44	13607.87
704.57	13827.88
704.70	13397.23
704.83	13659.37
704.96	13905.12
705.10	13619.58
705.23	13350.42
>>>>>End Processed Spectral Data<<<<<
