SpectraSuite Data File
++++++++++++++++++++++++++++++++++++
Date: Fri Oct 25 10:44:22 EDT 2013
User: price-jones
Dark Spectrum Present: No
Reference Spectrum Present: No
Number of Sampled Component Spectra: 1
Spectrometers: USB2+H05261
Integration Time (usec): 100000 (USB2+H05261)
Spectra Averaged: 1 (USB2+H05261)
Boxcar Smoothing: 0 (USB2+H05261)
Correct for Electrical Dark: No (USB2+H05261)
Strobe/Lamp Enabled: No (USB2+H05261)
Correct for Detector Non-linearity: No (USB2+H05261)
Correct for Stray Light: No (USB2+H05261)
Number of Pixels in Processed Spectrum: 2048
>>>>>Begin Processed Spectral Data<<<<<
365.73	177.88
365.92	177.88
366.12	177.88
366.32	32.77
366.52	44.47
366.72	51.49
366.91	0.00
367.11	46.81
367.31	2.34
367.51	46.81
367.70	0.00
367.90	44.47
368.10	56.17
368.30	7.02
368.49	0.00
368.69	133.41
368.89	67.88
369.09	35.11
369.28	44.47
369.48	91.28
369.68	44.47
369.87	63.19
370.07	58.51
370.27	173.20
370.47	198.95
370.66	386.19
370.86	461.09
371.06	475.13
371.25	491.51
371.45	552.37
371.65	491.51
371.84	465.77
372.04	470.45
372.24	470.45
372.44	510.24
372.63	421.30
372.83	514.92
373.03	510.24
373.22	503.22
373.42	496.19
373.62	491.51
373.81	507.90
374.01	550.03
374.21	601.52
374.40	489.17
374.60	585.13
374.79	594.50
374.99	578.11
375.19	566.41
375.38	554.71
375.58	627.26
375.78	596.84
375.97	669.39
376.17	662.37
376.37	617.90
376.56	585.13
376.76	657.69
376.95	641.31
377.15	678.76
377.35	660.03
377.54	688.12
377.74	699.82
377.93	678.76
378.13	582.79
378.33	685.78
378.52	664.71
378.72	685.78
378.91	725.57
379.11	648.33
379.31	608.54
379.50	711.52
379.70	720.88
379.89	723.23
380.09	692.80
380.28	636.63
380.48	751.31
380.68	676.41
380.87	664.71
381.07	732.59
381.26	772.38
381.46	678.76
381.65	767.70
381.85	800.46
382.04	772.38
382.24	725.57
382.43	648.33
382.63	746.63
382.83	741.95
383.02	793.44
383.22	791.10
383.41	807.48
383.61	840.25
383.80	812.17
384.00	816.85
384.19	788.76
384.39	940.90
384.58	788.76
384.78	823.87
384.97	793.44
385.17	910.47
385.36	896.43
385.56	767.70
385.75	812.17
385.95	809.83
386.14	760.67
386.34	863.66
386.53	903.45
386.72	882.38
386.92	868.34
387.11	985.37
387.31	924.51
387.50	866.00
387.70	924.51
387.89	889.40
388.09	954.94
388.28	905.79
388.48	947.92
388.67	973.66
388.86	983.02
389.06	950.26
389.25	943.24
389.45	1022.81
389.64	976.00
389.84	1144.52
390.03	1018.13
390.22	1041.54
390.42	1020.47
390.61	1081.33
390.81	1118.78
391.00	1132.82
391.19	1057.92
391.39	1219.42
391.58	1055.58
391.78	1064.94
391.97	1083.67
392.16	1097.71
392.36	1046.22
392.55	1071.97
392.75	1046.22
392.94	919.83
393.13	1020.47
393.33	1083.67
393.52	1125.80
393.71	1097.71
393.91	1184.31
394.10	1121.12
394.29	1198.35
394.49	1186.65
394.68	1268.57
394.88	1188.99
395.07	1313.04
395.26	1233.46
395.46	1231.12
395.65	1256.87
395.84	1238.14
396.04	1249.85
396.23	1214.74
396.42	1200.69
396.62	1186.65
396.81	1249.85
397.00	1273.25
397.19	1252.19
397.39	1397.30
397.58	1453.47
397.77	1364.53
397.97	1486.24
398.16	1434.75
398.35	1502.62
398.55	1437.09
398.74	1598.59
398.93	1563.48
399.12	1551.78
399.32	1582.20
399.51	1516.67
399.70	1694.55
399.90	1671.14
400.09	1600.93
400.28	1675.82
400.47	1694.55
400.67	1729.66
400.86	1666.46
401.05	1657.10
401.24	1767.10
401.44	1806.89
401.63	1783.49
401.82	1816.26
402.01	1865.41
402.21	1823.28
402.40	1900.52
402.59	1856.04
402.78	1820.94
402.97	1912.22
403.17	1844.34
403.36	1837.32
403.55	1877.11
403.74	1952.01
403.93	1970.73
404.13	2017.54
404.32	1923.92
404.51	1933.28
404.70	2012.86
404.89	1909.88
405.09	2125.21
405.28	1900.52
405.47	2036.27
405.66	2047.97
405.85	1940.30
406.05	2108.82
406.24	2125.21
406.43	2125.21
406.62	2146.27
406.81	2270.32
407.00	2090.10
407.20	2094.78
407.39	2062.01
407.58	2204.78
407.77	2265.64
407.96	2303.09
408.15	2216.49
408.34	2296.07
408.54	2438.84
408.73	2438.84
408.92	2375.64
409.11	2443.52
409.30	2410.75
409.49	2258.62
409.68	2272.66
409.87	2282.02
410.07	2300.75
410.26	2462.24
410.45	2509.05
410.64	2490.33
410.83	2558.21
411.02	2654.17
411.21	2672.89
411.40	2609.70
411.59	2712.68
411.78	2738.43
411.98	2780.56
412.17	2743.11
412.36	2698.64
412.55	2808.64
412.74	2843.75
412.93	2825.03
413.12	2853.11
413.31	2890.56
413.50	2890.56
413.69	2829.71
413.88	3152.70
414.07	3087.17
414.26	2963.12
414.45	3171.43
414.64	3068.44
414.83	3283.77
415.02	3124.62
415.22	3222.92
415.41	3248.66
415.60	3225.26
415.79	3258.03
415.98	3368.03
416.17	3384.41
416.36	3330.58
416.55	3342.28
416.74	3403.14
416.93	3267.39
417.12	3356.33
417.31	3281.43
417.50	3489.74
417.69	3564.64
417.88	3632.51
418.07	3515.48
418.26	3620.81
418.45	3674.64
418.64	3714.43
418.83	3632.51
419.02	3735.50
419.21	3838.48
419.39	3765.92
419.58	3616.13
419.77	3669.96
419.96	3681.66
420.15	3880.61
420.34	3669.96
420.53	3873.59
420.72	3941.46
420.91	3999.98
421.10	3978.91
421.29	4051.47
421.48	3918.06
421.67	4081.89
421.86	3960.19
422.05	3981.25
422.24	3843.16
422.43	4077.21
422.61	3950.82
422.80	4112.32
422.99	3950.82
423.18	3999.98
423.37	4051.47
423.56	4037.42
423.75	4119.34
423.94	4046.79
424.13	3831.46
424.32	3845.50
424.50	4191.90
424.69	4098.28
424.88	4189.56
425.07	4142.75
425.26	4030.40
425.45	3997.64
425.64	4070.19
425.83	4107.64
426.01	4168.49
426.20	4098.28
426.39	4121.68
426.58	3983.59
426.77	4051.47
426.96	4227.01
427.15	4100.62
427.33	4189.56
427.52	4210.62
427.71	4212.96
427.90	4395.53
428.09	4341.69
428.28	4425.95
428.46	4245.73
428.65	4318.29
428.84	4386.16
429.03	4477.44
429.22	4245.73
429.40	4428.29
429.59	4313.61
429.78	4091.26
429.97	3976.57
430.16	4203.60
430.34	4163.81
430.53	4301.90
430.72	4346.37
430.91	4329.99
431.10	4432.97
431.28	4695.11
431.47	4814.48
431.66	4924.49
431.85	4770.01
432.03	4791.08
432.22	4805.12
432.41	4882.36
432.60	4819.16
432.79	4854.27
432.97	4851.93
433.16	4800.44
433.35	4828.53
433.54	4912.78
433.72	4819.16
433.91	4889.38
434.10	4762.99
434.28	4830.87
434.47	5097.69
434.66	5015.77
434.85	5132.79
435.03	5064.92
435.22	5107.05
435.41	5348.12
435.59	5371.53
435.78	5383.23
435.97	5305.99
436.16	5472.17
436.34	5399.62
436.53	5392.59
436.72	5523.66
436.90	5308.34
437.09	5327.06
437.28	5268.55
437.46	5371.53
437.65	5327.06
437.84	5217.05
438.02	5160.88
438.21	5359.83
438.40	5203.01
438.58	5614.95
438.77	5530.69
438.96	5706.23
439.14	5664.10
439.33	5916.87
439.52	5802.19
439.70	5753.04
439.89	5937.94
440.08	5689.84
440.26	5874.74
440.45	5881.77
440.63	6167.31
440.82	6253.91
441.01	6047.94
441.19	6155.61
441.38	6452.86
441.57	6296.04
441.75	6464.56
441.94	6551.16
442.12	6473.92
442.31	6642.44
442.50	6600.31
442.68	6516.05
442.87	6654.14
443.05	6485.62
443.24	6623.72
443.43	6848.41
443.61	6644.78
443.80	6841.39
443.98	6604.99
444.17	6537.12
444.35	6801.60
444.54	6892.88
444.73	6738.40
444.91	6679.89
445.10	6759.47
445.28	6747.76
445.47	6518.39
445.65	6682.23
445.84	6750.10
446.02	6930.33
446.21	6738.40
446.39	6878.83
446.58	6857.77
446.77	6820.32
446.95	6883.52
447.14	7030.97
447.32	6946.71
447.51	6895.22
447.69	6825.00
447.88	6813.30
448.06	7026.29
448.25	6904.58
448.43	7241.62
448.62	6806.28
448.80	6981.82
448.99	7117.57
449.17	7169.06
449.36	7185.44
449.54	7152.68
449.73	7337.58
449.91	7414.82
450.10	7559.93
450.28	7534.18
450.46	7421.84
450.65	7447.58
450.83	7573.97
451.02	7524.82
451.20	7606.74
451.39	7454.61
451.57	7454.61
451.76	7368.01
451.94	7492.05
452.13	7445.24
452.31	7435.88
452.49	7403.11
452.68	7522.48
452.86	7499.08
453.05	7527.16
453.23	7592.70
453.42	7576.31
453.60	7630.15
453.78	7840.79
453.97	7705.04
454.15	7683.98
454.34	7454.61
454.52	7733.13
454.70	7702.70
454.89	7892.29
455.07	7801.01
455.26	8011.65
455.44	8109.96
455.62	8016.33
455.81	7915.69
455.99	7960.16
456.17	8070.17
456.36	8224.64
456.54	8248.05
456.73	8203.58
456.91	8329.97
457.09	8217.62
457.28	8449.33
457.46	8280.82
457.64	8528.91
457.83	8449.33
458.01	8210.60
458.19	8458.70
458.38	8446.99
458.56	8648.28
458.74	8596.79
458.93	8603.81
459.11	8599.13
459.29	8477.42
459.48	8887.01
459.66	8638.92
459.84	8753.60
460.03	8861.27
460.21	8840.20
460.39	8777.01
460.57	8791.05
460.76	8809.78
460.94	8908.08
461.12	8823.82
461.31	9128.09
461.49	9022.77
461.67	8823.82
461.85	9111.71
462.04	9067.24
462.22	9336.40
462.40	9242.78
462.59	9303.63
462.77	9226.39
462.95	9186.60
463.13	9254.48
463.32	9383.21
463.50	9298.95
463.68	9224.05
463.86	9406.61
464.05	9320.01
464.23	9336.40
464.41	9235.75
464.59	9027.45
464.78	9420.66
464.96	9383.21
465.14	9479.17
465.32	9713.22
465.50	9614.92
465.69	9575.13
465.87	9427.68
466.05	9556.41
466.23	9591.52
466.41	9530.66
466.60	9626.62
466.78	9537.68
466.96	9495.55
467.14	9729.61
467.32	9713.22
467.51	9734.29
467.69	9551.73
467.87	9731.95
468.05	9771.74
468.23	9886.42
468.41	9837.27
468.60	9731.95
468.78	10066.64
468.96	9741.31
469.14	9907.49
469.32	10389.64
469.50	9666.41
469.69	10106.43
469.87	10214.10
470.05	10427.09
470.23	10115.80
470.41	10040.90
470.59	10223.46
470.77	10277.29
470.95	10122.82
471.14	10614.33
471.32	10258.57
471.50	10616.67
471.68	10693.91
471.86	10778.17
472.04	10616.67
472.22	10799.23
472.40	10649.44
472.58	10843.70
472.77	10906.90
472.95	10979.45
473.13	11073.07
473.31	10827.32
473.49	11014.56
473.67	10904.56
473.85	11005.20
474.03	11367.98
474.21	11321.17
474.39	11466.28
474.57	11604.38
474.75	11501.39
474.93	11499.05
475.12	11590.33
475.30	11585.65
475.48	11676.93
475.66	11690.98
475.84	11613.74
476.02	11894.60
476.20	11875.88
476.38	11988.22
476.56	12039.72
476.74	12358.03
476.92	12269.09
477.10	12308.88
477.28	12362.71
477.46	12383.77
477.64	12734.85
477.82	12795.71
478.00	12915.08
478.18	13032.10
478.36	13055.51
478.54	13226.37
478.72	13247.43
478.90	13263.82
479.08	13516.59
479.26	13600.85
479.44	13701.50
479.62	13909.80
479.80	13734.26
479.98	13678.09
480.16	14157.90
480.34	13975.34
480.52	14122.79
480.70	14317.06
480.88	14099.39
481.06	14281.95
481.24	14658.78
481.41	14846.02
481.59	15094.11
481.77	14998.15
481.95	14843.68
482.13	15051.99
482.31	15042.62
482.49	15492.01
482.67	15349.23
482.85	15524.77
483.03	15925.00
483.21	15737.76
483.39	15861.81
483.57	15948.41
483.74	16116.93
483.92	16091.18
484.10	15786.91
484.28	16358.00
484.46	16587.38
484.64	16648.23
484.82	16423.54
485.00	16463.33
485.18	16908.03
485.35	17303.58
485.53	16786.32
485.71	16840.15
485.89	17181.87
486.07	16868.24
486.25	17102.29
486.43	17465.08
486.61	17554.02
486.78	17626.57
486.96	17886.37
487.14	18181.28
487.32	18043.19
487.50	18415.34
487.68	18759.39
487.85	18782.80
488.03	19318.78
488.21	19407.72
488.39	18948.98
488.57	19335.17
488.75	19241.54
488.92	20006.90
489.10	19962.43
489.28	20194.14
489.46	20446.92
489.64	20226.91
489.81	20737.15
489.99	20673.95
490.17	20688.00
490.35	21064.82
490.53	20725.44
490.70	20943.11
490.88	20692.68
491.06	21507.18
491.24	21387.82
491.41	21336.32
491.59	21106.95
491.77	21247.38
491.95	21907.41
492.13	22118.06
492.30	22169.55
492.48	22169.55
492.66	22445.74
492.84	22431.69
493.01	22993.42
493.19	22759.37
493.37	22831.93
493.54	22878.74
493.72	23353.87
493.90	23377.27
494.08	23763.46
494.25	23765.80
494.43	23756.44
494.61	23735.37
494.79	24180.07
494.96	24037.30
495.14	24233.91
495.32	24119.22
495.49	24409.45
495.67	24704.35
495.85	24727.76
496.02	24973.52
496.20	25200.55
496.38	25270.76
496.55	25362.04
496.73	25991.65
496.91	25558.65
497.09	25956.54
497.26	25802.07
497.44	25865.26
497.62	25898.03
497.79	26143.78
497.97	25839.51
498.14	26333.37
498.32	26471.46
498.50	26651.68
498.67	26801.47
498.85	26794.45
499.03	26951.27
499.20	26923.18
499.38	27051.91
499.56	27014.46
499.73	27386.61
499.91	27255.54
500.08	27676.83
500.26	27398.31
500.44	27421.72
500.61	27391.29
500.79	27393.63
500.97	27676.83
501.14	28236.22
501.32	27854.72
501.49	27953.02
501.67	28390.70
501.84	27929.61
502.02	28037.28
502.20	28425.81
502.37	29076.48
502.55	28589.64
502.72	29067.11
502.90	28835.40
503.07	29013.28
503.25	29284.78
503.43	28898.59
503.60	29003.92
503.78	28858.81
503.95	28830.72
504.13	29427.56
504.30	29387.77
504.48	29214.57
504.65	29656.93
504.83	29783.32
505.01	30218.66
505.18	29958.86
505.36	30312.28
505.53	30384.83
505.71	30649.32
505.88	30752.30
506.06	30085.25
506.23	30644.63
506.41	30658.68
506.58	30649.32
506.76	30654.00
506.93	31166.57
507.11	31187.64
507.28	30548.67
507.46	30794.43
507.63	30888.05
507.81	31250.83
507.98	31063.59
508.16	31321.05
508.33	31714.26
508.50	31491.91
508.68	31613.62
508.85	31957.67
509.03	32142.58
509.20	31950.65
509.38	32280.67
509.55	31934.27
509.73	32357.91
509.90	32233.86
510.08	32184.71
510.25	32334.50
510.42	32631.75
510.60	32837.72
510.77	32811.97
510.95	33523.49
511.12	33256.67
511.30	32896.23
511.47	32982.83
511.64	33235.61
511.82	33270.72
511.99	32938.36
512.17	33383.06
512.34	33366.68
512.51	33511.79
512.69	33741.16
512.86	33324.55
513.04	34075.86
513.21	33600.73
513.38	33715.42
513.56	33832.44
513.73	33464.98
513.90	34029.05
514.08	34010.32
514.25	34373.11
514.43	34005.64
514.60	33991.60
514.77	34518.22
514.95	34504.18
515.12	34471.41
515.29	34974.63
515.47	34756.96
515.64	34897.39
515.81	34749.93
515.99	35086.97
516.16	34637.59
516.33	34370.77
516.51	34747.59
516.68	34286.51
516.85	34080.54
517.03	34330.98
517.20	34794.40
517.37	35192.30
517.54	35660.40
517.72	35182.93
517.89	34672.70
518.06	35274.21
518.24	34859.94
518.41	35023.78
518.58	35168.89
518.75	35648.70
518.93	35990.42
519.10	35931.90
519.27	35545.72
519.45	35929.56
519.62	35833.60
519.79	36224.47
519.96	36587.25
520.14	36833.01
520.31	36074.68
520.48	36247.88
520.65	36318.09
520.83	36701.94
521.00	36795.56
521.17	36861.10
521.34	37060.04
521.52	36601.30
521.69	36910.25
521.86	37502.40
522.03	37219.20
522.20	37457.93
522.38	37663.90
522.55	37471.98
522.72	37443.89
522.89	37490.70
523.07	37366.65
523.24	37216.86
523.41	37834.76
523.58	37479.00
523.75	38082.86
523.92	38401.17
524.10	38050.09
524.27	38417.55
524.44	38279.46
524.61	38539.26
524.78	38244.35
524.96	38370.74
525.13	38780.34
525.30	38738.21
525.47	39007.37
525.64	38686.71
525.81	38726.50
525.98	38286.48
526.16	38024.34
526.33	38157.75
526.50	38246.69
526.67	38234.99
526.84	38298.19
527.01	38499.47
527.18	38822.47
527.36	38756.93
527.53	39789.11
527.70	39433.35
527.87	39133.76
528.04	39318.66
528.21	39105.67
528.38	39622.93
528.55	39997.41
528.72	40013.80
528.89	40254.87
529.07	39896.77
529.24	39583.14
529.41	39945.92
529.58	39445.05
529.75	40226.79
529.92	40231.47
530.09	40203.38
530.26	40355.52
530.43	40137.85
530.60	40100.40
530.77	40219.77
530.94	40737.02
531.11	40332.11
531.28	40547.44
531.46	40491.27
531.63	40449.14
531.80	40472.54
531.97	40577.87
532.14	40339.13
532.31	40332.11
532.48	40687.87
532.65	40446.80
532.82	40692.55
532.99	40985.12
533.16	40603.61
533.33	41078.74
533.50	41453.23
533.67	41305.77
533.84	40730.00
534.01	41584.30
534.18	41017.89
534.35	41366.63
534.52	40924.27
534.69	41476.63
534.86	41401.74
535.03	41352.58
535.20	42178.79
535.37	42085.17
535.54	41745.80
535.71	41734.09
535.88	41830.05
536.05	41619.41
536.22	41731.75
536.38	41603.02
536.55	41935.38
536.72	41778.56
536.89	41722.39
537.06	41921.34
537.23	42031.34
537.40	42045.38
537.57	42253.69
537.74	41930.70
537.91	42319.23
538.08	42115.60
538.25	41942.40
538.42	42426.89
538.59	42714.78
538.75	42108.58
538.92	42181.13
539.09	42431.57
539.26	42403.49
539.43	42583.71
539.60	42375.40
539.77	42721.80
539.94	42553.28
540.11	42780.31
540.28	42298.16
540.44	42368.38
540.61	42368.38
540.78	42810.74
540.95	42747.54
541.12	42232.63
541.29	42366.04
541.46	42653.92
541.62	43061.18
541.79	42932.45
541.96	42553.28
542.13	42918.40
542.30	43072.88
542.47	42944.15
542.63	42796.70
542.80	43196.93
542.97	43662.69
543.14	43861.64
543.31	43627.59
543.48	43234.38
543.64	44233.78
543.81	43803.13
543.98	43854.62
544.15	43576.09
544.32	43550.35
544.48	44032.50
544.65	44219.74
544.82	43936.54
544.99	43613.54
545.16	43945.90
545.32	43985.69
545.49	44451.45
545.66	44322.72
545.83	44069.95
546.00	44474.86
546.16	44186.97
546.33	44329.75
546.50	43796.10
546.67	44133.14
546.83	43814.83
547.00	44231.44
547.17	44414.01
547.34	44423.37
547.50	44732.32
547.67	44439.75
547.84	44762.75
548.00	44423.37
548.17	44980.42
548.34	44767.43
548.51	44718.28
548.67	45174.68
548.84	44879.77
549.01	44650.40
549.18	44898.50
549.34	44896.16
549.51	44872.75
549.68	44905.52
549.84	44982.76
550.01	44928.92
550.18	45322.13
550.34	44851.69
550.51	44989.78
550.68	44577.84
550.84	44664.44
551.01	44961.69
551.18	44835.30
551.34	45184.04
551.51	45134.89
551.68	45050.63
551.84	45762.15
552.01	45123.19
552.18	45413.41
552.34	45048.29
552.51	45104.46
552.68	44992.12
552.84	45759.81
553.01	45727.05
553.18	45184.04
553.34	45221.49
553.51	45036.59
553.67	45743.43
553.84	45715.34
554.01	45818.33
554.17	46050.04
554.34	46003.23
554.51	45797.26
554.67	45614.70
554.84	46115.58
555.00	45818.33
555.17	45745.77
555.33	45687.26
555.50	45380.65
555.67	45745.77
555.83	45734.07
556.00	45743.43
556.16	46134.30
556.33	45722.37
556.50	45757.47
556.66	45862.80
556.83	45453.20
556.99	46279.41
557.16	46155.36
557.32	45860.46
557.49	46408.14
557.65	45790.24
557.82	46052.38
557.98	46309.84
558.15	45783.22
558.32	45586.61
558.48	45869.82
558.65	45631.08
558.81	45806.62
558.98	46349.63
559.14	46014.93
559.31	46040.68
559.47	46019.61
559.64	46394.10
559.80	46534.53
559.97	46185.79
560.13	45956.42
560.30	46213.88
560.46	46092.17
560.63	46188.13
560.79	46646.88
560.96	46492.40
561.12	45977.48
561.29	46115.58
561.45	46078.13
561.61	46155.36
561.78	46092.17
561.94	46351.97
562.11	45869.82
562.27	46110.89
562.44	46295.80
562.60	46756.88
562.77	46571.98
562.93	46754.54
563.10	46883.27
563.26	45942.38
563.42	46501.76
563.59	46368.35
563.75	46445.59
563.92	46796.67
564.08	47009.66
564.24	46841.14
564.41	46515.81
564.57	46735.82
564.74	46410.48
564.90	46876.25
565.07	46712.41
565.23	46471.34
565.39	46646.88
565.56	46836.46
565.72	46569.64
565.88	46403.46
566.05	46686.67
566.21	46710.07
566.38	46799.01
566.54	46770.93
566.70	46473.68
566.87	46866.89
567.03	46836.46
567.19	47299.89
567.36	46728.80
567.52	46576.66
567.68	46674.96
567.85	46492.40
568.01	46557.94
568.17	46539.21
568.34	46887.95
568.50	46808.37
568.66	46714.75
568.83	47203.92
568.99	46309.84
569.15	47030.72
569.32	46220.90
569.48	46600.07
569.64	47100.94
569.81	46749.86
569.97	47091.58
570.13	46848.16
570.30	46696.03
570.46	46803.69
570.62	46366.01
570.78	46909.02
570.95	46532.19
571.11	46681.98
571.27	46752.20
571.43	46684.33
571.60	46864.55
571.76	46763.90
571.92	47033.07
572.09	46932.42
572.25	46775.61
572.41	46878.59
572.57	46909.02
572.74	47023.70
572.90	46822.42
573.06	46808.37
573.22	47047.11
573.38	46857.52
573.55	46726.46
573.71	47292.86
573.87	47278.82
574.03	46801.35
574.20	47093.92
574.36	46546.23
574.52	47178.18
574.68	47035.41
574.84	46724.11
575.01	46806.03
575.17	46789.65
575.33	46487.72
575.49	47009.66
575.65	46923.06
575.82	47131.37
575.98	47019.02
576.14	47026.04
576.30	47152.43
576.46	47107.96
576.62	46902.00
576.79	47037.75
576.95	47187.54
577.11	46855.18
577.27	46651.56
577.43	47131.37
577.59	46670.28
577.75	46632.83
577.92	46293.46
578.08	46274.73
578.24	46461.97
578.40	46841.14
578.56	46815.40
578.72	46880.93
578.88	47349.04
579.04	46953.49
579.21	47136.05
579.37	46864.55
579.53	46749.86
579.69	47140.73
579.85	46866.89
580.01	46925.40
580.17	46946.47
580.33	46890.29
580.49	46899.65
580.65	46930.08
580.82	46986.25
580.98	46909.02
581.14	47145.41
581.30	47217.97
581.46	47217.97
581.62	46834.12
581.78	47189.88
581.94	47370.10
582.10	46962.85
582.26	47194.56
582.42	46770.93
582.58	47182.86
582.74	47297.55
582.90	47040.09
583.06	47232.01
583.22	47072.85
583.38	47217.97
583.54	47426.28
583.70	46913.70
583.86	47278.82
584.02	46883.27
584.18	47215.63
584.34	47030.72
584.50	46700.71
584.66	46756.88
584.82	47285.84
584.98	47281.16
585.14	47047.11
585.30	46829.44
585.46	46864.55
585.62	46934.76
585.78	46703.05
585.94	46543.89
586.10	46782.63
586.26	46752.20
586.42	46972.21
586.58	47627.56
586.74	46799.01
586.90	47040.09
587.06	47171.16
587.22	47281.16
587.38	46967.53
587.54	47054.13
587.70	47166.48
587.86	47175.84
588.02	47114.98
588.18	47143.07
588.34	47035.41
588.49	46452.61
588.65	46419.84
588.81	46415.16
588.97	46440.91
589.13	46490.06
589.29	46417.50
589.45	46506.44
589.61	46689.01
589.77	47253.08
589.93	47072.85
590.08	47456.70
590.24	47264.78
590.40	47440.32
590.56	46883.27
590.72	46960.51
590.88	46827.10
591.04	47435.64
591.20	47735.23
591.35	46918.38
591.51	47751.61
591.67	46995.62
591.83	47313.93
591.99	47122.01
592.15	47037.75
592.31	47140.73
592.46	47196.90
592.62	47122.01
592.78	47704.80
592.94	47161.79
593.10	47138.39
593.26	47325.63
593.41	47143.07
593.57	46902.00
593.73	46969.87
593.89	47496.49
594.05	47089.24
594.20	46880.93
594.36	47388.83
594.52	47054.13
594.68	46965.19
594.84	47030.72
594.99	47620.54
595.15	47250.74
595.31	47379.46
595.47	46946.47
595.62	47508.19
595.78	47358.40
595.94	47295.21
596.10	47274.14
596.25	47716.50
596.41	47739.91
596.57	47248.39
596.73	47573.73
596.88	47334.99
597.04	47585.43
597.20	47236.69
597.36	47456.70
597.51	47217.97
597.67	47381.80
597.83	47695.44
597.99	47620.54
598.14	47587.77
598.30	47040.09
598.46	47337.33
598.61	47098.60
598.77	47035.41
598.93	47374.78
599.09	47456.70
599.24	47735.23
599.40	47381.80
599.56	47395.85
599.71	47255.42
599.87	47342.02
600.03	47061.15
600.18	47243.71
600.34	47356.06
600.50	47014.34
600.65	47138.39
600.81	47047.11
600.97	47538.62
601.12	47325.63
601.28	47236.69
601.44	47182.86
601.59	47124.35
601.75	46990.94
601.91	47040.09
602.06	47098.60
602.22	47508.19
602.37	47201.58
602.53	47285.84
602.69	47437.98
602.84	47281.16
603.00	46894.97
603.16	47445.00
603.31	47119.66
603.47	47110.30
603.62	46983.91
603.78	47484.79
603.94	47524.58
604.09	47491.81
604.25	47494.15
604.40	47070.51
604.56	47143.07
604.71	46946.47
604.87	46941.78
605.03	46923.06
605.18	47377.12
605.34	47370.10
605.49	46660.92
605.65	46969.87
605.80	46967.53
605.96	47318.61
606.12	47285.84
606.27	47281.16
606.43	47056.47
606.58	47175.84
606.74	46920.72
606.89	46913.70
607.05	47196.90
607.20	46916.04
607.36	46894.97
607.51	46777.95
607.67	47306.91
607.82	46689.01
607.98	46920.72
608.13	46667.94
608.29	46698.37
608.44	46962.85
608.60	46483.04
608.75	46602.41
608.91	46471.34
609.06	46763.90
609.22	46972.21
609.37	46445.59
609.53	46754.54
609.68	46321.54
609.84	46316.86
609.99	46295.80
610.15	46520.49
610.30	46717.09
610.46	46122.60
610.61	46183.45
610.76	46719.43
610.92	46820.08
611.07	46323.88
611.23	46710.07
611.38	46801.35
611.54	46560.28
611.69	45895.56
611.84	46150.68
612.00	46387.08
612.15	46007.91
612.31	46124.94
612.46	46220.90
612.62	46267.71
612.77	45766.84
612.92	46445.59
613.08	46005.57
613.23	46293.46
613.39	46033.66
613.54	45977.48
613.69	46148.34
613.85	46099.19
614.00	46103.87
614.15	46284.09
614.31	45764.49
614.46	46256.01
614.62	46068.76
614.77	46117.92
614.92	46134.30
615.08	45996.21
615.23	45727.05
615.38	45977.48
615.54	45827.69
615.69	45521.08
615.84	46094.51
616.00	45949.40
616.15	45813.65
616.30	46061.74
616.46	45024.89
616.61	45221.49
616.76	45478.95
616.92	45027.23
617.07	45081.06
617.22	45120.85
617.37	45518.74
617.53	45500.01
617.68	45743.43
617.83	45612.36
617.99	45797.26
618.14	45612.36
618.29	45844.07
618.45	45518.74
618.60	45111.49
618.75	45495.33
618.90	45563.21
619.06	45897.91
619.21	45539.80
619.36	45703.64
619.51	45628.74
619.67	45130.21
619.82	45287.03
619.97	45347.88
620.12	44994.46
620.28	45193.40
620.43	45052.97
620.58	44961.69
620.73	45191.06
620.89	45001.48
621.04	44800.19
621.19	45193.40
621.34	45193.40
621.49	44989.78
621.65	44474.86
621.80	44648.06
621.95	44933.60
622.10	44793.17
622.25	44669.12
622.41	44212.72
622.56	44388.26
622.71	44589.55
622.86	44463.16
623.01	44566.14
623.16	44353.15
623.32	44121.44
623.47	44704.23
623.62	44474.86
623.77	44355.49
623.92	44446.77
624.07	44435.07
624.23	44535.71
624.38	44531.03
624.53	44130.80
624.68	43889.73
624.83	44275.91
624.98	44467.84
625.13	43716.53
625.29	44161.23
625.44	44341.45
625.59	43372.47
625.74	43309.27
625.89	43529.28
626.04	43702.48
626.19	43882.70
626.34	44133.14
626.49	44390.60
626.65	44023.14
626.80	44285.28
626.95	44275.91
627.10	43821.85
627.25	43756.32
627.40	43604.18
627.55	43562.05
627.70	43288.21
627.85	43358.42
628.00	43229.69
628.15	43208.63
628.30	43143.09
628.45	43501.20
628.60	43255.44
628.76	43484.81
628.91	43442.68
629.06	43445.02
629.21	43318.64
629.36	43122.03
629.51	42841.17
629.66	43091.60
629.81	43037.77
629.96	43107.99
630.11	43194.59
630.26	43555.03
630.41	43391.19
630.56	43225.01
630.71	43337.36
630.86	42824.78
631.01	42742.86
631.16	43309.27
631.31	42483.06
631.46	42424.55
631.61	42810.74
631.76	43086.92
631.91	42782.65
632.06	43054.15
632.21	42770.95
632.36	42974.58
632.51	43047.13
632.66	42644.56
632.81	42562.64
632.96	42560.30
633.10	42515.83
633.25	42995.64
633.40	42698.39
633.55	42323.91
633.70	42213.90
633.85	42621.16
634.00	42899.68
634.15	42665.63
634.30	43086.92
634.45	42232.63
634.60	42195.18
634.75	42082.83
634.90	42403.49
635.05	42513.49
635.19	41991.55
635.34	42307.52
635.49	42576.69
635.64	42061.77
635.79	41691.96
635.94	41972.83
636.09	42279.44
636.24	41895.59
636.39	41827.71
636.53	42185.82
636.68	42167.09
636.83	42094.53
636.98	42291.14
637.13	41801.97
637.28	42176.45
637.43	42113.26
637.57	42450.30
637.72	41869.84
637.87	41478.97
638.02	41666.22
638.17	41610.04
638.32	41940.06
638.46	41778.56
638.61	41991.55
638.76	41399.40
638.91	41556.21
639.06	41668.56
639.20	41361.95
639.35	41804.31
639.50	41413.44
639.65	41525.78
639.80	41883.89
639.94	41296.41
640.09	41312.80
640.24	41298.75
640.39	41153.64
640.54	41057.68
640.68	41289.39
640.83	41296.41
640.98	41380.67
641.13	40879.80
641.27	41420.46
641.42	41027.25
641.57	41188.75
641.72	40753.41
641.86	40783.83
642.01	40540.42
642.16	40797.88
642.31	40905.54
642.45	41076.40
642.60	40671.49
642.75	40596.59
642.90	40650.42
643.04	40910.22
643.19	40919.59
643.34	40882.14
643.48	40858.73
643.63	40910.22
643.78	40250.19
643.93	40460.84
644.07	40542.76
644.22	40346.15
644.37	40512.33
644.51	40421.05
644.66	40456.16
644.81	40811.92
644.95	40772.13
645.10	40877.46
645.25	40414.03
645.39	40357.86
645.54	40327.43
645.69	40343.81
645.83	40842.35
645.98	40355.52
646.13	40360.20
646.27	40378.92
646.42	40065.29
646.57	40238.49
646.71	40278.28
646.86	39856.98
647.00	40100.40
647.15	40385.94
647.30	40088.70
647.44	40137.85
647.59	40280.62
647.74	39541.01
647.88	40100.40
648.03	39871.03
648.17	39894.43
648.32	39737.62
648.47	39754.00
648.61	40107.42
648.76	39833.58
648.90	39751.66
649.05	40088.70
649.20	39452.07
649.34	39627.61
649.49	39309.30
649.63	39487.18
649.78	39576.12
649.92	39894.43
650.07	39810.17
650.21	39166.52
650.36	39913.16
650.51	39639.31
650.65	39739.96
650.80	39974.01
650.94	39945.92
651.09	39459.09
651.23	39414.62
651.38	39377.17
651.52	39100.99
651.67	39501.22
651.81	39108.01
651.96	38951.20
652.10	39035.45
652.25	39040.14
652.39	38796.72
652.54	39168.87
652.68	39405.26
652.83	39129.08
652.97	39239.08
653.12	39487.18
653.26	38934.81
653.41	39072.90
653.55	38878.64
653.70	38618.84
653.84	39084.61
653.99	39248.44
654.13	38885.66
654.27	38525.22
654.42	38511.17
654.56	38550.96
654.71	38703.10
654.85	38883.32
655.00	38986.30
655.14	38363.72
655.29	38602.46
655.43	38043.07
655.57	37888.59
655.72	38022.00
655.86	37539.85
656.01	37759.86
656.15	38139.03
656.30	37968.17
656.44	37921.36
656.58	37589.00
656.73	37584.32
656.87	38181.16
657.01	38199.88
657.16	38321.59
657.30	37675.60
657.45	37851.14
657.59	37577.30
657.73	37965.83
657.88	38080.52
658.02	38536.92
658.16	38352.02
658.31	38164.78
658.45	38181.16
658.60	38234.99
658.74	38209.25
658.88	38068.81
659.03	37572.62
659.17	37736.46
659.31	37605.39
659.46	37275.37
659.60	37570.28
659.74	37879.23
659.89	37790.29
660.03	37249.63
660.17	37397.08
660.32	37544.53
660.46	37401.76
660.60	37282.39
660.74	37247.29
660.89	37411.12
661.03	36907.91
661.17	37235.58
661.32	36713.64
661.46	36762.79
661.60	37195.79
661.74	36968.76
661.89	36723.01
662.03	36828.33
662.17	36559.17
662.31	36510.02
662.46	37209.84
662.60	36804.92
662.74	36851.73
662.88	36465.55
663.03	36437.46
663.17	36425.76
663.31	36210.43
663.45	36247.88
663.60	36598.96
663.74	36210.43
663.88	36364.90
664.02	36156.60
664.17	36439.80
664.31	36039.57
664.45	35807.86
664.59	35952.97
664.73	35924.88
664.88	36222.13
665.02	35531.67
665.16	35814.88
665.30	35374.86
665.44	35718.92
665.59	35267.19
665.73	35379.54
665.87	35377.20
666.01	35381.88
666.15	35505.93
666.29	35669.76
666.44	35290.60
666.58	35236.77
666.72	35288.26
666.86	34983.99
667.00	35056.54
667.14	34995.69
667.28	34773.34
667.43	34134.37
667.57	34768.66
667.71	34511.20
667.85	34450.35
667.99	34857.60
668.13	34609.50
668.27	34775.68
668.41	34763.98
668.56	34349.70
668.70	34583.76
668.84	34483.11
668.98	34567.37
669.12	34199.91
669.26	33881.60
669.40	33818.40
669.54	33965.85
669.68	34134.37
669.82	33582.01
669.96	33303.48
670.10	33970.54
670.25	34015.01
670.39	33839.47
670.53	33654.56
670.67	33570.30
670.81	33385.40
670.95	33062.41
671.09	33493.07
671.23	33191.14
671.37	33404.13
671.51	33022.62
671.65	33125.60
671.79	32788.56
671.93	33195.82
672.07	33015.60
672.21	33036.66
672.35	32584.94
672.49	32725.37
672.63	32306.41
672.77	32226.84
672.91	32769.84
673.05	32622.39
673.19	32453.87
673.33	32250.24
673.47	32027.89
673.61	32037.25
673.75	31969.38
673.89	31606.59
674.03	31489.57
674.17	32126.19
674.31	31978.74
674.45	31805.54
674.59	31754.05
674.73	32098.11
674.87	31707.24
675.01	31529.36
675.15	31349.14
675.29	31108.06
675.43	31241.47
675.56	31646.38
675.70	31253.17
675.84	31377.22
675.98	30403.56
676.12	31285.94
676.26	30991.03
676.40	30574.42
676.54	30874.01
676.68	31129.12
676.82	30331.00
676.96	30513.56
677.10	30436.33
677.23	30469.09
677.37	30164.82
677.51	30162.48
677.65	29996.31
677.79	29399.47
677.93	30010.35
678.07	29954.18
678.21	29294.14
678.34	29446.28
678.48	29289.46
678.62	29193.50
678.76	28889.23
678.90	29160.73
679.04	28849.44
679.18	29120.95
679.31	28865.83
679.45	28638.80
679.59	28545.17
679.73	28467.94
679.87	28346.23
680.00	28570.92
680.14	28371.97
680.28	28304.10
680.42	28250.27
680.56	28350.91
680.70	28285.37
680.83	27931.95
680.97	28074.73
681.11	28081.75
681.25	27744.71
681.39	27307.03
681.52	27733.01
681.66	27800.88
681.80	27391.29
681.94	27583.21
682.07	27618.32
682.21	27447.46
682.35	27255.54
682.49	27241.50
682.62	26867.01
682.76	27136.17
682.90	26754.66
683.04	26597.85
683.17	26251.45
683.31	26164.85
683.45	26431.67
683.59	26160.17
683.72	25778.66
683.86	25724.83
684.00	26036.12
684.13	26293.58
684.27	25806.75
684.41	25998.67
684.55	25570.35
684.68	25439.28
684.82	25177.14
684.96	25474.39
685.09	25626.53
685.23	24753.51
685.37	25144.38
685.50	24950.11
685.64	25029.69
685.78	24737.12
685.91	24484.34
686.05	24568.60
686.19	24584.99
686.32	24531.15
686.46	23793.89
686.60	23496.64
686.73	23761.12
686.87	23531.75
687.01	23274.29
687.14	23510.68
687.28	23161.94
687.42	23573.88
687.55	23613.66
687.69	23627.71
687.82	23220.45
687.96	23241.52
688.10	23667.50
688.23	23019.17
688.37	23197.05
688.50	22665.75
688.64	22761.71
688.78	22876.40
688.91	22726.60
689.05	22855.33
689.18	22668.09
689.32	22483.19
689.46	22223.39
689.59	22553.40
689.73	22527.66
689.86	22284.24
690.00	22225.73
690.13	22108.70
690.27	21928.48
690.41	22031.46
690.54	21743.58
690.68	21254.40
690.81	21521.23
690.95	21418.24
691.08	21193.55
691.22	21586.76
691.35	21479.10
691.49	21628.89
691.62	21661.66
691.76	21465.05
691.89	21067.16
692.03	21095.25
692.16	20872.90
692.30	20849.49
692.43	20788.64
692.57	20231.59
692.70	20685.65
692.84	20556.93
692.97	20306.49
693.11	20166.06
693.24	20360.32
693.38	19974.13
693.51	19688.59
693.65	20219.89
693.78	20208.19
693.92	20116.90
694.05	19719.01
694.19	20018.60
694.32	19599.65
694.45	19541.13
694.59	19424.11
694.72	18885.78
694.86	19225.16
694.99	19035.58
695.13	19009.83
695.26	19140.90
695.39	18792.16
695.53	18853.02
695.66	19108.13
695.80	18766.42
695.93	18714.92
696.07	18724.29
696.20	18410.65
696.33	18537.04
696.47	18389.59
696.60	18171.92
696.73	18167.24
696.87	18230.43
697.00	18075.96
697.14	18321.71
697.27	17872.33
697.40	17834.88
697.54	17944.89
697.67	17385.50
697.80	17872.33
697.94	17357.41
698.07	17341.03
698.21	17329.33
698.34	17401.88
698.47	17214.64
698.61	17163.15
698.74	16826.11
698.87	16823.77
699.01	16507.80
699.14	16982.93
699.27	16479.71
699.40	16503.12
699.54	16470.35
699.67	16468.01
699.80	16379.07
699.94	16217.57
700.07	16161.40
700.20	16409.50
700.34	16395.45
700.47	16287.79
700.60	16257.36
700.73	16350.98
700.87	16388.43
701.00	16044.37
701.13	16030.33
701.26	15704.99
701.40	15768.19
701.53	15569.24
701.66	15496.69
701.79	15543.50
701.93	15623.08
702.06	15164.33
702.19	15185.40
702.32	15166.67
702.46	15084.75
702.59	14911.55
702.72	15197.10
702.85	15014.54
702.99	15122.20
703.12	15236.89
703.25	15176.03
703.38	14595.58
703.51	14363.87
703.65	14750.06
703.78	14546.43
703.91	14501.96
704.04	14387.27
704.17	14384.93
704.31	14087.68
704.44	14300.67
704.57	14235.14
704.70	13891.08
704.83	14057.26
704.96	14143.86
705.10	13858.31
705.23	14022.15
>>>>>End Processed Spectral Data<<<<<
