SpectraSuite Data File
++++++++++++++++++++++++++++++++++++
Date: Fri Oct 25 10:48:18 EDT 2013
User: price-jones
Dark Spectrum Present: No
Reference Spectrum Present: No
Number of Sampled Component Spectra: 1
Spectrometers: USB2+H05261
Integration Time (usec): 100000 (USB2+H05261)
Spectra Averaged: 1 (USB2+H05261)
Boxcar Smoothing: 0 (USB2+H05261)
Correct for Electrical Dark: No (USB2+H05261)
Strobe/Lamp Enabled: No (USB2+H05261)
Correct for Detector Non-linearity: No (USB2+H05261)
Correct for Stray Light: No (USB2+H05261)
Number of Pixels in Processed Spectrum: 2048
>>>>>Begin Processed Spectral Data<<<<<
365.73	128.73
365.92	128.73
366.12	128.73
366.32	159.16
366.52	65.54
366.72	131.07
366.91	51.49
367.11	49.15
367.31	100.64
367.51	0.00
367.70	46.81
367.90	49.15
368.10	72.56
368.30	21.06
368.49	9.36
368.69	56.17
368.89	0.00
369.09	79.58
369.28	65.54
369.48	79.58
369.68	65.54
369.87	95.96
370.07	93.62
370.27	131.07
370.47	208.31
370.66	376.83
370.86	444.70
371.06	444.70
371.25	580.45
371.45	489.17
371.65	550.03
371.84	447.04
372.04	451.72
372.24	580.45
372.44	496.19
372.63	554.71
372.83	585.13
373.03	514.92
373.22	517.26
373.42	557.05
373.62	573.43
373.81	486.83
374.01	528.96
374.21	638.97
374.40	559.39
374.60	622.58
374.79	575.77
374.99	554.71
375.19	524.28
375.38	660.03
375.58	692.80
375.78	638.97
375.97	552.37
376.17	695.14
376.37	653.01
376.56	683.44
376.76	610.88
376.95	669.39
377.15	627.26
377.35	664.71
377.54	690.46
377.74	674.07
377.93	678.76
378.13	744.29
378.33	807.48
378.52	706.84
378.72	723.23
378.91	688.12
379.11	697.48
379.31	676.41
379.50	699.82
379.70	706.84
379.89	620.24
380.09	758.33
380.28	723.23
380.48	704.50
380.68	727.91
380.87	725.57
381.07	702.16
381.26	823.87
381.46	755.99
381.65	667.05
381.85	746.63
382.04	774.72
382.24	753.65
382.43	732.59
382.63	748.97
382.83	777.06
383.02	760.67
383.22	816.85
383.41	805.14
383.61	683.44
383.80	854.30
384.00	814.51
384.19	858.98
384.39	849.61
384.58	758.33
384.78	870.68
384.97	772.38
385.17	819.19
385.36	802.80
385.56	840.25
385.75	819.19
385.95	821.53
386.14	882.38
386.34	931.53
386.53	851.96
386.72	943.24
386.92	908.13
387.11	891.74
387.31	870.68
387.50	861.32
387.70	922.17
387.89	880.04
388.09	922.17
388.28	905.79
388.48	908.13
388.67	926.85
388.86	870.68
389.06	945.58
389.25	978.34
389.45	1034.52
389.64	1093.03
389.84	1123.46
390.03	1170.27
390.22	1088.35
390.42	973.66
390.61	1081.33
390.81	1064.94
391.00	1114.10
391.19	1114.10
391.39	1107.07
391.58	1090.69
391.78	1116.44
391.97	1128.14
392.16	1050.90
392.36	1069.62
392.55	1039.20
392.75	1081.33
392.94	1034.52
393.13	1018.13
393.33	1076.65
393.52	1071.97
393.71	1186.65
393.91	1062.60
394.10	1083.67
394.29	1203.04
394.49	1245.16
394.68	1245.16
394.88	1268.57
395.07	1320.06
395.26	1268.57
395.46	1186.65
395.65	1289.64
395.84	1362.19
396.04	1280.27
396.23	1289.64
396.42	1205.38
396.62	1284.95
396.81	1249.85
397.00	1289.64
397.19	1327.08
397.39	1474.54
397.58	1390.28
397.77	1371.55
397.97	1406.66
398.16	1432.41
398.35	1530.71
398.55	1626.67
398.74	1666.46
398.93	1584.54
399.12	1563.48
399.32	1563.48
399.51	1540.07
399.70	1629.01
399.90	1673.48
400.09	1600.93
400.28	1619.65
400.47	1696.89
400.67	1750.72
400.86	1699.23
401.05	1769.44
401.24	1713.27
401.44	1830.30
401.63	1673.48
401.82	1856.04
402.01	1748.38
402.21	1760.08
402.40	1839.66
402.59	1778.81
402.78	1767.10
402.97	1834.98
403.17	1818.60
403.36	1895.83
403.55	1909.88
403.74	2059.67
403.93	1928.60
404.13	1849.02
404.32	1952.01
404.51	1912.22
404.70	1989.46
404.89	1954.35
405.09	2052.65
405.28	2026.90
405.47	2001.16
405.66	1973.07
405.85	2045.63
406.05	1980.09
406.24	2040.95
406.43	2094.78
406.62	2197.76
406.81	2225.85
407.00	2148.61
407.20	2153.29
407.39	2078.40
407.58	2162.66
407.77	2282.02
407.96	2335.85
408.15	2296.07
408.34	2165.00
408.54	2356.92
408.73	2335.85
408.92	2349.90
409.11	2335.85
409.30	2406.07
409.49	2338.20
409.68	2363.94
409.87	2303.09
410.07	2410.75
410.26	2389.69
410.45	2448.20
410.64	2562.89
410.83	2602.68
411.02	2651.83
411.21	2630.76
411.40	2619.06
411.59	2794.60
411.78	2710.34
411.98	2630.76
412.17	2745.45
412.36	2754.81
412.55	2853.11
412.74	2913.97
412.93	2717.36
413.12	2754.81
413.31	2860.13
413.50	2888.22
413.69	2932.69
413.88	3021.63
414.07	3054.40
414.26	3063.76
414.45	2984.18
414.64	3030.99
414.83	3166.74
415.02	3138.66
415.22	3157.38
415.41	3337.60
415.60	3325.90
415.79	3283.77
415.98	3272.07
416.17	3339.94
416.36	3328.24
416.55	3307.18
416.74	3377.39
416.93	3379.73
417.12	3510.80
417.31	3468.67
417.50	3534.21
417.69	3602.08
417.88	3459.31
418.07	3489.74
418.26	3590.38
418.45	3527.19
418.64	3824.44
418.83	3674.64
419.02	3698.05
419.21	3803.37
419.39	3698.05
419.58	3609.11
419.77	3653.58
419.96	3634.85
420.15	3829.12
420.34	3808.05
420.53	3936.78
420.72	3995.29
420.91	3763.58
421.10	3955.51
421.29	4081.89
421.48	3929.76
421.67	4102.96
421.86	4018.70
422.05	3999.98
422.24	3995.29
422.43	3880.61
422.61	4037.42
422.80	3772.94
422.99	3927.42
423.18	3978.91
423.37	4095.94
423.56	4056.15
423.75	4009.34
423.94	4114.66
424.13	3751.88
424.32	3894.65
424.50	3997.64
424.69	4184.88
424.88	4170.83
425.07	4042.11
425.26	3927.42
425.45	3871.25
425.64	4131.05
425.83	4306.59
426.01	4102.96
426.20	4147.43
426.39	4072.53
426.58	4021.04
426.77	3950.82
426.96	4173.18
427.15	4135.73
427.33	4086.58
427.52	4227.01
427.71	4278.50
427.90	4194.24
428.09	4299.56
428.28	4156.79
428.46	4252.75
428.65	4358.08
428.84	4318.29
429.03	4379.14
429.22	4243.39
429.40	4365.10
429.59	4241.05
429.78	4067.85
429.97	4067.85
430.16	4088.92
430.34	4170.83
430.53	4376.80
430.72	4397.87
430.91	4386.16
431.10	4416.59
431.28	4753.63
431.47	4739.58
431.66	4816.82
431.85	4603.83
432.03	4709.16
432.22	4816.82
432.41	4936.19
432.60	4919.81
432.79	5011.09
432.97	4917.47
433.16	4873.00
433.35	4877.68
433.54	4929.17
433.72	4919.81
433.91	4741.93
434.10	4868.31
434.28	5001.72
434.47	4812.14
434.66	5053.22
434.85	5121.09
435.03	5088.32
435.22	4938.53
435.41	5205.35
435.59	5254.50
435.78	5214.71
435.97	5371.53
436.16	5324.72
436.34	5268.55
436.53	5343.44
436.72	5504.94
436.90	5104.71
437.09	5317.70
437.28	5172.58
437.46	5266.21
437.65	5305.99
437.84	5469.83
438.02	5362.17
438.21	5308.34
438.40	5123.43
438.58	5427.70
438.77	5591.54
438.96	5685.16
439.14	5689.84
439.33	5806.87
439.52	5825.59
439.70	5799.85
439.89	5837.30
440.08	5849.00
440.26	5877.09
440.45	5956.66
440.63	6026.88
440.82	5998.79
441.01	6293.70
441.19	6363.92
441.38	6118.16
441.57	6270.30
441.75	6359.24
441.94	6441.15
442.12	6630.74
442.31	6626.06
442.50	6668.19
442.68	6509.03
442.87	6518.39
443.05	6551.16
443.24	6738.40
443.43	6537.12
443.61	6644.78
443.80	6761.81
443.98	6607.33
444.17	6349.87
444.35	6693.93
444.54	6836.70
444.73	6675.21
444.91	6593.29
445.10	6736.06
445.28	6630.74
445.47	6485.62
445.65	6476.26
445.84	6759.47
446.02	6722.02
446.21	6803.94
446.39	6768.83
446.58	6766.49
446.77	6750.10
446.95	6712.66
447.14	6792.23
447.32	6951.39
447.51	6801.60
447.69	6920.96
447.88	6820.32
448.06	7005.22
448.25	7005.22
448.43	6906.92
448.62	6974.80
448.80	6981.82
448.99	6857.77
449.17	7026.29
449.36	6953.73
449.54	7176.08
449.73	7229.91
449.91	7267.36
450.10	7372.69
450.28	7492.05
450.46	7442.90
450.65	7417.16
450.83	7377.37
451.02	7318.86
451.20	7405.46
451.39	7445.24
451.57	7391.41
451.76	7300.13
451.94	7487.37
452.13	7541.21
452.31	7162.04
452.49	7225.23
452.68	7258.00
452.86	7365.67
453.05	7571.63
453.23	7653.55
453.42	7676.96
453.60	7604.40
453.78	7644.19
453.97	7503.76
454.15	7632.49
454.34	7541.21
454.52	7854.84
454.70	7751.85
454.89	7815.05
455.07	7801.01
455.26	8028.04
455.44	8074.85
455.62	8077.19
455.81	7892.29
455.99	8023.36
456.17	7934.42
456.36	8152.09
456.54	8049.10
456.73	8161.45
456.91	8355.71
457.09	8409.54
457.28	8489.12
457.46	8386.14
457.64	8336.99
457.83	8400.18
458.01	8072.51
458.19	8744.24
458.38	8503.17
458.56	8606.15
458.74	8425.93
458.93	8461.04
459.11	8617.85
459.29	8393.16
459.48	8535.93
459.66	8578.06
459.84	8542.96
460.03	8814.46
460.21	8631.90
460.39	8650.62
460.57	8762.97
460.76	8891.70
460.94	9048.51
461.12	8872.97
461.31	8856.59
461.49	8798.07
461.67	8922.12
461.85	9125.75
462.04	9013.40
462.22	9376.19
462.40	9144.47
462.59	9146.81
462.77	9153.84
462.95	9142.13
463.13	9125.75
463.32	9179.58
463.50	9095.32
463.68	9289.59
463.86	9252.14
464.05	9107.02
464.23	9390.23
464.41	9610.24
464.59	9156.18
464.78	9500.23
464.96	9310.65
465.14	9104.68
465.32	9397.25
465.50	9394.91
465.69	9441.72
465.87	9530.66
466.05	9430.02
466.23	9469.81
466.41	9425.34
466.60	9577.47
466.78	9287.25
466.96	9554.07
467.14	9474.49
467.32	9551.73
467.51	9654.71
467.69	9474.49
467.87	9699.18
468.05	9696.84
468.23	9650.03
468.41	9741.31
468.60	9830.25
468.78	9657.05
468.96	9905.15
469.14	9968.34
469.32	10022.17
469.50	9633.64
469.69	10108.77
469.87	10120.48
470.05	10284.31
470.23	9989.41
470.41	10111.11
470.59	10251.55
470.77	10249.21
470.95	9968.34
471.14	10445.81
471.32	10183.67
471.50	10523.05
471.68	10569.86
471.86	10832.00
472.04	10628.37
472.22	10890.51
472.40	10506.66
472.58	10665.82
472.77	10857.75
472.95	10848.38
473.13	11199.46
473.31	10867.11
473.49	11059.03
473.67	10946.69
473.85	11117.54
474.03	11353.94
474.21	11239.25
474.39	11304.79
474.57	11370.32
474.75	11419.47
474.93	11573.95
475.12	11433.52
475.30	11524.80
475.48	11611.40
475.66	11569.27
475.84	11669.91
476.02	11962.48
476.20	11777.58
476.38	11840.77
476.56	12201.21
476.74	12119.29
476.92	12063.12
477.10	12123.98
477.28	12489.10
477.46	12498.46
477.64	12456.33
477.82	12725.49
478.00	12833.16
478.18	13043.81
478.36	12898.69
478.54	12919.76
478.72	13006.36
478.90	13245.09
479.08	13586.81
479.26	13631.28
479.44	13511.91
479.62	13399.57
479.80	13778.73
479.98	13778.73
480.16	14085.34
480.34	13867.67
480.52	13905.12
480.70	14150.88
480.88	13973.00
481.06	14169.60
481.24	14534.73
481.41	14572.18
481.59	14911.55
481.77	14934.96
481.95	14792.19
482.13	15094.11
482.31	15133.90
482.49	15218.16
482.67	15555.20
482.85	15365.62
483.03	15639.46
483.21	15503.71
483.39	15807.98
483.57	15688.61
483.74	15871.17
483.92	16091.18
484.10	16053.73
484.28	16322.90
484.46	16484.39
484.64	16793.34
484.82	16617.80
485.00	16510.14
485.18	16795.68
485.35	17067.19
485.53	16512.48
485.71	16620.14
485.89	17001.65
486.07	16589.72
486.25	16856.54
486.43	17301.24
486.61	17795.09
486.78	17750.62
486.96	17900.42
487.14	18230.43
487.32	18412.99
487.50	18810.89
487.68	18583.85
487.85	19014.51
488.03	18780.46
488.21	19307.08
488.39	19126.86
488.57	19513.05
488.75	19510.71
488.92	19403.04
489.10	19873.49
489.28	19929.66
489.46	20013.92
489.64	20479.69
489.81	20634.16
489.99	20769.91
490.17	20734.81
490.35	21179.51
490.53	20893.96
490.70	21188.87
490.88	20936.09
491.06	21390.16
491.24	20943.11
491.41	21333.98
491.59	21614.85
491.77	21469.73
491.95	21488.46
492.13	21687.40
492.30	21914.44
492.48	22094.66
492.66	22232.75
492.84	22438.72
493.01	22530.00
493.19	22466.80
493.37	22689.15
493.54	22733.62
493.72	23054.28
493.90	23084.70
494.08	23463.87
494.25	23817.29
494.43	23737.71
494.61	24229.23
494.79	24266.67
494.96	23875.80
495.14	23950.70
495.32	24372.00
495.49	24364.98
495.67	24638.82
495.85	24851.81
496.02	24751.17
496.20	25020.33
496.38	24947.77
496.55	25333.96
496.73	25560.99
496.91	25523.54
497.09	25710.78
497.26	25832.49
497.44	25825.47
497.62	25809.09
497.79	25942.50
497.97	25860.58
498.14	26080.59
498.32	26288.90
498.50	26354.43
498.67	26817.86
498.85	26747.64
499.03	26981.70
499.20	27080.00
499.38	26895.10
499.56	27082.34
499.73	27302.35
499.91	27590.24
500.08	27557.47
500.26	27133.83
500.44	27569.17
500.61	27716.62
500.79	27234.47
500.97	27433.42
501.14	28032.60
501.32	27887.48
501.49	27625.34
501.67	27683.86
501.84	28142.60
502.02	28109.83
502.20	28402.40
502.37	28243.24
502.55	28617.73
502.72	29034.35
502.90	28922.00
503.07	29149.03
503.25	28819.02
503.43	28364.95
503.60	28540.49
503.78	29132.65
503.95	28957.11
504.13	29139.67
504.30	29415.85
504.48	29600.76
504.65	29401.81
504.83	29560.97
505.01	30197.59
505.18	30153.12
505.36	30349.73
505.53	30096.95
505.71	30150.78
505.88	30766.34
506.06	30099.29
506.23	29855.87
506.41	30429.30
506.58	30572.08
506.76	30438.67
506.93	30864.64
507.11	31033.16
507.28	30623.57
507.46	30794.43
507.63	30670.38
507.81	31044.87
507.98	30876.35
508.16	31096.36
508.33	31307.01
508.50	31454.46
508.68	31812.56
508.85	32133.21
509.03	31889.80
509.20	31997.46
509.38	32067.68
509.55	32573.24
509.73	32109.81
509.90	32257.26
510.08	31732.98
510.25	32746.44
510.42	32252.58
510.60	32428.12
510.77	32870.48
510.95	32636.43
511.12	32804.95
511.30	33104.54
511.47	33340.93
511.64	33464.98
511.82	33247.31
511.99	32879.85
512.17	33277.74
512.34	33022.62
512.51	33235.61
512.69	33764.57
512.86	33762.23
513.04	33961.17
513.21	33825.42
513.38	33661.58
513.56	33780.95
513.73	33546.90
513.90	33684.99
514.08	33703.71
514.25	33797.34
514.43	33905.00
514.60	33933.09
514.77	34087.56
514.95	34415.24
515.12	34410.56
515.29	34043.09
515.47	35089.31
515.64	34848.24
515.81	34660.99
515.99	34382.47
516.16	34873.98
516.33	34164.80
516.51	34508.86
516.68	34391.83
516.85	34389.49
517.03	34412.90
517.20	34653.97
517.37	34941.86
517.54	35180.59
517.72	35040.16
517.89	35077.61
518.06	34829.51
518.24	35168.89
518.41	34967.60
518.58	35487.20
518.75	35571.46
518.93	35739.98
519.10	35803.17
519.27	35950.63
519.45	36002.12
519.62	36313.41
519.79	36320.43
519.96	36664.49
520.14	36589.59
520.31	36631.72
520.48	36720.66
520.65	36364.90
520.83	36840.03
521.00	36456.18
521.17	36641.09
521.34	36861.10
521.52	37282.39
521.69	37713.05
521.86	36982.80
522.03	37560.92
522.20	37055.36
522.38	37488.36
522.55	37483.68
522.72	37277.71
522.89	37207.50
523.07	37703.69
523.24	37963.49
523.41	37813.70
523.58	37855.82
523.75	37741.14
523.92	38085.20
524.10	38251.38
524.27	37972.85
524.44	38141.37
524.61	38279.46
524.78	38808.42
524.96	38279.46
525.13	38637.56
525.30	38490.11
525.47	38604.80
525.64	38459.68
525.81	38698.42
525.98	38574.37
526.16	37965.83
526.33	38326.27
526.50	38738.21
526.67	38230.31
526.84	38649.27
527.01	38595.43
527.18	38593.09
527.36	38995.67
527.53	39035.45
527.70	39669.74
527.87	39351.43
528.04	38813.10
528.21	39714.21
528.38	39791.45
528.55	39821.87
528.72	39632.29
528.89	39997.41
529.07	39765.70
529.24	39510.58
529.41	39859.32
529.58	40023.16
529.75	39943.58
529.92	40367.22
530.09	40058.27
530.26	40179.98
530.43	40512.33
530.60	40226.79
530.77	40205.72
530.94	40257.21
531.11	40179.98
531.28	40404.67
531.46	40554.46
531.63	40699.58
531.80	40917.25
531.97	40573.19
532.14	40786.18
532.31	40388.28
532.48	40605.95
532.65	40554.46
532.82	40484.25
532.99	41265.99
533.16	40531.06
533.33	40919.59
533.50	40875.12
533.67	41347.90
533.84	40657.45
534.01	41010.87
534.18	40999.16
534.35	41443.87
534.52	40945.33
534.69	41031.93
534.86	41432.16
535.03	41214.49
535.20	41607.70
535.37	41448.55
535.54	41787.92
535.71	41497.70
535.88	41457.91
536.05	41530.47
536.22	42045.38
536.38	41741.11
536.55	41448.55
536.72	41642.81
536.89	41457.91
537.06	41610.04
537.23	41902.61
537.40	41951.76
537.57	41813.67
537.74	42443.27
537.91	41940.06
538.08	42607.11
538.25	41916.65
538.42	42614.13
538.59	42609.45
538.75	41965.81
538.92	42246.67
539.09	42775.63
539.26	42356.67
539.43	42452.64
539.60	42314.55
539.77	42469.02
539.94	42323.91
540.11	42335.61
540.28	42700.73
540.44	42351.99
540.61	42099.22
540.78	42670.31
540.95	42588.39
541.12	42525.19
541.29	42951.17
541.46	42625.84
541.62	43126.71
541.79	42887.98
541.96	42951.17
542.13	42770.95
542.30	42740.52
542.47	42799.04
542.63	43269.48
542.80	43346.72
542.97	43943.56
543.14	43784.40
543.31	43419.28
543.48	43929.51
543.64	43639.29
543.81	44121.44
543.98	43962.28
544.15	43950.58
544.32	44184.63
544.48	44058.24
544.65	44147.18
544.82	43667.37
544.99	43981.01
545.16	44083.99
545.32	43697.80
545.49	43838.23
545.66	44369.54
545.83	44304.00
546.00	44353.15
546.16	44334.43
546.33	44109.74
546.50	43681.42
546.67	44163.57
546.83	43693.12
547.00	43983.35
547.17	44093.35
547.34	44577.84
547.50	44549.76
547.67	44737.00
547.84	44629.34
548.00	44711.25
548.17	44453.79
548.34	44409.32
548.51	44924.24
548.67	44598.91
548.84	45120.85
549.01	44875.09
549.18	44704.23
549.34	44975.73
549.51	44924.24
549.68	45043.61
549.84	44802.53
550.01	45254.26
550.18	44587.21
550.34	45216.81
550.51	45062.33
550.68	45165.32
550.84	44467.84
551.01	45443.84
551.18	45205.11
551.34	45144.25
551.51	45130.21
551.68	45647.47
551.84	45450.86
552.01	45137.23
552.18	45483.63
552.34	45120.85
552.51	45511.72
552.68	45581.93
552.84	45427.46
553.01	45930.67
553.18	45738.75
553.34	45705.98
553.51	45734.07
553.67	45925.99
553.84	45689.60
554.01	45869.82
554.17	45738.75
554.34	45647.47
554.51	45867.48
554.67	45801.94
554.84	45448.52
555.00	45542.14
555.17	45815.99
555.33	46066.42
555.50	45495.33
555.67	45937.69
555.83	45729.39
556.00	45947.06
556.16	46169.41
556.33	46415.16
556.50	45738.75
556.66	46110.89
556.83	45584.27
556.99	46061.74
557.16	46181.11
557.32	46635.17
557.49	46068.76
557.65	45895.56
557.82	46146.00
557.98	46096.85
558.15	46106.21
558.32	46073.45
558.48	45916.63
558.65	45904.93
558.81	46096.85
558.98	45713.00
559.14	46061.74
559.31	45989.19
559.47	46433.89
559.64	46330.90
559.80	46532.19
559.97	46398.78
560.13	45778.54
560.30	46351.97
560.46	46078.13
560.63	46281.75
560.79	46288.77
560.96	46499.42
561.12	46330.90
561.29	46590.70
561.45	46038.34
561.61	46181.11
561.78	46469.00
561.94	46129.62
562.11	46810.71
562.27	46473.68
562.44	46487.72
562.60	47166.48
562.77	47161.79
562.93	46836.46
563.10	46777.95
563.26	46164.73
563.42	46852.84
563.59	46604.75
563.75	46511.13
563.92	46375.37
564.08	46548.57
564.24	46703.05
564.41	46899.65
564.57	46698.37
564.74	46791.99
564.90	46801.35
565.07	46616.45
565.23	46515.81
565.39	46366.01
565.56	46679.64
565.72	46494.74
565.88	46721.77
566.05	47000.30
566.21	46515.81
566.38	46574.32
566.54	46925.40
566.70	46927.74
566.87	47463.72
567.03	47061.15
567.19	47346.70
567.36	47007.32
567.52	46876.25
567.68	47189.88
567.85	47136.05
568.01	46873.91
568.17	46909.02
568.34	46768.58
568.50	46777.95
568.66	47159.45
568.83	46817.74
568.99	46562.62
569.15	46850.50
569.32	46909.02
569.48	46586.02
569.64	46693.69
569.81	47054.13
569.97	46653.90
570.13	46965.19
570.30	46696.03
570.46	46707.73
570.62	46459.63
570.78	46902.00
570.95	46904.34
571.11	46670.28
571.27	46909.02
571.43	46976.89
571.60	47356.06
571.76	46824.76
571.92	46951.15
572.09	47388.83
572.25	46916.04
572.41	47117.32
572.57	46894.97
572.74	47693.10
572.90	46995.62
573.06	47122.01
573.22	47021.36
573.38	47138.39
573.55	46887.95
573.71	47250.74
573.87	47337.33
574.03	47210.95
574.20	47098.60
574.36	46925.40
574.52	47028.38
574.68	47042.43
574.84	46981.57
575.01	47187.54
575.17	46960.51
575.33	46607.09
575.49	46916.04
575.65	47271.80
575.82	47217.97
575.98	47206.26
576.14	47416.91
576.30	47136.05
576.46	47021.36
576.62	46995.62
576.79	47079.88
576.95	47049.45
577.11	46864.55
577.27	46934.76
577.43	47379.46
577.59	46990.94
577.75	47143.07
577.92	46913.70
578.08	46747.52
578.24	46354.31
578.40	47044.77
578.56	47117.32
578.72	47138.39
578.88	47061.15
579.04	47285.84
579.21	46799.01
579.37	46700.71
579.53	47365.42
579.69	46852.84
579.85	46794.33
580.01	47140.73
580.17	47150.09
580.33	47386.49
580.49	47215.63
580.65	46927.74
580.82	47318.61
580.98	46955.83
581.14	47037.75
581.30	47522.24
581.46	46983.91
581.62	47215.63
581.78	47576.07
581.94	47601.82
582.10	47428.62
582.26	47494.15
582.42	47210.95
582.58	47388.83
582.74	47126.69
582.90	47271.80
583.06	47058.81
583.22	47203.92
583.38	47283.50
583.54	47437.98
583.70	47316.27
583.86	47248.39
584.02	46869.23
584.18	47482.45
584.34	47285.84
584.50	47463.72
584.66	46988.60
584.82	47133.71
584.98	47550.32
585.14	47014.34
585.30	47042.43
585.46	47365.42
585.62	47096.26
585.78	46972.21
585.94	46927.74
586.10	47311.59
586.26	47154.77
586.42	47430.96
586.58	47414.57
586.74	47334.99
586.90	47154.77
587.06	46967.53
587.22	47028.38
587.38	46979.23
587.54	47445.00
587.70	47721.18
587.86	47508.19
588.02	47054.13
588.18	47049.45
588.34	46724.11
588.49	47129.03
588.65	46410.48
588.81	46733.48
588.97	46576.66
589.13	46754.54
589.29	47206.26
589.45	46597.73
589.61	47164.14
589.77	47449.68
589.93	47482.45
590.08	47540.96
590.24	46958.17
590.40	46993.28
590.56	47309.25
590.72	47346.70
590.88	47124.35
591.04	47269.46
591.20	47555.00
591.35	47522.24
591.51	47540.96
591.67	47594.79
591.83	47267.12
591.99	46752.20
592.15	47325.63
592.31	47002.64
592.46	46988.60
592.62	47096.26
592.78	47753.95
592.94	47796.08
593.10	47702.46
593.26	47395.85
593.41	47477.77
593.57	47363.08
593.73	47129.03
593.89	47346.70
594.05	47358.40
594.20	47124.35
594.36	47489.47
594.52	47430.96
594.68	47224.99
594.84	47367.76
594.99	47510.53
595.15	47203.92
595.31	47445.00
595.47	47194.56
595.62	47374.78
595.78	47487.13
595.94	47615.86
596.10	47552.66
596.25	47494.15
596.41	47917.79
596.57	47316.27
596.73	47732.89
596.88	47168.82
597.04	47262.44
597.20	47391.17
597.36	47470.75
597.51	47882.68
597.67	47718.84
597.83	47243.71
597.99	47503.51
598.14	47442.66
598.30	47512.88
598.46	47276.48
598.61	47309.25
598.77	46958.17
598.93	47758.63
599.09	47632.24
599.24	47742.25
599.40	47409.89
599.56	47695.44
599.71	47863.96
599.87	47519.90
600.03	47332.65
600.18	47370.10
600.34	47578.41
600.50	47360.74
600.65	47643.94
600.81	47831.19
600.97	47852.25
601.12	47374.78
601.28	47625.22
601.44	47339.68
601.59	47487.13
601.75	47154.77
601.91	47381.80
602.06	47126.69
602.22	47175.84
602.37	47407.55
602.53	47267.12
602.69	47615.86
602.84	47529.26
603.00	47512.88
603.16	47117.32
603.31	47388.83
603.47	47400.53
603.62	47217.97
603.78	47035.41
603.94	46911.36
604.09	47442.66
604.25	47714.16
604.40	47496.49
604.56	47494.15
604.71	47543.30
604.87	46972.21
605.03	47351.38
605.18	47012.00
605.34	47107.96
605.49	46899.65
605.65	47182.86
605.80	47274.14
605.96	47360.74
606.12	47510.53
606.27	47075.19
606.43	46997.96
606.58	47253.08
606.74	46761.56
606.89	47243.71
607.05	46918.38
607.20	47049.45
607.36	47194.56
607.51	47353.72
607.67	47217.97
607.82	46873.91
607.98	46679.64
608.13	47246.05
608.29	47000.30
608.44	46864.55
608.60	46630.49
608.75	47171.16
608.91	46660.92
609.06	46981.57
609.22	46918.38
609.37	46944.12
609.53	47232.01
609.68	47269.46
609.84	46871.57
609.99	47178.18
610.15	46883.27
610.30	46784.97
610.46	46831.78
610.61	46466.66
610.76	46766.24
610.92	46464.32
611.07	46796.67
611.23	46630.49
611.38	46574.32
611.54	46873.91
611.69	46768.58
611.84	46539.21
612.00	46740.50
612.15	46328.56
612.31	46752.20
612.46	46698.37
612.62	46958.17
612.77	46532.19
612.92	46632.83
613.08	46513.47
613.23	46197.49
613.39	46267.71
613.54	46019.61
613.69	46454.95
613.85	46452.61
614.00	46600.07
614.15	46681.98
614.31	46550.91
614.46	46461.97
614.62	46469.00
614.77	46033.66
614.92	46176.43
615.08	46188.13
615.23	46092.17
615.38	46117.92
615.54	46160.05
615.69	46124.94
615.84	45558.53
616.00	45996.21
616.15	46026.63
616.30	45851.09
616.46	45691.94
616.61	45574.91
616.76	45750.45
616.92	45645.13
617.07	45624.06
617.22	45670.87
617.37	45741.09
617.53	45949.40
617.68	45752.79
617.83	45771.52
617.99	45984.51
618.14	45764.49
618.29	45705.98
618.45	45598.32
618.60	45792.58
618.75	45792.58
618.90	45675.55
619.06	45708.32
619.21	45560.87
619.36	45963.44
619.51	45710.66
619.67	45404.05
619.82	45619.38
619.97	45675.55
620.12	45137.23
620.28	45518.74
620.43	45193.40
620.58	45380.65
620.73	45375.97
620.89	45378.31
621.04	45368.94
621.19	45401.71
621.34	45336.18
621.49	45059.99
621.65	45036.59
621.80	45352.56
621.95	44982.76
622.10	44921.90
622.25	45003.82
622.41	45160.64
622.56	44945.31
622.71	45722.37
622.86	45146.59
623.01	44849.35
623.16	44823.60
623.32	45155.96
623.47	45228.51
623.62	44652.74
623.77	44830.62
623.92	44891.48
624.07	44266.55
624.23	44474.86
624.38	44725.30
624.53	44601.25
624.68	44940.63
624.83	44135.48
624.98	44779.13
625.13	44549.76
625.29	44971.05
625.44	44336.77
625.59	43988.03
625.74	44273.57
625.89	44048.88
626.04	43739.93
626.19	44439.75
626.34	43973.98
626.49	44165.91
626.65	44402.30
626.80	43838.23
626.95	43894.41
627.10	43943.56
627.25	43875.68
627.40	43920.15
627.55	43852.28
627.70	43693.12
627.85	43587.80
628.00	44067.61
628.15	44147.18
628.30	43545.67
628.45	43894.41
628.60	43952.92
628.76	43372.47
628.91	43753.97
629.06	43454.39
629.21	43782.06
629.36	43442.68
629.51	43304.59
629.66	43416.94
629.81	43339.70
629.96	43379.49
630.11	43648.65
630.26	43639.29
630.41	43533.96
630.56	43082.24
630.71	43725.89
630.86	43496.52
631.01	43428.64
631.16	43306.93
631.31	42906.70
631.46	42972.24
631.61	42677.33
631.76	43372.47
631.91	43335.02
632.06	43402.89
632.21	43545.67
632.36	43550.35
632.51	43222.67
632.66	43225.01
632.81	42529.87
632.96	43302.25
633.10	42471.36
633.25	42777.97
633.40	42988.62
633.55	42866.91
633.70	42717.12
633.85	42845.85
634.00	42644.56
634.15	42412.85
634.30	42918.40
634.45	42550.94
634.60	42277.10
634.75	42703.07
634.90	42796.70
635.05	42780.31
635.19	42738.18
635.34	42974.58
635.49	42576.69
635.64	42806.06
635.79	42480.72
635.94	42321.57
636.09	42417.53
636.24	42396.46
636.39	42454.98
636.53	42670.31
636.68	42192.84
636.83	42096.88
636.98	42363.70
637.13	41787.92
637.28	42616.47
637.43	42485.40
637.57	42447.96
637.72	42487.74
637.87	42719.46
638.02	42167.09
638.17	42047.72
638.32	42403.49
638.46	42052.41
638.61	41897.93
638.76	42141.35
638.91	41972.83
639.06	42225.60
639.20	42185.82
639.35	41996.23
639.50	41827.71
639.65	42403.49
639.80	42021.98
639.94	41586.64
640.09	41745.80
640.24	41808.99
640.39	41724.73
640.54	41233.22
640.68	41406.42
640.83	41841.76
640.98	41659.20
641.13	41324.50
641.27	41982.19
641.42	41448.55
641.57	41392.37
641.72	41495.36
641.86	41516.42
642.01	41284.71
642.16	41003.85
642.31	41195.77
642.45	41301.09
642.60	41008.53
642.75	40825.96
642.90	41015.55
643.04	41308.11
643.19	41516.42
643.34	41537.49
643.48	41319.82
643.63	41141.94
643.78	41034.27
643.93	41097.47
644.07	40903.20
644.22	40650.42
644.37	40947.67
644.51	40545.10
644.66	40928.95
644.81	40540.42
644.95	41399.40
645.10	40547.44
645.25	41247.26
645.39	40828.30
645.54	40992.14
645.69	40987.46
645.83	40715.96
645.98	41003.85
646.13	40868.09
646.27	40800.22
646.42	40421.05
646.57	40685.53
646.71	40308.71
646.86	40648.08
647.00	40847.03
647.15	40243.17
647.30	40687.87
647.44	40086.36
647.59	39871.03
647.74	40437.44
647.88	39971.67
648.03	40470.20
648.17	40072.31
648.32	39604.20
648.47	40399.99
648.61	39966.99
648.76	40158.91
648.90	40165.93
649.05	40250.19
649.20	40390.62
649.34	40212.74
649.49	40020.82
649.63	40004.44
649.78	39814.85
649.92	40098.06
650.07	40329.77
650.21	39784.43
650.36	40123.80
650.51	39618.25
650.65	40360.20
650.80	39978.69
650.94	40215.08
651.09	39873.37
651.23	39718.89
651.38	39627.61
651.52	39285.89
651.67	39639.31
651.81	39653.36
651.96	39281.21
652.10	39346.75
652.25	39557.39
652.39	39323.34
652.54	39548.03
652.68	39632.29
652.83	39725.91
652.97	39515.26
653.12	39187.59
653.26	39725.91
653.41	39618.25
653.55	39241.42
653.70	38749.91
653.84	39084.61
653.99	39218.02
654.13	39255.46
654.27	38859.91
654.42	38995.67
654.56	39328.02
654.71	39283.55
654.85	39328.02
655.00	39014.39
655.14	39147.80
655.29	38569.69
655.43	38602.46
655.57	38660.97
655.72	38335.63
655.86	38258.40
656.01	38059.45
656.15	38330.95
656.30	38227.97
656.44	38382.45
656.58	38536.92
656.73	38665.65
656.87	38447.98
657.01	37947.11
657.16	38314.57
657.30	38185.84
657.45	38169.46
657.59	38763.95
657.73	38190.52
657.88	38508.83
658.02	38251.38
658.16	37897.95
658.31	38312.23
658.45	38323.93
658.60	38129.67
658.74	38471.39
658.88	38588.41
659.03	37949.45
659.17	37813.70
659.31	37511.77
659.46	37376.01
659.60	37778.59
659.74	37813.70
659.89	37354.95
660.03	37546.87
660.17	37652.20
660.32	37764.54
660.46	37490.70
660.60	38054.77
660.74	37818.38
660.89	37687.31
661.03	37310.48
661.17	37598.37
661.32	36914.93
661.46	37282.39
661.60	37111.53
661.74	37308.14
661.89	37319.84
662.03	37289.42
662.17	37046.00
662.31	36952.38
662.46	36774.50
662.60	37427.51
662.74	36865.78
662.88	37029.62
663.03	36676.19
663.17	36552.15
663.31	36568.53
663.45	36917.27
663.60	36392.99
663.74	36378.95
663.88	36336.82
664.02	36442.14
664.17	36477.25
664.31	36020.84
664.45	35796.15
664.59	36222.13
664.73	36165.96
664.88	36355.54
665.02	36046.59
665.16	36346.18
665.30	35995.10
665.44	35833.60
665.59	35716.58
665.73	35800.83
665.87	35564.44
666.01	36065.31
666.15	35627.63
666.29	35747.00
666.44	35995.10
666.58	35625.29
666.72	35447.41
666.86	35613.59
667.00	35438.05
667.14	35487.20
667.28	35414.65
667.43	35316.34
667.57	35218.04
667.71	35044.84
667.85	34890.37
667.99	35098.67
668.13	34885.68
668.27	34763.98
668.41	35143.14
668.56	34895.05
668.70	34546.31
668.84	34216.29
668.98	34469.07
669.12	34181.18
669.26	35028.46
669.40	34352.04
669.54	34464.39
669.68	34195.23
669.82	34356.72
669.96	33972.88
670.10	34190.55
670.25	33907.34
670.39	34256.08
670.53	34033.73
670.67	33921.38
670.81	33963.51
670.95	33935.43
671.09	34223.31
671.23	33993.94
671.37	33961.17
671.51	33729.46
671.65	33708.40
671.79	33439.23
671.93	33560.94
672.07	33717.76
672.21	33518.81
672.35	33181.77
672.49	33205.18
672.63	33397.10
672.77	33048.36
672.91	32896.23
673.05	32872.82
673.19	32671.54
673.33	32701.96
673.47	32680.90
673.61	32285.35
673.75	32280.67
673.89	32254.92
674.03	32254.92
674.17	32474.93
674.31	32098.11
674.45	32226.84
674.59	32205.77
674.73	32334.50
674.87	32018.53
675.01	31976.40
675.15	32257.26
675.29	31859.37
675.43	31765.75
675.56	31349.14
675.70	31576.17
675.84	31468.50
675.98	30644.63
676.12	31353.82
676.26	31213.38
676.40	31040.18
676.54	30656.34
676.68	31143.17
676.82	30506.54
676.96	30473.78
677.10	30799.11
677.23	30532.29
677.37	30565.06
677.51	30513.56
677.65	30565.06
677.79	30431.65
677.93	30363.77
678.07	30043.12
678.21	29582.03
678.34	29954.18
678.48	29825.45
678.62	29558.63
678.76	29394.79
678.90	29675.65
679.04	29448.62
679.18	29383.09
679.31	29259.04
679.45	28861.15
679.59	29118.60
679.73	28933.70
679.87	28950.09
680.00	28922.00
680.14	28826.04
680.28	28477.30
680.42	28416.44
680.56	28409.42
680.70	28203.46
680.83	28088.77
680.97	28430.49
681.11	27917.91
681.25	27770.46
681.39	27915.57
681.52	27931.95
681.66	27625.34
681.80	27625.34
681.94	27321.07
682.07	27466.19
682.21	27662.79
682.35	27473.21
682.49	27463.85
682.62	27417.04
682.76	27019.14
682.90	27190.00
683.04	27370.22
683.17	26787.43
683.31	26698.49
683.45	27040.21
683.59	26529.97
683.72	26267.83
683.86	26106.34
684.00	26316.98
684.13	26314.64
684.27	25614.82
684.41	26120.38
684.55	25965.90
684.68	25888.67
684.82	25820.79
684.96	25570.35
685.09	25376.09
685.23	25759.94
685.37	25420.56
685.50	25413.54
685.64	25088.20
685.78	25200.55
685.91	25025.01
686.05	25017.99
686.19	24781.59
686.32	24889.26
686.46	24676.27
686.60	24240.93
686.73	24194.12
686.87	24245.61
687.01	23812.61
687.14	23672.18
687.28	23513.02
687.42	23651.11
687.55	23515.36
687.69	23990.49
687.82	23676.86
687.96	23428.76
688.10	23726.01
688.23	23365.57
688.37	23398.34
688.50	23243.86
688.64	22890.44
688.78	22869.37
688.91	22881.08
689.05	22766.39
689.18	22551.06
689.32	22511.27
689.46	22382.54
689.59	22965.34
689.73	22827.24
689.86	22757.03
690.00	22293.60
690.13	22476.16
690.27	22281.90
690.41	22382.54
690.54	21951.88
690.68	21944.86
690.81	21717.83
690.95	21675.70
691.08	21638.25
691.22	21631.23
691.35	21605.49
691.49	21607.83
691.62	21694.43
691.76	21652.30
691.89	21355.05
692.03	21111.63
692.16	21387.82
692.30	21088.23
692.43	20973.54
692.57	20767.57
692.70	20952.48
692.84	20613.10
692.97	20849.49
693.11	20648.21
693.24	20130.95
693.38	20367.34
693.51	20210.53
693.65	20538.20
693.78	20226.91
693.92	20053.71
694.05	20058.39
694.19	19906.26
694.32	19838.38
694.45	19843.06
694.59	19726.04
694.72	19601.99
694.86	19644.12
694.99	19520.07
695.13	19173.67
695.26	18827.27
695.39	18782.80
695.53	19201.76
695.66	19005.15
695.80	19164.31
695.93	18920.89
696.07	18689.18
696.20	19087.07
696.33	18537.04
696.47	18944.30
696.60	18490.23
696.73	18572.15
696.87	18499.59
697.00	18363.84
697.14	18277.24
697.27	18040.85
697.40	18192.98
697.54	17944.89
697.67	17958.93
697.80	17844.24
697.94	17741.26
698.07	17633.60
698.21	17717.86
698.34	17682.75
698.47	17453.37
698.61	17371.46
698.74	17078.89
698.87	17263.79
699.01	17111.66
699.14	16840.15
699.27	17036.76
699.40	16903.35
699.54	16924.41
699.67	16566.31
699.80	16563.97
699.94	16482.05
700.07	16463.33
700.20	16594.40
700.34	16301.83
700.47	16489.07
700.60	16287.79
700.73	16514.82
700.87	16135.65
701.00	16245.66
701.13	16013.95
701.26	15803.30
701.40	16100.55
701.53	15917.98
701.66	15655.84
701.79	15482.64
701.93	15611.37
702.06	15358.60
702.19	15470.94
702.32	15295.40
702.46	15272.00
702.59	15279.02
702.72	15325.83
702.85	15213.48
702.99	15339.87
703.12	15040.28
703.25	14932.62
703.38	14766.44
703.51	15000.49
703.65	14663.46
703.78	14518.34
703.91	14726.65
704.04	14663.46
704.17	14295.99
704.31	14260.88
704.44	14267.91
704.57	14143.86
704.70	14202.37
704.83	14300.67
704.96	14026.83
705.10	14188.33
705.23	14157.90
>>>>>End Processed Spectral Data<<<<<
