SpectraSuite Data File
++++++++++++++++++++++++++++++++++++
Date: Fri Oct 25 11:33:28 EDT 2013
User: price-jones
Dark Spectrum Present: No
Reference Spectrum Present: No
Number of Sampled Component Spectra: 1
Spectrometers: USB2+H05261
Integration Time (usec): 100000 (USB2+H05261)
Spectra Averaged: 1 (USB2+H05261)
Boxcar Smoothing: 0 (USB2+H05261)
Correct for Electrical Dark: No (USB2+H05261)
Strobe/Lamp Enabled: No (USB2+H05261)
Correct for Detector Non-linearity: No (USB2+H05261)
Correct for Stray Light: No (USB2+H05261)
Number of Pixels in Processed Spectrum: 2048
>>>>>Begin Processed Spectral Data<<<<<
365.73	264.48
365.92	264.48
366.12	264.48
366.32	250.44
366.52	145.11
366.72	205.97
366.91	189.58
367.11	194.26
367.31	135.75
367.51	203.63
367.70	177.88
367.90	203.63
368.10	175.54
368.30	203.63
368.49	215.33
368.69	161.50
368.89	121.71
369.09	187.24
369.28	271.50
369.48	168.52
369.68	212.99
369.87	201.29
370.07	248.10
370.27	271.50
370.47	299.59
370.66	477.47
370.86	470.45
371.06	512.58
371.25	554.71
371.45	458.74
371.65	543.00
371.84	566.41
372.04	500.87
372.24	599.18
372.44	557.05
372.63	535.98
372.83	608.54
373.03	578.11
373.22	681.10
373.42	657.69
373.62	622.58
373.81	589.82
374.01	725.57
374.21	636.63
374.40	711.52
374.60	746.63
374.79	596.84
374.99	575.77
375.19	636.63
375.38	650.67
375.58	657.69
375.78	732.59
375.97	748.97
376.17	655.35
376.37	624.92
376.56	690.46
376.76	678.76
376.95	688.12
377.15	650.67
377.35	758.33
377.54	624.92
377.74	732.59
377.93	763.01
378.13	667.05
378.33	725.57
378.52	688.12
378.72	725.57
378.91	734.93
379.11	741.95
379.31	727.91
379.50	688.12
379.70	711.52
379.89	730.25
380.09	793.44
380.28	702.16
380.48	716.20
380.68	697.48
380.87	723.23
381.07	702.16
381.26	692.80
381.46	699.82
381.65	786.42
381.85	657.69
382.04	748.97
382.24	819.19
382.43	781.74
382.63	760.67
382.83	725.57
383.02	847.27
383.22	748.97
383.41	781.74
383.61	809.83
383.80	896.43
384.00	741.95
384.19	819.19
384.39	791.10
384.58	786.42
384.78	830.89
384.97	870.68
385.17	821.53
385.36	849.61
385.56	884.72
385.75	805.14
385.95	891.74
386.14	805.14
386.34	814.51
386.53	833.23
386.72	858.98
386.92	919.83
387.11	866.00
387.31	842.59
387.50	795.78
387.70	842.59
387.89	866.00
388.09	950.26
388.28	968.98
388.48	931.53
388.67	889.40
388.86	903.45
389.06	905.79
389.25	959.62
389.45	922.17
389.64	973.66
389.84	978.34
390.03	919.83
390.22	938.55
390.42	858.98
390.61	926.85
390.81	992.39
391.00	950.26
391.19	1062.60
391.39	933.87
391.58	1025.15
391.78	1029.84
391.97	1004.09
392.16	1064.94
392.36	1095.37
392.55	1053.24
392.75	1001.75
392.94	1027.50
393.13	1043.88
393.33	1109.41
393.52	1029.84
393.71	1165.59
393.91	1055.58
394.10	1057.92
394.29	1050.90
394.49	1062.60
394.68	1151.54
394.88	1118.78
395.07	1167.93
395.26	1086.01
395.46	1135.16
395.65	1184.31
395.84	1121.12
396.04	1245.16
396.23	1226.44
396.42	1224.10
396.62	1137.50
396.81	1214.74
397.00	1163.25
397.19	1146.86
397.39	1174.95
397.58	1167.93
397.77	1228.78
397.97	1273.25
398.16	1238.14
398.35	1331.76
398.55	1240.48
398.74	1329.42
398.93	1348.15
399.12	1329.42
399.32	1315.38
399.51	1369.21
399.70	1385.60
399.90	1282.61
400.09	1420.71
400.28	1383.26
400.47	1427.73
400.67	1401.98
400.86	1399.64
401.05	1474.54
401.24	1341.13
401.44	1497.94
401.63	1465.18
401.82	1434.75
402.01	1500.28
402.21	1551.78
402.40	1558.80
402.59	1497.94
402.78	1458.15
402.97	1521.35
403.17	1561.14
403.36	1404.32
403.55	1570.50
403.74	1638.38
403.93	1619.65
404.13	1554.12
404.32	1556.46
404.51	1596.25
404.70	1603.27
404.89	1556.46
405.09	1664.12
405.28	1607.95
405.47	1713.27
405.66	1654.76
405.85	1680.50
406.05	1743.70
406.24	1736.68
406.43	1764.76
406.62	1820.94
406.81	1708.59
407.00	1790.51
407.20	1720.29
407.39	1809.23
407.58	1781.15
407.77	1881.79
407.96	1870.09
408.15	1830.30
408.34	1827.96
408.54	1959.03
408.73	1891.15
408.92	1944.99
409.11	2005.84
409.30	2043.29
409.49	1937.96
409.68	1963.71
409.87	2010.52
410.07	1956.69
410.26	1989.46
410.45	1966.05
410.64	2193.08
410.83	2106.48
411.02	2052.65
411.21	2188.40
411.40	2186.06
411.59	2172.02
411.78	2214.15
411.98	2183.72
412.17	2263.30
412.36	2260.96
412.55	2265.64
412.74	2321.81
412.93	2293.72
413.12	2286.70
413.31	2324.15
413.50	2459.90
413.69	2462.24
413.88	2401.39
414.07	2525.44
414.26	2499.69
414.45	2532.46
414.64	2495.01
414.83	2605.02
415.02	2619.06
415.22	2708.00
415.41	2693.96
415.60	2679.91
415.79	2595.65
415.98	2747.79
416.17	2698.64
416.36	2794.60
416.55	2775.88
416.74	2827.37
416.93	2874.18
417.12	2853.11
417.31	2869.50
417.50	2885.88
417.69	2911.63
417.88	2944.39
418.07	2874.18
418.26	3035.67
418.45	3002.91
418.64	3117.59
418.83	3155.04
419.02	3197.17
419.21	3169.09
419.39	3075.46
419.58	3033.33
419.77	3075.46
419.96	3206.53
420.15	3094.19
420.34	3148.02
420.53	3190.15
420.72	3248.66
420.91	3194.83
421.10	3318.88
421.29	3321.22
421.48	3342.28
421.67	3328.24
421.86	3295.47
422.05	3180.79
422.24	3307.18
422.43	3414.84
422.61	3433.57
422.80	3463.99
422.99	3344.63
423.18	3461.65
423.37	3499.10
423.56	3445.27
423.75	3398.46
423.94	3321.22
424.13	3082.49
424.32	3283.77
424.50	3393.78
424.69	3391.44
424.88	3625.49
425.07	3459.31
425.26	3353.99
425.45	3485.06
425.64	3433.57
425.83	3545.91
426.01	3564.64
426.20	3412.50
426.39	3545.91
426.58	3454.63
426.77	3492.08
426.96	3592.72
427.15	3559.95
427.33	3555.27
427.52	3513.14
427.71	3616.13
427.90	3599.74
428.09	3644.21
428.28	3623.15
428.46	3749.54
428.65	3599.74
428.84	3805.71
429.03	3831.46
429.22	3634.85
429.40	3695.71
429.59	3885.29
429.78	3707.41
429.97	3597.40
430.16	3749.54
430.34	3775.28
430.53	3822.09
430.72	3840.82
430.91	3885.29
431.10	3969.55
431.28	3999.98
431.47	3871.25
431.66	3904.01
431.85	4004.66
432.03	3974.23
432.22	3899.33
432.41	4039.76
432.60	3955.51
432.79	4014.02
432.97	4105.30
433.16	4283.18
433.35	4166.15
433.54	4304.25
433.72	4248.07
433.91	4121.68
434.10	4091.26
434.28	4156.79
434.47	4208.28
434.66	4252.75
434.85	4393.19
435.03	4341.69
435.22	4388.50
435.41	4437.66
435.59	4428.29
435.78	4409.57
435.97	4311.27
436.16	4444.68
436.34	4299.56
436.53	4498.51
436.72	4688.09
436.90	4493.83
437.09	4521.92
437.28	4468.08
437.46	4559.36
437.65	4463.40
437.84	4704.48
438.02	4634.26
438.21	4667.03
438.40	4706.82
438.58	4744.27
438.77	4877.68
438.96	4758.31
439.14	4840.23
439.33	4961.94
439.52	4863.63
439.70	5013.43
439.89	4947.89
440.08	4997.04
440.26	5067.26
440.45	4971.30
440.63	4983.00
440.82	5322.38
441.01	5135.14
441.19	5109.39
441.38	5240.46
441.57	5357.49
441.75	5310.68
441.94	5511.96
442.12	5352.81
442.31	5523.66
442.50	5378.55
442.68	5441.75
442.87	5341.10
443.05	5551.75
443.24	5631.33
443.43	5341.10
443.61	5607.92
443.80	5678.14
443.98	5502.60
444.17	5408.98
444.35	5675.80
444.54	5823.25
444.73	5659.42
444.91	5584.52
445.10	5790.49
445.28	5516.64
445.47	5767.08
445.65	5696.86
445.84	5687.50
446.02	5750.70
446.21	5607.92
446.39	5598.56
446.58	5755.38
446.77	5888.79
446.95	5593.88
447.14	5724.95
447.32	5872.40
447.51	5678.14
447.69	5760.06
447.88	5853.68
448.06	5713.25
448.25	5844.32
448.43	5858.36
448.62	5886.45
448.80	5902.83
448.99	5860.70
449.17	5870.06
449.36	5919.21
449.54	6071.35
449.73	6052.63
449.91	6118.16
450.10	5982.41
450.28	6190.72
450.46	6150.93
450.65	6036.24
450.83	6120.50
451.02	6120.50
451.20	6200.08
451.39	6069.01
451.57	6162.63
451.76	6050.28
451.94	6153.27
452.13	6361.58
452.31	6422.43
452.49	6118.16
452.68	6218.80
452.86	6223.48
453.05	6478.60
453.23	6527.75
453.42	6387.32
453.60	6539.46
453.78	6546.48
453.97	6492.65
454.15	6483.28
454.34	6417.75
454.52	6693.93
454.70	6626.06
454.89	6516.05
455.07	6626.06
455.26	6787.55
455.44	6724.36
455.62	6710.32
455.81	6583.93
455.99	6621.38
456.17	6834.36
456.36	6738.40
456.54	6857.77
456.73	7030.97
456.91	7206.51
457.09	7162.04
457.28	7176.08
457.46	7028.63
457.64	7183.10
457.83	7012.24
458.01	6967.77
458.19	7192.47
458.38	7054.37
458.56	7105.87
458.74	7197.15
458.93	7136.29
459.11	7260.34
459.29	7243.96
459.48	7337.58
459.66	7435.88
459.84	7473.33
460.03	7311.83
460.21	7412.48
460.39	7496.74
460.57	7421.84
460.76	7478.01
460.94	7543.55
461.12	7566.95
461.31	7487.37
461.49	7344.60
461.67	7531.84
461.85	7660.57
462.04	7667.60
462.22	8128.68
462.40	7843.14
462.59	7735.47
462.77	7742.49
462.95	7873.56
463.13	7974.21
463.32	7887.61
463.50	7950.80
463.68	7995.27
463.86	8025.70
464.05	7868.88
464.23	7857.18
464.41	7911.01
464.59	7822.07
464.78	8374.44
464.96	7997.61
465.14	8035.06
465.32	8154.43
465.50	8121.66
465.69	8147.40
465.87	8035.06
466.05	8175.49
466.23	8283.16
466.41	8332.31
466.60	8500.83
466.78	8149.75
466.96	8243.37
467.14	8341.67
467.32	8159.11
467.51	8526.57
467.69	8156.77
467.87	8315.92
468.05	8386.14
468.23	8332.31
468.41	8400.18
468.60	8121.66
468.78	8531.25
468.96	8559.34
469.14	8777.01
469.32	8699.77
469.50	8313.58
469.69	8716.16
469.87	8856.59
470.05	8758.28
470.23	8779.35
470.41	8966.59
470.59	8879.99
470.77	8777.01
470.95	8975.95
471.14	9078.94
471.32	8938.51
471.50	9221.71
471.68	8952.55
471.86	8957.23
472.04	9217.03
472.22	9397.25
472.40	9170.22
472.58	9242.78
472.77	9404.27
472.95	9404.27
473.13	9799.82
473.31	9458.10
473.49	9441.72
473.67	9385.55
473.85	9270.86
474.03	9619.60
474.21	9671.09
474.39	9741.31
474.57	9687.48
474.75	9966.00
474.93	10092.39
475.12	9916.85
475.30	10195.37
475.48	10066.64
475.66	10249.21
475.84	10083.03
476.02	10090.05
476.20	10361.55
476.38	10611.99
476.56	10780.51
476.74	10452.83
476.92	10504.32
477.10	10623.69
477.28	10752.42
477.46	10888.17
477.64	10839.02
477.82	10939.66
478.00	11309.47
478.18	10998.18
478.36	11452.24
478.54	11276.70
478.72	11470.97
478.90	11564.59
479.08	11836.09
479.26	11733.11
479.44	11641.82
479.62	11793.96
479.80	11950.78
479.98	12072.48
480.16	12461.01
480.34	12161.42
480.52	12142.70
480.70	12175.47
480.88	12238.66
481.06	12315.90
481.24	12395.48
481.41	12400.16
481.59	12793.37
481.77	12968.91
481.95	12891.67
482.13	13266.16
482.31	12835.50
482.49	13565.74
482.67	13256.79
482.85	13544.68
483.03	13540.00
483.21	13781.07
483.39	13844.27
483.57	13743.63
483.74	13837.25
483.92	14015.13
484.10	13841.93
484.28	14434.08
484.46	14799.21
484.64	14661.12
484.82	14422.38
485.00	14771.12
485.18	15084.75
485.35	15063.69
485.53	15110.50
485.71	15318.81
485.89	15562.22
486.07	15454.56
486.25	15229.87
486.43	15536.48
486.61	15594.99
486.78	15623.08
486.96	15789.25
487.14	16358.00
487.32	16109.91
487.50	16482.05
487.68	16355.66
487.85	16704.40
488.03	16877.60
488.21	17163.15
488.39	16924.41
488.57	17315.28
488.75	17212.30
488.92	17649.98
489.10	17373.80
489.28	17617.21
489.46	18066.60
489.64	17755.30
489.81	18195.32
489.99	18059.57
490.17	18085.32
490.35	18405.97
490.53	18436.40
490.70	18614.28
490.88	18752.37
491.06	18682.16
491.24	19049.62
491.41	18998.13
491.59	19335.17
491.77	19356.23
491.95	19133.88
492.13	19604.33
492.30	19779.87
492.48	19812.63
492.66	19850.08
492.84	20065.41
493.01	20374.36
493.19	20152.01
493.37	20678.63
493.54	20425.86
493.72	20556.93
493.90	20755.87
494.08	21003.97
494.25	21125.68
494.43	20966.52
494.61	21039.08
494.79	21441.65
494.96	21032.05
495.14	21404.20
495.32	21738.90
495.49	21701.45
495.67	21675.70
495.85	21965.93
496.02	22326.37
496.20	22349.78
496.38	22555.74
496.55	22658.73
496.73	22953.63
496.91	22951.29
497.09	23016.83
497.26	22869.37
497.44	22958.31
497.62	23307.05
497.79	23597.28
497.97	23131.51
498.14	23658.14
498.32	23515.36
498.50	24151.99
498.67	23997.51
498.85	23601.96
499.03	24077.09
499.20	24329.87
499.38	24058.37
499.56	24290.08
499.73	24669.25
499.91	24482.00
500.08	24596.69
500.26	24702.01
500.44	25055.43
500.61	24907.98
500.79	25174.80
500.97	24800.32
501.14	25593.76
501.32	25345.66
501.49	25275.45
501.67	25474.39
501.84	25699.08
502.02	25406.52
502.20	25841.85
502.37	25820.79
502.55	25443.96
502.72	25764.62
502.90	25977.61
503.07	26038.46
503.25	26382.52
503.43	26319.32
503.60	26436.35
503.78	26764.03
503.95	26401.24
504.13	26944.25
504.30	26984.04
504.48	26881.05
504.65	26944.25
504.83	27044.89
505.01	27688.54
505.18	27068.30
505.36	27302.35
505.53	27314.05
505.71	27316.39
505.88	27330.44
506.06	27246.18
506.23	27527.04
506.41	27948.34
506.58	27833.65
506.76	28175.37
506.93	28283.03
507.11	28327.50
507.28	28294.74
507.46	27992.81
507.63	28210.48
507.81	28950.09
507.98	28634.11
508.16	28620.07
508.33	28678.58
508.50	28664.54
508.68	29163.08
508.85	29088.18
509.03	28982.85
509.20	29287.12
509.38	29057.75
509.55	29380.74
509.73	29490.75
509.90	29778.64
510.08	29661.61
510.25	29589.05
510.42	29699.06
510.60	29565.65
510.77	30010.35
510.95	30281.85
511.12	29860.55
511.30	29743.53
511.47	30286.53
511.64	30092.27
511.82	30654.00
511.99	30508.88
512.17	30672.72
512.34	30178.87
512.51	30778.04
512.69	31133.81
512.86	31051.89
513.04	31225.09
513.21	31360.84
513.38	31122.10
513.56	31318.71
513.73	31337.43
513.90	31323.39
514.08	31290.62
514.25	31957.67
514.43	31250.83
514.60	31833.63
514.77	31824.26
514.95	31747.03
515.12	31555.10
515.29	31929.59
515.47	32161.30
515.64	32421.10
515.81	31646.38
515.99	32055.98
516.16	32470.25
516.33	32477.27
516.51	32510.04
516.68	32666.86
516.85	32708.99
517.03	32655.15
517.20	32774.52
517.37	32889.21
517.54	32875.16
517.72	33125.60
517.89	33301.14
518.06	33174.75
518.24	32924.32
518.41	32994.53
518.58	33008.58
518.75	33244.97
518.93	33399.44
519.10	33282.42
519.27	33586.69
519.45	33565.62
519.62	33846.49
519.79	33773.93
519.96	34286.51
520.14	34227.99
520.31	33827.76
520.48	33972.88
520.65	33862.87
520.83	34560.35
521.00	34831.85
521.17	34747.59
521.34	34328.64
521.52	34700.78
521.69	34782.70
521.86	34717.17
522.03	35152.51
522.20	35105.70
522.38	34986.33
522.55	35311.66
522.72	35112.72
522.89	35461.46
523.07	35763.39
523.24	35342.09
523.41	35426.35
523.58	35150.17
523.75	35545.72
523.92	35379.54
524.10	35739.98
524.27	35498.91
524.44	36065.31
524.61	35995.10
524.78	36231.49
524.96	36355.54
525.13	36570.87
525.30	36320.43
525.47	36210.43
525.64	35917.86
525.81	36758.11
525.98	36503.00
526.16	36238.51
526.33	36575.55
526.50	36587.25
526.67	36840.03
526.84	36926.63
527.01	36954.72
527.18	36620.02
527.36	37193.45
527.53	37078.77
527.70	37963.49
527.87	37319.84
528.04	36676.19
528.21	37076.43
528.38	36985.15
528.55	37050.68
528.72	37446.23
528.89	37179.41
529.07	37567.94
529.24	37628.79
529.41	37720.07
529.58	37752.84
529.75	37904.98
529.92	37818.38
530.09	37872.21
530.26	38089.88
530.43	38356.70
530.60	37340.91
530.77	37762.20
530.94	37937.74
531.11	37972.85
531.28	38487.77
531.46	38202.22
531.63	38600.12
531.80	38476.07
531.97	38567.35
532.14	38986.30
532.31	38443.30
532.48	38696.08
532.65	38752.25
532.82	38604.80
532.99	39112.69
533.16	38550.96
533.33	38904.38
533.50	39030.77
533.67	38913.75
533.84	38873.96
534.01	39068.22
534.18	38672.67
534.35	39402.92
534.52	39297.59
534.69	39768.04
534.86	39742.30
535.03	39178.23
535.20	39161.84
535.37	39658.04
535.54	39784.43
535.71	39187.59
535.88	39803.15
536.05	39608.89
536.22	39861.66
536.38	40023.16
536.55	40172.96
536.72	39639.31
536.89	39669.74
537.06	39622.93
537.23	40069.97
537.40	40062.95
537.57	40252.53
537.74	39964.65
537.91	40615.32
538.08	39997.41
538.25	40002.10
538.42	40371.90
538.59	40699.58
538.75	40271.26
538.92	40739.36
539.09	40886.82
539.26	40568.51
539.43	40622.34
539.60	40961.72
539.77	40875.12
539.94	40795.54
540.11	41006.19
540.28	40837.67
540.44	40975.76
540.61	40989.80
540.78	41226.20
540.95	41198.11
541.12	40601.27
541.29	40879.80
541.46	41155.98
541.62	40964.06
541.79	41698.98
541.96	41013.21
542.13	41071.72
542.30	41429.82
542.47	41504.72
542.63	41570.25
542.80	41441.53
542.97	41935.38
543.14	41982.19
543.31	42033.68
543.48	41745.80
543.64	42202.20
543.81	42206.88
543.98	42078.15
544.15	41858.14
544.32	42567.32
544.48	42326.25
544.65	42679.67
544.82	42476.04
544.99	42426.89
545.16	42515.83
545.32	42333.27
545.49	42632.86
545.66	43019.05
545.83	42787.33
546.00	42815.42
546.16	42609.45
546.33	42731.16
546.50	42103.90
546.67	42445.62
546.83	42429.23
547.00	43042.45
547.17	42834.14
547.34	42820.10
547.50	43342.04
547.67	43328.00
547.84	43290.55
548.00	43370.13
548.17	43803.13
548.34	43438.00
548.51	43655.67
548.67	43466.09
548.84	43365.45
549.01	43316.29
549.18	43569.07
549.34	43487.15
549.51	43597.16
549.68	43489.49
549.84	43344.38
550.01	43995.05
550.18	43435.66
550.34	44245.49
550.51	43896.75
550.68	43908.45
550.84	43473.11
551.01	43885.04
551.18	43859.30
551.34	43866.32
551.51	44037.18
551.68	43791.42
551.84	44072.29
552.01	43913.13
552.18	44126.12
552.34	44261.87
552.51	44329.75
552.68	43983.35
552.84	44320.38
553.01	43856.96
553.18	44299.32
553.34	44088.67
553.51	44140.16
553.67	44112.08
553.84	44610.61
554.01	44678.49
554.17	44542.74
554.34	44699.55
554.51	44964.03
554.67	44760.40
554.84	44669.12
555.00	44596.57
555.17	44617.63
555.33	45057.65
555.50	45034.25
555.67	44985.10
555.83	44877.43
556.00	44900.84
556.16	45507.04
556.33	45186.38
556.50	45141.91
556.66	45029.57
556.83	45055.31
556.99	45258.94
557.16	45628.74
557.32	45294.05
557.49	44999.14
557.65	45181.70
557.82	45212.13
557.98	45521.08
558.15	45113.83
558.32	45343.20
558.48	44910.20
558.65	45656.83
558.81	44996.80
558.98	45312.77
559.14	45603.00
559.31	44917.22
559.47	45380.65
559.64	45022.54
559.80	45584.27
559.97	45783.22
560.13	45162.98
560.30	45448.52
560.46	45696.62
560.63	45394.69
560.79	45771.52
560.96	45909.61
561.12	45956.42
561.29	45986.85
561.45	45876.84
561.61	45989.19
561.78	45830.03
561.94	45979.82
562.11	46209.20
562.27	46080.47
562.44	45530.44
562.60	46007.91
562.77	46429.21
562.93	45982.16
563.10	45888.54
563.26	45923.65
563.42	46724.11
563.59	46316.86
563.75	45963.44
563.92	46103.87
564.08	45724.71
564.24	46234.94
564.41	46122.60
564.57	46422.19
564.74	46911.36
564.90	46038.34
565.07	46197.49
565.23	46450.27
565.39	46651.56
565.56	46267.71
565.72	46155.36
565.88	46312.18
566.05	46508.79
566.21	46525.17
566.38	46241.96
566.54	46525.17
566.70	46525.17
566.87	46459.63
567.03	46241.96
567.19	46571.98
567.36	46431.55
567.52	46389.42
567.68	46852.84
567.85	46974.55
568.01	46440.91
568.17	46864.55
568.34	46586.02
568.50	46600.07
568.66	46583.68
568.83	46295.80
568.99	46494.74
569.15	47023.70
569.32	46415.16
569.48	46899.65
569.64	47304.57
569.81	46784.97
569.97	46909.02
570.13	46871.57
570.30	46361.33
570.46	46775.61
570.62	46621.13
570.78	47159.45
570.95	46511.13
571.11	47110.30
571.27	47070.51
571.43	46733.48
571.60	46782.63
571.76	46766.24
571.92	46728.80
572.09	47161.79
572.25	46611.77
572.41	47262.44
572.57	46953.49
572.74	47482.45
572.90	47072.85
573.06	46806.03
573.22	47569.05
573.38	47243.71
573.55	47423.93
573.71	47847.57
573.87	46990.94
574.03	46925.40
574.20	47222.65
574.36	47309.25
574.52	47489.47
574.68	47030.72
574.84	47473.09
575.01	47243.71
575.17	47480.11
575.33	47224.99
575.49	46838.80
575.65	47178.18
575.82	47365.42
575.98	47019.02
576.14	47096.26
576.30	47555.00
576.46	47133.71
576.62	47117.32
576.79	47114.98
576.95	47154.77
577.11	47232.01
577.27	47370.10
577.43	46988.60
577.59	47374.78
577.75	47089.24
577.92	46967.53
578.08	46831.78
578.24	47358.40
578.40	47213.29
578.56	47185.20
578.72	47091.58
578.88	47547.98
579.04	47332.65
579.21	47327.97
579.37	46845.82
579.53	47461.38
579.69	47166.48
579.85	47379.46
580.01	47606.50
580.17	47484.79
580.33	47480.11
580.49	47517.56
580.65	47379.46
580.82	47145.41
580.98	47257.76
581.14	47168.82
581.30	47196.90
581.46	46909.02
581.62	47084.56
581.78	47016.68
581.94	47290.52
582.10	47302.23
582.26	47203.92
582.42	47363.08
582.58	47622.88
582.74	46979.23
582.90	47370.10
583.06	47653.31
583.22	47117.32
583.38	47320.95
583.54	47746.93
583.70	47751.61
583.86	47526.92
584.02	47143.07
584.18	47700.12
584.34	47655.65
584.50	47723.52
584.66	47599.47
584.82	47594.79
584.98	48046.52
585.14	47416.91
585.30	47531.60
585.46	47782.04
585.62	47533.94
585.78	47838.21
585.94	46810.71
586.10	47358.40
586.26	47405.21
586.42	47508.19
586.58	47746.93
586.74	47571.39
586.90	47569.05
587.06	47423.93
587.22	47515.22
587.38	47475.43
587.54	47983.32
587.70	47950.56
587.86	47459.04
588.02	47765.65
588.18	47711.82
588.34	47311.59
588.49	47718.84
588.65	47578.41
588.81	47763.31
588.97	47952.90
589.13	47587.77
589.29	47559.69
589.45	47983.32
589.61	47475.43
589.77	48025.45
589.93	47700.12
590.08	48013.75
590.24	48062.90
590.40	48486.54
590.56	48402.28
590.72	47704.80
590.88	47758.63
591.04	47976.30
591.20	48076.94
591.35	48074.60
591.51	48701.87
591.67	47807.78
591.83	47896.72
591.99	47995.03
592.15	47896.72
592.31	47894.38
592.46	48147.16
592.62	47732.89
592.78	48182.27
592.94	48381.21
593.10	48240.78
593.26	48547.39
593.41	48617.61
593.57	48252.48
593.73	48245.46
593.89	48507.60
594.05	48421.00
594.20	48105.03
594.36	48252.48
594.52	48545.05
594.68	48364.83
594.84	48196.31
594.99	48500.58
595.15	48411.64
595.31	48413.98
595.47	48341.42
595.62	48275.89
595.78	48292.27
595.94	48472.49
596.10	48442.07
596.25	48563.78
596.41	48439.73
596.57	48102.69
596.73	48814.21
596.88	48030.13
597.04	48301.64
597.20	48788.47
597.36	48306.32
597.51	48428.02
597.67	48121.41
597.83	48058.22
597.99	48402.28
598.14	48219.72
598.30	48238.44
598.46	48259.51
598.61	48683.14
598.77	48465.47
598.93	48371.85
599.09	48203.33
599.24	48673.78
599.40	48519.31
599.56	48165.88
599.71	48732.29
599.87	48638.67
600.03	48577.82
600.18	48540.37
600.34	48694.85
600.50	48280.57
600.65	48311.00
600.81	48577.82
600.97	48390.58
601.12	48629.31
601.28	48566.12
601.44	48594.20
601.59	48388.24
601.75	48582.50
601.91	48790.81
602.06	48439.73
602.22	48760.38
602.37	48215.04
602.53	48694.85
602.69	48428.02
602.84	48732.29
603.00	48603.56
603.16	48561.44
603.31	48238.44
603.47	48535.69
603.62	48498.24
603.78	49038.90
603.94	48512.28
604.09	48687.82
604.25	48626.97
604.40	48449.09
604.56	48413.98
604.71	48837.62
604.87	48378.87
605.03	48222.06
605.18	48303.98
605.34	48734.63
605.49	48390.58
605.65	48484.20
605.80	48584.84
605.96	48268.87
606.12	48196.31
606.27	48105.03
606.43	48704.21
606.58	48767.40
606.74	48245.46
606.89	48449.09
607.05	48708.89
607.20	48165.88
607.36	48477.18
607.51	48528.67
607.67	48161.20
607.82	48062.90
607.98	47950.56
608.13	48299.30
608.29	47882.68
608.44	48348.45
608.60	48210.35
608.75	48147.16
608.91	48149.50
609.06	48119.07
609.22	48549.73
609.37	47789.06
609.53	48657.40
609.68	48631.65
609.84	48217.38
609.99	48416.32
610.15	48376.53
610.30	48348.45
610.46	48322.70
610.61	48268.87
610.76	48271.21
610.92	47943.53
611.07	48116.73
611.23	48184.61
611.38	48617.61
611.54	47966.94
611.69	48083.97
611.84	47997.37
612.00	48271.21
612.15	48421.00
612.31	47913.11
612.46	47760.97
612.62	48287.59
612.77	47798.42
612.92	48067.58
613.08	47810.12
613.23	48294.61
613.39	48088.65
613.54	47870.98
613.69	47899.06
613.85	47643.94
614.00	47817.14
614.15	48165.88
614.31	47604.16
614.46	47632.24
614.62	47849.91
614.77	47709.48
614.92	47856.93
615.08	47590.11
615.23	47662.67
615.38	47793.74
615.54	47543.30
615.69	47854.59
615.84	47629.90
616.00	47770.33
616.15	47866.30
616.30	47966.94
616.46	47730.54
616.61	47767.99
616.76	47566.71
616.92	47416.91
617.07	47599.47
617.22	47618.20
617.37	46939.44
617.53	47683.73
617.68	47470.75
617.83	47229.67
617.99	47372.44
618.14	47629.90
618.29	47379.46
618.45	47519.90
618.60	47435.64
618.75	47037.75
618.90	47423.93
619.06	47255.42
619.21	47241.37
619.36	47473.09
619.51	46885.61
619.67	46993.28
619.82	46941.78
619.97	47260.10
620.12	47365.42
620.28	47421.59
620.43	47049.45
620.58	47391.17
620.73	47281.16
620.89	47267.12
621.04	47084.56
621.19	47309.25
621.34	46946.47
621.49	46862.21
621.65	46850.50
621.80	47122.01
621.95	46831.78
622.10	47019.02
622.25	46705.39
622.41	46941.78
622.56	46850.50
622.71	47040.09
622.86	46885.61
623.01	47124.35
623.16	47098.60
623.32	46614.11
623.47	46815.40
623.62	46681.98
623.77	47119.66
623.92	46894.97
624.07	47058.81
624.23	47035.41
624.38	46850.50
624.53	46522.83
624.68	46607.09
624.83	46773.27
624.98	46569.64
625.13	46536.87
625.29	46487.72
625.44	46731.14
625.59	46141.32
625.74	46440.91
625.89	45666.19
626.04	46422.19
626.19	46490.06
626.34	45729.39
626.49	46305.16
626.65	46256.01
626.80	46169.41
626.95	45736.41
627.10	45783.22
627.25	46225.58
627.40	46277.07
627.55	46176.43
627.70	45996.21
627.85	46223.24
628.00	46244.30
628.15	45970.46
628.30	45720.02
628.45	45591.30
628.60	45965.78
628.76	45865.14
628.91	46073.45
629.06	45560.87
629.21	46014.93
629.36	46026.63
629.51	45324.47
629.66	45942.38
629.81	45656.83
629.96	46010.25
630.11	45645.13
630.26	45460.23
630.41	45387.67
630.56	45684.92
630.71	45420.44
630.86	45418.10
631.01	45621.72
631.16	45390.01
631.31	45200.43
631.46	45336.18
631.61	45811.31
631.76	45808.96
631.91	45727.05
632.06	46043.02
632.21	45492.99
632.36	45654.49
632.51	45020.20
632.66	45626.40
632.81	45219.15
632.96	45441.50
633.10	45001.48
633.25	45539.80
633.40	45247.24
633.55	45780.88
633.70	45050.63
633.85	45083.40
634.00	44795.51
634.15	44582.52
634.30	44896.16
634.45	44914.88
634.60	45064.67
634.75	45095.10
634.90	44933.60
635.05	45120.85
635.19	44842.32
635.34	45076.38
635.49	44807.22
635.64	44865.73
635.79	45357.24
635.94	44715.93
636.09	44886.79
636.24	44694.87
636.39	45446.18
636.53	44821.26
636.68	44285.28
636.83	44133.14
636.98	44205.70
637.13	44062.93
637.28	44329.75
637.43	44231.44
637.57	44322.72
637.72	44371.88
637.87	44329.75
638.02	44552.10
638.17	44582.52
638.32	44385.92
638.46	44142.50
638.61	43873.34
638.76	44268.89
638.91	43962.28
639.06	44102.71
639.20	44048.88
639.35	44119.10
639.50	43859.30
639.65	44247.83
639.80	44601.25
639.94	44470.18
640.09	44524.01
640.24	44060.58
640.39	43859.30
640.54	43627.59
640.68	44072.29
640.83	44425.71
640.98	43789.08
641.13	43564.39
641.27	44456.14
641.42	43973.98
641.57	43580.78
641.72	44025.48
641.86	43688.44
642.01	43522.26
642.16	43676.74
642.31	43421.62
642.45	44037.18
642.60	43854.62
642.75	43934.20
642.90	43716.53
643.04	43606.52
643.19	43288.21
643.34	43145.44
643.48	43100.97
643.63	43365.45
643.78	43459.07
643.93	43288.21
644.07	43648.65
644.22	43257.78
644.37	43086.92
644.51	43538.65
644.66	43260.12
644.81	42895.00
644.95	43014.37
645.10	43063.52
645.25	42745.20
645.39	43267.14
645.54	43091.60
645.69	42724.14
645.83	42962.87
645.98	43002.66
646.13	42742.86
646.27	43054.15
646.42	42843.51
646.57	42803.72
646.71	42995.64
646.86	43159.48
647.00	43098.62
647.15	42899.68
647.30	42836.48
647.44	42689.03
647.59	43225.01
647.74	42625.84
647.88	43171.18
648.03	43054.15
648.17	43171.18
648.32	42958.19
648.47	43489.49
648.61	42960.53
648.76	42600.09
648.90	42965.21
649.05	42574.34
649.20	42433.91
649.34	42518.17
649.49	42572.00
649.63	42965.21
649.78	42749.88
649.92	42300.50
650.07	43000.32
650.21	42721.80
650.36	42721.80
650.51	42600.09
650.65	42593.07
650.80	42351.99
650.94	42763.93
651.09	42689.03
651.23	42309.86
651.38	42005.59
651.52	41825.37
651.67	41886.23
651.81	42370.72
651.96	42253.69
652.10	41759.84
652.25	41961.12
652.39	41846.44
652.54	41991.55
652.68	42085.17
652.83	42183.48
652.97	41797.29
653.12	42171.77
653.26	41865.16
653.41	42073.47
653.55	41172.36
653.70	42251.35
653.84	42094.53
653.99	41984.53
654.13	41588.98
654.27	41598.34
654.42	42106.24
654.56	41766.86
654.71	41759.84
654.85	41823.03
655.00	41743.45
655.14	41507.06
655.29	42017.30
655.43	42007.94
655.57	41486.00
655.72	40912.56
655.86	41883.89
656.01	41165.34
656.15	41340.88
656.30	41495.36
656.44	41326.84
656.58	41233.22
656.73	41762.18
656.87	41010.87
657.01	41083.42
657.16	41567.91
657.30	41258.96
657.45	41207.47
657.59	40671.49
657.73	40692.55
657.88	40620.00
658.02	40978.10
658.16	41132.57
658.31	40835.33
658.45	41097.47
658.60	41062.36
658.74	41172.36
658.88	40783.83
659.03	40528.72
659.17	40673.83
659.31	40793.20
659.46	40758.09
659.60	40437.44
659.74	40992.14
659.89	40449.14
660.03	40175.30
660.17	40491.27
660.32	40318.07
660.46	40240.83
660.60	39992.73
660.74	39756.34
660.89	40418.71
661.03	40130.83
661.17	39716.55
661.32	39709.53
661.46	40060.61
661.60	40126.14
661.74	39990.39
661.89	39782.09
662.03	39999.76
662.17	39587.82
662.31	39887.41
662.46	39718.89
662.60	39796.13
662.74	39402.92
662.88	39269.51
663.03	38667.99
663.17	38955.88
663.31	39138.44
663.45	39243.76
663.60	39611.23
663.74	39367.81
663.88	39164.18
664.02	39047.16
664.17	39196.95
664.31	38663.31
664.45	39007.37
664.59	38969.92
664.73	38532.24
664.88	38756.93
665.02	38609.48
665.16	38623.52
665.30	38731.18
665.44	38651.61
665.59	38122.65
665.73	38295.85
665.87	37958.81
666.01	38410.53
666.15	38333.29
666.29	37912.00
666.44	38256.06
666.58	38199.88
666.72	37792.63
666.86	37661.56
667.00	37921.36
667.14	37591.34
667.28	37825.40
667.43	38019.66
667.57	37982.21
667.71	37668.58
667.85	37961.15
667.99	37832.42
668.13	37167.71
668.27	37340.91
668.41	37046.00
668.56	36727.69
668.70	36945.36
668.84	36664.49
668.98	37251.97
669.12	36898.55
669.26	36931.31
669.40	37193.45
669.54	37160.69
669.68	36477.25
669.82	36439.80
669.96	35964.67
670.10	36484.27
670.25	36615.34
670.39	36285.33
670.53	36449.16
670.67	36776.84
670.81	36655.13
670.95	35969.35
671.09	36339.16
671.23	36236.17
671.37	36187.02
671.51	36044.25
671.65	35889.77
671.79	35658.06
671.93	35744.66
672.07	35938.93
672.21	35861.69
672.35	35505.93
672.49	35627.63
672.63	35632.32
672.77	35351.45
672.91	35342.09
673.05	35173.57
673.19	34824.83
673.33	34946.54
673.47	34672.70
673.61	34422.26
673.75	35089.31
673.89	34520.56
674.03	34611.84
674.17	34405.88
674.31	34487.79
674.45	34396.51
674.59	34155.44
674.73	34398.85
674.87	33722.44
675.01	34202.25
675.15	33626.48
675.29	33778.61
675.43	33656.90
675.56	33909.68
675.70	33757.55
675.84	33649.88
675.98	32467.91
676.12	33373.70
676.26	33149.01
676.40	33448.60
676.54	33268.37
676.68	33106.88
676.82	32510.04
676.96	32556.85
677.10	33057.73
677.23	32538.13
677.37	32762.82
677.51	31995.12
677.65	32346.20
677.79	32250.24
677.93	32165.98
678.07	32360.25
678.21	31550.42
678.34	31676.81
678.48	31653.40
678.62	31620.64
678.76	31613.62
678.90	31723.62
679.04	31508.29
679.18	31889.80
679.31	31225.09
679.45	31171.25
679.59	30892.73
679.73	31131.47
679.87	30871.67
680.00	30799.11
680.14	30717.19
680.28	30691.44
680.42	30506.54
680.56	30293.55
680.70	30188.23
680.83	29890.98
680.97	29867.58
681.11	29699.06
681.25	29909.71
681.39	29200.52
681.52	29670.97
681.66	29589.05
681.80	29053.07
681.94	29188.82
682.07	29319.89
682.21	29144.35
682.35	29273.08
682.49	28950.09
682.62	28648.16
682.76	28987.53
682.90	28926.68
683.04	28311.12
683.17	28678.58
683.31	28240.90
683.45	28409.42
683.59	27630.02
683.72	27473.21
683.86	28058.34
684.00	27749.39
684.13	27828.97
684.27	27772.80
684.41	27419.38
684.55	27431.08
684.68	27630.02
684.82	27075.32
684.96	26920.84
685.09	27360.86
685.23	27108.08
685.37	27520.02
685.50	27426.40
685.64	27129.15
685.78	26403.58
685.91	26883.39
686.05	26003.35
686.19	26148.46
686.32	26160.17
686.46	25954.20
686.60	26059.52
686.73	25963.56
686.87	25685.04
687.01	26408.26
687.14	25755.26
687.28	25713.13
687.42	25296.51
687.55	25755.26
687.69	25446.30
687.82	25120.97
687.96	25081.18
688.10	24893.94
688.23	25228.63
688.37	25109.27
688.50	25125.65
688.64	24826.06
688.78	24697.33
688.91	24432.85
689.05	24025.60
689.18	24411.79
689.32	23974.11
689.46	23641.75
689.59	23913.25
689.73	23821.97
689.86	24109.86
690.00	23854.74
690.13	23777.50
690.27	23845.38
690.41	23346.84
690.54	23346.84
690.68	23353.87
690.81	23225.14
690.95	22941.93
691.08	22885.76
691.22	22735.96
691.35	22766.39
691.49	22785.12
691.62	22527.66
691.76	22682.13
691.89	22216.36
692.03	22122.74
692.16	22104.02
692.30	22445.74
692.43	22253.81
692.57	21776.34
692.70	21771.66
692.84	21710.81
692.97	21291.85
693.11	21268.45
693.24	20999.29
693.38	21429.94
693.51	21099.93
693.65	21144.40
693.78	20856.51
693.92	20826.09
694.05	20730.12
694.19	20688.00
694.32	20851.83
694.45	20659.91
694.59	20751.19
694.72	20505.43
694.86	20486.71
694.99	20318.19
695.13	19782.21
695.26	19885.19
695.39	19655.82
695.53	19711.99
695.66	19391.34
695.80	19819.66
695.93	19686.25
696.07	19330.48
696.20	19255.59
696.33	19180.69
696.47	19037.92
696.60	19047.28
696.73	19168.99
696.87	19009.83
697.00	19089.41
697.14	18771.10
697.27	18752.37
697.40	18417.68
697.54	18663.43
697.67	18635.35
697.80	18654.07
697.94	18352.14
698.07	18127.45
698.21	17926.16
698.34	18181.28
698.47	18090.00
698.61	17563.38
698.74	17818.50
698.87	17469.76
699.01	17626.57
699.14	17809.14
699.27	17652.32
699.40	17280.18
699.54	17352.73
699.67	17621.89
699.80	17205.28
699.94	17039.10
700.07	17341.03
700.20	17167.83
700.34	16781.64
700.47	17067.19
700.60	16645.89
700.73	16753.55
700.87	16746.53
701.00	16308.85
701.13	16072.46
701.26	16294.81
701.40	16458.65
701.53	16297.15
701.66	15978.84
701.79	16147.36
701.93	15906.28
702.06	15761.17
702.19	15529.45
702.32	15674.57
702.46	15761.17
702.59	15859.47
702.72	15807.98
702.85	15730.74
702.99	15335.19
703.12	15337.53
703.25	15328.17
703.38	15241.57
703.51	15234.55
703.65	15117.52
703.78	14588.56
703.91	14616.65
704.04	14693.88
704.17	14532.39
704.31	14637.71
704.44	14256.20
704.57	14328.76
704.70	14361.53
704.83	14539.41
704.96	14115.77
705.10	14026.83
705.23	14038.53
>>>>>End Processed Spectral Data<<<<<
