SpectraSuite Data File
++++++++++++++++++++++++++++++++++++
Date: Fri Oct 25 10:47:35 EDT 2013
User: price-jones
Dark Spectrum Present: No
Reference Spectrum Present: No
Number of Sampled Component Spectra: 1
Spectrometers: USB2+H05261
Integration Time (usec): 100000 (USB2+H05261)
Spectra Averaged: 1 (USB2+H05261)
Boxcar Smoothing: 0 (USB2+H05261)
Correct for Electrical Dark: No (USB2+H05261)
Strobe/Lamp Enabled: No (USB2+H05261)
Correct for Detector Non-linearity: No (USB2+H05261)
Correct for Stray Light: No (USB2+H05261)
Number of Pixels in Processed Spectrum: 2048
>>>>>Begin Processed Spectral Data<<<<<
365.73	126.39
365.92	126.39
366.12	126.39
366.32	51.49
366.52	35.11
366.72	56.17
366.91	18.72
367.11	42.13
367.31	60.85
367.51	0.00
367.70	0.00
367.90	74.90
368.10	14.04
368.30	63.19
368.49	56.17
368.69	74.90
368.89	93.62
369.09	84.26
369.28	65.54
369.48	93.62
369.68	74.90
369.87	112.35
370.07	149.79
370.27	98.30
370.47	217.67
370.66	425.98
370.86	386.19
371.06	393.21
371.25	482.15
371.45	505.56
371.65	458.74
371.84	435.34
372.04	442.36
372.24	379.17
372.44	472.79
372.63	526.62
372.83	496.19
373.03	531.30
373.22	493.85
373.42	517.26
373.62	517.26
373.81	468.11
374.01	519.60
374.21	601.52
374.40	538.32
374.60	571.09
374.79	561.73
374.99	550.03
375.19	608.54
375.38	578.11
375.58	547.69
375.78	617.90
375.97	606.20
376.17	589.82
376.37	601.52
376.56	585.13
376.76	585.13
376.95	559.39
377.15	610.88
377.35	643.65
377.54	580.45
377.74	578.11
377.93	578.11
378.13	620.24
378.33	617.90
378.52	599.18
378.72	610.88
378.91	617.90
379.11	620.24
379.31	664.71
379.50	613.22
379.70	650.67
379.89	648.33
380.09	603.86
380.28	690.46
380.48	709.18
380.68	688.12
380.87	592.16
381.07	690.46
381.26	667.05
381.46	636.63
381.65	638.97
381.85	643.65
382.04	704.50
382.24	758.33
382.43	713.86
382.63	667.05
382.83	739.61
383.02	753.65
383.22	753.65
383.41	763.01
383.61	704.50
383.80	758.33
384.00	760.67
384.19	732.59
384.39	709.18
384.58	833.23
384.78	763.01
384.97	716.20
385.17	695.14
385.36	826.21
385.56	805.14
385.75	809.83
385.95	791.10
386.14	851.96
386.34	753.65
386.53	816.85
386.72	788.76
386.92	772.38
387.11	788.76
387.31	842.59
387.50	748.97
387.70	746.63
387.89	800.46
388.09	788.76
388.28	830.89
388.48	814.51
388.67	880.04
388.86	830.89
389.06	805.14
389.25	929.19
389.45	915.15
389.64	875.36
389.84	847.27
390.03	854.30
390.22	898.77
390.42	924.51
390.61	966.64
390.81	938.55
391.00	971.32
391.19	971.32
391.39	1015.79
391.58	922.17
391.78	1001.75
391.97	1046.22
392.16	950.26
392.36	1029.84
392.55	929.19
392.75	994.73
392.94	924.51
393.13	1036.86
393.33	912.81
393.52	1074.31
393.71	1025.15
393.91	1022.81
394.10	1076.65
394.29	1034.52
394.49	1090.69
394.68	1067.28
394.88	1034.52
395.07	1146.86
395.26	1125.80
395.46	1100.05
395.65	1137.50
395.84	1167.93
396.04	1198.35
396.23	1156.22
396.42	1104.73
396.62	1076.65
396.81	1116.44
397.00	1116.44
397.19	1231.12
397.39	1221.76
397.58	1336.45
397.77	1247.51
397.97	1228.78
398.16	1343.47
398.35	1324.74
398.55	1277.93
398.74	1324.74
398.93	1373.89
399.12	1289.64
399.32	1306.02
399.51	1364.53
399.70	1392.62
399.90	1380.92
400.09	1444.11
400.28	1418.36
400.47	1418.36
400.67	1563.48
400.86	1479.22
401.05	1455.81
401.24	1490.92
401.44	1467.52
401.63	1612.63
401.82	1514.33
402.01	1507.30
402.21	1596.25
402.40	1598.59
402.59	1570.50
402.78	1526.03
402.97	1537.73
403.17	1558.80
403.36	1645.40
403.55	1556.46
403.74	1727.32
403.93	1572.84
404.13	1652.42
404.32	1617.31
404.51	1689.87
404.70	1706.25
404.89	1732.00
405.09	1713.27
405.28	1762.42
405.47	1776.47
405.66	1682.85
405.85	1774.13
406.05	1781.15
406.24	1764.76
406.43	1837.32
406.62	1741.36
406.81	1947.33
407.00	1865.41
407.20	1830.30
407.39	1823.28
407.58	1935.62
407.77	1959.03
407.96	1959.03
408.15	1942.64
408.34	1940.30
408.54	2132.23
408.73	1968.39
408.92	1984.77
409.11	1980.09
409.30	2047.97
409.49	1963.71
409.68	2069.03
409.87	2085.42
410.07	2099.46
410.26	2120.53
410.45	2204.78
410.64	2146.27
410.83	2232.87
411.02	2319.47
411.21	2331.17
411.40	2263.30
411.59	2237.55
411.78	2181.38
411.98	2382.67
412.17	2473.95
412.36	2473.95
412.55	2485.65
412.74	2338.20
412.93	2485.65
413.12	2513.74
413.31	2459.90
413.50	2546.50
413.69	2502.03
413.88	2621.40
414.07	2492.67
414.26	2576.93
414.45	2506.71
414.64	2644.81
414.83	2810.98
415.02	2712.68
415.22	2822.69
415.41	2832.05
415.60	2911.63
415.79	2958.44
415.98	2899.92
416.17	2885.88
416.36	2925.67
416.55	2911.63
416.74	2883.54
416.93	2958.44
417.12	3014.61
417.31	3014.61
417.50	3012.27
417.69	3101.21
417.88	3068.44
418.07	3042.70
418.26	3119.93
418.45	3080.14
418.64	3131.64
418.83	3251.00
419.02	3166.74
419.21	3286.11
419.39	3208.87
419.58	3101.21
419.77	3194.83
419.96	3255.69
420.15	3379.73
420.34	3283.77
420.53	3351.65
420.72	3412.50
420.91	3344.63
421.10	3480.38
421.29	3492.08
421.48	3447.61
421.67	3391.44
421.86	3344.63
422.05	3349.31
422.24	3417.18
422.43	3372.71
422.61	3440.59
422.80	3485.06
422.99	3492.08
423.18	3541.23
423.37	3543.57
423.56	3618.47
423.75	3585.70
423.94	3407.82
424.13	3222.92
424.32	3393.78
424.50	3634.85
424.69	3684.00
424.88	3744.86
425.07	3473.36
425.26	3332.92
425.45	3463.99
425.64	3480.38
425.83	3712.09
426.01	3681.66
426.20	3599.74
426.39	3585.70
426.58	3599.74
426.77	3574.00
426.96	3679.32
427.15	3707.41
427.33	3709.75
427.52	3681.66
427.71	3840.82
427.90	3695.71
428.09	3749.54
428.28	3737.84
428.46	3777.62
428.65	3742.52
428.84	4004.66
429.03	4018.70
429.22	3761.24
429.40	3887.63
429.59	3948.48
429.78	3669.96
429.97	3564.64
430.16	3812.73
430.34	3679.32
430.53	3901.67
430.72	4011.68
430.91	3796.35
431.10	3868.91
431.28	4173.18
431.47	4091.26
431.66	4337.01
431.85	4145.09
432.03	4278.50
432.22	4273.82
432.41	4269.14
432.60	4201.26
432.79	4337.01
432.97	4299.56
433.16	4241.05
433.35	4238.71
433.54	4222.33
433.72	4512.55
433.91	4283.18
434.10	4400.21
434.28	4475.10
434.47	4430.63
434.66	4400.21
434.85	4484.47
435.03	4550.00
435.22	4573.41
435.41	4440.00
435.59	4456.38
435.78	4620.22
435.97	4620.22
436.16	4676.39
436.34	4641.28
436.53	4498.51
436.72	4662.35
436.90	4692.77
437.09	4819.16
437.28	4690.43
437.46	4737.24
437.65	4755.97
437.84	4692.77
438.02	4774.69
438.21	4774.69
438.40	4531.28
438.58	4887.04
438.77	4891.72
438.96	4957.25
439.14	5188.97
439.33	4905.76
439.52	5011.09
439.70	4943.21
439.89	5144.50
440.08	5195.99
440.26	5298.97
440.45	5125.77
440.63	5357.49
440.82	5514.30
441.01	5556.43
441.19	5331.74
441.38	5626.65
441.57	5458.13
441.75	5533.03
441.94	5654.73
442.12	5556.43
442.31	5731.97
442.50	5746.02
442.68	5640.69
442.87	5657.07
443.05	5844.32
443.24	5748.36
443.43	5771.76
443.61	5757.72
443.80	6104.12
443.98	5694.52
444.17	5605.58
444.35	6019.86
444.54	5898.15
444.73	5977.73
444.91	5874.74
445.10	5743.67
445.28	5905.17
445.47	5729.63
445.65	5886.45
445.84	5980.07
446.02	5956.66
446.21	6003.47
446.39	5898.15
446.58	5898.15
446.77	6024.54
446.95	5982.41
447.14	6054.97
447.32	6111.14
447.51	5994.11
447.69	5944.96
447.88	5996.45
448.06	6019.86
448.25	6094.76
448.43	6162.63
448.62	6125.18
448.80	6033.90
448.99	6183.70
449.17	6209.44
449.36	6045.60
449.54	6347.53
449.73	6317.11
449.91	6368.60
450.10	6307.74
450.28	6497.33
450.46	6572.22
450.65	6626.06
450.83	6380.30
451.02	6347.53
451.20	6494.99
451.39	6539.46
451.57	6518.39
451.76	6314.77
451.94	6445.84
452.13	6609.67
452.31	6511.37
452.49	6445.84
452.68	6604.99
452.86	6553.50
453.05	6733.72
453.23	6754.79
453.42	6729.04
453.60	6717.34
453.78	6864.79
453.97	6644.78
454.15	6642.44
454.34	6614.35
454.52	6759.47
454.70	6771.17
454.89	6710.32
455.07	6820.32
455.26	6864.79
455.44	7030.97
455.62	6953.73
455.81	6890.54
455.99	7208.85
456.17	6946.71
456.36	6977.14
456.54	7176.08
456.73	7164.38
456.91	7304.81
457.09	7211.19
457.28	7309.49
457.46	7295.45
457.64	7269.70
457.83	7351.62
458.01	7309.49
458.19	7517.80
458.38	7386.73
458.56	7412.48
458.74	7494.40
458.93	7566.95
459.11	7599.72
459.29	7412.48
459.48	7613.76
459.66	7583.34
459.84	7541.21
460.03	7653.55
460.21	7648.87
460.39	7719.09
460.57	7674.62
460.76	7770.58
460.94	7887.61
461.12	7880.58
461.31	7875.90
461.49	7803.35
461.67	7950.80
461.85	7969.52
462.04	7815.05
462.22	8414.23
462.40	7960.16
462.59	8128.68
462.77	7995.27
462.95	8194.22
463.13	7948.46
463.32	8056.12
463.50	8306.56
463.68	8208.26
463.86	8264.43
464.05	8091.23
464.23	8037.40
464.41	8463.38
464.59	8308.90
464.78	8439.97
464.96	8402.52
465.14	8147.40
465.32	8294.86
465.50	8304.22
465.69	8292.52
465.87	8250.39
466.05	8271.45
466.23	8315.92
466.41	8224.64
466.60	8720.84
466.78	8341.67
466.96	8395.50
467.14	8514.87
467.32	8482.10
467.51	8751.26
467.69	8475.08
467.87	8739.56
468.05	8739.56
468.23	8549.98
468.41	8622.53
468.60	8517.21
468.78	8802.75
468.96	8737.22
469.14	8926.80
469.32	8908.08
469.50	8484.44
469.69	8922.12
469.87	8805.10
470.05	9083.62
470.23	8933.82
470.41	9015.74
470.59	9123.41
470.77	9130.43
470.95	9092.98
471.14	9289.59
471.32	9043.83
471.50	9205.33
471.68	9350.44
471.86	9451.08
472.04	9228.73
472.22	9474.49
472.40	9495.55
472.58	9348.10
472.77	9542.36
472.95	9750.67
473.13	9912.17
473.31	9853.66
473.49	9673.43
473.67	9839.61
473.85	9874.72
474.03	10019.83
474.21	9919.19
474.39	10024.51
474.57	9942.60
474.75	9961.32
474.93	10141.54
475.12	10258.57
475.30	10406.02
475.48	10300.70
475.66	10583.90
475.84	10246.87
476.02	10335.81
476.20	10331.12
476.38	10604.97
476.56	10972.43
476.74	10764.12
476.92	10930.30
477.10	10799.23
477.28	11005.20
477.46	10857.75
477.64	11204.14
477.82	11061.37
478.00	11480.33
478.18	11473.31
478.36	11550.54
478.54	11620.76
478.72	11690.98
478.90	11997.59
479.08	11953.12
479.26	11999.93
479.44	12042.06
479.62	12060.78
479.80	12184.83
479.98	12123.98
480.16	12332.28
480.34	12449.31
480.52	12430.59
480.70	12435.27
480.88	12456.33
481.06	12458.67
481.24	12568.68
481.41	12830.82
481.59	13205.30
481.77	13217.01
481.95	13153.81
482.13	13345.73
482.31	13217.01
482.49	13666.39
482.67	13568.09
482.85	13500.21
483.03	13893.42
483.21	14017.47
483.39	14012.79
483.57	14101.73
483.74	14143.86
483.92	14448.13
484.10	14413.02
484.28	14466.85
484.46	14541.75
484.64	14960.70
484.82	14864.74
485.00	14939.64
485.18	14904.53
485.35	15279.02
485.53	15309.44
485.71	15101.14
485.89	15583.29
486.07	15272.00
486.25	15721.38
486.43	15749.46
486.61	16002.24
486.78	15915.64
486.96	15995.22
487.14	16395.45
487.32	16327.58
487.50	16400.13
487.68	16671.64
487.85	17067.19
488.03	16959.52
488.21	17102.29
488.39	17069.53
488.57	17415.93
488.75	17376.14
488.92	17530.61
489.10	17865.31
489.28	17715.51
489.46	18078.30
489.64	18160.22
489.81	18359.16
489.99	18649.39
490.17	18808.54
490.35	18455.12
490.53	18633.00
490.70	19372.61
490.88	18813.23
491.06	18836.63
491.24	19133.88
491.41	19143.24
491.59	19246.23
491.77	19058.98
491.95	19489.64
492.13	20116.90
492.30	19777.53
492.48	20123.93
492.66	20189.46
492.84	20130.95
493.01	20563.95
493.19	20308.83
493.37	20318.19
493.54	20458.62
493.72	20760.55
493.90	20877.58
494.08	20973.54
494.25	21294.19
494.43	21390.16
494.61	21511.86
494.79	21898.05
494.96	21542.29
495.14	21757.62
495.32	21635.91
495.49	21750.60
495.67	22183.60
495.85	22129.77
496.02	22443.40
496.20	22389.56
496.38	22867.03
496.55	22637.66
496.73	23452.17
496.91	22750.01
497.09	23178.33
497.26	22923.21
497.44	22934.91
497.62	23103.43
497.79	23232.16
497.97	23178.33
498.14	23810.27
498.32	23597.28
498.50	23859.42
498.67	24114.54
498.85	23929.64
499.03	24503.07
499.20	24114.54
499.38	24327.53
499.56	24528.81
499.73	24659.88
499.91	24243.27
500.08	24697.33
500.26	24547.54
500.44	24577.97
500.61	24812.02
500.79	24762.87
500.97	25022.67
501.14	25336.30
501.32	25371.41
501.49	24589.67
501.67	25673.34
501.84	25165.44
502.02	25481.41
502.20	25853.56
502.37	26153.15
502.55	25942.50
502.72	25846.54
502.90	26242.09
503.07	25991.65
503.25	26178.89
503.43	25912.07
503.60	26150.81
503.78	26445.71
503.95	26705.51
504.13	26328.69
504.30	26689.13
504.48	26958.29
504.65	26754.66
504.83	27068.30
505.01	27171.28
505.18	27126.81
505.36	27456.82
505.53	27325.75
505.71	27662.79
505.88	27674.49
506.06	27515.34
506.23	27571.51
506.41	27424.06
506.58	27697.90
506.76	27601.94
506.93	27922.59
507.11	27817.27
507.28	28091.11
507.46	28027.92
507.63	27892.16
507.81	28496.02
507.98	28561.56
508.16	28498.36
508.33	28589.64
508.50	28594.32
508.68	28797.95
508.85	29287.12
509.03	29268.40
509.20	28793.27
509.38	29174.78
509.55	29289.46
509.73	29439.26
509.90	29539.90
510.08	29268.40
510.25	29172.44
510.42	29237.97
510.60	29757.57
510.77	29509.47
510.95	30092.27
511.12	29851.19
511.30	29963.54
511.47	30405.90
511.64	30101.63
511.82	30401.22
511.99	30323.98
512.17	30323.98
512.34	30319.30
512.51	30403.56
512.69	30586.12
512.86	30483.14
513.04	30738.26
513.21	30993.37
513.38	30698.47
513.56	31054.23
513.73	30813.15
513.90	31185.30
514.08	31157.21
514.25	30958.27
514.43	31213.38
514.60	31084.65
514.77	31213.38
514.95	31377.22
515.12	31503.61
515.29	31527.02
515.47	31515.31
515.64	31854.69
515.81	31552.76
515.99	31758.73
516.16	31709.58
516.33	31604.25
516.51	32180.03
516.68	31681.49
516.85	31463.82
517.03	32304.07
517.20	31885.12
517.37	32119.17
517.54	32627.07
517.72	32325.14
517.89	32229.18
518.06	32425.78
518.24	32643.45
518.41	32194.07
518.58	32570.90
518.75	32479.61
518.93	32730.05
519.10	33067.09
519.27	33172.41
519.45	32905.59
519.62	33228.59
519.79	33085.81
519.96	33186.46
520.14	33567.96
520.31	33357.32
520.48	33699.03
520.65	33226.24
520.83	33713.08
521.00	34085.22
521.17	34150.76
521.34	34354.38
521.52	34237.36
521.69	33603.07
521.86	34125.01
522.03	34209.27
522.20	34202.25
522.38	34672.70
522.55	34380.13
522.72	34721.85
522.89	34759.30
523.07	35007.39
523.24	34115.65
523.41	34923.13
523.58	34754.61
523.75	35353.79
523.92	35000.37
524.10	35093.99
524.27	35196.98
524.44	34876.32
524.61	34993.35
524.78	35697.85
524.96	35442.73
525.13	35700.19
525.30	35517.63
525.47	35976.37
525.64	35667.42
525.81	35697.85
525.98	35732.96
526.16	35452.09
526.33	35761.05
526.50	35700.19
526.67	35569.12
526.84	35299.96
527.01	35688.49
527.18	35599.55
527.36	36114.47
527.53	36084.04
527.70	36774.50
527.87	36669.17
528.04	36189.36
528.21	36287.67
528.38	35924.88
528.55	36444.48
528.72	36825.99
528.89	36425.76
529.07	36613.00
529.24	36542.78
529.41	36739.39
529.58	36769.82
529.75	36507.68
529.92	36776.84
530.09	37441.55
530.26	37354.95
530.43	37106.85
530.60	37015.57
530.77	37258.99
530.94	37132.60
531.11	36570.87
531.28	37219.20
531.46	37591.34
531.63	37661.56
531.80	37373.67
531.97	37053.02
532.14	37179.41
532.31	37258.99
532.48	37539.85
532.65	37710.71
532.82	37368.99
532.99	37638.15
533.16	37736.46
533.33	37628.79
533.50	37989.24
533.67	38075.84
533.84	38017.32
534.01	37872.21
534.18	38115.62
534.35	38417.55
534.52	37912.00
534.69	38153.07
534.86	38464.36
535.03	38213.93
535.20	38508.83
535.37	38998.01
535.54	38951.20
535.71	38401.17
535.88	38328.61
536.05	38557.99
536.22	38897.36
536.38	38822.47
536.55	38597.77
536.72	38616.50
536.89	38660.97
537.06	38686.71
537.23	38700.76
537.40	38728.84
537.57	39049.50
537.74	38593.09
537.91	39274.19
538.08	39346.75
538.25	39035.45
538.42	38747.57
538.59	39873.37
538.75	38806.08
538.92	39363.13
539.09	39412.28
539.26	39737.62
539.43	39030.77
539.60	39489.52
539.77	39019.07
539.94	39751.66
540.11	39423.98
540.28	39269.51
540.44	39580.80
540.61	39751.66
540.78	39555.05
540.95	39529.31
541.12	39835.92
541.29	39936.56
541.46	39653.36
541.62	40411.69
541.79	40257.21
541.96	39475.48
542.13	39859.32
542.30	40318.07
542.47	39990.39
542.63	40154.23
542.80	40065.29
542.97	40533.40
543.14	40931.29
543.31	40732.34
543.48	40945.33
543.64	41345.56
543.81	40708.94
543.98	40744.05
544.15	40903.20
544.32	40807.24
544.48	41132.57
544.65	40491.27
544.82	41226.20
544.99	40645.74
545.16	40994.48
545.32	40666.81
545.49	40940.65
545.66	41488.34
545.83	41249.60
546.00	41261.30
546.16	41390.03
546.33	41315.14
546.50	40879.80
546.67	41457.91
546.83	40669.15
547.00	41528.13
547.17	41333.86
547.34	41579.62
547.50	41677.92
547.67	41921.34
547.84	41373.65
548.00	41979.85
548.17	41832.39
548.34	41371.31
548.51	42047.72
548.67	41766.86
548.84	41619.41
549.01	41596.00
549.18	41783.24
549.34	42131.98
549.51	42328.59
549.68	42408.17
549.84	42351.99
550.01	42176.45
550.18	42185.82
550.34	41996.23
550.51	41745.80
550.68	41977.51
550.84	41605.36
551.01	42190.50
551.18	42213.90
551.34	42646.90
551.51	42127.30
551.68	42480.72
551.84	42539.24
552.01	42410.51
552.18	42256.03
552.34	42391.78
552.51	42738.18
552.68	42284.12
552.84	42930.11
553.01	43070.54
553.18	42497.11
553.34	42892.66
553.51	42761.59
553.67	42880.95
553.84	43009.68
554.01	42913.72
554.17	42801.38
554.34	43430.98
554.51	42848.19
554.67	42529.87
554.84	42639.88
555.00	42887.98
555.17	42923.08
555.33	42834.14
555.50	43154.80
555.67	42948.83
555.83	42822.44
556.00	43093.94
556.16	43838.23
556.33	43395.87
556.50	42995.64
556.66	43608.86
556.83	42792.01
556.99	43243.74
557.16	43985.69
557.32	43367.79
557.49	43234.38
557.65	43084.58
557.82	43227.35
557.98	43145.44
558.15	43117.35
558.32	43346.72
558.48	43363.11
558.65	43592.48
558.81	43166.50
558.98	43419.28
559.14	43636.95
559.31	43491.83
559.47	43512.90
559.64	43487.15
559.80	43732.91
559.97	43714.19
560.13	43615.88
560.30	43627.59
560.46	43749.29
560.63	43585.46
560.79	43957.60
560.96	44453.79
561.12	43779.72
561.29	43634.61
561.45	43931.86
561.61	43620.56
561.78	43758.66
561.94	43768.02
562.11	43749.29
562.27	43725.89
562.44	43746.95
562.60	44102.71
562.77	44093.35
562.93	43964.62
563.10	44151.87
563.26	43618.22
563.42	44285.28
563.59	43789.08
563.75	43845.26
563.92	44273.57
564.08	44243.15
564.24	44189.31
564.41	44285.28
564.57	44088.67
564.74	44392.94
564.90	44083.99
565.07	43873.34
565.23	44065.27
565.39	44268.89
565.56	44032.50
565.72	43765.68
565.88	44198.68
566.05	44250.17
566.21	44245.49
566.38	44179.95
566.54	44067.61
566.70	44339.11
566.87	44514.65
567.03	44069.95
567.19	44790.83
567.36	44376.56
567.52	44098.03
567.68	44706.57
567.85	44409.32
568.01	44201.02
568.17	44388.26
568.34	44500.61
568.50	44252.51
568.66	44444.43
568.83	44512.31
568.99	44332.09
569.15	44158.89
569.32	44051.22
569.48	44196.34
569.64	44601.25
569.81	44580.18
569.97	44163.57
570.13	44535.71
570.30	43894.41
570.46	44418.69
570.62	43981.01
570.78	44231.44
570.95	44179.95
571.11	44395.28
571.27	44243.15
571.43	44278.25
571.60	44903.18
571.76	44147.18
571.92	44451.45
572.09	44336.77
572.25	43604.18
572.41	44226.76
572.57	44348.47
572.74	45052.97
572.90	44957.01
573.06	44673.81
573.22	44797.85
573.38	44652.74
573.55	44158.89
573.71	44584.86
573.87	44765.09
574.03	44542.74
574.20	44451.45
574.36	44617.63
574.52	44493.58
574.68	44641.04
574.84	44713.59
575.01	44505.29
575.17	44676.15
575.33	44486.56
575.49	44278.25
575.65	44938.29
575.82	44919.56
575.98	44744.02
576.14	44435.07
576.30	44474.86
576.46	44659.76
576.62	44495.92
576.79	44329.75
576.95	44409.32
577.11	44722.96
577.27	44706.57
577.43	44755.72
577.59	44795.51
577.75	44589.55
577.92	44411.67
578.08	44662.10
578.24	44802.53
578.40	44547.42
578.56	44671.46
578.72	44481.88
578.88	44769.77
579.04	44882.11
579.21	44655.08
579.37	44285.28
579.53	44732.32
579.69	44432.73
579.85	44507.63
580.01	44966.37
580.17	44800.19
580.33	44964.03
580.49	44678.49
580.65	44624.65
580.82	44664.44
580.98	44879.77
581.14	44701.89
581.30	44804.88
581.46	44732.32
581.62	44680.83
581.78	45233.19
581.94	45275.32
582.10	45076.38
582.26	45170.00
582.42	44722.96
582.58	44893.82
582.74	44891.48
582.90	44559.12
583.06	44697.21
583.22	44877.43
583.38	45052.97
583.54	44673.81
583.70	44912.54
583.86	44732.32
584.02	44456.14
584.18	44786.15
584.34	44947.65
584.50	45162.98
584.66	44786.15
584.82	45031.91
584.98	45303.41
585.14	44903.18
585.30	44847.00
585.46	44612.95
585.62	44711.25
585.78	44531.03
585.94	44706.57
586.10	44870.41
586.26	45022.54
586.42	44861.05
586.58	45172.34
586.74	44865.73
586.90	45193.40
587.06	44935.95
587.22	45001.48
587.38	44889.13
587.54	45338.52
587.70	45308.09
587.86	44933.60
588.02	45090.42
588.18	45235.53
588.34	44753.38
588.49	44322.72
588.65	44350.81
588.81	44713.59
588.97	44451.45
589.13	44626.99
589.29	44912.54
589.45	44865.73
589.61	44725.30
589.77	45083.40
589.93	45008.50
590.08	45418.10
590.24	45017.86
590.40	44886.79
590.56	45148.93
590.72	45106.80
590.88	45464.91
591.04	45118.51
591.20	45516.40
591.35	44954.67
591.51	45411.07
591.67	45174.68
591.83	45375.97
591.99	45132.55
592.15	45055.31
592.31	44957.01
592.46	44935.95
592.62	45387.67
592.78	45537.46
592.94	45064.67
593.10	45371.28
593.26	45160.64
593.41	45144.25
593.57	44968.71
593.73	45209.79
593.89	45483.63
594.05	45193.40
594.20	45071.70
594.36	45118.51
594.52	45031.91
594.68	45249.58
594.84	45240.21
594.99	45179.36
595.15	44776.79
595.31	45509.38
595.47	45404.05
595.62	45528.10
595.78	45525.76
595.94	45546.82
596.10	45422.78
596.25	45298.73
596.41	45502.35
596.57	45106.80
596.73	45942.38
596.88	45263.62
597.04	45308.09
597.20	45076.38
597.36	45319.79
597.51	45483.63
597.67	45275.32
597.83	45085.74
597.99	45619.38
598.14	45326.81
598.30	45242.56
598.46	45558.53
598.61	45294.05
598.77	45074.04
598.93	45170.00
599.09	45102.12
599.24	45654.49
599.40	45820.67
599.56	45340.86
599.71	45558.53
599.87	45549.17
600.03	45097.44
600.18	45361.92
600.34	45492.99
600.50	45074.04
600.65	45130.21
600.81	46005.57
600.97	45743.43
601.12	45991.53
601.28	45448.52
601.44	45085.74
601.59	45631.08
601.75	45254.26
601.91	45694.28
602.06	44769.77
602.22	45120.85
602.37	45366.60
602.53	45490.65
602.69	45851.09
602.84	45167.66
603.00	45366.60
603.16	45200.43
603.31	45385.33
603.47	45055.31
603.62	45268.30
603.78	45565.55
603.94	45457.88
604.09	45312.77
604.25	45404.05
604.40	45181.70
604.56	45605.34
604.71	45219.15
604.87	45366.60
605.03	45006.16
605.18	45305.75
605.34	44933.60
605.49	44921.90
605.65	45228.51
605.80	44587.21
605.96	45345.54
606.12	45317.45
606.27	45303.41
606.43	45230.85
606.58	45247.24
606.74	45244.90
606.89	45081.06
607.05	45261.28
607.20	45151.27
607.36	45401.71
607.51	45352.56
607.67	45364.26
607.82	44889.13
607.98	44903.18
608.13	44865.73
608.29	45207.45
608.44	44179.95
608.60	44697.21
608.75	44591.89
608.91	44678.49
609.06	45214.47
609.22	44870.41
609.37	44701.89
609.53	44783.81
609.68	44540.39
609.84	44676.15
609.99	44821.26
610.15	44914.88
610.30	44554.44
610.46	44189.31
610.61	44563.80
610.76	44896.16
610.92	44575.50
611.07	44828.28
611.23	44744.02
611.38	44891.48
611.54	44374.22
611.69	44472.52
611.84	44538.05
612.00	44540.39
612.15	44175.27
612.31	44772.11
612.46	44201.02
612.62	44870.41
612.77	44545.08
612.92	44526.35
613.08	44479.54
613.23	44432.73
613.39	44456.14
613.54	43737.59
613.69	44201.02
613.85	44758.06
614.00	44385.92
614.15	44772.11
614.31	44292.30
614.46	44325.07
614.62	44540.39
614.77	43845.26
614.92	44109.74
615.08	44278.25
615.23	44423.37
615.38	44165.91
615.54	44130.80
615.69	44208.04
615.84	43625.25
616.00	43814.83
616.15	43842.92
616.30	44355.49
616.46	44250.17
616.61	43955.26
616.76	43819.51
616.92	43859.30
617.07	43512.90
617.22	43896.75
617.37	43892.07
617.53	43613.54
617.68	44121.44
617.83	43899.09
617.99	43878.02
618.14	44261.87
618.29	43435.66
618.45	43746.95
618.60	43709.50
618.75	43952.92
618.90	43845.26
619.06	43945.90
619.21	43950.58
619.36	44247.83
619.51	43442.68
619.67	43433.32
619.82	43674.40
619.97	43840.57
620.12	43515.24
620.28	43262.46
620.43	43821.85
620.58	43379.49
620.73	43449.70
620.89	42927.77
621.04	43487.15
621.19	43585.46
621.34	43388.85
621.49	43122.03
621.65	43105.65
621.80	43278.85
621.95	43161.82
622.10	43243.74
622.25	42969.90
622.41	43075.22
622.56	43112.67
622.71	43615.88
622.86	43491.83
623.01	43100.97
623.16	43150.12
623.32	42995.64
623.47	43115.01
623.62	42885.64
623.77	43182.88
623.92	43138.41
624.07	42937.13
624.23	42277.10
624.38	42506.47
624.53	42459.66
624.68	42792.01
624.83	42897.34
624.98	42590.73
625.13	42637.54
625.29	42628.18
625.44	42564.98
625.59	42745.20
625.74	42029.00
625.89	42344.97
626.04	41986.87
626.19	42281.78
626.34	42241.99
626.49	42347.31
626.65	42246.67
626.80	42623.50
626.95	42251.35
627.10	42518.17
627.25	41734.09
627.40	41851.12
627.55	42045.38
627.70	41673.24
627.85	42012.62
628.00	42412.85
628.15	42291.14
628.30	42197.52
628.45	42157.73
628.60	41865.16
628.76	42316.89
628.91	42335.61
629.06	41848.78
629.21	42164.75
629.36	42071.13
629.51	41542.17
629.66	41654.51
629.81	41972.83
629.96	41771.54
630.11	41883.89
630.26	41591.32
630.41	42075.81
630.56	41715.37
630.71	41542.17
630.86	41813.67
631.01	41038.95
631.16	41874.52
631.31	41565.57
631.46	40844.69
631.61	41668.56
631.76	41933.04
631.91	41359.61
632.06	41474.29
632.21	41738.77
632.36	41656.85
632.51	41432.16
632.66	41359.61
632.81	40924.27
632.96	41432.16
633.10	40863.41
633.25	41523.44
633.40	41029.59
633.55	41361.95
633.70	41317.48
633.85	40935.97
634.00	40872.78
634.15	41064.70
634.30	40542.76
634.45	41153.64
634.60	41153.64
634.75	41085.76
634.90	40959.38
635.05	41158.32
635.19	40708.94
635.34	41139.60
635.49	41106.83
635.64	40509.99
635.79	40624.68
635.94	40961.72
636.09	40568.51
636.24	40610.64
636.39	40416.37
636.53	40411.69
636.68	40591.91
636.83	40678.51
636.98	40540.42
637.13	40517.01
637.28	40900.86
637.43	40751.07
637.57	40388.28
637.72	40509.99
637.87	40779.15
638.02	40407.01
638.17	39672.08
638.32	39873.37
638.46	40095.72
638.61	40067.63
638.76	40011.46
638.91	40271.26
639.06	40081.67
639.20	40369.56
639.35	40575.53
639.50	40409.35
639.65	40325.09
639.80	40498.29
639.94	39819.53
640.09	39906.13
640.24	39871.03
640.39	39391.22
640.54	39847.62
640.68	39864.00
640.83	39772.72
640.98	39501.22
641.13	40011.46
641.27	40041.88
641.42	39842.94
641.57	40238.49
641.72	40095.72
641.86	39332.70
642.01	39473.13
642.16	39639.31
642.31	39082.27
642.45	39573.78
642.60	39594.84
642.75	39438.03
642.90	39210.99
643.04	39175.89
643.19	39615.91
643.34	39695.49
643.48	39356.11
643.63	39416.96
643.78	39512.92
643.93	38616.50
644.07	38763.95
644.22	39391.22
644.37	39129.08
644.51	39117.37
644.66	39342.06
644.81	39690.80
644.95	39459.09
645.10	38670.33
645.25	39225.04
645.39	39414.62
645.54	39358.45
645.69	38768.63
645.83	38930.13
645.98	38686.71
646.13	39248.44
646.27	39220.36
646.42	39189.93
646.57	39098.65
646.71	38981.62
646.86	38939.49
647.00	39047.16
647.15	38979.28
647.30	39054.18
647.44	38871.62
647.59	38876.30
647.74	38506.49
647.88	38653.95
648.03	38761.61
648.17	38883.32
648.32	38330.95
648.47	38981.62
648.61	38176.48
648.76	38946.51
648.90	38380.10
649.05	38705.44
649.20	38707.78
649.34	38728.84
649.49	38309.89
649.63	38284.14
649.78	38307.55
649.92	38366.06
650.07	38714.80
650.21	38101.58
650.36	38728.84
650.51	38043.07
650.65	38880.98
650.80	38789.70
650.94	38838.85
651.09	38134.35
651.23	37858.17
651.38	38352.02
651.52	38103.92
651.67	38249.03
651.81	38216.27
651.96	37804.33
652.10	38029.02
652.25	37823.06
652.39	37949.45
652.54	37879.23
652.68	38068.81
652.83	37904.98
652.97	38176.48
653.12	37790.29
653.26	38300.53
653.41	37949.45
653.55	37804.33
653.70	37560.92
653.84	37696.67
653.99	38000.94
654.13	37617.09
654.27	37715.39
654.42	37443.89
654.56	37523.47
654.71	37785.61
654.85	37677.94
655.00	37509.43
655.14	37352.61
655.29	37181.75
655.43	37589.00
655.57	36905.57
655.72	37144.30
655.86	37202.82
656.01	37024.93
656.15	37088.13
656.30	36954.72
656.44	36802.58
656.58	37015.57
656.73	36912.59
656.87	36926.63
657.01	36821.31
657.16	37146.64
657.30	36818.97
657.45	36371.92
657.59	36488.95
657.73	36290.01
657.88	36613.00
658.02	36978.12
658.16	36634.06
658.31	36856.42
658.45	36957.06
658.60	36889.18
658.74	37308.14
658.88	37237.92
659.03	36608.32
659.17	36404.69
659.31	36650.45
659.46	36294.69
659.60	36404.69
659.74	36299.37
659.89	36510.02
660.03	36795.56
660.17	36687.90
660.32	35978.72
660.46	36772.16
660.60	36552.15
660.74	36802.58
660.89	36605.98
661.03	35957.65
661.17	35838.28
661.32	35896.80
661.46	35800.83
661.60	35718.92
661.74	35873.39
661.89	35789.13
662.03	35519.97
662.17	35480.18
662.31	35840.62
662.46	36224.47
662.60	35585.50
662.74	35440.39
662.88	35421.67
663.03	35377.20
663.17	35704.87
663.31	35037.82
663.45	35512.95
663.60	35440.39
663.74	35117.40
663.88	35339.75
664.02	34902.07
664.17	35292.94
664.31	35119.74
664.45	34873.98
664.59	34920.79
664.73	34827.17
664.88	34691.42
665.02	34150.76
665.16	34799.08
665.30	34656.31
665.44	34572.05
665.59	34527.58
665.73	34354.38
665.87	34401.19
666.01	34251.40
666.15	34176.50
666.29	34174.16
666.44	34471.41
666.58	34527.58
666.72	34305.23
666.86	34478.43
667.00	34213.95
667.14	33961.17
667.28	33546.90
667.43	33916.70
667.57	33893.30
667.71	34022.03
667.85	33617.11
667.99	33486.04
668.13	33373.70
668.27	33762.23
668.41	33699.03
668.56	33209.86
668.70	33790.31
668.84	33448.60
668.98	33291.78
669.12	33408.81
669.26	33158.37
669.40	32875.16
669.54	32804.95
669.68	33127.94
669.82	33352.63
669.96	33134.96
670.10	32720.69
670.25	32945.38
670.39	32690.26
670.53	32851.76
670.67	32828.35
670.81	33111.56
670.95	32793.25
671.09	32893.89
671.23	32645.79
671.37	32781.54
671.51	32456.21
671.65	32151.94
671.79	32201.09
671.93	32271.31
672.07	32240.88
672.21	32135.56
672.35	32177.68
672.49	31625.32
672.63	32275.99
672.77	31548.08
672.91	31826.60
673.05	31552.76
673.19	31632.34
673.33	31519.99
673.47	31512.97
673.61	31288.28
673.75	31290.62
673.89	31192.32
674.03	31103.38
674.17	31026.14
674.31	30965.29
674.45	30504.20
674.59	31278.92
674.73	31232.11
674.87	30925.50
675.01	31000.40
675.15	31227.43
675.29	30749.96
675.43	30754.64
675.56	30698.47
675.70	30368.45
675.84	30199.93
675.98	29120.95
676.12	30270.15
676.26	30190.57
676.40	29851.19
676.54	29982.26
676.68	30045.46
676.82	29223.93
676.96	29642.88
677.10	29504.79
677.23	29453.30
677.37	29457.98
677.51	29654.59
677.65	28982.85
677.79	28929.02
677.93	28833.06
678.07	28966.47
678.21	29010.94
678.34	28641.14
678.48	28533.47
678.62	28524.11
678.76	28130.90
678.90	28219.84
679.04	28332.18
679.18	28692.63
679.31	27974.08
679.45	27735.35
679.59	27632.36
679.73	28041.96
679.87	28112.17
680.00	27967.06
680.14	27810.25
680.28	27421.72
680.42	27562.15
680.56	27456.82
680.70	27402.99
680.83	27452.14
680.97	27262.56
681.11	27402.99
681.25	26560.40
681.39	27007.44
681.52	27180.64
681.66	26834.24
681.80	26768.71
681.94	26831.90
682.07	26562.74
682.21	26567.42
682.35	26621.25
682.49	26284.22
682.62	26494.86
682.76	26125.06
682.90	26096.97
683.04	25989.31
683.17	26146.12
683.31	25851.22
683.45	25851.22
683.59	25804.41
683.72	25415.88
683.86	25223.95
684.00	25287.15
684.13	25546.95
684.27	25448.64
684.41	25319.92
684.55	24964.15
684.68	24748.82
684.82	24830.74
684.96	24896.28
685.09	24716.06
685.23	24762.87
685.37	24685.63
685.50	24449.24
685.64	24568.60
685.78	24390.72
685.91	24489.03
686.05	24196.46
686.19	23903.89
686.32	24011.56
686.46	23529.41
686.60	23676.86
686.73	23480.25
686.87	23353.87
687.01	23786.86
687.14	23208.75
687.28	23117.47
687.42	23161.94
687.55	22897.46
687.69	23309.40
687.82	22522.98
687.96	23117.47
688.10	23201.73
688.23	22464.46
688.37	22333.39
688.50	22263.18
688.64	22410.63
688.78	22073.59
688.91	22188.28
689.05	21984.65
689.18	22202.32
689.32	21975.29
689.46	22061.89
689.59	22129.77
689.73	22118.06
689.86	21734.21
690.00	22071.25
690.13	21984.65
690.27	21825.50
690.41	21605.49
690.54	21013.33
690.68	21081.21
690.81	21003.97
690.95	20950.14
691.08	21142.06
691.22	20884.60
691.35	20851.83
691.49	21048.44
691.62	20987.58
691.76	20662.25
691.89	20702.04
692.03	20521.82
692.16	20503.09
692.30	20135.63
692.43	20142.65
692.57	20226.91
692.70	20100.52
692.84	20161.37
692.97	19524.75
693.11	19885.19
693.24	19740.08
693.38	19793.91
693.51	19609.01
693.65	19800.93
693.78	19838.38
693.92	19180.69
694.05	19351.55
694.19	19302.40
694.32	18906.85
694.45	19208.78
694.59	19068.34
694.72	18925.57
694.86	18944.30
694.99	19171.33
695.13	18710.24
695.26	18562.79
695.39	18293.63
695.53	18579.17
695.66	18815.57
695.80	18366.18
695.93	18295.97
696.07	18324.05
696.20	18352.14
696.33	18251.50
696.47	18216.39
696.60	17757.64
696.73	17851.27
696.87	17731.90
697.00	17905.10
697.14	17289.54
697.27	17341.03
697.40	17792.75
697.54	17640.62
697.67	17326.99
697.80	17336.35
697.94	17345.71
698.07	17249.75
698.21	16924.41
698.34	17163.15
698.47	16971.22
698.61	16585.04
698.74	16638.87
698.87	16673.98
699.01	16465.67
699.14	16189.49
699.27	16334.60
699.40	16299.49
699.54	16121.61
699.67	15925.00
699.80	15957.77
699.94	15943.73
700.07	16177.78
700.20	16056.08
700.34	15695.63
700.47	15929.69
700.60	15917.98
700.73	15903.94
700.87	15625.42
701.00	15325.83
701.13	15503.71
701.26	15370.30
701.40	15541.16
701.53	15304.76
701.66	15241.57
701.79	15030.92
701.93	14799.21
702.06	15035.60
702.19	14626.01
702.32	14675.16
702.46	14867.08
702.59	14771.12
702.72	14595.58
702.85	14728.99
702.99	14721.97
703.12	14588.56
703.25	14473.87
703.38	14649.41
703.51	14363.87
703.65	14408.34
703.78	14230.46
703.91	14317.06
704.04	14036.19
704.17	14108.75
704.31	13984.70
704.44	13626.60
704.57	13572.77
704.70	13561.06
704.83	13687.45
704.96	13778.73
705.10	13724.90
705.23	13818.52
>>>>>End Processed Spectral Data<<<<<
