SpectraSuite Data File
++++++++++++++++++++++++++++++++++++
Date: Fri Oct 25 11:33:33 EDT 2013
User: price-jones
Dark Spectrum Present: No
Reference Spectrum Present: No
Number of Sampled Component Spectra: 1
Spectrometers: USB2+H05261
Integration Time (usec): 100000 (USB2+H05261)
Spectra Averaged: 1 (USB2+H05261)
Boxcar Smoothing: 0 (USB2+H05261)
Correct for Electrical Dark: No (USB2+H05261)
Strobe/Lamp Enabled: No (USB2+H05261)
Correct for Detector Non-linearity: No (USB2+H05261)
Correct for Stray Light: No (USB2+H05261)
Number of Pixels in Processed Spectrum: 2048
>>>>>Begin Processed Spectral Data<<<<<
365.73	313.63
365.92	313.63
366.12	313.63
366.32	205.97
366.52	194.26
366.72	215.33
366.91	147.45
367.11	177.88
367.31	215.33
367.51	198.95
367.70	177.88
367.90	110.01
368.10	152.13
368.30	212.99
368.49	166.18
368.69	208.31
368.89	187.24
369.09	208.31
369.28	248.10
369.48	173.20
369.68	227.03
369.87	252.78
370.07	248.10
370.27	212.99
370.47	339.38
370.66	418.96
370.86	482.15
371.06	500.87
371.25	568.75
371.45	535.98
371.65	587.47
371.84	458.74
372.04	587.47
372.24	578.11
372.44	589.82
372.63	566.41
372.83	585.13
373.03	531.30
373.22	559.39
373.42	613.22
373.62	561.73
373.81	615.56
374.01	650.67
374.21	657.69
374.40	620.24
374.60	697.48
374.79	697.48
374.99	683.44
375.19	643.65
375.38	596.84
375.58	739.61
375.78	737.27
375.97	730.25
376.17	739.61
376.37	594.50
376.56	685.78
376.76	580.45
376.95	692.80
377.15	690.46
377.35	732.59
377.54	704.50
377.74	767.70
377.93	699.82
378.13	664.71
378.33	739.61
378.52	653.01
378.72	725.57
378.91	704.50
379.11	695.14
379.31	727.91
379.50	699.82
379.70	746.63
379.89	758.33
380.09	648.33
380.28	650.67
380.48	716.20
380.68	723.23
380.87	744.29
381.07	739.61
381.26	697.48
381.46	837.91
381.65	741.95
381.85	784.08
382.04	741.95
382.24	812.17
382.43	793.44
382.63	758.33
382.83	725.57
383.02	861.32
383.22	830.89
383.41	723.23
383.61	798.12
383.80	863.66
384.00	812.17
384.19	858.98
384.39	819.19
384.58	809.83
384.78	833.23
384.97	835.57
385.17	912.81
385.36	826.21
385.56	866.00
385.75	915.15
385.95	814.51
386.14	901.11
386.34	873.02
386.53	814.51
386.72	880.04
386.92	875.36
387.11	959.62
387.31	919.83
387.50	858.98
387.70	891.74
387.89	840.25
388.09	856.64
388.28	912.81
388.48	954.94
388.67	905.79
388.86	908.13
389.06	884.72
389.25	936.21
389.45	936.21
389.64	882.38
389.84	1020.47
390.03	973.66
390.22	1004.09
390.42	891.74
390.61	983.02
390.81	957.28
391.00	1036.86
391.19	1050.90
391.39	919.83
391.58	945.58
391.78	1029.84
391.97	1034.52
392.16	971.32
392.36	1132.82
392.55	1013.45
392.75	1048.56
392.94	973.66
393.13	1025.15
393.33	1027.50
393.52	1083.67
393.71	1046.22
393.91	1036.86
394.10	1057.92
394.29	1102.39
394.49	1074.31
394.68	1118.78
394.88	1146.86
395.07	1214.74
395.26	1254.53
395.46	1153.88
395.65	1186.65
395.84	1109.41
396.04	1228.78
396.23	1193.67
396.42	1235.80
396.62	1221.76
396.81	1179.63
397.00	1167.93
397.19	1207.72
397.39	1280.27
397.58	1291.98
397.77	1191.33
397.97	1308.36
398.16	1275.59
398.35	1254.53
398.55	1245.16
398.74	1303.68
398.93	1327.08
399.12	1362.19
399.32	1275.59
399.51	1364.53
399.70	1357.51
399.90	1336.45
400.09	1401.98
400.28	1378.58
400.47	1324.74
400.67	1383.26
400.86	1362.19
401.05	1409.00
401.24	1348.15
401.44	1397.30
401.63	1423.05
401.82	1507.30
402.01	1329.42
402.21	1472.20
402.40	1600.93
402.59	1427.73
402.78	1497.94
402.97	1469.86
403.17	1593.90
403.36	1516.67
403.55	1516.67
403.74	1589.22
403.93	1547.09
404.13	1675.82
404.32	1572.84
404.51	1542.41
404.70	1720.29
404.89	1680.50
405.09	1638.38
405.28	1706.25
405.47	1753.06
405.66	1720.29
405.85	1664.12
406.05	1720.29
406.24	1748.38
406.43	1741.36
406.62	1724.97
406.81	1898.17
407.00	1694.55
407.20	1774.13
407.39	1739.02
407.58	1863.07
407.77	1844.34
407.96	1834.98
408.15	1844.34
408.34	1935.62
408.54	1919.24
408.73	1942.64
408.92	1947.33
409.11	2054.99
409.30	1893.49
409.49	1930.94
409.68	1989.46
409.87	2066.69
410.07	1949.67
410.26	2071.37
410.45	2120.53
410.64	2080.74
410.83	2057.33
411.02	2099.46
411.21	2143.93
411.40	2221.17
411.59	2260.96
411.78	2101.80
411.98	2211.81
412.17	2242.23
412.36	2242.23
412.55	2314.79
412.74	2370.96
412.93	2363.94
413.12	2352.24
413.31	2441.18
413.50	2394.37
413.69	2476.29
413.88	2497.35
414.07	2523.10
414.26	2450.54
414.45	2605.02
414.64	2504.37
414.83	2574.59
415.02	2595.65
415.22	2654.17
415.41	2562.89
415.60	2572.25
415.79	2621.40
415.98	2644.81
416.17	2700.98
416.36	2754.81
416.55	2672.89
416.74	2768.85
416.93	2677.57
417.12	2691.62
417.31	2890.56
417.50	2902.26
417.69	2925.67
417.88	2876.52
418.07	2942.05
418.26	2984.18
418.45	3000.57
418.64	3019.29
418.83	2984.18
419.02	2977.16
419.21	3068.44
419.39	2988.86
419.58	3098.87
419.77	3033.33
419.96	3169.09
420.15	3033.33
420.34	3206.53
420.53	3155.04
420.72	3169.09
420.91	3159.72
421.10	3286.11
421.29	3215.90
421.48	3290.79
421.67	3229.94
421.86	3267.39
422.05	3279.09
422.24	3311.86
422.43	3407.82
422.61	3342.28
422.80	3421.86
422.99	3351.65
423.18	3428.88
423.37	3393.78
423.56	3243.98
423.75	3412.50
423.94	3323.56
424.13	3220.58
424.32	3288.45
424.50	3461.65
424.69	3438.25
424.88	3400.80
425.07	3379.73
425.26	3267.39
425.45	3447.61
425.64	3466.33
425.83	3344.63
426.01	3435.91
426.20	3361.01
426.39	3550.59
426.58	3459.31
426.77	3368.03
426.96	3571.66
427.15	3576.34
427.33	3625.49
427.52	3581.02
427.71	3515.48
427.90	3534.21
428.09	3583.36
428.28	3658.26
428.46	3613.79
428.65	3705.07
428.84	3684.00
429.03	3761.24
429.22	3742.52
429.40	3817.41
429.59	3798.69
429.78	3721.45
429.97	3700.39
430.16	3730.81
430.34	3817.41
430.53	3880.61
430.72	3861.88
430.91	3885.29
431.10	3801.03
431.28	3943.80
431.47	3974.23
431.66	3920.40
431.85	4023.38
432.03	3901.67
432.22	4102.96
432.41	4138.07
432.60	4166.15
432.79	3971.89
432.97	4065.51
433.16	4014.02
433.35	4044.45
433.54	3920.40
433.72	4100.62
433.91	4140.41
434.10	4142.75
434.28	4128.70
434.47	4287.86
434.66	4217.65
434.85	4292.54
435.03	4390.84
435.22	4367.44
435.41	4351.06
435.59	4409.57
435.78	4437.66
435.97	4337.01
436.16	4533.62
436.34	4271.48
436.53	4451.70
436.72	4428.29
436.90	4442.34
437.09	4407.23
437.28	4519.57
437.46	4526.60
437.65	4533.62
437.84	4667.03
438.02	4741.93
438.21	4741.93
438.40	4585.11
438.58	4592.13
438.77	4713.84
438.96	4800.44
439.14	4807.46
439.33	4910.44
439.52	4917.47
439.70	4835.55
439.89	5013.43
440.08	4975.98
440.26	4826.18
440.45	4959.60
440.63	5043.85
440.82	5151.52
441.01	5149.18
441.19	4975.98
441.38	5345.78
441.57	5359.83
441.75	5291.95
441.94	5301.31
442.12	5394.93
442.31	5273.23
442.50	5371.53
442.68	5394.93
442.87	5476.85
443.05	5547.07
443.24	5481.53
443.43	5516.64
443.61	5523.66
443.80	5715.59
443.98	5521.32
444.17	5291.95
444.35	5558.77
444.54	5753.04
444.73	5561.11
444.91	5577.50
445.10	5530.69
445.28	5682.82
445.47	5685.16
445.65	5664.10
445.84	5771.76
446.02	5570.48
446.21	5526.00
446.39	5708.57
446.58	5912.19
446.77	5664.10
446.95	5572.82
447.14	5549.41
447.32	5666.44
447.51	5783.46
447.69	5858.36
447.88	5795.17
448.06	5914.53
448.25	5921.56
448.43	5797.51
448.62	5811.55
448.80	5837.30
448.99	5895.81
449.17	6061.99
449.36	5860.70
449.54	5916.87
449.73	5856.02
449.91	6101.78
450.10	6094.76
450.28	6160.29
450.46	6127.52
450.65	6043.26
450.83	6277.32
451.02	6167.31
451.20	6312.42
451.39	6218.80
451.57	5980.07
451.76	6080.71
451.94	6099.44
452.13	6167.31
452.31	6181.35
452.49	6272.64
452.68	6415.41
452.86	6214.12
453.05	6331.15
453.23	6384.98
453.42	6310.08
453.60	6249.23
453.78	6300.72
453.97	6251.57
454.15	6120.50
454.34	6305.40
454.52	6480.94
454.70	6633.08
454.89	6672.87
455.07	6637.76
455.26	6595.63
455.44	6628.40
455.62	6607.33
455.81	6693.93
455.99	6483.28
456.17	6689.25
456.36	6860.11
456.54	6712.66
456.73	6825.00
456.91	6857.77
457.09	7047.35
457.28	6995.86
457.46	6944.37
457.64	7101.19
457.83	6956.07
458.01	7007.56
458.19	7197.15
458.38	7075.44
458.56	7213.53
458.74	7176.08
458.93	6988.84
459.11	7218.21
459.29	7255.66
459.48	7201.83
459.66	7255.66
459.84	7344.60
460.03	7346.94
460.21	7426.52
460.39	7293.11
460.57	7309.49
460.76	7426.52
460.94	7592.70
461.12	7503.76
461.31	7566.95
461.49	7470.99
461.67	7384.39
461.85	7817.39
462.04	7449.93
462.22	7892.29
462.40	7660.57
462.59	7639.51
462.77	7747.17
462.95	7777.60
463.13	7798.66
463.32	7887.61
463.50	7871.22
463.68	7925.05
463.86	7763.56
464.05	7784.62
464.23	7911.01
464.41	7901.65
464.59	7658.23
464.78	8021.02
464.96	8016.33
465.14	7686.32
465.32	8238.69
465.50	8163.79
465.69	8182.51
465.87	8170.81
466.05	8252.73
466.23	8320.60
466.41	8161.45
466.60	8341.67
466.78	8215.28
466.96	8058.46
467.14	8241.03
467.32	8353.37
467.51	8407.20
467.69	8177.83
467.87	8219.96
468.05	8400.18
468.23	8414.23
468.41	8170.81
468.60	8554.66
468.78	8636.58
468.96	8175.49
469.14	8313.58
469.32	8624.87
469.50	8409.54
469.69	8540.61
469.87	8821.48
470.05	8575.72
470.23	8758.28
470.41	8819.14
470.59	8755.94
470.77	8678.71
470.95	8685.73
471.14	8959.57
471.32	8849.57
471.50	9018.08
471.68	8992.34
471.86	9085.96
472.04	9228.73
472.22	9392.57
472.40	9256.82
472.58	9123.41
472.77	9167.88
472.95	9275.54
473.13	9774.08
473.31	9310.65
473.49	9486.19
473.67	9277.88
473.85	9238.09
474.03	9680.46
474.21	9537.68
474.39	9699.18
474.57	9839.61
474.75	9755.35
474.93	10050.26
475.12	9991.75
475.30	10113.45
475.48	10008.13
475.66	10361.55
475.84	10073.67
476.02	10373.25
476.20	10211.76
476.38	10377.94
476.56	10654.12
476.74	10518.37
476.92	10363.89
477.10	10548.79
477.28	10408.36
477.46	10492.62
477.64	10616.67
477.82	11009.88
478.00	10930.30
478.18	11052.01
478.36	11063.71
478.54	11447.56
478.72	11243.93
478.90	11517.78
479.08	11463.94
479.26	11520.12
479.44	11716.72
479.62	11761.19
479.80	11988.22
479.98	12098.23
480.16	12173.13
480.34	12067.80
480.52	11943.75
480.70	12248.02
480.88	12292.49
481.06	12156.74
481.24	12362.71
481.41	12463.35
481.59	12545.27
481.77	12727.83
481.95	12753.58
482.13	12975.93
482.31	12791.03
482.49	13282.54
482.67	13224.03
482.85	13626.60
483.03	13708.52
483.21	13422.97
483.39	13668.73
483.57	13724.90
483.74	13797.46
483.92	14003.43
484.10	14024.49
484.28	14160.24
484.46	14387.27
484.64	14537.07
484.82	14508.98
485.00	14562.81
485.18	14780.48
485.35	14951.34
485.53	15056.67
485.71	15358.60
485.89	15304.76
486.07	15145.61
486.25	15250.93
486.43	15349.23
486.61	15672.23
486.78	15770.53
486.96	15674.57
487.14	16339.28
487.32	16023.31
487.50	16044.37
487.68	16397.79
487.85	16690.36
488.03	16713.77
488.21	16947.82
488.39	16954.84
488.57	17041.44
488.75	16980.59
488.92	17181.87
489.10	17619.55
489.28	17500.19
489.46	17778.71
489.64	18019.78
489.81	17902.76
489.99	18312.35
490.17	18104.04
490.35	18541.72
490.53	18541.72
490.70	18675.13
490.88	18546.40
491.06	18733.65
491.24	19002.81
491.41	18794.50
491.59	19264.95
491.77	19152.60
491.95	19304.74
492.13	19683.91
492.30	19269.63
492.48	19847.74
492.66	19580.92
492.84	19997.54
493.01	20116.90
493.19	19812.63
493.37	20280.74
493.54	20030.30
493.72	20577.99
493.90	20563.95
494.08	20765.23
494.25	20730.12
494.43	21001.63
494.61	21383.13
494.79	20950.14
494.96	21476.76
495.14	21362.07
495.32	21696.77
495.49	21736.56
495.67	21743.58
495.85	21935.50
496.02	21972.95
496.20	22026.78
496.38	22324.03
496.55	22015.08
496.73	22759.37
496.91	22820.22
497.09	22544.04
497.26	22932.57
497.44	22780.43
497.62	22904.48
497.79	23161.94
497.97	23124.49
498.14	23428.76
498.32	23880.49
498.50	23807.93
498.67	23599.62
498.85	23931.98
499.03	23704.95
499.20	24049.00
499.38	24224.54
499.56	24201.14
499.73	24215.18
499.91	24624.78
500.08	24828.40
500.26	24259.65
500.44	24652.86
500.61	24788.61
500.79	24751.17
500.97	24947.77
501.14	25348.00
501.32	25104.59
501.49	25273.10
501.67	25132.67
501.84	25605.46
502.02	25240.34
502.20	25727.17
502.37	25502.48
502.55	25649.93
502.72	25752.91
502.90	25783.34
503.07	25862.92
503.25	26103.99
503.43	26071.23
503.60	26345.07
503.78	26092.29
503.95	26394.22
504.13	26424.65
504.30	26960.63
504.48	26628.27
504.65	26731.26
504.83	26876.37
505.01	27339.80
505.18	27351.50
505.36	27129.15
505.53	26836.58
505.71	27232.13
505.88	27438.10
506.06	26986.38
506.23	27641.73
506.41	27393.63
506.58	27828.97
506.76	28112.17
506.93	28004.51
507.11	28170.69
507.28	28173.03
507.46	28147.28
507.63	28168.35
507.81	28442.19
507.98	28224.52
508.16	28233.88
508.33	28549.85
508.50	28594.32
508.68	28769.86
508.85	28755.82
509.03	28830.72
509.20	28884.55
509.38	29530.54
509.55	29191.16
509.73	29221.59
509.90	29202.86
510.08	29336.27
510.25	29401.81
510.42	29673.31
510.60	29551.60
510.77	29689.70
510.95	29933.11
511.12	29818.42
511.30	30096.95
511.47	30008.01
511.64	30302.92
511.82	30312.28
511.99	29895.66
512.17	30602.50
512.34	30749.96
512.51	30522.93
512.69	30909.11
512.86	30909.11
513.04	30885.71
513.21	30864.64
513.38	30572.08
513.56	31159.55
513.73	31058.91
513.90	30881.03
514.08	31253.17
514.25	31634.68
514.43	31248.49
514.60	31311.69
514.77	31646.38
514.95	31704.90
515.12	31686.17
515.29	31784.48
515.47	31924.91
515.64	32201.09
515.81	31798.52
515.99	31737.66
516.16	31985.76
516.33	32168.32
516.51	32414.08
516.68	31997.46
516.85	32423.44
517.03	32451.53
517.20	32594.30
517.37	32739.41
517.54	32753.46
517.72	32465.57
517.89	32912.61
518.06	32690.26
518.24	33186.46
518.41	32741.75
518.58	32643.45
518.75	33015.60
518.93	33207.52
519.10	33420.51
519.27	33387.74
519.45	33635.84
519.62	33649.88
519.79	33876.91
519.96	33652.22
520.14	33591.37
520.31	33500.09
520.48	34155.44
520.65	34204.59
520.83	34103.95
521.00	34529.92
521.17	34550.99
521.34	34319.28
521.52	34768.66
521.69	34319.28
521.86	34738.23
522.03	34653.97
522.20	35047.18
522.38	34696.10
522.55	35262.51
522.72	34593.12
522.89	34843.56
523.07	35559.76
523.24	35213.36
523.41	35676.79
523.58	34934.84
523.75	35152.51
523.92	35349.11
524.10	35557.42
524.27	35690.83
524.44	35541.03
524.61	35714.23
524.78	35761.05
524.96	35828.92
525.13	35866.37
525.30	35728.28
525.47	35875.73
525.64	36081.70
525.81	36142.55
525.98	36266.60
526.16	36126.17
526.33	36121.49
526.50	36243.20
526.67	36154.26
526.84	36182.34
527.01	36470.23
527.18	36825.99
527.36	36685.56
527.53	36893.86
527.70	36793.22
527.87	37029.62
528.04	36802.58
528.21	37214.52
528.38	36816.63
528.55	37163.03
528.72	36966.42
528.89	37256.65
529.07	37397.08
529.24	36959.40
529.41	37446.23
529.58	37425.17
529.75	37390.06
529.92	37577.30
530.09	37813.70
530.26	37553.90
530.43	37977.53
530.60	37581.98
530.77	37743.48
530.94	37881.57
531.11	37677.94
531.28	37635.81
531.46	37556.24
531.63	37947.11
531.80	37982.21
531.97	38424.57
532.14	38230.31
532.31	38412.87
532.48	38057.11
532.65	38614.16
532.82	38607.14
532.99	38597.77
533.16	38361.38
533.33	39180.57
533.50	38843.53
533.67	38752.25
533.84	38660.97
534.01	38557.99
534.18	38838.85
534.35	39166.52
534.52	39206.31
534.69	39171.21
534.86	39002.69
535.03	39028.43
535.20	39241.42
535.37	38939.49
535.54	39533.99
535.71	39093.97
535.88	39468.45
536.05	39938.90
536.22	40074.65
536.38	39679.10
536.55	39543.35
536.72	39538.67
536.89	39426.32
537.06	39597.18
537.23	39817.19
537.40	39784.43
537.57	39606.55
537.74	39658.04
537.91	40348.50
538.08	40196.36
538.25	39896.77
538.42	39983.37
538.59	40313.39
538.75	40437.44
538.92	40624.68
539.09	40727.66
539.26	40519.35
539.43	40191.68
539.60	40425.73
539.77	40287.64
539.94	41097.47
540.11	40446.80
540.28	40243.17
540.44	40636.38
540.61	40392.97
540.78	40870.43
540.95	40652.76
541.12	40825.96
541.29	40940.65
541.46	41209.81
541.62	41078.74
541.79	41078.74
541.96	40879.80
542.13	40992.14
542.30	41123.21
542.47	41270.67
542.63	41579.62
542.80	41446.21
542.97	41830.05
543.14	41624.09
543.31	41200.45
543.48	41694.30
543.64	42096.88
543.81	42190.50
543.98	41684.94
544.15	41787.92
544.32	41839.42
544.48	42258.37
544.65	41982.19
544.82	42323.91
544.99	42017.30
545.16	41904.95
545.32	42092.19
545.49	42543.92
545.66	42916.06
545.83	42476.04
546.00	42555.62
546.16	42607.11
546.33	42539.24
546.50	42279.44
546.67	42829.46
546.83	42384.76
547.00	42871.59
547.17	42705.41
547.34	42562.64
547.50	43012.02
547.67	43419.28
547.84	42745.20
548.00	42848.19
548.17	43597.16
548.34	42829.46
548.51	43503.54
548.67	43423.96
548.84	43271.82
549.01	43028.41
549.18	43316.29
549.34	43161.82
549.51	43381.83
549.68	43250.76
549.84	43449.70
550.01	43557.37
550.18	43590.14
550.34	43590.14
550.51	43742.27
550.68	43618.22
550.84	43573.75
551.01	43658.01
551.18	43639.29
551.34	43627.59
551.51	43849.94
551.68	43405.23
551.84	43835.89
552.01	43328.00
552.18	43777.38
552.34	43721.21
552.51	43880.36
552.68	44114.42
552.84	44011.43
553.01	44151.87
553.18	44355.49
553.34	43945.90
553.51	43601.84
553.67	44245.49
553.84	43964.62
554.01	44568.48
554.17	44502.95
554.34	44460.82
554.51	44151.87
554.67	44645.72
554.84	44491.24
555.00	44224.42
555.17	44549.76
555.33	44910.20
555.50	44666.78
555.67	44505.29
555.83	44645.72
556.00	44631.68
556.16	45144.25
556.33	44744.02
556.50	45301.07
556.66	44842.32
556.83	44561.46
556.99	44954.67
557.16	44942.97
557.32	45088.08
557.49	44737.00
557.65	44966.37
557.82	45057.65
557.98	45139.57
558.15	44994.46
558.32	44933.60
558.48	44858.71
558.65	44896.16
558.81	45270.64
558.98	45036.59
559.14	45193.40
559.31	44711.25
559.47	45010.84
559.64	45130.21
559.80	45425.12
559.97	45347.88
560.13	45104.46
560.30	45120.85
560.46	45595.98
560.63	45521.08
560.79	46031.32
560.96	45567.89
561.12	45624.06
561.29	45713.00
561.45	46218.56
561.61	45595.98
561.78	45703.64
561.94	45603.00
562.11	45825.35
562.27	45453.20
562.44	45780.88
562.60	45942.38
562.77	45883.86
562.93	45830.03
563.10	45954.08
563.26	45069.36
563.42	45806.62
563.59	45918.97
563.75	45511.72
563.92	45944.72
564.08	45563.21
564.24	46110.89
564.41	45928.33
564.57	46028.98
564.74	45539.80
564.90	45984.51
565.07	45923.65
565.23	46087.49
565.39	46085.15
565.56	46356.65
565.72	45734.07
565.88	46075.79
566.05	46340.27
566.21	46241.96
566.38	45869.82
566.54	46347.29
566.70	46272.39
566.87	46396.44
567.03	46192.81
567.19	46469.00
567.36	46190.47
567.52	46007.91
567.68	46396.44
567.85	46181.11
568.01	46681.98
568.17	46277.07
568.34	46724.11
568.50	46335.59
568.66	46260.69
568.83	46405.80
568.99	46248.99
569.15	46546.23
569.32	46272.39
569.48	46080.47
569.64	46717.09
569.81	46719.43
569.97	46415.16
570.13	46293.46
570.30	46389.42
570.46	46909.02
570.62	46398.78
570.78	46855.18
570.95	46543.89
571.11	46958.17
571.27	46375.37
571.43	46361.33
571.60	46763.90
571.76	46445.59
571.92	46726.46
572.09	46536.87
572.25	46710.07
572.41	46548.57
572.57	46876.25
572.74	47040.09
572.90	46539.21
573.06	46670.28
573.22	47402.87
573.38	47215.63
573.55	47103.28
573.71	47454.36
573.87	46639.86
574.03	47009.66
574.20	47028.38
574.36	46815.40
574.52	47224.99
574.68	46972.21
574.84	47213.29
575.01	47435.64
575.17	47260.10
575.33	47175.84
575.49	47019.02
575.65	47173.50
575.82	47058.81
575.98	46930.08
576.14	47222.65
576.30	47423.93
576.46	46789.65
576.62	46670.28
576.79	46796.67
576.95	46721.77
577.11	46782.63
577.27	46876.25
577.43	46857.52
577.59	46607.09
577.75	46571.98
577.92	47070.51
578.08	46738.16
578.24	47035.41
578.40	47157.11
578.56	47201.58
578.72	46674.96
578.88	47012.00
579.04	47056.47
579.21	47026.04
579.37	47421.59
579.53	47281.16
579.69	47232.01
579.85	46799.01
580.01	47180.52
580.17	46787.31
580.33	47351.38
580.49	47360.74
580.65	46944.12
580.82	46831.78
580.98	47124.35
581.14	46880.93
581.30	47021.36
581.46	46822.42
581.62	46951.15
581.78	47157.11
581.94	47349.04
582.10	47065.83
582.26	47199.24
582.42	47498.83
582.58	47339.68
582.74	47157.11
582.90	47288.18
583.06	47040.09
583.22	47309.25
583.38	47133.71
583.54	47065.83
583.70	47194.56
583.86	47150.09
584.02	46836.46
584.18	47285.84
584.34	47456.70
584.50	47592.45
584.66	47578.41
584.82	47299.89
584.98	47786.72
585.14	47283.50
585.30	47227.33
585.46	47360.74
585.62	47033.07
585.78	47316.27
585.94	46988.60
586.10	47519.90
586.26	47239.03
586.42	47164.14
586.58	47559.69
586.74	47459.04
586.90	47161.79
587.06	47498.83
587.22	47468.40
587.38	47473.09
587.54	47482.45
587.70	47440.32
587.86	47601.82
588.02	47285.84
588.18	47964.60
588.34	47578.41
588.49	47634.58
588.65	47220.31
588.81	47519.90
588.97	47770.33
589.13	47150.09
589.29	47161.79
589.45	47845.23
589.61	47402.87
589.77	47496.49
589.93	47646.29
590.08	47339.68
590.24	47721.18
590.40	48046.52
590.56	47688.42
590.72	47789.06
590.88	47597.13
591.04	47503.51
591.20	48149.50
591.35	47672.03
591.51	48076.94
591.67	48196.31
591.83	48296.95
591.99	47826.51
592.15	48006.73
592.31	47707.14
592.46	47852.25
592.62	47894.38
592.78	47983.32
592.94	48224.40
593.10	48191.63
593.26	48582.50
593.41	47990.34
593.57	48002.05
593.73	47856.93
593.89	48477.18
594.05	48182.27
594.20	48074.60
594.36	48191.63
594.52	48250.14
594.68	48252.48
594.84	47892.04
594.99	48182.27
595.15	47784.38
595.31	48154.18
595.47	47562.03
595.62	48261.85
595.78	47828.85
595.94	47941.19
596.10	47906.08
596.25	48226.74
596.41	48399.94
596.57	48114.39
596.73	48264.19
596.88	48318.02
597.04	48133.12
597.20	47760.97
597.36	48519.31
597.51	47948.21
597.67	47824.17
597.83	48222.06
597.99	48013.75
598.14	47980.98
598.30	47887.36
598.46	47679.05
598.61	48018.43
598.77	48163.54
598.93	48254.82
599.09	47938.85
599.24	48332.06
599.40	48196.31
599.56	48748.68
599.71	48612.93
599.87	48725.27
600.03	48629.31
600.18	48303.98
600.34	48296.95
600.50	48037.16
600.65	48252.48
600.81	48575.48
600.97	48690.16
601.12	48409.30
601.28	48484.20
601.44	47948.21
601.59	48030.13
601.75	48130.78
601.91	48388.24
602.06	48037.16
602.22	48477.18
602.37	48243.12
602.53	48177.59
602.69	48802.51
602.84	48126.10
603.00	48676.12
603.16	48121.41
603.31	48140.14
603.47	48336.74
603.62	48308.66
603.78	48346.11
603.94	48112.05
604.09	48479.52
604.25	48140.14
604.40	48570.80
604.56	48528.67
604.71	48802.51
604.87	47880.34
605.03	48055.88
605.18	47955.24
605.34	48528.67
605.49	48285.25
605.65	48355.47
605.80	48006.73
605.96	48341.42
606.12	47599.47
606.27	48250.14
606.43	47936.51
606.58	48327.38
606.74	48158.86
606.89	48081.63
607.05	48673.78
607.20	48109.71
607.36	47704.80
607.51	48170.57
607.67	47695.44
607.82	48046.52
607.98	48086.31
608.13	47793.74
608.29	48053.54
608.44	48271.21
608.60	48205.67
608.75	48299.30
608.91	48060.56
609.06	47817.14
609.22	48392.92
609.37	47833.53
609.53	47833.53
609.68	47920.13
609.84	47920.13
609.99	48208.01
610.15	48102.69
610.30	48259.51
610.46	48247.80
610.61	47772.67
610.76	48193.97
610.92	47615.86
611.07	47838.21
611.23	47821.83
611.38	47737.57
611.54	47849.91
611.69	47976.30
611.84	47973.96
612.00	47639.26
612.15	47936.51
612.31	48123.75
612.46	47374.78
612.62	47863.96
612.77	47547.98
612.92	47973.96
613.08	47842.89
613.23	47721.18
613.39	47578.41
613.54	47627.56
613.69	47646.29
613.85	47679.05
614.00	47524.58
614.15	47480.11
614.31	47723.52
614.46	47470.75
614.62	47299.89
614.77	47346.70
614.92	47786.72
615.08	47129.03
615.23	47870.98
615.38	47810.12
615.54	47407.55
615.69	47299.89
615.84	47323.29
616.00	47742.25
616.15	47636.92
616.30	47332.65
616.46	47657.99
616.61	47058.81
616.76	47281.16
616.92	47409.89
617.07	47517.56
617.22	47601.82
617.37	46953.49
617.53	46948.81
617.68	46969.87
617.83	47367.76
617.99	47845.23
618.14	47342.02
618.29	47192.22
618.45	46932.42
618.60	47044.77
618.75	46878.59
618.90	46902.00
619.06	46930.08
619.21	47182.86
619.36	47316.27
619.51	46827.10
619.67	46749.86
619.82	46408.14
619.97	46981.57
620.12	46672.62
620.28	46672.62
620.43	47241.37
620.58	46705.39
620.73	47192.22
620.89	47215.63
621.04	46941.78
621.19	47157.11
621.34	46897.31
621.49	46939.44
621.65	46988.60
621.80	46770.93
621.95	46656.24
622.10	46600.07
622.25	46794.33
622.41	46621.13
622.56	46459.63
622.71	46813.05
622.86	46899.65
623.01	46738.16
623.16	46721.77
623.32	46347.29
623.47	46890.29
623.62	46541.55
623.77	46422.19
623.92	46686.67
624.07	46621.13
624.23	46553.26
624.38	46656.24
624.53	46256.01
624.68	46185.79
624.83	46574.32
624.98	46497.08
625.13	46183.45
625.29	46188.13
625.44	46258.35
625.59	46508.79
625.74	45949.40
625.89	46218.56
626.04	46260.69
626.19	46131.96
626.34	46199.83
626.49	45862.80
626.65	45895.56
626.80	46150.68
626.95	45425.12
627.10	45977.48
627.25	46153.02
627.40	45961.10
627.55	46085.15
627.70	45745.77
627.85	46071.10
628.00	46068.76
628.15	45890.88
628.30	45200.43
628.45	45504.70
628.60	45457.88
628.76	45635.77
628.91	45823.01
629.06	45216.81
629.21	45504.70
629.36	45282.34
629.51	45481.29
629.66	46054.72
629.81	45448.52
629.96	45406.39
630.11	45390.01
630.26	44957.01
630.41	45375.97
630.56	45504.70
630.71	45331.50
630.86	45336.18
631.01	45216.81
631.16	45029.57
631.31	44947.65
631.46	45048.29
631.61	45708.32
631.76	45095.10
631.91	45703.64
632.06	45558.53
632.21	45291.71
632.36	45361.92
632.51	44964.03
632.66	45069.36
632.81	44849.35
632.96	45251.92
633.10	45221.49
633.25	45413.41
633.40	44477.20
633.55	44765.09
633.70	44814.24
633.85	44949.99
634.00	44690.19
634.15	44313.36
634.30	44865.73
634.45	44886.79
634.60	44786.15
634.75	44959.35
634.90	44662.10
635.05	45074.04
635.19	45123.19
635.34	45088.08
635.49	44744.02
635.64	44414.01
635.79	44942.97
635.94	44938.29
636.09	45324.47
636.24	44289.96
636.39	44987.44
636.53	44540.39
636.68	44355.49
636.83	44034.84
636.98	44516.99
637.13	44023.14
637.28	44229.10
637.43	44271.23
637.57	44203.36
637.72	44114.42
637.87	44065.27
638.02	44509.97
638.17	44172.93
638.32	43887.39
638.46	44018.46
638.61	43824.19
638.76	43702.48
638.91	44409.32
639.06	44203.36
639.20	43426.30
639.35	43480.13
639.50	43274.16
639.65	43753.97
639.80	44451.45
639.94	44161.23
640.09	43835.89
640.24	44423.37
640.39	43477.79
640.54	43557.37
640.68	43819.51
640.83	43873.34
640.98	43714.19
641.13	43676.74
641.27	43873.34
641.42	43854.62
641.57	43351.40
641.72	43606.52
641.86	43241.40
642.01	42997.98
642.16	43199.27
642.31	42876.27
642.45	43456.73
642.60	43276.51
642.75	43442.68
642.90	43189.91
643.04	43269.48
643.19	43641.63
643.34	42848.19
643.48	42852.87
643.63	42829.46
643.78	43330.34
643.93	43335.02
644.07	43100.97
644.22	42916.06
644.37	43206.29
644.51	43234.38
644.66	43248.42
644.81	43351.40
644.95	43292.89
645.10	43133.73
645.25	43236.72
645.39	42890.32
645.54	42815.42
645.69	42951.17
645.83	42667.97
645.98	42581.37
646.13	42569.66
646.27	42621.16
646.42	42375.40
646.57	42693.71
646.71	42649.24
646.86	42909.04
647.00	42700.73
647.15	42923.08
647.30	42909.04
647.44	42560.30
647.59	42564.98
647.74	42342.63
647.88	42714.78
648.03	42735.84
648.17	42815.42
648.32	42794.36
648.47	42815.42
648.61	42143.69
648.76	42195.18
648.90	42625.84
649.05	42263.05
649.20	42693.71
649.34	42579.03
649.49	42368.38
649.63	42419.87
649.78	42300.50
649.92	42913.72
650.07	42866.91
650.21	42459.66
650.36	42852.87
650.51	42270.08
650.65	42038.36
650.80	42529.87
650.94	42497.11
651.09	42405.83
651.23	41801.97
651.38	42094.53
651.52	41621.75
651.67	41729.41
651.81	42134.32
651.96	41474.29
652.10	41778.56
652.25	41656.85
652.39	41715.37
652.54	42293.48
652.68	42082.83
652.83	41794.95
652.97	41844.10
653.12	41813.67
653.26	41914.31
653.41	41706.01
653.55	41619.41
653.70	41680.26
653.84	41766.86
653.99	41799.63
654.13	41553.87
654.27	41598.34
654.42	41727.07
654.56	41219.17
654.71	41235.56
654.85	41448.55
655.00	41682.60
655.14	41844.10
655.29	41521.10
655.43	41289.39
655.57	41509.40
655.72	41256.62
655.86	41303.43
656.01	40980.44
656.15	41291.73
656.30	41088.10
656.44	41022.57
656.58	41223.86
656.73	41153.64
656.87	40678.51
657.01	40832.99
657.16	40964.06
657.30	40783.83
657.45	40980.44
657.59	40699.58
657.73	40685.53
657.88	40992.14
658.02	40505.31
658.16	41209.81
658.31	40905.54
658.45	41074.06
658.60	40519.35
658.74	40549.78
658.88	40769.79
659.03	40547.44
659.17	40559.14
659.31	40268.92
659.46	40355.52
659.60	40362.54
659.74	40084.01
659.89	39840.60
660.03	40278.28
660.17	40189.34
660.32	39800.81
660.46	39786.77
660.60	39842.94
660.74	39732.93
660.89	40219.77
661.03	39461.43
661.17	39330.36
661.32	39739.96
661.46	39718.89
661.60	39779.74
661.74	39608.89
661.89	39323.34
662.03	39814.85
662.17	39648.68
662.31	39786.77
662.46	39194.61
662.60	39323.34
662.74	39203.97
662.88	39145.46
663.03	39194.61
663.17	38359.04
663.31	38960.56
663.45	39159.50
663.60	39351.43
663.74	39119.71
663.88	38820.13
664.02	38838.85
664.17	39122.05
664.31	38373.08
664.45	38593.09
664.59	38684.37
664.73	38391.81
664.88	38820.13
665.02	38499.47
665.16	38209.25
665.30	38277.12
665.44	38387.13
665.59	37982.21
665.73	38033.71
665.87	37549.21
666.01	38199.88
666.15	37881.57
666.29	38099.24
666.44	38291.16
666.58	37741.14
666.72	37638.15
666.86	38319.25
667.00	37649.86
667.14	37729.44
667.28	37638.15
667.43	37710.71
667.57	37504.74
667.71	37652.20
667.85	37486.02
667.99	37322.18
668.13	37174.73
668.27	37081.11
668.41	37298.78
668.56	36856.42
668.70	36680.88
668.84	36926.63
668.98	36620.02
669.12	36753.43
669.26	37177.07
669.40	36774.50
669.54	36442.14
669.68	36694.92
669.82	36385.97
669.96	36409.37
670.10	36205.75
670.25	36144.89
670.39	36119.15
670.53	36613.00
670.67	36271.28
670.81	36407.03
670.95	35732.96
671.09	35866.37
671.23	35646.36
671.37	36055.95
671.51	35735.30
671.65	35707.21
671.79	35653.38
671.93	35679.13
672.07	35754.02
672.21	35981.06
672.35	35473.16
672.49	35096.33
672.63	35381.88
672.77	34881.00
672.91	35257.83
673.05	34888.03
673.19	34951.22
673.33	34747.59
673.47	34815.47
673.61	34668.02
673.75	34806.11
673.89	34438.64
674.03	34721.85
674.17	34389.49
674.31	34363.75
674.45	33598.39
674.59	34057.14
674.73	34370.77
674.87	33717.76
675.01	33500.09
675.15	33392.42
675.29	33736.48
675.43	33223.90
675.56	33743.50
675.70	33474.34
675.84	33523.49
675.98	32343.86
676.12	33067.09
676.26	33235.61
676.40	32500.68
676.54	32856.44
676.68	32669.20
676.82	32294.71
676.96	32554.51
677.10	32474.93
677.23	32285.35
677.37	32381.31
677.51	32285.35
677.65	32219.81
677.79	32072.36
677.93	31917.89
678.07	32271.31
678.21	31758.73
678.34	31789.16
678.48	31447.44
678.62	31232.11
678.76	31337.43
678.90	31225.09
679.04	31117.42
679.18	31323.39
679.31	30600.16
679.45	30810.81
679.59	30717.19
679.73	31325.73
679.87	30476.12
680.00	30639.95
680.14	30291.21
680.28	30356.75
680.42	30216.32
680.56	29919.07
680.70	30085.25
680.83	30260.79
680.97	30146.10
681.11	29848.85
681.25	29064.77
681.39	29553.94
681.52	29308.19
681.66	29284.78
681.80	29029.66
681.94	28802.63
682.07	28816.68
682.21	28767.52
682.35	28673.90
682.49	28725.39
682.62	28816.68
682.76	28353.25
682.90	28098.13
683.04	28631.77
683.17	28341.55
683.31	28287.71
683.45	28231.54
683.59	27747.05
683.72	27714.28
683.86	27953.02
684.00	27793.86
684.13	28032.60
684.27	27309.37
684.41	27594.92
684.55	27337.46
684.68	27246.18
684.82	26412.95
684.96	26960.63
685.09	26810.84
685.23	27168.94
685.37	26995.74
685.50	26899.78
685.64	26852.97
685.78	26382.52
685.91	26443.37
686.05	26122.72
686.19	25940.16
686.32	25916.75
686.46	25790.36
686.60	25462.69
686.73	25989.31
686.87	26199.96
687.01	25888.67
687.14	25465.03
687.28	25495.46
687.42	25495.46
687.55	25186.50
687.69	25099.90
687.82	24858.83
687.96	25097.56
688.10	24809.68
688.23	24943.09
688.37	25123.31
688.50	25055.43
688.64	24978.20
688.78	24327.53
688.91	24411.79
689.05	24240.93
689.18	23791.55
689.32	23522.38
689.46	23655.79
689.59	23784.52
689.73	24081.77
689.86	23960.06
690.00	23833.68
690.13	23381.95
690.27	23239.18
690.41	23616.01
690.54	23110.45
690.68	23140.88
690.81	22953.63
690.95	22546.38
691.08	23002.78
691.22	22286.58
691.35	22677.45
691.49	22518.29
691.62	22803.84
691.76	22567.45
691.89	22195.30
692.03	22384.88
692.16	21642.93
692.30	22104.02
692.43	21729.53
692.57	21675.70
692.70	21851.24
692.84	21546.97
692.97	21497.82
693.11	21413.56
693.24	21315.26
693.38	21090.57
693.51	21018.01
693.65	20980.56
693.78	21092.91
693.92	20711.40
694.05	20819.07
694.19	20732.47
694.32	20898.64
694.45	20961.84
694.59	20716.08
694.72	20589.69
694.86	20271.38
694.99	19990.52
695.13	19768.16
695.26	19461.55
695.39	19700.29
695.53	19611.35
695.66	19728.38
695.80	19564.54
695.93	19578.58
696.07	19239.20
696.20	19264.95
696.33	18927.91
696.47	18862.38
696.60	19150.26
696.73	19133.88
696.87	18911.53
697.00	19194.73
697.14	18511.30
697.27	18672.79
697.40	18808.54
697.54	18590.88
697.67	18771.10
697.80	18513.64
697.94	18293.63
698.07	18036.17
698.21	18010.42
698.34	18045.53
698.47	17806.80
698.61	17767.01
698.74	17584.44
698.87	17598.49
699.01	17298.90
699.14	17193.58
699.27	17584.44
699.40	17273.15
699.54	17179.53
699.67	17310.60
699.80	17088.25
699.94	17085.91
700.07	16966.54
700.20	16683.34
700.34	16807.39
700.47	16720.79
700.60	16917.39
700.73	16734.83
700.87	16372.05
701.00	16070.12
701.13	16098.20
701.26	16107.57
701.40	16152.04
701.53	16271.40
701.66	15936.71
701.79	16032.67
701.93	15632.44
702.06	15555.20
702.19	15295.40
702.32	15489.67
702.46	15676.91
702.59	15454.56
702.72	15520.09
702.85	15499.03
702.99	15566.90
703.12	15040.28
703.25	15164.33
703.38	15115.18
703.51	15220.50
703.65	14934.96
703.78	14768.78
703.91	14604.94
704.04	14312.38
704.17	14569.83
704.31	14537.07
704.44	14586.22
704.57	14417.70
704.70	14115.77
704.83	14221.10
704.96	14104.07
705.10	14118.11
705.23	14183.65
>>>>>End Processed Spectral Data<<<<<
