SpectraSuite Data File
++++++++++++++++++++++++++++++++++++
Date: Fri Oct 25 11:34:46 EDT 2013
User: price-jones
Dark Spectrum Present: No
Reference Spectrum Present: No
Number of Sampled Component Spectra: 1
Spectrometers: USB2+H05261
Integration Time (usec): 100000 (USB2+H05261)
Spectra Averaged: 1 (USB2+H05261)
Boxcar Smoothing: 0 (USB2+H05261)
Correct for Electrical Dark: No (USB2+H05261)
Strobe/Lamp Enabled: No (USB2+H05261)
Correct for Detector Non-linearity: No (USB2+H05261)
Correct for Stray Light: No (USB2+H05261)
Number of Pixels in Processed Spectrum: 2048
>>>>>Begin Processed Spectral Data<<<<<
365.73	283.20
365.92	283.20
366.12	283.20
366.32	191.92
366.52	163.84
366.72	196.60
366.91	166.18
367.11	161.50
367.31	196.60
367.51	184.90
367.70	205.97
367.90	184.90
368.10	264.48
368.30	205.97
368.49	201.29
368.69	173.20
368.89	217.67
369.09	229.37
369.28	255.12
369.48	187.24
369.68	224.69
369.87	203.63
370.07	248.10
370.27	229.37
370.47	308.95
370.66	468.11
370.86	531.30
371.06	519.60
371.25	496.19
371.45	538.32
371.65	500.87
371.84	521.94
372.04	566.41
372.24	571.09
372.44	514.92
372.63	610.88
372.83	561.73
373.03	571.09
373.22	582.79
373.42	615.56
373.62	702.16
373.81	587.47
374.01	589.82
374.21	667.05
374.40	650.67
374.60	638.97
374.79	573.43
374.99	566.41
375.19	636.63
375.38	617.90
375.58	638.97
375.78	643.65
375.97	671.73
376.17	711.52
376.37	617.90
376.56	674.07
376.76	748.97
376.95	681.10
377.15	662.37
377.35	781.74
377.54	657.69
377.74	585.13
377.93	681.10
378.13	643.65
378.33	704.50
378.52	685.78
378.72	767.70
378.91	702.16
379.11	662.37
379.31	678.76
379.50	711.52
379.70	690.46
379.89	718.54
380.09	641.31
380.28	711.52
380.48	690.46
380.68	692.80
380.87	741.95
381.07	711.52
381.26	751.31
381.46	777.06
381.65	727.91
381.85	763.01
382.04	716.20
382.24	692.80
382.43	779.40
382.63	758.33
382.83	744.29
383.02	788.76
383.22	842.59
383.41	765.36
383.61	828.55
383.80	767.70
384.00	753.65
384.19	819.19
384.39	807.48
384.58	741.95
384.78	767.70
384.97	821.53
385.17	847.27
385.36	744.29
385.56	791.10
385.75	755.99
385.95	830.89
386.14	828.55
386.34	807.48
386.53	802.80
386.72	828.55
386.92	882.38
387.11	882.38
387.31	798.12
387.50	856.64
387.70	896.43
387.89	851.96
388.09	882.38
388.28	840.25
388.48	842.59
388.67	863.66
388.86	844.93
389.06	854.30
389.25	917.49
389.45	931.53
389.64	887.06
389.84	856.64
390.03	887.06
390.22	945.58
390.42	947.92
390.61	943.24
390.81	980.68
391.00	933.87
391.19	1004.09
391.39	924.51
391.58	994.73
391.78	910.47
391.97	1022.81
392.16	1055.58
392.36	1041.54
392.55	1048.56
392.75	1076.65
392.94	983.02
393.13	1011.11
393.33	961.96
393.52	1081.33
393.71	1083.67
393.91	1020.47
394.10	1004.09
394.29	1090.69
394.49	1083.67
394.68	1067.28
394.88	1226.44
395.07	1167.93
395.26	1029.84
395.46	1100.05
395.65	1181.97
395.84	1081.33
396.04	1214.74
396.23	1086.01
396.42	1137.50
396.62	1205.38
396.81	1196.01
397.00	1121.12
397.19	1111.75
397.39	1200.69
397.58	1170.27
397.77	1210.06
397.97	1167.93
398.16	1280.27
398.35	1149.20
398.55	1280.27
398.74	1256.87
398.93	1289.64
399.12	1179.63
399.32	1219.42
399.51	1263.89
399.70	1327.08
399.90	1210.06
400.09	1317.72
400.28	1432.41
400.47	1359.85
400.67	1409.00
400.86	1291.98
401.05	1282.61
401.24	1299.00
401.44	1366.87
401.63	1364.53
401.82	1350.49
402.01	1444.11
402.21	1299.00
402.40	1423.05
402.59	1474.54
402.78	1376.24
402.97	1460.49
403.17	1378.58
403.36	1511.99
403.55	1593.90
403.74	1614.97
403.93	1516.67
404.13	1497.94
404.32	1479.22
404.51	1519.01
404.70	1511.99
404.89	1617.31
405.09	1575.18
405.28	1570.50
405.47	1481.56
405.66	1629.01
405.85	1636.03
406.05	1640.72
406.24	1682.85
406.43	1636.03
406.62	1694.55
406.81	1818.60
407.00	1692.21
407.20	1659.44
407.39	1664.12
407.58	1748.38
407.77	1734.34
407.96	1811.57
408.15	1839.66
408.34	1818.60
408.54	1844.34
408.73	1753.06
408.92	1872.43
409.11	1963.71
409.30	1909.88
409.49	1944.99
409.68	1844.34
409.87	1916.90
410.07	1944.99
410.26	1937.96
410.45	1916.90
410.64	2022.22
410.83	2062.01
411.02	1912.22
411.21	2207.13
411.40	2057.33
411.59	2104.14
411.78	2001.16
411.98	2225.85
412.17	2162.66
412.36	2169.68
412.55	2054.99
412.74	2230.53
412.93	2251.60
413.12	2223.51
413.31	2284.36
413.50	2345.22
413.69	2333.51
413.88	2420.11
414.07	2331.17
414.26	2284.36
414.45	2415.43
414.64	2431.82
414.83	2380.32
415.02	2525.44
415.22	2363.94
415.41	2579.27
415.60	2483.31
415.79	2406.07
415.98	2656.51
416.17	2602.68
416.36	2548.84
416.55	2654.17
416.74	2684.59
416.93	2621.40
417.12	2628.42
417.31	2757.15
417.50	2923.33
417.69	2888.22
417.88	2708.00
418.07	2796.94
418.26	2843.75
418.45	2843.75
418.64	2986.52
418.83	2750.13
419.02	2928.01
419.21	2888.22
419.39	3014.61
419.58	2974.82
419.77	2942.05
419.96	2953.76
420.15	2995.89
420.34	3089.51
420.53	2949.08
420.72	3063.76
420.91	2909.29
421.10	3049.72
421.29	3148.02
421.48	3005.25
421.67	3169.09
421.86	3091.85
422.05	3075.46
422.24	3199.51
422.43	3260.37
422.61	3187.81
422.80	3248.66
422.99	3152.70
423.18	3229.94
423.37	3276.75
423.56	3138.66
423.75	3323.56
423.94	3080.14
424.13	2986.52
424.32	3021.63
424.50	3309.52
424.69	3419.52
424.88	3274.41
425.07	3129.30
425.26	3288.45
425.45	3251.00
425.64	3185.47
425.83	3192.49
426.01	3222.92
426.20	3267.39
426.39	3253.34
426.58	3211.22
426.77	3286.11
426.96	3410.16
427.15	3243.98
427.33	3330.58
427.52	3370.37
427.71	3482.72
427.90	3454.63
428.09	3431.23
428.28	3356.33
428.46	3496.76
428.65	3520.17
428.84	3569.32
429.03	3585.70
429.22	3574.00
429.40	3625.49
429.59	3578.68
429.78	3520.17
429.97	3452.29
430.16	3548.25
430.34	3632.51
430.53	3700.39
430.72	3648.90
430.91	3700.39
431.10	3791.67
431.28	3705.07
431.47	3927.42
431.66	3765.92
431.85	3679.32
432.03	3754.22
432.22	3861.88
432.41	3786.99
432.60	3913.38
432.79	3850.18
432.97	3878.27
433.16	3978.91
433.35	3904.01
433.54	3861.88
433.72	3957.85
433.91	4138.07
434.10	4039.76
434.28	3990.61
434.47	4025.72
434.66	3964.87
434.85	4161.47
435.03	4037.42
435.22	4175.52
435.41	4210.62
435.59	4016.36
435.78	4182.54
435.97	4334.67
436.16	4173.18
436.34	4212.96
436.53	4065.51
436.72	4531.28
436.90	4262.12
437.09	4315.95
437.28	4154.45
437.46	4278.50
437.65	4315.95
437.84	4278.50
438.02	4428.29
438.21	4332.33
438.40	4255.09
438.58	4503.19
438.77	4554.68
438.96	4561.70
439.14	4592.13
439.33	4617.88
439.52	4734.90
439.70	4732.56
439.89	4870.65
440.08	4681.07
440.26	4870.65
440.45	4706.82
440.63	4877.68
440.82	4966.62
441.01	4842.57
441.19	4765.33
441.38	5015.77
441.57	4830.87
441.75	5029.81
441.94	5217.05
442.12	5118.75
442.31	5064.92
442.50	5146.84
442.68	5224.08
442.87	5193.65
443.05	5109.39
443.24	5366.85
443.43	5156.20
443.61	5137.48
443.80	5261.52
443.98	5249.82
444.17	5109.39
444.35	5219.39
444.54	5329.40
444.73	5294.29
444.91	5397.28
445.10	5401.96
445.28	5305.99
445.47	5245.14
445.65	5242.80
445.84	5387.91
446.02	5352.81
446.21	5394.93
446.39	5240.46
446.58	5493.24
446.77	5495.58
446.95	5413.66
447.14	5378.55
447.32	5448.77
447.51	5481.53
447.69	5350.46
447.88	5488.56
448.06	5586.86
448.25	5547.07
448.43	5530.69
448.62	5469.83
448.80	5385.57
448.99	5614.95
449.17	5598.56
449.36	5493.24
449.54	5713.25
449.73	5612.60
449.91	5795.17
450.10	5825.59
450.28	5900.49
450.46	5813.89
450.65	5764.74
450.83	5867.72
451.02	5879.43
451.20	5930.92
451.39	5977.73
451.57	5797.51
451.76	5724.95
451.94	5767.08
452.13	5984.75
452.31	5935.60
452.49	5895.81
452.68	6136.88
452.86	5930.92
453.05	6064.33
453.23	6204.76
453.42	5963.68
453.60	5956.66
453.78	6148.59
453.97	6043.26
454.15	6120.50
454.34	5895.81
454.52	6176.67
454.70	6223.48
454.89	6251.57
455.07	6169.65
455.26	6408.39
455.44	6361.58
455.62	6436.47
455.81	6321.79
455.99	6326.47
456.17	6171.99
456.36	6450.52
456.54	6438.81
456.73	6487.96
456.91	6590.95
457.09	6715.00
457.28	6768.83
457.46	6649.46
457.64	6647.12
457.83	6691.59
458.01	6607.33
458.19	6850.75
458.38	6810.96
458.56	6778.19
458.74	6707.98
458.93	6796.92
459.11	6782.87
459.29	6834.36
459.48	6832.02
459.66	6883.52
459.84	6899.90
460.03	6988.84
460.21	6993.52
460.39	6937.35
460.57	7091.82
460.76	7117.57
460.94	7054.37
461.12	7152.68
461.31	7140.97
461.49	7023.95
461.67	6939.69
461.85	7328.22
462.04	7187.79
462.22	7449.93
462.40	7360.98
462.59	7225.23
462.77	7346.94
462.95	7337.58
463.13	7229.91
463.32	7269.70
463.50	7389.07
463.68	7510.78
463.86	7578.65
464.05	7445.24
464.23	7438.22
464.41	7428.86
464.59	7604.40
464.78	7569.29
464.96	7595.04
465.14	7382.05
465.32	7578.65
465.50	7583.34
465.69	7836.11
465.87	7714.41
466.05	7513.12
466.23	7658.23
466.41	7871.22
466.60	7978.89
466.78	7646.53
466.96	7714.41
467.14	7936.76
467.32	7901.65
467.51	7925.05
467.69	7667.60
467.87	7810.37
468.05	7978.89
468.23	8131.02
468.41	7819.73
468.60	8105.28
468.78	8023.36
468.96	8023.36
469.14	8292.52
469.32	8224.64
469.50	7990.59
469.69	8168.47
469.87	8093.57
470.05	8112.30
470.23	8280.82
470.41	8297.20
470.59	8278.47
470.77	8276.13
470.95	8393.16
471.14	8496.14
471.32	8196.56
471.50	8423.59
471.68	8606.15
471.86	8421.25
472.04	8397.84
472.22	8772.33
472.40	8652.96
472.58	8835.52
472.77	8582.74
472.95	8795.73
473.13	8861.27
473.31	8807.44
473.49	8847.22
473.67	8933.82
473.85	8924.46
474.03	8975.95
474.21	9034.47
474.39	9160.86
474.57	9287.25
474.75	9224.05
474.93	9493.21
475.12	9303.63
475.30	9408.95
475.48	9551.73
475.66	9415.98
475.84	9549.39
476.02	9577.47
476.20	9516.62
476.38	9813.87
476.56	9951.96
476.74	10059.62
476.92	9879.40
477.10	9900.47
477.28	10026.86
477.46	10078.35
477.64	10307.72
477.82	10291.34
478.00	10534.75
478.18	10569.86
478.36	10436.45
478.54	10532.41
478.72	10567.52
478.90	10640.08
479.08	10897.53
479.26	10967.75
479.44	10998.18
479.62	10927.96
479.80	11286.06
479.98	11204.14
480.16	11681.61
480.34	11255.64
480.52	11461.60
480.70	11538.84
480.88	11396.07
481.06	11756.51
481.24	11756.51
481.41	11885.24
481.59	12004.61
481.77	12086.53
481.95	12184.83
482.13	12233.98
482.31	12222.28
482.49	12414.20
482.67	12496.12
482.85	12571.02
483.03	12776.98
483.21	12784.01
483.39	12856.56
483.57	12823.80
483.74	13013.38
483.92	13259.13
484.10	13137.43
484.28	13638.30
484.46	13621.92
484.64	13848.95
484.82	13338.71
485.00	13895.76
485.18	14038.53
485.35	13982.36
485.53	14228.12
485.71	14340.46
485.89	14534.73
486.07	14326.42
486.25	14361.53
486.43	14757.08
486.61	14808.57
486.78	14963.04
486.96	14853.04
487.14	15211.14
487.32	15108.16
487.50	15215.82
487.68	15463.92
487.85	15658.18
488.03	15365.62
488.21	16074.80
488.39	16145.02
488.57	16182.46
488.75	16257.36
488.92	16245.66
489.10	16449.28
489.28	16535.88
489.46	16657.59
489.64	16755.90
489.81	16933.78
489.99	16964.20
490.17	17032.08
490.35	17240.39
490.53	17392.52
490.70	17528.27
490.88	17242.73
491.06	17603.17
491.24	17781.05
491.41	18162.56
491.59	18146.17
491.77	18478.53
491.95	18232.77
492.13	18214.05
492.30	18462.15
492.48	18618.96
492.66	18590.88
492.84	18614.28
493.01	18836.63
493.19	19166.65
493.37	19173.67
493.54	19094.09
493.72	19157.28
493.90	19234.52
494.08	19480.28
494.25	19454.53
494.43	19730.72
494.61	19868.81
494.79	19737.74
494.96	19892.21
495.14	20020.94
495.32	20507.77
495.49	20517.14
495.67	20451.60
495.85	20617.78
496.02	20348.62
496.20	21135.04
496.38	20673.95
496.55	21125.68
496.73	21593.78
496.91	21383.13
497.09	21060.14
497.26	21722.51
497.44	21734.21
497.62	21715.49
497.79	22115.72
497.97	21724.85
498.14	22239.77
498.32	22333.39
498.50	22225.73
498.67	22284.24
498.85	22354.46
499.03	22459.78
499.20	22656.39
499.38	22860.01
499.56	22593.19
499.73	22778.09
499.91	23117.47
500.08	23206.41
500.26	23136.20
500.44	23077.68
500.61	23241.52
500.79	23531.75
500.97	23592.60
501.14	23442.81
501.32	23733.03
501.49	23807.93
501.67	23674.52
501.84	24009.22
502.02	24240.93
502.20	24151.99
502.37	24142.63
502.55	24128.58
502.72	24453.92
502.90	24397.74
503.07	24229.23
503.25	24386.04
503.43	24493.71
503.60	24470.30
503.78	24774.57
503.95	24641.16
504.13	25123.31
504.30	25060.12
504.48	24917.34
504.65	25062.46
504.83	25467.37
505.01	25551.63
505.18	25322.26
505.36	25687.38
505.53	25663.97
505.71	25605.46
505.88	26038.46
506.06	25633.55
506.23	25905.05
506.41	26040.80
506.58	25919.09
506.76	25933.14
506.93	26373.16
507.11	26373.16
507.28	26272.51
507.46	26925.52
507.63	26342.73
507.81	26995.74
507.98	26726.58
508.16	26721.90
508.33	27065.96
508.50	26775.73
508.68	26810.84
508.85	27250.86
509.03	26906.80
509.20	27543.42
509.38	27552.79
509.55	27477.89
509.73	27435.76
509.90	27740.03
510.08	27578.53
510.25	27718.96
510.42	27852.38
510.60	27981.10
510.77	28119.20
510.95	28283.03
511.12	28170.69
511.30	28079.41
511.47	28709.01
511.64	28268.99
511.82	28032.60
511.99	28278.35
512.17	28386.02
512.34	28374.31
512.51	28945.41
512.69	28924.34
512.86	29291.80
513.04	29235.63
513.21	28957.11
513.38	29078.82
513.56	29481.39
513.73	29081.16
513.90	29614.80
514.08	29212.23
514.25	29642.88
514.43	29722.46
514.60	29514.16
514.77	29755.23
514.95	29420.53
515.12	29586.71
515.29	29790.34
515.47	30307.60
515.64	30113.33
515.81	30113.33
515.99	30260.79
516.16	30539.31
516.33	30916.14
516.51	30677.40
516.68	30354.41
516.85	30410.58
517.03	30560.37
517.20	30623.57
517.37	30780.39
517.54	30635.27
517.72	30593.14
517.89	31089.34
518.06	31037.84
518.24	31201.68
518.41	31166.57
518.58	30920.82
518.75	30792.09
518.93	31494.25
519.10	31110.40
519.27	31297.64
519.45	31168.91
519.62	31751.71
519.79	31604.25
519.96	31587.87
520.14	31924.91
520.31	31461.48
520.48	31887.46
520.65	31817.24
520.83	32360.25
521.00	32170.66
521.17	32147.26
521.34	32266.63
521.52	32376.63
521.69	32465.57
521.86	32453.87
522.03	33120.92
522.20	33064.75
522.38	32737.07
522.55	32828.35
522.72	33060.07
522.89	32835.38
523.07	33146.67
523.24	33530.51
523.41	32973.47
523.58	32596.64
523.75	33092.83
523.92	33146.67
524.10	33448.60
524.27	33497.75
524.44	33343.27
524.61	33315.19
524.78	33834.78
524.96	33750.52
525.13	33844.15
525.30	33593.71
525.47	33975.22
525.64	33862.87
525.81	34139.05
525.98	34169.48
526.16	34007.98
526.33	33813.72
526.50	34288.85
526.67	34143.74
526.84	34305.23
527.01	34321.62
527.18	34527.58
527.36	34813.13
527.53	34424.60
527.70	34733.55
527.87	35040.16
528.04	34899.73
528.21	34796.74
528.38	34590.78
528.55	35449.75
528.72	35157.19
528.89	34998.03
529.07	34726.53
529.24	34787.38
529.41	34895.05
529.58	35414.65
529.75	35117.40
529.92	35503.59
530.09	35428.69
530.26	35395.92
530.43	35592.53
530.60	35620.61
530.77	35213.36
530.94	35683.81
531.11	35653.38
531.28	35463.80
531.46	35594.87
531.63	35660.40
531.80	35690.83
531.97	35969.35
532.14	36282.98
532.31	35847.64
532.48	36247.88
532.65	35861.69
532.82	36121.49
532.99	36290.01
533.16	36196.38
533.33	36163.62
533.50	36402.35
533.67	36142.55
533.84	36339.16
534.01	36360.22
534.18	36748.75
534.35	36823.65
534.52	36781.52
534.69	36861.10
534.86	36793.22
535.03	36818.97
535.20	37081.11
535.37	37254.31
535.54	37207.50
535.71	37106.85
535.88	37441.55
536.05	37017.91
536.22	37684.97
536.38	37577.30
536.55	37404.10
536.72	37507.08
536.89	37001.53
537.06	37333.89
537.23	37347.93
537.40	37291.76
537.57	37338.57
537.74	37773.91
537.91	37537.51
538.08	37497.72
538.25	37350.27
538.42	37476.66
538.59	38270.10
538.75	37790.29
538.92	38419.89
539.09	37970.51
539.26	38155.41
539.43	38356.70
539.60	38167.12
539.77	38101.58
539.94	38639.90
540.11	38419.89
540.28	37972.85
540.44	38260.74
540.61	38429.26
540.78	38316.91
540.95	38609.48
541.12	38321.59
541.29	38242.01
541.46	38677.35
541.62	38726.50
541.79	38787.36
541.96	38749.91
542.13	38515.86
542.30	38691.40
542.47	38534.58
542.63	38834.17
542.80	38628.20
542.97	39405.26
543.14	39550.37
543.31	39426.32
543.48	39571.44
543.64	39906.13
543.81	39585.48
543.98	39833.58
544.15	39290.57
544.32	39639.31
544.48	39557.39
544.65	40020.82
544.82	40289.98
544.99	39688.46
545.16	39592.50
545.32	39592.50
545.49	39889.75
545.66	40318.07
545.83	40011.46
546.00	40041.88
546.16	40341.47
546.33	39775.06
546.50	39887.41
546.67	39959.97
546.83	39487.18
547.00	39896.77
547.17	40196.36
547.34	40067.63
547.50	40416.37
547.67	40942.99
547.84	40409.35
548.00	40692.55
548.17	40865.75
548.34	40769.79
548.51	41312.80
548.67	40760.43
548.84	40989.80
549.01	40957.03
549.18	41020.23
549.34	41003.85
549.51	41139.60
549.68	41053.00
549.84	40528.72
550.01	41041.29
550.18	41289.39
550.34	40968.74
550.51	40870.43
550.68	40907.88
550.84	40655.11
551.01	41432.16
551.18	41031.93
551.34	41331.52
551.51	41415.78
551.68	41305.77
551.84	41174.70
552.01	41436.84
552.18	41244.92
552.34	41591.32
552.51	41516.42
552.68	41123.21
552.84	41853.46
553.01	41551.53
553.18	41109.17
553.34	41661.54
553.51	41469.61
553.67	41596.00
553.84	41633.45
554.01	41703.67
554.17	41558.55
554.34	41918.99
554.51	41921.34
554.67	41993.89
554.84	42038.36
555.00	41947.08
555.17	41893.25
555.33	42064.11
555.50	42071.13
555.67	42190.50
555.83	42176.45
556.00	42106.24
556.16	42745.20
556.33	42216.24
556.50	41958.78
556.66	42305.18
556.83	41631.11
556.99	42534.56
557.16	42469.02
557.32	42513.49
557.49	42462.00
557.65	42424.55
557.82	42387.10
557.98	42267.73
558.15	42731.16
558.32	42838.83
558.48	42335.61
558.65	42925.42
558.81	42658.60
558.98	42838.83
559.14	42635.20
559.31	42527.53
559.47	42667.97
559.64	42876.27
559.80	42880.95
559.97	42642.22
560.13	42337.95
560.30	42445.62
560.46	43061.18
560.63	42892.66
560.79	43388.85
560.96	43243.74
561.12	43002.66
561.29	43189.91
561.45	42895.00
561.61	42892.66
561.78	43344.38
561.94	43225.01
562.11	42820.10
562.27	42869.25
562.44	42862.23
562.60	43323.32
562.77	43133.73
562.93	43192.25
563.10	43386.51
563.26	43299.91
563.42	43510.56
563.59	43220.33
563.75	43297.57
563.92	43585.46
564.08	43435.66
564.24	43349.06
564.41	43412.26
564.57	43477.79
564.74	43206.29
564.90	43601.84
565.07	43339.70
565.23	43339.70
565.39	43524.60
565.56	43819.51
565.72	43388.85
565.88	43746.95
566.05	43608.86
566.21	43861.64
566.38	43585.46
566.54	43793.76
566.70	43821.85
566.87	43669.72
567.03	43276.51
567.19	43992.71
567.36	43447.36
567.52	43838.23
567.68	43826.53
567.85	44025.48
568.01	43948.24
568.17	43379.49
568.34	43948.24
568.50	44116.76
568.66	43597.16
568.83	43803.13
568.99	43421.62
569.15	43585.46
569.32	43814.83
569.48	43735.25
569.64	44395.28
569.81	44107.40
569.97	44392.94
570.13	43826.53
570.30	43885.04
570.46	44044.20
570.62	44083.99
570.78	43592.48
570.95	43758.66
571.11	44006.75
571.27	43882.70
571.43	44133.14
571.60	43997.39
571.76	43679.08
571.92	43990.37
572.09	43810.15
572.25	44409.32
572.41	43894.41
572.57	43906.11
572.74	44699.55
572.90	44018.46
573.06	44355.49
573.22	44477.20
573.38	44126.12
573.55	44388.26
573.71	44549.76
573.87	44367.20
574.03	44268.89
574.20	44460.82
574.36	44652.74
574.52	44355.49
574.68	44273.57
574.84	44048.88
575.01	44280.60
575.17	43978.67
575.33	44364.85
575.49	44624.65
575.65	44648.06
575.82	44493.58
575.98	43892.07
576.14	44411.67
576.30	44442.09
576.46	44701.89
576.62	44402.30
576.79	44299.32
576.95	43924.83
577.11	44034.84
577.27	44603.59
577.43	44105.06
577.59	44177.61
577.75	43995.05
577.92	44175.27
578.08	44282.94
578.24	44172.93
578.40	44758.06
578.56	44795.51
578.72	44425.71
578.88	44758.06
579.04	44910.20
579.21	44371.88
579.37	44577.84
579.53	44615.29
579.69	44512.31
579.85	43952.92
580.01	44238.47
580.17	44404.64
580.33	44325.07
580.49	44837.64
580.65	44409.32
580.82	44561.46
580.98	44594.23
581.14	44446.77
581.30	44767.43
581.46	44385.92
581.62	44751.04
581.78	44512.31
581.94	44554.44
582.10	44533.37
582.26	44994.46
582.42	44889.13
582.58	44624.65
582.74	44130.80
582.90	44191.65
583.06	44521.67
583.22	44278.25
583.38	44872.75
583.54	44781.47
583.70	44404.64
583.86	44804.88
584.02	44760.40
584.18	44935.95
584.34	44662.10
584.50	45378.31
584.66	44746.36
584.82	44678.49
584.98	45247.24
585.14	44807.22
585.30	43894.41
585.46	45111.49
585.62	44891.48
585.78	44774.45
585.94	44435.07
586.10	44648.06
586.26	44423.37
586.42	44563.80
586.58	44868.07
586.74	44603.59
586.90	44484.22
587.06	44210.38
587.22	44975.73
587.38	44783.81
587.54	44790.83
587.70	44832.96
587.86	45347.88
588.02	44945.31
588.18	44809.56
588.34	44837.64
588.49	45074.04
588.65	44884.45
588.81	44957.01
588.97	44839.98
589.13	44704.23
589.29	44811.90
589.45	44788.49
589.61	44671.46
589.77	45345.54
589.93	45085.74
590.08	44842.32
590.24	45462.57
590.40	45411.07
590.56	45153.62
590.72	45446.18
590.88	44996.80
591.04	44889.13
591.20	45296.39
591.35	45331.50
591.51	45179.36
591.67	45303.41
591.83	45462.57
591.99	44924.24
592.15	44975.73
592.31	45261.28
592.46	44821.26
592.62	45497.67
592.78	45528.10
592.94	45567.89
593.10	45614.70
593.26	45514.06
593.41	45333.84
593.57	45577.25
593.73	45556.19
593.89	45923.65
594.05	45448.52
594.20	45457.88
594.36	46080.47
594.52	45155.96
594.68	45631.08
594.84	45343.20
594.99	45457.88
595.15	45097.44
595.31	45670.87
595.47	45595.98
595.62	45312.77
595.78	45284.68
595.94	45544.48
596.10	45745.77
596.25	45378.31
596.41	45265.96
596.57	45556.19
596.73	45546.82
596.88	45251.92
597.04	45865.14
597.20	45645.13
597.36	45488.31
597.51	45579.59
597.67	45507.04
597.83	44973.39
597.99	45670.87
598.14	45366.60
598.30	45806.62
598.46	45624.06
598.61	45958.76
598.77	45294.05
598.93	45572.57
599.09	45567.89
599.24	45928.33
599.40	45462.57
599.56	45404.05
599.71	45811.31
599.87	46319.20
600.03	45755.13
600.18	45666.19
600.34	45680.24
600.50	45780.88
600.65	45757.47
600.81	45689.60
600.97	45694.28
601.12	45895.56
601.28	45661.51
601.44	45471.93
601.59	45504.70
601.75	45265.96
601.91	45521.08
602.06	45464.91
602.22	45911.95
602.37	45361.92
602.53	45865.14
602.69	45649.81
602.84	45469.59
603.00	45523.42
603.16	45511.72
603.31	45680.24
603.47	45935.35
603.62	45698.96
603.78	45752.79
603.94	45474.27
604.09	45041.27
604.25	45588.95
604.40	45574.91
604.56	45668.53
604.71	45745.77
604.87	45764.49
605.03	45404.05
605.18	45778.54
605.34	45481.29
605.49	45167.66
605.65	45624.06
605.80	45425.12
605.96	45563.21
606.12	45603.00
606.27	45593.64
606.43	45471.93
606.58	45893.22
606.74	45621.72
606.89	45539.80
607.05	45605.34
607.20	45710.66
607.36	45139.57
607.51	45469.59
607.67	45331.50
607.82	45296.39
607.98	45467.25
608.13	45265.96
608.29	45385.33
608.44	45860.46
608.60	45109.14
608.75	45408.73
608.91	45413.41
609.06	45598.32
609.22	45659.17
609.37	44964.03
609.53	45373.63
609.68	45443.84
609.84	45172.34
609.99	45617.04
610.15	45193.40
610.30	45097.44
610.46	45333.84
610.61	45689.60
610.76	45151.27
610.92	44568.48
611.07	45057.65
611.23	45242.56
611.38	45003.82
611.54	45074.04
611.69	45390.01
611.84	45270.64
612.00	45022.54
612.15	45144.25
612.31	45050.63
612.46	44563.80
612.62	44737.00
612.77	45209.79
612.92	45528.10
613.08	45158.30
613.23	45284.68
613.39	45095.10
613.54	45275.32
613.69	44973.39
613.85	44992.12
614.00	45081.06
614.15	44641.04
614.31	44830.62
614.46	44865.73
614.62	44666.78
614.77	44767.43
614.92	45081.06
615.08	44985.10
615.23	44823.60
615.38	45059.99
615.54	44865.73
615.69	44907.86
615.84	44896.16
616.00	44919.56
616.15	44524.01
616.30	45031.91
616.46	44636.36
616.61	44435.07
616.76	45008.50
616.92	44446.77
617.07	44704.23
617.22	44446.77
617.37	44589.55
617.53	44762.75
617.68	44500.61
617.83	44507.63
617.99	44926.58
618.14	44896.16
618.29	44048.88
618.45	44065.27
618.60	44451.45
618.75	44151.87
618.90	44121.44
619.06	44336.77
619.21	44596.57
619.36	44999.14
619.51	44135.48
619.67	44119.10
619.82	44205.70
619.97	44734.66
620.12	44311.02
620.28	43871.00
620.43	44669.12
620.58	44292.30
620.73	44507.63
620.89	44364.85
621.04	44346.13
621.19	44402.30
621.34	44072.29
621.49	44128.46
621.65	44231.44
621.80	44343.79
621.95	44381.24
622.10	44208.04
622.25	44362.51
622.41	43920.15
622.56	43931.86
622.71	43936.54
622.86	43817.17
623.01	44411.67
623.16	44093.35
623.32	43667.37
623.47	43433.32
623.62	43885.04
623.77	43784.40
623.92	43988.03
624.07	44137.82
624.23	44100.37
624.38	44100.37
624.53	43658.01
624.68	44091.01
624.83	43707.16
624.98	43512.90
625.13	43381.83
625.29	43058.84
625.44	43894.41
625.59	43377.15
625.74	43356.08
625.89	43332.68
626.04	43487.15
626.19	43215.65
626.34	43517.58
626.49	43555.03
626.65	43299.91
626.80	43143.09
626.95	43129.05
627.10	43288.21
627.25	43185.22
627.40	43646.31
627.55	42742.86
627.70	42892.66
627.85	43182.88
628.00	43267.14
628.15	43054.15
628.30	42885.64
628.45	42431.57
628.60	42307.52
628.76	43091.60
628.91	42754.57
629.06	42796.70
629.21	42887.98
629.36	42815.42
629.51	42721.80
629.66	42979.26
629.81	42724.14
629.96	42511.15
630.11	42436.25
630.26	42696.05
630.41	42981.60
630.56	42085.17
630.71	42548.60
630.86	42398.80
631.01	42611.79
631.16	42368.38
631.31	42593.07
631.46	42848.19
631.61	42916.06
631.76	42799.04
631.91	43012.02
632.06	42920.74
632.21	42749.88
632.36	42742.86
632.51	42103.90
632.66	42576.69
632.81	42424.55
632.96	42370.72
633.10	41935.38
633.25	42298.16
633.40	42185.82
633.55	42550.94
633.70	42068.79
633.85	42260.71
634.00	41797.29
634.15	42021.98
634.30	41780.90
634.45	42064.11
634.60	42281.78
634.75	41989.21
634.90	41862.82
635.05	41965.81
635.19	42026.66
635.34	42244.33
635.49	41708.35
635.64	41780.90
635.79	42113.26
635.94	41900.27
636.09	42157.73
636.24	41626.43
636.39	42003.25
636.53	41647.49
636.68	41397.06
636.83	41610.04
636.98	41652.17
637.13	41118.53
637.28	41703.67
637.43	41553.87
637.57	41837.08
637.72	41310.46
637.87	41500.04
638.02	41708.35
638.17	41808.99
638.32	41284.71
638.46	40940.65
638.61	40917.25
638.76	41174.70
638.91	40910.22
639.06	41273.01
639.20	40900.86
639.35	41034.27
639.50	41134.92
639.65	41261.30
639.80	41226.20
639.94	41546.85
640.09	41088.10
640.24	41221.52
640.39	40650.42
640.54	40666.81
640.68	41682.60
640.83	41050.66
640.98	41127.89
641.13	40507.65
641.27	41263.64
641.42	40931.29
641.57	40767.45
641.72	40992.14
641.86	40786.18
642.01	40722.98
642.16	40603.61
642.31	39966.99
642.45	40531.06
642.60	40224.45
642.75	40509.99
642.90	40734.68
643.04	40926.61
643.19	40680.85
643.34	40774.47
643.48	40252.53
643.63	40423.39
643.78	40610.64
643.93	40741.71
644.07	40692.55
644.22	40781.49
644.37	40776.81
644.51	40816.60
644.66	40545.10
644.81	40044.23
644.95	40350.84
645.10	40418.71
645.25	40374.24
645.39	39828.90
645.54	40289.98
645.69	40135.51
645.83	39814.85
645.98	39924.86
646.13	39524.63
646.27	40135.51
646.42	39739.96
646.57	40060.61
646.71	40184.66
646.86	40020.82
647.00	40201.04
647.15	40273.60
647.30	39868.69
647.44	39658.04
647.59	39915.50
647.74	40025.50
647.88	39983.37
648.03	40205.72
648.17	40074.65
648.32	40102.74
648.47	39938.90
648.61	39871.03
648.76	39665.06
648.90	39690.80
649.05	39859.32
649.20	39772.72
649.34	39833.58
649.49	39978.69
649.63	40140.19
649.78	39442.71
649.92	39573.78
650.07	40442.12
650.21	39854.64
650.36	39344.41
650.51	39524.63
650.65	39915.50
650.80	39428.66
650.94	39735.27
651.09	39690.80
651.23	39093.97
651.38	39276.53
651.52	39264.83
651.67	39367.81
651.81	39634.63
651.96	39302.28
652.10	38836.51
652.25	39655.70
652.39	39213.34
652.54	39234.40
652.68	39072.90
652.83	38960.56
652.97	38972.26
653.12	39208.65
653.26	39014.39
653.41	38794.38
653.55	39180.57
653.70	39098.65
653.84	39009.71
653.99	39103.33
654.13	38873.96
654.27	38972.26
654.42	38829.49
654.56	38806.08
654.71	38981.62
654.85	38590.75
655.00	38653.95
655.14	38665.65
655.29	39054.18
655.43	39311.64
655.57	38967.58
655.72	38120.31
655.86	38536.92
656.01	38675.01
656.15	38298.19
656.30	38368.40
656.44	39007.37
656.58	38436.28
656.73	38520.54
656.87	38354.36
657.01	38476.07
657.16	37895.61
657.30	38419.89
657.45	38267.76
657.59	38359.04
657.73	38043.07
657.88	38113.28
658.02	38534.58
658.16	38483.09
658.31	37935.40
658.45	37933.06
658.60	38050.09
658.74	38089.88
658.88	37834.76
659.03	38169.46
659.17	37565.60
659.31	37827.74
659.46	37797.31
659.60	37879.23
659.74	37745.82
659.89	37434.53
660.03	37053.02
660.17	37589.00
660.32	37462.61
660.46	37869.87
660.60	36973.44
660.74	37581.98
660.89	37462.61
661.03	37467.30
661.17	36872.80
661.32	37071.75
661.46	37558.58
661.60	36931.31
661.74	37034.30
661.89	36858.76
662.03	36858.76
662.17	37024.93
662.31	36779.18
662.46	36804.92
662.60	36921.95
662.74	36432.78
662.88	36418.74
663.03	36617.68
663.17	36245.54
663.31	36177.66
663.45	36952.38
663.60	36746.41
663.74	36488.95
663.88	36395.33
664.02	36577.89
664.17	36613.00
664.31	35906.16
664.45	35948.29
664.59	35784.45
664.73	36456.18
664.88	36079.36
665.02	35784.45
665.16	35929.56
665.30	35908.50
665.44	36011.48
665.59	35517.63
665.73	35189.95
665.87	35496.56
666.01	35992.76
666.15	35608.91
666.29	35519.97
666.44	35676.79
666.58	35381.88
666.72	35012.07
666.86	35061.22
667.00	35229.74
667.14	34930.16
667.28	34558.01
667.43	35028.46
667.57	35288.26
667.71	34675.04
667.85	35028.46
667.99	35007.39
668.13	34756.96
668.27	34810.79
668.41	35030.80
668.56	34614.18
668.70	34164.80
668.84	34508.86
668.98	34127.35
669.12	34436.30
669.26	34223.31
669.40	34455.03
669.54	33963.51
669.68	34080.54
669.82	34117.99
669.96	33734.14
670.10	33460.30
670.25	33942.45
670.39	33666.27
670.53	33893.30
670.67	33874.57
670.81	34026.71
670.95	33544.56
671.09	33617.11
671.23	33787.97
671.37	33539.88
671.51	33235.61
671.65	33165.39
671.79	33125.60
671.93	33518.81
672.07	33329.23
672.21	32826.01
672.35	33223.90
672.49	33167.73
672.63	33310.50
672.77	32790.91
672.91	33111.56
673.05	32821.33
673.19	32402.38
673.33	32055.98
673.47	32591.96
673.61	32294.71
673.75	32219.81
673.89	32041.93
674.03	31798.52
674.17	32009.17
674.31	31599.57
674.45	31838.31
674.59	31756.39
674.73	31597.23
674.87	31564.46
675.01	31611.28
675.15	31402.97
675.29	30852.94
675.43	31241.47
675.56	31213.38
675.70	31213.38
675.84	31108.06
675.98	29851.19
676.12	31182.96
676.26	31044.87
676.40	30747.62
676.54	30665.70
676.68	30607.19
676.82	29687.36
676.96	30834.22
677.10	30764.00
677.23	30525.27
677.37	30382.49
677.51	30183.55
677.65	30061.84
677.79	29830.13
677.93	30471.43
678.07	29942.47
678.21	29883.96
678.34	29383.09
678.48	29387.77
678.62	29497.77
678.76	29357.34
678.90	29013.28
679.04	29469.69
679.18	29359.68
679.31	29088.18
679.45	28861.15
679.59	28308.78
679.73	28725.39
679.87	28643.48
680.00	28744.12
680.14	28133.24
680.28	28402.40
680.42	28247.93
680.56	27971.74
680.70	27964.72
680.83	27887.48
680.97	27594.92
681.11	27861.74
681.25	27489.59
681.39	27297.67
681.52	27435.76
681.66	27253.20
681.80	27136.17
681.94	26885.73
682.07	26621.25
682.21	27054.25
682.35	26991.06
682.49	26764.03
682.62	27182.98
682.76	26876.37
682.90	26536.99
683.04	26366.13
683.17	26419.97
683.31	26033.78
683.45	26256.13
683.59	25879.30
683.72	25614.82
683.86	25724.83
684.00	25823.13
684.13	25771.64
684.27	25509.50
684.41	25504.82
684.55	25432.26
684.68	25256.72
684.82	25151.40
684.96	25120.97
685.09	25289.49
685.23	25137.35
685.37	25422.90
685.50	25390.13
685.64	25057.78
685.78	24760.53
685.91	24725.42
686.05	24423.49
686.19	23988.15
686.32	24257.31
686.46	23866.44
686.60	23910.91
686.73	24074.75
686.87	23473.23
687.01	24409.45
687.14	24254.97
687.28	23723.67
687.42	23777.50
687.55	23744.73
687.69	23686.22
687.82	23295.35
687.96	23311.74
688.10	23424.08
688.23	23026.19
688.37	23019.17
688.50	23253.22
688.64	22658.73
688.78	22972.36
688.91	22623.62
689.05	22684.47
689.18	22567.45
689.32	21972.95
689.46	21986.99
689.59	22188.28
689.73	22415.31
689.86	22625.96
690.00	22235.09
690.13	21984.65
690.27	21755.28
690.41	21968.27
690.54	21439.31
690.68	21752.94
690.81	21336.32
690.95	21315.26
691.08	21078.86
691.22	21469.73
691.35	20922.05
691.49	21263.77
691.62	21104.61
691.76	20699.70
691.89	20428.20
692.03	20470.33
692.16	20133.29
692.30	20287.76
692.43	20453.94
692.57	20168.40
692.70	20112.22
692.84	20514.80
692.97	20093.50
693.11	19814.98
693.24	19770.51
693.38	19885.19
693.51	19510.71
693.65	19496.66
693.78	19227.50
693.92	19225.16
694.05	19365.59
694.19	19030.90
694.32	19278.99
694.45	19307.08
694.59	19459.21
694.72	19337.51
694.86	18974.72
694.99	18953.66
695.13	18642.37
695.26	18249.16
695.39	18654.07
695.53	18581.51
695.66	18401.29
695.80	18228.09
695.93	18293.63
696.07	17926.16
696.20	17937.87
696.33	17397.20
696.47	17659.34
696.60	17893.40
696.73	17692.11
696.87	17898.08
697.00	17727.22
697.14	17366.78
697.27	17439.33
697.40	17305.92
697.54	17191.23
697.67	17146.76
697.80	17193.58
697.94	16968.88
698.07	16812.07
698.21	16940.80
698.34	16821.43
698.47	16578.01
698.61	16411.84
698.74	16240.98
698.87	16575.67
699.01	16100.55
699.14	16226.93
699.27	16343.96
699.40	16287.79
699.54	15538.82
699.67	15901.60
699.80	16100.55
699.94	15878.19
700.07	15791.59
700.20	15618.39
700.34	15740.10
700.47	15527.11
700.60	15578.61
700.73	15590.31
700.87	15344.55
701.00	15262.63
701.13	15021.56
701.26	15077.73
701.40	15016.88
701.53	15187.74
701.66	14993.47
701.79	14972.41
701.93	14586.22
702.06	14691.54
702.19	14485.58
702.32	14415.36
702.46	14738.35
702.59	14534.73
702.72	14530.05
702.85	14389.61
702.99	14420.04
703.12	14113.43
703.25	14090.02
703.38	13809.16
703.51	13841.93
703.65	13717.88
703.78	13605.53
703.91	13336.37
704.04	13523.62
704.17	13542.34
704.31	13259.13
704.44	13411.27
704.57	13408.93
704.70	13378.50
704.83	13249.77
704.96	13130.41
705.10	13114.02
705.23	13039.12
>>>>>End Processed Spectral Data<<<<<
