SpectraSuite Data File
++++++++++++++++++++++++++++++++++++
Date: Fri Oct 25 10:48:30 EDT 2013
User: price-jones
Dark Spectrum Present: No
Reference Spectrum Present: No
Number of Sampled Component Spectra: 1
Spectrometers: USB2+H05261
Integration Time (usec): 100000 (USB2+H05261)
Spectra Averaged: 1 (USB2+H05261)
Boxcar Smoothing: 0 (USB2+H05261)
Correct for Electrical Dark: No (USB2+H05261)
Strobe/Lamp Enabled: No (USB2+H05261)
Correct for Detector Non-linearity: No (USB2+H05261)
Correct for Stray Light: No (USB2+H05261)
Number of Pixels in Processed Spectrum: 2048
>>>>>Begin Processed Spectral Data<<<<<
365.73	198.95
365.92	198.95
366.12	198.95
366.32	91.28
366.52	126.39
366.72	77.24
366.91	65.54
367.11	9.36
367.31	28.09
367.51	65.54
367.70	49.15
367.90	11.70
368.10	72.56
368.30	63.19
368.49	95.96
368.69	9.36
368.89	58.51
369.09	135.75
369.28	128.73
369.48	58.51
369.68	142.77
369.87	107.66
370.07	60.85
370.27	138.09
370.47	217.67
370.66	365.12
370.86	400.23
371.06	475.13
371.25	540.66
371.45	451.72
371.65	468.11
371.84	435.34
372.04	517.26
372.24	528.96
372.44	550.03
372.63	491.51
372.83	533.64
373.03	533.64
373.22	564.07
373.42	585.13
373.62	540.66
373.81	608.54
374.01	533.64
374.21	585.13
374.40	526.62
374.60	650.67
374.79	613.22
374.99	634.29
375.19	559.39
375.38	622.58
375.58	674.07
375.78	650.67
375.97	587.47
376.17	748.97
376.37	650.67
376.56	664.71
376.76	617.90
376.95	601.52
377.15	657.69
377.35	631.94
377.54	613.22
377.74	617.90
377.93	631.94
378.13	702.16
378.33	758.33
378.52	688.12
378.72	653.01
378.91	624.92
379.11	674.07
379.31	669.39
379.50	688.12
379.70	739.61
379.89	753.65
380.09	692.80
380.28	716.20
380.48	634.29
380.68	727.91
380.87	720.88
381.07	816.85
381.26	760.67
381.46	648.33
381.65	725.57
381.85	744.29
382.04	711.52
382.24	786.42
382.43	692.80
382.63	697.48
382.83	713.86
383.02	718.54
383.22	763.01
383.41	697.48
383.61	713.86
383.80	809.83
384.00	863.66
384.19	809.83
384.39	734.93
384.58	788.76
384.78	837.91
384.97	802.80
385.17	812.17
385.36	788.76
385.56	812.17
385.75	863.66
385.95	858.98
386.14	887.06
386.34	919.83
386.53	816.85
386.72	798.12
386.92	915.15
387.11	922.17
387.31	882.38
387.50	880.04
387.70	905.79
387.89	826.21
388.09	938.55
388.28	954.94
388.48	961.96
388.67	964.30
388.86	964.30
389.06	999.41
389.25	884.72
389.45	924.51
389.64	954.94
389.84	1001.75
390.03	1032.18
390.22	1071.97
390.42	908.13
390.61	997.07
390.81	966.64
391.00	1060.26
391.19	1125.80
391.39	1064.94
391.58	1107.07
391.78	1076.65
391.97	1043.88
392.16	1020.47
392.36	1060.26
392.55	999.41
392.75	1050.90
392.94	1034.52
393.13	1008.77
393.33	1027.50
393.52	1069.62
393.71	1221.76
393.91	1076.65
394.10	1118.78
394.29	1043.88
394.49	1083.67
394.68	1217.08
394.88	1191.33
395.07	1270.91
395.26	1240.48
395.46	1261.55
395.65	1266.23
395.84	1172.61
396.04	1362.19
396.23	1128.14
396.42	1174.95
396.62	1181.97
396.81	1345.81
397.00	1299.00
397.19	1334.11
397.39	1376.24
397.58	1301.34
397.77	1446.45
397.97	1371.55
398.16	1523.69
398.35	1563.48
398.55	1469.86
398.74	1558.80
398.93	1556.46
399.12	1467.52
399.32	1446.45
399.51	1565.82
399.70	1549.43
399.90	1591.56
400.09	1605.61
400.28	1680.50
400.47	1678.16
400.67	1600.93
400.86	1582.20
401.05	1614.97
401.24	1776.47
401.44	1827.96
401.63	1792.85
401.82	1757.74
402.01	1729.66
402.21	1795.19
402.40	1792.85
402.59	1762.42
402.78	1741.36
402.97	1776.47
403.17	1912.22
403.36	1785.83
403.55	1858.39
403.74	1923.92
403.93	2026.90
404.13	1916.90
404.32	1886.47
404.51	1881.79
404.70	1919.24
404.89	1888.81
405.09	2022.22
405.28	1928.60
405.47	1921.58
405.66	2043.29
405.85	1949.67
406.05	2015.20
406.24	2015.20
406.43	2052.65
406.62	2069.03
406.81	2139.25
407.00	2235.21
407.20	2069.03
407.39	2108.82
407.58	2160.31
407.77	2139.25
407.96	2186.06
408.15	2207.13
408.34	2181.38
408.54	2246.91
408.73	2186.06
408.92	2368.62
409.11	2349.90
409.30	2373.30
409.49	2373.30
409.68	2237.55
409.87	2338.20
410.07	2497.35
410.26	2462.24
410.45	2438.84
410.64	2438.84
410.83	2595.65
411.02	2562.89
411.21	2614.38
411.40	2609.70
411.59	2693.96
411.78	2588.63
411.98	2640.12
412.17	2597.99
412.36	2590.97
412.55	2712.68
412.74	2871.84
412.93	2754.81
413.12	2799.28
413.31	2843.75
413.50	2803.96
413.69	2869.50
413.88	2899.92
414.07	2967.80
414.26	2864.82
414.45	2935.03
414.64	3035.67
414.83	3045.04
415.02	3096.53
415.22	2993.55
415.41	3187.81
415.60	3094.19
415.79	3098.87
415.98	3206.53
416.17	3286.11
416.36	3274.41
416.55	3220.58
416.74	3208.87
416.93	3318.88
417.12	3314.20
417.31	3389.10
417.50	3419.52
417.69	3471.01
417.88	3297.81
418.07	3391.44
418.26	3468.67
418.45	3576.34
418.64	3611.45
418.83	3590.38
419.02	3541.23
419.21	3552.93
419.39	3648.90
419.58	3545.91
419.77	3478.04
419.96	3775.28
420.15	3840.82
420.34	3712.09
420.53	3749.54
420.72	3791.67
420.91	3794.01
421.10	3922.74
421.29	3871.25
421.48	3831.46
421.67	3831.46
421.86	3950.82
422.05	3880.61
422.24	3794.01
422.43	3927.42
422.61	3852.52
422.80	3999.98
422.99	3960.19
423.18	4046.79
423.37	3981.25
423.56	4016.36
423.75	3967.21
423.94	3873.59
424.13	3782.31
424.32	3824.44
424.50	3943.80
424.69	4105.30
424.88	3927.42
425.07	3981.25
425.26	3892.31
425.45	3953.16
425.64	3843.16
425.83	4070.19
426.01	3988.27
426.20	3978.91
426.39	4109.98
426.58	3838.48
426.77	3908.69
426.96	4072.53
427.15	4100.62
427.33	4227.01
427.52	4245.73
427.71	4098.28
427.90	4128.70
428.09	4236.37
428.28	4156.79
428.46	4035.08
428.65	4212.96
428.84	4257.43
429.03	4482.13
429.22	4156.79
429.40	4217.65
429.59	4243.39
429.78	4009.34
429.97	4070.19
430.16	3943.80
430.34	4163.81
430.53	4072.53
430.72	4381.48
430.91	4149.77
431.10	4196.58
431.28	4627.24
431.47	4613.20
431.66	4692.77
431.85	4671.71
432.03	4767.67
432.22	4835.55
432.41	4601.49
432.60	4760.65
432.79	4795.76
432.97	4770.01
433.16	4793.42
433.35	4739.58
433.54	4697.46
433.72	4765.33
433.91	4802.78
434.10	4809.80
434.28	4753.63
434.47	4985.34
434.66	4966.62
434.85	4950.23
435.03	5100.03
435.22	4884.70
435.41	5186.63
435.59	5123.43
435.78	5191.31
435.97	5217.05
436.16	5177.26
436.34	5153.86
436.53	5172.58
436.72	5364.51
436.90	5039.17
437.09	5249.82
437.28	5259.18
437.46	5380.89
437.65	5291.95
437.84	5074.28
438.02	5226.42
438.21	5282.59
438.40	5107.05
438.58	5483.88
438.77	5387.91
438.96	5474.51
439.14	5528.35
439.33	5497.92
439.52	5617.29
439.70	5570.48
439.89	5713.25
440.08	5687.50
440.26	5888.79
440.45	5795.17
440.63	5841.98
440.82	5895.81
441.01	5902.83
441.19	6038.58
441.38	6092.41
441.57	6143.91
441.75	6310.08
441.94	6431.79
442.12	6368.60
442.31	6380.30
442.50	6459.88
442.68	6333.49
442.87	6370.94
443.05	6466.90
443.24	6471.58
443.43	6319.45
443.61	6504.35
443.80	6834.36
443.98	6410.73
444.17	6312.42
444.35	6619.04
444.54	6715.00
444.73	6509.03
444.91	6551.16
445.10	6408.39
445.28	6544.14
445.47	6441.15
445.65	6532.44
445.84	6583.93
446.02	6511.37
446.21	6544.14
446.39	6567.54
446.58	6848.41
446.77	6670.53
446.95	6633.08
447.14	6647.12
447.32	6789.89
447.51	6633.08
447.69	6537.12
447.88	6642.44
448.06	6834.36
448.25	6885.86
448.43	6843.73
448.62	6740.74
448.80	6806.28
448.99	6935.01
449.17	6974.80
449.36	6754.79
449.54	6906.92
449.73	7068.42
449.91	7302.47
450.10	7115.23
450.28	7286.09
450.46	7293.11
450.65	7232.26
450.83	7262.68
451.02	7220.55
451.20	7396.09
451.39	7243.96
451.57	7339.92
451.76	7129.27
451.94	7173.74
452.13	7353.96
452.31	7143.32
452.49	7323.54
452.68	7206.51
452.86	7332.90
453.05	7517.80
453.23	7585.68
453.42	7286.09
453.60	7288.43
453.78	7618.44
453.97	7403.11
454.15	7358.64
454.34	7311.83
454.52	7445.24
454.70	7562.27
454.89	7599.72
455.07	7655.89
455.26	7655.89
455.44	7641.85
455.62	7674.62
455.81	7728.45
455.99	7707.38
456.17	8070.17
456.36	7925.05
456.54	8098.25
456.73	8046.76
456.91	8067.83
457.09	8355.71
457.28	8404.86
457.46	7995.27
457.64	8203.58
457.83	8285.50
458.01	7943.78
458.19	8458.70
458.38	8280.82
458.56	8444.65
458.74	8271.45
458.93	8388.48
459.11	8383.80
459.29	8400.18
459.48	8346.35
459.66	8425.93
459.84	8533.59
460.03	8535.93
460.21	8456.36
460.39	8594.45
460.57	8571.04
460.76	8641.26
460.94	8931.48
461.12	8788.71
461.31	8706.79
461.49	8681.05
461.67	8645.94
461.85	8964.25
462.04	8915.10
462.22	9336.40
462.40	8908.08
462.59	8971.27
462.77	9006.38
462.95	9032.13
463.13	9013.40
463.32	9125.75
463.50	9085.96
463.68	9212.35
463.86	8994.68
464.05	8730.20
464.23	8964.25
464.41	9158.52
464.59	9011.06
464.78	9308.31
464.96	9217.03
465.14	9062.55
465.32	9298.95
465.50	9146.81
465.69	9430.02
465.87	9345.76
466.05	9366.82
466.23	9032.13
466.41	9474.49
466.60	9423.00
466.78	9128.09
466.96	9233.41
467.14	9242.78
467.32	9430.02
467.51	9535.34
467.69	9114.05
467.87	9640.67
468.05	9715.56
468.23	9537.68
468.41	9516.62
468.60	9408.95
468.78	9659.39
468.96	9427.68
469.14	9907.49
469.32	9664.07
469.50	9549.39
469.69	10010.47
469.87	10038.56
470.05	9919.19
470.23	10087.71
470.41	9631.30
470.59	9970.68
470.77	10003.45
470.95	10050.26
471.14	10349.85
471.32	9886.42
471.50	10359.21
471.68	10380.28
471.86	10523.05
472.04	10434.11
472.22	10576.88
472.40	10305.38
472.58	10572.20
472.77	10607.31
472.95	10656.46
473.13	10846.04
473.31	10796.89
473.49	10712.63
473.67	10644.76
473.85	10839.02
474.03	10958.39
474.21	11049.67
474.39	11103.50
474.57	11185.42
474.75	11220.53
474.93	11267.34
475.12	11316.49
475.30	11346.92
475.48	11314.15
475.66	11433.52
475.84	11276.70
476.02	11475.65
476.20	11470.97
476.38	11789.28
476.56	11861.84
476.74	11793.96
476.92	11880.56
477.10	11747.15
477.28	12142.70
477.46	12116.95
477.64	12147.38
477.82	12556.97
478.00	12571.02
478.18	12760.60
478.36	12716.13
478.54	12741.88
478.72	12774.64
478.90	12863.58
479.08	13156.15
479.26	13418.29
479.44	13401.91
479.62	13397.23
479.80	13467.44
479.98	13650.00
480.16	13701.50
480.34	13579.79
480.52	13818.52
480.70	13696.82
480.88	13867.67
481.06	13900.44
481.24	14087.68
481.41	14366.21
481.59	14457.49
481.77	14429.40
481.95	14312.38
482.13	14525.36
482.31	14551.11
482.49	15169.01
482.67	15056.67
482.85	15119.86
483.03	15318.81
483.21	15555.20
483.39	15707.34
483.57	15250.93
483.74	15775.21
483.92	15775.21
484.10	15604.35
484.28	15978.84
484.46	16180.12
484.64	16533.54
484.82	16074.80
485.00	16175.44
485.18	16830.79
485.35	16596.74
485.53	16259.70
485.71	16262.04
485.89	16638.87
486.07	16723.13
486.25	16645.89
486.43	17369.12
486.61	17139.74
486.78	17277.83
486.96	17268.47
487.14	17563.38
487.32	17914.46
487.50	18080.64
487.68	17774.03
487.85	18597.90
488.03	18640.03
488.21	18714.92
488.39	19051.96
488.57	18845.99
488.75	19363.25
488.92	19396.02
489.10	19494.32
489.28	19543.47
489.46	19733.06
489.64	19665.18
489.81	20343.94
489.99	20051.37
490.17	20545.22
490.35	20643.52
490.53	20357.98
490.70	20748.85
490.88	20540.54
491.06	21186.53
491.24	21362.07
491.41	21113.97
491.59	21373.77
491.77	20837.79
491.95	21455.69
492.13	21474.42
492.30	21855.92
492.48	22082.95
492.66	21750.60
492.84	22099.34
493.01	22389.56
493.19	22106.36
493.37	22537.02
493.54	22377.86
493.72	22775.75
493.90	22775.75
494.08	22993.42
494.25	23356.21
494.43	23520.04
494.61	23351.52
494.79	23913.25
494.96	23630.05
495.14	23634.73
495.32	23978.79
495.49	23697.92
495.67	24409.45
495.85	24191.78
496.02	24540.52
496.20	24383.70
496.38	24416.47
496.55	24442.21
496.73	25469.71
496.91	25081.18
497.09	25090.54
497.26	25130.33
497.44	25380.77
497.62	25476.73
497.79	25708.44
497.97	25429.92
498.14	25872.28
498.32	25607.80
498.50	25947.18
498.67	25951.86
498.85	26167.19
499.03	26560.40
499.20	26459.76
499.38	26272.51
499.56	26403.58
499.73	26726.58
499.91	26991.06
500.08	26757.00
500.26	26424.65
500.44	27269.58
500.61	26817.86
500.79	26560.40
500.97	27356.18
501.14	27578.53
501.32	27461.51
501.49	27337.46
501.67	27384.27
501.84	27637.05
502.02	27559.81
502.20	27786.84
502.37	28252.61
502.55	28046.64
502.72	28133.24
502.90	28512.41
503.07	28187.07
503.25	28577.94
503.43	28339.21
503.60	28638.80
503.78	28559.22
503.95	28821.36
504.13	28556.88
504.30	28828.38
504.48	28591.98
504.65	29263.72
504.83	29544.58
505.01	29450.96
505.18	29385.43
505.36	29958.86
505.53	29799.70
505.71	29984.60
505.88	30036.09
506.06	29715.44
506.23	30204.61
506.41	29869.92
506.58	29984.60
506.76	30094.61
506.93	30499.52
507.11	30288.87
507.28	30808.47
507.46	30441.01
507.63	30146.10
507.81	30707.83
507.98	30466.75
508.16	30675.06
508.33	30630.59
508.50	30852.94
508.68	31309.35
508.85	31239.13
509.03	31091.68
509.20	31290.62
509.38	31257.85
509.55	31489.57
509.73	31857.03
509.90	31768.09
510.08	31674.47
510.25	31564.46
510.42	32070.02
510.60	32130.87
510.77	32795.59
510.95	32460.89
511.12	32439.82
511.30	32535.79
511.47	32802.61
511.64	32767.50
511.82	32849.42
511.99	32428.12
512.17	33020.28
512.34	32545.15
512.51	33081.13
512.69	33223.90
512.86	33364.34
513.04	33333.91
513.21	33350.29
513.38	33149.01
513.56	33331.57
513.73	32994.53
513.90	33518.81
514.08	33275.40
514.25	33446.26
514.43	33394.76
514.60	33638.18
514.77	33376.04
514.95	33977.56
515.12	33818.40
515.29	33825.42
515.47	34330.98
515.64	34660.99
515.81	34363.75
515.99	33839.47
516.16	34185.86
516.33	34370.77
516.51	34040.75
516.68	33586.69
516.85	33259.01
517.03	33820.74
517.20	34424.60
517.37	34382.47
517.54	34534.60
517.72	34630.57
517.89	34747.59
518.06	34878.66
518.24	34646.95
518.41	34766.32
518.58	34913.77
518.75	34955.90
518.93	35604.23
519.10	35281.24
519.27	35826.58
519.45	35351.45
519.62	35512.95
519.79	36018.50
519.96	36013.82
520.14	35482.52
520.31	36025.53
520.48	35854.67
520.65	36154.26
520.83	36053.61
521.00	36254.90
521.17	36025.53
521.34	36669.17
521.52	36591.94
521.69	36910.25
521.86	36858.76
522.03	36552.15
522.20	36723.01
522.38	36584.91
522.55	36858.76
522.72	37001.53
522.89	36217.45
523.07	36793.22
523.24	37027.28
523.41	37354.95
523.58	37053.02
523.75	37621.77
523.92	37560.92
524.10	37361.97
524.27	37308.14
524.44	37724.75
524.61	37900.29
524.78	38071.15
524.96	37947.11
525.13	37930.72
525.30	38110.94
525.47	38405.85
525.64	38047.75
525.81	38033.71
525.98	37755.18
526.16	37895.61
526.33	37654.54
526.50	38330.95
526.67	37556.24
526.84	37659.22
527.01	38043.07
527.18	37916.68
527.36	38211.59
527.53	38529.90
527.70	39203.97
527.87	39299.94
528.04	38756.93
528.21	39133.76
528.38	38810.76
528.55	38916.09
528.72	39189.93
528.89	39105.67
529.07	39222.70
529.24	39086.95
529.41	39328.02
529.58	39477.82
529.75	38562.67
529.92	39335.04
530.09	39679.10
530.26	39290.57
530.43	39702.51
530.60	39475.48
530.77	39505.90
530.94	39945.92
531.11	39875.71
531.28	39985.71
531.46	39817.19
531.63	40088.70
531.80	39765.70
531.97	40030.18
532.14	39887.41
532.31	39744.64
532.48	39648.68
532.65	39976.35
532.82	40481.91
532.99	40252.53
533.16	39861.66
533.33	40460.84
533.50	40938.31
533.67	40678.51
533.84	40140.19
534.01	40540.42
534.18	40587.23
534.35	41144.28
534.52	40540.42
534.69	40552.12
534.86	40926.61
535.03	40842.35
535.20	40994.48
535.37	41265.99
535.54	41291.73
535.71	40748.73
535.88	41406.42
536.05	41443.87
536.22	41490.68
536.38	41614.72
536.55	41160.66
536.72	41205.13
536.89	40959.38
537.06	41303.43
537.23	41319.82
537.40	41490.68
537.57	41256.62
537.74	41556.21
537.91	41914.31
538.08	41748.14
538.25	41551.53
538.42	41523.44
538.59	42096.88
538.75	41486.00
538.92	42021.98
539.09	41844.10
539.26	41921.34
539.43	41968.15
539.60	42094.53
539.77	41841.76
539.94	42021.98
540.11	41406.42
540.28	41654.51
540.44	41944.74
540.61	42057.09
540.78	41986.87
540.95	41979.85
541.12	42251.35
541.29	42572.00
541.46	42450.30
541.62	42490.09
541.79	42490.09
541.96	42082.83
542.13	42440.93
542.30	42485.40
542.47	42611.79
542.63	42677.33
542.80	42462.00
542.97	43175.86
543.14	42974.58
543.31	43426.30
543.48	43459.07
543.64	43611.20
543.81	43730.57
543.98	43363.11
544.15	43007.34
544.32	43292.89
544.48	43772.70
544.65	43360.76
544.82	43761.00
544.99	43079.90
545.16	43306.93
545.32	43346.72
545.49	43620.56
545.66	43716.53
545.83	43580.78
546.00	43646.31
546.16	43758.66
546.33	43658.01
546.50	43538.65
546.67	43753.97
546.83	43377.15
547.00	43430.98
547.17	43477.79
547.34	43770.36
547.50	43688.44
547.67	43742.27
547.84	44402.30
548.00	44121.44
548.17	44362.51
548.34	43852.28
548.51	44355.49
548.67	44755.72
548.84	44463.16
549.01	43943.56
549.18	44264.21
549.34	44451.45
549.51	44505.29
549.68	44460.82
549.84	44758.06
550.01	44795.51
550.18	44797.85
550.34	44439.75
550.51	44191.65
550.68	44751.04
550.84	44250.17
551.01	44985.10
551.18	44514.65
551.34	44802.53
551.51	44797.85
551.68	44996.80
551.84	44933.60
552.01	44676.15
552.18	44645.72
552.34	44797.85
552.51	44957.01
552.68	45088.08
552.84	44982.76
553.01	45272.98
553.18	44830.62
553.34	44926.58
553.51	45249.58
553.67	44996.80
553.84	45481.29
554.01	45223.83
554.17	45485.97
554.34	45340.86
554.51	45401.71
554.67	45619.38
554.84	45139.57
555.00	45008.50
555.17	45354.90
555.33	45102.12
555.50	45249.58
555.67	45397.03
555.83	45588.95
556.00	45071.70
556.16	45635.77
556.33	45514.06
556.50	45434.48
556.66	45324.47
556.83	45378.31
556.99	45935.35
557.16	45500.01
557.32	45764.49
557.49	45263.62
557.65	45411.07
557.82	45385.33
557.98	45326.81
558.15	45301.07
558.32	45593.64
558.48	45544.48
558.65	45713.00
558.81	45521.08
558.98	45549.17
559.14	45935.35
559.31	45659.17
559.47	45965.78
559.64	45911.95
559.80	46246.65
559.97	46169.41
560.13	45565.55
560.30	45893.22
560.46	45832.37
560.63	45954.08
560.79	46099.19
560.96	46511.13
561.12	45708.32
561.29	45982.16
561.45	45862.80
561.61	45855.78
561.78	45766.84
561.94	45701.30
562.11	45907.27
562.27	45872.16
562.44	46230.26
562.60	46405.80
562.77	46667.94
562.93	45984.51
563.10	46174.09
563.26	46117.92
563.42	46305.16
563.59	46330.90
563.75	46061.74
563.92	46316.86
564.08	46401.12
564.24	46515.81
564.41	46820.08
564.57	46073.45
564.74	46274.73
564.90	46314.52
565.07	46586.02
565.23	46426.87
565.39	45961.10
565.56	46768.58
565.72	45839.39
565.88	46122.60
566.05	46485.38
566.21	46543.89
566.38	46466.66
566.54	46532.19
566.70	46579.00
566.87	46927.74
567.03	46721.77
567.19	46850.50
567.36	46522.83
567.52	46361.33
567.68	46344.95
567.85	46511.13
568.01	46263.03
568.17	46136.64
568.34	46768.58
568.50	46525.17
568.66	46384.74
568.83	46740.50
568.99	46546.23
569.15	46389.42
569.32	46312.18
569.48	46646.88
569.64	46419.84
569.81	46855.18
569.97	46405.80
570.13	46635.17
570.30	46038.34
570.46	46443.25
570.62	46251.33
570.78	46129.62
570.95	46574.32
571.11	46630.49
571.27	46754.54
571.43	46583.68
571.60	46857.52
571.76	46504.10
571.92	46351.97
572.09	46546.23
572.25	46600.07
572.41	46623.47
572.57	46581.34
572.74	47089.24
572.90	46902.00
573.06	46623.47
573.22	46997.96
573.38	46550.91
573.55	46539.21
573.71	46391.76
573.87	46401.12
574.03	46815.40
574.20	46834.12
574.36	46557.94
574.52	46672.62
574.68	46740.50
574.84	46747.52
575.01	46887.95
575.17	46494.74
575.33	45998.55
575.49	46412.82
575.65	47189.88
575.82	47199.24
575.98	46719.43
576.14	47187.54
576.30	46756.88
576.46	46869.23
576.62	46546.23
576.79	46469.00
576.95	46176.43
577.11	46387.08
577.27	46894.97
577.43	46616.45
577.59	46347.29
577.75	46808.37
577.92	46307.50
578.08	46124.94
578.24	46485.38
578.40	46710.07
578.56	46857.52
578.72	46499.42
578.88	46829.44
579.04	46700.71
579.21	46691.35
579.37	46391.76
579.53	46742.84
579.69	46791.99
579.85	47014.34
580.01	46916.04
580.17	47026.04
580.33	46986.25
580.49	46623.47
580.65	46946.47
580.82	46738.16
580.98	46803.69
581.14	46703.05
581.30	46817.74
581.46	46997.96
581.62	46401.12
581.78	46543.89
581.94	47377.12
582.10	46843.48
582.26	46878.59
582.42	46815.40
582.58	47084.56
582.74	46829.44
582.90	46869.23
583.06	47091.58
583.22	46946.47
583.38	47517.56
583.54	47037.75
583.70	46756.88
583.86	46979.23
584.02	46256.01
584.18	46405.80
584.34	46824.76
584.50	46843.48
584.66	46768.58
584.82	46581.34
584.98	46976.89
585.14	47021.36
585.30	46637.51
585.46	46532.19
585.62	46986.25
585.78	46876.25
585.94	46370.69
586.10	46752.20
586.26	46873.91
586.42	46787.31
586.58	47285.84
586.74	46721.77
586.90	46967.53
587.06	46829.44
587.22	46801.35
587.38	46642.20
587.54	47164.14
587.70	47119.66
587.86	46876.25
588.02	46852.84
588.18	46920.72
588.34	47004.98
588.49	46344.95
588.65	46719.43
588.81	46052.38
588.97	46667.94
589.13	46314.52
589.29	46438.57
589.45	46796.67
589.61	46836.46
589.77	47077.54
589.93	46696.03
590.08	46817.74
590.24	47260.10
590.40	46768.58
590.56	47004.98
590.72	46799.01
590.88	46866.89
591.04	46670.28
591.20	47016.68
591.35	47110.30
591.51	47398.19
591.67	46782.63
591.83	46885.61
591.99	46850.50
592.15	46759.22
592.31	46962.85
592.46	46356.65
592.62	46838.80
592.78	47033.07
592.94	47246.05
593.10	47056.47
593.26	47580.75
593.41	46916.04
593.57	47056.47
593.73	47217.97
593.89	47065.83
594.05	47063.49
594.20	47100.94
594.36	47168.82
594.52	46815.40
594.68	47096.26
594.84	47241.37
594.99	47498.83
595.15	47077.54
595.31	47447.34
595.47	47215.63
595.62	47276.48
595.78	47175.84
595.94	47178.18
596.10	47253.08
596.25	47510.53
596.41	47372.44
596.57	46836.46
596.73	46958.17
596.88	46401.12
597.04	47061.15
597.20	47224.99
597.36	46944.12
597.51	47540.96
597.67	46897.31
597.83	46976.89
597.99	47334.99
598.14	46913.70
598.30	47203.92
598.46	47232.01
598.61	46649.22
598.77	47049.45
598.93	47110.30
599.09	47253.08
599.24	47583.09
599.40	47292.86
599.56	47114.98
599.71	46962.85
599.87	47688.42
600.03	46944.12
600.18	46909.02
600.34	47161.79
600.50	47278.82
600.65	47084.56
600.81	47271.80
600.97	47058.81
601.12	47391.17
601.28	47562.03
601.44	47147.75
601.59	47297.55
601.75	46670.28
601.91	46841.14
602.06	46887.95
602.22	46677.30
602.37	47166.48
602.53	46574.32
602.69	47264.78
602.84	46967.53
603.00	47136.05
603.16	47112.64
603.31	46511.13
603.47	46955.83
603.62	46831.78
603.78	47370.10
603.94	46878.59
604.09	47173.50
604.25	47105.62
604.40	46738.16
604.56	46838.80
604.71	47311.59
604.87	47136.05
605.03	47353.72
605.18	46988.60
605.34	46866.89
605.49	46625.81
605.65	47091.58
605.80	47033.07
605.96	47007.32
606.12	47150.09
606.27	47124.35
606.43	46841.14
606.58	47143.07
606.74	46768.58
606.89	46635.17
607.05	46967.53
607.20	46878.59
607.36	47086.90
607.51	47033.07
607.67	47100.94
607.82	46759.22
607.98	46902.00
608.13	46880.93
608.29	46742.84
608.44	46431.55
608.60	46258.35
608.75	46361.33
608.91	46733.48
609.06	46260.69
609.22	46747.52
609.37	46431.55
609.53	46801.35
609.68	46733.48
609.84	46583.68
609.99	46490.06
610.15	46363.67
610.30	46810.71
610.46	46330.90
610.61	46007.91
610.76	46494.74
610.92	46632.83
611.07	46206.86
611.23	46548.57
611.38	46445.59
611.54	46480.70
611.69	46211.54
611.84	46272.39
612.00	45815.99
612.15	46021.95
612.31	46497.08
612.46	46124.94
612.62	46801.35
612.77	46366.01
612.92	46148.34
613.08	45848.75
613.23	46312.18
613.39	45846.41
613.54	45680.24
613.69	45684.92
613.85	46078.13
614.00	45935.35
614.15	46522.83
614.31	46356.65
614.46	46167.07
614.62	46007.91
614.77	45808.96
614.92	46127.28
615.08	45794.92
615.23	45673.21
615.38	45937.69
615.54	45504.70
615.69	45848.75
615.84	45123.19
616.00	45617.04
616.15	45270.64
616.30	45626.40
616.46	45411.07
616.61	45158.30
616.76	45432.14
616.92	45397.03
617.07	45432.14
617.22	45432.14
617.37	45263.62
617.53	45780.88
617.68	45485.97
617.83	45743.43
617.99	45652.15
618.14	45565.55
618.29	45860.46
618.45	45200.43
618.60	45326.81
618.75	45146.59
618.90	45256.60
619.06	45172.34
619.21	45188.72
619.36	45265.96
619.51	45450.86
619.67	44982.76
619.82	45357.24
619.97	45605.34
620.12	45270.64
620.28	44942.97
620.43	44797.85
620.58	45153.62
620.73	45158.30
620.89	45059.99
621.04	44582.52
621.19	44648.06
621.34	44807.22
621.49	44718.28
621.65	44947.65
621.80	44877.43
621.95	44222.08
622.10	44830.62
622.25	44418.69
622.41	44774.45
622.56	44664.44
622.71	44491.24
622.86	44722.96
623.01	44711.25
623.16	44910.20
623.32	44940.63
623.47	44989.78
623.62	44437.41
623.77	44474.86
623.92	44463.16
624.07	44566.14
624.23	44184.63
624.38	43761.00
624.53	44194.00
624.68	44580.18
624.83	44477.20
624.98	44622.31
625.13	44514.65
625.29	44060.58
625.44	44442.09
625.59	44065.27
625.74	44308.68
625.89	43800.79
626.04	43447.36
626.19	43910.79
626.34	44053.56
626.49	43744.61
626.65	44151.87
626.80	44453.79
626.95	44098.03
627.10	43349.06
627.25	43480.13
627.40	43548.01
627.55	43124.37
627.70	43194.59
627.85	43023.73
628.00	43908.45
628.15	43730.57
628.30	43377.15
628.45	43512.90
628.60	43580.78
628.76	43402.89
628.91	43498.86
629.06	43672.06
629.21	43433.32
629.36	43290.55
629.51	43335.02
629.66	43002.66
629.81	43068.20
629.96	42735.84
630.11	43461.41
630.26	43145.44
630.41	43061.18
630.56	43278.85
630.71	43084.58
630.86	43597.16
631.01	43402.89
631.16	43122.03
631.31	42885.64
631.46	42506.47
631.61	42944.15
631.76	42684.35
631.91	43328.00
632.06	43005.00
632.21	43100.97
632.36	42913.72
632.51	43077.56
632.66	42703.07
632.81	42351.99
632.96	42808.40
633.10	42572.00
633.25	42522.85
633.40	42429.23
633.55	42895.00
633.70	42700.73
633.85	42426.89
634.00	42866.91
634.15	42401.14
634.30	42473.70
634.45	42438.59
634.60	42586.05
634.75	42770.95
634.90	42777.97
635.05	42330.93
635.19	42567.32
635.34	42684.35
635.49	42398.80
635.64	42223.26
635.79	42164.75
635.94	42223.26
636.09	42204.54
636.24	42047.72
636.39	41806.65
636.53	42249.01
636.68	41848.78
636.83	41804.31
636.98	42267.73
637.13	41806.65
637.28	42052.41
637.43	42029.00
637.57	41984.53
637.72	42085.17
637.87	42389.44
638.02	41902.61
638.17	41614.72
638.32	41790.27
638.46	41603.02
638.61	41743.45
638.76	41876.86
638.91	41720.05
639.06	41415.78
639.20	42073.47
639.35	41801.97
639.50	41429.82
639.65	41883.89
639.80	41654.51
639.94	41490.68
640.09	41741.11
640.24	41179.39
640.39	41127.89
640.54	41516.42
640.68	41474.29
640.83	41481.31
640.98	41425.14
641.13	41095.13
641.27	41237.90
641.42	41588.98
641.57	40858.73
641.72	41158.32
641.86	41177.04
642.01	41017.89
642.16	40907.88
642.31	40666.81
642.45	41055.34
642.60	41050.66
642.75	40488.93
642.90	40650.42
643.04	41151.30
643.19	41017.89
643.34	40816.60
643.48	40947.67
643.63	40631.70
643.78	40596.59
643.93	40664.47
644.07	40416.37
644.22	40535.74
644.37	40346.15
644.51	40369.56
644.66	40678.51
644.81	40797.88
644.95	41003.85
645.10	41205.13
645.25	41006.19
645.39	40854.05
645.54	40320.41
645.69	40311.05
645.83	40308.71
645.98	40591.91
646.13	40601.27
646.27	40425.73
646.42	40411.69
646.57	40512.33
646.71	39826.56
646.86	39995.07
647.00	40144.87
647.15	40371.90
647.30	40203.38
647.44	40135.51
647.59	40390.62
647.74	39894.43
647.88	39920.18
648.03	39697.83
648.17	39959.97
648.32	39660.38
648.47	39709.53
648.61	39440.37
648.76	40107.42
648.90	39803.15
649.05	39908.47
649.20	39473.13
649.34	39789.11
649.49	39915.50
649.63	39264.83
649.78	40053.59
649.92	39386.54
650.07	39887.41
650.21	39306.96
650.36	39840.60
650.51	39503.56
650.65	40100.40
650.80	40271.26
650.94	39833.58
651.09	39885.07
651.23	39246.10
651.38	39342.06
651.52	38892.68
651.67	39416.96
651.81	39161.84
651.96	39243.76
652.10	39180.57
652.25	38855.23
652.39	39058.86
652.54	39728.25
652.68	39620.59
652.83	39108.01
652.97	39510.58
653.12	39150.14
653.26	38902.04
653.41	38941.83
653.55	38738.21
653.70	39257.81
653.84	39070.56
653.99	39005.03
654.13	38962.90
654.27	38909.07
654.42	38801.40
654.56	38899.70
654.71	38923.11
654.85	38843.53
655.00	38979.28
655.14	38466.70
655.29	38291.16
655.43	38054.77
655.57	38293.50
655.72	38176.48
655.86	38597.77
656.01	38230.31
656.15	38024.34
656.30	38071.15
656.44	38480.75
656.58	37902.64
656.73	37752.84
656.87	37968.17
657.01	37982.21
657.16	37710.71
657.30	38033.71
657.45	37954.13
657.59	38022.00
657.73	37820.72
657.88	37862.85
658.02	37858.17
658.16	37883.91
658.31	38167.12
658.45	38066.47
658.60	38059.45
658.74	38029.02
658.88	38206.90
659.03	38012.64
659.17	37146.64
659.31	37408.78
659.46	37663.90
659.60	37748.16
659.74	37523.47
659.89	37497.72
660.03	37446.23
660.17	37792.63
660.32	37780.93
660.46	37638.15
660.60	37516.45
660.74	37897.95
660.89	37691.99
661.03	37247.29
661.17	36907.91
661.32	36910.25
661.46	36985.15
661.60	36528.74
661.74	36837.69
661.89	37048.34
662.03	36793.22
662.17	36872.80
662.31	36442.14
662.46	36896.20
662.60	36779.18
662.74	36683.22
662.88	36596.62
663.03	36720.66
663.17	36868.12
663.31	36339.16
663.45	36889.18
663.60	36395.33
663.74	36350.86
663.88	35997.44
664.02	35812.54
664.17	35934.24
664.31	35924.88
664.45	36058.29
664.59	36163.62
664.73	36067.66
664.88	36086.38
665.02	35976.37
665.16	35985.74
665.30	35775.09
665.44	36091.06
665.59	35878.07
665.73	35515.29
665.87	35358.47
666.01	35454.44
666.15	35433.37
666.29	35454.44
666.44	35363.15
666.58	35108.04
666.72	35494.22
666.86	35302.30
667.00	35302.30
667.14	35023.78
667.28	34869.30
667.43	35182.93
667.57	35077.61
667.71	35026.12
667.85	35051.86
667.99	34628.23
668.13	35051.86
668.27	34558.01
668.41	34703.12
668.56	34513.54
668.70	34646.95
668.84	34340.34
668.98	34211.61
669.12	34660.99
669.26	34403.53
669.40	33825.42
669.54	34520.56
669.68	34237.36
669.82	33926.07
669.96	33528.17
670.10	33654.56
670.25	33874.57
670.39	34302.89
670.53	33855.85
670.67	33240.29
670.81	34155.44
670.95	34284.17
671.09	33963.51
671.23	33488.38
671.37	33949.47
671.51	32936.02
671.65	33118.58
671.79	33294.12
671.93	33174.75
672.07	33254.33
672.21	33172.41
672.35	32907.93
672.49	33305.82
672.63	33003.89
672.77	32826.01
672.91	32732.39
673.05	32662.18
673.19	32683.24
673.33	32634.09
673.47	32414.08
673.61	32510.04
673.75	32273.65
673.89	32074.70
674.03	32053.64
674.17	32023.21
674.31	32465.57
674.45	31913.20
674.59	31985.76
674.73	31992.78
674.87	32177.68
675.01	32023.21
675.15	31810.22
675.29	32063.00
675.43	31641.70
675.56	31634.68
675.70	31419.35
675.84	30984.01
675.98	30375.47
676.12	31007.42
676.26	31042.53
676.40	30485.48
676.54	30684.42
676.68	30677.40
676.82	30120.35
676.96	30450.37
677.10	30572.08
677.23	30246.74
677.37	30277.17
677.51	30192.91
677.65	30150.78
677.79	29989.28
677.93	29944.81
678.07	29780.98
678.21	29221.59
678.34	29476.71
678.48	29865.24
678.62	29823.11
678.76	29460.32
678.90	29296.49
679.04	29415.85
679.18	29717.78
679.31	28741.78
679.45	28821.36
679.59	28781.57
679.73	28753.48
679.87	29153.71
680.00	28910.30
680.14	28659.86
680.28	28449.21
680.42	28563.90
680.56	28367.29
680.70	27957.70
680.83	28093.45
680.97	28128.56
681.11	28020.89
681.25	27936.63
681.39	27866.42
681.52	27735.35
681.66	27559.81
681.80	27618.32
681.94	27271.92
682.07	27161.92
682.21	27269.58
682.35	27314.05
682.49	27150.21
682.62	26747.64
682.76	26939.57
682.90	26986.38
683.04	27185.32
683.17	26789.77
683.31	26345.07
683.45	26647.00
683.59	26349.75
683.72	26108.68
683.86	26120.38
684.00	26080.59
684.13	26199.96
684.27	26087.61
684.41	25977.61
684.55	25905.05
684.68	25509.50
684.82	25560.99
684.96	25226.29
685.09	25647.59
685.23	25364.39
685.37	25151.40
685.50	25174.80
685.64	25177.14
685.78	25268.42
685.91	24844.79
686.05	25043.73
686.19	24730.10
686.32	24790.95
686.46	24556.90
686.60	24109.86
686.73	24046.66
686.87	23953.04
687.01	23744.73
687.14	23922.62
687.28	23608.98
687.42	23391.31
687.55	23754.10
687.69	23204.07
687.82	23447.49
687.96	23679.20
688.10	23208.75
688.23	23374.93
688.37	23164.28
688.50	23101.09
688.64	23131.51
688.78	23084.70
688.91	22785.12
689.05	22398.93
689.18	22665.75
689.32	22483.19
689.46	22506.59
689.59	22572.13
689.73	22672.77
689.86	22520.63
690.00	22302.96
690.13	22115.72
690.27	22335.73
690.41	22398.93
690.54	21706.13
690.68	21930.82
690.81	21898.05
690.95	21642.93
691.08	21415.90
691.22	21731.87
691.35	21596.12
691.49	21242.70
691.62	21364.41
691.76	21694.43
691.89	21275.47
692.03	20915.03
692.16	21113.97
692.30	20802.68
692.43	20760.55
692.57	20685.65
692.70	20919.71
692.84	20540.54
692.97	20320.53
693.11	20439.90
693.24	20119.24
693.38	20259.68
693.51	20210.53
693.65	20198.82
693.78	20074.77
693.92	19943.70
694.05	19609.01
694.19	19585.60
694.32	19674.54
694.45	19639.44
694.59	19611.35
694.72	19524.75
694.86	19506.02
694.99	19236.86
695.13	19005.15
695.26	19082.39
695.39	18916.21
695.53	19227.50
695.66	19325.80
695.80	18946.64
695.93	18831.95
696.07	18754.71
696.20	18726.63
696.33	18787.48
696.47	18562.79
696.60	18345.12
696.73	18501.93
696.87	18649.39
697.00	18171.92
697.14	18249.16
697.27	17951.91
697.40	18061.91
697.54	17680.41
697.67	17825.52
697.80	17664.02
697.94	17778.71
698.07	17535.29
698.21	17422.95
698.34	17439.33
698.47	17539.97
698.61	17312.94
698.74	17256.77
698.87	17123.36
699.01	16791.00
699.14	16889.31
699.27	16922.07
699.40	17163.15
699.54	16943.14
699.67	16460.99
699.80	16491.41
699.94	16547.59
700.07	16538.23
700.20	16514.82
700.34	15840.75
700.47	16252.68
700.60	16166.08
700.73	16215.23
700.87	16077.14
701.00	16046.71
701.13	15866.49
701.26	16056.08
701.40	15822.02
701.53	15840.75
701.66	15604.35
701.79	15634.78
701.93	15414.77
702.06	15400.72
702.19	15318.81
702.32	15166.67
702.46	15410.09
702.59	15339.87
702.72	15297.74
702.85	15208.80
702.99	14967.73
703.12	15068.37
703.25	14949.00
703.38	14993.47
703.51	14731.33
703.65	14775.80
703.78	14684.52
703.91	14932.62
704.04	14497.28
704.17	14457.49
704.31	14171.94
704.44	14174.28
704.57	13692.13
704.70	13778.73
704.83	14106.41
704.96	14099.39
705.10	14237.48
705.23	14003.43
>>>>>End Processed Spectral Data<<<<<
