SpectraSuite Data File
++++++++++++++++++++++++++++++++++++
Date: Fri Oct 25 11:34:29 EDT 2013
User: price-jones
Dark Spectrum Present: No
Reference Spectrum Present: No
Number of Sampled Component Spectra: 1
Spectrometers: USB2+H05261
Integration Time (usec): 100000 (USB2+H05261)
Spectra Averaged: 1 (USB2+H05261)
Boxcar Smoothing: 0 (USB2+H05261)
Correct for Electrical Dark: No (USB2+H05261)
Strobe/Lamp Enabled: No (USB2+H05261)
Correct for Detector Non-linearity: No (USB2+H05261)
Correct for Stray Light: No (USB2+H05261)
Number of Pixels in Processed Spectrum: 2048
>>>>>Begin Processed Spectral Data<<<<<
365.73	292.57
365.92	292.57
366.12	292.57
366.32	238.73
366.52	180.22
366.72	208.31
366.91	147.45
367.11	205.97
367.31	173.20
367.51	182.56
367.70	208.31
367.90	220.01
368.10	117.03
368.30	194.26
368.49	131.07
368.69	227.03
368.89	229.37
369.09	273.84
369.28	299.59
369.48	189.58
369.68	201.29
369.87	231.71
370.07	234.05
370.27	278.52
370.47	304.27
370.66	393.21
370.86	521.94
371.06	545.34
371.25	514.92
371.45	475.13
371.65	573.43
371.84	533.64
372.04	524.28
372.24	592.16
372.44	580.45
372.63	594.50
372.83	575.77
373.03	589.82
373.22	610.88
373.42	547.69
373.62	528.96
373.81	620.24
374.01	634.29
374.21	678.76
374.40	683.44
374.60	660.03
374.79	662.37
374.99	746.63
375.19	657.69
375.38	713.86
375.58	662.37
375.78	685.78
375.97	606.20
376.17	683.44
376.37	709.18
376.56	662.37
376.76	681.10
376.95	667.05
377.15	692.80
377.35	706.84
377.54	704.50
377.74	660.03
377.93	741.95
378.13	737.27
378.33	676.41
378.52	645.99
378.72	664.71
378.91	760.67
379.11	671.73
379.31	681.10
379.50	664.71
379.70	718.54
379.89	678.76
380.09	760.67
380.28	777.06
380.48	716.20
380.68	711.52
380.87	716.20
381.07	716.20
381.26	760.67
381.46	851.96
381.65	746.63
381.85	774.72
382.04	777.06
382.24	812.17
382.43	791.10
382.63	704.50
382.83	704.50
383.02	760.67
383.22	758.33
383.41	751.31
383.61	861.32
383.80	784.08
384.00	805.14
384.19	821.53
384.39	781.74
384.58	800.46
384.78	903.45
384.97	858.98
385.17	788.76
385.36	784.08
385.56	739.61
385.75	875.36
385.95	821.53
386.14	835.57
386.34	744.29
386.53	868.34
386.72	805.14
386.92	889.40
387.11	926.85
387.31	842.59
387.50	809.83
387.70	880.04
387.89	828.55
388.09	823.87
388.28	781.74
388.48	901.11
388.67	910.47
388.86	926.85
389.06	924.51
389.25	947.92
389.45	954.94
389.64	978.34
389.84	1034.52
390.03	943.24
390.22	922.17
390.42	910.47
390.61	961.96
390.81	896.43
391.00	924.51
391.19	957.28
391.39	915.15
391.58	1001.75
391.78	994.73
391.97	983.02
392.16	1018.13
392.36	1001.75
392.55	891.74
392.75	1001.75
392.94	983.02
393.13	1013.45
393.33	1064.94
393.52	987.71
393.71	1055.58
393.91	1118.78
394.10	1018.13
394.29	1055.58
394.49	1078.99
394.68	1100.05
394.88	1132.82
395.07	1146.86
395.26	1095.37
395.46	1043.88
395.65	1029.84
395.84	1179.63
396.04	1188.99
396.23	1174.95
396.42	1132.82
396.62	1203.04
396.81	1184.31
397.00	1228.78
397.19	1205.38
397.39	1156.22
397.58	1249.85
397.77	1214.74
397.97	1254.53
398.16	1205.38
398.35	1261.55
398.55	1207.72
398.74	1249.85
398.93	1263.89
399.12	1296.66
399.32	1275.59
399.51	1203.04
399.70	1324.74
399.90	1399.64
400.09	1280.27
400.28	1317.72
400.47	1301.34
400.67	1338.79
400.86	1345.81
401.05	1350.49
401.24	1327.08
401.44	1371.55
401.63	1430.07
401.82	1313.04
402.01	1425.39
402.21	1392.62
402.40	1425.39
402.59	1460.49
402.78	1523.69
402.97	1460.49
403.17	1427.73
403.36	1516.67
403.55	1563.48
403.74	1514.33
403.93	1458.15
404.13	1579.86
404.32	1537.73
404.51	1523.69
404.70	1547.09
404.89	1500.28
405.09	1572.84
405.28	1549.43
405.47	1614.97
405.66	1643.06
405.85	1680.50
406.05	1682.85
406.24	1659.44
406.43	1610.29
406.62	1736.68
406.81	1755.40
407.00	1675.82
407.20	1689.87
407.39	1750.72
407.58	1863.07
407.77	1804.55
407.96	1820.94
408.15	1879.45
408.34	1832.64
408.54	1940.30
408.73	1806.89
408.92	1895.83
409.11	1944.99
409.30	1809.23
409.49	1935.62
409.68	1893.49
409.87	1895.83
410.07	1923.92
410.26	1968.39
410.45	1956.69
410.64	1886.47
410.83	2038.61
411.02	2012.86
411.21	2054.99
411.40	2062.01
411.59	2073.71
411.78	2012.86
411.98	2064.35
412.17	2120.53
412.36	2141.59
412.55	2211.81
412.74	2167.34
412.93	2237.55
413.12	2277.34
413.31	2361.60
413.50	2235.21
413.69	2307.77
413.88	2424.80
414.07	2312.45
414.26	2389.69
414.45	2377.98
414.64	2413.09
414.83	2417.77
415.02	2506.71
415.22	2516.08
415.41	2597.99
415.60	2569.91
415.79	2602.68
415.98	2462.24
416.17	2647.15
416.36	2609.70
416.55	2640.12
416.74	2689.28
416.93	2708.00
417.12	2644.81
417.31	2759.49
417.50	2874.18
417.69	2878.86
417.88	2745.45
418.07	2787.58
418.26	2855.45
418.45	2857.79
418.64	2935.03
418.83	2869.50
419.02	2995.89
419.21	2984.18
419.39	2871.84
419.58	3063.76
419.77	3052.06
419.96	3009.93
420.15	3070.78
420.34	3061.42
420.53	3023.97
420.72	3131.64
420.91	3096.53
421.10	3232.28
421.29	3192.49
421.48	3229.94
421.67	3098.87
421.86	3026.31
422.05	3229.94
422.24	3183.13
422.43	3166.74
422.61	3173.77
422.80	3232.28
422.99	3321.22
423.18	3269.73
423.37	3293.13
423.56	3176.11
423.75	3215.90
423.94	3084.83
424.13	2995.89
424.32	3150.36
424.50	3267.39
424.69	3349.31
424.88	3288.45
425.07	3290.79
425.26	3227.60
425.45	3321.22
425.64	3178.45
425.83	3384.41
426.01	3468.67
426.20	3272.07
426.39	3318.88
426.58	3337.60
426.77	3314.20
426.96	3531.87
427.15	3431.23
427.33	3281.43
427.52	3405.48
427.71	3592.72
427.90	3487.40
428.09	3431.23
428.28	3623.15
428.46	3496.76
428.65	3384.41
428.84	3667.62
429.03	3686.34
429.22	3552.93
429.40	3709.75
429.59	3536.55
429.78	3557.61
429.97	3449.95
430.16	3625.49
430.34	3658.26
430.53	3681.66
430.72	3779.97
430.91	3623.15
431.10	3653.58
431.28	3719.11
431.47	3847.84
431.66	3857.20
431.85	3772.94
432.03	3887.63
432.22	4002.32
432.41	3794.01
432.60	3908.69
432.79	3871.25
432.97	3889.97
433.16	4025.72
433.35	3899.33
433.54	3922.74
433.72	3999.98
433.91	3906.35
434.10	4093.60
434.28	4072.53
434.47	4044.45
434.66	4032.74
434.85	4168.49
435.03	4276.16
435.22	4142.75
435.41	4339.35
435.59	4269.14
435.78	4205.94
435.97	4241.05
436.16	4208.28
436.34	4304.25
436.53	4313.61
436.72	4346.37
436.90	4084.23
437.09	4308.93
437.28	4315.95
437.46	4325.31
437.65	4432.97
437.84	4418.93
438.02	4449.36
438.21	4325.31
438.40	4294.88
438.58	4568.73
438.77	4643.62
438.96	4599.15
439.14	4669.37
439.33	4610.86
439.52	4767.67
439.70	4812.14
439.89	4788.74
440.08	4819.16
440.26	4805.12
440.45	4746.61
440.63	4894.06
440.82	4943.21
441.01	4903.42
441.19	4983.00
441.38	5029.81
441.57	5055.56
441.75	5153.86
441.94	5210.03
442.12	5071.94
442.31	5270.89
442.50	5200.67
442.68	5144.50
442.87	4858.95
443.05	5303.65
443.24	5275.57
443.43	5153.86
443.61	5350.46
443.80	5221.74
443.98	5186.63
444.17	5039.17
444.35	5387.91
444.54	5385.57
444.73	5371.53
444.91	5362.17
445.10	5413.66
445.28	5453.45
445.47	5338.76
445.65	5327.06
445.84	5584.52
446.02	5610.26
446.21	5277.91
446.39	5474.51
446.58	5476.85
446.77	5530.69
446.95	5469.83
447.14	5650.05
447.32	5598.56
447.51	5547.07
447.69	5446.43
447.88	5516.64
448.06	5383.23
448.25	5631.33
448.43	5577.50
448.62	5603.24
448.80	5568.13
448.99	5654.73
449.17	5535.37
449.36	5544.73
449.54	5825.59
449.73	5802.19
449.91	5839.64
450.10	5664.10
450.28	5802.19
450.46	5811.55
450.65	6015.18
450.83	6001.13
451.02	5753.04
451.20	5905.17
451.39	5825.59
451.57	5872.40
451.76	5877.09
451.94	5991.77
452.13	5980.07
452.31	6143.91
452.49	6092.41
452.68	5963.68
452.86	6050.28
453.05	6083.05
453.23	6122.84
453.42	6146.25
453.60	6101.78
453.78	6153.27
453.97	6153.27
454.15	5987.09
454.34	6012.84
454.52	6258.59
454.70	6263.27
454.89	6225.82
455.07	6396.68
455.26	6366.26
455.44	6408.39
455.62	6232.85
455.81	6347.53
455.99	6389.66
456.17	6476.26
456.36	6544.14
456.54	6516.05
456.73	6607.33
456.91	6679.89
457.09	6658.82
457.28	6855.43
457.46	6647.12
457.64	6881.18
457.83	6759.47
458.01	6736.06
458.19	6740.74
458.38	6712.66
458.56	6972.46
458.74	6883.52
458.93	6960.75
459.11	6864.79
459.29	6864.79
459.48	6906.92
459.66	6822.66
459.84	7033.31
460.03	7117.57
460.21	6970.12
460.39	6944.37
460.57	7068.42
460.76	7075.44
460.94	7103.53
461.12	7239.28
461.31	7330.56
461.49	7143.32
461.67	7129.27
461.85	7253.32
462.04	7190.13
462.22	7712.07
462.40	7503.76
462.59	7363.33
462.77	7520.14
462.95	7468.65
463.13	7459.29
463.32	7419.50
463.50	7513.12
463.68	7559.93
463.86	7466.31
464.05	7456.95
464.23	7492.05
464.41	7655.89
464.59	7559.93
464.78	7592.70
464.96	7597.38
465.14	7562.27
465.32	7719.09
465.50	7693.34
465.69	7768.24
465.87	7686.32
466.05	7808.03
466.23	7815.05
466.41	7896.97
466.60	8002.29
466.78	7786.96
466.96	7852.50
467.14	7896.97
467.32	7789.30
467.51	8042.08
467.69	7810.37
467.87	7985.91
468.05	7985.91
468.23	7922.71
468.41	8102.93
468.60	7985.91
468.78	8262.09
468.96	8145.06
469.14	8095.91
469.32	8163.79
469.50	8025.70
469.69	8250.39
469.87	8430.61
470.05	8105.28
470.23	8454.02
470.41	8285.50
470.59	8329.97
470.77	8318.26
470.95	8320.60
471.14	8512.53
471.32	8439.97
471.50	8531.25
471.68	8725.52
471.86	8648.28
472.04	8622.53
472.22	8910.42
472.40	8535.93
472.58	8877.65
472.77	8826.16
472.95	8943.19
473.13	9217.03
473.31	8917.44
473.49	9008.72
473.67	9090.64
473.85	9085.96
474.03	9404.27
474.21	9448.74
474.39	9408.95
474.57	9394.91
474.75	9446.40
474.93	9357.46
475.12	9465.13
475.30	9635.99
475.48	9650.03
475.66	9565.77
475.84	9628.96
476.02	9657.05
476.20	9785.78
476.38	9951.96
476.56	10129.84
476.74	10003.45
476.92	10017.49
477.10	9916.85
477.28	10019.83
477.46	10263.25
477.64	10331.12
477.82	10408.36
478.00	10764.12
478.18	10649.44
478.36	11044.99
478.54	10595.61
478.72	10913.92
478.90	11012.22
479.08	10988.82
479.26	11089.46
479.44	10981.79
479.62	11566.93
479.80	11318.83
479.98	11250.96
480.16	11805.66
480.34	11620.76
480.52	11852.47
480.70	11489.69
480.88	11421.81
481.06	11810.34
481.24	11901.62
481.41	12039.72
481.59	11910.99
481.77	12343.99
481.95	12374.41
482.13	12341.64
482.31	12205.89
482.49	12793.37
482.67	12582.72
482.85	12753.58
483.03	13128.06
483.21	13114.02
483.39	13240.41
483.57	13025.08
483.74	13371.48
483.92	13458.08
484.10	13287.22
484.28	13544.68
484.46	13865.33
484.64	14132.15
484.82	13895.76
485.00	13954.27
485.18	14176.62
485.35	14462.17
485.53	14530.05
485.71	14244.50
485.89	14476.21
486.07	14544.09
486.25	14736.01
486.43	15049.64
486.61	14717.29
486.78	15213.48
486.96	15234.55
487.14	15398.38
487.32	15702.65
487.50	15545.84
487.68	15571.58
487.85	15847.77
488.03	16102.89
488.21	16264.38
488.39	16219.91
488.57	16156.72
488.75	16072.46
488.92	16720.79
489.10	16610.78
489.28	16776.96
489.46	16786.32
489.64	16891.65
489.81	17331.67
489.99	17380.82
490.17	17268.47
490.35	17568.06
490.53	17713.17
490.70	17888.71
490.88	17603.17
491.06	17851.27
491.24	17877.01
491.41	18129.79
491.59	18387.25
491.77	18164.90
491.95	18401.29
492.13	18518.32
492.30	18831.95
492.48	18747.69
492.66	19030.90
492.84	19150.26
493.01	19342.19
493.19	19197.07
493.37	19534.11
493.54	19452.19
493.72	19597.31
493.90	19983.49
494.08	19632.41
494.25	19995.20
494.43	19964.77
494.61	19976.47
494.79	20678.63
494.96	20460.96
495.14	20327.55
495.32	20741.83
495.49	20844.81
495.67	20830.77
495.85	20924.39
496.02	21041.42
496.20	21181.85
496.38	21451.01
496.55	21170.15
496.73	21900.39
496.91	21324.62
497.09	21839.54
497.26	21972.95
497.44	21710.81
497.62	22239.77
497.79	22436.38
497.97	22389.56
498.14	22480.85
498.32	22572.13
498.50	22705.54
498.67	22787.46
498.85	22480.85
499.03	22923.21
499.20	23098.75
499.38	22970.02
499.56	23173.64
499.73	23489.62
499.91	23419.40
500.08	23477.91
500.26	23290.67
500.44	23431.10
500.61	23641.75
500.79	23557.49
500.97	24013.90
501.14	23831.33
501.32	23995.17
501.49	24130.92
501.67	24137.94
501.84	24416.47
502.02	24463.28
502.20	24128.58
502.37	24826.06
502.55	24482.00
502.72	24826.06
502.90	25137.35
503.07	24685.63
503.25	24673.93
503.43	24676.27
503.60	24999.26
503.78	25516.52
503.95	25209.91
504.13	25429.92
504.30	25465.03
504.48	25355.02
504.65	25369.07
504.83	25764.62
505.01	26047.82
505.18	26305.28
505.36	26412.95
505.53	25479.07
505.71	25886.32
505.88	25862.92
506.06	25923.77
506.23	26363.79
506.41	26387.20
506.58	26415.29
506.76	26473.80
506.93	26508.91
507.11	26925.52
507.28	26656.36
507.46	26834.24
507.63	27091.70
507.81	26881.05
507.98	27023.83
508.16	27030.85
508.33	27218.09
508.50	27435.76
508.68	27407.67
508.85	27576.19
509.03	27817.27
509.20	27618.32
509.38	27833.65
509.55	27988.13
509.73	28020.89
509.90	27908.55
510.08	28030.26
510.25	27878.12
510.42	27728.33
510.60	28329.84
510.77	28257.29
510.95	28741.78
511.12	28393.04
511.30	28432.83
511.47	28987.53
511.64	28739.44
511.82	29137.33
511.99	28694.97
512.17	29074.13
512.34	28889.23
512.51	29048.39
512.69	29593.73
512.86	29516.50
513.04	29535.22
513.21	29589.05
513.38	29495.43
513.56	29322.23
513.73	29465.00
513.90	29827.79
514.08	29713.10
514.25	29806.72
514.43	29916.73
514.60	30082.91
514.77	30150.78
514.95	30490.16
515.12	30314.62
515.29	30377.81
515.47	30607.19
515.64	30595.48
515.81	30579.10
515.99	30576.76
516.16	31204.02
516.33	30904.43
516.51	30775.70
516.68	30995.71
516.85	30806.13
517.03	30829.54
517.20	31447.44
517.37	31000.40
517.54	31065.93
517.72	31536.38
517.89	31054.23
518.06	31321.05
518.24	31578.51
518.41	31805.54
518.58	31597.23
518.75	31728.30
518.93	31824.26
519.10	31819.58
519.27	32109.81
519.45	31892.14
519.62	32219.81
519.79	31861.71
519.96	31988.10
520.14	31885.12
520.31	32334.50
520.48	32290.03
520.65	32507.70
520.83	32669.20
521.00	32879.85
521.17	32395.35
521.34	33013.26
521.52	33029.64
521.69	32830.69
521.86	32821.33
522.03	32711.33
522.20	33488.38
522.38	33411.15
522.55	33383.06
522.72	33488.38
522.89	33352.63
523.07	33670.95
523.24	33521.15
523.41	33675.63
523.58	33483.70
523.75	33975.22
523.92	33422.85
524.10	33940.11
524.27	33977.56
524.44	34274.80
524.61	34192.89
524.78	34361.40
524.96	34494.82
525.13	34160.12
525.30	34319.28
525.47	34546.31
525.64	34466.73
525.81	34817.81
525.98	34436.30
526.16	34677.38
526.33	34160.12
526.50	35159.53
526.67	34529.92
526.84	34873.98
527.01	34817.81
527.18	35042.50
527.36	35206.34
527.53	35171.23
527.70	35402.94
527.87	35215.70
528.04	35143.14
528.21	35367.84
528.38	35409.96
528.55	35555.08
528.72	35590.19
528.89	35115.06
529.07	35271.87
529.24	35353.79
529.41	35885.09
529.58	35381.88
529.75	35812.54
529.92	36077.02
530.09	35819.56
530.26	36156.60
530.43	36149.57
530.60	36020.84
530.77	35824.24
530.94	36074.68
531.11	35751.68
531.28	36362.56
531.46	36165.96
531.63	36655.13
531.80	36144.89
531.97	36685.56
532.14	36350.86
532.31	36608.32
532.48	36463.21
532.65	36847.05
532.82	36868.12
532.99	36641.09
533.16	36561.51
533.33	37034.30
533.50	37422.83
533.67	36950.04
533.84	36935.99
534.01	37017.91
534.18	36898.55
534.35	36971.10
534.52	37097.49
534.69	37652.20
534.86	37401.76
535.03	37336.23
535.20	37390.06
535.37	37933.06
535.54	37663.90
535.71	36914.93
535.88	37991.58
536.05	37731.78
536.22	38094.56
536.38	37738.80
536.55	37876.89
536.72	37317.50
536.89	38026.68
537.06	37467.30
537.23	38195.20
537.40	38239.67
537.57	38040.73
537.74	37972.85
537.91	38281.80
538.08	38368.40
538.25	38213.93
538.42	38190.52
538.59	38731.18
538.75	38513.52
538.92	38501.81
539.09	38660.97
539.26	38363.72
539.43	38480.75
539.60	38710.12
539.77	38775.66
539.94	38780.34
540.11	38939.49
540.28	39138.44
540.44	38473.73
540.61	38705.44
540.78	38843.53
540.95	39227.38
541.12	39049.50
541.29	38920.77
541.46	38976.94
541.62	38890.34
541.79	39241.42
541.96	38871.62
542.13	38927.79
542.30	39484.84
542.47	39431.01
542.63	39353.77
542.80	39255.46
542.97	39856.98
543.14	39948.26
543.31	40053.59
543.48	39517.60
543.64	40023.16
543.81	40229.13
543.98	40311.05
544.15	40620.00
544.32	40191.68
544.48	40498.29
544.65	40329.77
544.82	40325.09
544.99	40477.22
545.16	40509.99
545.32	40161.25
545.49	40772.13
545.66	41013.21
545.83	40198.70
546.00	41106.83
546.16	40713.62
546.33	40879.80
546.50	40437.44
546.67	40968.74
546.83	40212.74
547.00	40437.44
547.17	40573.19
547.34	40722.98
547.50	40961.72
547.67	41170.02
547.84	40467.86
548.00	41167.68
548.17	41029.59
548.34	41256.62
548.51	41741.11
548.67	40914.90
548.84	41418.12
549.01	41123.21
549.18	41280.03
549.34	41446.21
549.51	41375.99
549.68	41467.27
549.84	41474.29
550.01	42026.66
550.18	41471.95
550.34	41275.35
550.51	41715.37
550.68	41600.68
550.84	41383.01
551.01	41853.46
551.18	41916.65
551.34	41780.90
551.51	41998.57
551.68	42010.28
551.84	41790.27
552.01	41928.36
552.18	41834.74
552.34	41776.22
552.51	41855.80
552.68	41759.84
552.84	42050.06
553.01	42373.06
553.18	41806.65
553.34	41757.50
553.51	42300.50
553.67	42686.69
553.84	42693.71
554.01	42822.44
554.17	42707.76
554.34	42651.58
554.51	42256.03
554.67	42630.52
554.84	42728.82
555.00	42696.05
555.17	42529.87
555.33	42384.76
555.50	42761.59
555.67	42726.48
555.83	42536.90
556.00	42424.55
556.16	43241.40
556.33	42939.47
556.50	42588.39
556.66	42962.87
556.83	42754.57
556.99	43049.47
557.16	42932.45
557.32	43150.12
557.49	42859.89
557.65	42974.58
557.82	43229.69
557.98	43206.29
558.15	43112.67
558.32	43674.40
558.48	43096.28
558.65	43351.40
558.81	43318.64
558.98	42843.51
559.14	43201.61
559.31	42930.11
559.47	43246.08
559.64	43203.95
559.80	43538.65
559.97	43697.80
560.13	43173.52
560.30	43311.61
560.46	43559.71
560.63	43601.84
560.79	43709.50
560.96	43742.27
561.12	43650.99
561.29	43922.49
561.45	43686.10
561.61	43463.75
561.78	43496.52
561.94	43943.56
562.11	43480.13
562.27	43791.42
562.44	43819.51
562.60	44030.16
562.77	44018.46
562.93	43597.16
563.10	43941.22
563.26	43613.54
563.42	44109.74
563.59	43711.84
563.75	43398.21
563.92	43997.39
564.08	43861.64
564.24	44100.37
564.41	43618.22
564.57	43957.60
564.74	44177.61
564.90	43873.34
565.07	43908.45
565.23	43735.25
565.39	44107.40
565.56	44467.84
565.72	43995.05
565.88	44098.03
566.05	44322.72
566.21	44112.08
566.38	44350.81
566.54	44313.36
566.70	44619.97
566.87	44254.85
567.03	43964.62
567.19	44027.82
567.36	44421.03
567.52	43842.92
567.68	44694.87
567.85	44512.31
568.01	44636.36
568.17	44304.00
568.34	44715.93
568.50	44404.64
568.66	44374.22
568.83	44619.97
568.99	44158.89
569.15	44732.32
569.32	44151.87
569.48	44126.12
569.64	44720.62
569.81	44374.22
569.97	44573.16
570.13	44802.53
570.30	44257.19
570.46	44734.66
570.62	44748.70
570.78	44729.98
570.95	44446.77
571.11	44769.77
571.27	44774.45
571.43	44788.49
571.60	44690.19
571.76	44325.07
571.92	44868.07
572.09	44729.98
572.25	44224.42
572.41	44793.17
572.57	44739.34
572.74	45102.12
572.90	44987.44
573.06	44561.46
573.22	45041.27
573.38	44900.84
573.55	44720.62
573.71	45546.82
573.87	44898.50
574.03	44758.06
574.20	45127.87
574.36	44847.00
574.52	44994.46
574.68	45113.83
574.84	45027.23
575.01	45347.88
575.17	45010.84
575.33	45235.53
575.49	44594.23
575.65	44928.92
575.82	45474.27
575.98	45069.36
576.14	45256.60
576.30	45378.31
576.46	45141.91
576.62	44779.13
576.79	44861.05
576.95	44715.93
577.11	44467.84
577.27	44903.18
577.43	44861.05
577.59	45289.37
577.75	44978.07
577.92	44882.11
578.08	45123.19
578.24	45167.66
578.40	45212.13
578.56	45514.06
578.72	44858.71
578.88	45017.86
579.04	44879.77
579.21	44898.50
579.37	45081.06
579.53	45364.26
579.69	44825.94
579.85	44980.42
580.01	44800.19
580.17	45057.65
580.33	45179.36
580.49	44903.18
580.65	45308.09
580.82	45090.42
580.98	45109.14
581.14	44545.08
581.30	45336.18
581.46	45064.67
581.62	44910.20
581.78	45148.93
581.94	45113.83
582.10	45099.78
582.26	45750.45
582.42	45277.66
582.58	45296.39
582.74	45310.43
582.90	45111.49
583.06	45380.65
583.22	45141.91
583.38	45418.10
583.54	45322.13
583.70	45689.60
583.86	45099.78
584.02	45310.43
584.18	45532.78
584.34	45771.52
584.50	45511.72
584.66	45621.72
584.82	45507.04
584.98	45441.50
585.14	45549.17
585.30	45031.91
585.46	45223.83
585.62	44917.22
585.78	45724.71
585.94	45198.09
586.10	45219.15
586.26	45371.28
586.42	45186.38
586.58	45207.45
586.74	45382.99
586.90	45404.05
587.06	45305.75
587.22	45516.40
587.38	45272.98
587.54	45509.38
587.70	45668.53
587.86	45502.35
588.02	45284.68
588.18	45141.91
588.34	45308.09
588.49	45741.09
588.65	45329.16
588.81	45834.71
588.97	45226.17
589.13	44772.11
589.29	45212.13
589.45	45420.44
589.61	45666.19
589.77	45701.30
589.93	45518.74
590.08	45925.99
590.24	46131.96
590.40	45858.12
590.56	45911.95
590.72	45787.90
590.88	45448.52
591.04	45521.08
591.20	45670.87
591.35	45942.38
591.51	46316.86
591.67	45670.87
591.83	45940.04
591.99	45970.46
592.15	45783.22
592.31	45481.29
592.46	45638.11
592.62	45691.94
592.78	46113.23
592.94	46284.09
593.10	46251.33
593.26	46188.13
593.41	46223.24
593.57	46181.11
593.73	46054.72
593.89	46504.10
594.05	46143.66
594.20	46417.50
594.36	46450.27
594.52	46396.44
594.68	45984.51
594.84	45741.09
594.99	46288.77
595.15	45970.46
595.31	46066.42
595.47	45785.56
595.62	45904.93
595.78	45776.20
595.94	46408.14
596.10	46096.85
596.25	46099.19
596.41	46410.48
596.57	46075.79
596.73	46005.57
596.88	46066.42
597.04	46052.38
597.20	45778.54
597.36	46213.88
597.51	46377.72
597.67	46288.77
597.83	45659.17
597.99	46120.26
598.14	45846.41
598.30	46012.59
598.46	46305.16
598.61	46375.37
598.77	46253.67
598.93	46284.09
599.09	45675.55
599.24	46368.35
599.40	46087.49
599.56	46082.81
599.71	46705.39
599.87	46813.05
600.03	46773.27
600.18	46190.47
600.34	45762.15
600.50	46258.35
600.65	46307.50
600.81	46630.49
600.97	46326.22
601.12	46101.53
601.28	46202.18
601.44	46192.81
601.59	46368.35
601.75	46188.13
601.91	46637.51
602.06	46595.38
602.22	46494.74
602.37	46103.87
602.53	46384.74
602.69	46642.20
602.84	46071.10
603.00	46368.35
603.16	46464.32
603.31	46157.70
603.47	46473.68
603.62	45986.85
603.78	46265.37
603.94	46302.82
604.09	46630.49
604.25	46138.98
604.40	45862.80
604.56	46078.13
604.71	46438.57
604.87	46169.41
605.03	45771.52
605.18	46068.76
605.34	46136.64
605.49	46181.11
605.65	46354.31
605.80	46103.87
605.96	45925.99
606.12	45998.55
606.27	45963.44
606.43	45654.49
606.58	46436.23
606.74	46162.39
606.89	46422.19
607.05	46218.56
607.20	46354.31
607.36	46003.23
607.51	45827.69
607.67	46258.35
607.82	45865.14
607.98	45752.79
608.13	45890.88
608.29	45497.67
608.44	46117.92
608.60	45832.37
608.75	46181.11
608.91	45778.54
609.06	45801.94
609.22	46103.87
609.37	45940.04
609.53	45947.06
609.68	46216.22
609.84	45951.74
609.99	45947.06
610.15	45834.71
610.30	45977.48
610.46	45755.13
610.61	45820.67
610.76	46099.19
610.92	45872.16
611.07	45628.74
611.23	45731.73
611.38	45923.65
611.54	45610.02
611.69	45979.82
611.84	46043.02
612.00	45998.55
612.15	45460.23
612.31	46096.85
612.46	45198.09
612.62	45677.90
612.77	45593.64
612.92	45794.92
613.08	45394.69
613.23	45478.95
613.39	45603.00
613.54	45436.82
613.69	45598.32
613.85	45631.08
614.00	45799.60
614.15	45930.67
614.31	45202.77
614.46	45532.78
614.62	45525.76
614.77	45790.24
614.92	45797.26
615.08	45394.69
615.23	45698.96
615.38	45710.66
615.54	45780.88
615.69	45750.45
615.84	45731.73
616.00	45581.93
616.15	45071.70
616.30	45603.00
616.46	45155.96
616.61	45289.37
616.76	45626.40
616.92	44858.71
617.07	45315.11
617.22	45340.86
617.37	45240.21
617.53	44793.17
617.68	45261.28
617.83	45172.34
617.99	45553.85
618.14	45443.84
618.29	44790.83
618.45	45291.71
618.60	44645.72
618.75	44479.54
618.90	44961.69
619.06	45331.50
619.21	45048.29
619.36	45375.97
619.51	44992.12
619.67	44797.85
619.82	45083.40
619.97	45188.72
620.12	44924.24
620.28	44612.95
620.43	45198.09
620.58	45067.02
620.73	45221.49
620.89	45418.10
621.04	45137.23
621.19	44685.51
621.34	44524.01
621.49	44294.64
621.65	44708.91
621.80	44753.38
621.95	44636.36
622.10	44596.57
622.25	44306.34
622.41	44697.21
622.56	44594.23
622.71	44648.06
622.86	44641.04
623.01	44727.64
623.16	44194.00
623.32	44619.97
623.47	44229.10
623.62	44385.92
623.77	44617.63
623.92	44474.86
624.07	44561.46
624.23	44680.83
624.38	44582.52
624.53	44243.15
624.68	43847.60
624.83	44254.85
624.98	44210.38
625.13	43728.23
625.29	44299.32
625.44	44247.83
625.59	44458.48
625.74	44437.41
625.89	43988.03
626.04	43976.33
626.19	43878.02
626.34	44119.10
626.49	43913.13
626.65	44048.88
626.80	44177.61
626.95	43353.74
627.10	43372.47
627.25	43871.00
627.40	43779.72
627.55	43957.60
627.70	43920.15
627.85	43494.18
628.00	44259.53
628.15	44039.52
628.30	43459.07
628.45	43196.93
628.60	43042.45
628.76	43320.98
628.91	43484.81
629.06	43189.91
629.21	43098.62
629.36	43196.93
629.51	43414.60
629.66	43903.77
629.81	43480.13
629.96	43599.50
630.11	43557.37
630.26	43309.27
630.41	43262.46
630.56	42876.27
630.71	42953.51
630.86	43332.68
631.01	42941.81
631.16	43288.21
631.31	43112.67
631.46	42923.08
631.61	43332.68
631.76	43571.41
631.91	43014.37
632.06	43751.63
632.21	43676.74
632.36	43510.56
632.51	43079.90
632.66	43030.75
632.81	42593.07
632.96	43243.74
633.10	42824.78
633.25	42646.90
633.40	43103.31
633.55	43388.85
633.70	42698.39
633.85	42693.71
634.00	42532.22
634.15	42417.53
634.30	42504.13
634.45	42469.02
634.60	42721.80
634.75	42820.10
634.90	42457.32
635.05	42948.83
635.19	42841.17
635.34	42396.46
635.49	42698.39
635.64	42705.41
635.79	42911.38
635.94	42431.57
636.09	42745.20
636.24	42499.45
636.39	42749.88
636.53	43178.20
636.68	42471.36
636.83	41811.33
636.98	42136.66
637.13	41640.47
637.28	42263.05
637.43	41790.27
637.57	42356.67
637.72	41867.50
637.87	42014.96
638.02	42323.91
638.17	41591.32
638.32	42401.14
638.46	41904.95
638.61	41792.61
638.76	41607.70
638.91	41750.48
639.06	42171.77
639.20	41759.84
639.35	41493.02
639.50	41556.21
639.65	41783.24
639.80	42087.51
639.94	41752.82
640.09	41579.62
640.24	42057.09
640.39	41579.62
640.54	41565.57
640.68	41841.76
640.83	41752.82
640.98	41673.24
641.13	41350.24
641.27	41935.38
641.42	41797.29
641.57	41310.46
641.72	41741.11
641.86	41312.80
642.01	41265.99
642.16	41371.31
642.31	40978.10
642.45	41113.85
642.60	41502.38
642.75	41418.12
642.90	41621.75
643.04	41205.13
643.19	41682.60
643.34	41006.19
643.48	41111.51
643.63	40814.26
643.78	40973.42
643.93	41574.94
644.07	41404.08
644.22	41273.01
644.37	40734.68
644.51	41310.46
644.66	41371.31
644.81	40952.35
644.95	40879.80
645.10	41067.04
645.25	40711.28
645.39	40711.28
645.54	40746.39
645.69	40830.65
645.83	40493.61
645.98	40467.86
646.13	40547.44
646.27	40800.22
646.42	40488.93
646.57	40605.95
646.71	40919.59
646.86	40968.74
647.00	40727.66
647.15	40769.79
647.30	40376.58
647.44	40671.49
647.59	40671.49
647.74	39981.03
647.88	40561.48
648.03	40954.69
648.17	40961.72
648.32	40575.53
648.47	40500.63
648.61	40177.64
648.76	40655.11
648.90	40357.86
649.05	40091.04
649.20	40528.72
649.34	40671.49
649.49	40917.25
649.63	40519.35
649.78	40781.49
649.92	41038.95
650.07	40830.65
650.21	40355.52
650.36	40545.10
650.51	40315.73
650.65	40493.61
650.80	40275.94
650.94	40385.94
651.09	40170.61
651.23	39938.90
651.38	39864.00
651.52	40004.44
651.67	40163.59
651.81	39938.90
651.96	40294.66
652.10	39306.96
652.25	39906.13
652.39	39847.62
652.54	39880.39
652.68	39805.49
652.83	39931.88
652.97	39545.69
653.12	39210.99
653.26	39477.82
653.41	39791.45
653.55	39203.97
653.70	40149.55
653.84	39800.81
653.99	40020.82
654.13	39580.80
654.27	39669.74
654.42	39393.56
654.56	39278.87
654.71	39707.19
654.85	39318.66
655.00	39501.22
655.14	39667.40
655.29	39304.62
655.43	39398.24
655.57	39686.12
655.72	39159.50
655.86	39358.45
656.01	39171.21
656.15	38794.38
656.30	38822.47
656.44	38848.21
656.58	39246.10
656.73	39356.11
656.87	38665.65
657.01	38710.12
657.16	38885.66
657.30	38897.36
657.45	38424.57
657.59	38684.37
657.73	38660.97
657.88	38703.10
658.02	38667.99
658.16	39058.86
658.31	38618.84
658.45	38852.89
658.60	38745.23
658.74	38829.49
658.88	38888.00
659.03	38976.94
659.17	38202.22
659.31	38480.75
659.46	38450.32
659.60	38780.34
659.74	38433.94
659.89	37654.54
660.03	37764.54
660.17	38169.46
660.32	38328.61
660.46	37921.36
660.60	37879.23
660.74	38106.26
660.89	38583.73
661.03	37703.69
661.17	37425.17
661.32	37708.37
661.46	37743.48
661.60	37652.20
661.74	37785.61
661.89	37776.25
662.03	37867.53
662.17	37680.28
662.31	37326.86
662.46	37322.18
662.60	37612.41
662.74	37109.19
662.88	37109.19
663.03	36935.99
663.17	37003.87
663.31	36673.85
663.45	37200.47
663.60	37347.93
663.74	37113.87
663.88	36865.78
664.02	36746.41
664.17	36889.18
664.31	36456.18
664.45	36685.56
664.59	36477.25
664.73	36842.37
664.88	36701.94
665.02	36467.89
665.16	36687.90
665.30	36566.19
665.44	36449.16
665.59	35959.99
665.73	36161.28
665.87	35754.02
666.01	36072.34
666.15	36121.49
666.29	36500.65
666.44	36374.27
666.58	36219.79
666.72	35786.79
666.86	35833.60
667.00	35805.52
667.14	35438.05
667.28	35571.46
667.43	35896.80
667.57	35573.80
667.71	36100.42
667.85	35587.85
667.99	35744.66
668.13	35510.61
668.27	35239.11
668.41	34953.56
668.56	34705.46
668.70	34930.16
668.84	34656.31
668.98	35211.02
669.12	35079.95
669.26	34707.80
669.40	34930.16
669.54	34789.72
669.68	34443.32
669.82	34749.93
669.96	34345.02
670.10	34323.96
670.25	34721.85
670.39	34298.21
670.53	34455.03
670.67	34595.46
670.81	34597.80
670.95	33951.81
671.09	34396.51
671.23	33989.26
671.37	34052.45
671.51	34209.27
671.65	33823.08
671.79	33942.45
671.93	33799.68
672.07	33823.08
672.21	33603.07
672.35	33401.79
672.49	33649.88
672.63	33483.70
672.77	33523.49
672.91	33432.21
673.05	33046.02
673.19	33350.29
673.33	33160.71
673.47	32767.50
673.61	32676.22
673.75	32788.56
673.89	32823.67
674.03	32425.78
674.17	32622.39
674.31	32517.06
674.45	32376.63
674.59	32229.18
674.73	32224.50
674.87	32402.38
675.01	31910.86
675.15	31590.21
675.29	31798.52
675.43	31461.48
675.56	31997.46
675.70	31641.70
675.84	31782.13
675.98	30747.62
676.12	31901.50
676.26	31969.38
676.40	31304.67
676.54	31220.41
676.68	30881.03
676.82	30677.40
676.96	31101.04
677.10	30951.24
677.23	30642.29
677.37	30911.46
677.51	30644.63
677.65	30586.12
677.79	30700.81
677.93	30735.92
678.07	30349.73
678.21	30190.57
678.34	29968.22
678.48	29839.49
678.62	29858.21
678.76	29809.06
678.90	29909.71
679.04	29577.35
679.18	29912.05
679.31	29228.61
679.45	29434.58
679.59	28868.17
679.73	29113.92
679.87	29071.79
680.00	29362.02
680.14	28994.56
680.28	28821.36
680.42	28694.97
680.56	28580.28
680.70	28760.50
680.83	28388.36
680.97	28240.90
681.11	28348.57
681.25	28058.34
681.39	27943.66
681.52	27988.13
681.66	27274.26
681.80	27613.64
681.94	27108.08
682.07	27295.33
682.21	27302.35
682.35	27070.64
682.49	27126.81
682.62	27122.13
682.76	27470.87
682.90	27166.60
683.04	26679.77
683.17	26820.20
683.31	26644.66
683.45	26251.45
683.59	26527.63
683.72	26047.82
683.86	26033.78
684.00	26146.12
684.13	26155.49
684.27	26281.88
684.41	25914.41
684.55	25755.26
684.68	25830.15
684.82	25603.12
684.96	25762.28
685.09	25579.71
685.23	25413.54
685.37	25663.97
685.50	25582.06
685.64	25731.85
685.78	25184.16
685.91	25015.65
686.05	24397.74
686.19	24250.29
686.32	24402.43
686.46	24011.56
686.60	24280.72
686.73	24458.60
686.87	24348.59
687.01	24343.91
687.14	24765.21
687.28	24240.93
687.42	24060.71
687.55	23665.16
687.69	23798.57
687.82	23592.60
687.96	23477.91
688.10	23964.75
688.23	23562.17
688.37	23552.81
688.50	23623.03
688.64	23112.79
688.78	23213.43
688.91	23082.36
689.05	23021.51
689.18	22691.49
689.32	22567.45
689.46	22686.81
689.59	22333.39
689.73	22679.79
689.86	22576.81
690.00	22604.89
690.13	22352.12
690.27	21933.16
690.41	22277.22
690.54	21811.45
690.68	22003.38
690.81	21778.68
690.95	21598.46
691.08	21671.02
691.22	21481.44
691.35	21500.16
691.49	21420.58
691.62	21357.39
691.76	21125.68
691.89	21010.99
692.03	20608.42
692.16	20669.27
692.30	20645.87
692.43	20830.77
692.57	20453.94
692.70	20521.82
692.84	20287.76
692.97	20346.28
693.11	20081.80
693.24	20166.06
693.38	20177.76
693.51	19946.05
693.65	19693.27
693.78	19583.26
693.92	19941.36
694.05	19789.23
694.19	19522.41
694.32	19571.56
694.45	19484.96
694.59	19704.97
694.72	19688.59
694.86	19129.20
694.99	18874.08
695.13	19115.16
695.26	19058.98
695.39	18609.60
695.53	18504.28
695.66	18808.54
695.80	18663.43
695.93	18555.77
696.07	18108.72
696.20	18380.23
696.33	17776.37
696.47	17844.24
696.60	17987.02
696.73	18080.64
696.87	18153.20
697.00	17907.44
697.14	18127.45
697.27	17544.66
697.40	17781.05
697.54	17741.26
697.67	17287.20
697.80	17233.36
697.94	17394.86
698.07	17050.80
698.21	16940.80
698.34	17099.95
698.47	17032.08
698.61	16758.24
698.74	16819.09
698.87	16561.63
699.01	16655.25
699.14	16596.74
699.27	16402.47
699.40	16308.85
699.54	16084.16
699.67	16226.93
699.80	16390.77
699.94	15939.05
700.07	16006.92
700.20	16053.73
700.34	16079.48
700.47	15955.43
700.60	16140.33
700.73	15648.82
700.87	15566.90
701.00	15272.00
701.13	15295.40
701.26	15356.25
701.40	15194.76
701.53	14967.73
701.66	15489.67
701.79	15117.52
701.93	15126.88
702.06	14916.23
702.19	14761.76
702.32	15145.61
702.46	14876.44
702.59	14740.69
702.72	15070.71
702.85	14810.91
702.99	14626.01
703.12	14228.12
703.25	14143.86
703.38	14368.55
703.51	14724.31
703.65	14043.21
703.78	13816.18
703.91	13832.57
704.04	13813.84
704.17	13731.92
704.31	13792.78
704.44	13511.91
704.57	13724.90
704.70	13642.98
704.83	13652.34
704.96	13348.08
705.10	13032.10
705.23	13549.36
>>>>>End Processed Spectral Data<<<<<
