SpectraSuite Data File
++++++++++++++++++++++++++++++++++++
Date: Fri Oct 25 10:43:58 EDT 2013
User: price-jones
Dark Spectrum Present: No
Reference Spectrum Present: No
Number of Sampled Component Spectra: 1
Spectrometers: USB2+H05261
Integration Time (usec): 100000 (USB2+H05261)
Spectra Averaged: 1 (USB2+H05261)
Boxcar Smoothing: 0 (USB2+H05261)
Correct for Electrical Dark: No (USB2+H05261)
Strobe/Lamp Enabled: No (USB2+H05261)
Correct for Detector Non-linearity: No (USB2+H05261)
Correct for Stray Light: No (USB2+H05261)
Number of Pixels in Processed Spectrum: 2048
>>>>>Begin Processed Spectral Data<<<<<
365.73	79.58
365.92	79.58
366.12	79.58
366.32	0.00
366.52	98.30
366.72	65.54
366.91	2.34
367.11	63.19
367.31	0.00
367.51	2.34
367.70	0.00
367.90	39.79
368.10	0.00
368.30	16.38
368.49	0.00
368.69	9.36
368.89	74.90
369.09	49.15
369.28	84.26
369.48	72.56
369.68	58.51
369.87	58.51
370.07	74.90
370.27	124.05
370.47	238.73
370.66	416.62
370.86	367.46
371.06	484.49
371.25	505.56
371.45	482.15
371.65	479.81
371.84	435.34
372.04	437.68
372.24	491.51
372.44	447.04
372.63	524.28
372.83	496.19
373.03	498.53
373.22	479.81
373.42	547.69
373.62	465.77
373.81	550.03
374.01	601.52
374.21	477.47
374.40	564.07
374.60	706.84
374.79	594.50
374.99	599.18
375.19	648.33
375.38	507.90
375.58	564.07
375.78	627.26
375.97	566.41
376.17	557.05
376.37	599.18
376.56	664.71
376.76	662.37
376.95	521.94
377.15	648.33
377.35	655.35
377.54	711.52
377.74	657.69
377.93	601.52
378.13	674.07
378.33	744.29
378.52	606.20
378.72	667.05
378.91	657.69
379.11	617.90
379.31	650.67
379.50	669.39
379.70	692.80
379.89	594.50
380.09	636.63
380.28	751.31
380.48	674.07
380.68	634.29
380.87	697.48
381.07	706.84
381.26	711.52
381.46	699.82
381.65	763.01
381.85	727.91
382.04	746.63
382.24	671.73
382.43	723.23
382.63	720.88
382.83	697.48
383.02	765.36
383.22	739.61
383.41	704.50
383.61	753.65
383.80	767.70
384.00	748.97
384.19	873.02
384.39	683.44
384.58	730.25
384.78	858.98
384.97	809.83
385.17	779.40
385.36	819.19
385.56	809.83
385.75	823.87
385.95	800.46
386.14	877.70
386.34	823.87
386.53	753.65
386.72	821.53
386.92	947.92
387.11	882.38
387.31	868.34
387.50	781.74
387.70	915.15
387.89	891.74
388.09	945.58
388.28	847.27
388.48	844.93
388.67	889.40
388.86	866.00
389.06	954.94
389.25	936.21
389.45	987.71
389.64	999.41
389.84	1032.18
390.03	1090.69
390.22	997.07
390.42	959.62
390.61	1090.69
390.81	978.34
391.00	1046.22
391.19	1139.84
391.39	997.07
391.58	1004.09
391.78	1055.58
391.97	1039.20
392.16	1104.73
392.36	1046.22
392.55	1025.15
392.75	1088.35
392.94	992.39
393.13	1011.11
393.33	1025.15
393.52	1067.28
393.71	1191.33
393.91	1062.60
394.10	1121.12
394.29	1100.05
394.49	1231.12
394.68	1263.89
394.88	1219.42
395.07	1291.98
395.26	1177.29
395.46	1310.70
395.65	1324.74
395.84	1233.46
396.04	1247.51
396.23	1193.67
396.42	1181.97
396.62	1074.31
396.81	1135.16
397.00	1259.21
397.19	1252.19
397.39	1341.13
397.58	1385.60
397.77	1401.98
397.97	1362.19
398.16	1500.28
398.35	1458.15
398.55	1554.12
398.74	1423.05
398.93	1528.37
399.12	1439.43
399.32	1509.65
399.51	1556.46
399.70	1544.75
399.90	1528.37
400.09	1549.43
400.28	1561.14
400.47	1570.50
400.67	1605.61
400.86	1654.76
401.05	1664.12
401.24	1605.61
401.44	1650.08
401.63	1710.93
401.82	1638.38
402.01	1778.81
402.21	1720.29
402.40	1834.98
402.59	1696.89
402.78	1849.02
402.97	1720.29
403.17	1746.04
403.36	1863.07
403.55	1980.09
403.74	1928.60
403.93	1863.07
404.13	1856.04
404.32	1912.22
404.51	1837.32
404.70	1966.05
404.89	1994.14
405.09	1984.77
405.28	1926.26
405.47	1912.22
405.66	1947.33
405.85	1996.48
406.05	1980.09
406.24	2005.84
406.43	1923.92
406.62	2155.63
406.81	2139.25
407.00	2094.78
407.20	2076.06
407.39	2197.76
407.58	2153.29
407.77	2118.18
407.96	2286.70
408.15	2183.72
408.34	2193.08
408.54	2263.30
408.73	2183.72
408.92	2284.36
409.11	2331.17
409.30	2298.41
409.49	2373.30
409.68	2363.94
409.87	2214.15
410.07	2340.54
410.26	2354.58
410.45	2366.28
410.64	2499.69
410.83	2466.92
411.02	2457.56
411.21	2436.50
411.40	2530.12
411.59	2682.25
411.78	2593.31
411.98	2600.34
412.17	2602.68
412.36	2630.76
412.55	2656.51
412.74	2710.34
412.93	2717.36
413.12	2647.15
413.31	2972.48
413.50	2897.58
413.69	2869.50
413.88	2928.01
414.07	2967.80
414.26	3096.53
414.45	3021.63
414.64	3054.40
414.83	3054.40
415.02	3185.47
415.22	3232.28
415.41	3045.04
415.60	3239.30
415.79	3187.81
415.98	3304.84
416.17	3243.98
416.36	3218.24
416.55	3307.18
416.74	3323.56
416.93	3424.20
417.12	3454.63
417.31	3471.01
417.50	3428.88
417.69	3543.57
417.88	3517.83
418.07	3407.82
418.26	3604.42
418.45	3545.91
418.64	3604.42
418.83	3695.71
419.02	3574.00
419.21	3634.85
419.39	3588.04
419.58	3641.87
419.77	3576.34
419.96	3637.19
420.15	3644.21
420.34	3716.77
420.53	3805.71
420.72	3882.95
420.91	3777.62
421.10	3929.76
421.29	3866.56
421.48	3889.97
421.67	3920.40
421.86	3911.04
422.05	3927.42
422.24	3794.01
422.43	3934.44
422.61	4025.72
422.80	3960.19
422.99	4030.40
423.18	3964.87
423.37	4025.72
423.56	3988.27
423.75	4070.19
423.94	3868.91
424.13	3779.97
424.32	3896.99
424.50	3992.95
424.69	4065.51
424.88	4077.21
425.07	4002.32
425.26	3882.95
425.45	3829.12
425.64	3801.03
425.83	3990.61
426.01	4234.03
426.20	4079.55
426.39	3976.57
426.58	4016.36
426.77	3901.67
426.96	4002.32
427.15	4074.87
427.33	4060.83
427.52	3971.89
427.71	4147.43
427.90	4067.85
428.09	4325.31
428.28	4114.66
428.46	4198.92
428.65	4318.29
428.84	4325.31
429.03	4264.46
429.22	4126.36
429.40	4341.69
429.59	4231.69
429.78	3955.51
429.97	4023.38
430.16	4105.30
430.34	4117.00
430.53	4161.47
430.72	4297.22
430.91	4320.63
431.10	4414.25
431.28	4571.07
431.47	4638.94
431.66	4819.16
431.85	4491.49
432.03	4697.46
432.22	4692.77
432.41	4720.86
432.60	4833.21
432.79	4730.22
432.97	4868.31
433.16	4856.61
433.35	4620.22
433.54	4720.86
433.72	4650.64
433.91	4674.05
434.10	4847.25
434.28	4833.21
434.47	4985.34
434.66	4947.89
434.85	4971.30
435.03	4978.32
435.22	4968.96
435.41	5207.69
435.59	5125.77
435.78	5102.37
435.97	5226.42
436.16	5055.56
436.34	5214.71
436.53	5109.39
436.72	5172.58
436.90	5076.62
437.09	5296.63
437.28	5046.20
437.46	5104.71
437.65	5203.01
437.84	5235.78
438.02	5111.73
438.21	5203.01
438.40	5064.92
438.58	5490.90
438.77	5401.96
438.96	5430.04
439.14	5490.90
439.33	5579.84
439.52	5715.59
439.70	5612.60
439.89	5666.44
440.08	5856.02
440.26	5790.49
440.45	5797.51
440.63	5956.66
440.82	6024.54
441.01	5893.47
441.19	6101.78
441.38	6085.39
441.57	6012.84
441.75	6171.99
441.94	6230.51
442.12	6319.45
442.31	6485.62
442.50	6282.00
442.68	6366.26
442.87	6167.31
443.05	6443.49
443.24	6399.02
443.43	6431.79
443.61	6363.92
443.80	6509.03
443.98	6347.53
444.17	6317.11
444.35	6537.12
444.54	6675.21
444.73	6675.21
444.91	6532.44
445.10	6562.86
445.28	6396.68
445.47	6665.85
445.65	6590.95
445.84	6546.48
446.02	6626.06
446.21	6494.99
446.39	6457.54
446.58	6949.05
446.77	6799.26
446.95	6733.72
447.14	6787.55
447.32	6822.66
447.51	6642.44
447.69	6600.31
447.88	6764.15
448.06	6691.59
448.25	6675.21
448.43	6878.83
448.62	6785.21
448.80	6825.00
448.99	6743.08
449.17	7005.22
449.36	6883.52
449.54	6942.03
449.73	7061.40
449.91	7030.97
450.10	7227.57
450.28	7262.68
450.46	7417.16
450.65	7321.20
450.83	7360.98
451.02	7225.23
451.20	7199.49
451.39	7379.71
451.57	7194.81
451.76	7318.86
451.94	7229.91
452.13	7410.14
452.31	7382.05
452.49	7122.25
452.68	7304.81
452.86	7288.43
453.05	7351.62
453.23	7414.82
453.42	7414.82
453.60	7290.77
453.78	7597.38
453.97	7520.14
454.15	7438.22
454.34	7297.79
454.52	7616.10
454.70	7545.89
454.89	7536.52
455.07	7662.91
455.26	7744.83
455.44	7822.07
455.62	7836.11
455.81	7826.75
455.99	7836.11
456.17	7885.26
456.36	7728.45
456.54	8093.57
456.73	7997.61
456.91	8395.50
457.09	8116.98
457.28	8322.94
457.46	7873.56
457.64	8226.98
457.83	8107.62
458.01	8056.12
458.19	8287.84
458.38	8142.72
458.56	8107.62
458.74	8283.16
458.93	8393.16
459.11	8241.03
459.29	8409.54
459.48	8390.82
459.66	8334.65
459.84	8393.16
460.03	8650.62
460.21	8727.86
460.39	8648.28
460.57	8573.38
460.76	8629.56
460.94	8706.79
461.12	8674.03
461.31	8737.22
461.49	8664.66
461.67	8819.14
461.85	8868.29
462.04	8762.97
462.22	8933.82
462.40	8973.61
462.59	9034.47
462.77	8833.18
462.95	8936.17
463.13	9011.06
463.32	8929.14
463.50	9064.89
463.68	9135.11
463.86	8901.06
464.05	8844.88
464.23	8947.87
464.41	9074.26
464.59	9018.08
464.78	9366.82
464.96	9151.49
465.14	9060.21
465.32	9268.52
465.50	9345.76
465.69	9376.19
465.87	9121.07
466.05	9324.69
466.23	9298.95
466.41	9352.78
466.60	9341.08
466.78	9430.02
466.96	9219.37
467.14	9504.92
467.32	9469.81
467.51	9593.86
467.69	9336.40
467.87	9535.34
468.05	9610.24
468.23	9664.07
468.41	9540.02
468.60	9621.94
468.78	9535.34
468.96	9720.24
469.14	9771.74
469.32	9743.65
469.50	9380.87
469.69	9666.41
469.87	9888.76
470.05	9909.83
470.23	9851.31
470.41	10015.15
470.59	10160.27
470.77	10024.51
470.95	9989.41
471.14	10265.59
471.32	9872.38
471.50	10207.08
471.68	10342.83
471.86	10684.55
472.04	10331.12
472.22	10761.78
472.40	10424.75
472.58	10621.35
472.77	10729.02
472.95	10548.79
473.13	10981.79
473.31	10602.63
473.49	10684.55
473.67	10626.03
473.85	10752.42
474.03	10853.06
474.21	11075.42
474.39	11103.50
474.57	11215.85
474.75	11295.43
474.93	11225.21
475.12	11367.98
475.30	11257.98
475.48	11272.02
475.66	11346.92
475.84	11253.30
476.02	11606.72
476.20	11587.99
476.38	11658.21
476.56	12194.19
476.74	11882.90
476.92	11932.05
477.10	11829.07
477.28	12208.23
477.46	12266.75
477.64	12065.46
477.82	12610.81
478.00	12861.24
478.18	12659.96
478.36	12826.14
478.54	12592.08
478.72	12896.35
478.90	13132.75
479.08	13149.13
479.26	13352.76
479.44	13275.52
479.62	13135.09
479.80	13298.92
479.98	13657.03
480.16	13659.37
480.34	13715.54
480.52	13752.99
480.70	13802.14
480.88	13659.37
481.06	14078.32
481.24	14066.62
481.41	14368.55
481.59	14565.15
481.77	14499.62
481.95	14537.07
482.13	14773.46
482.31	14686.86
482.49	15143.27
482.67	14801.55
482.85	15049.64
483.03	15183.06
483.21	15384.34
483.39	15382.00
483.57	15445.20
483.74	15557.54
483.92	15735.42
484.10	15672.23
484.28	15978.84
484.46	16035.01
484.64	16608.44
484.82	16093.52
485.00	16390.77
485.18	16280.77
485.35	16573.33
485.53	16278.43
485.71	16435.24
485.89	16423.54
486.07	16369.71
486.25	16769.94
486.43	16908.03
486.61	17216.98
486.78	17509.55
486.96	17436.99
487.14	17752.96
487.32	17998.72
487.50	18057.23
487.68	18314.69
487.85	18225.75
488.03	18740.67
488.21	18670.45
488.39	18794.50
488.57	18838.97
488.75	18888.12
488.92	19227.50
489.10	19700.29
489.28	19328.14
489.46	19859.45
489.64	19789.23
489.81	20198.82
489.99	20219.89
490.17	20294.79
490.35	20514.80
490.53	20400.11
490.70	20383.73
490.88	20711.40
491.06	20882.26
491.24	20966.52
491.41	20982.90
491.59	21055.46
491.77	20900.98
491.95	20994.61
492.13	21467.39
492.30	21846.56
492.48	21692.08
492.66	21874.65
492.84	21951.88
493.01	22129.77
493.19	22307.65
493.37	22188.28
493.54	22434.03
493.72	22703.20
493.90	22860.01
494.08	22948.95
494.25	23527.06
494.43	23175.98
494.61	23580.90
494.79	23796.23
494.96	23667.50
495.14	23976.45
495.32	23896.87
495.49	23831.33
495.67	24063.05
495.85	24013.90
496.02	24416.47
496.20	24346.25
496.38	24641.16
496.55	24807.34
496.73	25448.64
496.91	25235.66
497.09	25338.64
497.26	25535.24
497.44	25586.74
497.62	25275.45
497.79	25816.11
497.97	25450.99
498.14	25853.56
498.32	25979.95
498.50	25993.99
498.67	26478.48
498.85	26087.61
499.03	26316.98
499.20	26129.74
499.38	26527.63
499.56	26497.20
499.73	26689.13
499.91	26593.17
500.08	26757.00
500.26	26333.37
500.44	26497.20
500.61	26644.66
500.79	27028.51
500.97	27089.36
501.14	27412.35
501.32	26693.81
501.49	27264.90
501.67	27208.73
501.84	27620.66
502.02	27435.76
502.20	27931.95
502.37	28020.89
502.55	28135.58
502.72	28180.05
502.90	28233.88
503.07	28276.01
503.25	28268.99
503.43	28346.23
503.60	27981.10
503.78	28404.74
503.95	28512.41
504.13	28854.12
504.30	28980.51
504.48	28694.97
504.65	29179.46
504.83	28889.23
505.01	29397.13
505.18	29294.14
505.36	29446.28
505.53	29755.23
505.71	29965.88
505.88	29764.59
506.06	29605.44
506.23	29912.05
506.41	29652.25
506.58	30457.39
506.76	30541.65
506.93	30272.49
507.11	30141.42
507.28	30192.91
507.46	29860.55
507.63	30286.53
507.81	30345.05
507.98	30532.29
508.16	30721.87
508.33	31026.14
508.50	30984.01
508.68	31377.22
508.85	31243.81
509.03	31491.91
509.20	31229.77
509.38	31512.97
509.55	31550.42
509.73	31480.21
509.90	31143.17
510.08	31714.26
510.25	31962.36
510.42	31924.91
510.60	31903.84
510.77	31669.79
510.95	32198.75
511.12	32048.96
511.30	32313.44
511.47	32938.36
511.64	32531.11
511.82	32442.17
511.99	32329.82
512.17	32573.24
512.34	32613.02
512.51	32718.35
512.69	32823.67
512.86	32994.53
513.04	33226.24
513.21	32992.19
513.38	32842.40
513.56	33034.32
513.73	32936.02
513.90	33542.22
514.08	33331.57
514.25	33074.11
514.43	33046.02
514.60	33397.10
514.77	33472.00
514.95	34059.48
515.12	33893.30
515.29	34015.01
515.47	34389.49
515.64	34335.66
515.81	34022.03
515.99	34195.23
516.16	33886.28
516.33	33935.43
516.51	34005.64
516.68	33371.36
516.85	33493.07
517.03	33675.63
517.20	34143.74
517.37	34820.15
517.54	34656.31
517.72	34632.91
517.89	34110.97
518.06	34066.50
518.24	34366.09
518.41	34462.05
518.58	34600.14
518.75	34693.76
518.93	35208.68
519.10	34859.94
519.27	35204.00
519.45	35342.09
519.62	35395.92
519.79	35747.00
519.96	35885.09
520.14	35683.81
520.31	35381.88
520.48	35541.03
520.65	35948.29
520.83	36392.99
521.00	36273.62
521.17	36098.08
521.34	36245.54
521.52	36451.50
521.69	36165.96
521.86	36486.61
522.03	36893.86
522.20	36783.86
522.38	36589.59
522.55	36823.65
522.72	36601.30
522.89	36603.64
523.07	37280.05
523.24	36627.04
523.41	37591.34
523.58	36844.71
523.75	37684.97
523.92	37560.92
524.10	37453.25
524.27	37619.43
524.44	37340.91
524.61	37876.89
524.78	38073.49
524.96	37748.16
525.13	37720.07
525.30	37834.76
525.47	37825.40
525.64	37752.84
525.81	37928.38
525.98	38054.77
526.16	37715.39
526.33	37392.40
526.50	37970.51
526.67	37282.39
526.84	37443.89
527.01	37748.16
527.18	38153.07
527.36	38433.94
527.53	38525.22
527.70	38993.32
527.87	38752.25
528.04	38567.35
528.21	38515.86
528.38	38756.93
528.55	39405.26
528.72	39189.93
528.89	39548.03
529.07	39323.34
529.24	38974.60
529.41	39047.16
529.58	39044.82
529.75	39084.61
529.92	39089.29
530.09	38948.85
530.26	39522.29
530.43	39653.36
530.60	39557.39
530.77	39159.50
530.94	40023.16
531.11	39611.23
531.28	40058.27
531.46	40144.87
531.63	40116.78
531.80	39545.69
531.97	39576.12
532.14	39761.02
532.31	39299.94
532.48	39964.65
532.65	39885.07
532.82	39627.61
532.99	39845.28
533.16	39974.01
533.33	40095.72
533.50	40479.57
533.67	40149.55
533.84	39496.54
534.01	40332.11
534.18	39878.05
534.35	40641.06
534.52	40751.07
534.69	40535.74
534.86	40449.14
535.03	40694.89
535.20	41303.43
535.37	41659.20
535.54	41542.17
535.71	41013.21
535.88	41326.84
536.05	40964.06
536.22	41134.92
536.38	40921.93
536.55	40847.03
536.72	40832.99
536.89	40980.44
537.06	40795.54
537.23	41586.64
537.40	41521.10
537.57	41308.11
537.74	41324.50
537.91	41656.85
538.08	41134.92
538.25	41202.79
538.42	41331.52
538.59	41764.52
538.75	41415.78
538.92	41469.61
539.09	41567.91
539.26	41706.01
539.43	41827.71
539.60	41539.83
539.77	41345.56
539.94	42134.32
540.11	41605.36
540.28	42094.53
540.44	41684.94
540.61	41464.93
540.78	41614.72
540.95	41731.75
541.12	41930.70
541.29	42211.56
541.46	41911.97
541.62	42089.85
541.79	42408.17
541.96	41794.95
542.13	42195.18
542.30	41888.57
542.47	42649.24
542.63	42021.98
542.80	42726.48
542.97	43274.16
543.14	43079.90
543.31	42794.36
543.48	42813.08
543.64	43217.99
543.81	43421.62
543.98	43161.82
544.15	43136.07
544.32	43522.26
544.48	43007.34
544.65	43159.48
544.82	43679.08
544.99	43363.11
545.16	43243.74
545.32	42866.91
545.49	43592.48
545.66	43115.01
545.83	43358.42
546.00	43604.18
546.16	43660.35
546.33	43445.02
546.50	43054.15
546.67	43629.93
546.83	43381.83
547.00	43489.49
547.17	43414.60
547.34	43655.67
547.50	43606.52
547.67	43955.26
547.84	43861.64
548.00	43845.26
548.17	44418.69
548.34	43576.09
548.51	44362.51
548.67	43920.15
548.84	43906.11
549.01	44203.36
549.18	43735.25
549.34	44016.11
549.51	44114.42
549.68	44032.50
549.84	44376.56
550.01	44378.90
550.18	43959.94
550.34	44636.36
550.51	44142.50
550.68	44067.61
550.84	43456.73
551.01	44619.97
551.18	44591.89
551.34	44465.50
551.51	45045.95
551.68	45001.48
551.84	44877.43
552.01	44786.15
552.18	44320.38
552.34	44582.52
552.51	44818.92
552.68	44446.77
552.84	44296.98
553.01	44598.91
553.18	44645.72
553.34	44797.85
553.51	44928.92
553.67	44748.70
553.84	45221.49
554.01	45045.95
554.17	44879.77
554.34	44982.76
554.51	44999.14
554.67	44942.97
554.84	45064.67
555.00	44774.45
555.17	45116.17
555.33	45265.96
555.50	44985.10
555.67	45067.02
555.83	44739.34
556.00	45020.20
556.16	45432.14
556.33	44779.13
556.50	45125.53
556.66	45654.49
556.83	44737.00
556.99	45404.05
557.16	45312.77
557.32	45539.80
557.49	45291.71
557.65	45500.01
557.82	45455.54
557.98	45141.91
558.15	45022.54
558.32	45144.25
558.48	45291.71
558.65	45235.53
558.81	44790.83
558.98	45366.60
559.14	45432.14
559.31	45504.70
559.47	45642.79
559.64	45853.44
559.80	45640.45
559.97	45570.23
560.13	45511.72
560.30	45170.00
560.46	45256.60
560.63	45408.73
560.79	45696.62
560.96	45507.04
561.12	45750.45
561.29	45591.30
561.45	45886.20
561.61	45689.60
561.78	45326.81
561.94	45516.40
562.11	45261.28
562.27	45340.86
562.44	45921.31
562.60	45883.86
562.77	45853.44
562.93	45638.11
563.10	45970.46
563.26	45394.69
563.42	45867.48
563.59	45661.51
563.75	45811.31
563.92	45628.74
564.08	45813.65
564.24	45801.94
564.41	46211.54
564.57	45518.74
564.74	45691.94
564.90	45647.47
565.07	45638.11
565.23	45961.10
565.39	46202.18
565.56	46211.54
565.72	45727.05
565.88	45757.47
566.05	45668.53
566.21	45841.73
566.38	45984.51
566.54	45893.22
566.70	46024.29
566.87	46366.01
567.03	46209.20
567.19	46504.10
567.36	46286.43
567.52	45991.53
567.68	46246.65
567.85	45642.79
568.01	45930.67
568.17	45851.09
568.34	46373.03
568.50	46274.73
568.66	45687.26
568.83	45998.55
568.99	45904.93
569.15	46064.08
569.32	45813.65
569.48	45933.01
569.64	46438.57
569.81	46169.41
569.97	45846.41
570.13	46267.71
570.30	45860.46
570.46	45965.78
570.62	46005.57
570.78	45656.83
570.95	46073.45
571.11	46272.39
571.27	45401.71
571.43	45727.05
571.60	46281.75
571.76	46176.43
571.92	46309.84
572.09	46340.27
572.25	45902.59
572.41	46368.35
572.57	46174.09
572.74	46717.09
572.90	46366.01
573.06	46185.79
573.22	46333.24
573.38	46110.89
573.55	45897.91
573.71	46450.27
573.87	46504.10
574.03	46398.78
574.20	46227.92
574.36	45982.16
574.52	46286.43
574.68	46358.99
574.84	46314.52
575.01	45869.82
575.17	46185.79
575.33	45874.50
575.49	46040.68
575.65	46117.92
575.82	46408.14
575.98	46134.30
576.14	46794.33
576.30	46370.69
576.46	46679.64
576.62	46185.79
576.79	46157.70
576.95	45914.29
577.11	46464.32
577.27	46445.59
577.43	46431.55
577.59	46199.83
577.75	45869.82
577.92	45794.92
578.08	46405.80
578.24	45897.91
578.40	46096.85
578.56	46368.35
578.72	46319.20
578.88	46436.23
579.04	46218.56
579.21	46068.76
579.37	46639.86
579.53	46354.31
579.69	46167.07
579.85	46464.32
580.01	46422.19
580.17	46354.31
580.33	46277.07
580.49	46457.29
580.65	46394.10
580.82	46504.10
580.98	46363.67
581.14	46415.16
581.30	46824.76
581.46	46817.74
581.62	46426.87
581.78	46300.48
581.94	46808.37
582.10	46693.69
582.26	46705.39
582.42	46387.08
582.58	46883.27
582.74	46295.80
582.90	46527.51
583.06	46527.51
583.22	46560.28
583.38	46686.67
583.54	46965.19
583.70	46560.28
583.86	46644.54
584.02	46642.20
584.18	46321.54
584.34	46452.61
584.50	46471.34
584.66	46600.07
584.82	45785.56
584.98	46536.87
585.14	46689.01
585.30	46171.75
585.46	46337.93
585.62	46174.09
585.78	46279.41
585.94	45921.31
586.10	46227.92
586.26	46326.22
586.42	46742.84
586.58	46302.82
586.74	46665.60
586.90	46583.68
587.06	46244.30
587.22	46337.93
587.38	46330.90
587.54	46653.90
587.70	46387.08
587.86	46466.66
588.02	46403.46
588.18	46473.68
588.34	46106.21
588.49	46150.68
588.65	45565.55
588.81	45528.10
588.97	46169.41
589.13	46218.56
589.29	46199.83
589.45	46396.44
589.61	46213.88
589.77	46368.35
589.93	46185.79
590.08	46628.15
590.24	46707.73
590.40	46677.30
590.56	46824.76
590.72	46466.66
590.88	46529.85
591.04	46529.85
591.20	46934.76
591.35	46770.93
591.51	46925.40
591.67	47014.34
591.83	46483.04
591.99	46356.65
592.15	46490.06
592.31	46248.99
592.46	46609.43
592.62	46639.86
592.78	46667.94
592.94	46831.78
593.10	46536.87
593.26	46356.65
593.41	46447.93
593.57	46574.32
593.73	46483.04
593.89	46525.17
594.05	46483.04
594.20	46660.92
594.36	46749.86
594.52	46532.19
594.68	46405.80
594.84	46738.16
594.99	46864.55
595.15	46768.58
595.31	46499.42
595.47	47033.07
595.62	46614.11
595.78	46714.75
595.94	46672.62
596.10	46944.12
596.25	46815.40
596.41	46777.95
596.57	46733.48
596.73	46951.15
596.88	46593.04
597.04	46766.24
597.20	46686.67
597.36	46529.85
597.51	46934.76
597.67	46445.59
597.83	46801.35
597.99	47026.04
598.14	46562.62
598.30	46490.06
598.46	46557.94
598.61	46380.06
598.77	46358.99
598.93	46646.88
599.09	47035.41
599.24	46880.93
599.40	46499.42
599.56	47044.77
599.71	46965.19
599.87	46862.21
600.03	46178.77
600.18	46579.00
600.34	46354.31
600.50	46461.97
600.65	46958.17
600.81	46824.76
600.97	46597.73
601.12	46871.57
601.28	46686.67
601.44	46153.02
601.59	46579.00
601.75	46087.49
601.91	46719.43
602.06	46431.55
602.22	46883.27
602.37	46696.03
602.53	46209.20
602.69	46906.68
602.84	46391.76
603.00	46534.53
603.16	46536.87
603.31	46335.59
603.47	46562.62
603.62	46721.77
603.78	46721.77
603.94	47196.90
604.09	46735.82
604.25	46916.04
604.40	46450.27
604.56	46660.92
604.71	46630.49
604.87	46768.58
605.03	46522.83
605.18	46492.40
605.34	46483.04
605.49	46305.16
605.65	46653.90
605.80	46635.17
605.96	46527.51
606.12	46518.15
606.27	47016.68
606.43	46319.20
606.58	46590.70
606.74	46178.77
606.89	46398.78
607.05	46279.41
607.20	46501.76
607.36	46459.63
607.51	46415.16
607.67	46653.90
607.82	46653.90
607.98	46110.89
608.13	45876.84
608.29	46279.41
608.44	46043.02
608.60	45736.41
608.75	46012.59
608.91	46541.55
609.06	46307.50
609.22	46440.91
609.37	45909.61
609.53	46160.05
609.68	46136.64
609.84	45605.34
609.99	46043.02
610.15	45780.88
610.30	45724.71
610.46	45502.35
610.61	46026.63
610.76	45855.78
610.92	45886.20
611.07	46307.50
611.23	45773.86
611.38	46078.13
611.54	45909.61
611.69	45755.13
611.84	45703.64
612.00	45228.51
612.15	45219.15
612.31	45652.15
612.46	45769.18
612.62	46232.60
612.77	45888.54
612.92	45914.29
613.08	45680.24
613.23	45413.41
613.39	45689.60
613.54	45209.79
613.69	45537.46
613.85	45193.40
614.00	45610.02
614.15	45537.46
614.31	45691.94
614.46	45287.03
614.62	45743.43
614.77	45621.72
614.92	45680.24
615.08	45188.72
615.23	45357.24
615.38	45151.27
615.54	44814.24
615.69	45052.97
615.84	44744.02
616.00	45492.99
616.15	45525.76
616.30	45127.87
616.46	45041.27
616.61	44772.11
616.76	45270.64
616.92	45097.44
617.07	44933.60
617.22	45146.59
617.37	45202.77
617.53	45310.43
617.68	45195.74
617.83	45333.84
617.99	45013.18
618.14	44856.37
618.29	45155.96
618.45	44437.41
618.60	44954.67
618.75	44694.87
618.90	44154.21
619.06	44554.44
619.21	44491.24
619.36	44924.24
619.51	44868.07
619.67	44823.60
619.82	44662.10
619.97	44582.52
620.12	44692.53
620.28	44357.83
620.43	44467.84
620.58	44474.86
620.73	44528.69
620.89	44952.33
621.04	44687.85
621.19	44416.35
621.34	44797.85
621.49	44318.04
621.65	44170.59
621.80	44505.29
621.95	43943.56
622.10	43969.30
622.25	43737.59
622.41	44198.68
622.56	44626.99
622.71	44093.35
622.86	44027.82
623.01	44495.92
623.16	43887.39
623.32	44030.16
623.47	44051.22
623.62	44165.91
623.77	44123.78
623.92	43999.73
624.07	43981.01
624.23	43995.05
624.38	43688.44
624.53	43793.76
624.68	43873.34
624.83	43814.83
624.98	43800.79
625.13	43206.29
625.29	43395.87
625.44	43292.89
625.59	43533.96
625.74	43372.47
625.89	43672.06
626.04	43325.66
626.19	43236.72
626.34	43159.48
626.49	43370.13
626.65	43423.96
626.80	43763.34
626.95	43082.24
627.10	43103.31
627.25	42909.04
627.40	43208.63
627.55	42808.40
627.70	42850.53
627.85	42674.99
628.00	42766.27
628.15	43058.84
628.30	42803.72
628.45	43061.18
628.60	43147.78
628.76	43091.60
628.91	42843.51
629.06	42862.23
629.21	42546.26
629.36	42618.81
629.51	42363.70
629.66	42693.71
629.81	42267.73
629.96	42595.41
630.11	42967.55
630.26	43047.13
630.41	42916.06
630.56	42387.10
630.71	42401.14
630.86	42445.62
631.01	42583.71
631.16	42808.40
631.31	42181.13
631.46	41935.38
631.61	41984.53
631.76	42220.92
631.91	42176.45
632.06	42574.34
632.21	42267.73
632.36	42703.07
632.51	42237.31
632.66	42061.77
632.81	41865.16
632.96	42349.65
633.10	42113.26
633.25	42134.32
633.40	42230.29
633.55	42349.65
633.70	41907.29
633.85	42181.13
634.00	42239.65
634.15	42113.26
634.30	41706.01
634.45	41675.58
634.60	41755.16
634.75	42047.72
634.90	41799.63
635.05	41855.80
635.19	41521.10
635.34	41539.83
635.49	41949.42
635.64	41713.03
635.79	41244.92
635.94	41750.48
636.09	41507.06
636.24	41457.91
636.39	41261.30
636.53	41364.29
636.68	41329.18
636.83	41336.20
636.98	41570.25
637.13	41301.09
637.28	41734.09
637.43	41406.42
637.57	41394.71
637.72	41652.17
637.87	41406.42
638.02	41640.47
638.17	41366.63
638.32	41195.77
638.46	41226.20
638.61	41486.00
638.76	41088.10
638.91	40765.11
639.06	40879.80
639.20	41174.70
639.35	40989.80
639.50	40739.36
639.65	41085.76
639.80	41221.52
639.94	40671.49
640.09	40591.91
640.24	40814.26
640.39	40847.03
640.54	40645.74
640.68	40463.18
640.83	40917.25
640.98	40666.81
641.13	40575.53
641.27	40767.45
641.42	40402.33
641.57	40861.07
641.72	40374.24
641.86	40882.14
642.01	39732.93
642.16	40336.79
642.31	39929.54
642.45	40395.31
642.60	40168.27
642.75	40264.24
642.90	40252.53
643.04	40046.57
643.19	40250.19
643.34	40165.93
643.48	40020.82
643.63	40044.23
643.78	40231.47
643.93	40350.84
644.07	39828.90
644.22	39971.67
644.37	39817.19
644.51	40194.02
644.66	39892.09
644.81	39880.39
644.95	40053.59
645.10	40219.77
645.25	40217.43
645.39	39903.79
645.54	39660.38
645.69	39800.81
645.83	39812.51
645.98	39545.69
646.13	39931.88
646.27	40264.24
646.42	39859.32
646.57	39552.71
646.71	39601.86
646.86	39405.26
647.00	39606.55
647.15	39934.22
647.30	39461.43
647.44	39285.89
647.59	39655.70
647.74	39407.60
647.88	39313.98
648.03	39707.19
648.17	39501.22
648.32	39014.39
648.47	39435.69
648.61	38611.82
648.76	39559.73
648.90	39700.17
649.05	39145.46
649.20	39213.34
649.34	39316.32
649.49	39056.52
649.63	39159.50
649.78	38843.53
649.92	38909.07
650.07	39309.30
650.21	39117.37
650.36	39192.27
650.51	38993.32
650.65	39491.86
650.80	39512.92
650.94	39386.54
651.09	39381.85
651.23	38850.55
651.38	39075.24
651.52	38649.27
651.67	38452.66
651.81	38806.08
651.96	39124.40
652.10	38567.35
652.25	38621.18
652.39	39000.35
652.54	38373.08
652.68	38855.23
652.83	38653.95
652.97	38930.13
653.12	38880.98
653.26	38588.41
653.41	38787.36
653.55	38164.78
653.70	38565.01
653.84	38504.15
653.99	37940.08
654.13	38190.52
654.27	37832.42
654.42	38412.87
654.56	38031.36
654.71	38452.66
654.85	38108.60
655.00	37762.20
655.14	37853.48
655.29	37654.54
655.43	37586.66
655.57	37804.33
655.72	37479.00
655.86	37036.64
656.01	37666.24
656.15	37401.76
656.30	37486.02
656.44	37277.71
656.58	37336.23
656.73	37867.53
656.87	37415.80
657.01	37708.37
657.16	37462.61
657.30	36954.72
657.45	36931.31
657.59	37401.76
657.73	37195.79
657.88	37984.55
658.02	37619.43
658.16	37280.05
658.31	37682.62
658.45	37511.77
658.60	37179.41
658.74	37593.68
658.88	37308.14
659.03	37223.88
659.17	37067.06
659.31	36968.76
659.46	37212.18
659.60	37053.02
659.74	37177.07
659.89	36732.37
660.03	37160.69
660.17	37282.39
660.32	36823.65
660.46	37273.03
660.60	37006.21
660.74	36725.35
660.89	36912.59
661.03	36268.94
661.17	36601.30
661.32	36666.83
661.46	36318.09
661.60	36460.87
661.74	36369.58
661.89	36528.74
662.03	36517.04
662.17	36240.86
662.31	36378.95
662.46	36587.25
662.60	36320.43
662.74	36430.44
662.88	36266.60
663.03	35784.45
663.17	35660.40
663.31	35590.19
663.45	35704.87
663.60	35943.61
663.74	35615.93
663.88	35854.67
664.02	35634.66
664.17	35735.30
664.31	35271.87
664.45	35477.84
664.59	35543.38
664.73	35452.09
664.88	35601.89
665.02	35110.38
665.16	35412.31
665.30	34822.49
665.44	35161.87
665.59	34979.31
665.73	34389.49
665.87	35021.44
666.01	35248.47
666.15	35414.65
666.29	34941.86
666.44	34859.94
666.58	34803.77
666.72	34424.60
666.86	34712.49
667.00	34934.84
667.14	34253.74
667.28	34396.51
667.43	34469.07
667.57	34628.23
667.71	34267.78
667.85	34096.92
667.99	34431.62
668.13	34675.04
668.27	34117.99
668.41	34600.14
668.56	34120.33
668.70	34464.39
668.84	33656.90
668.98	33708.40
669.12	34094.58
669.26	33486.04
669.40	33556.26
669.54	33263.69
669.68	33776.27
669.82	33104.54
669.96	33240.29
670.10	33237.95
670.25	33406.47
670.39	32744.09
670.53	33048.36
670.67	33338.59
670.81	33153.69
670.95	32952.40
671.09	33270.72
671.23	32917.29
671.37	32797.93
671.51	32467.91
671.65	32554.51
671.79	32566.21
671.93	32587.28
672.07	32650.47
672.21	32383.65
672.35	32393.01
672.49	32315.78
672.63	32844.74
672.77	32114.49
672.91	32231.52
673.05	32081.72
673.19	31901.50
673.33	31627.66
673.47	31768.09
673.61	31735.32
673.75	31646.38
673.89	31442.76
674.03	31241.47
674.17	31732.98
674.31	31166.57
674.45	31211.04
674.59	31299.98
674.73	31751.71
674.87	31449.78
675.01	30874.01
675.15	31131.47
675.29	31124.44
675.43	30892.73
675.56	30822.51
675.70	30707.83
675.84	30803.79
675.98	30085.25
676.12	30665.70
676.26	30808.47
676.40	30340.36
676.54	30965.29
676.68	30396.54
676.82	30059.50
676.96	30209.29
677.10	29780.98
677.23	30071.20
677.37	29762.25
677.51	29780.98
677.65	29699.06
677.79	29156.05
677.93	29457.98
678.07	29170.10
678.21	28795.61
678.34	29202.86
678.48	28596.67
678.62	29010.94
678.76	29144.35
678.90	28355.59
679.04	28783.91
679.18	28524.11
679.31	28346.23
679.45	28446.87
679.59	28056.00
679.73	28151.96
679.87	28219.84
680.00	27885.14
680.14	27978.76
680.28	28283.03
680.42	27889.82
680.56	27796.20
680.70	27587.89
680.83	27735.35
680.97	27391.29
681.11	27676.83
681.25	27311.71
681.39	26995.74
681.52	27428.74
681.66	27218.09
681.80	26913.82
681.94	26885.73
682.07	26960.63
682.21	26815.52
682.35	26602.53
682.49	26808.50
682.62	26125.06
682.76	26010.37
682.90	26579.12
683.04	26141.44
683.17	26347.41
683.31	26148.46
683.45	25769.30
683.59	25841.85
683.72	25799.73
683.86	25579.71
684.00	25769.30
684.13	25748.23
684.27	25605.46
684.41	25249.70
684.55	25373.75
684.68	25289.49
684.82	25310.55
684.96	25090.54
685.09	25181.82
685.23	25113.95
685.37	25125.65
685.50	24933.73
685.64	24900.96
685.78	24690.31
685.91	24601.37
686.05	24566.26
686.19	23805.59
686.32	24196.46
686.46	23711.97
686.60	23365.57
686.73	23688.56
686.87	23398.34
687.01	23344.50
687.14	23126.83
687.28	22895.12
687.42	23321.10
687.55	23271.95
687.69	23307.05
687.82	23236.84
687.96	23213.43
688.10	22848.31
688.23	22621.28
688.37	22551.06
688.50	22665.75
688.64	22721.92
688.78	22541.70
688.91	22438.72
689.05	22185.94
689.18	22214.02
689.32	22366.16
689.46	22518.29
689.59	21994.01
689.73	22291.26
689.86	21937.84
690.00	21701.45
690.13	21722.51
690.27	21757.62
690.41	21591.44
690.54	21539.95
690.68	21170.15
690.81	21289.51
690.95	21399.52
691.08	21406.54
691.22	21289.51
691.35	21095.25
691.49	21137.38
691.62	20870.56
691.76	21036.74
691.89	20980.56
692.03	20680.97
692.16	20884.60
692.30	20795.66
692.43	20229.25
692.57	20327.55
692.70	20168.40
692.84	19999.88
692.97	19997.54
693.11	19946.05
693.24	20084.14
693.38	19711.99
693.51	19744.76
693.65	20025.62
693.78	19719.01
693.92	19873.49
694.05	19545.81
694.19	19321.12
694.32	19276.65
694.45	19386.66
694.59	19159.63
694.72	19211.12
694.86	19124.52
694.99	18853.02
695.13	18885.78
695.26	18691.52
695.39	18747.69
695.53	18630.66
695.66	18773.44
695.80	18515.98
695.93	18649.39
696.07	18754.71
696.20	18504.28
696.33	18387.25
696.47	18167.24
696.60	18043.19
696.73	18071.28
696.87	18050.21
697.00	18068.94
697.14	17937.87
697.27	17898.08
697.40	17591.47
697.54	17525.93
697.67	17572.74
697.80	17521.25
697.94	17046.12
698.07	17085.91
698.21	17081.23
698.34	16861.22
698.47	17118.68
698.61	16769.94
698.74	16837.81
698.87	16695.04
699.01	16713.77
699.14	16381.41
699.27	16198.85
699.40	16374.39
699.54	16287.79
699.67	16353.32
699.80	16278.43
699.94	16032.67
700.07	15974.16
700.20	16381.41
700.34	16098.20
700.47	16086.50
700.60	15999.90
700.73	16278.43
700.87	15798.62
701.00	15573.92
701.13	15676.91
701.26	15234.55
701.40	15564.56
701.53	15199.44
701.66	15325.83
701.79	15101.14
701.93	15161.99
702.06	14977.09
702.19	14792.19
702.32	14918.57
702.46	14956.02
702.59	14977.09
702.72	15194.76
702.85	14855.38
702.99	14813.25
703.12	14466.85
703.25	14431.74
703.38	14413.02
703.51	14394.29
703.65	14429.40
703.78	14494.94
703.91	14281.95
704.04	14193.01
704.17	14188.33
704.31	13914.48
704.44	13893.42
704.57	13783.41
704.70	13867.67
704.83	13745.97
704.96	13645.32
705.10	13930.87
705.23	13886.40
>>>>>End Processed Spectral Data<<<<<
