SpectraSuite Data File
++++++++++++++++++++++++++++++++++++
Date: Fri Oct 25 11:34:10 EDT 2013
User: price-jones
Dark Spectrum Present: No
Reference Spectrum Present: No
Number of Sampled Component Spectra: 1
Spectrometers: USB2+H05261
Integration Time (usec): 100000 (USB2+H05261)
Spectra Averaged: 1 (USB2+H05261)
Boxcar Smoothing: 0 (USB2+H05261)
Correct for Electrical Dark: No (USB2+H05261)
Strobe/Lamp Enabled: No (USB2+H05261)
Correct for Detector Non-linearity: No (USB2+H05261)
Correct for Stray Light: No (USB2+H05261)
Number of Pixels in Processed Spectrum: 2048
>>>>>Begin Processed Spectral Data<<<<<
365.73	285.55
365.92	285.55
366.12	285.55
366.32	166.18
366.52	191.92
366.72	121.71
366.91	142.77
367.11	170.86
367.31	154.48
367.51	215.33
367.70	154.48
367.90	252.78
368.10	173.20
368.30	210.65
368.49	105.32
368.69	138.09
368.89	236.39
369.09	170.86
369.28	168.52
369.48	198.95
369.68	212.99
369.87	255.12
370.07	217.67
370.27	234.05
370.47	283.20
370.66	458.74
370.86	571.09
371.06	498.53
371.25	496.19
371.45	573.43
371.65	533.64
371.84	547.69
372.04	589.82
372.24	564.07
372.44	587.47
372.63	645.99
372.83	564.07
373.03	636.63
373.22	575.77
373.42	580.45
373.62	655.35
373.81	617.90
374.01	615.56
374.21	662.37
374.40	631.94
374.60	678.76
374.79	648.33
374.99	627.26
375.19	631.94
375.38	678.76
375.58	592.16
375.78	601.52
375.97	671.73
376.17	674.07
376.37	667.05
376.56	671.73
376.76	631.94
376.95	627.26
377.15	660.03
377.35	753.65
377.54	692.80
377.74	704.50
377.93	739.61
378.13	723.23
378.33	730.25
378.52	695.14
378.72	739.61
378.91	688.12
379.11	793.44
379.31	671.73
379.50	678.76
379.70	650.67
379.89	847.27
380.09	734.93
380.28	662.37
380.48	716.20
380.68	634.29
380.87	741.95
381.07	716.20
381.26	732.59
381.46	697.48
381.65	720.88
381.85	779.40
382.04	732.59
382.24	772.38
382.43	753.65
382.63	828.55
382.83	739.61
383.02	798.12
383.22	819.19
383.41	774.72
383.61	774.72
383.80	807.48
384.00	812.17
384.19	788.76
384.39	833.23
384.58	833.23
384.78	814.51
384.97	816.85
385.17	777.06
385.36	901.11
385.56	786.42
385.75	760.67
385.95	774.72
386.14	861.32
386.34	765.36
386.53	844.93
386.72	840.25
386.92	851.96
387.11	901.11
387.31	868.34
387.50	868.34
387.70	798.12
387.89	903.45
388.09	828.55
388.28	901.11
388.48	898.77
388.67	931.53
388.86	905.79
389.06	959.62
389.25	903.45
389.45	936.21
389.64	901.11
389.84	1018.13
390.03	992.39
390.22	983.02
390.42	901.11
390.61	987.71
390.81	971.32
391.00	1062.60
391.19	1029.84
391.39	973.66
391.58	985.37
391.78	999.41
391.97	1034.52
392.16	952.60
392.36	1025.15
392.55	964.30
392.75	1088.35
392.94	1062.60
393.13	1057.92
393.33	994.73
393.52	1004.09
393.71	1118.78
393.91	1125.80
394.10	1118.78
394.29	1097.71
394.49	1078.99
394.68	1076.65
394.88	1116.44
395.07	1174.95
395.26	1095.37
395.46	1128.14
395.65	1200.69
395.84	1193.67
396.04	1207.72
396.23	1151.54
396.42	1149.20
396.62	1196.01
396.81	1196.01
397.00	1163.25
397.19	1268.57
397.39	1228.78
397.58	1277.93
397.77	1275.59
397.97	1268.57
398.16	1123.46
398.35	1270.91
398.55	1217.08
398.74	1165.59
398.93	1345.81
399.12	1247.51
399.32	1289.64
399.51	1343.47
399.70	1390.28
399.90	1364.53
400.09	1348.15
400.28	1308.36
400.47	1315.38
400.67	1467.52
400.86	1315.38
401.05	1348.15
401.24	1385.60
401.44	1476.88
401.63	1385.60
401.82	1401.98
402.01	1362.19
402.21	1472.20
402.40	1493.26
402.59	1406.66
402.78	1423.05
402.97	1495.60
403.17	1495.60
403.36	1432.41
403.55	1589.22
403.74	1516.67
403.93	1652.42
404.13	1612.63
404.32	1577.52
404.51	1598.59
404.70	1776.47
404.89	1542.41
405.09	1575.18
405.28	1675.82
405.47	1708.59
405.66	1701.57
405.85	1652.42
406.05	1732.00
406.24	1657.10
406.43	1706.25
406.62	1664.12
406.81	1842.00
407.00	1715.61
407.20	1678.16
407.39	1870.09
407.58	1809.23
407.77	1837.32
407.96	1811.57
408.15	1778.81
408.34	1813.92
408.54	1820.94
408.73	1942.64
408.92	1823.28
409.11	1966.05
409.30	1895.83
409.49	1856.04
409.68	1966.05
409.87	1963.71
410.07	2043.29
410.26	2043.29
410.45	2092.44
410.64	2125.21
410.83	2092.44
411.02	2033.93
411.21	2204.78
411.40	2129.89
411.59	2207.13
411.78	2230.53
411.98	2195.42
412.17	2279.68
412.36	2134.57
412.55	2211.81
412.74	2230.53
412.93	2165.00
413.12	2256.28
413.31	2291.38
413.50	2429.48
413.69	2319.47
413.88	2370.96
414.07	2354.58
414.26	2541.82
414.45	2431.82
414.64	2485.65
414.83	2389.69
415.02	2546.50
415.22	2663.53
415.41	2567.57
415.60	2609.70
415.79	2649.49
415.98	2665.87
416.17	2792.26
416.36	2553.52
416.55	2644.81
416.74	2745.45
416.93	2738.43
417.12	2586.29
417.31	2829.71
417.50	2810.98
417.69	2892.90
417.88	2883.54
418.07	2792.26
418.26	2906.95
418.45	2918.65
418.64	2998.23
418.83	2988.86
419.02	2918.65
419.21	3080.14
419.39	2944.39
419.58	2899.92
419.77	3110.57
419.96	3028.65
420.15	3141.00
420.34	3084.83
420.53	3124.62
420.72	3138.66
420.91	3192.49
421.10	3276.75
421.29	3255.69
421.48	3187.81
421.67	3227.60
421.86	3197.17
422.05	3258.03
422.24	3171.43
422.43	3274.41
422.61	3391.44
422.80	3295.47
422.99	3304.84
423.18	3382.07
423.37	3384.41
423.56	3316.54
423.75	3295.47
423.94	3227.60
424.13	3115.25
424.32	3204.19
424.50	3316.54
424.69	3412.50
424.88	3463.99
425.07	3391.44
425.26	3332.92
425.45	3440.59
425.64	3494.42
425.83	3342.28
426.01	3513.14
426.20	3419.52
426.39	3471.01
426.58	3407.82
426.77	3407.82
426.96	3595.06
427.15	3489.74
427.33	3412.50
427.52	3510.80
427.71	3529.53
427.90	3552.93
428.09	3597.40
428.28	3588.04
428.46	3595.06
428.65	3730.81
428.84	3686.34
429.03	3684.00
429.22	3655.92
429.40	3819.75
429.59	3676.98
429.78	3637.19
429.97	3592.72
430.16	3744.86
430.34	3676.98
430.53	3723.79
430.72	3854.86
430.91	3796.35
431.10	3674.64
431.28	3819.75
431.47	3847.84
431.66	3850.18
431.85	3854.86
432.03	3950.82
432.22	3962.53
432.41	4032.74
432.60	3904.01
432.79	3941.46
432.97	3995.29
433.16	3997.64
433.35	3920.40
433.54	4032.74
433.72	4234.03
433.91	4023.38
434.10	4060.83
434.28	4056.15
434.47	4168.49
434.66	4290.20
434.85	4266.80
435.03	4269.14
435.22	4273.82
435.41	4318.29
435.59	4236.37
435.78	4248.07
435.97	4379.14
436.16	4250.41
436.34	4428.29
436.53	4187.22
436.72	4486.81
436.90	4236.37
437.09	4425.95
437.28	4210.62
437.46	4383.82
437.65	4465.74
437.84	4437.66
438.02	4414.25
438.21	4451.70
438.40	4575.75
438.58	4681.07
438.77	4727.88
438.96	4571.07
439.14	4823.84
439.33	5043.85
439.52	4887.04
439.70	4772.35
439.89	4905.76
440.08	4910.44
440.26	4880.02
440.45	4849.59
440.63	5095.35
440.82	5128.11
441.01	4983.00
441.19	5172.58
441.38	5144.50
441.57	5118.75
441.75	5097.69
441.94	5195.99
442.12	5329.40
442.31	5350.46
442.50	5298.97
442.68	5263.86
442.87	5334.08
443.05	5465.15
443.24	5371.53
443.43	5518.98
443.61	5392.59
443.80	5472.17
443.98	5401.96
444.17	5081.30
444.35	5378.55
444.54	5570.48
444.73	5540.05
444.91	5572.82
445.10	5636.01
445.28	5535.37
445.47	5596.22
445.65	5600.90
445.84	5584.52
446.02	5696.86
446.21	5366.85
446.39	5551.75
446.58	5636.01
446.77	5767.08
446.95	5359.83
447.14	5556.43
447.32	5537.71
447.51	5476.85
447.69	5547.07
447.88	5643.03
448.06	5589.20
448.25	5715.59
448.43	5706.23
448.62	5612.60
448.80	5657.07
448.99	5757.72
449.17	5750.70
449.36	5701.54
449.54	5771.76
449.73	5687.50
449.91	6108.80
450.10	5865.38
450.28	6059.65
450.46	5874.74
450.65	5982.41
450.83	6080.71
451.02	5933.26
451.20	6031.56
451.39	6111.14
451.57	6069.01
451.76	5905.17
451.94	6078.37
452.13	6125.18
452.31	6174.33
452.49	6155.61
452.68	6303.06
452.86	6249.23
453.05	6099.44
453.23	6286.68
453.42	6328.81
453.60	6258.59
453.78	6452.86
453.97	6122.84
454.15	6272.64
454.34	6340.51
454.52	6345.19
454.70	6324.13
454.89	6497.33
455.07	6429.45
455.26	6457.54
455.44	6572.22
455.62	6523.07
455.81	6368.60
455.99	6562.86
456.17	6387.32
456.36	6569.88
456.54	6635.42
456.73	6815.64
456.91	6881.18
457.09	6904.58
457.28	7105.87
457.46	6693.93
457.64	7077.78
457.83	6848.41
458.01	6766.49
458.19	6899.90
458.38	7033.31
458.56	7054.37
458.74	7007.56
458.93	6967.77
459.11	7063.74
459.29	6925.65
459.48	7033.31
459.66	7016.93
459.84	7307.15
460.03	7258.00
460.21	7452.27
460.39	7166.72
460.57	7316.51
460.76	7236.94
460.94	7398.43
461.12	7492.05
461.31	7307.15
461.49	7346.94
461.67	7204.17
461.85	7588.02
462.04	7414.82
462.22	7838.45
462.40	7557.59
462.59	7442.90
462.77	7681.64
462.95	7693.34
463.13	7492.05
463.32	7552.91
463.50	7639.51
463.68	7674.62
463.86	7758.88
464.05	7686.32
464.23	7798.66
464.41	7747.17
464.59	7847.82
464.78	7932.08
464.96	7838.45
465.14	7693.34
465.32	7981.23
465.50	7971.86
465.69	8042.08
465.87	7798.66
466.05	7922.71
466.23	7866.54
466.41	7927.39
466.60	8196.56
466.78	7974.21
466.96	8088.89
467.14	8035.06
467.32	8140.38
467.51	8184.85
467.69	7852.50
467.87	8121.66
468.05	8215.28
468.23	8004.63
468.41	8243.37
468.60	8095.91
468.78	8234.00
468.96	8234.00
469.14	8276.13
469.32	8430.61
469.50	8334.65
469.69	8404.86
469.87	8678.71
470.05	8411.89
470.23	8599.13
470.41	8638.92
470.59	8566.36
470.77	8589.77
470.95	8603.81
471.14	8615.51
471.32	8451.67
471.50	8769.99
471.68	8751.26
471.86	8964.25
472.04	8950.21
472.22	9004.04
472.40	8882.33
472.58	9053.19
472.77	9156.18
472.95	9130.43
473.13	9350.44
473.31	9060.21
473.49	9282.56
473.67	9149.15
473.85	9092.98
474.03	9420.66
474.21	9685.14
474.39	9540.02
474.57	9472.15
474.75	9806.84
474.93	9731.95
475.12	9823.23
475.30	9846.63
475.48	9900.47
475.66	9743.65
475.84	9778.76
476.02	10099.41
476.20	10029.20
476.38	10045.58
476.56	10373.25
476.74	10413.04
476.92	10148.56
477.10	10167.29
477.28	10438.79
477.46	10604.97
477.64	10567.52
477.82	10846.04
478.00	10853.06
478.18	10623.69
478.36	10949.03
478.54	11052.01
478.72	11108.18
478.90	11009.88
479.08	11283.72
479.26	11339.90
479.44	11496.71
479.62	11683.95
479.80	11550.54
479.98	11705.02
480.16	11962.48
480.34	11702.68
480.52	12006.95
480.70	11976.52
480.88	11744.81
481.06	12098.23
481.24	12161.42
481.41	12341.64
481.59	12381.43
481.77	12571.02
481.95	12734.85
482.13	12755.92
482.31	12624.85
482.49	13060.19
482.67	13067.21
482.85	13029.76
483.03	13071.89
483.21	13373.82
483.39	13327.01
483.57	13380.84
483.74	13432.33
483.92	13692.13
484.10	13465.10
484.28	14174.28
484.46	14054.92
484.64	14530.05
484.82	13874.70
485.00	14197.69
485.18	14380.25
485.35	14707.93
485.53	14640.05
485.71	14574.52
485.89	14780.48
486.07	14946.66
486.25	15138.58
486.43	15550.52
486.61	15260.29
486.78	15272.00
486.96	15360.94
487.14	15742.44
487.32	15967.13
487.50	15889.90
487.68	16030.33
487.85	15934.37
488.03	16025.65
488.21	16512.48
488.39	16664.61
488.57	16468.01
488.75	16603.76
488.92	17006.33
489.10	17436.99
489.28	17085.91
489.46	17479.12
489.64	17291.88
489.81	17661.68
489.99	17820.84
490.17	17554.02
490.35	18064.25
490.53	18235.11
490.70	18281.92
490.88	18207.03
491.06	18487.89
491.24	18569.81
491.41	18401.29
491.59	18782.80
491.77	18843.65
491.95	18787.48
492.13	19136.22
492.30	19295.38
492.48	19129.20
492.66	19400.70
492.84	19428.79
493.01	19534.11
493.19	19903.92
493.37	19929.66
493.54	19716.67
493.72	19927.32
493.90	20063.07
494.08	20147.33
494.25	20554.58
494.43	20606.08
494.61	20545.22
494.79	20772.25
494.96	20683.31
495.14	20746.51
495.32	21191.21
495.49	21212.28
495.67	21408.88
495.85	21378.45
496.02	21586.76
496.20	22022.10
496.38	22071.25
496.55	22001.04
496.73	22747.67
496.91	21837.20
497.09	22391.91
497.26	22452.76
497.44	22340.41
497.62	22501.91
497.79	22993.42
497.97	22817.88
498.14	22864.69
498.32	23047.26
498.50	23241.52
498.67	23168.96
498.85	23374.93
499.03	23426.42
499.20	23672.18
499.38	23634.73
499.56	23527.06
499.73	23908.57
499.91	23999.85
500.08	24266.67
500.26	23800.91
500.44	24257.31
500.61	24318.17
500.79	24086.45
500.97	24484.34
501.14	24830.74
501.32	24666.91
501.49	24622.44
501.67	24458.60
501.84	24931.39
502.02	24945.43
502.20	24917.34
502.37	24886.92
502.55	24950.11
502.72	25071.82
502.90	24994.58
503.07	25083.52
503.25	25717.81
503.43	25518.86
503.60	25724.83
503.78	25839.51
503.95	25640.57
504.13	25986.97
504.30	25862.92
504.48	26017.40
504.65	26302.94
504.83	26183.57
505.01	26199.96
505.18	26040.80
505.36	26551.04
505.53	26686.79
505.71	26962.97
505.88	26764.03
506.06	26632.96
506.23	27197.02
506.41	26895.10
506.58	26829.56
506.76	27140.85
506.93	27377.25
507.11	27040.21
507.28	27180.64
507.46	27632.36
507.63	27374.91
507.81	27878.12
507.98	27637.05
508.16	27580.87
508.33	27772.80
508.50	28161.33
508.68	28166.01
508.85	28180.05
509.03	28037.28
509.20	28271.33
509.38	28460.91
509.55	28470.28
509.73	28680.92
509.90	28610.71
510.08	28851.78
510.25	28577.94
510.42	28879.87
510.60	28945.41
510.77	29177.12
510.95	29472.03
511.12	29357.34
511.30	29495.43
511.47	28889.23
511.64	29392.45
511.82	29546.92
511.99	29060.09
512.17	29439.26
512.34	29570.33
512.51	29823.11
512.69	29766.93
512.86	29577.35
513.04	30300.58
513.21	30024.39
513.38	30316.96
513.56	30801.45
513.73	30232.70
513.90	30726.55
514.08	30284.19
514.25	30918.48
514.43	30642.29
514.60	30572.08
514.77	30810.81
514.95	30841.24
515.12	30979.33
515.29	30932.52
515.47	31136.15
515.64	31449.78
515.81	31058.91
515.99	31110.40
516.16	31330.41
516.33	31557.44
516.51	31695.53
516.68	31622.98
516.85	31716.60
517.03	31557.44
517.20	31931.93
517.37	31826.60
517.54	32304.07
517.72	32070.02
517.89	32086.40
518.06	32215.13
518.24	32222.16
518.41	32393.01
518.58	32020.87
518.75	32254.92
518.93	32570.90
519.10	32549.83
519.27	33095.18
519.45	32921.98
519.62	32568.55
519.79	32964.10
519.96	32503.02
520.14	33146.67
520.31	33013.26
520.48	33092.83
520.65	32793.25
520.83	33149.01
521.00	33617.11
521.17	33479.02
521.34	33509.45
521.52	33607.75
521.69	33832.44
521.86	33895.64
522.03	33689.67
522.20	34195.23
522.38	34183.52
522.55	34323.96
522.72	34394.17
522.89	34345.02
523.07	34417.58
523.24	34508.86
523.41	34902.07
523.58	34075.86
523.75	34967.60
523.92	34330.98
524.10	34340.34
524.27	34497.16
524.44	34628.23
524.61	35166.55
524.78	34595.46
524.96	35140.80
525.13	34859.94
525.30	34962.92
525.47	35171.23
525.64	35337.41
525.81	35606.57
525.98	35332.73
526.16	35168.89
526.33	35545.72
526.50	35728.28
526.67	35569.12
526.84	35496.56
527.01	35658.06
527.18	35660.40
527.36	35817.22
527.53	35791.47
527.70	36259.58
527.87	36456.18
528.04	36051.27
528.21	35725.94
528.38	35824.24
528.55	36025.53
528.72	36318.09
528.89	36601.30
529.07	36676.19
529.24	36308.73
529.41	36437.46
529.58	36772.16
529.75	36308.73
529.92	36102.76
530.09	36673.85
530.26	36828.33
530.43	36905.57
530.60	36692.58
530.77	36254.90
530.94	36795.56
531.11	36498.31
531.28	37127.92
531.46	37055.36
531.63	36837.69
531.80	37418.14
531.97	36928.97
532.14	37177.07
532.31	37050.68
532.48	37336.23
532.65	37668.58
532.82	37738.80
532.99	37518.79
533.16	37497.72
533.33	37757.52
533.50	38115.62
533.67	37844.12
533.84	37523.47
534.01	38003.28
534.18	37617.09
534.35	38436.28
534.52	38251.38
534.69	38337.98
534.86	38588.41
535.03	38061.79
535.20	38422.23
535.37	38440.96
535.54	38518.20
535.71	37809.01
535.88	38824.81
536.05	38726.50
536.22	38778.00
536.38	38490.11
536.55	38597.77
536.72	38588.41
536.89	38773.31
537.06	38464.36
537.23	39157.16
537.40	38827.15
537.57	39388.88
537.74	38983.96
537.91	39182.91
538.08	39232.06
538.25	38728.84
538.42	39133.76
538.59	39400.58
538.75	39253.12
538.92	39519.95
539.09	39332.70
539.26	39606.55
539.43	39016.73
539.60	39756.34
539.77	39676.76
539.94	39978.69
540.11	39445.05
540.28	39655.70
540.44	39758.68
540.61	39899.11
540.78	39899.11
540.95	39817.19
541.12	39892.09
541.29	39491.86
541.46	39751.66
541.62	39756.34
541.79	40549.78
541.96	39445.05
542.13	40133.17
542.30	39936.56
542.47	40357.86
542.63	40364.88
542.80	40517.01
542.97	40650.42
543.14	41003.85
543.31	40624.68
543.48	40362.54
543.64	41102.15
543.81	41010.87
543.98	40781.49
544.15	40896.18
544.32	41038.95
544.48	41188.75
544.65	41038.95
544.82	41553.87
544.99	41013.21
545.16	41024.91
545.32	41525.78
545.49	41483.66
545.66	41715.37
545.83	41486.00
546.00	41923.68
546.16	41364.29
546.33	41418.12
546.50	41273.01
546.67	41911.97
546.83	41230.88
547.00	41680.26
547.17	41603.02
547.34	41586.64
547.50	42075.81
547.67	42061.77
547.84	42256.03
548.00	42038.36
548.17	42630.52
548.34	42129.64
548.51	42230.29
548.67	42368.38
548.84	42143.69
549.01	42433.91
549.18	42595.41
549.34	42188.16
549.51	42389.44
549.68	42506.47
549.84	42321.57
550.01	42635.20
550.18	42213.90
550.34	42525.19
550.51	42937.13
550.68	42314.55
550.84	42443.27
551.01	42859.89
551.18	42529.87
551.34	42614.13
551.51	42738.18
551.68	42810.74
551.84	42916.06
552.01	42396.46
552.18	42845.85
552.34	42539.24
552.51	43290.55
552.68	42756.91
552.84	42838.83
553.01	43250.76
553.18	42960.53
553.34	43356.08
553.51	42616.47
553.67	43213.31
553.84	43189.91
554.01	43236.72
554.17	43386.51
554.34	43461.41
554.51	43335.02
554.67	43826.53
554.84	43725.89
555.00	43725.89
555.17	43665.03
555.33	43517.58
555.50	43503.54
555.67	43117.35
555.83	43566.73
556.00	43753.97
556.16	44212.72
556.33	44091.01
556.50	43564.39
556.66	44140.16
556.83	43583.12
556.99	44121.44
557.16	43845.26
557.32	44163.57
557.49	43978.67
557.65	43594.82
557.82	43847.60
557.98	43959.94
558.15	43786.74
558.32	44184.63
558.48	43866.32
558.65	44435.07
558.81	44158.89
558.98	44069.95
559.14	44039.52
559.31	44030.16
559.47	44271.23
559.64	44257.19
559.80	43920.15
559.97	44374.22
560.13	44306.34
560.30	44140.16
560.46	44748.70
560.63	44584.86
560.79	44725.30
560.96	44935.95
561.12	44683.17
561.29	44877.43
561.45	44797.85
561.61	44524.01
561.78	44348.47
561.94	45052.97
562.11	44744.02
562.27	44697.21
562.44	44744.02
562.60	44942.97
562.77	44851.69
562.93	44388.26
563.10	44514.65
563.26	44673.81
563.42	45420.44
563.59	44818.92
563.75	44430.39
563.92	44772.11
564.08	44608.27
564.24	44910.20
564.41	45031.91
564.57	45193.40
564.74	44783.81
564.90	45017.86
565.07	45081.06
565.23	44769.77
565.39	44971.05
565.56	45118.51
565.72	44966.37
565.88	45249.58
566.05	45207.45
566.21	45338.52
566.38	45078.72
566.54	45237.87
566.70	45722.37
566.87	45174.68
567.03	44591.89
567.19	45265.96
567.36	45523.42
567.52	45492.99
567.68	45235.53
567.85	45469.59
568.01	45595.98
568.17	45085.74
568.34	45509.38
568.50	44980.42
568.66	45174.68
568.83	45425.12
568.99	45116.17
569.15	45439.16
569.32	45151.27
569.48	45104.46
569.64	45769.18
569.81	45895.56
569.97	45366.60
570.13	45404.05
570.30	45832.37
570.46	45305.75
570.62	45301.07
570.78	45649.81
570.95	45432.14
571.11	45778.54
571.27	45476.61
571.43	45476.61
571.60	45497.67
571.76	45572.57
571.92	45528.10
572.09	45724.71
572.25	45462.57
572.41	45233.19
572.57	45558.53
572.74	46162.39
572.90	45530.44
573.06	45921.31
573.22	45808.96
573.38	45876.84
573.55	45759.81
573.71	46302.82
573.87	46136.64
574.03	45689.60
574.20	45851.09
574.36	45675.55
574.52	45787.90
574.68	45591.30
574.84	45598.32
575.01	46043.02
575.17	46120.26
575.33	46113.23
575.49	45453.20
575.65	45881.52
575.82	45729.39
575.98	45900.25
576.14	46110.89
576.30	46043.02
576.46	45937.69
576.62	45694.28
576.79	45895.56
576.95	45521.08
577.11	45773.86
577.27	45691.94
577.43	45705.98
577.59	45935.35
577.75	45869.82
577.92	45666.19
578.08	45336.18
578.24	45923.65
578.40	46038.34
578.56	46075.79
578.72	45954.08
578.88	45883.86
579.04	46094.51
579.21	45794.92
579.37	46394.10
579.53	46534.53
579.69	45970.46
579.85	46143.66
580.01	45940.04
580.17	46146.00
580.33	46405.80
580.49	46302.82
580.65	45886.20
580.82	45900.25
580.98	45968.12
581.14	45766.84
581.30	46204.52
581.46	45961.10
581.62	45947.06
581.78	45923.65
581.94	46223.24
582.10	45710.66
582.26	46298.14
582.42	45949.40
582.58	45933.01
582.74	46354.31
582.90	46417.50
583.06	46396.44
583.22	46358.99
583.38	46473.68
583.54	46167.07
583.70	46092.17
583.86	46541.55
584.02	46117.92
584.18	46827.10
584.34	46258.35
584.50	46391.76
584.66	46293.46
584.82	46185.79
584.98	46951.15
585.14	46529.85
585.30	46483.04
585.46	46082.81
585.62	46183.45
585.78	46593.04
585.94	46216.22
586.10	46162.39
586.26	46096.85
586.42	46251.33
586.58	46075.79
586.74	46520.49
586.90	46162.39
587.06	46490.06
587.22	46597.73
587.38	46777.95
587.54	46880.93
587.70	46773.27
587.86	46469.00
588.02	46422.19
588.18	46281.75
588.34	46326.22
588.49	46438.57
588.65	46005.57
588.81	46401.12
588.97	46485.38
589.13	46003.23
589.29	46461.97
589.45	46564.96
589.61	46747.52
589.77	46742.84
589.93	46314.52
590.08	46637.51
590.24	46724.11
590.40	46780.29
590.56	46937.10
590.72	46735.82
590.88	46902.00
591.04	46373.03
591.20	46834.12
591.35	47136.05
591.51	47126.69
591.67	47224.99
591.83	47309.25
591.99	46637.51
592.15	46768.58
592.31	47014.34
592.46	46543.89
592.62	46894.97
592.78	46969.87
592.94	47257.76
593.10	47098.60
593.26	47196.90
593.41	47484.79
593.57	47035.41
593.73	46770.93
593.89	47150.09
594.05	46911.36
594.20	46782.63
594.36	46981.57
594.52	47007.32
594.68	47019.02
594.84	46960.51
594.99	47353.72
595.15	47033.07
595.31	47021.36
595.47	47058.81
595.62	46974.55
595.78	47215.63
595.94	46602.41
596.10	46918.38
596.25	47262.44
596.41	47124.35
596.57	46843.48
596.73	47276.48
596.88	47119.66
597.04	47323.29
597.20	47040.09
597.36	46864.55
597.51	47587.77
597.67	46717.09
597.83	46637.51
597.99	46838.80
598.14	46976.89
598.30	47068.17
598.46	47145.41
598.61	47466.06
598.77	47330.31
598.93	47381.80
599.09	46946.47
599.24	47718.84
599.40	46913.70
599.56	47349.04
599.71	47704.80
599.87	47753.95
600.03	47302.23
600.18	47185.20
600.34	47178.18
600.50	46944.12
600.65	46904.34
600.81	47643.94
600.97	47468.40
601.12	47189.88
601.28	46829.44
601.44	47224.99
601.59	46822.42
601.75	47054.13
601.91	47178.18
602.06	47173.50
602.22	47269.46
602.37	47227.33
602.53	47166.48
602.69	47201.58
602.84	46906.68
603.00	47365.42
603.16	47508.19
603.31	47503.51
603.47	47416.91
603.62	47267.12
603.78	47234.35
603.94	47302.23
604.09	47189.88
604.25	47222.65
604.40	46916.04
604.56	47269.46
604.71	47550.32
604.87	47192.22
605.03	47131.37
605.18	47107.96
605.34	47227.33
605.49	46930.08
605.65	47117.32
605.80	47199.24
605.96	47063.49
606.12	47377.12
606.27	47185.20
606.43	46876.25
606.58	46958.17
606.74	46981.57
606.89	46904.34
607.05	47182.86
607.20	47152.43
607.36	46787.31
607.51	46906.68
607.67	46997.96
607.82	46777.95
607.98	47079.88
608.13	47496.49
608.29	46974.55
608.44	46735.82
608.60	46782.63
608.75	46993.28
608.91	46876.25
609.06	46625.81
609.22	47255.42
609.37	46857.52
609.53	46887.95
609.68	47232.01
609.84	46759.22
609.99	47145.41
610.15	47140.73
610.30	47016.68
610.46	46965.19
610.61	46939.44
610.76	47107.96
610.92	46637.51
611.07	46464.32
611.23	45954.08
611.38	46902.00
611.54	46983.91
611.69	47065.83
611.84	47004.98
612.00	47070.51
612.15	46609.43
612.31	46286.43
612.46	46934.76
612.62	46646.88
612.77	46845.82
612.92	46927.74
613.08	46691.35
613.23	46756.88
613.39	46665.60
613.54	46248.99
613.69	46829.44
613.85	46808.37
614.00	46239.62
614.15	46653.90
614.31	46691.35
614.46	46724.11
614.62	46396.44
614.77	46569.64
614.92	46602.41
615.08	46309.84
615.23	46389.42
615.38	46796.67
615.54	46918.38
615.69	46803.69
615.84	46646.88
616.00	46499.42
616.15	46380.06
616.30	46218.56
616.46	46080.47
616.61	46518.15
616.76	46611.77
616.92	45895.56
617.07	46415.16
617.22	46181.11
617.37	46185.79
617.53	46487.72
617.68	46117.92
617.83	46068.76
617.99	46024.29
618.14	46026.63
618.29	46129.62
618.45	46190.47
618.60	46176.43
618.75	46134.30
618.90	45687.26
619.06	46256.01
619.21	45895.56
619.36	46506.44
619.51	45703.64
619.67	45951.74
619.82	45937.69
619.97	46382.40
620.12	45670.87
620.28	45373.63
620.43	45996.21
620.58	46003.23
620.73	46000.89
620.89	45855.78
621.04	46375.37
621.19	45909.61
621.34	45640.45
621.49	45750.45
621.65	46082.81
621.80	46263.03
621.95	46017.27
622.10	46017.27
622.25	45818.33
622.41	45731.73
622.56	45399.37
622.71	45614.70
622.86	45469.59
623.01	45617.04
623.16	45289.37
623.32	45827.69
623.47	45771.52
623.62	45366.60
623.77	45364.26
623.92	45525.76
624.07	45858.12
624.23	45338.52
624.38	45815.99
624.53	45338.52
624.68	45324.47
624.83	45579.59
624.98	45574.91
625.13	44868.07
625.29	45008.50
625.44	45474.27
625.59	45418.10
625.74	45139.57
625.89	45017.86
626.04	44931.26
626.19	45013.18
626.34	44900.84
626.49	44428.05
626.65	44467.84
626.80	44847.00
626.95	44753.38
627.10	44577.84
627.25	44746.36
627.40	44566.14
627.55	44500.61
627.70	45083.40
627.85	44825.94
628.00	45118.51
628.15	44629.34
628.30	44437.41
628.45	43873.34
628.60	43950.58
628.76	44432.73
628.91	44254.85
629.06	44123.78
629.21	44264.21
629.36	44795.51
629.51	44645.72
629.66	45095.10
629.81	44650.40
629.96	44638.70
630.11	44147.18
630.26	43981.01
630.41	44584.86
630.56	44453.79
630.71	43910.79
630.86	44648.06
631.01	44091.01
631.16	43540.99
631.31	43863.98
631.46	44137.82
631.61	44439.75
631.76	43962.28
631.91	44144.84
632.06	44369.54
632.21	44278.25
632.36	44156.55
632.51	43779.72
632.66	43863.98
632.81	43779.72
632.96	44247.83
633.10	44205.70
633.25	43810.15
633.40	43859.30
633.55	44210.38
633.70	44079.31
633.85	44034.84
634.00	43636.95
634.15	43981.01
634.30	43562.05
634.45	43416.94
634.60	43681.42
634.75	43564.39
634.90	44006.75
635.05	43632.27
635.19	43250.76
635.34	43297.57
635.49	43711.84
635.64	43419.28
635.79	43470.77
635.94	43758.66
636.09	43927.17
636.24	43475.45
636.39	43728.23
636.53	43208.63
636.68	43150.12
636.83	43269.48
636.98	43178.20
637.13	43054.15
637.28	43377.15
637.43	43147.78
637.57	43400.55
637.72	42876.27
637.87	43372.47
638.02	43306.93
638.17	42974.58
638.32	43229.69
638.46	42548.60
638.61	42941.81
638.76	42557.96
638.91	42803.72
639.06	42490.09
639.20	42677.33
639.35	42567.32
639.50	42136.66
639.65	42841.17
639.80	42784.99
639.94	42672.65
640.09	42916.06
640.24	42965.21
640.39	42366.04
640.54	42410.51
640.68	42766.27
640.83	42859.89
640.98	42459.66
641.13	42464.34
641.27	42857.55
641.42	42665.63
641.57	42234.97
641.72	42583.71
641.86	42520.51
642.01	41731.75
642.16	41940.06
642.31	41633.45
642.45	42092.19
642.60	41982.19
642.75	42286.46
642.90	42080.49
643.04	42230.29
643.19	41954.10
643.34	41811.33
643.48	41881.55
643.63	41982.19
643.78	42415.19
643.93	42220.92
644.07	42583.71
644.22	42150.71
644.37	42216.24
644.51	41883.89
644.66	41879.21
644.81	41804.31
644.95	42071.13
645.10	42190.50
645.25	41825.37
645.39	41717.71
645.54	41727.07
645.69	41502.38
645.83	41670.90
645.98	41193.43
646.13	41380.67
646.27	41359.61
646.42	41497.70
646.57	41535.15
646.71	41647.49
646.86	42005.59
647.00	41736.43
647.15	41986.87
647.30	41603.02
647.44	41605.36
647.59	41158.32
647.74	41078.74
647.88	41642.81
648.03	41586.64
648.17	41914.31
648.32	42087.51
648.47	41603.02
648.61	41153.64
648.76	41570.25
648.90	41237.90
649.05	41298.75
649.20	41163.00
649.34	41649.83
649.49	41336.20
649.63	41102.15
649.78	41163.00
649.92	41090.44
650.07	41663.88
650.21	41687.28
650.36	41581.96
650.51	41127.89
650.65	41123.21
650.80	41155.98
650.94	41064.70
651.09	40884.48
651.23	40636.38
651.38	40460.84
651.52	40671.49
651.67	40882.14
651.81	40659.79
651.96	40730.00
652.10	40617.66
652.25	40470.20
652.39	40645.74
652.54	40755.75
652.68	40959.38
652.83	40996.82
652.97	40636.38
653.12	40711.28
653.26	40711.28
653.41	40322.75
653.55	40786.18
653.70	40746.39
653.84	40713.62
653.99	40627.02
654.13	40610.64
654.27	40414.03
654.42	40524.04
654.56	39990.39
654.71	40112.10
654.85	40552.12
655.00	40533.40
655.14	40629.36
655.29	40282.96
655.43	40334.45
655.57	40112.10
655.72	40268.92
655.86	39920.18
656.01	40011.46
656.15	39618.25
656.30	40081.67
656.44	40086.36
656.58	40170.61
656.73	40095.72
656.87	39438.03
657.01	39459.09
657.16	39906.13
657.30	40222.11
657.45	39615.91
657.59	39714.21
657.73	39536.33
657.88	40034.86
658.02	40187.00
658.16	39915.50
658.31	39796.13
658.45	39613.57
658.60	39854.64
658.74	39636.97
658.88	39690.80
659.03	39196.95
659.17	39618.25
659.31	39236.74
659.46	39232.06
659.60	39508.24
659.74	39100.99
659.89	39426.32
660.03	38759.27
660.17	39260.15
660.32	39388.88
660.46	38986.30
660.60	38572.03
660.74	38794.38
660.89	38824.81
661.03	38447.98
661.17	38394.15
661.32	38410.53
661.46	38438.62
661.60	38595.43
661.74	38773.31
661.89	38637.56
662.03	38864.60
662.17	38043.07
662.31	38368.40
662.46	38597.77
662.60	38148.39
662.74	38143.71
662.88	37991.58
663.03	37935.40
663.17	37993.92
663.31	38213.93
663.45	37937.74
663.60	38075.84
663.74	37741.14
663.88	37935.40
664.02	37432.19
664.17	38249.03
664.31	37432.19
664.45	37432.19
664.59	37764.54
664.73	37502.40
664.88	37645.18
665.02	37574.96
665.16	37186.43
665.30	37642.84
665.44	37394.74
665.59	36907.91
665.73	36830.67
665.87	37062.38
666.01	37153.66
666.15	36935.99
666.29	37202.82
666.44	37137.28
666.58	37046.00
666.72	36856.42
666.86	36371.92
667.00	36800.24
667.14	36477.25
667.28	36311.07
667.43	36388.31
667.57	36730.03
667.71	36622.36
667.85	36505.34
667.99	36605.98
668.13	36194.04
668.27	36062.97
668.41	36463.21
668.56	35519.97
668.70	35840.62
668.84	35845.30
668.98	35482.52
669.12	35927.22
669.26	35498.91
669.40	35782.11
669.54	36189.36
669.68	35751.68
669.82	35597.21
669.96	35211.02
670.10	34981.65
670.25	35466.14
670.39	35122.08
670.53	35342.09
670.67	34822.49
670.81	35505.93
670.95	35051.86
671.09	35063.57
671.23	34890.37
671.37	34728.87
671.51	34869.30
671.65	34686.74
671.79	34794.40
671.93	34630.57
672.07	34787.38
672.21	35030.80
672.35	33928.41
672.49	34705.46
672.63	34438.64
672.77	34050.11
672.91	34536.94
673.05	33975.22
673.19	33834.78
673.33	33837.12
673.47	33846.49
673.61	33579.67
673.75	33326.89
673.89	33422.85
674.03	33413.49
674.17	33137.30
674.31	33113.90
674.45	33099.86
674.59	33078.79
674.73	33111.56
674.87	33125.60
675.01	32999.21
675.15	32730.05
675.29	32306.41
675.43	32435.14
675.56	32666.86
675.70	32554.51
675.84	32287.69
675.98	31168.91
676.12	32236.20
676.26	32301.73
676.40	31894.48
676.54	32020.87
676.68	31655.75
676.82	31400.63
676.96	31721.28
677.10	31786.82
677.23	31384.24
677.37	31061.25
677.51	31220.41
677.65	31522.34
677.79	30960.61
677.93	31189.98
678.07	31136.15
678.21	30775.70
678.34	30654.00
678.48	30452.71
678.62	30511.22
678.76	30258.45
678.90	30225.68
679.04	30398.88
679.18	30298.23
679.31	30155.46
679.45	29919.07
679.59	29773.95
679.73	29940.13
679.87	29532.88
680.00	29949.50
680.14	29607.78
680.28	29560.97
680.42	29495.43
680.56	29270.74
680.70	29120.95
680.83	28947.75
680.97	29287.12
681.11	28999.24
681.25	28599.01
681.39	28767.52
681.52	28725.39
681.66	28245.58
681.80	28210.48
681.94	27758.75
682.07	28109.83
682.21	28030.26
682.35	27896.85
682.49	27791.52
682.62	27662.79
682.76	27903.87
682.90	27833.65
683.04	27772.80
683.17	27543.42
683.31	27314.05
683.45	27679.18
683.59	26974.67
683.72	26864.67
683.86	26925.52
684.00	26918.50
684.13	26859.99
684.27	26686.79
684.41	26562.74
684.55	26202.30
684.68	26511.25
684.82	26122.72
684.96	25998.67
685.09	26305.28
685.23	26501.89
685.37	26218.68
685.50	26373.16
685.64	25898.03
685.78	26106.34
685.91	25542.27
686.05	25277.79
686.19	25184.16
686.32	25336.30
686.46	24793.29
686.60	24992.24
686.73	25261.40
686.87	24620.10
687.01	25188.85
687.14	24877.55
687.28	24690.31
687.42	24671.59
687.55	24577.97
687.69	24577.97
687.82	24170.71
687.96	24271.36
688.10	24161.35
688.23	24013.90
688.37	24159.01
688.50	24423.49
688.64	23985.81
688.78	23850.06
688.91	23571.54
689.05	23517.70
689.18	23346.84
689.32	22600.21
689.46	22761.71
689.59	23087.04
689.73	23070.66
689.86	23124.49
690.00	22771.07
690.13	23374.93
690.27	22860.01
690.41	22799.16
690.54	22354.46
690.68	22373.18
690.81	22342.75
690.95	22307.65
691.08	22061.89
691.22	21685.06
691.35	21738.90
691.49	22115.72
691.62	21788.05
691.76	21748.26
691.89	21350.37
692.03	21221.64
692.16	21120.99
692.30	21823.16
692.43	21216.96
692.57	20943.11
692.70	20886.94
692.84	21078.86
692.97	20720.76
693.11	20905.66
693.24	20512.46
693.38	20657.57
693.51	20350.96
693.65	20463.30
693.78	19990.52
693.92	19901.58
694.05	20027.96
694.19	19983.49
694.32	19981.15
694.45	20327.55
694.59	19981.15
694.72	20383.73
694.86	19800.93
694.99	19372.61
695.13	19513.05
695.26	19082.39
695.39	19356.23
695.53	19367.93
695.66	19152.60
695.80	19101.11
695.93	19068.34
696.07	18831.95
696.20	18548.75
696.33	18541.72
696.47	18490.23
696.60	18623.64
696.73	18345.12
696.87	18466.83
697.00	18377.89
697.14	17975.31
697.27	17839.56
697.40	17769.35
697.54	17991.70
697.67	18085.32
697.80	17893.40
697.94	17348.05
698.07	17788.07
698.21	17521.25
698.34	17610.19
698.47	17355.07
698.61	17177.19
698.74	17130.38
698.87	17165.49
699.01	16903.35
699.14	17071.87
699.27	16655.25
699.40	16638.87
699.54	16936.12
699.67	16671.64
699.80	16716.11
699.94	16678.66
700.07	16456.31
700.20	16245.66
700.34	16388.43
700.47	16460.99
700.60	16472.69
700.73	16088.84
700.87	16056.08
701.00	15941.39
701.13	15651.16
701.26	15712.02
701.40	15389.02
701.53	15578.61
701.66	15564.56
701.79	15332.85
701.93	15307.10
702.06	15229.87
702.19	14834.32
702.32	15087.09
702.46	15201.78
702.59	15002.83
702.72	15213.48
702.85	15049.64
702.99	14963.04
703.12	15009.86
703.25	14492.60
703.38	14995.81
703.51	14541.75
703.65	14417.70
703.78	14462.17
703.91	14270.25
704.04	14288.97
704.17	13891.08
704.31	14104.07
704.44	14230.46
704.57	14078.32
704.70	14118.11
704.83	13631.28
704.96	13806.82
705.10	13752.99
705.23	13476.80
>>>>>End Processed Spectral Data<<<<<
