SpectraSuite Data File
++++++++++++++++++++++++++++++++++++
Date: Fri Oct 25 10:47:27 EDT 2013
User: price-jones
Dark Spectrum Present: No
Reference Spectrum Present: No
Number of Sampled Component Spectra: 1
Spectrometers: USB2+H05261
Integration Time (usec): 100000 (USB2+H05261)
Spectra Averaged: 1 (USB2+H05261)
Boxcar Smoothing: 0 (USB2+H05261)
Correct for Electrical Dark: No (USB2+H05261)
Strobe/Lamp Enabled: No (USB2+H05261)
Correct for Detector Non-linearity: No (USB2+H05261)
Correct for Stray Light: No (USB2+H05261)
Number of Pixels in Processed Spectrum: 2048
>>>>>Begin Processed Spectral Data<<<<<
365.73	117.03
365.92	117.03
366.12	117.03
366.32	14.04
366.52	11.70
366.72	117.03
366.91	0.00
367.11	0.00
367.31	9.36
367.51	67.88
367.70	67.88
367.90	93.62
368.10	0.00
368.30	51.49
368.49	77.24
368.69	35.11
368.89	105.32
369.09	63.19
369.28	49.15
369.48	100.64
369.68	77.24
369.87	98.30
370.07	91.28
370.27	86.60
370.47	187.24
370.66	416.62
370.86	425.98
371.06	411.93
371.25	414.27
371.45	430.66
371.65	421.30
371.84	425.98
372.04	414.27
372.24	425.98
372.44	414.27
372.63	477.47
372.83	559.39
373.03	507.90
373.22	463.43
373.42	465.77
373.62	435.34
373.81	521.94
374.01	552.37
374.21	617.90
374.40	538.32
374.60	526.62
374.79	533.64
374.99	552.37
375.19	535.98
375.38	552.37
375.58	540.66
375.78	559.39
375.97	624.92
376.17	533.64
376.37	540.66
376.56	645.99
376.76	667.05
376.95	491.51
377.15	638.97
377.35	589.82
377.54	568.75
377.74	613.22
377.93	557.05
378.13	585.13
378.33	589.82
378.52	566.41
378.72	664.71
378.91	629.60
379.11	592.16
379.31	594.50
379.50	636.63
379.70	589.82
379.89	615.56
380.09	634.29
380.28	557.05
380.48	674.07
380.68	674.07
380.87	645.99
381.07	699.82
381.26	648.33
381.46	688.12
381.65	650.67
381.85	688.12
382.04	690.46
382.24	709.18
382.43	653.01
382.63	683.44
382.83	641.31
383.02	669.39
383.22	704.50
383.41	641.31
383.61	613.22
383.80	802.80
384.00	758.33
384.19	746.63
384.39	812.17
384.58	840.25
384.78	723.23
384.97	723.23
385.17	751.31
385.36	690.46
385.56	688.12
385.75	702.16
385.95	802.80
386.14	744.29
386.34	772.38
386.53	823.87
386.72	730.25
386.92	854.30
387.11	809.83
387.31	723.23
387.50	826.21
387.70	734.93
387.89	744.29
388.09	793.44
388.28	727.91
388.48	880.04
388.67	835.57
388.86	954.94
389.06	882.38
389.25	903.45
389.45	901.11
389.64	950.26
389.84	877.70
390.03	924.51
390.22	985.37
390.42	898.77
390.61	896.43
390.81	863.66
391.00	933.87
391.19	861.32
391.39	983.02
391.58	994.73
391.78	905.79
391.97	896.43
392.16	863.66
392.36	889.40
392.55	908.13
392.75	922.17
392.94	926.85
393.13	933.87
393.33	1020.47
393.52	990.05
393.71	1125.80
393.91	1139.84
394.10	1004.09
394.29	1064.94
394.49	1076.65
394.68	1146.86
394.88	1102.39
395.07	1142.18
395.26	1081.33
395.46	1102.39
395.65	1050.90
395.84	1081.33
396.04	1146.86
396.23	1095.37
396.42	1125.80
396.62	1025.15
396.81	1064.94
397.00	1109.41
397.19	1163.25
397.39	1240.48
397.58	1263.89
397.77	1268.57
397.97	1327.08
398.16	1254.53
398.35	1160.91
398.55	1306.02
398.74	1352.83
398.93	1378.58
399.12	1228.78
399.32	1252.19
399.51	1338.79
399.70	1404.32
399.90	1294.32
400.09	1453.47
400.28	1420.71
400.47	1455.81
400.67	1418.36
400.86	1425.39
401.05	1427.73
401.24	1451.13
401.44	1423.05
401.63	1420.71
401.82	1413.68
402.01	1465.18
402.21	1437.09
402.40	1528.37
402.59	1481.56
402.78	1636.03
402.97	1490.92
403.17	1507.30
403.36	1586.88
403.55	1561.14
403.74	1612.63
403.93	1591.56
404.13	1568.16
404.32	1481.56
404.51	1570.50
404.70	1652.42
404.89	1626.67
405.09	1825.62
405.28	1717.95
405.47	1788.17
405.66	1734.34
405.85	1743.70
406.05	1762.42
406.24	1764.76
406.43	1717.95
406.62	1849.02
406.81	1872.43
407.00	1783.49
407.20	1802.21
407.39	1788.17
407.58	1781.15
407.77	1867.75
407.96	1865.41
408.15	1928.60
408.34	2003.50
408.54	2008.18
408.73	1961.37
408.92	1863.07
409.11	1940.30
409.30	2045.63
409.49	2040.95
409.68	2090.10
409.87	1998.82
410.07	2111.16
410.26	2099.46
410.45	2148.61
410.64	2211.81
410.83	2216.49
411.02	2134.57
411.21	2249.25
411.40	2195.42
411.59	2200.10
411.78	2186.06
411.98	2303.09
412.17	2260.96
412.36	2284.36
412.55	2333.51
412.74	2293.72
412.93	2387.35
413.12	2382.67
413.31	2452.88
413.50	2436.50
413.69	2464.58
413.88	2497.35
414.07	2466.92
414.26	2525.44
414.45	2555.86
414.64	2602.68
414.83	2586.29
415.02	2548.84
415.22	2640.12
415.41	2789.92
415.60	2637.78
415.79	2696.30
415.98	2740.77
416.17	2768.85
416.36	2841.41
416.55	2829.71
416.74	2888.22
416.93	2836.73
417.12	2960.78
417.31	2967.80
417.50	2949.08
417.69	3023.97
417.88	2993.55
418.07	2909.29
418.26	3087.17
418.45	3049.72
418.64	3185.47
418.83	3164.40
419.02	3215.90
419.21	3141.00
419.39	3068.44
419.58	3059.08
419.77	3148.02
419.96	3232.28
420.15	3201.85
420.34	3133.98
420.53	3279.09
420.72	3255.69
420.91	3225.26
421.10	3353.99
421.29	3358.67
421.48	3283.77
421.67	3234.62
421.86	3173.77
422.05	3342.28
422.24	3356.33
422.43	3412.50
422.61	3403.14
422.80	3541.23
422.99	3506.12
423.18	3482.72
423.37	3536.55
423.56	3473.36
423.75	3538.89
423.94	3463.99
424.13	3204.19
424.32	3286.11
424.50	3520.17
424.69	3447.61
424.88	3466.33
425.07	3503.78
425.26	3456.97
425.45	3463.99
425.64	3424.20
425.83	3454.63
426.01	3536.55
426.20	3473.36
426.39	3559.95
426.58	3550.59
426.77	3391.44
426.96	3630.17
427.15	3466.33
427.33	3578.68
427.52	3637.19
427.71	3726.13
427.90	3712.09
428.09	3646.55
428.28	3595.06
428.46	3712.09
428.65	3735.50
428.84	3698.05
429.03	3667.62
429.22	3581.02
429.40	3763.58
429.59	3775.28
429.78	3585.70
429.97	3709.75
430.16	3597.40
430.34	3737.84
430.53	3815.07
430.72	3838.48
430.91	3889.97
431.10	3948.48
431.28	4004.66
431.47	4128.70
431.66	4142.75
431.85	4037.42
432.03	3929.76
432.22	4105.30
432.41	4163.81
432.60	4142.75
432.79	4203.60
432.97	4058.49
433.16	4128.70
433.35	4023.38
433.54	4322.97
433.72	4276.16
433.91	4175.52
434.10	4315.95
434.28	4409.57
434.47	4329.99
434.66	4355.74
434.85	4484.47
435.03	4533.62
435.22	4470.42
435.41	4526.60
435.59	4414.25
435.78	4456.38
435.97	4573.41
436.16	4367.44
436.34	4470.42
436.53	4465.74
436.72	4699.80
436.90	4430.63
437.09	4702.14
437.28	4313.61
437.46	4652.98
437.65	4519.57
437.84	4416.59
438.02	4760.65
438.21	4582.77
438.40	4587.45
438.58	4695.11
438.77	4823.84
438.96	4814.48
439.14	4842.57
439.33	5008.75
439.52	5100.03
439.70	5071.94
439.89	5165.56
440.08	5008.75
440.26	5032.15
440.45	5193.65
440.63	5195.99
440.82	5270.89
441.01	5249.82
441.19	5341.10
441.38	5280.25
441.57	5277.91
441.75	5376.21
441.94	5467.49
442.12	5434.72
442.31	5640.69
442.50	5631.33
442.68	5568.13
442.87	5664.10
443.05	5582.18
443.24	5535.37
443.43	5596.22
443.61	5694.52
443.80	5778.78
443.98	5509.62
444.17	5530.69
444.35	5652.39
444.54	5839.64
444.73	5664.10
444.91	5687.50
445.10	5809.21
445.28	5757.72
445.47	5659.42
445.65	5811.55
445.84	5767.08
446.02	5760.06
446.21	5776.44
446.39	5689.84
446.58	6029.22
446.77	5914.53
446.95	5874.74
447.14	5858.36
447.32	5856.02
447.51	5888.79
447.69	5895.81
447.88	5935.60
448.06	5853.68
448.25	5879.43
448.43	5951.98
448.62	5968.37
448.80	5863.04
448.99	5973.05
449.17	6087.73
449.36	5902.83
449.54	5991.77
449.73	6169.65
449.91	6335.83
450.10	6415.41
450.28	6326.47
450.46	6282.00
450.65	6188.38
450.83	6249.23
451.02	6363.92
451.20	6392.00
451.39	6340.51
451.57	6410.73
451.76	6387.32
451.94	6415.41
452.13	6504.35
452.31	6462.22
452.49	6363.92
452.68	6319.45
452.86	6279.66
453.05	6509.03
453.23	6478.60
453.42	6609.67
453.60	6427.11
453.78	6590.95
453.97	6520.73
454.15	6434.13
454.34	6658.82
454.52	6600.31
454.70	6750.10
454.89	6532.44
455.07	6754.79
455.26	6796.92
455.44	6715.00
455.62	6780.53
455.81	6717.34
455.99	6920.96
456.17	6906.92
456.36	6951.39
456.54	6885.86
456.73	7169.06
456.91	7297.79
457.09	7140.97
457.28	7243.96
457.46	7054.37
457.64	7096.50
457.83	7218.21
458.01	7152.68
458.19	7241.62
458.38	7178.42
458.56	7286.09
458.74	7372.69
458.93	7332.90
459.11	7159.70
459.29	7410.14
459.48	7541.21
459.66	7337.58
459.84	7396.09
460.03	7754.19
460.21	7545.89
460.39	7571.63
460.57	7456.95
460.76	7665.25
460.94	7541.21
461.12	7559.93
461.31	7700.36
461.49	7763.56
461.67	7683.98
461.85	7812.71
462.04	7712.07
462.22	8393.16
462.40	7831.43
462.59	7719.09
462.77	7946.12
462.95	7967.18
463.13	8116.98
463.32	7955.48
463.50	7929.74
463.68	8053.78
463.86	8100.59
464.05	7922.71
464.23	7882.92
464.41	8119.32
464.59	8002.29
464.78	8058.46
464.96	8053.78
465.14	7990.59
465.32	8121.66
465.50	8290.18
465.69	8362.73
465.87	8442.31
466.05	8238.69
466.23	8255.07
466.41	8100.59
466.60	8397.84
466.78	8219.96
466.96	8346.35
467.14	8315.92
467.32	8472.74
467.51	8266.77
467.69	8133.36
467.87	8327.63
468.05	8617.85
468.23	8486.78
468.41	8390.82
468.60	8629.56
468.78	8592.11
468.96	8568.70
469.14	8533.59
469.32	8912.76
469.50	8463.38
469.69	8716.16
469.87	8664.66
470.05	8814.46
470.23	8830.84
470.41	8952.55
470.59	8912.76
470.77	8762.97
470.95	9039.15
471.14	8980.64
471.32	8947.87
471.50	9224.05
471.68	8905.74
471.86	9219.37
472.04	9214.69
472.22	9263.84
472.40	9095.32
472.58	9315.33
472.77	9289.59
472.95	9362.14
473.13	9692.16
473.31	9401.93
473.49	9544.70
473.67	9507.26
473.85	9411.29
474.03	9682.80
474.21	9806.84
474.39	9802.16
474.57	9860.68
474.75	9891.10
474.93	10031.54
475.12	10040.90
475.30	10148.56
475.48	9909.83
475.66	10162.61
475.84	10178.99
476.02	10338.15
476.20	10408.36
476.38	10436.45
476.56	10637.73
476.74	10511.35
476.92	10754.76
477.10	10616.67
477.28	10590.92
477.46	10916.26
477.64	10965.41
477.82	10918.60
478.00	11140.95
478.18	11538.84
478.36	11353.94
478.54	11360.96
478.72	11288.40
478.90	11419.47
479.08	11630.12
479.26	11733.11
479.44	11726.08
479.62	11822.05
479.80	11866.52
479.98	11913.33
480.16	12233.98
480.34	11995.25
480.52	12367.39
480.70	12238.66
480.88	12215.26
481.06	12400.16
481.24	12383.77
481.41	12945.50
481.59	12662.30
481.77	12966.57
481.95	13020.40
482.13	13078.91
482.31	13060.19
482.49	13266.16
482.67	13661.71
482.85	13542.34
483.03	13586.81
483.21	13540.00
483.39	13937.89
483.57	13820.86
483.74	14066.62
483.92	14132.15
484.10	14010.45
484.28	14045.55
484.46	14342.80
484.64	14766.44
484.82	14787.50
485.00	14345.14
485.18	14970.07
485.35	15293.06
485.53	14726.65
485.71	14764.10
485.89	15126.88
486.07	15225.18
486.25	15283.70
486.43	15356.25
486.61	15665.21
486.78	15836.06
486.96	15674.57
487.14	15974.16
487.32	16123.95
487.50	16348.64
487.68	16479.71
487.85	16662.27
488.03	16592.06
488.21	17046.12
488.39	16812.07
488.57	16868.24
488.75	17018.04
488.92	17392.52
489.10	17614.87
489.28	17488.48
489.46	17886.37
489.64	17783.39
489.81	18017.44
489.99	18246.82
490.17	18286.61
490.35	18331.08
490.53	18352.14
490.70	18480.87
490.88	18471.51
491.06	18848.33
491.24	18499.59
491.41	18490.23
491.59	18824.93
491.77	18827.27
491.95	19154.94
492.13	19440.49
492.30	19431.13
492.48	19889.87
492.66	19807.95
492.84	19676.88
493.01	19971.79
493.19	19728.38
493.37	20074.77
493.54	20166.06
493.72	20423.51
493.90	20690.34
494.08	20589.69
494.25	20945.45
494.43	21036.74
494.61	21266.11
494.79	21055.46
494.96	21432.29
495.14	21177.17
495.32	21516.54
495.49	21486.12
495.67	21612.51
495.85	21907.41
496.02	21956.57
496.20	22349.78
496.38	22429.35
496.55	22242.11
496.73	22710.22
496.91	22515.95
497.09	22497.23
497.26	22794.48
497.44	22785.12
497.62	22579.15
497.79	22974.70
497.97	22696.17
498.14	23101.09
498.32	23442.81
498.50	23491.96
498.67	23531.75
498.85	23587.92
499.03	23967.09
499.20	23946.02
499.38	23704.95
499.56	23992.83
499.73	24240.93
499.91	24180.07
500.08	24411.79
500.26	23992.83
500.44	24615.41
500.61	24332.21
500.79	24526.47
500.97	24376.68
501.14	24702.01
501.32	24828.40
501.49	24500.73
501.67	25104.59
501.84	25357.36
502.02	25120.97
502.20	25436.94
502.37	25006.28
502.55	25415.88
502.72	25479.07
502.90	25422.90
503.07	25579.71
503.25	25984.63
503.43	25647.59
503.60	25809.09
503.78	25701.42
503.95	25830.15
504.13	26249.11
504.30	26349.75
504.48	26176.55
504.65	26668.06
504.83	26593.17
505.01	26621.25
505.18	26885.73
505.36	26808.50
505.53	26600.19
505.71	26927.86
505.88	27424.06
506.06	27117.45
506.23	27206.39
506.41	27131.49
506.58	27098.72
506.76	27278.94
506.93	27688.54
507.11	27391.29
507.28	27740.03
507.46	27243.84
507.63	27934.29
507.81	27768.12
507.98	27424.06
508.16	27772.80
508.33	27791.52
508.50	28313.46
508.68	28088.77
508.85	28636.45
509.03	28421.13
509.20	28505.38
509.38	28650.50
509.55	29039.03
509.73	29237.97
509.90	28414.10
510.08	28533.47
510.25	28858.81
510.42	28687.95
510.60	29509.47
510.77	29034.35
510.95	29331.59
511.12	29242.65
511.30	29469.69
511.47	29560.97
511.64	29610.12
511.82	29467.34
511.99	29715.44
512.17	29745.87
512.34	30019.71
512.51	29841.83
512.69	30064.18
512.86	30735.92
513.04	29951.84
513.21	30221.00
513.38	30274.83
513.56	30038.44
513.73	30312.28
513.90	30719.53
514.08	30412.92
514.25	30813.15
514.43	30881.03
514.60	30796.77
514.77	31171.25
514.95	30829.54
515.12	30944.22
515.29	31079.97
515.47	31152.53
515.64	31424.03
515.81	31058.91
515.99	31447.44
516.16	31185.30
516.33	31578.51
516.51	31601.91
516.68	31417.01
516.85	31637.02
517.03	31763.41
517.20	31524.68
517.37	31730.64
517.54	31962.36
517.72	31735.32
517.89	31857.03
518.06	32318.12
518.24	32004.49
518.41	32215.13
518.58	31978.74
518.75	32142.58
518.93	32959.42
519.10	32444.51
519.27	32535.79
519.45	32416.42
519.62	32793.25
519.79	32900.91
519.96	32912.61
520.14	33226.24
520.31	32584.94
520.48	33366.68
520.65	33198.16
520.83	33694.35
521.00	33216.88
521.17	32903.25
521.34	33525.83
521.52	33333.91
521.69	33401.79
521.86	33626.48
522.03	33956.49
522.20	34157.78
522.38	33867.55
522.55	33848.83
522.72	33942.45
522.89	34017.35
523.07	34000.96
523.24	33797.34
523.41	34230.33
523.58	34169.48
523.75	34845.90
523.92	34387.15
524.10	34389.49
524.27	34778.02
524.44	34349.70
524.61	34768.66
524.78	34955.90
524.96	34522.90
525.13	35108.04
525.30	34925.47
525.47	35283.58
525.64	35271.87
525.81	35442.73
525.98	35622.95
526.16	34611.84
526.33	35035.48
526.50	35192.30
526.67	35211.02
526.84	34927.81
527.01	35178.25
527.18	35442.73
527.36	35445.07
527.53	35845.30
527.70	36189.36
527.87	35990.42
528.04	35889.77
528.21	35948.29
528.38	35409.96
528.55	36142.55
528.72	36018.50
528.89	36563.85
529.07	36620.02
529.24	36133.19
529.41	35847.64
529.58	36395.33
529.75	36144.89
529.92	36390.65
530.09	36432.78
530.26	36446.82
530.43	36561.51
530.60	36517.04
530.77	36720.66
530.94	36914.93
531.11	36957.06
531.28	37010.89
531.46	36807.26
531.63	37415.80
531.80	36964.08
531.97	36912.59
532.14	37160.69
532.31	36620.02
532.48	37181.75
532.65	37652.20
532.82	37109.19
532.99	37612.41
533.16	37462.61
533.33	37228.56
533.50	37687.31
533.67	37237.92
533.84	37221.54
534.01	37361.97
534.18	37535.17
534.35	38078.18
534.52	37727.10
534.69	38213.93
534.86	37904.98
535.03	38005.62
535.20	37867.53
535.37	38195.20
535.54	38204.56
535.71	37741.14
535.88	38267.76
536.05	38370.74
536.22	38291.16
536.38	38155.41
536.55	38658.63
536.72	38253.72
536.89	38312.23
537.06	38447.98
537.23	38600.12
537.40	38113.28
537.57	38504.15
537.74	38557.99
537.91	39119.71
538.08	38801.40
538.25	38672.67
538.42	38419.89
538.59	38859.91
538.75	38574.37
538.92	38827.15
539.09	38742.89
539.26	38967.58
539.43	39154.82
539.60	39065.88
539.77	39098.65
539.94	39044.82
540.11	39014.39
540.28	39103.33
540.44	39129.08
540.61	39136.10
540.78	38993.32
540.95	39297.59
541.12	39203.97
541.29	39215.68
541.46	39295.25
541.62	39557.39
541.79	39924.86
541.96	39707.19
542.13	39751.66
542.30	39779.74
542.47	39819.53
542.63	39517.60
542.80	39828.90
542.97	39950.60
543.14	40575.53
543.31	40151.89
543.48	40371.90
543.64	40680.85
543.81	40215.08
543.98	40587.23
544.15	40046.57
544.32	40589.57
544.48	41010.87
544.65	40479.57
544.82	40636.38
544.99	39929.54
545.16	40486.59
545.32	40659.79
545.49	41048.32
545.66	40542.76
545.83	41027.25
546.00	40765.11
546.16	40552.12
546.33	40598.93
546.50	40524.04
546.67	40732.34
546.83	40622.34
547.00	41212.15
547.17	41076.40
547.34	40818.94
547.50	40800.22
547.67	41333.86
547.84	41317.48
548.00	41413.44
548.17	41308.11
548.34	41408.76
548.51	41797.29
548.67	41691.96
548.84	41258.96
549.01	41448.55
549.18	41226.20
549.34	41530.47
549.51	41336.20
549.68	41673.24
549.84	41401.74
550.01	41652.17
550.18	41422.80
550.34	41345.56
550.51	41511.74
550.68	41607.70
550.84	41429.82
551.01	42120.28
551.18	41818.35
551.34	41928.36
551.51	42150.71
551.68	41893.25
551.84	42244.33
552.01	41469.61
552.18	41572.60
552.34	41752.82
552.51	42511.15
552.68	42019.64
552.84	42241.99
553.01	42483.06
553.18	41855.80
553.34	42433.91
553.51	41930.70
553.67	41806.65
553.84	42777.97
554.01	42389.44
554.17	42728.82
554.34	42576.69
554.51	42710.10
554.67	43056.50
554.84	42674.99
555.00	42417.53
555.17	41949.42
555.33	42574.34
555.50	42366.04
555.67	42890.32
555.83	42775.63
556.00	42534.56
556.16	43201.61
556.33	42742.86
556.50	42775.63
556.66	43271.82
556.83	42831.80
556.99	42707.76
557.16	42803.72
557.32	42792.01
557.49	42918.40
557.65	42398.80
557.82	42824.78
557.98	42855.21
558.15	42923.08
558.32	42653.92
558.48	43253.10
558.65	43112.67
558.81	42742.86
558.98	42899.68
559.14	42974.58
559.31	43203.95
559.47	42899.68
559.64	43154.80
559.80	43606.52
559.97	43367.79
560.13	42712.44
560.30	42876.27
560.46	42784.99
560.63	43409.92
560.79	43739.93
560.96	43278.85
561.12	43332.68
561.29	43384.17
561.45	43545.67
561.61	43185.22
561.78	43648.65
561.94	42930.11
562.11	43356.08
562.27	43278.85
562.44	43421.62
562.60	43704.82
562.77	43648.65
562.93	43650.99
563.10	43550.35
563.26	43206.29
563.42	43695.46
563.59	43295.23
563.75	43194.59
563.92	43688.44
564.08	44083.99
564.24	44006.75
564.41	43384.17
564.57	43548.01
564.74	43253.10
564.90	43786.74
565.07	43737.59
565.23	43667.37
565.39	43475.45
565.56	43784.40
565.72	43466.09
565.88	43625.25
566.05	44044.20
566.21	43611.20
566.38	44023.14
566.54	43615.88
566.70	44210.38
566.87	43686.10
567.03	43791.42
567.19	44374.22
567.36	43934.20
567.52	43845.26
567.68	44172.93
567.85	43915.47
568.01	44091.01
568.17	43938.88
568.34	44236.12
568.50	43894.41
568.66	43931.86
568.83	44212.72
568.99	43878.02
569.15	43976.33
569.32	43878.02
569.48	43662.69
569.64	44083.99
569.81	44208.04
569.97	43831.21
570.13	44196.34
570.30	43662.69
570.46	43608.86
570.62	43693.12
570.78	43828.87
570.95	43882.70
571.11	44348.47
571.27	44163.57
571.43	44224.42
571.60	44411.67
571.76	44282.94
571.92	43688.44
572.09	44034.84
572.25	43807.81
572.41	43690.78
572.57	43971.64
572.74	44992.12
572.90	44409.32
573.06	44168.25
573.22	44479.54
573.38	44479.54
573.55	44119.10
573.71	44362.51
573.87	44383.58
574.03	43880.36
574.20	44439.75
574.36	43966.96
574.52	44512.31
574.68	44360.17
574.84	44271.23
575.01	44308.68
575.17	44126.12
575.33	44219.74
575.49	44467.84
575.65	44711.25
575.82	44851.69
575.98	44435.07
576.14	44458.48
576.30	44154.21
576.46	43667.37
576.62	43983.35
576.79	44320.38
576.95	43983.35
577.11	44102.71
577.27	44395.28
577.43	44388.26
577.59	44690.19
577.75	44598.91
577.92	44350.81
578.08	44414.01
578.24	44254.85
578.40	43995.05
578.56	44662.10
578.72	44236.12
578.88	44493.58
579.04	44732.32
579.21	43936.54
579.37	44264.21
579.53	44304.00
579.69	43826.53
579.85	44079.31
580.01	44516.99
580.17	44198.68
580.33	44818.92
580.49	44559.12
580.65	44278.25
580.82	44374.22
580.98	44673.81
581.14	43903.77
581.30	44889.13
581.46	44294.64
581.62	44495.92
581.78	44516.99
581.94	44858.71
582.10	44566.14
582.26	44788.49
582.42	44264.21
582.58	44577.84
582.74	44439.75
582.90	44353.15
583.06	44332.09
583.22	44399.96
583.38	44521.67
583.54	44083.99
583.70	44699.55
583.86	44587.21
584.02	44144.84
584.18	44439.75
584.34	44568.48
584.50	44605.93
584.66	44299.32
584.82	44168.25
584.98	44687.85
585.14	44512.31
585.30	44542.74
585.46	44360.17
585.62	44020.80
585.78	44495.92
585.94	44238.47
586.10	44271.23
586.26	44411.67
586.42	44350.81
586.58	44467.84
586.74	44587.21
586.90	44325.07
587.06	44481.88
587.22	44509.97
587.38	44339.11
587.54	44561.46
587.70	45074.04
587.86	44509.97
588.02	44453.79
588.18	44783.81
588.34	44673.81
588.49	44083.99
588.65	44296.98
588.81	44364.85
588.97	44350.81
589.13	44273.57
589.29	44626.99
589.45	44395.28
589.61	44423.37
589.77	44790.83
589.93	44708.91
590.08	44917.22
590.24	45118.51
590.40	45504.70
590.56	44610.61
590.72	44790.83
590.88	44657.42
591.04	44697.21
591.20	44940.63
591.35	44968.71
591.51	45078.72
591.67	44889.13
591.83	45059.99
591.99	44444.43
592.15	44449.11
592.31	44739.34
592.46	44589.55
592.62	44940.63
592.78	44872.75
592.94	44772.11
593.10	44538.05
593.26	45212.13
593.41	44727.64
593.57	44638.70
593.73	44685.51
593.89	44942.97
594.05	45141.91
594.20	44598.91
594.36	45132.55
594.52	44861.05
594.68	45275.32
594.84	44961.69
594.99	45549.17
595.15	45170.00
595.31	44912.54
595.47	44992.12
595.62	44947.65
595.78	44842.32
595.94	45265.96
596.10	44542.74
596.25	44973.39
596.41	45006.16
596.57	45062.33
596.73	44685.51
596.88	44257.19
597.04	44662.10
597.20	45043.61
597.36	44966.37
597.51	45212.13
597.67	44678.49
597.83	45144.25
597.99	45240.21
598.14	44905.52
598.30	45404.05
598.46	44671.46
598.61	44821.26
598.77	44879.77
598.93	44589.55
599.09	45272.98
599.24	45448.52
599.40	45209.79
599.56	45111.49
599.71	44786.15
599.87	45059.99
600.03	45155.96
600.18	45003.82
600.34	44931.26
600.50	45247.24
600.65	44877.43
600.81	45132.55
600.97	45235.53
601.12	45390.01
601.28	45118.51
601.44	44825.94
601.59	45006.16
601.75	44921.90
601.91	45212.13
602.06	45083.40
602.22	45188.72
602.37	44715.93
602.53	45013.18
602.69	45364.26
602.84	45158.30
603.00	44587.21
603.16	45020.20
603.31	44928.92
603.47	45015.52
603.62	45172.34
603.78	45001.48
603.94	45010.84
604.09	45050.63
604.25	44933.60
604.40	44701.89
604.56	45003.82
604.71	44870.41
604.87	44701.89
605.03	44772.11
605.18	44863.39
605.34	44985.10
605.49	44683.17
605.65	44807.22
605.80	44711.25
605.96	44795.51
606.12	44519.33
606.27	45368.94
606.43	44903.18
606.58	45134.89
606.74	44774.45
606.89	44868.07
607.05	44552.10
607.20	45284.68
607.36	44395.28
607.51	44985.10
607.67	44825.94
607.82	44788.49
607.98	44708.91
608.13	44779.13
608.29	44638.70
608.44	44554.44
608.60	43765.68
608.75	44252.51
608.91	44402.30
609.06	44788.49
609.22	44935.95
609.37	44264.21
609.53	45008.50
609.68	44238.47
609.84	44584.86
609.99	44907.86
610.15	44547.42
610.30	44470.18
610.46	44315.70
610.61	44559.12
610.76	44371.88
610.92	44741.68
611.07	44561.46
611.23	44067.61
611.38	44292.30
611.54	44151.87
611.69	44025.48
611.84	44072.29
612.00	44486.56
612.15	43894.41
612.31	44334.43
612.46	44140.16
612.62	44556.78
612.77	44505.29
612.92	44292.30
613.08	44219.74
613.23	44032.50
613.39	44032.50
613.54	43728.23
613.69	43725.89
613.85	43969.30
614.00	44367.20
614.15	44355.49
614.31	44575.50
614.46	44259.53
614.62	43917.81
614.77	43969.30
614.92	43796.10
615.08	43901.43
615.23	43751.63
615.38	43964.62
615.54	43768.02
615.69	43817.17
615.84	43536.30
616.00	43526.94
616.15	43845.26
616.30	43882.70
616.46	43924.83
616.61	43344.38
616.76	43150.12
616.92	43826.53
617.07	43732.91
617.22	43477.79
617.37	43859.30
617.53	43580.78
617.68	43594.82
617.83	43435.66
617.99	43962.28
618.14	43648.65
618.29	43943.56
618.45	43292.89
618.60	43636.95
618.75	43543.33
618.90	43555.03
619.06	43328.00
619.21	43468.43
619.36	43147.78
619.51	43402.89
619.67	43290.55
619.82	43714.19
619.97	43880.36
620.12	43096.28
620.28	43112.67
620.43	43056.50
620.58	43426.30
620.73	43461.41
620.89	43016.71
621.04	43618.22
621.19	43124.37
621.34	42902.02
621.49	42948.83
621.65	42892.66
621.80	43250.76
621.95	43005.00
622.10	42902.02
622.25	42639.88
622.41	42644.56
622.56	42775.63
622.71	42993.30
622.86	42829.46
623.01	42890.32
623.16	43166.50
623.32	43264.80
623.47	42579.03
623.62	43040.11
623.77	42752.23
623.92	42513.49
624.07	42529.87
624.23	42703.07
624.38	41949.42
624.53	42382.42
624.68	42857.55
624.83	42546.26
624.98	42590.73
625.13	42256.03
625.29	42625.84
625.44	42660.94
625.59	42220.92
625.74	42183.48
625.89	41710.69
626.04	41909.63
626.19	41858.14
626.34	42258.37
626.49	42124.96
626.65	42204.54
626.80	42820.10
626.95	42225.60
627.10	42150.71
627.25	42029.00
627.40	41794.95
627.55	41738.77
627.70	41123.21
627.85	41603.02
628.00	41827.71
628.15	41982.19
628.30	41567.91
628.45	42108.58
628.60	41490.68
628.76	41970.49
628.91	41663.88
629.06	41624.09
629.21	41689.62
629.36	41757.50
629.51	41329.18
629.66	41324.50
629.81	41563.23
629.96	41460.25
630.11	41897.93
630.26	41361.95
630.41	41848.78
630.56	41256.62
630.71	41621.75
630.86	41277.69
631.01	41441.53
631.16	41518.76
631.31	41057.68
631.46	40907.88
631.61	41228.54
631.76	41401.74
631.91	41486.00
632.06	41631.11
632.21	41111.51
632.36	41434.50
632.51	40987.46
632.66	41284.71
632.81	41088.10
632.96	41076.40
633.10	41450.89
633.25	40418.71
633.40	40823.62
633.55	41305.77
633.70	41230.88
633.85	40856.39
634.00	40889.16
634.15	40910.22
634.30	40650.42
634.45	40900.86
634.60	40657.45
634.75	40774.47
634.90	40570.85
635.05	40577.87
635.19	40753.41
635.34	40802.56
635.49	40271.26
635.64	40645.74
635.79	40374.24
635.94	40231.47
636.09	40624.68
636.24	40238.49
636.39	40261.90
636.53	40203.38
636.68	40278.28
636.83	40175.30
636.98	40444.46
637.13	40233.81
637.28	40676.17
637.43	40275.94
637.57	40378.92
637.72	40631.70
637.87	40456.16
638.02	40390.62
638.17	40385.94
638.32	40144.87
638.46	39772.72
638.61	39606.55
638.76	39892.09
638.91	40072.31
639.06	39828.90
639.20	39807.83
639.35	40023.16
639.50	39587.82
639.65	40327.43
639.80	39985.71
639.94	39819.53
640.09	39931.88
640.24	39545.69
640.39	39414.62
640.54	39683.78
640.68	39297.59
640.83	39758.68
640.98	39405.26
641.13	39512.92
641.27	40088.70
641.42	39917.84
641.57	39770.38
641.72	39878.05
641.86	39225.04
642.01	39477.82
642.16	39241.42
642.31	38813.10
642.45	39519.95
642.60	39143.12
642.75	38775.66
642.90	39431.01
643.04	39105.67
643.19	39480.16
643.34	39536.33
643.48	39227.38
643.63	39309.30
643.78	38815.44
643.93	38789.70
644.07	39154.82
644.22	39019.07
644.37	38845.87
644.51	38742.89
644.66	39194.61
644.81	39358.45
644.95	39199.29
645.10	39054.18
645.25	39496.54
645.39	39112.69
645.54	39173.55
645.69	39044.82
645.83	38981.62
645.98	39002.69
646.13	38565.01
646.27	38946.51
646.42	38529.90
646.57	38880.98
646.71	38969.92
646.86	38778.00
647.00	38813.10
647.15	39063.54
647.30	38595.43
647.44	38859.91
647.59	38857.57
647.74	38607.14
647.88	38845.87
648.03	38492.45
648.17	38110.94
648.32	38398.83
648.47	38363.72
648.61	38174.14
648.76	38932.47
648.90	38087.54
649.05	38735.87
649.20	38333.29
649.34	38225.63
649.49	38478.41
649.63	38326.27
649.78	38342.66
649.92	38061.79
650.07	38656.29
650.21	38106.26
650.36	38326.27
650.51	38066.47
650.65	38183.50
650.80	38127.33
650.94	38490.11
651.09	37839.44
651.23	37816.04
651.38	37947.11
651.52	37853.48
651.67	38106.26
651.81	38022.00
651.96	37593.68
652.10	38007.96
652.25	37811.35
652.39	37839.44
652.54	38164.78
652.68	37944.76
652.83	38136.69
652.97	37806.67
653.12	37827.74
653.26	37778.59
653.41	37823.06
653.55	37481.34
653.70	37607.73
653.84	37408.78
653.99	37771.57
654.13	37720.07
654.27	37731.78
654.42	37806.67
654.56	37682.62
654.71	37083.45
654.85	37509.43
655.00	37392.40
655.14	37134.94
655.29	37270.69
655.43	37324.52
655.57	36928.97
655.72	36992.17
655.86	37069.40
656.01	37046.00
656.15	37249.63
656.30	37137.28
656.44	37020.25
656.58	37106.85
656.73	37008.55
656.87	36617.68
657.01	36744.07
657.16	36978.12
657.30	36367.24
657.45	36676.19
657.59	37029.62
657.73	36444.48
657.88	36755.77
658.02	36596.62
658.16	36917.27
658.31	37226.22
658.45	36795.56
658.60	36369.58
658.74	36989.83
658.88	36327.45
659.03	36526.40
659.17	36842.37
659.31	36095.74
659.46	36196.38
659.60	36432.78
659.74	36088.72
659.89	36156.60
660.03	36472.57
660.17	36383.63
660.32	36458.52
660.46	36268.94
660.60	36315.75
660.74	36341.50
660.89	36149.57
661.03	35587.85
661.17	35627.63
661.32	35487.20
661.46	35466.14
661.60	35679.13
661.74	35744.66
661.89	35232.08
662.03	35791.47
662.17	35590.19
662.31	35248.47
662.46	35660.40
662.60	35742.32
662.74	35452.09
662.88	35498.91
663.03	35103.35
663.17	35651.04
663.31	35054.20
663.45	35035.48
663.60	34876.32
663.74	34895.05
663.88	35040.16
664.02	34991.01
664.17	35281.24
664.31	34572.05
664.45	34775.68
664.59	34600.14
664.73	34668.02
664.88	34593.12
665.02	34520.56
665.16	34724.19
665.30	34457.37
665.44	34157.78
665.59	34075.86
665.73	33895.64
665.87	34139.05
666.01	34150.76
666.15	34490.13
666.29	33841.81
666.44	34272.46
666.58	33970.54
666.72	33692.01
666.86	34139.05
667.00	34115.65
667.14	33839.47
667.28	33970.54
667.43	33057.73
667.57	33633.50
667.71	33254.33
667.85	33371.36
667.99	33809.04
668.13	33186.46
668.27	33380.72
668.41	33766.91
668.56	32980.49
668.70	33582.01
668.84	33507.11
668.98	33174.75
669.12	33031.98
669.26	33010.92
669.40	33137.30
669.54	32634.09
669.68	32484.30
669.82	33099.86
669.96	32577.92
670.10	32589.62
670.25	32491.32
670.39	32849.42
670.53	32428.12
670.67	32624.73
670.81	32919.63
670.95	32343.86
671.09	32353.23
671.23	32428.12
671.37	32491.32
671.51	32233.86
671.65	32123.85
671.79	32135.56
671.93	31882.78
672.07	32367.27
672.21	31943.63
672.35	31803.20
672.49	31777.45
672.63	32081.72
672.77	31756.39
672.91	31618.30
673.05	31386.58
673.19	31704.90
673.33	31335.09
673.47	31220.41
673.61	31391.26
673.75	30972.31
673.89	30684.42
674.03	30958.27
674.17	30740.60
674.31	30913.80
674.45	30897.41
674.59	31061.25
674.73	31101.04
674.87	30967.63
675.01	30801.45
675.15	30759.32
675.29	30408.24
675.43	30661.02
675.56	30618.89
675.70	30162.48
675.84	30326.32
675.98	29263.72
676.12	30075.88
676.26	30422.28
676.40	30003.33
676.54	29804.38
676.68	29895.66
676.82	28964.13
676.96	29186.48
677.10	29448.62
677.23	29130.31
677.37	29006.26
677.51	29252.02
677.65	29230.95
677.79	28922.00
677.93	29074.13
678.07	28699.65
678.21	28526.45
678.34	28713.69
678.48	28224.52
678.62	28203.46
678.76	28519.43
678.90	28400.06
679.04	28259.63
679.18	28694.97
679.31	27859.40
679.45	27721.30
679.59	27599.60
679.73	27922.59
679.87	27435.76
680.00	27627.68
680.14	27690.88
680.28	27192.34
680.42	27110.43
680.56	27557.47
680.70	27363.20
680.83	26913.82
680.97	26862.33
681.11	26717.22
681.25	26801.47
681.39	26843.60
681.52	26761.69
681.66	26724.24
681.80	26665.72
681.94	26511.25
682.07	26742.96
682.21	26218.68
682.35	26111.02
682.49	26677.43
682.62	26206.98
682.76	25968.24
682.90	26015.05
683.04	26045.48
683.17	25933.14
683.31	25788.02
683.45	25837.17
683.59	25851.22
683.72	25212.25
683.86	25298.85
684.00	25259.06
684.13	25242.68
684.27	25394.81
684.41	24903.30
684.55	25268.42
684.68	24884.58
684.82	24699.67
684.96	24664.57
685.09	24800.32
685.23	24587.33
685.37	24339.23
685.50	24409.45
685.64	24531.15
685.78	24123.90
685.91	24077.09
686.05	24215.18
686.19	23578.56
686.32	23484.94
686.46	23569.19
686.60	23592.60
686.73	23494.30
686.87	23426.42
687.01	23597.28
687.14	23351.52
687.28	22946.61
687.42	23147.90
687.55	22984.06
687.69	23014.49
687.82	23241.52
687.96	22696.17
688.10	22527.66
688.23	22724.26
688.37	22040.82
688.50	22059.55
688.64	22279.56
688.78	22094.66
688.91	21965.93
689.05	22246.79
689.18	22118.06
689.32	21783.37
689.46	22111.04
689.59	22108.70
689.73	22022.10
689.86	21579.74
690.00	21820.81
690.13	21898.05
690.27	21401.86
690.41	21392.50
690.54	21179.51
690.68	21090.57
690.81	20961.84
690.95	20940.77
691.08	20936.09
691.22	20840.13
691.35	21223.98
691.49	20868.22
691.62	21032.05
691.76	20699.70
691.89	20404.79
692.03	20205.84
692.16	20208.19
692.30	20411.81
692.43	20484.37
692.57	19934.34
692.70	19758.80
692.84	19836.04
692.97	19887.53
693.11	19524.75
693.24	19859.45
693.38	19513.05
693.51	19346.87
693.65	19213.46
693.78	19220.48
693.92	19269.63
694.05	19386.66
694.19	19281.33
694.32	19030.90
694.45	18979.40
694.59	18897.49
694.72	19110.47
694.86	18888.12
694.99	18628.32
695.13	18508.96
695.26	18616.62
695.39	18420.02
695.53	18050.21
695.66	18527.68
695.80	18295.97
695.93	18209.37
696.07	17956.59
696.20	18080.64
696.33	18176.60
696.47	18050.21
696.60	18139.15
696.73	17561.04
696.87	17724.88
697.00	17841.90
697.14	17549.34
697.27	17579.76
697.40	17657.00
697.54	17481.46
697.67	17104.64
697.80	17277.83
697.94	17057.82
698.07	17078.89
698.21	16657.59
698.34	17233.36
698.47	16989.95
698.61	16259.70
698.74	16615.46
698.87	16851.86
699.01	16510.14
699.14	16418.86
699.27	16477.37
699.40	16175.44
699.54	16318.22
699.67	15922.66
699.80	16154.38
699.94	16203.53
700.07	15852.45
700.20	16025.65
700.34	15538.82
700.47	15637.12
700.60	15981.18
700.73	15871.17
700.87	15492.01
701.00	15477.96
701.13	15393.70
701.26	15438.17
701.40	15307.10
701.53	15351.57
701.66	15161.99
701.79	15300.08
701.93	15150.29
702.06	14890.49
702.19	15054.33
702.32	15030.92
702.46	14658.78
702.59	14724.31
702.72	14640.05
702.85	14621.33
702.99	14525.36
703.12	14752.40
703.25	14298.33
703.38	14546.43
703.51	14295.99
703.65	14345.14
703.78	14246.84
703.91	13802.14
704.04	14281.95
704.17	13998.74
704.31	14050.24
704.44	13811.50
704.57	13495.53
704.70	13614.90
704.83	13570.43
704.96	13731.92
705.10	13781.07
705.23	13781.07
>>>>>End Processed Spectral Data<<<<<
