SpectraSuite Data File
++++++++++++++++++++++++++++++++++++
Date: Fri Oct 25 10:48:15 EDT 2013
User: price-jones
Dark Spectrum Present: No
Reference Spectrum Present: No
Number of Sampled Component Spectra: 1
Spectrometers: USB2+H05261
Integration Time (usec): 100000 (USB2+H05261)
Spectra Averaged: 1 (USB2+H05261)
Boxcar Smoothing: 0 (USB2+H05261)
Correct for Electrical Dark: No (USB2+H05261)
Strobe/Lamp Enabled: No (USB2+H05261)
Correct for Detector Non-linearity: No (USB2+H05261)
Correct for Stray Light: No (USB2+H05261)
Number of Pixels in Processed Spectrum: 2048
>>>>>Begin Processed Spectral Data<<<<<
365.73	156.82
365.92	156.82
366.12	156.82
366.32	65.54
366.52	60.85
366.72	128.73
366.91	105.32
367.11	37.45
367.31	23.41
367.51	95.96
367.70	16.38
367.90	46.81
368.10	16.38
368.30	11.70
368.49	0.00
368.69	58.51
368.89	2.34
369.09	133.41
369.28	91.28
369.48	46.81
369.68	81.92
369.87	42.13
370.07	126.39
370.27	117.03
370.47	212.99
370.66	355.76
370.86	489.17
371.06	423.64
371.25	456.40
371.45	475.13
371.65	507.90
371.84	425.98
372.04	456.40
372.24	564.07
372.44	411.93
372.63	500.87
372.83	554.71
373.03	533.64
373.22	561.73
373.42	547.69
373.62	479.81
373.81	568.75
374.01	524.28
374.21	547.69
374.40	564.07
374.60	521.94
374.79	564.07
374.99	547.69
375.19	566.41
375.38	636.63
375.58	617.90
375.78	547.69
375.97	599.18
376.17	645.99
376.37	585.13
376.56	645.99
376.76	624.92
376.95	585.13
377.15	610.88
377.35	629.60
377.54	613.22
377.74	627.26
377.93	622.58
378.13	601.52
378.33	664.71
378.52	594.50
378.72	690.46
378.91	748.97
379.11	688.12
379.31	660.03
379.50	711.52
379.70	636.63
379.89	709.18
380.09	624.92
380.28	620.24
380.48	678.76
380.68	755.99
380.87	704.50
381.07	683.44
381.26	664.71
381.46	685.78
381.65	631.94
381.85	603.86
382.04	641.31
382.24	739.61
382.43	755.99
382.63	730.25
382.83	669.39
383.02	725.57
383.22	786.42
383.41	702.16
383.61	720.88
383.80	837.91
384.00	706.84
384.19	737.27
384.39	734.93
384.58	788.76
384.78	807.48
384.97	760.67
385.17	767.70
385.36	847.27
385.56	807.48
385.75	795.78
385.95	800.46
386.14	809.83
386.34	777.06
386.53	856.64
386.72	805.14
386.92	926.85
387.11	835.57
387.31	851.96
387.50	734.93
387.70	854.30
387.89	854.30
388.09	887.06
388.28	891.74
388.48	889.40
388.67	856.64
388.86	964.30
389.06	922.17
389.25	936.21
389.45	938.55
389.64	926.85
389.84	971.32
390.03	985.37
390.22	945.58
390.42	945.58
390.61	952.60
390.81	891.74
391.00	1025.15
391.19	1076.65
391.39	1036.86
391.58	952.60
391.78	1048.56
391.97	1006.43
392.16	1015.79
392.36	1025.15
392.55	999.41
392.75	1015.79
392.94	950.26
393.13	1039.20
393.33	1020.47
393.52	1093.03
393.71	1057.92
393.91	1067.28
394.10	1083.67
394.29	1170.27
394.49	1128.14
394.68	1196.01
394.88	1153.88
395.07	1153.88
395.26	1240.48
395.46	1188.99
395.65	1247.51
395.84	1191.33
396.04	1228.78
396.23	1214.74
396.42	1172.61
396.62	1170.27
396.81	1268.57
397.00	1207.72
397.19	1174.95
397.39	1242.82
397.58	1207.72
397.77	1280.27
397.97	1235.80
398.16	1364.53
398.35	1394.96
398.55	1327.08
398.74	1418.36
398.93	1392.62
399.12	1453.47
399.32	1432.41
399.51	1343.47
399.70	1500.28
399.90	1500.28
400.09	1519.01
400.28	1507.30
400.47	1448.79
400.67	1509.65
400.86	1514.33
401.05	1497.94
401.24	1643.06
401.44	1645.40
401.63	1629.01
401.82	1526.03
402.01	1530.71
402.21	1645.40
402.40	1629.01
402.59	1647.74
402.78	1558.80
402.97	1610.29
403.17	1717.95
403.36	1778.81
403.55	1696.89
403.74	1783.49
403.93	1844.34
404.13	1802.21
404.32	1666.46
404.51	1720.29
404.70	1823.28
404.89	1823.28
405.09	1849.02
405.28	1902.86
405.47	1886.47
405.66	1839.66
405.85	1898.17
406.05	1881.79
406.24	1888.81
406.43	1949.67
406.62	2012.86
406.81	1991.80
407.00	1970.73
407.20	2010.52
407.39	1973.07
407.58	2050.31
407.77	2069.03
407.96	2120.53
408.15	2101.80
408.34	1991.80
408.54	2073.71
408.73	2155.63
408.92	2167.34
409.11	2176.70
409.30	2174.36
409.49	2125.21
409.68	2188.40
409.87	2300.75
410.07	2160.31
410.26	2263.30
410.45	2300.75
410.64	2417.77
410.83	2347.56
411.02	2434.16
411.21	2459.90
411.40	2504.37
411.59	2401.39
411.78	2459.90
411.98	2359.26
412.17	2417.77
412.36	2462.24
412.55	2586.29
412.74	2581.61
412.93	2558.21
413.12	2558.21
413.31	2682.25
413.50	2705.66
413.69	2586.29
413.88	2782.90
414.07	2705.66
414.26	2878.86
414.45	2771.19
414.64	2930.35
414.83	2904.60
415.02	2967.80
415.22	2834.39
415.41	2876.52
415.60	3133.98
415.79	2963.12
415.98	3166.74
416.17	3075.46
416.36	3084.83
416.55	3131.64
416.74	3033.33
416.93	3152.70
417.12	3023.97
417.31	3054.40
417.50	3262.71
417.69	3241.64
417.88	3255.69
418.07	3248.66
418.26	3267.39
418.45	3375.05
418.64	3410.16
418.83	3445.27
419.02	3386.76
419.21	3421.86
419.39	3318.88
419.58	3358.67
419.77	3400.80
419.96	3442.93
420.15	3538.89
420.34	3463.99
420.53	3541.23
420.72	3597.40
420.91	3698.05
421.10	3674.64
421.29	3655.92
421.48	3487.40
421.67	3581.02
421.86	3590.38
422.05	3559.95
422.24	3627.83
422.43	3520.17
422.61	3524.85
422.80	3630.17
422.99	3749.54
423.18	3688.68
423.37	3756.56
423.56	3726.13
423.75	3653.58
423.94	3634.85
424.13	3475.70
424.32	3571.66
424.50	3861.88
424.69	3789.33
424.88	3854.86
425.07	3861.88
425.26	3798.69
425.45	3541.23
425.64	3700.39
425.83	3693.37
426.01	3669.96
426.20	3733.15
426.39	3742.52
426.58	3798.69
426.77	3754.22
426.96	3819.75
427.15	3803.37
427.33	3880.61
427.52	3927.42
427.71	3915.72
427.90	3967.21
428.09	3981.25
428.28	4014.02
428.46	3929.76
428.65	3932.10
428.84	4051.47
429.03	4079.55
429.22	3911.04
429.40	4095.94
429.59	3875.93
429.78	3798.69
429.97	3875.93
430.16	3815.07
430.34	3918.06
430.53	4098.28
430.72	3960.19
430.91	4117.00
431.10	4140.41
431.28	4348.72
431.47	4383.82
431.66	4414.25
431.85	4381.48
432.03	4535.96
432.22	4344.03
432.41	4440.00
432.60	4430.63
432.79	4367.44
432.97	4442.34
433.16	4484.47
433.35	4407.23
433.54	4468.08
433.72	4414.25
433.91	4484.47
434.10	4404.89
434.28	4641.28
434.47	4627.24
434.66	4622.56
434.85	4648.30
435.03	4718.52
435.22	4573.41
435.41	4929.17
435.59	4732.56
435.78	4791.08
435.97	4940.87
436.16	4823.84
436.34	4945.55
436.53	4727.88
436.72	4875.34
436.90	4781.71
437.09	4842.57
437.28	4961.94
437.46	4971.30
437.65	4880.02
437.84	5004.07
438.02	4868.31
438.21	4915.12
438.40	4884.70
438.58	5053.22
438.77	5043.85
438.96	5053.22
439.14	5343.44
439.33	5441.75
439.52	5352.81
439.70	5270.89
439.89	5261.52
440.08	5554.09
440.26	5434.72
440.45	5544.73
440.63	5628.99
440.82	5626.65
441.01	5713.25
441.19	5760.06
441.38	5760.06
441.57	5907.51
441.75	5961.34
441.94	5809.21
442.12	5900.49
442.31	5959.00
442.50	6050.28
442.68	5930.92
442.87	5989.43
443.05	5825.59
443.24	6047.94
443.43	6097.10
443.61	5977.73
443.80	6307.74
443.98	5975.39
444.17	5863.04
444.35	6164.97
444.54	6384.98
444.73	6284.34
444.91	6223.48
445.10	6029.22
445.28	6139.23
445.47	6129.86
445.65	5968.37
445.84	6218.80
446.02	6363.92
446.21	6258.59
446.39	6190.72
446.58	6272.64
446.77	6267.95
446.95	6146.25
447.14	6310.08
447.32	6436.47
447.51	6279.66
447.69	6338.17
447.88	6331.15
448.06	6399.02
448.25	6480.94
448.43	6399.02
448.62	6382.64
448.80	6347.53
448.99	6289.02
449.17	6483.28
449.36	6417.75
449.54	6539.46
449.73	6593.29
449.91	6679.89
450.10	6672.87
450.28	6724.36
450.46	6672.87
450.65	6853.09
450.83	6792.23
451.02	6719.68
451.20	6857.77
451.39	6935.01
451.57	6899.90
451.76	6677.55
451.94	6885.86
452.13	7002.88
452.31	6876.49
452.49	6925.65
452.68	6876.49
452.86	6757.13
453.05	6860.11
453.23	6956.07
453.42	7075.44
453.60	6970.12
453.78	7075.44
453.97	6977.14
454.15	7023.95
454.34	7040.33
454.52	7082.46
454.70	7258.00
454.89	7143.32
455.07	7171.40
455.26	7220.55
455.44	7239.28
455.62	7405.46
455.81	7321.20
455.99	7342.26
456.17	7307.15
456.36	7258.00
456.54	7459.29
456.73	7634.83
456.91	7819.73
457.09	7646.53
457.28	7721.43
457.46	7489.71
457.64	7742.49
457.83	7632.49
458.01	7630.15
458.19	7723.77
458.38	7737.81
458.56	7782.28
458.74	7918.03
458.93	7700.36
459.11	7857.18
459.29	7939.10
459.48	8072.51
459.66	8053.78
459.84	7988.25
460.03	8119.32
460.21	8098.25
460.39	7943.78
460.57	8021.02
460.76	8196.56
460.94	8116.98
461.12	8147.40
461.31	8091.23
461.49	8339.33
461.67	8304.22
461.85	8386.14
462.04	8243.37
462.22	8879.99
462.40	8493.80
462.59	8294.86
462.77	8545.30
462.95	8386.14
463.13	8360.39
463.32	8432.95
463.50	8629.56
463.68	8674.03
463.86	8451.67
464.05	8463.38
464.23	8575.72
464.41	8657.64
464.59	8545.30
464.78	8858.93
464.96	8580.40
465.14	8699.77
465.32	8872.97
465.50	8947.87
465.69	8889.35
465.87	8898.72
466.05	8786.37
466.23	8917.44
466.41	8767.65
466.60	9088.30
466.78	8620.19
466.96	8898.72
467.14	8872.97
467.32	9071.92
467.51	9071.92
467.69	8877.65
467.87	8854.25
468.05	9064.89
468.23	9032.13
468.41	9041.49
468.60	9001.70
468.78	9142.13
468.96	9085.96
469.14	9188.94
469.32	9312.99
469.50	9142.13
469.69	9233.41
469.87	9507.26
470.05	9350.44
470.23	9425.34
470.41	9474.49
470.59	9523.64
470.77	9437.04
470.95	9523.64
471.14	9703.86
471.32	9490.87
471.50	9734.29
471.68	9783.44
471.86	9738.97
472.04	10038.56
472.22	9724.93
472.40	9839.61
472.58	9834.93
472.77	9987.07
472.95	10139.20
473.13	10565.18
473.31	10272.61
473.49	10115.80
473.67	10235.16
473.85	10347.51
474.03	10729.02
474.21	10434.11
474.39	10380.28
474.57	10342.83
474.75	10700.93
474.93	10656.46
475.12	10614.33
475.30	10752.42
475.48	10635.39
475.66	10747.74
475.84	10773.49
476.02	10874.13
476.20	10860.09
476.38	11176.06
476.56	11234.57
476.74	11293.08
476.92	11248.61
477.10	11063.71
477.28	11520.12
477.46	11611.40
477.64	11815.02
477.82	11880.56
478.00	11915.67
478.18	12056.10
478.36	12156.74
478.54	11922.69
478.72	11946.09
478.90	12187.17
479.08	12671.66
479.26	12463.35
479.44	12397.82
479.62	12814.43
479.80	12915.08
479.98	12868.27
480.16	12994.65
480.34	12814.43
480.52	13317.65
480.70	13310.63
480.88	13092.96
481.06	13247.43
481.24	13378.50
481.41	13390.20
481.59	13741.29
481.77	13518.93
481.95	13642.98
482.13	13605.53
482.31	13776.39
482.49	14445.79
482.67	14293.65
482.85	14295.99
483.03	14752.40
483.21	14611.96
483.39	14642.39
483.57	14764.10
483.74	14846.02
483.92	14881.13
484.10	15218.16
484.28	15222.84
484.46	15492.01
484.64	15875.85
484.82	15332.85
485.00	15398.38
485.18	15857.13
485.35	15819.68
485.53	15585.63
485.71	15793.94
485.89	15768.19
486.07	15707.34
486.25	16264.38
486.43	16238.64
486.61	16388.43
486.78	16615.46
486.96	16601.42
487.14	17132.72
487.32	17032.08
487.50	17287.20
487.68	17228.68
487.85	17549.34
488.03	17823.18
488.21	18106.38
488.39	17926.16
488.57	17771.69
488.75	17935.53
488.92	17944.89
489.10	18434.06
489.28	18693.86
489.46	19000.47
489.64	18771.10
489.81	19185.37
489.99	19178.35
490.17	19241.54
490.35	19435.81
490.53	19592.62
490.70	19459.21
490.88	19583.26
491.06	20053.71
491.24	19889.87
491.41	19939.02
491.59	20065.41
491.77	20119.24
491.95	20367.34
492.13	20449.26
492.30	20802.68
492.48	20652.89
492.66	21139.72
492.84	20922.05
493.01	21209.93
493.19	20889.28
493.37	21411.22
493.54	21556.33
493.72	21502.50
493.90	21743.58
494.08	21902.73
494.25	22087.64
494.43	22387.22
494.61	22403.61
494.79	22520.63
494.96	22515.95
495.14	22583.83
495.32	22778.09
495.49	22913.84
495.67	23063.64
495.85	23379.61
496.02	23136.20
496.20	23007.47
496.38	23384.29
496.55	23417.06
496.73	23929.64
496.91	23770.48
497.09	24156.67
497.26	24100.50
497.44	24084.11
497.62	24271.36
497.79	24381.36
497.97	24259.65
498.14	24416.47
498.32	24638.82
498.50	24870.53
498.67	24870.53
498.85	24964.15
499.03	25315.23
499.20	25125.65
499.38	25535.24
499.56	25568.01
499.73	25827.81
499.91	25453.33
500.08	25949.52
500.26	25399.49
500.44	25645.25
500.61	25610.14
500.79	25769.30
500.97	26008.03
501.14	25642.91
501.32	26059.52
501.49	26174.21
501.67	26583.80
501.84	26377.84
502.02	26696.15
502.20	26780.41
502.37	27222.77
502.55	26808.50
502.72	26848.29
502.90	26925.52
503.07	26904.46
503.25	26946.59
503.43	26953.61
503.60	27204.05
503.78	27412.35
503.95	27035.53
504.13	27473.21
504.30	27644.07
504.48	27718.96
504.65	28058.34
504.83	27929.61
505.01	28390.70
505.18	28107.49
505.36	28290.06
505.53	28196.43
505.71	28723.05
505.88	28407.08
506.06	28332.18
506.23	28732.42
506.41	28414.10
506.58	28701.99
506.76	28575.60
506.93	28697.31
507.11	29301.17
507.28	29223.93
507.46	29202.86
507.63	29280.10
507.81	29216.91
507.98	28980.51
508.16	29743.53
508.33	29567.99
508.50	29495.43
508.68	29865.24
508.85	30221.00
509.03	29408.83
509.20	30178.87
509.38	30146.10
509.55	30218.66
509.73	30068.86
509.90	30132.06
510.08	30469.09
510.25	30321.64
510.42	30328.66
510.60	30487.82
510.77	30892.73
510.95	31079.97
511.12	30855.28
511.30	31047.21
511.47	31267.22
511.64	31194.66
511.82	31517.65
511.99	31028.48
512.17	31505.95
512.34	31037.84
512.51	31531.70
512.69	31796.18
512.86	31833.63
513.04	32180.03
513.21	31543.40
513.38	32210.45
513.56	32051.30
513.73	31908.52
513.90	31826.60
514.08	31889.80
514.25	32442.17
514.43	32390.67
514.60	32163.64
514.77	32151.94
514.95	32779.20
515.12	32556.85
515.29	32793.25
515.47	32868.14
515.64	32863.46
515.81	32786.22
515.99	32683.24
516.16	32823.67
516.33	32765.16
516.51	32687.92
516.68	32301.73
516.85	32921.98
517.03	32737.07
517.20	32933.68
517.37	33369.02
517.54	33567.96
517.72	33050.70
517.89	33132.62
518.06	33329.23
518.24	33333.91
518.41	33385.40
518.58	33251.99
518.75	33802.02
518.93	33509.45
519.10	33940.11
519.27	34108.63
519.45	33874.57
519.62	34256.08
519.79	34565.03
519.96	34492.47
520.14	34923.13
520.31	34501.84
520.48	34904.41
520.65	34532.26
520.83	34955.90
521.00	34778.02
521.17	34976.97
521.34	34534.60
521.52	35075.27
521.69	35049.52
521.86	35271.87
522.03	34672.70
522.20	35278.89
522.38	35644.02
522.55	35578.48
522.72	35599.55
522.89	35512.95
523.07	36067.66
523.24	35477.84
523.41	36091.06
523.58	35922.54
523.75	35922.54
523.92	35922.54
524.10	36023.19
524.27	36074.68
524.44	36357.88
524.61	36311.07
524.78	36556.83
524.96	36460.87
525.13	36481.93
525.30	36737.05
525.47	36891.52
525.64	36762.79
525.81	36458.52
525.98	36854.08
526.16	36254.90
526.33	36109.78
526.50	36751.09
526.67	36629.38
526.84	36938.33
527.01	36264.26
527.18	36676.19
527.36	36919.61
527.53	37120.90
527.70	37303.46
527.87	37324.52
528.04	37081.11
528.21	37266.01
528.38	37394.74
528.55	37743.48
528.72	37699.01
528.89	37560.92
529.07	37900.29
529.24	37574.96
529.41	37883.91
529.58	37422.83
529.75	37670.92
529.92	37914.34
530.09	37926.04
530.26	38120.31
530.43	38422.23
530.60	37848.80
530.77	38141.37
530.94	38445.64
531.11	38394.15
531.28	38623.52
531.46	38782.68
531.63	38340.32
531.80	38457.34
531.97	38555.64
532.14	38829.49
532.31	38485.43
532.48	38871.62
532.65	38782.68
532.82	38780.34
532.99	38691.40
533.16	38532.24
533.33	38820.13
533.50	39274.19
533.67	39164.18
533.84	38916.09
534.01	39473.13
534.18	38815.44
534.35	39613.57
534.52	39335.04
534.69	39700.17
534.86	39365.47
535.03	39386.54
535.20	39878.05
535.37	40093.38
535.54	40055.93
535.71	39639.31
535.88	39503.56
536.05	39629.95
536.22	39948.26
536.38	40109.76
536.55	40076.99
536.72	39772.72
536.89	39395.90
537.06	39803.15
537.23	40121.46
537.40	39782.09
537.57	40100.40
537.74	40304.02
537.91	40605.95
538.08	40772.13
538.25	40065.29
538.42	40732.34
538.59	41045.97
538.75	40135.51
538.92	40320.41
539.09	40498.29
539.26	40509.99
539.43	40289.98
539.60	40671.49
539.77	40524.04
539.94	40542.76
540.11	40650.42
540.28	40659.79
540.44	40587.23
540.61	40814.26
540.78	40727.66
540.95	40587.23
541.12	41120.87
541.29	40680.85
541.46	41029.59
541.62	40975.76
541.79	41331.52
541.96	40818.94
542.13	40847.03
542.30	41085.76
542.47	41371.31
542.63	41310.46
542.80	41521.10
542.97	41626.43
543.14	42309.86
543.31	41830.05
543.48	42171.77
543.64	41933.04
543.81	42457.32
543.98	41780.90
544.15	41977.51
544.32	41577.28
544.48	42059.43
544.65	41818.35
544.82	42054.75
544.99	42092.19
545.16	42321.57
545.32	42021.98
545.49	42263.05
545.66	42401.14
545.83	42349.65
546.00	42440.93
546.16	42277.10
546.33	41853.46
546.50	41963.46
546.67	42017.30
546.83	41923.68
547.00	42258.37
547.17	42270.08
547.34	42438.59
547.50	42614.13
547.67	42536.90
547.84	42307.52
548.00	42536.90
548.17	42639.88
548.34	43019.05
548.51	43089.26
548.67	43072.88
548.84	42918.40
549.01	43122.03
549.18	42754.57
549.34	42939.47
549.51	43037.77
549.68	43503.54
549.84	43372.47
550.01	43660.35
550.18	42225.60
550.34	43440.34
550.51	42532.22
550.68	43033.09
550.84	42759.25
551.01	43653.33
551.18	42899.68
551.34	43386.51
551.51	43409.92
551.68	43505.88
551.84	43526.94
552.01	43735.25
552.18	43576.09
552.34	43306.93
552.51	43765.68
552.68	43655.67
552.84	43601.84
553.01	43824.19
553.18	43569.07
553.34	43222.67
553.51	43339.70
553.67	43707.16
553.84	44051.22
554.01	44406.98
554.17	43962.28
554.34	43807.81
554.51	43756.32
554.67	43990.37
554.84	43945.90
555.00	43763.34
555.17	43533.96
555.33	43447.36
555.50	43948.24
555.67	43810.15
555.83	44046.54
556.00	44093.35
556.16	44531.03
556.33	44289.96
556.50	43821.85
556.66	44399.96
556.83	43871.00
556.99	44369.54
557.16	44481.88
557.32	44533.37
557.49	44444.43
557.65	44219.74
557.82	43950.58
557.98	44294.64
558.15	44055.90
558.32	44219.74
558.48	44203.36
558.65	44528.69
558.81	44355.49
558.98	44100.37
559.14	44362.51
559.31	44568.48
559.47	44292.30
559.64	44776.79
559.80	44659.76
559.97	44828.28
560.13	44325.07
560.30	44650.40
560.46	44598.91
560.63	44624.65
560.79	44676.15
560.96	44638.70
561.12	44648.06
561.29	44697.21
561.45	44729.98
561.61	44493.58
561.78	44793.17
561.94	44315.70
562.11	45219.15
562.27	44851.69
562.44	44847.00
562.60	44795.51
562.77	44924.24
562.93	45254.26
563.10	45244.90
563.26	44877.43
563.42	45539.80
563.59	45390.01
563.75	44739.34
563.92	45052.97
564.08	45064.67
564.24	45008.50
564.41	45085.74
564.57	45071.70
564.74	45214.47
564.90	45165.32
565.07	44954.67
565.23	44847.00
565.39	45240.21
565.56	45045.95
565.72	44825.94
565.88	45324.47
566.05	44928.92
566.21	45027.23
566.38	44978.07
566.54	44947.65
566.70	45205.11
566.87	45633.42
567.03	45322.13
567.19	45563.21
567.36	45022.54
567.52	45270.64
567.68	45448.52
567.85	44891.48
568.01	44940.63
568.17	45017.86
568.34	45242.56
568.50	45411.07
568.66	44657.42
568.83	45495.33
568.99	45076.38
569.15	45600.66
569.32	45322.13
569.48	45162.98
569.64	45734.07
569.81	45661.51
569.97	44788.49
570.13	45397.03
570.30	44992.12
570.46	45256.60
570.62	45144.25
570.78	45074.04
570.95	45153.62
571.11	45574.91
571.27	45216.81
571.43	44947.65
571.60	45113.83
571.76	45317.45
571.92	45375.97
572.09	45254.26
572.25	45624.06
572.41	45291.71
572.57	45258.94
572.74	46043.02
572.90	45521.08
573.06	45387.67
573.22	45500.01
573.38	45579.59
573.55	45256.60
573.71	45773.86
573.87	45488.31
574.03	45280.00
574.20	45532.78
574.36	45694.28
574.52	45488.31
574.68	45684.92
574.84	45462.57
575.01	45610.02
575.17	45642.79
575.33	45514.06
575.49	45368.94
575.65	45296.39
575.82	45724.71
575.98	45626.40
576.14	45762.15
576.30	45593.64
576.46	45558.53
576.62	45387.67
576.79	44905.52
576.95	45212.13
577.11	45563.21
577.27	45354.90
577.43	45457.88
577.59	45368.94
577.75	45001.48
577.92	44755.72
578.08	45017.86
578.24	45200.43
578.40	45661.51
578.56	45588.95
578.72	45287.03
578.88	45521.08
579.04	45797.26
579.21	45783.22
579.37	45523.42
579.53	44912.54
579.69	45177.02
579.85	45638.11
580.01	45261.28
580.17	45347.88
580.33	45865.14
580.49	45546.82
580.65	45586.61
580.82	45869.82
580.98	45441.50
581.14	45425.12
581.30	45776.20
581.46	45738.75
581.62	45577.25
581.78	45532.78
581.94	46197.49
582.10	45855.78
582.26	45989.19
582.42	45588.95
582.58	45633.42
582.74	45675.55
582.90	45563.21
583.06	45872.16
583.22	46082.81
583.38	46169.41
583.54	46026.63
583.70	45509.38
583.86	45553.85
584.02	45724.71
584.18	45942.38
584.34	45647.47
584.50	45432.14
584.66	45979.82
584.82	45436.82
584.98	46087.49
585.14	45689.60
585.30	45968.12
585.46	45137.23
585.62	45310.43
585.78	45769.18
585.94	45600.66
586.10	45277.66
586.26	45921.31
586.42	45663.85
586.58	46190.47
586.74	46082.81
586.90	46106.21
587.06	45619.38
587.22	45542.14
587.38	45780.88
587.54	45818.33
587.70	45815.99
587.86	45539.80
588.02	45900.25
588.18	45895.56
588.34	45652.15
588.49	45317.45
588.65	45071.70
588.81	45340.86
588.97	45195.74
589.13	45457.88
589.29	45682.58
589.45	45708.32
589.61	45883.86
589.77	45965.78
589.93	45778.54
590.08	45808.96
590.24	46108.55
590.40	45808.96
590.56	46101.53
590.72	46043.02
590.88	45532.78
591.04	46124.94
591.20	46260.69
591.35	46103.87
591.51	46213.88
591.67	45918.97
591.83	45769.18
591.99	45869.82
592.15	45462.57
592.31	46174.09
592.46	46094.51
592.62	45603.00
592.78	45928.33
592.94	46082.81
593.10	45984.51
593.26	46501.76
593.41	45862.80
593.57	46043.02
593.73	46026.63
593.89	45907.27
594.05	45698.96
594.20	45848.75
594.36	46050.04
594.52	46005.57
594.68	45823.01
594.84	46284.09
594.99	46380.06
595.15	45682.58
595.31	46319.20
595.47	46036.00
595.62	46028.98
595.78	46138.98
595.94	46160.05
596.10	46211.54
596.25	46447.93
596.41	45815.99
596.57	46417.50
596.73	46073.45
596.88	45694.28
597.04	46174.09
597.20	46094.51
597.36	46239.62
597.51	46394.10
597.67	46057.06
597.83	45940.04
597.99	46267.71
598.14	46270.05
598.30	45846.41
598.46	46043.02
598.61	46047.70
598.77	45839.39
598.93	45588.95
599.09	46160.05
599.24	46263.03
599.40	46450.27
599.56	45970.46
599.71	46349.63
599.87	46312.18
600.03	46307.50
600.18	45708.32
600.34	45909.61
600.50	45984.51
600.65	45696.62
600.81	46059.40
600.97	45876.84
601.12	46148.34
601.28	46218.56
601.44	45977.48
601.59	45727.05
601.75	45656.83
601.91	45879.18
602.06	46450.27
602.22	45982.16
602.37	46031.32
602.53	45991.53
602.69	46089.83
602.84	46347.29
603.00	46045.36
603.16	46108.55
603.31	46007.91
603.47	45923.65
603.62	46211.54
603.78	46164.73
603.94	45961.10
604.09	46284.09
604.25	46176.43
604.40	45652.15
604.56	45902.59
604.71	46043.02
604.87	45925.99
605.03	46157.70
605.18	45815.99
605.34	45743.43
605.49	45757.47
605.65	46115.58
605.80	46160.05
605.96	46129.62
606.12	46232.60
606.27	46230.26
606.43	45741.09
606.58	45872.16
606.74	45666.19
606.89	45834.71
607.05	45808.96
607.20	45846.41
607.36	46024.29
607.51	45925.99
607.67	45916.63
607.82	45748.11
607.98	45893.22
608.13	45694.28
608.29	45944.72
608.44	45956.42
608.60	45294.05
608.75	45490.65
608.91	45530.44
609.06	45626.40
609.22	45539.80
609.37	45621.72
609.53	45202.77
609.68	45738.75
609.84	45565.55
609.99	45434.48
610.15	45759.81
610.30	45315.11
610.46	45478.95
610.61	45425.12
610.76	45270.64
610.92	45556.19
611.07	45153.62
611.23	45167.66
611.38	45738.75
611.54	44961.69
611.69	45050.63
611.84	45223.83
612.00	45235.53
612.15	45200.43
612.31	45303.41
612.46	45153.62
612.62	45038.93
612.77	45317.45
612.92	45361.92
613.08	45120.85
613.23	44868.07
613.39	45174.68
613.54	45055.31
613.69	45120.85
613.85	45078.72
614.00	45354.90
614.15	45567.89
614.31	45258.94
614.46	45256.60
614.62	45043.61
614.77	45441.50
614.92	44959.35
615.08	44765.09
615.23	45139.57
615.38	45151.27
615.54	44516.99
615.69	44919.56
615.84	44353.15
616.00	44474.86
616.15	44594.23
616.30	44725.30
616.46	44694.87
616.61	44713.59
616.76	44617.63
616.92	45237.87
617.07	44570.82
617.22	44175.27
617.37	44465.50
617.53	44856.37
617.68	44865.73
617.83	44559.12
617.99	44690.19
618.14	44584.86
618.29	44376.56
618.45	44236.12
618.60	44505.29
618.75	44261.87
618.90	44671.46
619.06	44762.75
619.21	44397.62
619.36	44512.31
619.51	44353.15
619.67	44126.12
619.82	44399.96
619.97	44390.60
620.12	43885.04
620.28	43931.86
620.43	43885.04
620.58	43938.88
620.73	44039.52
620.89	43985.69
621.04	44299.32
621.19	43992.71
621.34	44030.16
621.49	43992.71
621.65	43896.75
621.80	43821.85
621.95	43768.02
622.10	43728.23
622.25	43929.51
622.41	43524.60
622.56	43812.49
622.71	43810.15
622.86	43264.80
623.01	43681.42
623.16	44039.52
623.32	43487.15
623.47	43849.94
623.62	43639.29
623.77	43765.68
623.92	43894.41
624.07	43337.36
624.23	43442.68
624.38	43208.63
624.53	43440.34
624.68	43494.18
624.83	43487.15
624.98	43496.52
625.13	43716.53
625.29	43288.21
625.44	43328.00
625.59	43175.86
625.74	42623.50
625.89	43014.37
626.04	43452.05
626.19	42649.24
626.34	43063.52
626.49	43105.65
626.65	42885.64
626.80	43297.57
626.95	43019.05
627.10	42752.23
627.25	42679.67
627.40	42899.68
627.55	42340.29
627.70	42249.01
627.85	42436.25
628.00	42660.94
628.15	43065.86
628.30	42483.06
628.45	43077.56
628.60	42960.53
628.76	43030.75
628.91	42850.53
629.06	42686.69
629.21	42513.49
629.36	42476.04
629.51	42457.32
629.66	42611.79
629.81	42646.90
629.96	42094.53
630.11	42600.09
630.26	42679.67
630.41	42806.06
630.56	42609.45
630.71	41865.16
630.86	42216.24
631.01	42213.90
631.16	41921.34
631.31	42218.58
631.46	41607.70
631.61	42447.96
631.76	42267.73
631.91	42021.98
632.06	42139.00
632.21	42394.12
632.36	42171.77
632.51	41724.73
632.66	41970.49
632.81	41717.71
632.96	41577.28
633.10	41844.10
633.25	41888.57
633.40	41832.39
633.55	42136.66
633.70	41991.55
633.85	41413.44
634.00	42080.49
634.15	41427.48
634.30	41713.03
634.45	41771.54
634.60	41764.52
634.75	41668.56
634.90	41816.01
635.05	41607.70
635.19	41507.06
635.34	41689.62
635.49	41558.55
635.64	41546.85
635.79	41003.85
635.94	41481.31
636.09	41364.29
636.24	41141.94
636.39	41305.77
636.53	40835.33
636.68	41214.49
636.83	41064.70
636.98	41251.94
637.13	40851.71
637.28	41041.29
637.43	41425.14
637.57	41291.73
637.72	41076.40
637.87	41453.23
638.02	40992.14
638.17	41031.93
638.32	41097.47
638.46	40987.46
638.61	40961.72
638.76	40704.26
638.91	40821.28
639.06	40498.29
639.20	40893.84
639.35	41041.29
639.50	40645.74
639.65	41078.74
639.80	41186.41
639.94	40779.15
640.09	40659.79
640.24	40364.88
640.39	40191.68
640.54	40521.69
640.68	40545.10
640.83	40648.08
640.98	40552.12
641.13	40201.04
641.27	40526.38
641.42	40519.35
641.57	40474.88
641.72	40535.74
641.86	40385.94
642.01	40203.38
642.16	40023.16
642.31	39604.20
642.45	40259.55
642.60	39917.84
642.75	40053.59
642.90	40219.77
643.04	40203.38
643.19	40191.68
643.34	40041.88
643.48	40203.38
643.63	40189.34
643.78	39629.95
643.93	39707.19
644.07	40009.12
644.22	40016.14
644.37	39672.08
644.51	38983.96
644.66	39508.24
644.81	39854.64
644.95	39707.19
645.10	40039.54
645.25	40058.27
645.39	39358.45
645.54	39590.16
645.69	39636.97
645.83	39674.42
645.98	39805.49
646.13	39765.70
646.27	39903.79
646.42	39604.20
646.57	39714.21
646.71	39421.64
646.86	39615.91
647.00	39974.01
647.15	39505.90
647.30	40091.04
647.44	39440.37
647.59	39426.32
647.74	39199.29
647.88	39009.71
648.03	39070.56
648.17	39199.29
648.32	39189.93
648.47	38815.44
648.61	38822.47
648.76	39377.17
648.90	39541.01
649.05	39215.68
649.20	38913.75
649.34	39405.26
649.49	38925.45
649.63	39328.02
649.78	39049.50
649.92	38873.96
650.07	38749.91
650.21	38546.28
650.36	38993.32
650.51	38703.10
650.65	39491.86
650.80	39285.89
650.94	38998.01
651.09	38927.79
651.23	38909.07
651.38	38447.98
651.52	38789.70
651.67	38785.02
651.81	38132.01
651.96	38330.95
652.10	39014.39
652.25	38305.21
652.39	38588.41
652.54	38574.37
652.68	38735.87
652.83	38667.99
652.97	38653.95
653.12	38469.04
653.26	38536.92
653.41	38747.57
653.55	38134.35
653.70	38298.19
653.84	38396.49
653.99	38405.85
654.13	38183.50
654.27	38536.92
654.42	38150.73
654.56	38181.16
654.71	38272.44
654.85	38309.89
655.00	38132.01
655.14	38024.34
655.29	38099.24
655.43	37738.80
655.57	37607.73
655.72	37308.14
655.86	37462.61
656.01	37535.17
656.15	37738.80
656.30	38082.86
656.44	37504.74
656.58	37586.66
656.73	37263.67
656.87	37495.38
657.01	37425.17
657.16	37691.99
657.30	37385.38
657.45	37315.16
657.59	37532.83
657.73	37134.94
657.88	37404.10
658.02	37397.08
658.16	37443.89
658.31	37343.25
658.45	37642.84
658.60	37207.50
658.74	37198.13
658.88	37038.98
659.03	36465.55
659.17	36601.30
659.31	37067.06
659.46	36662.15
659.60	36809.61
659.74	36781.52
659.89	36715.98
660.03	36596.62
660.17	36858.76
660.32	36669.17
660.46	37167.71
660.60	37163.03
660.74	36231.49
660.89	36378.95
661.03	36620.02
661.17	36055.95
661.32	36573.21
661.46	36327.45
661.60	36051.27
661.74	35967.01
661.89	36172.98
662.03	36657.47
662.17	36524.06
662.31	36268.94
662.46	35978.72
662.60	36292.35
662.74	36278.30
662.88	36264.26
663.03	35910.84
663.17	36009.14
663.31	35784.45
663.45	35634.66
663.60	35592.53
663.74	35477.84
663.88	35318.68
664.02	35140.80
664.17	35648.70
664.31	35035.48
664.45	35627.63
664.59	35283.58
664.73	35363.15
664.88	35140.80
665.02	35178.25
665.16	35559.76
665.30	35115.06
665.44	35138.46
665.59	34911.43
665.73	34962.92
665.87	34801.43
666.01	34787.38
666.15	34609.50
666.29	34902.07
666.44	34686.74
666.58	34871.64
666.72	34775.68
666.86	34763.98
667.00	34422.26
667.14	34146.08
667.28	34391.83
667.43	34375.45
667.57	34511.20
667.71	34225.65
667.85	34260.76
667.99	33865.21
668.13	33572.64
668.27	33771.59
668.41	33811.38
668.56	33715.42
668.70	33879.25
668.84	33860.53
668.98	33633.50
669.12	33804.36
669.26	34092.24
669.40	33472.00
669.54	33752.87
669.68	33532.86
669.82	33415.83
669.96	33254.33
670.10	33202.84
670.25	33345.61
670.39	33359.66
670.53	33291.78
670.67	33261.35
670.81	33240.29
670.95	33582.01
671.09	33209.86
671.23	32971.13
671.37	33357.32
671.51	32795.59
671.65	32781.54
671.79	32488.98
671.93	32720.69
672.07	32723.03
672.21	32484.30
672.35	32500.68
672.49	32554.51
672.63	32765.16
672.77	32343.86
672.91	31995.12
673.05	32072.36
673.19	32175.34
673.33	31960.02
673.47	32409.40
673.61	31761.07
673.75	31709.58
673.89	31264.88
674.03	31112.74
674.17	31557.44
674.31	31381.90
674.45	31646.38
674.59	31576.17
674.73	31431.05
674.87	31339.77
675.01	31054.23
675.15	31054.23
675.29	30654.00
675.43	31072.95
675.56	31199.34
675.70	31049.55
675.84	30597.82
675.98	30043.12
676.12	30815.49
676.26	30874.01
676.40	30593.14
676.54	30375.47
676.68	30717.19
676.82	29720.12
676.96	29986.94
677.10	29827.79
677.23	29998.65
677.37	29909.71
677.51	29549.26
677.65	29579.69
677.79	29167.76
677.93	29284.78
678.07	29289.46
678.21	29221.59
678.34	28617.73
678.48	28933.70
678.62	29053.07
678.76	28858.81
678.90	28760.50
679.04	28606.03
679.18	28657.52
679.31	28327.50
679.45	28079.41
679.59	28184.73
679.73	28308.78
679.87	28266.65
680.00	28261.97
680.14	27782.16
680.28	27880.46
680.42	27840.67
680.56	27910.89
680.70	27763.43
680.83	27552.79
680.97	27246.18
681.11	27442.78
681.25	27454.48
681.39	27548.11
681.52	27665.13
681.66	27410.01
681.80	27204.05
681.94	27037.87
682.07	27229.79
682.21	26445.71
682.35	26480.82
682.49	26682.11
682.62	26616.57
682.76	26335.71
682.90	26443.37
683.04	26536.99
683.17	26202.30
683.31	26092.29
683.45	26298.26
683.59	25792.70
683.72	25879.30
683.86	26115.70
684.00	25607.80
684.13	25846.54
684.27	25509.50
684.41	25439.28
684.55	25406.52
684.68	25549.29
684.82	24978.20
684.96	24968.84
685.09	25025.01
685.23	24929.05
685.37	24418.81
685.50	24678.61
685.64	25057.78
685.78	24631.80
685.91	25090.54
686.05	24297.10
686.19	24425.83
686.32	24421.15
686.46	24121.56
686.60	23625.37
686.73	23756.44
686.87	23384.29
687.01	23405.36
687.14	23480.25
687.28	23332.80
687.42	23260.24
687.55	23211.09
687.69	23110.45
687.82	23089.38
687.96	22972.36
688.10	23173.64
688.23	22984.06
688.37	22927.89
688.50	22684.47
688.64	22441.06
688.78	22251.47
688.91	22361.48
689.05	22565.10
689.18	22134.45
689.32	21942.52
689.46	22115.72
689.59	22497.23
689.73	22223.39
689.86	21708.47
690.00	22422.33
690.13	22237.43
690.27	21706.13
690.41	21806.77
690.54	21645.27
690.68	21399.52
690.81	21411.22
690.95	21584.42
691.08	21193.55
691.22	21287.17
691.35	21245.04
691.49	21102.27
691.62	21186.53
691.76	21116.31
691.89	20767.57
692.03	20891.62
692.16	20680.97
692.30	20573.31
692.43	20432.88
692.57	20446.92
692.70	20493.73
692.84	20217.55
692.97	20077.12
693.11	20130.95
693.24	19864.13
693.38	19894.55
693.51	19637.09
693.65	20189.46
693.78	20112.22
693.92	19747.10
694.05	19510.71
694.19	19604.33
694.32	19250.91
694.45	19573.90
694.59	19232.18
694.72	19051.96
694.86	18864.72
694.99	18555.77
695.13	18609.60
695.26	18609.60
695.39	18686.84
695.53	18721.95
695.66	19026.21
695.80	18525.34
695.93	18490.23
696.07	18132.13
696.20	18530.02
696.33	18190.64
696.47	18136.81
696.60	18204.69
696.73	17834.88
696.87	18183.62
697.00	18164.90
697.14	17965.95
697.27	17830.20
697.40	17877.01
697.54	17605.51
697.67	17640.62
697.80	17429.97
697.94	17488.48
698.07	17118.68
698.21	17305.92
698.34	17296.56
698.47	17193.58
698.61	16961.86
698.74	16690.36
698.87	16905.69
699.01	16690.36
699.14	16496.10
699.27	16620.14
699.40	16365.03
699.54	16442.26
699.67	16315.87
699.80	16203.53
699.94	16360.34
700.07	16123.95
700.20	15929.69
700.34	15782.23
700.47	16266.72
700.60	16123.95
700.73	16100.55
700.87	15686.27
701.00	15339.87
701.13	15597.33
701.26	16002.24
701.40	15763.51
701.53	15733.08
701.66	15522.43
701.79	15468.60
701.93	15108.16
702.06	15384.34
702.19	14939.64
702.32	14988.79
702.46	14644.73
702.59	14747.72
702.72	14958.36
702.85	15274.34
702.99	15122.20
703.12	14899.85
703.25	14714.95
703.38	14511.32
703.51	14436.42
703.65	14546.43
703.78	14272.59
703.91	14473.87
704.04	14436.42
704.17	14398.98
704.31	14190.67
704.44	13708.52
704.57	13790.44
704.70	13792.78
704.83	13862.99
704.96	13659.37
705.10	13720.22
705.23	13877.04
>>>>>End Processed Spectral Data<<<<<
