SpectraSuite Data File
++++++++++++++++++++++++++++++++++++
Date: Fri Oct 25 10:48:06 EDT 2013
User: price-jones
Dark Spectrum Present: No
Reference Spectrum Present: No
Number of Sampled Component Spectra: 1
Spectrometers: USB2+H05261
Integration Time (usec): 100000 (USB2+H05261)
Spectra Averaged: 1 (USB2+H05261)
Boxcar Smoothing: 0 (USB2+H05261)
Correct for Electrical Dark: No (USB2+H05261)
Strobe/Lamp Enabled: No (USB2+H05261)
Correct for Detector Non-linearity: No (USB2+H05261)
Correct for Stray Light: No (USB2+H05261)
Number of Pixels in Processed Spectrum: 2048
>>>>>Begin Processed Spectral Data<<<<<
365.73	184.90
365.92	184.90
366.12	184.90
366.32	91.28
366.52	14.04
366.72	25.75
366.91	0.00
367.11	46.81
367.31	49.15
367.51	0.00
367.70	37.45
367.90	117.03
368.10	35.11
368.30	70.22
368.49	72.56
368.69	98.30
368.89	0.00
369.09	32.77
369.28	25.75
369.48	46.81
369.68	11.70
369.87	32.77
370.07	77.24
370.27	177.88
370.47	180.22
370.66	376.83
370.86	465.77
371.06	454.06
371.25	510.24
371.45	461.09
371.65	524.28
371.84	521.94
372.04	440.02
372.24	404.91
372.44	463.43
372.63	440.02
372.83	514.92
373.03	442.36
373.22	498.53
373.42	517.26
373.62	425.98
373.81	482.15
374.01	526.62
374.21	554.71
374.40	545.34
374.60	573.43
374.79	510.24
374.99	498.53
375.19	528.96
375.38	615.56
375.58	568.75
375.78	589.82
375.97	458.74
376.17	613.22
376.37	547.69
376.56	587.47
376.76	601.52
376.95	606.20
377.15	512.58
377.35	688.12
377.54	599.18
377.74	596.84
377.93	589.82
378.13	559.39
378.33	585.13
378.52	552.37
378.72	519.60
378.91	674.07
379.11	610.88
379.31	671.73
379.50	681.10
379.70	657.69
379.89	636.63
380.09	608.54
380.28	641.31
380.48	772.38
380.68	613.22
380.87	550.03
381.07	568.75
381.26	718.54
381.46	627.26
381.65	688.12
381.85	688.12
382.04	624.92
382.24	641.31
382.43	624.92
382.63	713.86
382.83	683.44
383.02	739.61
383.22	767.70
383.41	671.73
383.61	678.76
383.80	704.50
384.00	683.44
384.19	655.35
384.39	685.78
384.58	725.57
384.78	765.36
384.97	774.72
385.17	688.12
385.36	657.69
385.56	725.57
385.75	711.52
385.95	718.54
386.14	704.50
386.34	777.06
386.53	833.23
386.72	779.40
386.92	751.31
387.11	844.93
387.31	870.68
387.50	767.70
387.70	795.78
387.89	798.12
388.09	877.70
388.28	751.31
388.48	826.21
388.67	842.59
388.86	891.74
389.06	919.83
389.25	926.85
389.45	931.53
389.64	889.40
389.84	931.53
390.03	912.81
390.22	917.49
390.42	980.68
390.61	882.38
390.81	884.72
391.00	866.00
391.19	837.91
391.39	917.49
391.58	912.81
391.78	992.39
391.97	1011.11
392.16	1015.79
392.36	1048.56
392.55	987.71
392.75	959.62
392.94	931.53
393.13	1022.81
393.33	866.00
393.52	1022.81
393.71	1057.92
393.91	983.02
394.10	938.55
394.29	1053.24
394.49	976.00
394.68	1165.59
394.88	1074.31
395.07	1069.62
395.26	1090.69
395.46	1048.56
395.65	1050.90
395.84	1055.58
396.04	1191.33
396.23	1102.39
396.42	1121.12
396.62	1137.50
396.81	1071.97
397.00	1167.93
397.19	1242.82
397.39	1217.08
397.58	1228.78
397.77	1203.04
397.97	1203.04
398.16	1235.80
398.35	1275.59
398.55	1280.27
398.74	1261.55
398.93	1289.64
399.12	1261.55
399.32	1273.25
399.51	1315.38
399.70	1441.77
399.90	1364.53
400.09	1404.32
400.28	1359.85
400.47	1296.66
400.67	1390.28
400.86	1376.24
401.05	1338.79
401.24	1430.07
401.44	1460.49
401.63	1507.30
401.82	1526.03
402.01	1556.46
402.21	1441.77
402.40	1514.33
402.59	1544.75
402.78	1537.73
402.97	1444.11
403.17	1558.80
403.36	1582.20
403.55	1544.75
403.74	1554.12
403.93	1619.65
404.13	1504.96
404.32	1579.86
404.51	1610.29
404.70	1593.90
404.89	1572.84
405.09	1654.76
405.28	1626.67
405.47	1561.14
405.66	1638.38
405.85	1659.44
406.05	1764.76
406.24	1645.40
406.43	1783.49
406.62	1804.55
406.81	1900.52
407.00	1715.61
407.20	1748.38
407.39	1732.00
407.58	1802.21
407.77	1830.30
407.96	1902.86
408.15	1977.75
408.34	1902.86
408.54	1842.00
408.73	1998.82
408.92	1912.22
409.11	1982.43
409.30	1919.24
409.49	1930.94
409.68	2010.52
409.87	1989.46
410.07	2017.54
410.26	2099.46
410.45	2172.02
410.64	2132.23
410.83	2125.21
411.02	2167.34
411.21	2223.51
411.40	2092.44
411.59	2120.53
411.78	2113.50
411.98	2251.60
412.17	2256.28
412.36	2267.98
412.55	2150.95
412.74	2396.71
412.93	2340.54
413.12	2410.75
413.31	2476.29
413.50	2401.39
413.69	2551.18
413.88	2537.14
414.07	2502.03
414.26	2523.10
414.45	2588.63
414.64	2576.93
414.83	2689.28
415.02	2726.72
415.22	2803.96
415.41	2750.13
415.60	2710.34
415.79	2651.83
415.98	2768.85
416.17	2862.48
416.36	2670.55
416.55	2782.90
416.74	2850.77
416.93	2771.19
417.12	2853.11
417.31	2869.50
417.50	2857.79
417.69	3054.40
417.88	2918.65
418.07	2970.14
418.26	2965.46
418.45	2937.37
418.64	3187.81
418.83	3206.53
419.02	3129.30
419.21	3157.38
419.39	3159.72
419.58	3023.97
419.77	3030.99
419.96	3218.24
420.15	3192.49
420.34	3138.66
420.53	3220.58
420.72	3248.66
420.91	3309.52
421.10	3424.20
421.29	3473.36
421.48	3236.96
421.67	3297.81
421.86	3346.97
422.05	3414.84
422.24	3325.90
422.43	3356.33
422.61	3449.95
422.80	3335.26
422.99	3482.72
423.18	3499.10
423.37	3522.51
423.56	3435.91
423.75	3440.59
423.94	3468.67
424.13	3138.66
424.32	3234.62
424.50	3609.11
424.69	3513.14
424.88	3517.83
425.07	3508.46
425.26	3403.14
425.45	3279.09
425.64	3466.33
425.83	3431.23
426.01	3485.06
426.20	3543.57
426.39	3471.01
426.58	3461.65
426.77	3520.17
426.96	3588.04
427.15	3609.11
427.33	3616.13
427.52	3604.42
427.71	3529.53
427.90	3581.02
428.09	3758.90
428.28	3658.26
428.46	3550.59
428.65	3637.19
428.84	3691.02
429.03	3840.82
429.22	3707.41
429.40	3775.28
429.59	3681.66
429.78	3543.57
429.97	3639.53
430.16	3655.92
430.34	3751.88
430.53	3854.86
430.72	3723.79
430.91	3803.37
431.10	3749.54
431.28	3929.76
431.47	3960.19
431.66	4098.28
431.85	3796.35
432.03	4100.62
432.22	4051.47
432.41	4032.74
432.60	4124.02
432.79	4383.82
432.97	4105.30
433.16	4196.58
433.35	3922.74
433.54	4177.86
433.72	4236.37
433.91	4217.65
434.10	4201.26
434.28	4198.92
434.47	4311.27
434.66	4383.82
434.85	4259.78
435.03	4327.65
435.22	4348.72
435.41	4402.55
435.59	4425.95
435.78	4531.28
435.97	4400.21
436.16	4369.78
436.34	4627.24
436.53	4456.38
436.72	4559.36
436.90	4344.03
437.09	4643.62
437.28	4442.34
437.46	4671.71
437.65	4578.09
437.84	4685.75
438.02	4641.28
438.21	4568.73
438.40	4482.13
438.58	4713.84
438.77	4760.65
438.96	4781.71
439.14	4844.91
439.33	4978.32
439.52	5001.72
439.70	5060.24
439.89	5062.58
440.08	5001.72
440.26	5116.41
440.45	5146.84
440.63	4983.00
440.82	5179.61
441.01	5121.09
441.19	5226.42
441.38	5331.74
441.57	5343.44
441.75	5348.12
441.94	5383.23
442.12	5446.43
442.31	5523.66
442.50	5497.92
442.68	5582.18
442.87	5535.37
443.05	5703.89
443.24	5617.29
443.43	5556.43
443.61	5827.93
443.80	5746.02
443.98	5687.50
444.17	5516.64
444.35	5724.95
444.54	5830.27
444.73	5743.67
444.91	5628.99
445.10	5717.93
445.28	5729.63
445.47	5556.43
445.65	5769.42
445.84	5671.12
446.02	5858.36
446.21	5657.07
446.39	5727.29
446.58	5703.89
446.77	5778.78
446.95	5895.81
447.14	5753.04
447.32	5853.68
447.51	5982.41
447.69	5778.78
447.88	5776.44
448.06	5776.44
448.25	5774.10
448.43	5973.05
448.62	5830.27
448.80	6026.88
448.99	5987.09
449.17	5963.68
449.36	6069.01
449.54	6066.67
449.73	6174.33
449.91	6310.08
450.10	6146.25
450.28	6125.18
450.46	6169.65
450.65	6246.89
450.83	6289.02
451.02	6045.60
451.20	6361.58
451.39	6450.52
451.57	6228.17
451.76	6328.81
451.94	6380.30
452.13	6415.41
452.31	6310.08
452.49	6246.89
452.68	6312.42
452.86	6373.28
453.05	6429.45
453.23	6462.22
453.42	6450.52
453.60	6427.11
453.78	6494.99
453.97	6553.50
454.15	6471.58
454.34	6483.28
454.52	6473.92
454.70	6504.35
454.89	6654.14
455.07	6647.12
455.26	6647.12
455.44	6876.49
455.62	6796.92
455.81	6686.91
455.99	6974.80
456.17	6839.05
456.36	6862.45
456.54	7080.12
456.73	6918.62
456.91	7180.76
457.09	6927.99
457.28	7234.60
457.46	7124.59
457.64	7122.25
457.83	7213.53
458.01	7101.19
458.19	7105.87
458.38	7096.50
458.56	7365.67
458.74	7480.35
458.93	7236.94
459.11	7356.30
459.29	7445.24
459.48	7344.60
459.66	7222.89
459.84	7274.38
460.03	7403.11
460.21	7562.27
460.39	7473.33
460.57	7602.06
460.76	7456.95
460.94	7480.35
461.12	7365.67
461.31	7641.85
461.49	7681.64
461.67	7499.08
461.85	7875.90
462.04	7786.96
462.22	8107.62
462.40	7786.96
462.59	7833.77
462.77	7948.46
462.95	7929.74
463.13	7829.09
463.32	7843.14
463.50	7955.48
463.68	8058.46
463.86	7854.84
464.05	7866.54
464.23	7997.61
464.41	7976.55
464.59	7772.92
464.78	8159.11
464.96	8079.53
465.14	7716.75
465.32	8053.78
465.50	8234.00
465.69	8250.39
465.87	8128.68
466.05	8198.90
466.23	8217.62
466.41	8177.83
466.60	8435.29
466.78	8191.88
466.96	8121.66
467.14	8283.16
467.32	8386.14
467.51	8374.44
467.69	8245.71
467.87	8395.50
468.05	8608.49
468.23	8381.46
468.41	8353.37
468.60	8329.97
468.78	8479.76
468.96	8414.23
469.14	8313.58
469.32	8732.54
469.50	8442.31
469.69	8587.43
469.87	8542.96
470.05	8805.10
470.23	8662.32
470.41	8849.57
470.59	8947.87
470.77	8982.98
470.95	8950.21
471.14	9001.70
471.32	8826.16
471.50	9135.11
471.68	9259.16
471.86	8987.66
472.04	9233.41
472.22	9385.55
472.40	9029.79
472.58	9193.62
472.77	9394.91
472.95	9547.05
473.13	9722.59
473.31	9273.20
473.49	9404.27
473.67	9289.59
473.85	9551.73
474.03	9397.25
474.21	9715.56
474.39	9919.19
474.57	9907.49
474.75	10019.83
474.93	9942.60
475.12	9937.91
475.30	10127.50
475.48	9989.41
475.66	10083.03
475.84	9963.66
476.02	10036.22
476.20	10139.20
476.38	10401.34
476.56	10693.91
476.74	10525.39
476.92	10427.09
477.10	10492.62
477.28	10836.68
477.46	10649.44
477.64	10862.43
477.82	10934.98
478.00	11147.97
478.18	10946.69
478.36	11154.99
478.54	11178.40
478.72	11489.69
478.90	11452.24
479.08	11475.65
479.26	11510.75
479.44	11941.41
479.62	11669.91
479.80	12051.42
479.98	11878.22
480.16	12397.82
480.34	11875.88
480.52	12259.73
480.70	12081.85
480.88	12222.28
481.06	12196.53
481.24	12479.74
481.41	12505.48
481.59	12748.90
481.77	12641.23
481.95	12833.16
482.13	13235.73
482.31	12985.29
482.49	13104.66
482.67	13195.94
482.85	13448.72
483.03	13682.77
483.21	13708.52
483.39	13563.40
483.57	13745.97
483.74	13757.67
483.92	14066.62
484.10	14267.91
484.28	14066.62
484.46	14270.25
484.64	14621.33
484.82	14380.25
485.00	14583.88
485.18	14654.09
485.35	14918.57
485.53	14567.49
485.71	14864.74
485.89	15220.50
486.07	15077.73
486.25	15274.34
486.43	15412.43
486.61	15487.32
486.78	15669.89
486.96	15812.66
487.14	15932.03
487.32	16123.95
487.50	16248.00
487.68	16439.92
487.85	16624.83
488.03	16685.68
488.21	16585.04
488.39	16744.19
488.57	16901.01
488.75	16950.16
488.92	17221.66
489.10	17362.09
489.28	17319.96
489.46	17420.61
489.64	17792.75
489.81	18012.76
489.99	17970.63
490.17	17851.27
490.35	18326.39
490.53	18518.32
490.70	18452.78
490.88	18389.59
491.06	18925.57
491.24	18347.46
491.41	19016.85
491.59	18780.46
491.77	18995.79
491.95	19140.90
492.13	19051.96
492.30	19531.77
492.48	19494.32
492.66	19744.76
492.84	19676.88
493.01	19885.19
493.19	19901.58
493.37	19709.65
493.54	19978.81
493.72	20613.10
493.90	20362.66
494.08	20346.28
494.25	20837.79
494.43	20858.85
494.61	20900.98
494.79	21160.78
494.96	20964.18
495.14	20905.66
495.32	21511.86
495.49	21591.44
495.67	21495.48
495.85	21703.79
496.02	21806.77
496.20	22075.93
496.38	22209.34
496.55	22155.51
496.73	22539.36
496.91	22122.74
497.09	22539.36
497.26	22686.81
497.44	22520.63
497.62	22934.91
497.79	23047.26
497.97	22588.51
498.14	23035.55
498.32	23550.47
498.50	23323.44
498.67	23733.03
498.85	23388.97
499.03	23917.93
499.20	23737.71
499.38	24053.69
499.56	23726.01
499.73	24009.22
499.91	24226.89
500.08	24369.66
500.26	24123.90
500.44	24486.68
500.61	24123.90
500.79	24149.65
500.97	24545.20
501.14	24865.85
501.32	24783.93
501.49	24753.51
501.67	24807.34
501.84	24950.11
502.02	25172.46
502.20	25198.21
502.37	25106.93
502.55	25411.20
502.72	25689.72
502.90	25575.03
503.07	25441.62
503.25	25254.38
503.43	25343.32
503.60	25909.73
503.78	25727.17
503.95	25776.32
504.13	25848.88
504.30	25867.60
504.48	26122.72
504.65	26429.33
504.83	26354.43
505.01	26555.72
505.18	26623.59
505.36	26469.12
505.53	26527.63
505.71	26991.06
505.88	26953.61
506.06	26918.50
506.23	27012.12
506.41	27040.21
506.58	27080.00
506.76	27292.99
506.93	27522.36
507.11	27000.42
507.28	27573.85
507.46	27360.86
507.63	27445.12
507.81	27665.13
507.98	27693.22
508.16	27777.48
508.33	28044.30
508.50	27967.06
508.68	27985.79
508.85	28449.21
509.03	28123.88
509.20	28428.15
509.38	28664.54
509.55	28634.11
509.73	28732.42
509.90	28325.16
510.08	28496.02
510.25	28910.30
510.42	28872.85
510.60	29050.73
510.77	29095.20
510.95	29462.66
511.12	29174.78
511.30	29352.66
511.47	29675.65
511.64	29982.26
511.82	29553.94
511.99	29919.07
512.17	29923.75
512.34	29841.83
512.51	30045.46
512.69	30096.95
512.86	30052.48
513.04	30026.73
513.21	30036.09
513.38	30228.02
513.56	30185.89
513.73	30415.26
513.90	30277.17
514.08	30436.33
514.25	30412.92
514.43	30295.89
514.60	30499.52
514.77	30075.88
514.95	30965.29
515.12	30787.41
515.29	30979.33
515.47	31070.61
515.64	31377.22
515.81	31075.29
515.99	31447.44
516.16	31220.41
516.33	30974.65
516.51	31197.00
516.68	31335.09
516.85	31309.35
517.03	31335.09
517.20	31487.23
517.37	31421.69
517.54	32065.34
517.72	31777.45
517.89	31531.70
518.06	31847.67
518.24	31601.91
518.41	31498.93
518.58	31906.18
518.75	31772.77
518.93	32348.54
519.10	32554.51
519.27	32355.57
519.45	32233.86
519.62	32521.74
519.79	32826.01
519.96	33031.98
520.14	32879.85
520.31	33057.73
520.48	33399.44
520.65	33172.41
520.83	33130.28
521.00	33116.24
521.17	33050.70
521.34	33223.90
521.52	33537.54
521.69	33689.67
521.86	33563.28
522.03	33647.54
522.20	33563.28
522.38	33586.69
522.55	34089.90
522.72	33610.09
522.89	33663.93
523.07	33947.13
523.24	33586.69
523.41	34059.48
523.58	33717.76
523.75	34129.69
523.92	34394.17
524.10	34342.68
524.27	34251.40
524.44	34506.52
524.61	34581.42
524.78	34338.00
524.96	34698.44
525.13	34536.94
525.30	34707.80
525.47	35042.50
525.64	34923.13
525.81	34993.35
525.98	35246.13
526.16	34932.50
526.33	34668.02
526.50	35292.94
526.67	34656.31
526.84	35147.82
527.01	34981.65
527.18	35442.73
527.36	34972.28
527.53	35838.28
527.70	35517.63
527.87	36013.82
528.04	35814.88
528.21	35370.18
528.38	35629.98
528.55	35892.12
528.72	35786.79
528.89	35913.18
529.07	36182.34
529.24	35651.04
529.41	36128.51
529.58	36180.00
529.75	35910.84
529.92	36547.47
530.09	36203.41
530.26	36641.09
530.43	36645.77
530.60	36236.17
530.77	36378.95
530.94	36624.70
531.11	36395.33
531.28	36795.56
531.46	36479.59
531.63	36683.22
531.80	36318.09
531.97	36540.44
532.14	36610.66
532.31	36498.31
532.48	37282.39
532.65	36907.91
532.82	37125.58
532.99	37090.47
533.16	36940.68
533.33	37127.92
533.50	37560.92
533.67	37312.82
533.84	36950.04
534.01	37392.40
534.18	37205.16
534.35	37275.37
534.52	37420.48
534.69	37446.23
534.86	37376.01
535.03	37689.65
535.20	37919.02
535.37	38328.61
535.54	38050.09
535.71	37879.23
535.88	37764.54
536.05	37886.25
536.22	37874.55
536.38	38129.67
536.55	38101.58
536.72	38415.21
536.89	38005.62
537.06	38394.15
537.23	37923.70
537.40	37996.26
537.57	38501.81
537.74	38490.11
537.91	38550.96
538.08	38539.26
538.25	38321.59
538.42	38508.83
538.59	38476.07
538.75	38398.83
538.92	38417.55
539.09	38939.49
539.26	39110.35
539.43	39250.78
539.60	39180.57
539.77	38864.60
539.94	38993.32
540.11	38836.51
540.28	38941.83
540.44	39288.23
540.61	38756.93
540.78	38885.66
540.95	39157.16
541.12	38873.96
541.29	39388.88
541.46	39049.50
541.62	39409.94
541.79	39321.00
541.96	39367.81
542.13	39447.39
542.30	39658.04
542.47	39433.35
542.63	39908.47
542.80	39681.44
542.97	39964.65
543.14	40041.88
543.31	39718.89
543.48	40179.98
543.64	40306.37
543.81	39510.58
543.98	40130.83
544.15	40114.44
544.32	40175.30
544.48	40163.59
544.65	40549.78
544.82	40472.54
544.99	40126.14
545.16	40451.48
545.32	40165.93
545.49	40556.80
545.66	40535.74
545.83	40528.72
546.00	40488.93
546.16	40505.31
546.33	40587.23
546.50	40531.06
546.67	40198.70
546.83	40315.73
547.00	40879.80
547.17	40690.21
547.34	40854.05
547.50	40896.18
547.67	41106.83
547.84	40596.59
548.00	40840.01
548.17	41013.21
548.34	40603.61
548.51	41808.99
548.67	41141.94
548.84	41317.48
549.01	41057.68
549.18	41053.00
549.34	41322.16
549.51	41748.14
549.68	41876.86
549.84	41010.87
550.01	41411.10
550.18	41008.53
550.34	41256.62
550.51	41247.26
550.68	41256.62
550.84	41209.81
551.01	41235.56
551.18	41523.44
551.34	41383.01
551.51	41823.03
551.68	41724.73
551.84	41731.75
552.01	41654.51
552.18	41825.37
552.34	41596.00
552.51	41776.22
552.68	41558.55
552.84	42101.56
553.01	42122.62
553.18	41916.65
553.34	41703.67
553.51	42003.25
553.67	41986.87
553.84	42492.43
554.01	42351.99
554.17	42600.09
554.34	42312.20
554.51	42431.57
554.67	42625.84
554.84	42241.99
555.00	42103.90
555.17	42368.38
555.33	42141.35
555.50	42417.53
555.67	42557.96
555.83	42410.51
556.00	42838.83
556.16	43257.78
556.33	42473.70
556.50	42782.65
556.66	42656.26
556.83	42588.39
556.99	43072.88
557.16	42934.79
557.32	42777.97
557.49	42691.37
557.65	42239.65
557.82	42344.97
557.98	42859.89
558.15	43110.33
558.32	43119.69
558.48	42965.21
558.65	42637.54
558.81	42579.03
558.98	42923.08
559.14	43005.00
559.31	42962.87
559.47	43136.07
559.64	43213.31
559.80	42990.96
559.97	43082.24
560.13	42649.24
560.30	43112.67
560.46	42958.19
560.63	42780.31
560.79	43461.41
560.96	43522.26
561.12	43096.28
561.29	43271.82
561.45	43028.41
561.61	43143.09
561.78	43122.03
561.94	43290.55
562.11	43232.04
562.27	43297.57
562.44	43297.57
562.60	43529.28
562.77	43267.14
562.93	43381.83
563.10	43559.71
563.26	43257.78
563.42	43803.13
563.59	43388.85
563.75	43405.23
563.92	43601.84
564.08	43810.15
564.24	43679.08
564.41	43613.54
564.57	43058.84
564.74	43524.60
564.90	43803.13
565.07	43482.47
565.23	43402.89
565.39	43667.37
565.56	43428.64
565.72	43363.11
565.88	43583.12
566.05	43632.27
566.21	44009.09
566.38	43225.01
566.54	43779.72
566.70	44194.00
566.87	44109.74
567.03	43592.48
567.19	44243.15
567.36	43707.16
567.52	43941.22
567.68	43723.55
567.85	43634.61
568.01	43613.54
568.17	43360.76
568.34	43871.00
568.50	43641.63
568.66	43845.26
568.83	44236.12
568.99	43545.67
569.15	43512.90
569.32	43622.90
569.48	43667.37
569.64	43997.39
569.81	43969.30
569.97	43330.34
570.13	43976.33
570.30	43648.65
570.46	43819.51
570.62	43814.83
570.78	43601.84
570.95	43388.85
571.11	43700.14
571.27	43906.11
571.43	43782.06
571.60	44168.25
571.76	44093.35
571.92	43590.14
572.09	43800.79
572.25	44189.31
572.41	43632.27
572.57	43737.59
572.74	44610.61
572.90	44130.80
573.06	44245.49
573.22	44100.37
573.38	44198.68
573.55	43742.27
573.71	44123.78
573.87	43702.48
574.03	43892.07
574.20	44093.35
574.36	44360.17
574.52	44126.12
574.68	44046.54
574.84	44322.72
575.01	44175.27
575.17	44320.38
575.33	44196.34
575.49	43824.19
575.65	44294.64
575.82	44093.35
575.98	44376.56
576.14	44790.83
576.30	44231.44
576.46	43658.01
576.62	43775.04
576.79	43999.73
576.95	43793.76
577.11	44119.10
577.27	44247.83
577.43	44046.54
577.59	43931.86
577.75	44161.23
577.92	44144.84
578.08	43613.54
578.24	43882.70
578.40	44404.64
578.56	44311.02
578.72	44360.17
578.88	44449.11
579.04	44069.95
579.21	44217.40
579.37	43847.60
579.53	44294.64
579.69	44039.52
579.85	44186.97
580.01	44823.60
580.17	44011.43
580.33	44458.48
580.49	44437.41
580.65	44306.34
580.82	44566.14
580.98	43922.49
581.14	44252.51
581.30	44507.63
581.46	44156.55
581.62	44404.64
581.78	43976.33
581.94	44790.83
582.10	44463.16
582.26	44147.18
582.42	44753.38
582.58	44201.02
582.74	44027.82
582.90	44388.26
583.06	44566.14
583.22	44591.89
583.38	44453.79
583.54	44158.89
583.70	44067.61
583.86	44769.77
584.02	43859.30
584.18	44463.16
584.34	44547.42
584.50	44458.48
584.66	44577.84
584.82	44285.28
584.98	44617.63
585.14	44870.41
585.30	44088.67
585.46	43964.62
585.62	43920.15
585.78	44158.89
585.94	43819.51
586.10	44060.58
586.26	44254.85
586.42	44205.70
586.58	44779.13
586.74	44516.99
586.90	44210.38
587.06	44201.02
587.22	44708.91
587.38	44395.28
587.54	44816.58
587.70	44589.55
587.86	44100.37
588.02	44533.37
588.18	44641.04
588.34	44369.54
588.49	44346.13
588.65	44135.48
588.81	44568.48
588.97	44406.98
589.13	44355.49
589.29	44334.43
589.45	44362.51
589.61	44498.26
589.77	44748.70
589.93	44540.39
590.08	44626.99
590.24	44568.48
590.40	44301.66
590.56	44868.07
590.72	44425.71
590.88	44903.18
591.04	44542.74
591.20	45144.25
591.35	44718.28
591.51	44896.16
591.67	44634.02
591.83	44903.18
591.99	44566.14
592.15	44460.82
592.31	44769.77
592.46	44858.71
592.62	44538.05
592.78	44842.32
592.94	44847.00
593.10	44919.56
593.26	44875.09
593.41	44383.58
593.57	44449.11
593.73	44959.35
593.89	44872.75
594.05	45010.84
594.20	44809.56
594.36	44994.46
594.52	44713.59
594.68	44570.82
594.84	44442.09
594.99	44961.69
595.15	44910.20
595.31	45088.08
595.47	44856.37
595.62	44828.28
595.78	44655.08
595.94	44545.08
596.10	45219.15
596.25	45146.59
596.41	45151.27
596.57	44762.75
596.73	44608.27
596.88	44348.47
597.04	44538.05
597.20	44882.11
597.36	44980.42
597.51	45404.05
597.67	44739.34
597.83	44739.34
597.99	44900.84
598.14	44683.17
598.30	44907.86
598.46	45015.52
598.61	44678.49
598.77	44683.17
598.93	44765.09
599.09	44596.57
599.24	45202.77
599.40	44591.89
599.56	44428.05
599.71	45013.18
599.87	45406.39
600.03	44500.61
600.18	44907.86
600.34	44823.60
600.50	44828.28
600.65	44692.53
600.81	45282.34
600.97	45256.60
601.12	44971.05
601.28	44893.82
601.44	45034.25
601.59	45155.96
601.75	44612.95
601.91	44430.39
602.06	45055.31
602.22	45041.27
602.37	44854.03
602.53	45155.96
602.69	45329.16
602.84	44910.20
603.00	44851.69
603.16	44779.13
603.31	45006.16
603.47	45155.96
603.62	44697.21
603.78	44772.11
603.94	44659.76
604.09	44935.95
604.25	44804.88
604.40	44601.25
604.56	44847.00
604.71	44603.59
604.87	44886.79
605.03	44638.70
605.18	44554.44
605.34	44849.35
605.49	44781.47
605.65	44458.48
605.80	44891.48
605.96	45055.31
606.12	45050.63
606.27	44872.75
606.43	44470.18
606.58	44898.50
606.74	44776.79
606.89	45064.67
607.05	44435.07
607.20	44854.03
607.36	45013.18
607.51	45071.70
607.67	45275.32
607.82	44678.49
607.98	44914.88
608.13	44392.94
608.29	44561.46
608.44	44128.46
608.60	44027.82
608.75	44472.52
608.91	44175.27
609.06	44378.90
609.22	44348.47
609.37	44114.42
609.53	44879.77
609.68	44488.90
609.84	43885.04
609.99	44762.75
610.15	44306.34
610.30	44065.27
610.46	44009.09
610.61	44105.06
610.76	44289.96
610.92	44624.65
611.07	44194.00
611.23	44201.02
611.38	44226.76
611.54	44023.14
611.69	44060.58
611.84	44112.08
612.00	44030.16
612.15	44327.41
612.31	44278.25
612.46	44268.89
612.62	44170.59
612.77	43955.26
612.92	44360.17
613.08	44404.64
613.23	44430.39
613.39	43866.32
613.54	43875.68
613.69	44058.24
613.85	44107.40
614.00	44374.22
614.15	44243.15
614.31	44041.86
614.46	44004.41
614.62	43889.73
614.77	43929.51
614.92	44154.21
615.08	43838.23
615.23	44041.86
615.38	43845.26
615.54	43566.73
615.69	43604.18
615.84	43562.05
616.00	44137.82
616.15	43779.72
616.30	43608.86
616.46	43402.89
616.61	43526.94
616.76	43618.22
616.92	43213.31
617.07	43318.64
617.22	43498.86
617.37	43611.20
617.53	44210.38
617.68	43690.78
617.83	43845.26
617.99	43524.60
618.14	43290.55
618.29	43459.07
618.45	42974.58
618.60	43812.49
618.75	43622.90
618.90	43475.45
619.06	43107.99
619.21	43309.27
619.36	43442.68
619.51	42843.51
619.67	43133.73
619.82	43077.56
619.97	43337.36
620.12	42728.82
620.28	42651.58
620.43	42829.46
620.58	43379.49
620.73	43257.78
620.89	42995.64
621.04	43292.89
621.19	43068.20
621.34	43014.37
621.49	43023.73
621.65	42838.83
621.80	43182.88
621.95	43023.73
622.10	43161.82
622.25	42583.71
622.41	42265.39
622.56	42600.09
622.71	42656.26
622.86	43115.01
623.01	42518.17
623.16	42845.85
623.32	42913.72
623.47	43173.52
623.62	42752.23
623.77	42522.85
623.92	42459.66
624.07	42218.58
624.23	42328.59
624.38	42337.95
624.53	42120.28
624.68	42417.53
624.83	42693.71
624.98	42398.80
625.13	42036.02
625.29	42485.40
625.44	42536.90
625.59	42162.41
625.74	41801.97
625.89	41684.94
626.04	41565.57
626.19	41883.89
626.34	42216.24
626.49	41935.38
626.65	42096.88
626.80	41565.57
626.95	42057.09
627.10	41624.09
627.25	41698.98
627.40	41799.63
627.55	41469.61
627.70	41537.49
627.85	41640.47
628.00	41858.14
628.15	41916.65
628.30	41797.29
628.45	41715.37
628.60	41415.78
628.76	42209.22
628.91	42234.97
629.06	41757.50
629.21	41219.17
629.36	41511.74
629.51	41191.09
629.66	41539.83
629.81	41785.58
629.96	40907.88
630.11	41792.61
630.26	41275.35
630.41	41607.70
630.56	41097.47
630.71	41516.42
630.86	41352.58
631.01	41418.12
631.16	41247.26
631.31	41247.26
631.46	40608.29
631.61	41291.73
631.76	40802.56
631.91	41233.22
632.06	41383.01
632.21	41006.19
632.36	41181.73
632.51	40994.48
632.66	41219.17
632.81	40854.05
632.96	41214.49
633.10	40964.06
633.25	40481.91
633.40	40573.19
633.55	41062.36
633.70	40765.11
633.85	40505.31
634.00	40554.46
634.15	40788.52
634.30	40898.52
634.45	41256.62
634.60	40385.94
634.75	40570.85
634.90	40652.76
635.05	41043.63
635.19	40715.96
635.34	40957.03
635.49	40720.64
635.64	40650.42
635.79	40332.11
635.94	40776.81
636.09	40245.51
636.24	40388.28
636.39	39775.06
636.53	40451.48
636.68	40051.25
636.83	40266.58
636.98	40488.93
637.13	39555.05
637.28	40488.93
637.43	40257.21
637.57	40168.27
637.72	40069.97
637.87	40257.21
638.02	40439.78
638.17	40034.86
638.32	39924.86
638.46	39667.40
638.61	39812.51
638.76	39887.41
638.91	40425.73
639.06	39962.31
639.20	39697.83
639.35	40006.78
639.50	40098.06
639.65	39941.24
639.80	40308.71
639.94	40076.99
640.09	39775.06
640.24	39274.19
640.39	39367.81
640.54	39229.72
640.68	39955.29
640.83	39576.12
640.98	39819.53
641.13	39541.01
641.27	39541.01
641.42	39566.76
641.57	39475.48
641.72	39700.17
641.86	39929.54
642.01	39386.54
642.16	39035.45
642.31	38817.78
642.45	39332.70
642.60	38597.77
642.75	38983.96
642.90	39253.12
643.04	38838.85
643.19	39026.09
643.34	39325.68
643.48	39201.63
643.63	38855.23
643.78	38834.17
643.93	38815.44
644.07	38969.92
644.22	39019.07
644.37	38607.14
644.51	38836.51
644.66	38871.62
644.81	39276.53
644.95	38890.34
645.10	39091.63
645.25	39093.97
645.39	38820.13
645.54	39082.27
645.69	38761.61
645.83	39138.44
645.98	38754.59
646.13	39040.14
646.27	39019.07
646.42	38792.04
646.57	38684.37
646.71	38660.97
646.86	38775.66
647.00	38572.03
647.15	38883.32
647.30	38600.12
647.44	38438.62
647.59	38693.74
647.74	38492.45
647.88	38340.32
648.03	38281.80
648.17	38452.66
648.32	38206.90
648.47	38471.39
648.61	38169.46
648.76	39019.07
648.90	37886.25
649.05	38546.28
649.20	38349.68
649.34	38778.00
649.49	38073.49
649.63	38216.27
649.78	38623.52
649.92	38487.77
650.07	38284.14
650.21	37619.43
650.36	38153.07
650.51	38061.79
650.65	38457.34
650.80	38370.74
650.94	38274.78
651.09	38047.75
651.23	37914.34
651.38	37687.31
651.52	37521.13
651.67	38314.57
651.81	37785.61
651.96	37748.16
652.10	38026.68
652.25	37504.74
652.39	37668.58
652.54	37518.79
652.68	37462.61
652.83	38007.96
652.97	38007.96
653.12	37612.41
653.26	37724.75
653.41	37563.26
653.55	36678.54
653.70	37317.50
653.84	37474.32
653.99	37294.10
654.13	37565.60
654.27	37507.08
654.42	37352.61
654.56	37591.34
654.71	37387.72
654.85	37528.15
655.00	37209.84
655.14	36816.63
655.29	37223.88
655.43	37240.26
655.57	36748.75
655.72	36856.42
655.86	36898.55
656.01	36884.50
656.15	37020.25
656.30	36896.20
656.44	36851.73
656.58	36910.25
656.73	36495.97
656.87	36582.57
657.01	36357.88
657.16	36165.96
657.30	36505.34
657.45	36589.59
657.59	36390.65
657.73	36472.57
657.88	37013.23
658.02	36411.71
658.16	36598.96
658.31	36414.05
658.45	36488.95
658.60	36662.15
658.74	36577.89
658.88	36449.16
659.03	36460.87
659.17	36404.69
659.31	36498.31
659.46	36416.40
659.60	36388.31
659.74	36058.29
659.89	36072.34
660.03	35976.37
660.17	36184.68
660.32	36081.70
660.46	36304.05
660.60	36278.30
660.74	35992.76
660.89	36013.82
661.03	35665.08
661.17	35793.81
661.32	35494.22
661.46	35842.96
661.60	35185.27
661.74	35529.33
661.89	35534.01
662.03	35613.59
662.17	35316.34
662.31	35407.62
662.46	35608.91
662.60	35793.81
662.74	35189.95
662.88	35419.33
663.03	35283.58
663.17	34876.32
663.31	34817.81
663.45	35260.17
663.60	35309.32
663.74	35033.14
663.88	34600.14
664.02	34682.06
664.17	34843.56
664.31	34656.31
664.45	34471.41
664.59	34773.34
664.73	34068.84
664.88	34625.89
665.02	34586.10
665.16	34635.25
665.30	34298.21
665.44	34462.05
665.59	34026.71
665.73	34209.27
665.87	33780.95
666.01	34281.83
666.15	34043.09
666.29	33970.54
666.44	34164.80
666.58	33954.15
666.72	34223.31
666.86	34387.15
667.00	33797.34
667.14	33900.32
667.28	33696.69
667.43	33617.11
667.57	33689.67
667.71	33502.43
667.85	33631.16
667.99	33209.86
668.13	33504.77
668.27	33560.94
668.41	33504.77
668.56	33163.05
668.70	33141.99
668.84	32940.70
668.98	32924.32
669.12	33186.46
669.26	33167.73
669.40	32987.51
669.54	33034.32
669.68	32697.28
669.82	33137.30
669.96	32224.50
670.10	32418.76
670.25	32776.86
670.39	33029.64
670.53	32456.21
670.67	32203.43
670.81	32133.21
670.95	33144.33
671.09	32362.59
671.23	32929.00
671.37	32634.09
671.51	31784.48
671.65	32397.70
671.79	31648.72
671.93	31599.57
672.07	32189.39
672.21	31622.98
672.35	31510.63
672.49	31796.18
672.63	31634.68
672.77	31615.96
672.91	31566.81
673.05	31538.72
673.19	31260.20
673.33	31510.63
673.47	31035.50
673.61	31426.37
673.75	31218.07
673.89	30801.45
674.03	30448.03
674.17	30756.98
674.31	30494.84
674.45	30714.85
674.59	30824.86
674.73	30541.65
674.87	30834.22
675.01	30745.28
675.15	30775.70
675.29	30593.14
675.43	30843.58
675.56	30600.16
675.70	30174.19
675.84	30197.59
675.98	29312.87
676.12	29795.02
676.26	29912.05
676.40	29675.65
676.54	29996.31
676.68	29603.10
676.82	29069.45
676.96	29507.13
677.10	29202.86
677.23	29453.30
677.37	28943.06
677.51	28978.17
677.65	28971.15
677.79	28833.06
677.93	29200.52
678.07	29060.09
678.21	28161.33
678.34	28627.09
678.48	28278.35
678.62	28388.36
678.76	28151.96
678.90	28121.54
679.04	28252.61
679.18	28393.04
679.31	28191.75
679.45	27452.14
679.59	27669.81
679.73	27725.99
679.87	27541.08
680.00	27934.29
680.14	27587.89
680.28	27346.82
680.42	27520.02
680.56	27126.81
680.70	27370.22
680.83	26972.33
680.97	26977.01
681.11	27065.96
681.25	26579.12
681.39	26661.04
681.52	26576.78
681.66	26443.37
681.80	26462.10
681.94	26663.38
682.07	26225.70
682.21	26377.84
682.35	25965.90
682.49	26274.85
682.62	26256.13
682.76	26061.87
682.90	25984.63
683.04	25954.20
683.17	25539.93
683.31	25371.41
683.45	26118.04
683.59	25357.36
683.72	25462.69
683.86	25050.75
684.00	25172.46
684.13	25207.57
684.27	25057.78
684.41	24985.22
684.55	24678.61
684.68	24458.60
684.82	24107.52
684.96	24442.21
685.09	24467.96
685.23	24212.84
685.37	24388.38
685.50	24318.17
685.64	24528.81
685.78	23976.45
685.91	24350.93
686.05	24037.30
686.19	24046.66
686.32	24109.86
686.46	23637.07
686.60	23197.05
686.73	23428.76
686.87	23555.15
687.01	23175.98
687.14	22970.02
687.28	23243.86
687.42	23192.37
687.55	22890.44
687.69	22988.74
687.82	22757.03
687.96	22726.60
688.10	22321.69
688.23	22522.98
688.37	22415.31
688.50	22204.66
688.64	22164.87
688.78	22338.07
688.91	22094.66
689.05	21872.31
689.18	22057.21
689.32	21453.35
689.46	21970.61
689.59	21991.67
689.73	21762.30
689.86	21575.06
690.00	21387.82
690.13	21685.06
690.27	21476.76
690.41	21502.50
690.54	21095.25
690.68	20966.52
690.81	21069.50
690.95	20908.01
691.08	20826.09
691.22	21158.44
691.35	20849.49
691.49	20765.23
691.62	20961.84
691.76	20641.18
691.89	20765.23
692.03	20482.03
692.16	20203.50
692.30	20599.05
692.43	20449.26
692.57	20219.89
692.70	20290.10
692.84	20161.37
692.97	19929.66
693.11	19618.37
693.24	19751.78
693.38	19548.15
693.51	19396.02
693.65	19339.85
693.78	19295.38
693.92	19267.29
694.05	19241.54
694.19	19232.18
694.32	19152.60
694.45	19080.05
694.59	19190.05
694.72	18637.69
694.86	18649.39
694.99	18380.23
695.13	18508.96
695.26	18403.63
695.39	18068.94
695.53	18511.30
695.66	18607.26
695.80	18314.69
695.93	18216.39
696.07	17724.88
696.20	17820.84
696.33	17891.06
696.47	18040.85
696.60	17687.43
696.73	17802.11
696.87	17547.00
697.00	17785.73
697.14	17652.32
697.27	17296.56
697.40	17177.19
697.54	17392.52
697.67	17329.33
697.80	17231.02
697.94	17261.45
698.07	17224.00
698.21	16767.60
698.34	16676.32
698.47	16964.20
698.61	16500.78
698.74	16507.80
698.87	16629.51
699.01	16166.08
699.14	16444.60
699.27	16219.91
699.40	16418.86
699.54	15885.22
699.67	16145.02
699.80	15978.84
699.94	16035.01
700.07	15962.45
700.20	15908.62
700.34	15777.55
700.47	15695.63
700.60	15658.18
700.73	15754.15
700.87	15316.47
701.00	15555.20
701.13	15641.80
701.26	15534.14
701.40	15248.59
701.53	15227.53
701.66	14923.26
701.79	14953.68
701.93	14916.23
702.06	14878.79
702.19	14787.50
702.32	14792.19
702.46	14558.13
702.59	14658.78
702.72	14714.95
702.85	14492.60
702.99	14621.33
703.12	14565.15
703.25	14377.91
703.38	14190.67
703.51	13781.07
703.65	14366.21
703.78	14319.40
703.91	13898.10
704.04	14085.34
704.17	14078.32
704.31	13834.91
704.44	13860.65
704.57	13486.17
704.70	13673.41
704.83	13619.58
704.96	13638.30
705.10	13722.56
705.23	13668.73
>>>>>End Processed Spectral Data<<<<<
