SpectraSuite Data File
++++++++++++++++++++++++++++++++++++
Date: Fri Oct 25 11:34:41 EDT 2013
User: price-jones
Dark Spectrum Present: No
Reference Spectrum Present: No
Number of Sampled Component Spectra: 1
Spectrometers: USB2+H05261
Integration Time (usec): 100000 (USB2+H05261)
Spectra Averaged: 1 (USB2+H05261)
Boxcar Smoothing: 0 (USB2+H05261)
Correct for Electrical Dark: No (USB2+H05261)
Strobe/Lamp Enabled: No (USB2+H05261)
Correct for Detector Non-linearity: No (USB2+H05261)
Correct for Stray Light: No (USB2+H05261)
Number of Pixels in Processed Spectrum: 2048
>>>>>Begin Processed Spectral Data<<<<<
365.73	355.76
365.92	355.76
366.12	355.76
366.32	201.29
366.52	210.65
366.72	222.35
366.91	163.84
367.11	184.90
367.31	77.24
367.51	170.86
367.70	201.29
367.90	126.39
368.10	133.41
368.30	182.56
368.49	227.03
368.69	236.39
368.89	205.97
369.09	184.90
369.28	243.42
369.48	212.99
369.68	145.11
369.87	210.65
370.07	250.44
370.27	404.91
370.47	320.65
370.66	458.74
370.86	505.56
371.06	550.03
371.25	631.94
371.45	442.36
371.65	531.30
371.84	437.68
372.04	566.41
372.24	594.50
372.44	622.58
372.63	557.05
372.83	514.92
373.03	596.84
373.22	622.58
373.42	599.18
373.62	592.16
373.81	594.50
374.01	610.88
374.21	685.78
374.40	695.14
374.60	676.41
374.79	610.88
374.99	622.58
375.19	667.05
375.38	634.29
375.58	688.12
375.78	641.31
375.97	695.14
376.17	690.46
376.37	753.65
376.56	573.43
376.76	690.46
376.95	692.80
377.15	645.99
377.35	685.78
377.54	734.93
377.74	657.69
377.93	678.76
378.13	697.48
378.33	711.52
378.52	709.18
378.72	695.14
378.91	737.27
379.11	683.44
379.31	622.58
379.50	702.16
379.70	713.86
379.89	645.99
380.09	713.86
380.28	706.84
380.48	732.59
380.68	699.82
380.87	718.54
381.07	645.99
381.26	704.50
381.46	856.64
381.65	723.23
381.85	641.31
382.04	681.10
382.24	786.42
382.43	706.84
382.63	751.31
382.83	758.33
383.02	716.20
383.22	748.97
383.41	816.85
383.61	765.36
383.80	828.55
384.00	737.27
384.19	798.12
384.39	816.85
384.58	723.23
384.78	793.44
384.97	800.46
385.17	777.06
385.36	866.00
385.56	847.27
385.75	788.76
385.95	795.78
386.14	856.64
386.34	828.55
386.53	763.01
386.72	858.98
386.92	880.04
387.11	877.70
387.31	821.53
387.50	800.46
387.70	908.13
387.89	802.80
388.09	854.30
388.28	849.61
388.48	856.64
388.67	898.77
388.86	947.92
389.06	964.30
389.25	882.38
389.45	854.30
389.64	919.83
389.84	912.81
390.03	952.60
390.22	922.17
390.42	929.19
390.61	896.43
390.81	891.74
391.00	945.58
391.19	997.07
391.39	980.68
391.58	919.83
391.78	997.07
391.97	1074.31
392.16	938.55
392.36	990.05
392.55	1104.73
392.75	1093.03
392.94	1097.71
393.13	1029.84
393.33	945.58
393.52	1053.24
393.71	1053.24
393.91	1083.67
394.10	1032.18
394.29	1057.92
394.49	1050.90
394.68	1067.28
394.88	971.32
395.07	1076.65
395.26	1128.14
395.46	1097.71
395.65	1123.46
395.84	1111.75
396.04	1123.46
396.23	1228.78
396.42	1167.93
396.62	1214.74
396.81	1205.38
397.00	1174.95
397.19	1196.01
397.39	1198.35
397.58	1193.67
397.77	1273.25
397.97	1228.78
398.16	1179.63
398.35	1184.31
398.55	1177.29
398.74	1191.33
398.93	1198.35
399.12	1184.31
399.32	1210.06
399.51	1172.61
399.70	1287.29
399.90	1277.93
400.09	1341.13
400.28	1359.85
400.47	1385.60
400.67	1334.11
400.86	1299.00
401.05	1399.64
401.24	1401.98
401.44	1390.28
401.63	1390.28
401.82	1413.68
402.01	1369.21
402.21	1406.66
402.40	1425.39
402.59	1364.53
402.78	1495.60
402.97	1385.60
403.17	1472.20
403.36	1446.45
403.55	1514.33
403.74	1495.60
403.93	1584.54
404.13	1530.71
404.32	1577.52
404.51	1500.28
404.70	1626.67
404.89	1474.54
405.09	1593.90
405.28	1652.42
405.47	1607.95
405.66	1577.52
405.85	1565.82
406.05	1661.78
406.24	1652.42
406.43	1657.10
406.62	1708.59
406.81	1703.91
407.00	1706.25
407.20	1689.87
407.39	1785.83
407.58	1774.13
407.77	1755.40
407.96	1755.40
408.15	1818.60
408.34	1699.23
408.54	1795.19
408.73	1940.30
408.92	1832.64
409.11	1893.49
409.30	1865.41
409.49	1933.28
409.68	1956.69
409.87	1987.11
410.07	2024.56
410.26	2010.52
410.45	1954.35
410.64	1909.88
410.83	2019.88
411.02	2019.88
411.21	2097.12
411.40	2036.27
411.59	2085.42
411.78	2132.23
411.98	2104.14
412.17	2106.48
412.36	2150.95
412.55	2162.66
412.74	2202.44
412.93	2251.60
413.12	2071.37
413.31	2328.83
413.50	2265.64
413.69	2232.87
413.88	2363.94
414.07	2335.85
414.26	2387.35
414.45	2445.86
414.64	2385.01
414.83	2429.48
415.02	2455.22
415.22	2511.39
415.41	2541.82
415.60	2506.71
415.79	2506.71
415.98	2544.16
416.17	2623.74
416.36	2530.12
416.55	2576.93
416.74	2633.10
416.93	2700.98
417.12	2815.66
417.31	2640.12
417.50	2874.18
417.69	2808.64
417.88	2745.45
418.07	2738.43
418.26	2857.79
418.45	2860.13
418.64	2944.39
418.83	2857.79
419.02	3009.93
419.21	2946.73
419.39	2909.29
419.58	2899.92
419.77	2965.46
419.96	2974.82
420.15	2963.12
420.34	2939.71
420.53	3056.74
420.72	3028.65
420.91	3108.23
421.10	3129.30
421.29	3075.46
421.48	3066.10
421.67	3080.14
421.86	3063.76
422.05	3054.40
422.24	3096.53
422.43	3176.11
422.61	3225.26
422.80	3304.84
422.99	3180.79
423.18	3307.18
423.37	3356.33
423.56	3176.11
423.75	3206.53
423.94	3164.40
424.13	3077.80
424.32	3103.55
424.50	3117.59
424.69	3246.32
424.88	3286.11
425.07	3169.09
425.26	3176.11
425.45	3204.19
425.64	3136.32
425.83	3279.09
426.01	3286.11
426.20	3267.39
426.39	3272.07
426.58	3300.16
426.77	3255.69
426.96	3410.16
427.15	3428.88
427.33	3410.16
427.52	3445.27
427.71	3417.18
427.90	3372.71
428.09	3386.76
428.28	3562.30
428.46	3513.14
428.65	3590.38
428.84	3524.85
429.03	3592.72
429.22	3447.61
429.40	3445.27
429.59	3487.40
429.78	3431.23
429.97	3475.70
430.16	3625.49
430.34	3576.34
430.53	3669.96
430.72	3838.48
430.91	3583.36
431.10	3700.39
431.28	3756.56
431.47	3775.28
431.66	3822.09
431.85	3885.29
432.03	3730.81
432.22	3772.94
432.41	3744.86
432.60	3896.99
432.79	3817.41
432.97	3873.59
433.16	3932.10
433.35	3859.54
433.54	3969.55
433.72	4030.40
433.91	3887.63
434.10	3906.35
434.28	3967.21
434.47	4067.85
434.66	3957.85
434.85	4138.07
435.03	4119.34
435.22	3983.59
435.41	4161.47
435.59	4227.01
435.78	4173.18
435.97	4187.22
436.16	4159.13
436.34	4084.23
436.53	4283.18
436.72	4198.92
436.90	4084.23
437.09	4198.92
437.28	4163.81
437.46	4241.05
437.65	4248.07
437.84	4444.68
438.02	4423.61
438.21	4255.09
438.40	4411.91
438.58	4491.49
438.77	4662.35
438.96	4430.63
439.14	4613.20
439.33	4568.73
439.52	4638.94
439.70	4835.55
439.89	4610.86
440.08	4737.24
440.26	4903.42
440.45	4821.50
440.63	4851.93
440.82	4821.50
441.01	4828.53
441.19	4959.60
441.38	5067.26
441.57	5029.81
441.75	5060.24
441.94	5102.37
442.12	5053.22
442.31	5018.11
442.50	4997.04
442.68	5088.32
442.87	5130.45
443.05	5135.14
443.24	5174.92
443.43	5114.07
443.61	5195.99
443.80	5130.45
443.98	5249.82
444.17	5062.58
444.35	5336.42
444.54	5380.89
444.73	5252.16
444.91	5315.36
445.10	5275.57
445.28	5238.12
445.47	5224.08
445.65	5313.02
445.84	5366.85
446.02	5437.06
446.21	5275.57
446.39	5362.17
446.58	5448.77
446.77	5453.45
446.95	5467.49
447.14	5432.38
447.32	5427.70
447.51	5390.25
447.69	5526.00
447.88	5425.36
448.06	5540.05
448.25	5451.11
448.43	5682.82
448.62	5558.77
448.80	5493.24
448.99	5540.05
449.17	5554.09
449.36	5540.05
449.54	5650.05
449.73	5813.89
449.91	5750.70
450.10	5710.91
450.28	5921.56
450.46	5678.14
450.65	5825.59
450.83	5872.40
451.02	5954.32
451.20	5996.45
451.39	5933.26
451.57	5919.21
451.76	5811.55
451.94	5921.56
452.13	6024.54
452.31	5912.19
452.49	5895.81
452.68	5877.09
452.86	5977.73
453.05	5977.73
453.23	6265.61
453.42	5837.30
453.60	5970.71
453.78	6087.73
453.97	5942.62
454.15	6029.22
454.34	6066.67
454.52	6113.48
454.70	6038.58
454.89	6031.56
455.07	6235.19
455.26	6363.92
455.44	6249.23
455.62	6338.17
455.81	6340.51
455.99	6441.15
456.17	6373.28
456.36	6340.51
456.54	6537.12
456.73	6485.62
456.91	6612.01
457.09	6581.59
457.28	6743.08
457.46	6635.42
457.64	6527.75
457.83	6565.20
458.01	6619.04
458.19	6679.89
458.38	6647.12
458.56	6796.92
458.74	6803.94
458.93	6780.53
459.11	6810.96
459.29	6871.81
459.48	6911.60
459.66	6810.96
459.84	6939.69
460.03	7037.99
460.21	7054.37
460.39	6942.03
460.57	7007.56
460.76	7213.53
460.94	7056.72
461.12	7110.55
461.31	6888.20
461.49	7157.36
461.67	7070.76
461.85	7384.39
462.04	7035.65
462.22	7534.18
462.40	7332.90
462.59	7204.17
462.77	7447.58
462.95	7356.30
463.13	7377.37
463.32	7262.68
463.50	7431.20
463.68	7248.64
463.86	7330.56
464.05	7286.09
464.23	7316.51
464.41	7772.92
464.59	7506.10
464.78	7688.66
464.96	7559.93
465.14	7487.37
465.32	7552.91
465.50	7747.17
465.69	7786.96
465.87	7531.84
466.05	7655.89
466.23	7641.85
466.41	7779.94
466.60	7831.43
466.78	7737.81
466.96	7681.64
467.14	7861.86
467.32	7824.41
467.51	8004.63
467.69	7775.26
467.87	7793.98
468.05	7789.30
468.23	7854.84
468.41	7791.64
468.60	7859.52
468.78	8030.38
468.96	7918.03
469.14	7978.89
469.32	8084.21
469.50	7925.05
469.69	8131.02
469.87	8353.37
470.05	8280.82
470.23	8383.80
470.41	8262.09
470.59	8280.82
470.77	8388.48
470.95	8332.31
471.14	8571.04
471.32	8336.99
471.50	8439.97
471.68	8451.67
471.86	8620.19
472.04	8561.68
472.22	8917.44
472.40	8578.06
472.58	8594.45
472.77	8634.24
472.95	8835.52
473.13	9006.38
473.31	8760.63
473.49	8982.98
473.67	8945.53
473.85	8926.80
474.03	8968.93
474.21	9263.84
474.39	9329.38
474.57	9233.41
474.75	9380.87
474.93	9533.00
475.12	9207.67
475.30	9427.68
475.48	9479.17
475.66	9565.77
475.84	9348.10
476.02	9792.80
476.20	9661.73
476.38	9699.18
476.56	10160.27
476.74	10010.47
476.92	9703.86
477.10	9975.36
477.28	10113.45
477.46	10080.69
477.64	10270.27
477.82	10469.22
478.00	10572.20
478.18	10595.61
478.36	10633.05
478.54	10864.77
478.72	10611.99
478.90	10836.68
479.08	11009.88
479.26	11080.10
479.44	11023.92
479.62	11173.72
479.80	11279.04
479.98	11295.43
480.16	11496.71
480.34	11461.60
480.52	11456.92
480.70	11529.48
480.88	11412.45
481.06	11655.87
481.24	11672.25
481.41	11927.37
481.59	11882.90
481.77	12177.81
481.95	12208.23
482.13	12231.64
482.31	12109.93
482.49	12540.59
482.67	12545.27
482.85	12535.91
483.03	12699.75
483.21	13011.04
483.39	13043.81
483.57	12945.50
483.74	13371.48
483.92	13181.90
484.10	13212.32
484.28	13366.80
484.46	13696.82
484.64	13848.95
484.82	13603.19
485.00	13703.84
485.18	13961.30
485.35	14211.73
485.53	14244.50
485.71	14216.41
485.89	14368.55
486.07	14530.05
486.25	14459.83
486.43	14665.80
486.61	14829.63
486.78	14981.77
486.96	14743.03
487.14	14855.38
487.32	15272.00
487.50	15389.02
487.68	15405.41
487.85	15508.39
488.03	15704.99
488.21	15798.62
488.39	16105.23
488.57	16130.97
488.75	16285.45
488.92	16353.32
489.10	16449.28
489.28	16304.17
489.46	16732.49
489.64	16664.61
489.81	17130.38
489.99	17191.23
490.17	17209.96
490.35	17436.99
490.53	17128.04
490.70	17521.25
490.88	17530.61
491.06	17860.63
491.24	17462.74
491.41	17961.27
491.59	18059.57
491.77	18073.62
491.95	17893.40
492.13	18415.34
492.30	18466.83
492.48	18548.75
492.66	18693.86
492.84	18897.49
493.01	18820.25
493.19	18743.01
493.37	19356.23
493.54	19269.63
493.72	19517.73
493.90	19538.79
494.08	19674.54
494.25	19747.10
494.43	19672.20
494.61	19892.21
494.79	20428.20
494.96	19995.20
495.14	20266.70
495.32	20503.09
495.49	20521.82
495.67	20556.93
495.85	20482.03
496.02	21010.99
496.20	20744.17
496.38	21099.93
496.55	21205.25
496.73	21610.17
496.91	21109.29
497.09	21263.77
497.26	21546.97
497.44	21542.29
497.62	21390.16
497.79	22026.78
497.97	21895.71
498.14	22085.30
498.32	22277.22
498.50	22157.85
498.67	22412.97
498.85	22328.71
499.03	22654.05
499.20	22506.59
499.38	22448.08
499.56	22885.76
499.73	23108.11
499.91	23112.79
500.08	23124.49
500.26	22934.91
500.44	23332.80
500.61	23374.93
500.79	23271.95
500.97	23534.09
501.14	23798.57
501.32	23896.87
501.49	23840.70
501.67	24086.45
501.84	24386.04
502.02	23775.16
502.20	24074.75
502.37	24020.92
502.55	24210.50
502.72	24376.68
502.90	24261.99
503.07	24257.31
503.25	24423.49
503.43	24226.89
503.60	24882.24
503.78	24634.14
503.95	25006.28
504.13	24929.05
504.30	25010.96
504.48	24856.49
504.65	25350.34
504.83	25418.22
505.01	25811.43
505.18	25418.22
505.36	25614.82
505.53	25495.46
505.71	26082.93
505.88	26092.29
506.06	25741.21
506.23	26064.21
506.41	25699.08
506.58	25820.79
506.76	26202.30
506.93	25928.45
507.11	26724.24
507.28	26370.82
507.46	26338.05
507.63	26588.49
507.81	26885.73
507.98	26443.37
508.16	26895.10
508.33	26876.37
508.50	26789.77
508.68	26735.94
508.85	27328.10
509.03	27239.15
509.20	27236.81
509.38	27538.74
509.55	27683.86
509.73	27566.83
509.90	27920.25
510.08	27681.52
510.25	27995.15
510.42	27828.97
510.60	27974.08
510.77	27995.15
510.95	28498.36
511.12	28016.21
511.30	28334.53
511.47	28130.90
511.64	28135.58
511.82	28512.41
511.99	28421.13
512.17	28872.85
512.34	28856.46
512.51	28699.65
512.69	29111.58
512.86	28922.00
513.04	29315.21
513.21	29308.19
513.38	29324.57
513.56	29317.55
513.73	29130.31
513.90	29088.18
514.08	29109.24
514.25	29743.53
514.43	29467.34
514.60	29504.79
514.77	29532.88
514.95	29832.47
515.12	29965.88
515.29	29816.08
515.47	29989.28
515.64	30412.92
515.81	30221.00
515.99	29989.28
516.16	30319.30
516.33	30237.38
516.51	30604.84
516.68	30881.03
516.85	30576.76
517.03	30881.03
517.20	30808.47
517.37	30782.73
517.54	30698.47
517.72	30843.58
517.89	31379.56
518.06	30703.15
518.24	31014.44
518.41	30895.07
518.58	31519.99
518.75	31220.41
518.93	31349.14
519.10	31445.10
519.27	31648.72
519.45	31431.05
519.62	31578.51
519.79	32189.39
519.96	31915.54
520.14	31700.22
520.31	31683.83
520.48	32072.36
520.65	32268.97
520.83	32308.76
521.00	32535.79
521.17	32507.70
521.34	32678.56
521.52	32407.06
521.69	32488.98
521.86	32355.57
522.03	32945.38
522.20	33132.62
522.38	32954.74
522.55	33017.94
522.72	32933.68
522.89	33097.52
523.07	33111.56
523.24	32999.21
523.41	33354.97
523.58	32903.25
523.75	33570.30
523.92	33668.61
524.10	33532.86
524.27	33532.86
524.44	33795.00
524.61	33570.30
524.78	34057.14
524.96	33759.89
525.13	33895.64
525.30	34134.37
525.47	34260.76
525.64	34162.46
525.81	34249.06
525.98	34497.16
526.16	34433.96
526.33	34197.57
526.50	34611.84
526.67	34061.82
526.84	34506.52
527.01	34672.70
527.18	34417.58
527.36	34370.77
527.53	34878.66
527.70	34866.96
527.87	35110.38
528.04	34967.60
528.21	34499.50
528.38	34696.10
528.55	34911.43
528.72	34703.12
528.89	35152.51
529.07	35288.26
529.24	34925.47
529.41	35276.55
529.58	35325.71
529.75	35297.62
529.92	35346.77
530.09	35637.00
530.26	35398.26
530.43	35594.87
530.60	35182.93
530.77	35243.79
530.94	35882.75
531.11	35395.92
531.28	35917.86
531.46	35716.58
531.63	36093.40
531.80	35529.33
531.97	36037.23
532.14	36088.72
532.31	36100.42
532.48	36231.49
532.65	36613.00
532.82	35985.74
532.99	36797.90
533.16	36631.72
533.33	36201.07
533.50	36598.96
533.67	36287.67
533.84	35995.10
534.01	36760.45
534.18	36390.65
534.35	36907.91
534.52	36891.52
534.69	37195.79
534.86	36746.41
535.03	37106.85
535.20	37046.00
535.37	37092.81
535.54	37390.06
535.71	36837.69
535.88	37118.56
536.05	37153.66
536.22	37469.64
536.38	37422.83
536.55	37024.93
536.72	37455.59
536.89	37294.10
537.06	37446.23
537.23	37507.08
537.40	37345.59
537.57	37170.05
537.74	37233.24
537.91	37764.54
538.08	37619.43
538.25	37504.74
538.42	38124.99
538.59	38380.10
538.75	37652.20
538.92	38094.56
539.09	38099.24
539.26	38110.94
539.43	37954.13
539.60	38487.77
539.77	38492.45
539.94	38675.01
540.11	38415.21
540.28	38333.29
540.44	38457.34
540.61	38312.23
540.78	38602.46
540.95	38534.58
541.12	38440.96
541.29	38155.41
541.46	38988.64
541.62	38525.22
541.79	38700.76
541.96	38127.33
542.13	38466.70
542.30	38913.75
542.47	39091.63
542.63	38976.94
542.80	39213.34
542.97	39124.40
543.14	39688.46
543.31	39203.97
543.48	39381.85
543.64	39541.01
543.81	39590.16
543.98	39978.69
544.15	39531.65
544.32	39971.67
544.48	40034.86
544.65	39983.37
544.82	39421.64
544.99	40025.50
545.16	39882.73
545.32	39704.85
545.49	40119.12
545.66	40657.45
545.83	40023.16
546.00	40680.85
546.16	40465.52
546.33	39665.06
546.50	39861.66
546.67	40531.06
546.83	39861.66
547.00	40051.25
547.17	40048.91
547.34	40172.96
547.50	39995.07
547.67	41027.25
547.84	40793.20
548.00	40767.45
548.17	40627.02
548.34	40842.35
548.51	40898.52
548.67	41256.62
548.84	40776.81
549.01	40865.75
549.18	41078.74
549.34	40989.80
549.51	41352.58
549.68	40783.83
549.84	40790.86
550.01	40982.78
550.18	40877.46
550.34	41214.49
550.51	41109.17
550.68	41160.66
550.84	40814.26
551.01	41261.30
551.18	41095.13
551.34	41359.61
551.51	41141.94
551.68	41486.00
551.84	41352.58
552.01	41467.27
552.18	41387.69
552.34	40994.48
552.51	41633.45
552.68	41357.27
552.84	41607.70
553.01	41546.85
553.18	41968.15
553.34	41998.57
553.51	42014.96
553.67	41848.78
553.84	41769.20
554.01	41666.22
554.17	41720.05
554.34	41614.72
554.51	41858.14
554.67	42351.99
554.84	41935.38
555.00	42026.66
555.17	41631.11
555.33	42176.45
555.50	41916.65
555.67	42188.16
555.83	42181.13
556.00	42309.86
556.16	42567.32
556.33	42543.92
556.50	42419.87
556.66	42742.86
556.83	41942.40
556.99	42735.84
557.16	42834.14
557.32	42770.95
557.49	42810.74
557.65	42630.52
557.82	42710.10
557.98	41991.55
558.15	42396.46
558.32	42478.38
558.48	42239.65
558.65	42831.80
558.81	42682.01
558.98	42768.61
559.14	42515.83
559.31	42689.03
559.47	42822.44
559.64	42948.83
559.80	42937.13
559.97	43000.32
560.13	42756.91
560.30	42689.03
560.46	43037.77
560.63	43138.41
560.79	43147.78
560.96	43213.31
561.12	43033.09
561.29	42555.62
561.45	43133.73
561.61	43000.32
561.78	43100.97
561.94	42981.60
562.11	43351.40
562.27	43154.80
562.44	43365.45
562.60	43440.34
562.77	43501.20
562.93	43089.26
563.10	43906.11
563.26	43173.52
563.42	43285.87
563.59	43653.33
563.75	43047.13
563.92	43136.07
564.08	43566.73
564.24	43709.50
564.41	43257.78
564.57	43122.03
564.74	43269.48
564.90	43358.42
565.07	43569.07
565.23	43477.79
565.39	43222.67
565.56	43566.73
565.72	43611.20
565.88	43796.10
566.05	43463.75
566.21	43852.28
566.38	44074.63
566.54	43540.99
566.70	43875.68
566.87	43761.00
567.03	43782.06
567.19	43725.89
567.36	43517.58
567.52	43697.80
567.68	43885.04
567.85	43878.02
568.01	44257.19
568.17	43988.03
568.34	43798.44
568.50	43810.15
568.66	43487.15
568.83	43964.62
568.99	43964.62
569.15	43988.03
569.32	43519.92
569.48	43885.04
569.64	44465.50
569.81	44067.61
569.97	44020.80
570.13	44629.34
570.30	43845.26
570.46	44395.28
570.62	43941.22
570.78	43882.70
570.95	43899.09
571.11	44245.49
571.27	43995.05
571.43	44062.93
571.60	44243.15
571.76	43599.50
571.92	44072.29
572.09	44032.50
572.25	44334.43
572.41	43803.13
572.57	44292.30
572.74	44355.49
572.90	43885.04
573.06	44224.42
573.22	44411.67
573.38	44573.16
573.55	44872.75
573.71	44608.27
573.87	44203.36
574.03	44002.07
574.20	44423.37
574.36	44814.24
574.52	44329.75
574.68	44376.56
574.84	44383.58
575.01	44942.97
575.17	44626.99
575.33	44559.12
575.49	44353.15
575.65	44102.71
575.82	44514.65
575.98	44100.37
576.14	44285.28
576.30	44861.05
576.46	44683.17
576.62	44502.95
576.79	44589.55
576.95	43803.13
577.11	44182.29
577.27	44116.76
577.43	44760.40
577.59	44184.63
577.75	44083.99
577.92	44641.04
578.08	44573.16
578.24	44727.64
578.40	44264.21
578.56	44718.28
578.72	44570.82
578.88	44577.84
579.04	44591.89
579.21	44346.13
579.37	44865.73
579.53	44676.15
579.69	44528.69
579.85	44456.14
580.01	44814.24
580.17	44411.67
580.33	44912.54
580.49	44107.40
580.65	44692.53
580.82	44334.43
580.98	44753.38
581.14	44371.88
581.30	44697.21
581.46	44624.65
581.62	44112.08
581.78	44591.89
581.94	44676.15
582.10	44861.05
582.26	44795.51
582.42	44828.28
582.58	44657.42
582.74	44596.57
582.90	44418.69
583.06	44800.19
583.22	44481.88
583.38	44687.85
583.54	44783.81
583.70	44802.53
583.86	44996.80
584.02	44296.98
584.18	45158.30
584.34	44952.33
584.50	44931.26
584.66	44842.32
584.82	44947.65
584.98	45139.57
585.14	44849.35
585.30	44552.10
585.46	44809.56
585.62	44421.03
585.78	44856.37
585.94	44257.19
586.10	44779.13
586.26	44875.09
586.42	44446.77
586.58	44701.89
586.74	44643.38
586.90	44339.11
587.06	44669.12
587.22	44701.89
587.38	44694.87
587.54	44872.75
587.70	45162.98
587.86	44816.58
588.02	44732.32
588.18	44933.60
588.34	44807.22
588.49	44648.06
588.65	44832.96
588.81	45219.15
588.97	44720.62
589.13	44694.87
589.29	44839.98
589.45	44804.88
589.61	44821.26
589.77	45113.83
589.93	44821.26
590.08	45095.10
590.24	45446.18
590.40	45558.53
590.56	45696.62
590.72	45179.36
590.88	45195.74
591.04	45404.05
591.20	45446.18
591.35	45392.35
591.51	45450.86
591.67	45455.54
591.83	45361.92
591.99	45488.31
592.15	45015.52
592.31	45090.42
592.46	45333.84
592.62	45439.16
592.78	45139.57
592.94	45469.59
593.10	45911.95
593.26	45485.97
593.41	45563.21
593.57	45780.88
593.73	45544.48
593.89	45750.45
594.05	45397.03
594.20	45649.81
594.36	45851.09
594.52	45783.22
594.68	45148.93
594.84	45572.57
594.99	45935.35
595.15	45680.24
595.31	45572.57
595.47	45326.81
595.62	45680.24
595.78	45226.17
595.94	45635.77
596.10	45523.42
596.25	45867.48
596.41	45614.70
596.57	45207.45
596.73	46003.23
596.88	45656.83
597.04	45296.39
597.20	45357.24
597.36	45680.24
597.51	45731.73
597.67	45748.11
597.83	45764.49
597.99	45317.45
598.14	45544.48
598.30	45471.93
598.46	45610.02
598.61	45823.01
598.77	45647.47
598.93	45713.00
599.09	45467.25
599.24	45724.71
599.40	45467.25
599.56	45771.52
599.71	45865.14
599.87	46354.31
600.03	45661.51
600.18	45666.19
600.34	46010.25
600.50	45738.75
600.65	45448.52
600.81	46284.09
600.97	46026.63
601.12	45839.39
601.28	45769.18
601.44	45745.77
601.59	45467.25
601.75	45787.90
601.91	45977.48
602.06	45612.36
602.22	45762.15
602.37	45991.53
602.53	46066.42
602.69	45811.31
602.84	45972.80
603.00	45661.51
603.16	45612.36
603.31	45818.33
603.47	45874.50
603.62	45705.98
603.78	46080.47
603.94	45722.37
604.09	45373.63
604.25	45268.30
604.40	45694.28
604.56	45804.28
604.71	45897.91
604.87	45469.59
605.03	45542.14
605.18	45509.38
605.34	45720.02
605.49	45647.47
605.65	45446.18
605.80	45687.26
605.96	45354.90
606.12	45345.54
606.27	45570.23
606.43	45319.79
606.58	45698.96
606.74	45113.83
606.89	45600.66
607.05	45532.78
607.20	45993.87
607.36	45755.13
607.51	45560.87
607.67	45113.83
607.82	45764.49
607.98	45336.18
608.13	45326.81
608.29	45617.04
608.44	45593.64
608.60	45130.21
608.75	45586.61
608.91	45464.91
609.06	45048.29
609.22	45825.35
609.37	45165.32
609.53	45820.67
609.68	45975.14
609.84	45113.83
609.99	45158.30
610.15	45467.25
610.30	45846.41
610.46	45448.52
610.61	45429.80
610.76	45427.46
610.92	44985.10
611.07	45148.93
611.23	45109.14
611.38	45076.38
611.54	45642.79
611.69	45839.39
611.84	45518.74
612.00	44971.05
612.15	45198.09
612.31	45298.73
612.46	44601.25
612.62	45148.93
612.77	45200.43
612.92	45769.18
613.08	45233.19
613.23	45207.45
613.39	44697.21
613.54	45237.87
613.69	45158.30
613.85	44809.56
614.00	45109.14
614.15	45113.83
614.31	44928.92
614.46	45092.76
614.62	44800.19
614.77	45177.02
614.92	44931.26
615.08	45265.96
615.23	44842.32
615.38	44926.58
615.54	44949.99
615.69	45167.66
615.84	44760.40
616.00	45106.80
616.15	45233.19
616.30	44711.25
616.46	44746.36
616.61	44769.77
616.76	45272.98
616.92	44484.22
617.07	44437.41
617.22	44793.17
617.37	44474.86
617.53	44917.22
617.68	44589.55
617.83	44449.11
617.99	45113.83
618.14	44996.80
618.29	44479.54
618.45	44472.52
618.60	44500.61
618.75	44109.74
618.90	44245.49
619.06	44285.28
619.21	44800.19
619.36	45048.29
619.51	44416.35
619.67	44219.74
619.82	44266.55
619.97	44435.07
620.12	44205.70
620.28	44378.90
620.43	44711.25
620.58	44624.65
620.73	43847.60
620.89	44615.29
621.04	44243.15
621.19	44332.09
621.34	43931.86
621.49	44179.95
621.65	44437.41
621.80	44275.91
621.95	44072.29
622.10	44088.67
622.25	44025.48
622.41	44247.83
622.56	44184.63
622.71	44240.81
622.86	44037.18
623.01	43981.01
623.16	43800.79
623.32	44013.77
623.47	43995.05
623.62	43889.73
623.77	43763.34
623.92	44119.10
624.07	43948.24
624.23	43992.71
624.38	44236.12
624.53	44091.01
624.68	43688.44
624.83	43576.09
624.98	44109.74
625.13	43037.77
625.29	43625.25
625.44	43828.87
625.59	43840.57
625.74	43037.77
625.89	43435.66
626.04	43236.72
626.19	43234.38
626.34	43227.35
626.49	43606.52
626.65	43442.68
626.80	43164.16
626.95	42988.62
627.10	43021.39
627.25	43414.60
627.40	43473.11
627.55	43529.28
627.70	42939.47
627.85	43594.82
628.00	43395.87
628.15	42937.13
628.30	42522.85
628.45	42628.18
628.60	42349.65
628.76	43089.26
628.91	43103.31
629.06	42951.17
629.21	42794.36
629.36	42726.48
629.51	42740.52
629.66	43030.75
629.81	42986.28
629.96	43007.34
630.11	43075.22
630.26	42799.04
630.41	42712.44
630.56	42731.16
630.71	42876.27
630.86	42312.20
631.01	42543.92
631.16	42527.53
631.31	43000.32
631.46	42714.78
631.61	42824.78
631.76	42426.89
631.91	42768.61
632.06	43082.24
632.21	42892.66
632.36	42937.13
632.51	42490.09
632.66	43126.71
632.81	42504.13
632.96	42457.32
633.10	42167.09
633.25	42302.84
633.40	42291.14
633.55	42366.04
633.70	42211.56
633.85	41818.35
634.00	42068.79
634.15	41933.04
634.30	42174.11
634.45	41818.35
634.60	42071.13
634.75	41778.56
634.90	42096.88
635.05	42150.71
635.19	42071.13
635.34	42054.75
635.49	42110.92
635.64	42260.71
635.79	42085.17
635.94	41841.76
636.09	42150.71
636.24	41996.23
636.39	41720.05
636.53	42115.60
636.68	41352.58
636.83	41825.37
636.98	41558.55
637.13	41558.55
637.28	41427.48
637.43	41776.22
637.57	41734.09
637.72	41532.81
637.87	41493.02
638.02	41935.38
638.17	41518.76
638.32	41668.56
638.46	41317.48
638.61	41443.87
638.76	41148.96
638.91	41713.03
639.06	40840.01
639.20	41198.11
639.35	41408.76
639.50	41453.23
639.65	41244.92
639.80	41783.24
639.94	41677.92
640.09	41654.51
640.24	41233.22
640.39	41125.55
640.54	40575.53
640.68	40980.44
640.83	41436.84
640.98	41385.35
641.13	40917.25
641.27	41521.10
641.42	40624.68
641.57	40973.42
641.72	41134.92
641.86	41219.17
642.01	40414.03
642.16	40463.18
642.31	40451.48
642.45	40872.78
642.60	40505.31
642.75	40790.86
642.90	41144.28
643.04	40825.96
643.19	40680.85
643.34	40287.64
643.48	40421.05
643.63	40615.32
643.78	40746.39
643.93	41055.34
644.07	40823.62
644.22	40666.81
644.37	40172.96
644.51	40783.83
644.66	40760.43
644.81	40694.89
644.95	40348.50
645.10	40556.80
645.25	40414.03
645.39	40498.29
645.54	40463.18
645.69	39742.30
645.83	40130.83
645.98	39885.07
646.13	39683.78
646.27	40229.13
646.42	39931.88
646.57	40135.51
646.71	40137.85
646.86	40332.11
647.00	40484.25
647.15	40184.66
647.30	39683.78
647.44	40299.34
647.59	39999.76
647.74	39941.24
647.88	40105.08
648.03	40294.66
648.17	40657.45
648.32	40095.72
648.47	40098.06
648.61	39950.60
648.76	39957.63
648.90	39885.07
649.05	39814.85
649.20	40076.99
649.34	39929.54
649.49	39697.83
649.63	39526.97
649.78	39452.07
649.92	40187.00
650.07	39995.07
650.21	39868.69
650.36	40102.74
650.51	39810.17
650.65	40350.84
650.80	39929.54
650.94	39608.89
651.09	39658.04
651.23	39267.17
651.38	39234.40
651.52	39100.99
651.67	39269.51
651.81	38880.98
651.96	39267.17
652.10	38703.10
652.25	39192.27
652.39	38979.28
652.54	39419.30
652.68	39049.50
652.83	39271.85
652.97	39377.17
653.12	39297.59
653.26	39016.73
653.41	39126.74
653.55	39098.65
653.70	39431.01
653.84	39339.72
653.99	39344.41
654.13	39271.85
654.27	38937.15
654.42	39152.48
654.56	39157.16
654.71	38925.45
654.85	39264.83
655.00	38974.60
655.14	39009.71
655.29	38843.53
655.43	39189.93
655.57	38642.24
655.72	38419.89
655.86	38497.13
656.01	38574.37
656.15	38382.45
656.30	38686.71
656.44	39051.84
656.58	38527.56
656.73	38646.93
656.87	38213.93
657.01	38604.80
657.16	38366.06
657.30	38532.24
657.45	38199.88
657.59	38473.73
657.73	38171.80
657.88	38134.35
658.02	38717.14
658.16	38581.39
658.31	38380.10
658.45	38569.69
658.60	38223.29
658.74	38391.81
658.88	38319.25
659.03	37904.98
659.17	38029.02
659.31	37886.25
659.46	37839.44
659.60	37792.63
659.74	37572.62
659.89	37298.78
660.03	37621.77
660.17	37640.50
660.32	38113.28
660.46	37301.12
660.60	37202.82
660.74	37474.32
660.89	37607.73
661.03	37502.40
661.17	37574.96
661.32	36980.46
661.46	37202.82
661.60	37078.77
661.74	37266.01
661.89	36999.19
662.03	37193.45
662.17	36587.25
662.31	36753.43
662.46	36694.92
662.60	36872.80
662.74	36704.28
662.88	36636.41
663.03	36554.49
663.17	36723.01
663.31	36226.81
663.45	36559.17
663.60	37305.80
663.74	36842.37
663.88	36650.45
664.02	36346.18
664.17	36374.27
664.31	36055.95
664.45	35929.56
664.59	36385.97
664.73	35796.15
664.88	36212.77
665.02	36088.72
665.16	35950.63
665.30	36032.55
665.44	35796.15
665.59	35606.57
665.73	35828.92
665.87	35426.35
666.01	35466.14
666.15	35508.27
666.29	35566.78
666.44	35924.88
666.58	35842.96
666.72	35152.51
666.86	35372.52
667.00	35028.46
667.14	35110.38
667.28	35510.61
667.43	35211.02
667.57	35358.47
667.71	35119.74
667.85	35112.72
667.99	35105.70
668.13	35241.45
668.27	34913.77
668.41	34745.25
668.56	34033.73
668.70	34192.89
668.84	34382.47
668.98	34476.09
669.12	34483.11
669.26	34534.60
669.40	34808.45
669.54	34621.20
669.68	34330.98
669.82	34017.35
669.96	33834.78
670.10	33970.54
670.25	33769.25
670.39	33895.64
670.53	33954.15
670.67	34326.30
670.81	34192.89
670.95	33731.80
671.09	33832.44
671.23	33692.01
671.37	33752.87
671.51	33174.75
671.65	33626.48
671.79	33261.35
671.93	33507.11
672.07	33333.91
672.21	32861.12
672.35	32821.33
672.49	33289.44
672.63	33233.27
672.77	32776.86
672.91	32402.38
673.05	32444.51
673.19	32339.18
673.33	32744.09
673.47	32479.61
673.61	32226.84
673.75	32240.88
673.89	32180.03
674.03	31751.71
674.17	32418.76
674.31	31644.04
674.45	31768.09
674.59	31810.22
674.73	32046.62
674.87	31459.14
675.01	31821.92
675.15	31236.79
675.29	31321.05
675.43	30883.37
675.56	31484.89
675.70	31175.94
675.84	31168.91
675.98	30031.41
676.12	31178.28
676.26	31007.42
676.40	31192.32
676.54	30354.41
676.68	30675.06
676.82	30473.78
676.96	30665.70
677.10	30543.99
677.23	30103.97
677.37	30621.23
677.51	30291.21
677.65	30382.49
677.79	30197.59
677.93	30010.35
678.07	29755.23
678.21	29923.75
678.34	29263.72
678.48	29415.85
678.62	29528.20
678.76	29371.38
678.90	29085.84
679.04	29193.50
679.18	29593.73
679.31	29514.16
679.45	28959.45
679.59	28484.32
679.73	28978.17
679.87	28713.69
680.00	28479.64
680.14	28318.14
680.28	28292.40
680.42	28140.26
680.56	28231.54
680.70	28128.56
680.83	27758.75
680.97	27826.63
681.11	28004.51
681.25	27431.08
681.39	27307.03
681.52	27395.97
681.66	27047.23
681.80	26850.63
681.94	27033.19
682.07	26967.65
682.21	27072.98
682.35	26682.11
682.49	26801.47
682.62	26890.41
682.76	27070.64
682.90	26815.52
683.04	26579.12
683.17	26490.18
683.31	26073.57
683.45	25993.99
683.59	25802.07
683.72	25839.51
683.86	25968.24
684.00	25993.99
684.13	25902.71
684.27	25539.93
684.41	25528.22
684.55	25350.34
684.68	25722.49
684.82	25268.42
684.96	25537.59
685.09	25329.28
685.23	24905.64
685.37	25425.24
685.50	25216.93
685.64	25118.63
685.78	24919.68
685.91	24783.93
686.05	24283.06
686.19	23903.89
686.32	24271.36
686.46	24189.44
686.60	23878.15
686.73	24149.65
686.87	23859.42
687.01	24065.39
687.14	23772.82
687.28	23681.54
687.42	23955.38
687.55	23789.20
687.69	23669.84
687.82	23344.50
687.96	23445.15
688.10	23243.86
688.23	23234.50
688.37	23447.49
688.50	23117.47
688.64	23239.18
688.78	22787.46
688.91	22665.75
689.05	22850.65
689.18	22604.89
689.32	22050.19
689.46	22082.95
689.59	22148.49
689.73	22307.65
689.86	22719.58
690.00	22089.98
690.13	22368.50
690.27	21876.99
690.41	21862.94
690.54	21832.52
690.68	21729.53
690.81	21427.60
690.95	21308.24
691.08	21174.83
691.22	21120.99
691.35	21238.02
691.49	20992.26
691.62	21184.19
691.76	20711.40
691.89	20456.28
692.03	20496.07
692.16	20201.16
692.30	20608.42
692.43	20304.15
692.57	20353.30
692.70	19943.70
692.84	20669.27
692.97	20156.69
693.11	19711.99
693.24	19744.76
693.38	19707.31
693.51	19702.63
693.65	19681.56
693.78	19466.24
693.92	19651.14
694.05	19187.71
694.19	19278.99
694.32	19033.24
694.45	19585.60
694.59	19344.53
694.72	19194.73
694.86	19016.85
694.99	18717.26
695.13	18932.59
695.26	18595.56
695.39	18312.35
695.53	18438.74
695.66	18384.91
695.80	18141.49
695.93	18164.90
696.07	18115.75
696.20	18197.67
696.33	17776.37
696.47	17797.43
696.60	17659.34
696.73	18080.64
696.87	17820.84
697.00	17631.26
697.14	17472.10
697.27	17619.55
697.40	17521.25
697.54	17053.14
697.67	17055.48
697.80	17324.65
697.94	16957.18
698.07	16898.67
698.21	16999.31
698.34	16903.35
698.47	16460.99
698.61	16458.65
698.74	16266.72
698.87	16233.96
699.01	16212.89
699.14	16278.43
699.27	16257.36
699.40	16142.67
699.54	16027.99
699.67	15967.13
699.80	16018.63
699.94	15969.48
700.07	15737.76
700.20	15707.34
700.34	15459.24
700.47	15482.64
700.60	15789.25
700.73	15829.04
700.87	15255.61
701.00	15225.18
701.13	15115.18
701.26	15208.80
701.40	14995.81
701.53	14995.81
701.66	14843.68
701.79	14855.38
701.93	14607.28
702.06	14490.26
702.19	14640.05
702.32	14560.47
702.46	14611.96
702.59	14724.31
702.72	14604.94
702.85	14499.62
702.99	14382.59
703.12	14153.22
703.25	14136.84
703.38	14010.45
703.51	13912.14
703.65	14050.24
703.78	13783.41
703.91	13764.69
704.04	13586.81
704.17	13406.59
704.31	13518.93
704.44	13345.73
704.57	13404.25
704.70	13240.41
704.83	13362.12
704.96	13359.78
705.10	13104.66
705.23	13191.26
>>>>>End Processed Spectral Data<<<<<
