SpectraSuite Data File
++++++++++++++++++++++++++++++++++++
Date: Fri Oct 25 11:33:22 EDT 2013
User: price-jones
Dark Spectrum Present: No
Reference Spectrum Present: No
Number of Sampled Component Spectra: 1
Spectrometers: USB2+H05261
Integration Time (usec): 100000 (USB2+H05261)
Spectra Averaged: 1 (USB2+H05261)
Boxcar Smoothing: 0 (USB2+H05261)
Correct for Electrical Dark: No (USB2+H05261)
Strobe/Lamp Enabled: No (USB2+H05261)
Correct for Detector Non-linearity: No (USB2+H05261)
Correct for Stray Light: No (USB2+H05261)
Number of Pixels in Processed Spectrum: 2048
>>>>>Begin Processed Spectral Data<<<<<
365.73	294.91
365.92	294.91
366.12	294.91
366.32	131.07
366.52	135.75
366.72	215.33
366.91	212.99
367.11	138.09
367.31	194.26
367.51	156.82
367.70	182.56
367.90	135.75
368.10	184.90
368.30	191.92
368.49	161.50
368.69	255.12
368.89	262.14
369.09	191.92
369.28	191.92
369.48	264.48
369.68	243.42
369.87	212.99
370.07	276.18
370.27	250.44
370.47	285.55
370.66	470.45
370.86	451.72
371.06	582.79
371.25	554.71
371.45	517.26
371.65	500.87
371.84	472.79
372.04	571.09
372.24	578.11
372.44	578.11
372.63	636.63
372.83	559.39
373.03	601.52
373.22	559.39
373.42	571.09
373.62	711.52
373.81	645.99
374.01	674.07
374.21	685.78
374.40	575.77
374.60	704.50
374.79	617.90
374.99	631.94
375.19	596.84
375.38	650.67
375.58	716.20
375.78	695.14
375.97	669.39
376.17	697.48
376.37	681.10
376.56	716.20
376.76	662.37
376.95	650.67
377.15	746.63
377.35	566.41
377.54	678.76
377.74	723.23
377.93	664.71
378.13	653.01
378.33	723.23
378.52	610.88
378.72	748.97
378.91	709.18
379.11	650.67
379.31	718.54
379.50	716.20
379.70	739.61
379.89	779.40
380.09	711.52
380.28	755.99
380.48	755.99
380.68	704.50
380.87	723.23
381.07	821.53
381.26	758.33
381.46	781.74
381.65	798.12
381.85	748.97
382.04	795.78
382.24	816.85
382.43	753.65
382.63	758.33
382.83	781.74
383.02	809.83
383.22	880.04
383.41	763.01
383.61	915.15
383.80	889.40
384.00	725.57
384.19	866.00
384.39	835.57
384.58	781.74
384.78	793.44
384.97	891.74
385.17	786.42
385.36	812.17
385.56	805.14
385.75	844.93
385.95	851.96
386.14	922.17
386.34	847.27
386.53	919.83
386.72	910.47
386.92	938.55
387.11	919.83
387.31	945.58
387.50	947.92
387.70	875.36
387.89	877.70
388.09	919.83
388.28	971.32
388.48	851.96
388.67	898.77
388.86	924.51
389.06	901.11
389.25	926.85
389.45	898.77
389.64	924.51
389.84	976.00
390.03	1029.84
390.22	943.24
390.42	945.58
390.61	966.64
390.81	910.47
391.00	959.62
391.19	1013.45
391.39	983.02
391.58	1046.22
391.78	983.02
391.97	1081.33
392.16	1015.79
392.36	1057.92
392.55	1121.12
392.75	1036.86
392.94	1088.35
393.13	1055.58
393.33	968.98
393.52	1027.50
393.71	1196.01
393.91	990.05
394.10	1034.52
394.29	1046.22
394.49	1132.82
394.68	1135.16
394.88	1203.04
395.07	1156.22
395.26	1153.88
395.46	1217.08
395.65	1181.97
395.84	1186.65
396.04	1193.67
396.23	1142.18
396.42	1135.16
396.62	1104.73
396.81	1188.99
397.00	1198.35
397.19	1238.14
397.39	1172.61
397.58	1224.10
397.77	1306.02
397.97	1280.27
398.16	1322.40
398.35	1301.34
398.55	1303.68
398.74	1186.65
398.93	1310.70
399.12	1338.79
399.32	1376.24
399.51	1394.96
399.70	1280.27
399.90	1390.28
400.09	1401.98
400.28	1399.64
400.47	1486.24
400.67	1413.68
400.86	1338.79
401.05	1399.64
401.24	1425.39
401.44	1364.53
401.63	1416.02
401.82	1490.92
402.01	1479.22
402.21	1500.28
402.40	1500.28
402.59	1540.07
402.78	1596.25
402.97	1549.43
403.17	1476.88
403.36	1521.35
403.55	1523.69
403.74	1547.09
403.93	1612.63
404.13	1563.48
404.32	1668.80
404.51	1561.14
404.70	1652.42
404.89	1678.16
405.09	1736.68
405.28	1591.56
405.47	1631.35
405.66	1715.61
405.85	1753.06
406.05	1743.70
406.24	1753.06
406.43	1757.74
406.62	1795.19
406.81	1802.21
407.00	1806.89
407.20	1809.23
407.39	1792.85
407.58	1818.60
407.77	1846.68
407.96	1930.94
408.15	1870.09
408.34	1823.28
408.54	1863.07
408.73	1853.70
408.92	1860.73
409.11	1919.24
409.30	2005.84
409.49	1956.69
409.68	2059.67
409.87	1973.07
410.07	2097.12
410.26	2165.00
410.45	2043.29
410.64	2069.03
410.83	2111.16
411.02	2040.95
411.21	2172.02
411.40	2038.61
411.59	2195.42
411.78	2230.53
411.98	2267.98
412.17	2286.70
412.36	2230.53
412.55	2370.96
412.74	2375.64
412.93	2347.56
413.12	2359.26
413.31	2422.45
413.50	2403.73
413.69	2354.58
413.88	2504.37
414.07	2485.65
414.26	2356.92
414.45	2466.92
414.64	2551.18
414.83	2600.34
415.02	2623.74
415.22	2644.81
415.41	2703.32
415.60	2672.89
415.79	2708.00
415.98	2778.22
416.17	2675.23
416.36	2785.24
416.55	2703.32
416.74	2841.41
416.93	2883.54
417.12	2846.09
417.31	2883.54
417.50	2960.78
417.69	2932.69
417.88	2946.73
418.07	2960.78
418.26	2956.10
418.45	2967.80
418.64	3080.14
418.83	3021.63
419.02	3103.55
419.21	3129.30
419.39	3115.25
419.58	3141.00
419.77	3159.72
419.96	3222.92
420.15	3176.11
420.34	3204.19
420.53	3155.04
420.72	3258.03
420.91	3272.07
421.10	3293.13
421.29	3361.01
421.48	3346.97
421.67	3272.07
421.86	3255.69
422.05	3283.77
422.24	3349.31
422.43	3405.48
422.61	3492.08
422.80	3386.76
422.99	3410.16
423.18	3344.63
423.37	3461.65
423.56	3442.93
423.75	3356.33
423.94	3463.99
424.13	3143.34
424.32	3243.98
424.50	3524.85
424.69	3583.36
424.88	3606.77
425.07	3396.12
425.26	3365.69
425.45	3562.30
425.64	3410.16
425.83	3541.23
426.01	3445.27
426.20	3433.57
426.39	3389.10
426.58	3520.17
426.77	3585.70
426.96	3644.21
427.15	3475.70
427.33	3590.38
427.52	3545.91
427.71	3756.56
427.90	3688.68
428.09	3644.21
428.28	3716.77
428.46	3702.73
428.65	3658.26
428.84	3880.61
429.03	3791.67
429.22	3791.67
429.40	3819.75
429.59	3744.86
429.78	3726.13
429.97	3674.64
430.16	3726.13
430.34	3796.35
430.53	3969.55
430.72	3927.42
430.91	3964.87
431.10	3808.05
431.28	4016.36
431.47	4049.13
431.66	4063.17
431.85	3913.38
432.03	3981.25
432.22	4229.35
432.41	4063.17
432.60	4098.28
432.79	4117.00
432.97	4060.83
433.16	4210.62
433.35	4236.37
433.54	4088.92
433.72	4236.37
433.91	4203.60
434.10	4301.90
434.28	4280.84
434.47	4283.18
434.66	4334.67
434.85	4252.75
435.03	4287.86
435.22	4339.35
435.41	4479.79
435.59	4341.69
435.78	4332.33
435.97	4341.69
436.16	4528.94
436.34	4425.95
436.53	4594.47
436.72	4629.58
436.90	4409.57
437.09	4341.69
437.28	4472.76
437.46	4519.57
437.65	4671.71
437.84	4589.79
438.02	4620.22
438.21	4592.13
438.40	4461.06
438.58	4837.89
438.77	4755.97
438.96	4774.69
439.14	4830.87
439.33	4873.00
439.52	4931.51
439.70	4837.89
439.89	5076.62
440.08	5064.92
440.26	5020.45
440.45	5217.05
440.63	5151.52
440.82	5259.18
441.01	5041.51
441.19	5200.67
441.38	5221.74
441.57	5287.27
441.75	5432.38
441.94	5334.08
442.12	5465.15
442.31	5502.60
442.50	5535.37
442.68	5554.09
442.87	5397.28
443.05	5708.57
443.24	5500.26
443.43	5549.41
443.61	5570.48
443.80	5731.97
443.98	5568.13
444.17	5254.50
444.35	5488.56
444.54	5823.25
444.73	5612.60
444.91	5657.07
445.10	5664.10
445.28	5664.10
445.47	5654.73
445.65	5701.54
445.84	5858.36
446.02	5935.60
446.21	5748.36
446.39	5673.46
446.58	5650.05
446.77	5582.18
446.95	5628.99
447.14	5673.46
447.32	5790.49
447.51	5675.80
447.69	5818.57
447.88	5762.40
448.06	5767.08
448.25	5975.39
448.43	5867.72
448.62	5879.43
448.80	5781.12
448.99	5930.92
449.17	5858.36
449.36	5813.89
449.54	5907.51
449.73	5980.07
449.91	6083.05
450.10	6118.16
450.28	6090.07
450.46	6052.63
450.65	6001.13
450.83	6218.80
451.02	6300.72
451.20	6394.34
451.39	6253.91
451.57	6057.31
451.76	6289.02
451.94	6223.48
452.13	6193.06
452.31	6413.07
452.49	6214.12
452.68	6441.15
452.86	6417.75
453.05	6375.62
453.23	6239.87
453.42	6375.62
453.60	6368.60
453.78	6555.84
453.97	6408.39
454.15	6466.90
454.34	6352.21
454.52	6626.06
454.70	6698.61
454.89	6647.12
455.07	6764.15
455.26	6747.76
455.44	6757.13
455.62	6817.98
455.81	6853.09
455.99	6911.60
456.17	6827.34
456.36	6707.98
456.54	6834.36
456.73	6904.58
456.91	7030.97
457.09	7126.93
457.28	7225.23
457.46	7110.55
457.64	7049.69
457.83	7054.37
458.01	7082.46
458.19	7250.98
458.38	7250.98
458.56	7243.96
458.74	7267.36
458.93	7122.25
459.11	7330.56
459.29	7211.19
459.48	7309.49
459.66	7246.30
459.84	7309.49
460.03	7414.82
460.21	7349.28
460.39	7351.62
460.57	7489.71
460.76	7559.93
460.94	7581.00
461.12	7625.47
461.31	7712.07
461.49	7573.97
461.67	7487.37
461.85	7843.14
462.04	7709.72
462.22	8161.45
462.40	7726.11
462.59	7896.97
462.77	7810.37
462.95	7817.39
463.13	7864.20
463.32	7978.89
463.50	8063.15
463.68	7978.89
463.86	7918.03
464.05	7936.76
464.23	8107.62
464.41	8093.57
464.59	7967.18
464.78	8238.69
464.96	7925.05
465.14	7948.46
465.32	8119.32
465.50	8168.47
465.69	8182.51
465.87	8154.43
466.05	8032.72
466.23	8109.96
466.41	8163.79
466.60	8226.98
466.78	8369.76
466.96	8161.45
467.14	8304.22
467.32	8315.92
467.51	8374.44
467.69	8369.76
467.87	8535.93
468.05	8566.36
468.23	8496.14
468.41	8243.37
468.60	8437.63
468.78	8564.02
468.96	8571.04
469.14	8606.15
469.32	8615.51
469.50	8587.43
469.69	8800.41
469.87	8716.16
470.05	8645.94
470.23	8769.99
470.41	8718.50
470.59	8847.22
470.77	8849.57
470.95	8968.93
471.14	8985.32
471.32	8769.99
471.50	9210.01
471.68	9107.02
471.86	9165.54
472.04	8994.68
472.22	9303.63
472.40	9245.12
472.58	9341.08
472.77	9406.61
472.95	9352.78
473.13	9844.29
473.31	9401.93
473.49	9425.34
473.67	9525.98
473.85	9514.28
474.03	9834.93
474.21	9832.59
474.39	9968.34
474.57	9893.44
474.75	9706.20
474.93	9928.55
475.12	10068.98
475.30	10162.61
475.48	10038.56
475.66	10008.13
475.84	10347.51
476.02	10242.18
476.20	10396.66
476.38	10501.98
476.56	10619.01
476.74	10567.52
476.92	10630.71
477.10	10665.82
477.28	10771.15
477.46	10628.37
477.64	10981.79
477.82	10909.24
478.00	11225.21
478.18	11246.27
478.36	11330.53
478.54	11307.13
478.72	11473.31
478.90	11641.82
479.08	11454.58
479.26	11733.11
479.44	11676.93
479.62	11995.25
479.80	12081.85
479.98	11976.52
480.16	12533.57
480.34	12065.46
480.52	12379.09
480.70	12294.83
480.88	12049.08
481.06	12367.39
481.24	12348.67
481.41	12741.88
481.59	13027.42
481.77	13074.23
481.95	12908.05
482.13	13221.69
482.31	13099.98
482.49	13619.58
482.67	13554.04
482.85	13682.77
483.03	13820.86
483.21	13486.17
483.39	13965.98
483.57	13884.06
483.74	14073.64
483.92	13940.23
484.10	13980.02
484.28	14281.95
484.46	14527.71
484.64	14789.85
484.82	14654.09
485.00	14855.38
485.18	15117.52
485.35	15461.58
485.53	15136.24
485.71	15449.88
485.89	15110.50
486.07	15515.41
486.25	15379.66
486.43	15590.31
486.61	15915.64
486.78	16231.62
486.96	16135.65
487.14	16152.04
487.32	16170.76
487.50	16266.72
487.68	16358.00
487.85	16877.60
488.03	16713.77
488.21	17315.28
488.39	17153.79
488.57	17376.14
488.75	17216.98
488.92	17385.50
489.10	17589.13
489.28	17951.91
489.46	17764.67
489.64	18111.07
489.81	18082.98
489.99	18169.58
490.17	18197.67
490.35	18544.06
490.53	18527.68
490.70	18855.36
490.88	18787.48
491.06	19122.18
491.24	19302.40
491.41	19468.58
491.59	19594.96
491.77	19484.96
491.95	19573.90
492.13	19704.97
492.30	19976.47
492.48	19962.43
492.66	19957.75
492.84	20002.22
493.01	20210.53
493.19	20327.55
493.37	20521.82
493.54	20503.09
493.72	21158.44
493.90	20748.85
494.08	20835.45
494.25	21064.82
494.43	21013.33
494.61	21301.22
494.79	21160.78
494.96	21446.33
495.14	21619.53
495.32	21848.90
495.49	22036.14
495.67	21979.97
495.85	22349.78
496.02	21991.67
496.20	22335.73
496.38	22356.80
496.55	22415.31
496.73	23379.61
496.91	22827.24
497.09	23136.20
497.26	23161.94
497.44	23037.89
497.62	23283.65
497.79	23587.92
497.97	23314.08
498.14	23775.16
498.32	24056.03
498.50	23946.02
498.67	24194.12
498.85	24212.84
499.03	24135.60
499.20	24332.21
499.38	24484.34
499.56	24339.23
499.73	24514.77
499.91	24737.12
500.08	24823.72
500.26	25076.50
500.44	24938.41
500.61	25034.37
500.79	25200.55
500.97	25088.20
501.14	25404.17
501.32	25404.17
501.49	25565.67
501.67	25755.26
501.84	25865.26
502.02	25853.56
502.20	26111.02
502.37	25764.62
502.55	25881.64
502.72	25977.61
502.90	26134.42
503.07	26293.58
503.25	26438.69
503.43	26256.13
503.60	26363.79
503.78	26581.46
503.95	26609.55
504.13	27047.23
504.30	26749.98
504.48	27098.72
504.65	26862.33
504.83	27248.52
505.01	27220.43
505.18	27428.74
505.36	27915.57
505.53	27288.31
505.71	27452.14
505.88	27749.39
506.06	27541.08
506.23	27791.52
506.41	27798.54
506.58	28053.66
506.76	27807.90
506.93	28308.78
507.11	28060.68
507.28	28247.93
507.46	28088.77
507.63	28343.89
507.81	28638.80
507.98	28481.98
508.16	28498.36
508.33	28786.25
508.50	29130.31
508.68	28978.17
508.85	29298.83
509.03	29338.62
509.20	29240.31
509.38	29572.67
509.55	29612.46
509.73	29607.78
509.90	29406.49
510.08	29780.98
510.25	29647.57
510.42	30225.68
510.60	29895.66
510.77	30103.97
510.95	30277.17
511.12	30293.55
511.30	30429.30
511.47	30316.96
511.64	30302.92
511.82	30747.62
511.99	30527.61
512.17	30930.18
512.34	30773.36
512.51	31012.10
512.69	31082.31
512.86	31014.44
513.04	30677.40
513.21	31103.38
513.38	31491.91
513.56	31087.00
513.73	31505.95
513.90	31044.87
514.08	31587.87
514.25	31812.56
514.43	32109.81
514.60	32044.27
514.77	31686.17
514.95	32362.59
515.12	31878.10
515.29	32011.51
515.47	31896.82
515.64	32460.89
515.81	31969.38
515.99	32533.45
516.16	32652.81
516.33	32283.01
516.51	32952.40
516.68	32545.15
516.85	32830.69
517.03	32804.95
517.20	33127.94
517.37	32720.69
517.54	33195.82
517.72	33120.92
517.89	33041.34
518.06	33179.43
518.24	33411.15
518.41	33546.90
518.58	33432.21
518.75	33139.65
518.93	33600.73
519.10	33537.54
519.27	33703.71
519.45	33635.84
519.62	34040.75
519.79	33956.49
519.96	34099.26
520.14	34071.18
520.31	34267.78
520.48	33937.77
520.65	34113.31
520.83	34419.92
521.00	35147.82
521.17	34541.63
521.34	34796.74
521.52	34866.96
521.69	34733.55
521.86	34895.05
522.03	34843.56
522.20	35372.52
522.38	35491.88
522.55	35108.04
522.72	35349.11
522.89	35386.56
523.07	35402.94
523.24	35409.96
523.41	35136.12
523.58	35704.87
523.75	36163.62
523.92	35606.57
524.10	35608.91
524.27	35768.07
524.44	35751.68
524.61	36297.03
524.78	36034.89
524.96	36067.66
525.13	36467.89
525.30	36486.61
525.47	36526.40
525.64	36495.97
525.81	36172.98
525.98	36685.56
526.16	36594.28
526.33	36292.35
526.50	37340.91
526.67	36943.02
526.84	36884.50
527.01	36917.27
527.18	37106.85
527.36	36914.93
527.53	37008.55
527.70	37687.31
527.87	37041.32
528.04	37174.73
528.21	37567.94
528.38	37687.31
528.55	37331.54
528.72	37577.30
528.89	37661.56
529.07	37593.68
529.24	37504.74
529.41	38073.49
529.58	37858.17
529.75	37624.11
529.92	38012.64
530.09	37605.39
530.26	38171.80
530.43	38323.93
530.60	37769.22
530.77	37930.72
530.94	38382.45
531.11	38155.41
531.28	38153.07
531.46	38532.24
531.63	38541.60
531.80	38639.90
531.97	38579.05
532.14	38763.95
532.31	38499.47
532.48	38703.10
532.65	39096.31
532.82	38815.44
532.99	38848.21
533.16	38948.85
533.33	38948.85
533.50	39196.95
533.67	38911.41
533.84	38675.01
534.01	39173.55
534.18	39215.68
534.35	39463.77
534.52	39744.64
534.69	39402.92
534.86	39349.09
535.03	39477.82
535.20	39501.22
535.37	40027.84
535.54	39646.33
535.71	39695.49
535.88	39566.76
536.05	40098.06
536.22	39887.41
536.38	40552.12
536.55	39730.59
536.72	40238.49
536.89	40032.52
537.06	40212.74
537.23	40154.23
537.40	40222.11
537.57	39959.97
537.74	40268.92
537.91	40353.18
538.08	40421.05
538.25	40151.89
538.42	40568.51
538.59	41074.06
538.75	40495.95
538.92	40832.99
539.09	40631.70
539.26	40718.30
539.43	40706.60
539.60	40718.30
539.77	41022.57
539.94	41525.78
540.11	41064.70
540.28	41188.75
540.44	40835.33
540.61	40830.65
540.78	41078.74
540.95	41031.93
541.12	41060.02
541.29	40982.78
541.46	41198.11
541.62	42096.88
541.79	41722.39
541.96	41193.43
542.13	41106.83
542.30	41467.27
542.47	41380.67
542.63	41975.17
542.80	41855.80
542.97	42127.30
543.14	42213.90
543.31	41944.74
543.48	42483.06
543.64	42630.52
543.81	42241.99
543.98	41893.25
544.15	42548.60
544.32	42564.98
544.48	42597.75
544.65	42295.82
544.82	42501.79
544.99	42288.80
545.16	42504.13
545.32	42918.40
545.49	42990.96
545.66	42562.64
545.83	42691.37
546.00	43107.99
546.16	42799.04
546.33	42997.98
546.50	42782.65
546.67	42621.16
546.83	42724.14
547.00	42831.80
547.17	42429.23
547.34	42932.45
547.50	43292.89
547.67	43452.05
547.84	43337.36
548.00	43323.32
548.17	43922.49
548.34	43674.40
548.51	43803.13
548.67	43716.53
548.84	43707.16
549.01	43416.94
549.18	43625.25
549.34	43690.78
549.51	44088.67
549.68	43746.95
549.84	43522.26
550.01	43700.14
550.18	43555.03
550.34	43388.85
550.51	43786.74
550.68	44151.87
550.84	43812.49
551.01	43971.64
551.18	43763.34
551.34	44367.20
551.51	44329.75
551.68	44018.46
551.84	44208.04
552.01	44034.84
552.18	44535.71
552.34	44388.26
552.51	44371.88
552.68	43913.13
552.84	44271.23
553.01	44404.64
553.18	44184.63
553.34	44870.41
553.51	44746.36
553.67	44626.99
553.84	44495.92
554.01	44947.65
554.17	44839.98
554.34	44938.29
554.51	44666.78
554.67	45050.63
554.84	44886.79
555.00	44940.63
555.17	44945.31
555.33	45092.76
555.50	45064.67
555.67	45228.51
555.83	45153.62
556.00	44919.56
556.16	45734.07
556.33	45523.42
556.50	44835.30
556.66	45237.87
556.83	44905.52
556.99	45748.11
557.16	45490.65
557.32	45677.90
557.49	45488.31
557.65	45167.66
557.82	45198.09
557.98	45368.94
558.15	45509.38
558.32	45776.20
558.48	45216.81
558.65	45455.54
558.81	45813.65
558.98	45483.63
559.14	45504.70
559.31	45404.05
559.47	45439.16
559.64	45675.55
559.80	45883.86
559.97	45684.92
560.13	45600.66
560.30	45628.74
560.46	45947.06
560.63	46003.23
560.79	45963.44
560.96	46340.27
561.12	46078.13
561.29	45921.31
561.45	45853.44
561.61	46043.02
561.78	45799.60
561.94	46089.83
562.11	45888.54
562.27	46045.36
562.44	46050.04
562.60	46206.86
562.77	46108.55
562.93	46103.87
563.10	46499.42
563.26	46401.12
563.42	46810.71
563.59	45972.80
563.75	46213.88
563.92	46263.03
564.08	46368.35
564.24	46492.40
564.41	46513.47
564.57	46457.29
564.74	46141.32
564.90	46452.61
565.07	46169.41
565.23	46328.56
565.39	46321.54
565.56	46246.65
565.72	46258.35
565.88	46394.10
566.05	46504.10
566.21	46309.84
566.38	46403.46
566.54	46431.55
566.70	46747.52
566.87	47056.47
567.03	46834.12
567.19	46777.95
567.36	46501.76
567.52	46246.65
567.68	46878.59
567.85	46677.30
568.01	47000.30
568.17	46518.15
568.34	47166.48
568.50	47199.24
568.66	46857.52
568.83	47318.61
568.99	46639.86
569.15	47304.57
569.32	46387.08
569.48	46749.86
569.64	47206.26
569.81	46841.14
569.97	46700.71
570.13	46897.31
570.30	46801.35
570.46	46979.23
570.62	47054.13
570.78	47220.31
570.95	46927.74
571.11	47320.95
571.27	47061.15
571.43	46796.67
571.60	46658.58
571.76	46941.78
571.92	46796.67
572.09	46892.63
572.25	47129.03
572.41	47000.30
572.57	46696.03
572.74	47700.12
572.90	47114.98
573.06	47227.33
573.22	47278.82
573.38	47398.19
573.55	47007.32
573.71	47428.62
573.87	47278.82
574.03	47159.45
574.20	47704.80
574.36	47580.75
574.52	47323.29
574.68	47122.01
574.84	47606.50
575.01	47580.75
575.17	47161.79
575.33	47267.12
575.49	47320.95
575.65	47494.15
575.82	47538.62
575.98	47175.84
576.14	47311.59
576.30	47587.77
576.46	47576.07
576.62	47096.26
576.79	47292.86
576.95	46902.00
577.11	47075.19
577.27	47327.97
577.43	47224.99
577.59	47440.32
577.75	47344.36
577.92	47257.76
578.08	47447.34
578.24	47002.64
578.40	47735.23
578.56	47655.65
578.72	47737.57
578.88	47531.60
579.04	47234.35
579.21	47583.09
579.37	47533.94
579.53	47374.78
579.69	47377.12
579.85	47276.48
580.01	47536.28
580.17	47334.99
580.33	47442.66
580.49	47718.84
580.65	47625.22
580.82	47669.69
580.98	47824.17
581.14	47185.20
581.30	47604.16
581.46	47136.05
581.62	47487.13
581.78	47342.02
581.94	47805.44
582.10	47433.30
582.26	47608.84
582.42	47325.63
582.58	47409.89
582.74	47688.42
582.90	47489.47
583.06	47611.18
583.22	46937.10
583.38	47512.88
583.54	47592.45
583.70	47669.69
583.86	48123.75
584.02	47571.39
584.18	47980.98
584.34	47674.37
584.50	47906.08
584.66	47573.73
584.82	47852.25
584.98	47632.24
585.14	47725.86
585.30	47510.53
585.46	47800.76
585.62	47597.13
585.78	47913.11
585.94	47136.05
586.10	47386.49
586.26	47421.59
586.42	47653.31
586.58	47526.92
586.74	47707.14
586.90	47466.06
587.06	47859.27
587.22	47779.70
587.38	47955.24
587.54	48100.35
587.70	47913.11
587.86	47817.14
588.02	47384.15
588.18	47866.30
588.34	47428.62
588.49	47613.52
588.65	47585.43
588.81	47683.73
588.97	47983.32
589.13	47833.53
589.29	47863.96
589.45	48114.39
589.61	48217.38
589.77	47999.71
589.93	47917.79
590.08	47700.12
590.24	48451.43
590.40	48823.58
590.56	48266.53
590.72	47854.59
590.88	47704.80
591.04	47784.38
591.20	48289.93
591.35	48107.37
591.51	48409.30
591.67	48580.16
591.83	48596.54
591.99	48058.22
592.15	48112.05
592.31	48406.96
592.46	48065.24
592.62	47753.95
592.78	48240.78
592.94	48795.49
593.10	48498.24
593.26	48371.85
593.41	48683.14
593.57	48470.15
593.73	48423.34
593.89	48652.72
594.05	48596.54
594.20	48474.84
594.36	48736.98
594.52	48458.45
594.68	48285.25
594.84	48423.34
594.99	48521.65
595.15	48516.96
595.31	48538.03
595.47	48383.55
595.62	48149.50
595.78	48495.90
595.94	48739.32
596.10	47927.15
596.25	48542.71
596.41	48622.29
596.57	48318.02
596.73	48411.64
596.88	48444.41
597.04	48528.67
597.20	48556.75
597.36	48804.85
597.51	48261.85
597.67	48179.93
597.83	48388.24
597.99	48308.66
598.14	48287.59
598.30	48734.63
598.46	48570.80
598.61	48554.41
598.77	48421.00
598.93	48404.62
599.09	48486.54
599.24	48832.94
599.40	48683.14
599.56	48439.73
599.71	49116.14
599.87	48828.26
600.03	48744.00
600.18	48694.85
600.34	48676.12
600.50	48933.58
600.65	48114.39
600.81	48879.75
600.97	48793.15
601.12	48931.24
601.28	48554.41
601.44	48311.00
601.59	48589.52
601.75	48343.77
601.91	48500.58
602.06	48706.55
602.22	48685.48
602.37	48493.56
602.53	48336.74
602.69	49352.54
602.84	48851.66
603.00	48254.82
603.16	48650.38
603.31	48765.06
603.47	48928.90
603.62	48509.94
603.78	49006.14
603.94	48795.49
604.09	48554.41
604.25	48547.39
604.40	48865.70
604.56	48545.05
604.71	48907.83
604.87	48264.19
605.03	48385.89
605.18	48472.49
605.34	48774.42
605.49	48193.97
605.65	48149.50
605.80	48542.71
605.96	48362.49
606.12	48203.33
606.27	48512.28
606.43	48605.91
606.58	48933.58
606.74	48566.12
606.89	48736.98
607.05	48982.73
607.20	48643.35
607.36	48467.81
607.51	48449.09
607.67	48294.61
607.82	48617.61
607.98	48229.08
608.13	48456.11
608.29	48535.69
608.44	48619.95
608.60	48402.28
608.75	48278.23
608.91	48727.61
609.06	48081.63
609.22	48406.96
609.37	48378.87
609.53	48423.34
609.68	48521.65
609.84	48336.74
609.99	48652.72
610.15	48296.95
610.30	48701.87
610.46	48090.99
610.61	48231.42
610.76	48449.09
610.92	47894.38
611.07	48189.29
611.23	47964.60
611.38	48072.26
611.54	48296.95
611.69	48652.72
611.84	48769.74
612.00	48055.88
612.15	47973.96
612.31	48325.04
612.46	47613.52
612.62	48053.54
612.77	47941.19
612.92	48189.29
613.08	47767.99
613.23	48055.88
613.39	47908.43
613.54	47957.58
613.69	48023.11
613.85	48004.39
614.00	48179.93
614.15	48048.86
614.31	47716.50
614.46	47625.22
614.62	47690.76
614.77	47690.76
614.92	48121.41
615.08	47983.32
615.23	47784.38
615.38	48076.94
615.54	48151.84
615.69	48046.52
615.84	47863.96
616.00	47992.68
616.15	48215.04
616.30	48032.47
616.46	47917.79
616.61	47957.58
616.76	47487.13
616.92	47557.35
617.07	47849.91
617.22	48177.59
617.37	47445.00
617.53	47313.93
617.68	47817.14
617.83	47547.98
617.99	48074.60
618.14	47782.04
618.29	47533.94
618.45	47517.56
618.60	47269.46
618.75	47058.81
618.90	47243.71
619.06	47257.76
619.21	47332.65
619.36	47709.48
619.51	47334.99
619.67	47173.50
619.82	46983.91
619.97	47842.89
620.12	47196.90
620.28	47217.97
620.43	47540.96
620.58	47437.98
620.73	47487.13
620.89	47360.74
621.04	47573.73
621.19	47189.88
621.34	46965.19
621.49	47327.97
621.65	47012.00
621.80	47496.49
621.95	47208.61
622.10	47269.46
622.25	46752.20
622.41	46813.05
622.56	46997.96
622.71	47337.33
622.86	46932.42
623.01	47445.00
623.16	46948.81
623.32	47089.24
623.47	46864.55
623.62	47009.66
623.77	47346.70
623.92	46944.12
624.07	47049.45
624.23	47037.75
624.38	46705.39
624.53	46562.62
624.68	46691.35
624.83	46447.93
624.98	46546.23
625.13	46459.63
625.29	46602.41
625.44	46321.54
625.59	46206.86
625.74	46394.10
625.89	46436.23
626.04	46604.75
626.19	46773.27
626.34	46382.40
626.49	46347.29
626.65	46106.21
626.80	46522.83
626.95	46305.16
627.10	45991.53
627.25	46232.60
627.40	46529.85
627.55	46658.58
627.70	46270.05
627.85	46532.19
628.00	46199.83
628.15	46593.04
628.30	45801.94
628.45	46288.77
628.60	45928.33
628.76	46167.07
628.91	45996.21
629.06	45661.51
629.21	46050.04
629.36	45827.69
629.51	45872.16
629.66	46216.22
629.81	45895.56
629.96	46045.36
630.11	46117.92
630.26	45902.59
630.41	45984.51
630.56	45846.41
630.71	45907.27
630.86	45689.60
631.01	45518.74
631.16	45635.77
631.31	45572.57
631.46	45521.08
631.61	45523.42
631.76	45471.93
631.91	45394.69
632.06	45797.26
632.21	45736.41
632.36	45696.62
632.51	45315.11
632.66	45537.46
632.81	45216.81
632.96	45116.17
633.10	45605.34
633.25	45397.03
633.40	45621.72
633.55	45551.51
633.70	45455.54
633.85	45064.67
634.00	45130.21
634.15	45247.24
634.30	45333.84
634.45	45373.63
634.60	45284.68
634.75	45184.04
634.90	45031.91
635.05	45272.98
635.19	45289.37
635.34	45083.40
635.49	44971.05
635.64	45530.44
635.79	45516.40
635.94	45233.19
636.09	45319.79
636.24	44589.55
636.39	45057.65
636.53	44776.79
636.68	44814.24
636.83	44601.25
636.98	44591.89
637.13	44044.20
637.28	44603.59
637.43	44516.99
637.57	44907.86
637.72	44453.79
637.87	44692.53
638.02	44612.95
638.17	44868.07
638.32	44608.27
638.46	44194.00
638.61	44313.36
638.76	44039.52
638.91	44783.81
639.06	44144.84
639.20	44172.93
639.35	43845.26
639.50	44025.48
639.65	44191.65
639.80	44376.56
639.94	44252.51
640.09	44435.07
640.24	44559.12
640.39	44121.44
640.54	44013.77
640.68	44278.25
640.83	44648.06
640.98	44201.02
641.13	43597.16
641.27	43782.06
641.42	44488.90
641.57	44233.78
641.72	43351.40
641.86	43793.76
642.01	43653.33
642.16	43817.17
642.31	43482.47
642.45	44058.24
642.60	43716.53
642.75	43433.32
642.90	43718.87
643.04	43833.55
643.19	43604.18
643.34	43650.99
643.48	43360.76
643.63	43449.70
643.78	43770.36
643.93	43735.25
644.07	43686.10
644.22	43463.75
644.37	43650.99
644.51	43461.41
644.66	43475.45
644.81	43597.16
644.95	43381.83
645.10	43409.92
645.25	42979.26
645.39	43353.74
645.54	43229.69
645.69	42550.94
645.83	42955.85
645.98	42967.55
646.13	43260.12
646.27	43344.38
646.42	42609.45
646.57	43264.80
646.71	43168.84
646.86	43571.41
647.00	43107.99
647.15	43037.77
647.30	43325.66
647.44	43239.06
647.59	43246.08
647.74	42665.63
647.88	43093.94
648.03	43468.43
648.17	43227.35
648.32	43590.14
648.47	43112.67
648.61	42564.98
648.76	42693.71
648.90	42621.16
649.05	42550.94
649.20	42745.20
649.34	42756.91
649.49	42841.17
649.63	43077.56
649.78	42955.85
649.92	42752.23
650.07	43608.86
650.21	42911.38
650.36	42862.23
650.51	42241.99
650.65	42824.78
650.80	42625.84
650.94	42869.25
651.09	42237.31
651.23	42143.69
651.38	42309.86
651.52	42019.64
651.67	42075.81
651.81	42309.86
651.96	41975.17
652.10	42398.80
652.25	42080.49
652.39	42218.58
652.54	42227.95
652.68	42209.22
652.83	42239.65
652.97	42607.11
653.12	41855.80
653.26	41691.96
653.41	42045.38
653.55	42295.82
653.70	42347.31
653.84	41670.90
653.99	42431.57
654.13	41907.29
654.27	41979.85
654.42	42382.42
654.56	41687.28
654.71	42089.85
654.85	41713.03
655.00	41621.75
655.14	42377.74
655.29	41724.73
655.43	42454.98
655.57	41832.39
655.72	41553.87
655.86	41553.87
656.01	41214.49
656.15	41352.58
656.30	41130.23
656.44	41879.21
656.58	42085.17
656.73	41949.42
656.87	41214.49
657.01	41092.79
657.16	41544.51
657.30	41067.04
657.45	41198.11
657.59	40999.16
657.73	40802.56
657.88	41074.06
658.02	41785.58
658.16	41270.67
658.31	41572.60
658.45	41242.58
658.60	40802.56
658.74	41432.16
658.88	41624.09
659.03	40767.45
659.17	40638.72
659.31	40870.43
659.46	40369.56
659.60	40596.59
659.74	40360.20
659.89	40140.19
660.03	40055.93
660.17	40811.92
660.32	40598.93
660.46	40533.40
660.60	40105.08
660.74	40329.77
660.89	40514.67
661.03	39770.38
661.17	39538.67
661.32	40112.10
661.46	40053.59
661.60	40201.04
661.74	39903.79
661.89	39634.63
662.03	40004.44
662.17	40161.25
662.31	39480.16
662.46	40116.78
662.60	39508.24
662.74	39674.42
662.88	39440.37
663.03	39428.66
663.17	39115.03
663.31	38871.62
663.45	39517.60
663.60	39363.13
663.74	38885.66
663.88	39409.94
664.02	39061.20
664.17	39423.98
664.31	39075.24
664.45	39110.35
664.59	39405.26
664.73	38546.28
664.88	38880.98
665.02	38616.50
665.16	38642.24
665.30	38824.81
665.44	38630.54
665.59	38459.68
665.73	38143.71
665.87	38122.65
666.01	38445.64
666.15	38249.03
666.29	38387.13
666.44	38375.42
666.58	38405.85
666.72	38143.71
666.86	38218.61
667.00	37951.79
667.14	38204.56
667.28	38155.41
667.43	37703.69
667.57	38401.17
667.71	37736.46
667.85	38181.16
667.99	37462.61
668.13	37532.83
668.27	37413.46
668.41	37041.32
668.56	36769.82
668.70	37251.97
668.84	36748.75
668.98	36896.20
669.12	37146.64
669.26	37319.84
669.40	37144.30
669.54	37525.81
669.68	37202.82
669.82	36704.28
669.96	36002.12
670.10	36598.96
670.25	36889.18
670.39	36374.27
670.53	36704.28
670.67	36456.18
670.81	36409.37
670.95	36402.35
671.09	36177.66
671.23	36065.31
671.37	36561.51
671.51	36123.83
671.65	35915.52
671.79	35857.01
671.93	36048.93
672.07	35983.40
672.21	36189.36
672.35	35241.45
672.49	35299.96
672.63	35688.49
672.77	35047.18
672.91	35534.01
673.05	35416.99
673.19	35033.14
673.33	35377.20
673.47	35056.54
673.61	34869.30
673.75	34677.38
673.89	34712.49
674.03	34710.14
674.17	34492.47
674.31	34712.49
674.45	34426.94
674.59	34391.83
674.73	34532.26
674.87	34492.47
675.01	33921.38
675.15	33869.89
675.29	33558.60
675.43	33919.04
675.56	34312.25
675.70	33649.88
675.84	34047.77
675.98	32767.50
676.12	33392.42
676.26	33406.47
676.40	33301.14
676.54	33137.30
676.68	32547.49
676.82	32751.12
676.96	33275.40
677.10	33132.62
677.23	32889.21
677.37	32713.67
677.51	32781.54
677.65	32774.52
677.79	32189.39
677.93	32439.82
678.07	32205.77
678.21	32198.75
678.34	31845.33
678.48	31889.80
678.62	31873.42
678.76	31599.57
678.90	31550.42
679.04	31627.66
679.18	31634.68
679.31	31309.35
679.45	31164.23
679.59	31283.60
679.73	31145.51
679.87	30995.71
680.00	30764.00
680.14	30871.67
680.28	30862.30
680.42	30831.88
680.56	30408.24
680.70	29841.83
680.83	30125.04
680.97	30286.53
681.11	29813.74
681.25	29895.66
681.39	29930.77
681.52	29776.30
681.66	29902.68
681.80	29399.47
681.94	29027.32
682.07	29057.75
682.21	29069.45
682.35	29188.82
682.49	29069.45
682.62	28802.63
682.76	29074.13
682.90	28858.81
683.04	28533.47
683.17	28854.12
683.31	28379.00
683.45	28512.41
683.59	28067.70
683.72	28177.71
683.86	28168.35
684.00	27793.86
684.13	28121.54
684.27	27735.35
684.41	27550.45
684.55	28102.81
684.68	27117.45
684.82	27215.75
684.96	27302.35
685.09	27246.18
685.23	27339.80
685.37	27751.73
685.50	27267.24
685.64	26967.65
685.78	26780.41
685.91	26368.48
686.05	26185.91
686.19	26445.71
686.32	26199.96
686.46	25862.92
686.60	25680.36
686.73	26003.35
686.87	25802.07
687.01	26279.54
687.14	25860.58
687.28	25830.15
687.42	25493.12
687.55	25249.70
687.69	25408.86
687.82	25015.65
687.96	25287.15
688.10	25177.14
688.23	25184.16
688.37	25289.49
688.50	25032.03
688.64	25043.73
688.78	24613.07
688.91	24592.01
689.05	24592.01
689.18	24189.44
689.32	23899.21
689.46	23929.64
689.59	24173.05
689.73	23962.40
689.86	24252.63
690.00	24154.33
690.13	23971.77
690.27	23545.79
690.41	23718.99
690.54	23447.49
690.68	23541.11
690.81	23398.34
690.95	23075.34
691.08	22852.99
691.22	22963.00
691.35	22696.17
691.49	22939.59
691.62	23108.11
691.76	22506.59
691.89	22272.54
692.03	22136.79
692.16	21729.53
692.30	22094.66
692.43	22082.95
692.57	21963.59
692.70	22019.76
692.84	21827.84
692.97	21757.62
693.11	21577.40
693.24	21221.64
693.38	21263.77
693.51	21390.16
693.65	20828.43
693.78	20985.24
693.92	21062.48
694.05	20905.66
694.19	20989.92
694.32	20908.01
694.45	21018.01
694.59	20774.60
694.72	20585.01
694.86	20552.24
694.99	20395.43
695.13	20077.12
695.26	20112.22
695.39	20271.38
695.53	19655.82
695.66	19847.74
695.80	19695.61
695.93	19754.12
696.07	19372.61
696.20	19204.10
696.33	19227.50
696.47	19136.22
696.60	19183.03
696.73	19386.66
696.87	19185.37
697.00	19168.99
697.14	18829.61
697.27	18838.97
697.40	18682.16
697.54	18471.51
697.67	18848.33
697.80	18635.35
697.94	18352.14
698.07	18169.58
698.21	18331.08
698.34	18321.71
698.47	17914.46
698.61	17905.10
698.74	17834.88
698.87	17972.97
699.01	17738.92
699.14	17399.54
699.27	17806.80
699.40	17326.99
699.54	17469.76
699.67	17357.41
699.80	17308.26
699.94	17025.06
700.07	17242.73
700.20	17121.02
700.34	16842.50
700.47	16882.28
700.60	17060.16
700.73	16922.07
700.87	16610.78
701.00	16458.65
701.13	16088.84
701.26	16201.19
701.40	16002.24
701.53	16140.33
701.66	16257.36
701.79	16236.30
701.93	15726.06
702.06	15742.44
702.19	15499.03
702.32	15534.14
702.46	15896.92
702.59	15733.08
702.72	15735.42
702.85	15740.10
702.99	15520.09
703.12	15428.81
703.25	15016.88
703.38	15108.16
703.51	14895.17
703.65	14888.15
703.78	14747.72
703.91	14857.72
704.04	14516.00
704.17	14553.45
704.31	14595.58
704.44	14478.55
704.57	14609.62
704.70	14228.12
704.83	14265.57
704.96	14403.66
705.10	14335.78
705.23	14127.47
>>>>>End Processed Spectral Data<<<<<
