SpectraSuite Data File
++++++++++++++++++++++++++++++++++++
Date: Fri Oct 25 11:33:26 EDT 2013
User: price-jones
Dark Spectrum Present: No
Reference Spectrum Present: No
Number of Sampled Component Spectra: 1
Spectrometers: USB2+H05261
Integration Time (usec): 100000 (USB2+H05261)
Spectra Averaged: 1 (USB2+H05261)
Boxcar Smoothing: 0 (USB2+H05261)
Correct for Electrical Dark: No (USB2+H05261)
Strobe/Lamp Enabled: No (USB2+H05261)
Correct for Detector Non-linearity: No (USB2+H05261)
Correct for Stray Light: No (USB2+H05261)
Number of Pixels in Processed Spectrum: 2048
>>>>>Begin Processed Spectral Data<<<<<
365.73	278.52
365.92	278.52
366.12	278.52
366.32	215.33
366.52	161.50
366.72	182.56
366.91	177.88
367.11	154.48
367.31	149.79
367.51	110.01
367.70	194.26
367.90	182.56
368.10	208.31
368.30	194.26
368.49	161.50
368.69	236.39
368.89	212.99
369.09	208.31
369.28	156.82
369.48	191.92
369.68	187.24
369.87	159.16
370.07	332.36
370.27	280.86
370.47	330.02
370.66	421.30
370.86	461.09
371.06	489.17
371.25	613.22
371.45	540.66
371.65	575.77
371.84	554.71
372.04	620.24
372.24	554.71
372.44	554.71
372.63	587.47
372.83	615.56
373.03	620.24
373.22	601.52
373.42	594.50
373.62	655.35
373.81	557.05
374.01	615.56
374.21	631.94
374.40	669.39
374.60	676.41
374.79	657.69
374.99	564.07
375.19	624.92
375.38	671.73
375.58	765.36
375.78	695.14
375.97	585.13
376.17	699.82
376.37	720.88
376.56	704.50
376.76	690.46
376.95	638.97
377.15	683.44
377.35	678.76
377.54	692.80
377.74	763.01
377.93	643.65
378.13	699.82
378.33	758.33
378.52	746.63
378.72	702.16
378.91	713.86
379.11	720.88
379.31	737.27
379.50	622.58
379.70	741.95
379.89	755.99
380.09	685.78
380.28	692.80
380.48	744.29
380.68	662.37
380.87	711.52
381.07	699.82
381.26	800.46
381.46	802.80
381.65	765.36
381.85	746.63
382.04	805.14
382.24	760.67
382.43	744.29
382.63	842.59
382.83	791.10
383.02	793.44
383.22	833.23
383.41	788.76
383.61	858.98
383.80	779.40
384.00	734.93
384.19	807.48
384.39	746.63
384.58	816.85
384.78	807.48
384.97	758.33
385.17	856.64
385.36	784.08
385.56	863.66
385.75	779.40
385.95	798.12
386.14	821.53
386.34	880.04
386.53	863.66
386.72	936.21
386.92	908.13
387.11	894.08
387.31	938.55
387.50	894.08
387.70	910.47
387.89	964.30
388.09	931.53
388.28	1013.45
388.48	856.64
388.67	971.32
388.86	952.60
389.06	980.68
389.25	978.34
389.45	966.64
389.64	1004.09
389.84	898.77
390.03	990.05
390.22	978.34
390.42	870.68
390.61	959.62
390.81	983.02
391.00	990.05
391.19	1057.92
391.39	985.37
391.58	971.32
391.78	1057.92
391.97	983.02
392.16	1015.79
392.36	1048.56
392.55	1001.75
392.75	1034.52
392.94	1027.50
393.13	964.30
393.33	1067.28
393.52	1109.41
393.71	1104.73
393.91	1076.65
394.10	983.02
394.29	1111.75
394.49	1160.91
394.68	1123.46
394.88	1121.12
395.07	1186.65
395.26	1121.12
395.46	1121.12
395.65	1203.04
395.84	1191.33
396.04	1322.40
396.23	1114.10
396.42	1219.42
396.62	1102.39
396.81	1231.12
397.00	1263.89
397.19	1233.46
397.39	1203.04
397.58	1228.78
397.77	1226.44
397.97	1245.16
398.16	1228.78
398.35	1299.00
398.55	1252.19
398.74	1392.62
398.93	1289.64
399.12	1254.53
399.32	1341.13
399.51	1343.47
399.70	1416.02
399.90	1357.51
400.09	1308.36
400.28	1425.39
400.47	1355.17
400.67	1373.89
400.86	1345.81
401.05	1437.09
401.24	1446.45
401.44	1416.02
401.63	1453.47
401.82	1514.33
402.01	1458.15
402.21	1392.62
402.40	1472.20
402.59	1465.18
402.78	1549.43
402.97	1493.26
403.17	1565.82
403.36	1547.09
403.55	1652.42
403.74	1530.71
403.93	1589.22
404.13	1591.56
404.32	1551.78
404.51	1645.40
404.70	1568.16
404.89	1645.40
405.09	1605.61
405.28	1694.55
405.47	1598.59
405.66	1727.32
405.85	1703.91
406.05	1813.92
406.24	1671.14
406.43	1732.00
406.62	1753.06
406.81	1912.22
407.00	1661.78
407.20	1760.08
407.39	1802.21
407.58	1888.81
407.77	1856.04
407.96	1865.41
408.15	1970.73
408.34	1867.75
408.54	1961.37
408.73	1867.75
408.92	1944.99
409.11	2036.27
409.30	1970.73
409.49	1966.05
409.68	1949.67
409.87	2031.58
410.07	2026.90
410.26	2040.95
410.45	2132.23
410.64	1937.96
410.83	2129.89
411.02	2176.70
411.21	2050.31
411.40	2263.30
411.59	2193.08
411.78	2277.34
411.98	2176.70
412.17	2275.00
412.36	2263.30
412.55	2284.36
412.74	2434.16
412.93	2253.94
413.12	2370.96
413.31	2480.97
413.50	2431.82
413.69	2392.03
413.88	2530.12
414.07	2401.39
414.26	2429.48
414.45	2523.10
414.64	2492.67
414.83	2539.48
415.02	2600.34
415.22	2682.25
415.41	2677.57
415.60	2708.00
415.79	2722.04
415.98	2558.21
416.17	2754.81
416.36	2778.22
416.55	2745.45
416.74	2766.51
416.93	2745.45
417.12	2923.33
417.31	2883.54
417.50	2911.63
417.69	3012.27
417.88	2885.88
418.07	3056.74
418.26	2967.80
418.45	2967.80
418.64	3061.42
418.83	3094.19
419.02	3033.33
419.21	3131.64
419.39	3183.13
419.58	3084.83
419.77	3096.53
419.96	3265.05
420.15	3180.79
420.34	3143.34
420.53	3251.00
420.72	3255.69
420.91	3183.13
421.10	3248.66
421.29	3316.54
421.48	3260.37
421.67	3211.22
421.86	3417.18
422.05	3229.94
422.24	3281.43
422.43	3384.41
422.61	3304.84
422.80	3375.05
422.99	3538.89
423.18	3473.36
423.37	3576.34
423.56	3524.85
423.75	3412.50
423.94	3328.24
424.13	3311.86
424.32	3361.01
424.50	3431.23
424.69	3421.86
424.88	3492.08
425.07	3393.78
425.26	3398.46
425.45	3440.59
425.64	3449.95
425.83	3480.38
426.01	3559.95
426.20	3555.27
426.39	3574.00
426.58	3442.93
426.77	3508.46
426.96	3557.61
427.15	3524.85
427.33	3768.26
427.52	3595.06
427.71	3592.72
427.90	3716.77
428.09	3733.15
428.28	3602.08
428.46	3646.55
428.65	3686.34
428.84	3868.91
429.03	3833.80
429.22	3684.00
429.40	3728.47
429.59	3779.97
429.78	3658.26
429.97	3646.55
430.16	3817.41
430.34	3901.67
430.53	3920.40
430.72	3894.65
430.91	3829.12
431.10	4004.66
431.28	3953.16
431.47	3941.46
431.66	3995.29
431.85	4053.81
432.03	3999.98
432.22	4119.34
432.41	4060.83
432.60	4070.19
432.79	4191.90
432.97	4105.30
433.16	4170.83
433.35	4079.55
433.54	4121.68
433.72	4231.69
433.91	4255.09
434.10	4236.37
434.28	4269.14
434.47	4276.16
434.66	4362.76
434.85	4379.14
435.03	4409.57
435.22	4409.57
435.41	4564.04
435.59	4468.08
435.78	4540.64
435.97	4372.12
436.16	4449.36
436.34	4526.60
436.53	4533.62
436.72	4535.96
436.90	4423.61
437.09	4599.15
437.28	4566.39
437.46	4512.55
437.65	4542.98
437.84	4660.01
438.02	4699.80
438.21	4697.46
438.40	4610.86
438.58	4723.20
438.77	4830.87
438.96	4723.20
439.14	4971.30
439.33	4947.89
439.52	4877.68
439.70	4861.29
439.89	5128.11
440.08	5167.90
440.26	5081.30
440.45	4966.62
440.63	5214.71
440.82	5249.82
441.01	5203.01
441.19	5291.95
441.38	5160.88
441.57	5320.04
441.75	5406.64
441.94	5401.96
442.12	5334.08
442.31	5516.64
442.50	5511.96
442.68	5455.79
442.87	5427.70
443.05	5626.65
443.24	5530.69
443.43	5631.33
443.61	5638.35
443.80	5760.06
443.98	5558.77
444.17	5469.83
444.35	5584.52
444.54	5738.99
444.73	5797.51
444.91	5682.82
445.10	5703.89
445.28	5788.14
445.47	5621.97
445.65	5722.61
445.84	5729.63
446.02	5795.17
446.21	5715.59
446.39	5781.12
446.58	5905.17
446.77	5734.31
446.95	5666.44
447.14	5844.32
447.32	5844.32
447.51	5762.40
447.69	5617.29
447.88	5851.34
448.06	5860.70
448.25	5809.21
448.43	5877.09
448.62	5991.77
448.80	5951.98
448.99	6010.50
449.17	5849.00
449.36	5820.91
449.54	6040.92
449.73	6139.23
449.91	6143.91
450.10	6010.50
450.28	6150.93
450.46	6127.52
450.65	6125.18
450.83	6122.84
451.02	6242.21
451.20	6324.13
451.39	6249.23
451.57	6347.53
451.76	6071.35
451.94	6267.95
452.13	6289.02
452.31	6363.92
452.49	6200.08
452.68	6312.42
452.86	6239.87
453.05	6427.11
453.23	6567.54
453.42	6469.24
453.60	6459.88
453.78	6548.82
453.97	6415.41
454.15	6499.67
454.34	6513.71
454.52	6509.03
454.70	6499.67
454.89	6476.26
455.07	6726.70
455.26	6518.39
455.44	6799.26
455.62	6813.30
455.81	6832.02
455.99	6815.64
456.17	6803.94
456.36	6825.00
456.54	7035.65
456.73	7094.16
456.91	7042.67
457.09	7056.72
457.28	7122.25
457.46	7054.37
457.64	6958.41
457.83	7030.97
458.01	7124.59
458.19	7321.20
458.38	7293.11
458.56	7178.42
458.74	7363.33
458.93	7162.04
459.11	7293.11
459.29	7155.02
459.48	7353.96
459.66	7456.95
459.84	7218.21
460.03	7360.98
460.21	7618.44
460.39	7459.29
460.57	7419.50
460.76	7566.95
460.94	7489.71
461.12	7637.17
461.31	7630.15
461.49	7599.72
461.67	7555.25
461.85	7719.09
462.04	7564.61
462.22	7992.93
462.40	7826.75
462.59	7782.28
462.77	7775.26
462.95	8088.89
463.13	7838.45
463.32	7939.10
463.50	7953.14
463.68	7866.54
463.86	8112.30
464.05	7908.67
464.23	7798.66
464.41	7950.80
464.59	7850.16
464.78	8182.51
464.96	8049.10
465.14	7995.27
465.32	8212.94
465.50	8194.22
465.69	8203.58
465.87	8081.87
466.05	8217.62
466.23	8468.06
466.41	8325.29
466.60	8510.19
466.78	8152.09
466.96	8325.29
467.14	8276.13
467.32	8264.43
467.51	8379.12
467.69	8147.40
467.87	8390.82
468.05	8538.27
468.23	8414.23
468.41	8566.36
468.60	8421.25
468.78	8533.59
468.96	8472.74
469.14	8547.64
469.32	8828.50
469.50	8615.51
469.69	8615.51
469.87	8720.84
470.05	8702.11
470.23	8877.65
470.41	8887.01
470.59	8805.10
470.77	8849.57
470.95	8851.91
471.14	9156.18
471.32	8919.78
471.50	9118.73
471.68	9032.13
471.86	9263.84
472.04	9165.54
472.22	9579.81
472.40	9202.99
472.58	9394.91
472.77	9432.36
472.95	9579.81
473.13	9827.91
473.31	9357.46
473.49	9385.55
473.67	9362.14
473.85	9474.49
474.03	9806.84
474.21	9902.81
474.39	9678.12
474.57	9853.66
474.75	9893.44
474.93	9970.68
475.12	9923.87
475.30	9991.75
475.48	10087.71
475.66	9881.74
475.84	10097.07
476.02	10249.21
476.20	10338.15
476.38	10509.01
476.56	10633.05
476.74	10710.29
476.92	10583.90
477.10	10501.98
477.28	10960.73
477.46	10771.15
477.64	10967.75
477.82	11101.16
478.00	11688.64
478.18	11140.95
478.36	11400.75
478.54	11477.99
478.72	11358.62
478.90	11501.39
479.08	11723.74
479.26	11655.87
479.44	11831.41
479.62	11826.73
479.80	11995.25
479.98	11990.56
480.16	12409.52
480.34	12119.29
480.52	12496.12
480.70	12219.94
480.88	12451.65
481.06	12336.96
481.24	12765.28
481.41	12936.14
481.59	12580.38
481.77	12940.82
481.95	12868.27
482.13	13067.21
482.31	13025.08
482.49	13153.81
482.67	13638.30
482.85	13635.96
483.03	13722.56
483.21	13605.53
483.39	13865.33
483.57	13834.91
483.74	13942.57
483.92	14132.15
484.10	14129.81
484.28	14288.97
484.46	14691.54
484.64	14628.35
484.82	14464.51
485.00	14616.65
485.18	14960.70
485.35	15384.34
485.53	15304.76
485.71	15089.43
485.89	15433.49
486.07	15396.04
486.25	15604.35
486.43	15754.15
486.61	16035.01
486.78	16102.89
486.96	16027.99
487.14	16224.59
487.32	16446.94
487.50	16500.78
487.68	16554.61
487.85	16678.66
488.03	16917.39
488.21	16800.37
488.39	16905.69
488.57	17156.13
488.75	17238.05
488.92	17518.91
489.10	17369.12
489.28	17554.02
489.46	17783.39
489.64	18043.19
489.81	18129.79
489.99	18113.41
490.17	18356.82
490.35	18614.28
490.53	18518.32
490.70	18848.33
490.88	18504.28
491.06	19314.10
491.24	19192.39
491.41	19171.33
491.59	19410.06
491.77	19564.54
491.95	19545.81
492.13	19786.89
492.30	19779.87
492.48	19854.76
492.66	19864.13
492.84	19983.49
493.01	20442.24
493.19	20526.50
493.37	20514.80
493.54	20592.03
493.72	20849.49
493.90	20999.29
494.08	20933.75
494.25	21109.29
494.43	21071.84
494.61	21233.34
494.79	21359.73
494.96	21907.41
495.14	21514.20
495.32	21893.37
495.49	21839.54
495.67	22050.19
495.85	22321.69
496.02	22019.76
496.20	22410.63
496.38	22700.86
496.55	22607.23
496.73	23028.53
496.91	22974.70
497.09	22941.93
497.26	22857.67
497.44	23220.45
497.62	23290.67
497.79	23847.72
497.97	23494.30
498.14	23777.50
498.32	23838.36
498.50	24084.11
498.67	24088.79
498.85	24250.29
499.03	24430.51
499.20	24414.13
499.38	24390.72
499.56	24493.71
499.73	24556.90
499.91	24713.72
500.08	25076.50
500.26	24814.36
500.44	24907.98
500.61	24917.34
500.79	25010.96
500.97	25195.87
501.14	25582.06
501.32	25415.88
501.49	25528.22
501.67	25820.79
501.84	25912.07
502.02	25804.41
502.20	25832.49
502.37	26019.74
502.55	25923.77
502.72	26040.80
502.90	26092.29
503.07	25851.22
503.25	26181.23
503.43	26277.19
503.60	26448.05
503.78	26843.60
503.95	26583.80
504.13	26899.78
504.30	26857.65
504.48	26806.16
504.65	27124.47
504.83	27136.17
505.01	27264.90
505.18	27566.83
505.36	27955.36
505.53	27470.87
505.71	27889.82
505.88	27866.42
506.06	27597.26
506.23	28034.94
506.41	27449.80
506.58	27887.48
506.76	28379.00
506.93	28327.50
507.11	28020.89
507.28	28350.91
507.46	28570.92
507.63	28535.81
507.81	28652.84
507.98	28510.07
508.16	28409.42
508.33	28563.90
508.50	29036.69
508.68	28758.16
508.85	28929.02
509.03	29146.69
509.20	29359.68
509.38	29790.34
509.55	29827.79
509.73	29626.50
509.90	29874.60
510.08	29572.67
510.25	29631.18
510.42	29886.30
510.60	30319.30
510.77	29986.94
510.95	30146.10
511.12	30108.65
511.30	30326.32
511.47	29977.58
511.64	30108.65
511.82	30450.37
511.99	30391.86
512.17	30899.75
512.34	30527.61
512.51	30904.43
512.69	30955.93
512.86	30948.90
513.04	31295.30
513.21	31122.10
513.38	31061.25
513.56	31365.52
513.73	30855.28
513.90	31480.21
514.08	31058.91
514.25	32002.14
514.43	31922.57
514.60	31857.03
514.77	32025.55
514.95	32266.63
515.12	32013.85
515.29	32353.23
515.47	32339.18
515.64	32341.52
515.81	32542.81
515.99	32032.57
516.16	32713.67
516.33	32498.34
516.51	32816.65
516.68	32737.07
516.85	33041.34
517.03	32994.53
517.20	32737.07
517.37	33170.07
517.54	33198.16
517.72	33233.27
517.89	33376.04
518.06	33759.89
518.24	33502.43
518.41	33277.74
518.58	33273.06
518.75	32751.12
518.93	33443.91
519.10	33518.81
519.27	33675.63
519.45	33439.23
519.62	34148.42
519.79	33907.34
519.96	33961.17
520.14	34213.95
520.31	34504.18
520.48	34115.65
520.65	34024.37
520.83	34242.04
521.00	34906.75
521.17	34752.27
521.34	34464.39
521.52	34866.96
521.69	34810.79
521.86	34635.25
522.03	35171.23
522.20	34958.24
522.38	35274.21
522.55	35185.27
522.72	35187.61
522.89	35084.63
523.07	36011.48
523.24	35264.85
523.41	35796.15
523.58	35550.40
523.75	35629.98
523.92	35477.84
524.10	36039.57
524.27	35812.54
524.44	35833.60
524.61	36290.01
524.78	36189.36
524.96	36451.50
525.13	36126.17
525.30	36231.49
525.47	36858.76
525.64	36381.29
525.81	36727.69
525.98	36488.95
526.16	36601.30
526.33	36608.32
526.50	37261.33
526.67	36446.82
526.84	36840.03
527.01	37053.02
527.18	36708.96
527.36	37230.90
527.53	37071.75
527.70	37682.62
527.87	37422.83
528.04	36931.31
528.21	37097.49
528.38	37167.71
528.55	37745.82
528.72	37600.71
528.89	37467.30
529.07	37532.83
529.24	37769.22
529.41	37764.54
529.58	37904.98
529.75	37373.67
529.92	38101.58
530.09	38190.52
530.26	38492.45
530.43	38029.02
530.60	38075.84
530.77	38143.71
530.94	37879.23
531.11	38040.73
531.28	38291.16
531.46	38380.10
531.63	38569.69
531.80	38756.93
531.97	38352.02
532.14	38504.15
532.31	38455.00
532.48	38876.30
532.65	38909.07
532.82	38497.13
532.99	38660.97
533.16	38981.62
533.33	39304.62
533.50	39295.25
533.67	39269.51
533.84	38873.96
534.01	39220.36
534.18	39124.40
534.35	39566.76
534.52	39150.14
534.69	39552.71
534.86	39381.85
535.03	39515.26
535.20	39763.36
535.37	39695.49
535.54	39690.80
535.71	40215.08
535.88	39751.66
536.05	39658.04
536.22	40311.05
536.38	40060.61
536.55	39929.54
536.72	39779.74
536.89	39641.65
537.06	40353.18
537.23	40451.48
537.40	40116.78
537.57	40252.53
537.74	40350.84
537.91	40512.33
538.08	40935.97
538.25	40177.64
538.42	40509.99
538.59	40751.07
538.75	40715.96
538.92	40884.48
539.09	41167.68
539.26	40519.35
539.43	40811.92
539.60	40746.39
539.77	40865.75
539.94	40781.49
540.11	40903.20
540.28	41090.44
540.44	41102.15
540.61	40758.09
540.78	41106.83
540.95	41020.23
541.12	41357.27
541.29	41081.08
541.46	41329.18
541.62	41635.79
541.79	41750.48
541.96	40961.72
542.13	41560.89
542.30	41408.76
542.47	41762.18
542.63	41694.30
542.80	42281.78
542.97	42167.09
543.14	42040.70
543.31	41956.44
543.48	41834.74
543.64	42487.74
543.81	42192.84
543.98	42291.14
544.15	42368.38
544.32	42754.57
544.48	42770.95
544.65	42663.28
544.82	42644.56
544.99	42590.73
545.16	42698.39
545.32	42609.45
545.49	42761.59
545.66	43117.35
545.83	42946.49
546.00	43077.56
546.16	42693.71
546.33	42986.28
546.50	42895.00
546.67	43325.66
546.83	42735.84
547.00	43033.09
547.17	43122.03
547.34	42623.50
547.50	43349.06
547.67	43519.92
547.84	43351.40
548.00	43175.86
548.17	43702.48
548.34	43782.06
548.51	43880.36
548.67	43632.27
548.84	43400.55
549.01	43742.27
549.18	43681.42
549.34	44011.43
549.51	43894.41
549.68	43700.14
549.84	43882.70
550.01	44109.74
550.18	43838.23
550.34	44182.29
550.51	44135.48
550.68	44442.09
550.84	44016.11
551.01	43936.54
551.18	43810.15
551.34	43686.10
551.51	44037.18
551.68	44643.38
551.84	44081.65
552.01	43824.19
552.18	43929.51
552.34	44273.57
552.51	44474.86
552.68	43976.33
552.84	44395.28
553.01	44500.61
553.18	44257.19
553.34	44641.04
553.51	44215.06
553.67	44163.57
553.84	44348.47
554.01	44947.65
554.17	44514.65
554.34	44875.09
554.51	45041.27
554.67	45109.14
554.84	45312.77
555.00	44996.80
555.17	44755.72
555.33	45193.40
555.50	45041.27
555.67	44926.58
555.83	45212.13
556.00	45090.42
556.16	45268.30
556.33	45272.98
556.50	45162.98
556.66	45392.35
556.83	44835.30
556.99	46033.66
557.16	45921.31
557.32	45787.90
557.49	45464.91
557.65	45301.07
557.82	45642.79
557.98	45219.15
558.15	45399.37
558.32	45256.60
558.48	45418.10
558.65	45708.32
558.81	45481.29
558.98	45448.52
559.14	45668.53
559.31	45116.17
559.47	45921.31
559.64	45830.03
559.80	45675.55
559.97	45628.74
560.13	45827.69
560.30	45682.58
560.46	46164.73
560.63	46089.83
560.79	46000.89
560.96	46160.05
561.12	45907.27
561.29	46256.01
561.45	46101.53
561.61	45893.22
561.78	45633.42
561.94	45972.80
562.11	45907.27
562.27	45579.59
562.44	45581.93
562.60	46160.05
562.77	45858.12
562.93	45954.08
563.10	46476.02
563.26	46096.85
563.42	46651.56
563.59	46143.66
563.75	46036.00
563.92	46454.95
564.08	46401.12
564.24	46773.27
564.41	46574.32
564.57	46195.15
564.74	46539.21
564.90	46354.31
565.07	46756.88
565.23	46508.79
565.39	46518.15
565.56	46281.75
565.72	46326.22
565.88	46429.21
566.05	46754.54
566.21	46571.98
566.38	46859.87
566.54	46913.70
566.70	47000.30
566.87	46326.22
567.03	46469.00
567.19	46997.96
567.36	47133.71
567.52	46328.56
567.68	47019.02
567.85	46567.30
568.01	47117.32
568.17	46653.90
568.34	46909.02
568.50	46660.92
568.66	46756.88
568.83	46714.75
568.99	46621.13
569.15	46775.61
569.32	46773.27
569.48	46681.98
569.64	46906.68
569.81	47068.17
569.97	46768.58
570.13	46995.62
570.30	46429.21
570.46	47037.75
570.62	47239.03
570.78	46789.65
570.95	47257.76
571.11	46969.87
571.27	46864.55
571.43	46808.37
571.60	46815.40
571.76	46873.91
571.92	46614.11
572.09	46873.91
572.25	47023.70
572.41	46452.61
572.57	47178.18
572.74	47489.47
572.90	47264.78
573.06	47187.54
573.22	47498.83
573.38	47398.19
573.55	47143.07
573.71	47363.08
573.87	47475.43
574.03	47243.71
574.20	47601.82
574.36	46958.17
574.52	47351.38
574.68	47309.25
574.84	47487.13
575.01	47416.91
575.17	47253.08
575.33	47463.72
575.49	47210.95
575.65	47487.13
575.82	47622.88
575.98	47007.32
576.14	47342.02
576.30	47360.74
576.46	47173.50
576.62	47367.76
576.79	47587.77
576.95	46717.09
577.11	47040.09
577.27	47292.86
577.43	47246.05
577.59	47578.41
577.75	47653.31
577.92	47224.99
578.08	47143.07
578.24	47337.33
578.40	47388.83
578.56	47419.25
578.72	47590.11
578.88	47704.80
579.04	47636.92
579.21	47461.38
579.37	47578.41
579.53	47765.65
579.69	47419.25
579.85	47334.99
580.01	47313.93
580.17	47253.08
580.33	47503.51
580.49	47318.61
580.65	47693.10
580.82	47508.19
580.98	47583.09
581.14	47196.90
581.30	47496.49
581.46	47306.91
581.62	47615.86
581.78	47547.98
581.94	47667.35
582.10	47718.84
582.26	47835.87
582.42	47250.74
582.58	47590.11
582.74	47498.83
582.90	47597.13
583.06	47454.36
583.22	47459.04
583.38	47391.17
583.54	47489.47
583.70	47494.15
583.86	47861.61
584.02	47714.16
584.18	48144.82
584.34	48076.94
584.50	47899.06
584.66	47838.21
584.82	47512.88
584.98	47892.04
585.14	47964.60
585.30	47339.68
585.46	47798.42
585.62	47313.93
585.78	47452.02
585.94	47456.70
586.10	47681.39
586.26	47468.40
586.42	47597.13
586.58	48095.67
586.74	47704.80
586.90	47847.57
587.06	47660.33
587.22	48081.63
587.38	47533.94
587.54	47964.60
587.70	48051.20
587.86	47253.08
588.02	47496.49
588.18	47517.56
588.34	47693.10
588.49	47611.18
588.65	47730.54
588.81	47765.65
588.97	48016.09
589.13	47973.96
589.29	47831.19
589.45	48212.70
589.61	47957.58
589.77	47873.32
589.93	47833.53
590.08	48119.07
590.24	48053.54
590.40	48193.97
590.56	48198.65
590.72	48037.16
590.88	48303.98
591.04	47964.60
591.20	48243.12
591.35	48140.14
591.51	48458.45
591.67	48350.79
591.83	48575.48
591.99	48456.11
592.15	48032.47
592.31	48137.80
592.46	47915.45
592.62	47847.57
592.78	48065.24
592.94	48914.86
593.10	48250.14
593.26	48371.85
593.41	48149.50
593.57	48016.09
593.73	48060.56
593.89	48914.86
594.05	48715.91
594.20	48409.30
594.36	48940.60
594.52	48285.25
594.68	48004.39
594.84	48093.33
594.99	48753.36
595.15	48388.24
595.31	48774.42
595.47	48643.35
595.62	48238.44
595.78	48257.17
595.94	48603.56
596.10	48346.11
596.25	48603.56
596.41	48341.42
596.57	48519.31
596.73	48355.47
596.88	48332.06
597.04	48720.59
597.20	48460.79
597.36	48582.50
597.51	48788.47
597.67	48252.48
597.83	48603.56
597.99	48552.07
598.14	48116.73
598.30	48554.41
598.46	48151.84
598.61	48912.52
598.77	48130.78
598.93	48570.80
599.09	48615.27
599.24	48816.55
599.40	48437.39
599.56	48470.15
599.71	48954.64
599.87	49102.10
600.03	48772.08
600.18	48624.63
600.34	48678.46
600.50	48500.58
600.65	48809.53
600.81	48708.89
600.97	48781.45
601.12	48605.91
601.28	48720.59
601.44	48767.40
601.59	48875.07
601.75	48463.13
601.91	48779.10
602.06	48392.92
602.22	49244.87
602.37	48442.07
602.53	48844.64
602.69	48631.65
602.84	48704.21
603.00	48561.44
603.16	48516.96
603.31	49066.99
603.47	48659.74
603.62	48823.58
603.78	48765.06
603.94	48608.25
604.09	48945.28
604.25	48701.87
604.40	48182.27
604.56	48835.28
604.71	48739.32
604.87	48381.21
605.03	48212.70
605.18	48428.02
605.34	48519.31
605.49	48460.79
605.65	48690.16
605.80	48409.30
605.96	48722.93
606.12	48474.84
606.27	48460.79
606.43	48203.33
606.58	48507.60
606.74	48500.58
606.89	48453.77
607.05	48744.00
607.20	48765.06
607.36	48446.75
607.51	48362.49
607.67	48662.08
607.82	48514.62
607.98	48720.59
608.13	48193.97
608.29	48023.11
608.44	48596.54
608.60	48034.81
608.75	48332.06
608.91	48112.05
609.06	48261.85
609.22	48388.24
609.37	48231.42
609.53	48500.58
609.68	48296.95
609.84	48318.02
609.99	48334.40
610.15	48563.78
610.30	48327.38
610.46	48367.17
610.61	48322.70
610.76	48552.07
610.92	47852.25
611.07	48350.79
611.23	48175.25
611.38	47992.68
611.54	48294.61
611.69	48411.64
611.84	48423.34
612.00	48098.01
612.15	47784.38
612.31	48062.90
612.46	47950.56
612.62	47992.68
612.77	47952.90
612.92	48339.08
613.08	48198.65
613.23	47997.37
613.39	47969.28
613.54	47662.67
613.69	48121.41
613.85	48200.99
614.00	48013.75
614.15	48257.17
614.31	47655.65
614.46	47569.05
614.62	47838.21
614.77	47636.92
614.92	47828.85
615.08	48020.77
615.23	48062.90
615.38	48369.51
615.54	47971.62
615.69	47992.68
615.84	47683.73
616.00	48119.07
616.15	48037.16
616.30	48016.09
616.46	47789.06
616.61	47594.79
616.76	47693.10
616.92	47887.36
617.07	47559.69
617.22	47648.63
617.37	47297.55
617.53	47510.53
617.68	47533.94
617.83	47435.64
617.99	47627.56
618.14	47562.03
618.29	47449.68
618.45	47360.74
618.60	47779.70
618.75	46906.68
618.90	47323.29
619.06	47730.54
619.21	47299.89
619.36	47620.54
619.51	47337.33
619.67	47299.89
619.82	47447.34
619.97	47571.39
620.12	46649.22
620.28	47026.04
620.43	47878.00
620.58	47393.51
620.73	47608.84
620.89	47533.94
621.04	47047.11
621.19	47402.87
621.34	47297.55
621.49	46944.12
621.65	47028.38
621.80	47304.57
621.95	47470.75
622.10	47288.18
622.25	47196.90
622.41	47306.91
622.56	46703.05
622.71	47290.52
622.86	47089.24
623.01	47323.29
623.16	46607.09
623.32	46859.87
623.47	46831.78
623.62	46600.07
623.77	46843.48
623.92	47002.64
624.07	46997.96
624.23	47262.44
624.38	47096.26
624.53	46581.34
624.68	46422.19
624.83	46684.33
624.98	46930.08
625.13	46560.28
625.29	46471.34
625.44	46480.70
625.59	46564.96
625.74	46768.58
625.89	46291.12
626.04	46321.54
626.19	46656.24
626.34	46204.52
626.49	46019.61
626.65	45914.29
626.80	46330.90
626.95	46124.94
627.10	45897.91
627.25	46295.80
627.40	46361.33
627.55	46279.41
627.70	46387.08
627.85	46604.75
628.00	46862.21
628.15	46387.08
628.30	45982.16
628.45	45757.47
628.60	45631.08
628.76	46094.51
628.91	45909.61
629.06	45591.30
629.21	45675.55
629.36	45766.84
629.51	45759.81
629.66	45750.45
629.81	45989.19
629.96	46099.19
630.11	45968.12
630.26	46211.54
630.41	46131.96
630.56	45687.26
630.71	45755.13
630.86	45783.22
631.01	45605.34
631.16	45492.99
631.31	45619.38
631.46	45705.98
631.61	45923.65
631.76	45429.80
631.91	45720.02
632.06	45900.25
632.21	45780.88
632.36	45869.82
632.51	45001.48
632.66	46040.68
632.81	45298.73
632.96	45579.59
633.10	45251.92
633.25	45230.85
633.40	45553.85
633.55	45612.36
633.70	45460.23
633.85	45352.56
634.00	45193.40
634.15	45062.33
634.30	44875.09
634.45	45017.86
634.60	45656.83
634.75	45411.07
634.90	44961.69
635.05	45111.49
635.19	45141.91
635.34	45092.76
635.49	44739.34
635.64	45352.56
635.79	44933.60
635.94	45244.90
636.09	45048.29
636.24	45006.16
636.39	45170.00
636.53	45172.34
636.68	44596.57
636.83	44481.88
636.98	44601.25
637.13	44285.28
637.28	44376.56
637.43	44720.62
637.57	44891.48
637.72	44641.04
637.87	44694.87
638.02	44666.78
638.17	44645.72
638.32	44568.48
638.46	44240.81
638.61	43892.07
638.76	44271.23
638.91	44135.48
639.06	44091.01
639.20	44369.54
639.35	44273.57
639.50	44046.54
639.65	44285.28
639.80	44526.35
639.94	44135.48
640.09	44215.06
640.24	44327.41
640.39	44144.84
640.54	43835.89
640.68	43803.13
640.83	44264.21
640.98	43744.61
641.13	43894.41
641.27	44151.87
641.42	44135.48
641.57	43995.05
641.72	44083.99
641.86	43901.43
642.01	43753.97
642.16	43742.27
642.31	43430.98
642.45	44032.50
642.60	43189.91
642.75	43435.66
642.90	43674.40
643.04	43894.41
643.19	43779.72
643.34	43676.74
643.48	43330.34
643.63	43409.92
643.78	43459.07
643.93	43768.02
644.07	43901.43
644.22	43697.80
644.37	43491.83
644.51	43606.52
644.66	43388.85
644.81	43154.80
644.95	43704.82
645.10	43449.70
645.25	43009.68
645.39	43213.31
645.54	43206.29
645.69	43386.51
645.83	42763.93
645.98	43517.58
646.13	42962.87
646.27	43377.15
646.42	43002.66
646.57	43056.50
646.71	43461.41
646.86	43456.73
647.00	43079.90
647.15	43388.85
647.30	43129.05
647.44	43243.74
647.59	43058.84
647.74	42862.23
647.88	43426.30
648.03	42892.66
648.17	43498.86
648.32	43000.32
648.47	43019.05
648.61	42953.51
648.76	43274.16
648.90	42244.33
649.05	42721.80
649.20	43033.09
649.34	42754.57
649.49	43105.65
649.63	42689.03
649.78	42574.34
649.92	42564.98
650.07	43016.71
650.21	43220.33
650.36	42829.46
650.51	42363.70
650.65	42674.99
650.80	43117.35
650.94	42351.99
651.09	42705.41
651.23	41984.53
651.38	42316.89
651.52	42251.35
651.67	42258.37
651.81	41858.14
651.96	41979.85
652.10	41963.46
652.25	42316.89
652.39	41823.03
652.54	42181.13
652.68	41769.20
652.83	42010.28
652.97	42195.18
653.12	42436.25
653.26	42141.35
653.41	42127.30
653.55	42071.13
653.70	41982.19
653.84	42241.99
653.99	41951.76
654.13	42347.31
654.27	42328.59
654.42	42314.55
654.56	41516.42
654.71	42052.41
654.85	41769.20
655.00	41993.89
655.14	42237.31
655.29	42150.71
655.43	42199.86
655.57	41708.35
655.72	41605.36
655.86	41703.67
656.01	41125.55
656.15	41282.37
656.30	41638.13
656.44	41577.28
656.58	41368.97
656.73	41315.14
656.87	41153.64
657.01	41338.54
657.16	41511.74
657.30	41383.01
657.45	41237.90
657.59	41214.49
657.73	40832.99
657.88	40669.15
658.02	41193.43
658.16	41652.17
658.31	41074.06
658.45	41017.89
658.60	40847.03
658.74	40954.69
658.88	41357.27
659.03	41001.50
659.17	40584.89
659.31	40891.50
659.46	40722.98
659.60	41102.15
659.74	40554.46
659.89	40282.96
660.03	40697.24
660.17	40769.79
660.32	40725.32
660.46	40659.79
660.60	40119.12
660.74	40701.92
660.89	40390.62
661.03	39885.07
661.17	40259.55
661.32	39931.88
661.46	40060.61
661.60	40201.04
661.74	39873.37
661.89	40034.86
662.03	39990.39
662.17	39674.42
662.31	39796.13
662.46	40088.70
662.60	39503.56
662.74	39557.39
662.88	39594.84
663.03	39276.53
663.17	39241.42
663.31	39014.39
663.45	39667.40
663.60	39571.44
663.74	39203.97
663.88	39253.12
664.02	38703.10
664.17	39594.84
664.31	39529.31
664.45	38504.15
664.59	38698.42
664.73	39079.92
664.88	39171.21
665.02	38642.24
665.16	38976.94
665.30	38785.02
665.44	38806.08
665.59	38246.69
665.73	38501.81
665.87	38031.36
666.01	38780.34
666.15	38267.76
666.29	38199.88
666.44	38443.30
666.58	38326.27
666.72	37982.21
666.86	37867.53
667.00	38167.12
667.14	37968.17
667.28	38197.54
667.43	37633.47
667.57	37968.17
667.71	37858.17
667.85	38012.64
667.99	38141.37
668.13	37839.44
668.27	37258.99
668.41	37071.75
668.56	37312.82
668.70	37008.55
668.84	36769.82
668.98	37109.19
669.12	37099.83
669.26	37132.60
669.40	37214.52
669.54	36694.92
669.68	37144.30
669.82	37268.35
669.96	36872.80
670.10	36259.58
670.25	36706.62
670.39	36154.26
670.53	36898.55
670.67	36549.81
670.81	36795.56
670.95	36484.27
671.09	36116.81
671.23	35952.97
671.37	36142.55
671.51	35725.94
671.65	36126.17
671.79	35786.79
671.93	36112.13
672.07	36055.95
672.21	35674.45
672.35	35253.15
672.49	35763.39
672.63	35817.22
672.77	35412.31
672.91	35452.09
673.05	35477.84
673.19	35091.65
673.33	34976.97
673.47	35051.86
673.61	34934.84
673.75	34604.82
673.89	34817.81
674.03	34213.95
674.17	34534.60
674.31	34330.98
674.45	34768.66
674.59	34368.43
674.73	34415.24
674.87	33897.98
675.01	33883.94
675.15	33659.24
675.29	33544.56
675.43	33956.49
675.56	34253.74
675.70	33516.47
675.84	33312.84
675.98	32563.87
676.12	33354.97
676.26	33560.94
676.40	33558.60
676.54	32795.59
676.68	32746.44
676.82	32371.95
676.96	32940.70
677.10	32926.66
677.23	32802.61
677.37	32912.61
677.51	32708.99
677.65	32547.49
677.79	32196.41
677.93	32545.15
678.07	32627.07
678.21	31740.00
678.34	31501.27
678.48	31510.63
678.62	31246.15
678.76	31594.89
678.90	31384.24
679.04	31084.65
679.18	32006.83
679.31	31367.86
679.45	31091.68
679.59	31065.93
679.73	31180.62
679.87	30686.76
680.00	31007.42
680.14	30602.50
680.28	30689.10
680.42	30810.81
680.56	30508.88
680.70	30143.76
680.83	30108.65
680.97	30469.09
681.11	30043.12
681.25	29804.38
681.39	29495.43
681.52	29792.68
681.66	29394.79
681.80	28922.00
681.94	29034.35
682.07	29340.96
682.21	28896.25
682.35	29125.63
682.49	28922.00
682.62	28793.27
682.76	28774.55
682.90	28720.71
683.04	28343.89
683.17	28701.99
683.31	28652.84
683.45	28383.68
683.59	28060.68
683.72	27861.74
683.86	28170.69
684.00	27725.99
684.13	28123.88
684.27	27892.16
684.41	27594.92
684.55	27693.22
684.68	27185.32
684.82	27274.26
684.96	27569.17
685.09	27534.06
685.23	27475.55
685.37	27513.00
685.50	27370.22
685.64	27154.90
685.78	27075.32
685.91	26663.38
686.05	26251.45
686.19	26162.51
686.32	26230.38
686.46	25790.36
686.60	25736.53
686.73	26298.26
686.87	25855.90
687.01	25940.16
687.14	25811.43
687.28	25757.60
687.42	25926.11
687.55	25614.82
687.69	25312.89
687.82	25123.31
687.96	25156.08
688.10	25355.02
688.23	24870.53
688.37	25429.92
688.50	25149.06
688.64	25057.78
688.78	24879.89
688.91	24453.92
689.05	24615.41
689.18	24032.62
689.32	23838.36
689.46	24013.90
689.59	23878.15
689.73	24322.85
689.86	24112.20
690.00	24051.34
690.13	24013.90
690.27	23550.47
690.41	23665.16
690.54	23396.00
690.68	23159.60
690.81	23278.97
690.95	23040.23
691.08	23082.36
691.22	22927.89
691.35	23054.28
691.49	22782.77
691.62	22852.99
691.76	22508.93
691.89	22370.84
692.03	22078.27
692.16	22141.47
692.30	22324.03
692.43	22050.19
692.57	22029.12
692.70	21954.22
692.84	21961.25
692.97	21350.37
693.11	21755.28
693.24	21291.85
693.38	21238.02
693.51	21509.52
693.65	21277.81
693.78	21062.48
693.92	20547.56
694.05	21099.93
694.19	20776.94
694.32	20608.42
694.45	20994.61
694.59	20863.54
694.72	20769.91
694.86	20863.54
694.99	20276.06
695.13	20142.65
695.26	20240.95
695.39	19906.26
695.53	19763.48
695.66	19922.64
695.80	19922.64
695.93	19782.21
696.07	19304.74
696.20	19208.78
696.33	19009.83
696.47	19414.74
696.60	19391.34
696.73	19075.37
696.87	19187.71
697.00	19098.77
697.14	18672.79
697.27	18714.92
697.40	18719.60
697.54	18724.29
697.67	18562.79
697.80	18782.80
697.94	18473.85
698.07	18466.83
698.21	18092.34
698.34	18061.91
698.47	17991.70
698.61	17664.02
698.74	17809.14
698.87	17750.62
699.01	17507.21
699.14	17671.04
699.27	17254.43
699.40	17493.16
699.54	17331.67
699.67	17338.69
699.80	17493.16
699.94	16669.30
700.07	17144.42
700.20	16968.88
700.34	16755.90
700.47	16929.09
700.60	16940.80
700.73	16751.21
700.87	16482.05
701.00	16507.80
701.13	16585.04
701.26	16257.36
701.40	16470.35
701.53	16109.91
701.66	16222.25
701.79	16088.84
701.93	15948.41
702.06	15749.46
702.19	15721.38
702.32	15627.76
702.46	15845.43
702.59	15777.55
702.72	15714.36
702.85	15665.21
702.99	15379.66
703.12	15857.13
703.25	15061.35
703.38	14913.89
703.51	14906.87
703.65	14977.09
703.78	14654.09
703.91	14499.62
704.04	14497.28
704.17	14757.08
704.31	14490.26
704.44	14415.36
704.57	14623.67
704.70	14415.36
704.83	14274.93
704.96	14277.27
705.10	14094.71
705.23	14127.47
>>>>>End Processed Spectral Data<<<<<
