SpectraSuite Data File
++++++++++++++++++++++++++++++++++++
Date: Fri Oct 25 11:33:16 EDT 2013
User: price-jones
Dark Spectrum Present: No
Reference Spectrum Present: No
Number of Sampled Component Spectra: 1
Spectrometers: USB2+H05261
Integration Time (usec): 100000 (USB2+H05261)
Spectra Averaged: 1 (USB2+H05261)
Boxcar Smoothing: 0 (USB2+H05261)
Correct for Electrical Dark: No (USB2+H05261)
Strobe/Lamp Enabled: No (USB2+H05261)
Correct for Detector Non-linearity: No (USB2+H05261)
Correct for Stray Light: No (USB2+H05261)
Number of Pixels in Processed Spectrum: 2048
>>>>>Begin Processed Spectral Data<<<<<
365.73	283.20
365.92	283.20
366.12	283.20
366.32	222.35
366.52	182.56
366.72	210.65
366.91	149.79
367.11	189.58
367.31	175.54
367.51	180.22
367.70	236.39
367.90	154.48
368.10	191.92
368.30	210.65
368.49	187.24
368.69	210.65
368.89	208.31
369.09	210.65
369.28	182.56
369.48	201.29
369.68	262.14
369.87	177.88
370.07	203.63
370.27	271.50
370.47	276.18
370.66	454.06
370.86	477.47
371.06	552.37
371.25	596.84
371.45	491.51
371.65	475.13
371.84	540.66
372.04	514.92
372.24	547.69
372.44	564.07
372.63	620.24
372.83	599.18
373.03	657.69
373.22	589.82
373.42	662.37
373.62	629.60
373.81	547.69
374.01	613.22
374.21	734.93
374.40	643.65
374.60	641.31
374.79	603.86
374.99	568.75
375.19	610.88
375.38	664.71
375.58	692.80
375.78	690.46
375.97	692.80
376.17	713.86
376.37	624.92
376.56	648.33
376.76	641.31
376.95	678.76
377.15	702.16
377.35	650.67
377.54	681.10
377.74	645.99
377.93	727.91
378.13	741.95
378.33	791.10
378.52	723.23
378.72	725.57
378.91	739.61
379.11	777.06
379.31	697.48
379.50	716.20
379.70	727.91
379.89	730.25
380.09	765.36
380.28	667.05
380.48	788.76
380.68	720.88
380.87	716.20
381.07	814.51
381.26	737.27
381.46	755.99
381.65	823.87
381.85	842.59
382.04	774.72
382.24	826.21
382.43	812.17
382.63	774.72
382.83	777.06
383.02	828.55
383.22	866.00
383.41	741.95
383.61	814.51
383.80	814.51
384.00	805.14
384.19	873.02
384.39	830.89
384.58	744.29
384.78	842.59
384.97	800.46
385.17	798.12
385.36	800.46
385.56	777.06
385.75	844.93
385.95	985.37
386.14	816.85
386.34	816.85
386.53	772.38
386.72	887.06
386.92	950.26
387.11	849.61
387.31	905.79
387.50	933.87
387.70	844.93
387.89	858.98
388.09	931.53
388.28	873.02
388.48	880.04
388.67	875.36
388.86	877.70
389.06	992.39
389.25	952.60
389.45	980.68
389.64	980.68
389.84	1029.84
390.03	976.00
390.22	964.30
390.42	896.43
390.61	915.15
390.81	1013.45
391.00	978.34
391.19	1057.92
391.39	1027.50
391.58	1039.20
391.78	994.73
391.97	1011.11
392.16	931.53
392.36	1032.18
392.55	1013.45
392.75	1088.35
392.94	1067.28
393.13	1032.18
393.33	1013.45
393.52	1116.44
393.71	1013.45
393.91	1083.67
394.10	1060.26
394.29	1060.26
394.49	1071.97
394.68	1144.52
394.88	1088.35
395.07	1109.41
395.26	1177.29
395.46	1132.82
395.65	1217.08
395.84	1210.06
396.04	1226.44
396.23	1142.18
396.42	1144.52
396.62	1177.29
396.81	1221.76
397.00	1217.08
397.19	1289.64
397.39	1212.40
397.58	1228.78
397.77	1254.53
397.97	1203.04
398.16	1214.74
398.35	1338.79
398.55	1193.67
398.74	1219.42
398.93	1364.53
399.12	1341.13
399.32	1329.42
399.51	1280.27
399.70	1277.93
399.90	1254.53
400.09	1432.41
400.28	1387.94
400.47	1404.32
400.67	1409.00
400.86	1411.34
401.05	1359.85
401.24	1507.30
401.44	1441.77
401.63	1591.56
401.82	1371.55
402.01	1416.02
402.21	1500.28
402.40	1516.67
402.59	1533.05
402.78	1509.65
402.97	1565.82
403.17	1526.03
403.36	1638.38
403.55	1619.65
403.74	1607.95
403.93	1664.12
404.13	1664.12
404.32	1549.43
404.51	1631.35
404.70	1682.85
404.89	1643.06
405.09	1680.50
405.28	1668.80
405.47	1689.87
405.66	1682.85
405.85	1832.64
406.05	1710.93
406.24	1816.26
406.43	1813.92
406.62	1785.83
406.81	1802.21
407.00	1785.83
407.20	1727.32
407.39	1778.81
407.58	1954.35
407.77	1888.81
407.96	1888.81
408.15	1893.49
408.34	1926.26
408.54	1926.26
408.73	1928.60
408.92	1914.56
409.11	1940.30
409.30	2022.22
409.49	2003.50
409.68	1982.43
409.87	1998.82
410.07	2010.52
410.26	2026.90
410.45	2141.59
410.64	2015.20
410.83	2120.53
411.02	2193.08
411.21	2129.89
411.40	2167.34
411.59	2265.64
411.78	2179.04
411.98	2242.23
412.17	2347.56
412.36	2298.41
412.55	2333.51
412.74	2396.71
412.93	2417.77
413.12	2368.62
413.31	2424.80
413.50	2415.43
413.69	2347.56
413.88	2459.90
414.07	2385.01
414.26	2434.16
414.45	2516.08
414.64	2487.99
414.83	2619.06
415.02	2590.97
415.22	2654.17
415.41	2691.62
415.60	2703.32
415.79	2619.06
415.98	2712.68
416.17	2857.79
416.36	2684.59
416.55	2752.47
416.74	2874.18
416.93	2726.72
417.12	2857.79
417.31	2885.88
417.50	2892.90
417.69	2970.14
417.88	2888.22
418.07	2818.00
418.26	2960.78
418.45	3033.33
418.64	3077.80
418.83	3023.97
419.02	3070.78
419.21	3197.17
419.39	3180.79
419.58	3089.51
419.77	3094.19
419.96	3194.83
420.15	3227.60
420.34	3248.66
420.53	3180.79
420.72	3346.97
420.91	3190.15
421.10	3260.37
421.29	3330.58
421.48	3197.17
421.67	3243.98
421.86	3342.28
422.05	3307.18
422.24	3281.43
422.43	3368.03
422.61	3421.86
422.80	3452.29
422.99	3342.28
423.18	3473.36
423.37	3471.01
423.56	3391.44
423.75	3407.82
423.94	3365.69
424.13	3176.11
424.32	3386.76
424.50	3522.51
424.69	3644.21
424.88	3468.67
425.07	3473.36
425.26	3379.73
425.45	3328.24
425.64	3508.46
425.83	3555.27
426.01	3576.34
426.20	3473.36
426.39	3597.40
426.58	3562.30
426.77	3524.85
426.96	3468.67
427.15	3552.93
427.33	3609.11
427.52	3548.25
427.71	3662.94
427.90	3648.90
428.09	3517.83
428.28	3712.09
428.46	3674.64
428.65	3653.58
428.84	3777.62
429.03	3950.82
429.22	3721.45
429.40	3824.44
429.59	3927.42
429.78	3756.56
429.97	3698.05
430.16	3667.62
430.34	3878.27
430.53	3892.31
430.72	3831.46
430.91	3988.27
431.10	3899.33
431.28	3957.85
431.47	4002.32
431.66	4145.09
431.85	3934.44
432.03	4105.30
432.22	4067.85
432.41	4077.21
432.60	4154.45
432.79	4198.92
432.97	4208.28
433.16	4182.54
433.35	4215.30
433.54	4191.90
433.72	4142.75
433.91	4365.10
434.10	4278.50
434.28	4227.01
434.47	4353.40
434.66	4266.80
434.85	4365.10
435.03	4365.10
435.22	4369.78
435.41	4472.76
435.59	4346.37
435.78	4449.36
435.97	4472.76
436.16	4402.55
436.34	4369.78
436.53	4486.81
436.72	4629.58
436.90	4423.61
437.09	4594.47
437.28	4484.47
437.46	4599.15
437.65	4573.41
437.84	4610.86
438.02	4624.90
438.21	4645.96
438.40	4561.70
438.58	4777.03
438.77	4755.97
438.96	4723.20
439.14	4910.44
439.33	4870.65
439.52	4933.85
439.70	4868.31
439.89	5095.35
440.08	5142.16
440.26	5081.30
440.45	5062.58
440.63	5179.61
440.82	5287.27
441.01	5153.86
441.19	5186.63
441.38	5289.61
441.57	5322.38
441.75	5261.52
441.94	5355.15
442.12	5444.09
442.31	5399.62
442.50	5444.09
442.68	5416.00
442.87	5530.69
443.05	5600.90
443.24	5678.14
443.43	5682.82
443.61	5589.20
443.80	5858.36
443.98	5437.06
444.17	5289.61
444.35	5591.54
444.54	5755.38
444.73	5589.20
444.91	5654.73
445.10	5809.21
445.28	5746.02
445.47	5715.59
445.65	5528.35
445.84	5645.37
446.02	5844.32
446.21	5692.18
446.39	5593.88
446.58	5738.99
446.77	5678.14
446.95	5760.06
447.14	5839.64
447.32	5621.97
447.51	5692.18
447.69	5638.35
447.88	5804.53
448.06	5703.89
448.25	5834.96
448.43	5944.96
448.62	5720.27
448.80	5830.27
448.99	5884.11
449.17	5853.68
449.36	5823.25
449.54	5966.03
449.73	6132.20
449.91	6064.33
450.10	5989.43
450.28	6157.95
450.46	6092.41
450.65	6174.33
450.83	6122.84
451.02	6216.46
451.20	6260.93
451.39	5989.43
451.57	6132.20
451.76	6263.27
451.94	6487.96
452.13	6331.15
452.31	6380.30
452.49	6228.17
452.68	6457.54
452.86	6258.59
453.05	6340.51
453.23	6523.07
453.42	6431.79
453.60	6377.96
453.78	6532.44
453.97	6356.90
454.15	6282.00
454.34	6525.41
454.52	6429.45
454.70	6600.31
454.89	6719.68
455.07	6609.67
455.26	6853.09
455.44	6771.17
455.62	6787.55
455.81	6726.70
455.99	6679.89
456.17	6703.29
456.36	6822.66
456.54	6899.90
456.73	7028.63
456.91	7040.33
457.09	7105.87
457.28	7241.62
457.46	7112.89
457.64	7143.32
457.83	7138.63
458.01	7063.74
458.19	7295.45
458.38	7222.89
458.56	7379.71
458.74	7250.98
458.93	7190.13
459.11	7393.75
459.29	7309.49
459.48	7274.38
459.66	7363.33
459.84	7297.79
460.03	7609.08
460.21	7389.07
460.39	7559.93
460.57	7569.29
460.76	7499.08
460.94	7496.74
461.12	7391.41
461.31	7625.47
461.49	7651.21
461.67	7613.76
461.85	7850.16
462.04	7744.83
462.22	8140.38
462.40	7751.85
462.59	7793.98
462.77	7801.01
462.95	7981.23
463.13	7812.71
463.32	7918.03
463.50	8063.15
463.68	8053.78
463.86	8128.68
464.05	7988.25
464.23	7911.01
464.41	7971.86
464.59	7836.11
464.78	8145.06
464.96	7985.91
465.14	8128.68
465.32	8180.17
465.50	8170.81
465.69	8341.67
465.87	8180.17
466.05	8222.30
466.23	8250.39
466.41	8065.49
466.60	8241.03
466.78	8292.52
466.96	8145.06
467.14	8390.82
467.32	8493.80
467.51	8547.64
467.69	8250.39
467.87	8126.34
468.05	8297.20
468.23	8351.03
468.41	8439.97
468.60	8421.25
468.78	8425.93
468.96	8500.83
469.14	8695.09
469.32	8573.38
469.50	8741.90
469.69	8767.65
469.87	8798.07
470.05	8758.28
470.23	9004.04
470.41	8908.08
470.59	8837.86
470.77	8889.35
470.95	8875.31
471.14	9074.26
471.32	8898.72
471.50	9177.24
471.68	9184.26
471.86	8971.27
472.04	9301.29
472.22	9504.92
472.40	9177.24
472.58	9254.48
472.77	9359.80
472.95	9554.07
473.13	9717.90
473.31	9624.28
473.49	9645.35
473.67	9469.81
473.85	9605.56
474.03	9809.19
474.21	9856.00
474.39	9928.55
474.57	9738.97
474.75	10129.84
474.93	10087.71
475.12	9760.03
475.30	10207.08
475.48	9954.30
475.66	10059.62
475.84	10115.80
476.02	10389.64
476.20	10368.57
476.38	10504.32
476.56	10710.29
476.74	10544.11
476.92	10670.50
477.10	10567.52
477.28	10930.30
477.46	10726.68
477.64	10724.33
477.82	10981.79
478.00	11351.60
478.18	11082.44
478.36	11080.10
478.54	11346.92
478.72	11400.75
478.90	11637.14
479.08	11698.00
479.26	11936.73
479.44	11786.94
479.62	11852.47
479.80	11960.14
479.98	12112.27
480.16	12283.13
480.34	12198.87
480.52	12484.42
480.70	12358.03
480.88	12360.37
481.06	12362.71
481.24	12390.80
481.41	12702.09
481.59	12933.80
481.77	12898.69
481.95	13057.85
482.13	13102.32
482.31	12894.01
482.49	13355.10
482.67	13434.68
482.85	13462.76
483.03	13652.34
483.21	13696.82
483.39	13839.59
483.57	14026.83
483.74	14090.02
483.92	14281.95
484.10	14139.18
484.28	14363.87
484.46	14654.09
484.64	15005.17
484.82	14398.98
485.00	14604.94
485.18	14874.10
485.35	15323.49
485.53	15096.46
485.71	15250.93
485.89	15634.78
486.07	15484.98
486.25	15454.56
486.43	15712.02
486.61	15545.84
486.78	16189.49
486.96	16208.21
487.14	16180.12
487.32	16376.73
487.50	16435.24
487.68	16507.80
487.85	16758.24
488.03	16758.24
488.21	17406.56
488.39	16996.97
488.57	17324.65
488.75	17273.15
488.92	17781.05
489.10	17600.83
489.28	17954.25
489.46	18139.15
489.64	17977.65
489.81	18064.25
489.99	18401.29
490.17	18429.38
490.35	18518.32
490.53	18611.94
490.70	18616.62
490.88	18745.35
491.06	19019.19
491.24	18717.26
491.41	19105.79
491.59	19353.89
491.77	19293.04
491.95	19433.47
492.13	19620.71
492.30	19943.70
492.48	19829.02
492.66	19992.86
492.84	19866.47
493.01	20203.50
493.19	20350.96
493.37	20489.05
493.54	20283.08
493.72	21006.31
493.90	21010.99
494.08	20992.26
494.25	20978.22
494.43	21057.80
494.61	21441.65
494.79	21153.76
494.96	21500.16
495.14	21865.28
495.32	22106.36
495.49	21886.35
495.67	21963.59
495.85	22017.42
496.02	22246.79
496.20	22630.64
496.38	22689.15
496.55	22656.39
496.73	23136.20
496.91	22820.22
497.09	22998.10
497.26	23578.56
497.44	22686.81
497.62	23143.22
497.79	23655.79
497.97	23328.12
498.14	23899.21
498.32	23824.31
498.50	24049.00
498.67	24002.19
498.85	23836.02
499.03	24016.24
499.20	24463.28
499.38	24538.18
499.56	24589.67
499.73	24627.12
499.91	24854.15
500.08	25057.78
500.26	24519.45
500.44	24779.25
500.61	25116.29
500.79	24812.02
500.97	25441.62
501.14	25497.80
501.32	25570.35
501.49	25572.69
501.67	25425.24
501.84	26087.61
502.02	25834.83
502.20	26040.80
502.37	26150.81
502.55	26057.18
502.72	25788.02
502.90	26312.30
503.07	26284.22
503.25	26157.83
503.43	26331.03
503.60	26630.62
503.78	27014.46
503.95	26579.12
504.13	26527.63
504.30	26817.86
504.48	26841.26
504.65	26944.25
504.83	27496.61
505.01	27365.54
505.18	27323.41
505.36	27562.15
505.53	27578.53
505.71	27594.92
505.88	27681.52
506.06	27651.09
506.23	27807.90
506.41	27597.26
506.58	28041.96
506.76	28233.88
506.93	28182.39
507.11	28208.14
507.28	28259.63
507.46	28505.38
507.63	28065.36
507.81	28676.24
507.98	28355.59
508.16	28811.99
508.33	28816.68
508.50	28865.83
508.68	28673.90
508.85	29043.71
509.03	29088.18
509.20	29493.09
509.38	29647.57
509.55	29432.24
509.73	29481.39
509.90	29748.21
510.08	29619.48
510.25	29680.33
510.42	29457.98
510.60	30075.88
510.77	30003.33
510.95	30483.14
511.12	29778.64
511.30	30120.35
511.47	30218.66
511.64	30361.43
511.82	30494.84
511.99	30340.36
512.17	30913.80
512.34	30583.78
512.51	30733.57
512.69	31503.61
512.86	31061.25
513.04	31056.57
513.21	31077.63
513.38	31517.65
513.56	31119.76
513.73	31267.22
513.90	31363.18
514.08	31145.51
514.25	31541.06
514.43	31889.80
514.60	31714.26
514.77	32023.21
514.95	32247.90
515.12	32301.73
515.29	31889.80
515.47	32313.44
515.64	32718.35
515.81	32114.49
515.99	32788.56
516.16	32449.19
516.33	32336.84
516.51	32486.64
516.68	32624.73
516.85	33146.67
517.03	32748.78
517.20	33233.27
517.37	32919.63
517.54	32938.36
517.72	33263.69
517.89	32978.15
518.06	33104.54
518.24	33296.46
518.41	33565.62
518.58	33483.70
518.75	33516.47
518.93	33376.04
519.10	33729.46
519.27	33631.16
519.45	33577.33
519.62	33991.60
519.79	34457.37
519.96	34064.16
520.14	34171.82
520.31	34047.77
520.48	34534.60
520.65	34141.39
520.83	34548.65
521.00	34572.05
521.17	34983.99
521.34	34494.82
521.52	34646.95
521.69	34539.29
521.86	34967.60
522.03	35091.65
522.20	34960.58
522.38	35360.81
522.55	35328.05
522.72	35014.41
522.89	35346.77
523.07	36004.46
523.24	35215.70
523.41	35629.98
523.58	35295.28
523.75	36079.36
523.92	35857.01
524.10	35957.65
524.27	35831.26
524.44	36142.55
524.61	36175.32
524.78	35901.48
524.96	36322.77
525.13	36589.59
525.30	36573.21
525.47	36121.49
525.64	35875.73
525.81	36374.27
525.98	36751.09
526.16	36449.16
526.33	36825.99
526.50	37235.58
526.67	36847.05
526.84	36311.07
527.01	36863.44
527.18	37088.13
527.36	37118.56
527.53	37209.84
527.70	37469.64
527.87	37528.15
528.04	37141.96
528.21	37303.46
528.38	37598.37
528.55	37326.86
528.72	37766.88
528.89	37649.86
529.07	37837.10
529.24	37902.64
529.41	37689.65
529.58	37652.20
529.75	37598.37
529.92	37935.40
530.09	37926.04
530.26	37998.60
530.43	38298.19
530.60	37776.25
530.77	38110.94
530.94	38211.59
531.11	37923.70
531.28	38291.16
531.46	38054.77
531.63	38410.53
531.80	38553.30
531.97	38602.46
532.14	38684.37
532.31	38644.59
532.48	38855.23
532.65	39049.50
532.82	38944.17
532.99	39147.80
533.16	38623.52
533.33	38501.81
533.50	38780.34
533.67	39377.17
533.84	39086.95
534.01	39117.37
534.18	39143.12
534.35	39576.12
534.52	39522.29
534.69	40055.93
534.86	40020.82
535.03	39388.88
535.20	39505.90
535.37	39828.90
535.54	39864.00
535.71	39299.94
535.88	39962.31
536.05	39793.79
536.22	40187.00
536.38	40151.89
536.55	39840.60
536.72	39707.19
536.89	39751.66
537.06	40243.17
537.23	40561.48
537.40	40074.65
537.57	40421.05
537.74	40030.18
537.91	40559.14
538.08	40652.76
538.25	40107.42
538.42	40517.01
538.59	41003.85
538.75	40257.21
538.92	40818.94
539.09	41106.83
539.26	40935.97
539.43	40865.75
539.60	40779.15
539.77	40828.30
539.94	40926.61
540.11	41160.66
540.28	40837.67
540.44	40999.16
540.61	41064.70
540.78	41251.94
540.95	41329.18
541.12	40933.63
541.29	41163.00
541.46	41364.29
541.62	41462.59
541.79	41542.17
541.96	41413.44
542.13	41144.28
542.30	41605.36
542.47	41603.02
542.63	41855.80
542.80	41745.80
542.97	42326.25
543.14	42562.64
543.31	41904.95
543.48	41736.43
543.64	42588.39
543.81	42286.46
543.98	42417.53
544.15	42616.47
544.32	42689.03
544.48	42990.96
544.65	42679.67
544.82	42639.88
544.99	42241.99
545.16	42579.03
545.32	42564.98
545.49	42747.54
545.66	43189.91
545.83	43122.03
546.00	43271.82
546.16	42689.03
546.33	42714.78
546.50	42567.32
546.67	43187.56
546.83	42525.19
547.00	42789.67
547.17	43353.74
547.34	43257.78
547.50	43548.01
547.67	43260.12
547.84	43203.95
548.00	43545.67
548.17	43854.62
548.34	43892.07
548.51	43639.29
548.67	43508.22
548.84	43725.89
549.01	43564.39
549.18	43217.99
549.34	43522.26
549.51	43948.24
549.68	43566.73
549.84	43360.76
550.01	43859.30
550.18	43751.63
550.34	44030.16
550.51	43889.73
550.68	44308.68
550.84	43997.39
551.01	44002.07
551.18	44238.47
551.34	43973.98
551.51	44100.37
551.68	44116.76
551.84	44175.27
552.01	44247.83
552.18	44191.65
552.34	44285.28
552.51	43737.59
552.68	44416.35
552.84	44304.00
553.01	44355.49
553.18	44474.86
553.34	44699.55
553.51	44521.67
553.67	44589.55
553.84	44910.20
554.01	44404.64
554.17	44481.88
554.34	44573.16
554.51	44872.75
554.67	45003.82
554.84	45272.98
555.00	44596.57
555.17	44734.66
555.33	45291.71
555.50	44521.67
555.67	44811.90
555.83	44896.16
556.00	45247.24
556.16	45476.61
556.33	45443.84
556.50	45757.47
556.66	45212.13
556.83	44957.01
556.99	45329.16
557.16	45930.67
557.32	45581.93
557.49	45542.14
557.65	45170.00
557.82	45593.64
557.98	45418.10
558.15	45366.60
558.32	45619.38
558.48	45469.59
558.65	45399.37
558.81	45668.53
558.98	45717.68
559.14	45029.57
559.31	45588.95
559.47	45326.81
559.64	45366.60
559.80	45530.44
559.97	46157.70
560.13	45504.70
560.30	45865.14
560.46	46127.28
560.63	46218.56
560.79	46082.81
560.96	46141.32
561.12	46330.90
561.29	45851.09
561.45	45921.31
561.61	46597.73
561.78	46134.30
561.94	46246.65
562.11	46007.91
562.27	46284.09
562.44	45970.46
562.60	45972.80
562.77	46358.99
562.93	46330.90
563.10	46401.12
563.26	46763.90
563.42	46508.79
563.59	46047.70
563.75	46241.96
563.92	46761.56
564.08	46167.07
564.24	46401.12
564.41	45965.78
564.57	46440.91
564.74	46621.13
564.90	46302.82
565.07	46588.36
565.23	46220.90
565.39	46373.03
565.56	46593.04
565.72	46621.13
565.88	46529.85
566.05	46986.25
566.21	46326.22
566.38	46579.00
566.54	46700.71
566.70	46731.14
566.87	46672.62
567.03	46377.72
567.19	46726.46
567.36	46412.82
567.52	46138.98
567.68	47147.75
567.85	46689.01
568.01	47070.51
568.17	46801.35
568.34	47201.58
568.50	46689.01
568.66	46754.54
568.83	46604.75
568.99	46911.36
569.15	46836.46
569.32	46887.95
569.48	46852.84
569.64	47201.58
569.81	46965.19
569.97	46906.68
570.13	47096.26
570.30	46621.13
570.46	46969.87
570.62	46815.40
570.78	47217.97
570.95	47459.04
571.11	47522.24
571.27	46782.63
571.43	46782.63
571.60	46941.78
571.76	46925.40
571.92	47224.99
572.09	46813.05
572.25	46642.20
572.41	47124.35
572.57	47192.22
572.74	47693.10
572.90	47356.06
573.06	47033.07
573.22	47065.83
573.38	47334.99
573.55	47494.15
573.71	47800.76
573.87	47482.45
574.03	47400.53
574.20	47838.21
574.36	46684.33
574.52	47650.97
574.68	46864.55
574.84	47512.88
575.01	47377.12
575.17	47185.20
575.33	47157.11
575.49	47105.62
575.65	47304.57
575.82	47660.33
575.98	47063.49
576.14	47442.66
576.30	47646.29
576.46	47533.94
576.62	47262.44
576.79	47150.09
576.95	47400.53
577.11	47093.92
577.27	47379.46
577.43	47625.22
577.59	47463.72
577.75	47199.24
577.92	47012.00
578.08	47365.42
578.24	47592.45
578.40	47611.18
578.56	47779.70
578.72	47203.92
578.88	47423.93
579.04	47711.82
579.21	47283.50
579.37	47351.38
579.53	47643.94
579.69	47131.37
579.85	47283.50
580.01	47449.68
580.17	47618.20
580.33	47758.63
580.49	47709.48
580.65	47744.59
580.82	47515.22
580.98	47192.22
581.14	47093.92
581.30	47929.49
581.46	47330.31
581.62	47515.22
581.78	47409.89
581.94	47646.29
582.10	47423.93
582.26	47746.93
582.42	47723.52
582.58	47578.41
582.74	47587.77
582.90	47784.38
583.06	47711.82
583.22	47545.64
583.38	47749.27
583.54	47697.78
583.70	47765.65
583.86	47852.25
584.02	47775.02
584.18	47597.13
584.34	47601.82
584.50	47608.84
584.66	48074.60
584.82	47957.58
584.98	47608.84
585.14	47758.63
585.30	47870.98
585.46	47686.07
585.62	47842.89
585.78	47983.32
585.94	47601.82
586.10	47353.72
586.26	47318.61
586.42	47501.17
586.58	47622.88
586.74	47885.02
586.90	47538.62
587.06	47765.65
587.22	47852.25
587.38	47777.36
587.54	47878.00
587.70	48053.54
587.86	48128.44
588.02	47643.94
588.18	47636.92
588.34	47650.97
588.49	47587.77
588.65	48006.73
588.81	47456.70
588.97	47934.17
589.13	47845.23
589.29	47777.36
589.45	47983.32
589.61	48289.93
589.77	47962.26
589.93	47725.86
590.08	48076.94
590.24	48198.65
590.40	48236.10
590.56	48669.10
590.72	48416.32
590.88	47835.87
591.04	48128.44
591.20	48193.97
591.35	48210.35
591.51	48362.49
591.67	48301.64
591.83	48357.81
591.99	48112.05
592.15	47997.37
592.31	48275.89
592.46	48413.98
592.62	48250.14
592.78	48612.93
592.94	48381.21
593.10	48521.65
593.26	48720.59
593.41	48837.62
593.57	48633.99
593.73	48715.91
593.89	48584.84
594.05	48648.03
594.20	48547.39
594.36	48655.06
594.52	48556.75
594.68	48486.54
594.84	48535.69
594.99	48629.31
595.15	48636.33
595.31	48589.52
595.47	48385.89
595.62	48477.18
595.78	48037.16
595.94	48556.75
596.10	48364.83
596.25	48650.38
596.41	48736.98
596.57	48683.14
596.73	48708.89
596.88	48341.42
597.04	48472.49
597.20	48921.88
597.36	48612.93
597.51	48619.95
597.67	48385.89
597.83	47859.27
597.99	48659.74
598.14	48247.80
598.30	48767.40
598.46	48631.65
598.61	48961.67
598.77	48659.74
598.93	48619.95
599.09	48481.86
599.24	48828.26
599.40	49076.35
599.56	48947.62
599.71	48713.57
599.87	49207.42
600.03	49076.35
600.18	48858.68
600.34	48790.81
600.50	48619.95
600.65	48502.92
600.81	48626.97
600.97	48811.87
601.12	48844.64
601.28	48425.68
601.44	48376.53
601.59	48636.33
601.75	48320.36
601.91	48884.43
602.06	48278.23
602.22	48832.94
602.37	48556.75
602.53	48912.52
602.69	49106.78
602.84	48528.67
603.00	48699.53
603.16	48641.01
603.31	48849.32
603.47	48563.78
603.62	48650.38
603.78	48566.12
603.94	48535.69
604.09	49013.16
604.25	48467.81
604.40	48444.41
604.56	48493.56
604.71	49144.23
604.87	48715.91
605.03	48519.31
605.18	48528.67
605.34	48612.93
605.49	48694.85
605.65	48758.04
605.80	48697.19
605.96	48481.86
606.12	48521.65
606.27	48837.62
606.43	48442.07
606.58	48671.44
606.74	48336.74
606.89	48521.65
607.05	48713.57
607.20	49130.19
607.36	48942.94
607.51	48430.36
607.67	48320.36
607.82	47976.30
607.98	48502.92
608.13	48552.07
608.29	48320.36
608.44	48264.19
608.60	48435.05
608.75	48479.52
608.91	48392.92
609.06	48467.81
609.22	48947.62
609.37	48395.26
609.53	48236.10
609.68	48177.59
609.84	48315.68
609.99	48795.49
610.15	48582.50
610.30	48421.00
610.46	48303.98
610.61	48327.38
610.76	48161.20
610.92	47978.64
611.07	48224.40
611.23	48236.10
611.38	48460.79
611.54	48058.22
611.69	48306.32
611.84	48531.01
612.00	48467.81
612.15	47957.58
612.31	48219.72
612.46	48144.82
612.62	48128.44
612.77	48018.43
612.92	48163.54
613.08	47840.55
613.23	48011.41
613.39	47941.19
613.54	47945.87
613.69	48523.99
613.85	48163.54
614.00	47819.49
614.15	48018.43
614.31	47372.44
614.46	48390.58
614.62	47772.67
614.77	47924.81
614.92	47980.98
615.08	47819.49
615.23	47657.99
615.38	47826.51
615.54	47852.25
615.69	47929.49
615.84	47693.10
616.00	48350.79
616.15	47655.65
616.30	47920.13
616.46	48044.18
616.61	47529.26
616.76	47973.96
616.92	47908.43
617.07	47547.98
617.22	47704.80
617.37	47445.00
617.53	47910.77
617.68	47805.44
617.83	47620.54
617.99	47442.66
618.14	47962.26
618.29	47796.08
618.45	47559.69
618.60	47725.86
618.75	47569.05
618.90	47393.51
619.06	47239.03
619.21	47133.71
619.36	47714.16
619.51	47545.64
619.67	47587.77
619.82	47840.55
619.97	47414.57
620.12	47377.12
620.28	47725.86
620.43	47330.31
620.58	47323.29
620.73	47370.10
620.89	47405.21
621.04	47681.39
621.19	47447.34
621.34	47372.44
621.49	47342.02
621.65	47180.52
621.80	47452.02
621.95	46930.08
622.10	47143.07
622.25	47016.68
622.41	47072.85
622.56	47246.05
622.71	47241.37
622.86	46937.10
623.01	47189.88
623.16	46480.70
623.32	47353.72
623.47	47147.75
623.62	46904.34
623.77	46822.42
623.92	47159.45
624.07	46902.00
624.23	47019.02
624.38	46808.37
624.53	47096.26
624.68	46471.34
624.83	46667.94
624.98	47035.41
625.13	46382.40
625.29	46733.48
625.44	46539.21
625.59	46618.79
625.74	46586.02
625.89	46660.92
626.04	46635.17
626.19	46593.04
626.34	46251.33
626.49	46417.50
626.65	46007.91
626.80	46188.13
626.95	46321.54
627.10	46586.02
627.25	46555.60
627.40	46536.87
627.55	46710.07
627.70	46138.98
627.85	46274.73
628.00	46962.85
628.15	46295.80
628.30	45666.19
628.45	45542.14
628.60	45357.24
628.76	45626.40
628.91	46110.89
629.06	46085.15
629.21	45738.75
629.36	46169.41
629.51	45645.13
629.66	46162.39
629.81	45958.76
629.96	45933.01
630.11	46094.51
630.26	45778.54
630.41	45553.85
630.56	45677.90
630.71	45818.33
630.86	45958.76
631.01	45207.45
631.16	45797.26
631.31	45820.67
631.46	45303.41
631.61	46190.47
631.76	45617.04
631.91	45848.75
632.06	45921.31
632.21	45851.09
632.36	46003.23
632.51	45291.71
632.66	45233.19
632.81	45397.03
632.96	45322.13
633.10	45621.72
633.25	45364.26
633.40	45382.99
633.55	45928.33
633.70	45371.28
633.85	45574.91
634.00	45141.91
634.15	44741.68
634.30	45062.33
634.45	45162.98
634.60	44832.96
634.75	45350.22
634.90	45228.51
635.05	45401.71
635.19	44973.39
635.34	45361.92
635.49	45088.08
635.64	45181.70
635.79	45097.44
635.94	45165.32
636.09	45008.50
636.24	44729.98
636.39	44912.54
636.53	44931.26
636.68	44458.48
636.83	44538.05
636.98	44699.55
637.13	44748.70
637.28	44509.97
637.43	44598.91
637.57	44753.38
637.72	45085.74
637.87	44465.50
638.02	44851.69
638.17	44631.68
638.32	44645.72
638.46	44430.39
638.61	44477.20
638.76	44287.62
638.91	44722.96
639.06	44343.79
639.20	44318.04
639.35	44037.18
639.50	44280.60
639.65	44355.49
639.80	44449.11
639.94	44809.56
640.09	44346.13
640.24	44369.54
640.39	44217.40
640.54	43948.24
640.68	44259.53
640.83	44086.33
640.98	43524.60
641.13	43976.33
641.27	44334.43
641.42	44039.52
641.57	44009.09
641.72	44268.89
641.86	43950.58
642.01	43583.12
642.16	43973.98
642.31	43702.48
642.45	44538.05
642.60	43559.71
642.75	44144.84
642.90	43950.58
643.04	43784.40
643.19	43484.81
643.34	43398.21
643.48	43363.11
643.63	43351.40
643.78	44060.58
643.93	43882.70
644.07	43576.09
644.22	43847.60
644.37	43494.18
644.51	43423.96
644.66	43482.47
644.81	43749.29
644.95	43356.08
645.10	43517.58
645.25	43494.18
645.39	43246.08
645.54	43100.97
645.69	43086.92
645.83	42976.92
645.98	42810.74
646.13	43299.91
646.27	43122.03
646.42	42794.36
646.57	43063.52
646.71	43669.72
646.86	43573.75
647.00	43320.98
647.15	43332.68
647.30	43290.55
647.44	42890.32
647.59	43285.87
647.74	42930.11
647.88	42932.45
648.03	43700.14
648.17	42913.72
648.32	42939.47
648.47	43246.08
648.61	42944.15
648.76	42824.78
648.90	42646.90
649.05	42834.14
649.20	42244.33
649.34	42981.60
649.49	42803.72
649.63	42684.35
649.78	43299.91
649.92	43023.73
650.07	43292.89
650.21	42759.25
650.36	42682.01
650.51	42909.04
650.65	43203.95
650.80	42981.60
650.94	42555.62
651.09	42829.46
651.23	42272.42
651.38	42040.70
651.52	42052.41
651.67	42330.93
651.81	42766.27
651.96	42150.71
652.10	41970.49
652.25	41853.46
652.39	42284.12
652.54	42045.38
652.68	42354.33
652.83	42319.23
652.97	42183.48
653.12	42101.56
653.26	42139.00
653.41	41820.69
653.55	42450.30
653.70	42312.20
653.84	42342.63
653.99	42155.39
654.13	42286.46
654.27	42089.85
654.42	42014.96
654.56	42087.51
654.71	42047.72
654.85	41855.80
655.00	41886.23
655.14	41483.66
655.29	41890.91
655.43	42141.35
655.57	41794.95
655.72	41593.66
655.86	41591.32
656.01	41500.04
656.15	41570.25
656.30	40968.74
656.44	41565.57
656.58	41816.01
656.73	41694.30
656.87	41343.22
657.01	41280.03
657.16	41577.28
657.30	41432.16
657.45	41471.95
657.59	41024.91
657.73	41127.89
657.88	41565.57
658.02	41368.97
658.16	41649.83
658.31	41322.16
658.45	41621.75
658.60	40863.41
658.74	40795.54
658.88	41034.27
659.03	41191.09
659.17	40744.05
659.31	40444.46
659.46	40818.94
659.60	40746.39
659.74	40793.20
659.89	40645.74
660.03	40095.72
660.17	40767.45
660.32	40297.00
660.46	40414.03
660.60	40240.83
660.74	40528.72
660.89	40629.36
661.03	39835.92
661.17	40144.87
661.32	39941.24
661.46	40203.38
661.60	39936.56
661.74	40034.86
661.89	39676.76
662.03	39924.86
662.17	39938.90
662.31	40095.72
662.46	39709.53
662.60	39688.46
662.74	39302.28
662.88	39669.74
663.03	39063.54
663.17	39676.76
663.31	38864.60
663.45	39463.77
663.60	39564.42
663.74	39182.91
663.88	39473.13
664.02	39461.43
664.17	39620.59
664.31	39159.50
664.45	39131.42
664.59	38873.96
664.73	38880.98
664.88	39178.23
665.02	39110.35
665.16	38621.18
665.30	38801.40
665.44	38583.73
665.59	38553.30
665.73	38773.31
665.87	38450.32
666.01	38873.96
666.15	38398.83
666.29	38380.10
666.44	38511.17
666.58	37928.38
666.72	38218.61
666.86	37682.62
667.00	37928.38
667.14	37771.57
667.28	38071.15
667.43	38127.33
667.57	38403.51
667.71	37876.89
667.85	38162.43
667.99	37816.04
668.13	37701.35
668.27	37624.11
668.41	37195.79
668.56	36823.65
668.70	37247.29
668.84	36863.44
668.98	37247.29
669.12	36999.19
669.26	37134.94
669.40	36959.40
669.54	36999.19
669.68	37174.73
669.82	36802.58
669.96	36385.97
670.10	36217.45
670.25	36348.52
670.39	36912.59
670.53	36596.62
670.67	36744.07
670.81	36666.83
670.95	36538.10
671.09	36615.34
671.23	36285.33
671.37	36229.15
671.51	35845.30
671.65	35859.35
671.79	35910.84
671.93	35824.24
672.07	35826.58
672.21	35747.00
672.35	35718.92
672.49	35044.84
672.63	35608.91
672.77	35508.27
672.91	36055.95
673.05	35299.96
673.19	34871.64
673.33	35325.71
673.47	35257.83
673.61	35318.68
673.75	34852.92
673.89	34796.74
674.03	34763.98
674.17	34677.38
674.31	34286.51
674.45	34143.74
674.59	34707.80
674.73	34375.45
674.87	33972.88
675.01	34089.90
675.15	33251.99
675.29	33834.78
675.43	33834.78
675.56	34040.75
675.70	33553.92
675.84	33757.55
675.98	33010.92
676.12	33450.94
676.26	33633.50
676.40	33589.03
676.54	33111.56
676.68	33207.52
676.82	32732.39
676.96	33310.50
677.10	32870.48
677.23	33022.62
677.37	33153.69
677.51	32875.16
677.65	32889.21
677.79	32549.83
677.93	32158.96
678.07	32414.08
678.21	31873.42
678.34	31615.96
678.48	31789.16
678.62	31318.71
678.76	31751.71
678.90	31484.89
679.04	31377.22
679.18	31850.01
679.31	31159.55
679.45	31180.62
679.59	31304.67
679.73	30740.60
679.87	30923.16
680.00	30913.80
680.14	30923.16
680.28	30717.19
680.42	30871.67
680.56	30176.53
680.70	30391.86
680.83	30480.80
680.97	30129.72
681.11	30068.86
681.25	30000.99
681.39	29942.47
681.52	30015.03
681.66	29673.31
681.80	29532.88
681.94	29137.33
682.07	28961.79
682.21	28849.44
682.35	29092.86
682.49	29013.28
682.62	28865.83
682.76	29076.48
682.90	28587.30
683.04	28774.55
683.17	29055.41
683.31	28428.15
683.45	28109.83
683.59	27992.81
683.72	28215.16
683.86	28091.11
684.00	27854.72
684.13	27775.14
684.27	27868.76
684.41	27828.97
684.55	27744.71
684.68	27424.06
684.82	27332.78
684.96	27182.98
685.09	27349.16
685.23	27103.40
685.37	27522.36
685.50	27637.05
685.64	27271.92
685.78	26817.86
685.91	26618.91
686.05	26232.72
686.19	25867.60
686.32	26258.47
686.46	25956.54
686.60	26019.74
686.73	25951.86
686.87	25982.29
687.01	26127.40
687.14	25680.36
687.28	25703.76
687.42	25668.66
687.55	25348.00
687.69	25668.66
687.82	24989.90
687.96	25378.43
688.10	25158.42
688.23	25256.72
688.37	25326.94
688.50	25167.78
688.64	24774.57
688.78	24711.38
688.91	24582.65
689.05	24678.61
689.18	24388.38
689.32	24135.60
689.46	23878.15
689.59	24254.97
689.73	24266.67
689.86	24669.25
690.00	24004.53
690.13	23850.06
690.27	23524.72
690.41	23836.02
690.54	23494.30
690.68	23342.16
690.81	23250.88
690.95	23374.93
691.08	23019.17
691.22	23143.22
691.35	22899.80
691.49	23248.54
691.62	22855.33
691.76	22417.65
691.89	22338.07
692.03	21968.27
692.16	22005.72
692.30	22480.85
692.43	22097.00
692.57	21570.38
692.70	21818.47
692.84	22043.17
692.97	21570.38
693.11	21366.75
693.24	21455.69
693.38	21607.83
693.51	21165.46
693.65	21195.89
693.78	21006.31
693.92	20854.17
694.05	20933.75
694.19	20863.54
694.32	20741.83
694.45	21120.99
694.59	21125.68
694.72	21032.05
694.86	20360.32
694.99	20313.51
695.13	20166.06
695.26	19868.81
695.39	19917.96
695.53	19831.36
695.66	19962.43
695.80	19817.32
695.93	19997.54
696.07	19634.75
696.20	19424.11
696.33	19061.32
696.47	19154.94
696.60	19271.97
696.73	19295.38
696.87	19239.20
697.00	19229.84
697.14	18967.70
697.27	18616.62
697.40	18845.99
697.54	18700.88
697.67	18424.70
697.80	18401.29
697.94	18480.87
698.07	18743.01
698.21	18251.50
698.34	18139.15
698.47	18230.43
698.61	17881.69
698.74	17685.09
698.87	17834.88
699.01	17521.25
699.14	17635.94
699.27	17455.72
699.40	17635.94
699.54	17652.32
699.67	17357.41
699.80	17322.30
699.94	17195.92
700.07	17057.82
700.20	17219.32
700.34	17069.53
700.47	16912.71
700.60	16805.05
700.73	16826.11
700.87	16816.75
701.00	16390.77
701.13	16400.13
701.26	16407.16
701.40	16535.88
701.53	15983.52
701.66	16142.67
701.79	16304.17
701.93	16053.73
702.06	16032.67
702.19	15925.00
702.32	15644.14
702.46	15690.95
702.59	15908.62
702.72	15761.17
702.85	15456.90
702.99	15538.82
703.12	15311.78
703.25	15311.78
703.38	15213.48
703.51	15304.76
703.65	14953.68
703.78	14937.30
703.91	14712.61
704.04	14951.34
704.17	14569.83
704.31	14462.17
704.44	14831.97
704.57	14539.41
704.70	14434.08
704.83	14134.50
704.96	14118.11
705.10	14239.82
705.23	13977.68
>>>>>End Processed Spectral Data<<<<<
