SpectraSuite Data File
++++++++++++++++++++++++++++++++++++
Date: Fri Oct 25 11:33:48 EDT 2013
User: price-jones
Dark Spectrum Present: No
Reference Spectrum Present: No
Number of Sampled Component Spectra: 1
Spectrometers: USB2+H05261
Integration Time (usec): 100000 (USB2+H05261)
Spectra Averaged: 1 (USB2+H05261)
Boxcar Smoothing: 0 (USB2+H05261)
Correct for Electrical Dark: No (USB2+H05261)
Strobe/Lamp Enabled: No (USB2+H05261)
Correct for Detector Non-linearity: No (USB2+H05261)
Correct for Stray Light: No (USB2+H05261)
Number of Pixels in Processed Spectrum: 2048
>>>>>Begin Processed Spectral Data<<<<<
365.73	210.65
365.92	210.65
366.12	210.65
366.32	177.88
366.52	234.05
366.72	184.90
366.91	168.52
367.11	177.88
367.31	128.73
367.51	147.45
367.70	126.39
367.90	182.56
368.10	182.56
368.30	189.58
368.49	208.31
368.69	184.90
368.89	212.99
369.09	175.54
369.28	222.35
369.48	121.71
369.68	217.67
369.87	161.50
370.07	182.56
370.27	301.93
370.47	234.05
370.66	526.62
370.86	472.79
371.06	493.85
371.25	524.28
371.45	521.94
371.65	557.05
371.84	554.71
372.04	638.97
372.24	592.16
372.44	571.09
372.63	615.56
372.83	629.60
373.03	596.84
373.22	561.73
373.42	631.94
373.62	671.73
373.81	634.29
374.01	608.54
374.21	702.16
374.40	638.97
374.60	737.27
374.79	634.29
374.99	615.56
375.19	697.48
375.38	702.16
375.58	657.69
375.78	734.93
375.97	645.99
376.17	709.18
376.37	683.44
376.56	685.78
376.76	727.91
376.95	695.14
377.15	688.12
377.35	624.92
377.54	699.82
377.74	669.39
377.93	669.39
378.13	599.18
378.33	727.91
378.52	653.01
378.72	685.78
378.91	737.27
379.11	744.29
379.31	725.57
379.50	723.23
379.70	744.29
379.89	720.88
380.09	727.91
380.28	784.08
380.48	748.97
380.68	760.67
380.87	718.54
381.07	763.01
381.26	786.42
381.46	784.08
381.65	781.74
381.85	695.14
382.04	751.31
382.24	788.76
382.43	725.57
382.63	765.36
382.83	819.19
383.02	849.61
383.22	884.72
383.41	840.25
383.61	809.83
383.80	809.83
384.00	828.55
384.19	779.40
384.39	793.44
384.58	814.51
384.78	777.06
384.97	861.32
385.17	802.80
385.36	777.06
385.56	884.72
385.75	847.27
385.95	830.89
386.14	877.70
386.34	837.91
386.53	861.32
386.72	793.44
386.92	896.43
387.11	812.17
387.31	924.51
387.50	837.91
387.70	901.11
387.89	931.53
388.09	947.92
388.28	926.85
388.48	912.81
388.67	950.26
388.86	919.83
389.06	933.87
389.25	978.34
389.45	875.36
389.64	954.94
389.84	926.85
390.03	966.64
390.22	901.11
390.42	945.58
390.61	957.28
390.81	887.06
391.00	968.98
391.19	973.66
391.39	978.34
391.58	1041.54
391.78	990.05
391.97	1032.18
392.16	976.00
392.36	971.32
392.55	1034.52
392.75	1048.56
392.94	1036.86
393.13	1015.79
393.33	1086.01
393.52	1074.31
393.71	1135.16
393.91	1067.28
394.10	999.41
394.29	1057.92
394.49	1043.88
394.68	1116.44
394.88	1132.82
395.07	1151.54
395.26	1135.16
395.46	1149.20
395.65	1149.20
395.84	1233.46
396.04	1156.22
396.23	1118.78
396.42	1188.99
396.62	1184.31
396.81	1165.59
397.00	1186.65
397.19	1254.53
397.39	1207.72
397.58	1233.46
397.77	1210.06
397.97	1270.91
398.16	1401.98
398.35	1263.89
398.55	1203.04
398.74	1291.98
398.93	1334.11
399.12	1313.04
399.32	1348.15
399.51	1404.32
399.70	1460.49
399.90	1334.11
400.09	1341.13
400.28	1495.60
400.47	1338.79
400.67	1387.94
400.86	1502.62
401.05	1490.92
401.24	1413.68
401.44	1465.18
401.63	1451.13
401.82	1404.32
402.01	1324.74
402.21	1476.88
402.40	1476.88
402.59	1495.60
402.78	1448.79
402.97	1544.75
403.17	1577.52
403.36	1519.01
403.55	1483.90
403.74	1607.95
403.93	1568.16
404.13	1607.95
404.32	1614.97
404.51	1671.14
404.70	1659.44
404.89	1671.14
405.09	1689.87
405.28	1584.54
405.47	1748.38
405.66	1699.23
405.85	1757.74
406.05	1729.66
406.24	1809.23
406.43	1717.95
406.62	1771.79
406.81	1823.28
407.00	1865.41
407.20	1736.68
407.39	1734.34
407.58	1827.96
407.77	1954.35
407.96	1919.24
408.15	1898.17
408.34	1874.77
408.54	1914.56
408.73	1989.46
408.92	1940.30
409.11	1970.73
409.30	2040.95
409.49	1973.07
409.68	1886.47
409.87	1975.41
410.07	1947.33
410.26	1968.39
410.45	2094.78
410.64	1996.48
410.83	2120.53
411.02	1982.43
411.21	2169.68
411.40	2139.25
411.59	2153.29
411.78	2176.70
411.98	2120.53
412.17	2253.94
412.36	2317.13
412.55	2338.20
412.74	2338.20
412.93	2265.64
413.12	2230.53
413.31	2375.64
413.50	2349.90
413.69	2352.24
413.88	2499.69
414.07	2480.97
414.26	2455.22
414.45	2560.55
414.64	2431.82
414.83	2710.34
415.02	2696.30
415.22	2630.76
415.41	2640.12
415.60	2609.70
415.79	2602.68
415.98	2759.49
416.17	2736.09
416.36	2726.72
416.55	2738.43
416.74	2771.19
416.93	2644.81
417.12	2909.29
417.31	2818.00
417.50	2808.64
417.69	2946.73
417.88	2892.90
418.07	2869.50
418.26	3000.57
418.45	3021.63
418.64	3082.49
418.83	3009.93
419.02	3059.08
419.21	3045.04
419.39	3122.27
419.58	3108.23
419.77	2988.86
419.96	3187.81
420.15	3234.62
420.34	3297.81
420.53	3187.81
420.72	3274.41
420.91	3248.66
421.10	3145.68
421.29	3201.85
421.48	3342.28
421.67	3368.03
421.86	3229.94
422.05	3349.31
422.24	3178.45
422.43	3393.78
422.61	3370.37
422.80	3438.25
422.99	3346.97
423.18	3424.20
423.37	3407.82
423.56	3344.63
423.75	3396.12
423.94	3337.60
424.13	3173.77
424.32	3190.15
424.50	3389.10
424.69	3421.86
424.88	3447.61
425.07	3353.99
425.26	3370.37
425.45	3576.34
425.64	3485.06
425.83	3478.04
426.01	3538.89
426.20	3515.48
426.39	3475.70
426.58	3368.03
426.77	3471.01
426.96	3599.74
427.15	3494.42
427.33	3604.42
427.52	3513.14
427.71	3536.55
427.90	3583.36
428.09	3613.79
428.28	3590.38
428.46	3611.45
428.65	3688.68
428.84	3864.22
429.03	3789.33
429.22	3698.05
429.40	3747.20
429.59	3936.78
429.78	3595.06
429.97	3627.83
430.16	3789.33
430.34	3805.71
430.53	3948.48
430.72	3925.08
430.91	4014.02
431.10	3880.61
431.28	3960.19
431.47	3995.29
431.66	3899.33
431.85	3922.74
432.03	4107.64
432.22	4217.65
432.41	4173.18
432.60	3981.25
432.79	3962.53
432.97	4021.04
433.16	4105.30
433.35	4210.62
433.54	4217.65
433.72	4030.40
433.91	4149.77
434.10	4142.75
434.28	4219.99
434.47	4217.65
434.66	4194.24
434.85	4430.63
435.03	4346.37
435.22	4285.52
435.41	4411.91
435.59	4367.44
435.78	4381.48
435.97	4327.65
436.16	4327.65
436.34	4355.74
436.53	4372.12
436.72	4571.07
436.90	4442.34
437.09	4400.21
437.28	4451.70
437.46	4550.00
437.65	4489.15
437.84	4594.47
438.02	4578.09
438.21	4631.92
438.40	4589.79
438.58	4662.35
438.77	4753.63
438.96	4603.83
439.14	4784.06
439.33	4905.76
439.52	5071.94
439.70	4915.12
439.89	4917.47
440.08	5006.41
440.26	5191.31
440.45	4983.00
440.63	4882.36
440.82	5259.18
441.01	5041.51
441.19	5188.97
441.38	5282.59
441.57	5277.91
441.75	5336.42
441.94	5376.21
442.12	5317.70
442.31	5427.70
442.50	5547.07
442.68	5434.72
442.87	5451.11
443.05	5516.64
443.24	5614.95
443.43	5507.28
443.61	5584.52
443.80	5589.20
443.98	5430.04
444.17	5298.97
444.35	5614.95
444.54	5715.59
444.73	5659.42
444.91	5631.33
445.10	5668.78
445.28	5699.20
445.47	5650.05
445.65	5734.31
445.84	5724.95
446.02	5710.91
446.21	5460.47
446.39	5710.91
446.58	5687.50
446.77	5724.95
446.95	5561.11
447.14	5757.72
447.32	5804.53
447.51	5579.84
447.69	5673.46
447.88	5797.51
448.06	5666.44
448.25	5781.12
448.43	5785.80
448.62	5729.63
448.80	5685.16
448.99	5832.62
449.17	5818.57
449.36	5884.11
449.54	6066.67
449.73	6132.20
449.91	6143.91
450.10	6071.35
450.28	6190.72
450.46	6284.34
450.65	6101.78
450.83	6202.42
451.02	6099.44
451.20	6387.32
451.39	6190.72
451.57	6202.42
451.76	6029.22
451.94	6160.29
452.13	6284.34
452.31	6331.15
452.49	6150.93
452.68	6340.51
452.86	6214.12
453.05	6319.45
453.23	6230.51
453.42	6396.68
453.60	6293.70
453.78	6370.94
453.97	6314.77
454.15	6328.81
454.34	6305.40
454.52	6581.59
454.70	6565.20
454.89	6483.28
455.07	6422.43
455.26	6537.12
455.44	6473.92
455.62	6595.63
455.81	6759.47
455.99	6867.13
456.17	6801.60
456.36	6913.94
456.54	6803.94
456.73	6792.23
456.91	6995.86
457.09	7021.61
457.28	7037.99
457.46	6927.99
457.64	7180.76
457.83	7080.12
458.01	7007.56
458.19	7276.73
458.38	6848.41
458.56	7232.26
458.74	7152.68
458.93	7094.16
459.11	7375.03
459.29	7105.87
459.48	7316.51
459.66	7302.47
459.84	7297.79
460.03	7466.31
460.21	7220.55
460.39	7515.46
460.57	7501.42
460.76	7295.45
460.94	7421.84
461.12	7641.85
461.31	7566.95
461.49	7641.85
461.67	7461.63
461.85	7728.45
462.04	7424.18
462.22	8023.36
462.40	7850.16
462.59	7644.19
462.77	7833.77
462.95	7754.19
463.13	7742.49
463.32	7744.83
463.50	7894.63
463.68	7873.56
463.86	7887.61
464.05	7784.62
464.23	7953.14
464.41	8095.91
464.59	7950.80
464.78	8018.68
464.96	8049.10
465.14	8023.36
465.32	7960.16
465.50	8191.88
465.69	8063.15
465.87	8088.89
466.05	8065.49
466.23	8046.76
466.41	8229.32
466.60	8208.26
466.78	8116.98
466.96	8079.53
467.14	8081.87
467.32	8269.11
467.51	8304.22
467.69	8121.66
467.87	8234.00
468.05	8521.89
468.23	8234.00
468.41	8287.84
468.60	8545.30
468.78	8739.56
468.96	8327.63
469.14	8547.64
469.32	8528.91
469.50	8503.17
469.69	8622.53
469.87	8688.07
470.05	8613.17
470.23	8690.41
470.41	8826.16
470.59	8959.57
470.77	8947.87
470.95	8774.67
471.14	9043.83
471.32	9088.30
471.50	9004.04
471.68	9057.87
471.86	9055.53
472.04	8947.87
472.22	9160.86
472.40	9076.60
472.58	9167.88
472.77	9207.67
472.95	9357.46
473.13	9720.24
473.31	9444.06
473.49	9277.88
473.67	9305.97
473.85	9453.42
474.03	9554.07
474.21	9628.96
474.39	9804.50
474.57	9647.69
474.75	9865.36
474.93	10115.80
475.12	10019.83
475.30	9935.57
475.48	9984.73
475.66	10099.41
475.84	9977.70
476.02	10183.67
476.20	10197.71
476.38	10326.44
476.56	10420.06
476.74	10459.85
476.92	10558.16
477.10	10600.29
477.28	10693.91
477.46	10553.48
477.64	10583.90
477.82	10972.43
478.00	11227.55
478.18	11021.58
478.36	11187.76
478.54	11199.46
478.72	11323.51
478.90	11482.67
479.08	11578.63
479.26	11485.01
479.44	11702.68
479.62	11606.72
479.80	11896.94
479.98	11833.75
480.16	12170.79
480.34	11941.41
480.52	12435.27
480.70	12444.63
480.88	12053.76
481.06	12416.54
481.24	12468.03
481.41	12505.48
481.59	12559.31
481.77	12688.04
481.95	12723.15
482.13	13188.92
482.31	12854.22
482.49	13685.11
482.67	13411.27
482.85	13397.23
483.03	13781.07
483.21	13893.42
483.39	13771.71
483.57	13912.14
483.74	13886.40
483.92	13837.25
484.10	13640.64
484.28	14373.23
484.46	14354.51
484.64	14745.38
484.82	14450.47
485.00	14534.73
485.18	14794.53
485.35	14839.00
485.53	15019.22
485.71	15082.41
485.89	15105.82
486.07	15302.42
486.25	15508.39
486.43	15236.89
486.61	15704.99
486.78	16226.93
486.96	15812.66
487.14	15894.58
487.32	16049.05
487.50	16259.70
487.68	16053.73
487.85	16526.52
488.03	16606.10
488.21	16898.67
488.39	16950.16
488.57	16957.18
488.75	17249.75
488.92	17495.50
489.10	17598.49
489.28	17657.00
489.46	17551.68
489.64	17682.75
489.81	18253.84
489.99	18029.15
490.17	18153.20
490.35	17926.16
490.53	18263.20
490.70	18686.84
490.88	18420.02
491.06	18633.00
491.24	18609.60
491.41	19112.81
491.59	19234.52
491.77	19218.14
491.95	19386.66
492.13	19625.39
492.30	19721.35
492.48	19711.99
492.66	19435.81
492.84	19744.76
493.01	19997.54
493.19	20205.84
493.37	20013.92
493.54	20304.15
493.72	20671.61
493.90	20233.93
494.08	20795.66
494.25	21097.59
494.43	21018.01
494.61	21074.18
494.79	21373.77
494.96	21076.52
495.14	21338.66
495.32	21759.96
495.49	21593.78
495.67	21762.30
495.85	21706.13
496.02	22012.74
496.20	22373.18
496.38	22398.93
496.55	22253.81
496.73	23023.85
496.91	22541.70
497.09	22665.75
497.26	22801.50
497.44	22757.03
497.62	23063.64
497.79	23449.83
497.97	23112.79
498.14	23183.01
498.32	23718.99
498.50	23768.14
498.67	23728.35
498.85	24077.09
499.03	23878.15
499.20	24259.65
499.38	24046.66
499.56	24163.69
499.73	24264.33
499.91	24669.25
500.08	24762.87
500.26	24231.57
500.44	24868.19
500.61	24610.73
500.79	24844.79
500.97	25081.18
501.14	25329.28
501.32	25050.75
501.49	25043.73
501.67	25223.95
501.84	25523.54
502.02	25411.20
502.20	25397.15
502.37	25441.62
502.55	25738.87
502.72	25942.50
502.90	25853.56
503.07	25867.60
503.25	26120.38
503.43	26040.80
503.60	26270.17
503.78	26731.26
503.95	26328.69
504.13	26342.73
504.30	26754.66
504.48	26583.80
504.65	26831.90
504.83	26632.96
505.01	27077.66
505.18	27143.19
505.36	26923.18
505.53	27218.09
505.71	27365.54
505.88	27449.80
506.06	27379.59
506.23	27527.04
506.41	27374.91
506.58	27433.42
506.76	27655.77
506.93	27976.42
507.11	27821.95
507.28	28056.00
507.46	28229.20
507.63	28276.01
507.81	28353.25
507.98	28229.20
508.16	28442.19
508.33	28760.50
508.50	28709.01
508.68	28591.98
508.85	28985.19
509.03	28613.05
509.20	28797.95
509.38	29179.46
509.55	29401.81
509.73	29429.90
509.90	29331.59
510.08	29544.58
510.25	29029.66
510.42	29244.99
510.60	29717.78
510.77	29607.78
510.95	29965.88
511.12	29986.94
511.30	29752.89
511.47	29879.28
511.64	30106.31
511.82	29933.11
511.99	30190.57
512.17	30331.00
512.34	30141.42
512.51	30869.33
512.69	31197.00
512.86	30398.88
513.04	31023.80
513.21	30232.70
513.38	30836.56
513.56	30829.54
513.73	30845.92
513.90	31068.27
514.08	31133.81
514.25	31826.60
514.43	31700.22
514.60	31374.88
514.77	31260.20
514.95	31707.24
515.12	31536.38
515.29	31503.61
515.47	31800.86
515.64	31859.37
515.81	31943.63
515.99	31976.40
516.16	32669.20
516.33	32378.97
516.51	32648.13
516.68	32205.77
516.85	32620.05
517.03	32512.38
517.20	32191.73
517.37	32704.31
517.54	33039.00
517.72	32746.44
517.89	32844.74
518.06	32847.08
518.24	33022.62
518.41	32748.78
518.58	32842.40
518.75	32898.57
518.93	33324.55
519.10	33289.44
519.27	33282.42
519.45	33434.55
519.62	33399.44
519.79	33401.79
519.96	33369.02
520.14	33883.94
520.31	33558.60
520.48	33572.64
520.65	33963.51
520.83	34092.24
521.00	34202.25
521.17	34162.46
521.34	34120.33
521.52	34099.26
521.69	34075.86
521.86	34614.18
522.03	34543.97
522.20	34536.94
522.38	34988.67
522.55	34988.67
522.72	34974.63
522.89	35033.14
523.07	35133.78
523.24	35065.91
523.41	35323.36
523.58	34883.34
523.75	35187.61
523.92	35138.46
524.10	35449.75
524.27	35192.30
524.44	35653.38
524.61	35587.85
524.78	35817.22
524.96	35938.93
525.13	36240.86
525.30	35859.35
525.47	36102.76
525.64	35754.02
525.81	36093.40
525.98	36641.09
526.16	36336.82
526.33	36549.81
526.50	36594.28
526.67	36254.90
526.84	36381.29
527.01	36526.40
527.18	36650.45
527.36	36327.45
527.53	37525.81
527.70	37125.58
527.87	37046.00
528.04	36601.30
528.21	37111.53
528.38	37326.86
528.55	37315.16
528.72	37102.17
528.89	37294.10
529.07	37041.32
529.24	37031.96
529.41	37317.50
529.58	37654.54
529.75	37455.59
529.92	37750.50
530.09	37565.60
530.26	37502.40
530.43	37886.25
530.60	37322.18
530.77	37766.88
530.94	38061.79
531.11	37621.77
531.28	37893.27
531.46	38153.07
531.63	38143.71
531.80	38129.67
531.97	38375.42
532.14	38103.92
532.31	38354.36
532.48	38576.71
532.65	38398.83
532.82	38232.65
532.99	38780.34
533.16	38553.30
533.33	38485.43
533.50	38698.42
533.67	38951.20
533.84	38515.86
534.01	38972.26
534.18	38796.72
534.35	39246.10
534.52	39009.71
534.69	39115.03
534.86	39431.01
535.03	38880.98
535.20	39370.15
535.37	39470.79
535.54	39000.35
535.71	39318.66
535.88	39267.17
536.05	39454.41
536.22	39913.16
536.38	40020.82
536.55	39447.39
536.72	39433.35
536.89	39297.59
537.06	39356.11
537.23	39889.75
537.40	39508.24
537.57	39601.86
537.74	39761.02
537.91	40004.44
538.08	39842.94
538.25	39442.71
538.42	40002.10
538.59	40514.67
538.75	40168.27
538.92	40184.66
539.09	40383.60
539.26	40360.20
539.43	40774.47
539.60	40634.04
539.77	40346.15
539.94	40458.50
540.11	40556.80
540.28	40959.38
540.44	40680.85
540.61	40453.82
540.78	41003.85
540.95	40598.93
541.12	40509.99
541.29	40495.95
541.46	41130.23
541.62	40896.18
541.79	41148.96
541.96	40435.10
542.13	40762.77
542.30	41221.52
542.47	41031.93
542.63	41294.07
542.80	41380.67
542.97	41490.68
543.14	41949.42
543.31	41420.46
543.48	41628.77
543.64	41806.65
543.81	41649.83
543.98	41354.93
544.15	41958.78
544.32	42078.15
544.48	41933.04
544.65	41970.49
544.82	42300.50
544.99	41986.87
545.16	41694.30
545.32	42066.45
545.49	42555.62
545.66	42572.00
545.83	42396.46
546.00	42443.27
546.16	42337.95
546.33	42127.30
546.50	41984.53
546.67	42511.15
546.83	42122.62
547.00	42433.91
547.17	42155.39
547.34	42567.32
547.50	42733.50
547.67	43704.82
547.84	42740.52
548.00	43072.88
548.17	43220.33
548.34	43002.66
548.51	43187.56
548.67	43086.92
548.84	42801.38
549.01	43325.66
549.18	42651.58
549.34	42972.24
549.51	43473.11
549.68	43468.43
549.84	43161.82
550.01	43643.97
550.18	43459.07
550.34	43391.19
550.51	43449.70
550.68	43351.40
550.84	43484.81
551.01	43786.74
551.18	43470.77
551.34	43365.45
551.51	43784.40
551.68	43292.89
551.84	44091.01
552.01	43564.39
552.18	44055.90
552.34	43477.79
552.51	43838.23
552.68	44130.80
552.84	43833.55
553.01	43735.25
553.18	43903.77
553.34	44006.75
553.51	43707.16
553.67	43959.94
553.84	44488.90
554.01	43746.95
554.17	44098.03
554.34	44502.95
554.51	44626.99
554.67	44666.78
554.84	44484.22
555.00	44229.10
555.17	44177.61
555.33	44378.90
555.50	44402.30
555.67	44722.96
555.83	44456.14
556.00	44692.53
556.16	45022.54
556.33	44854.03
556.50	44664.44
556.66	44968.71
556.83	44744.02
556.99	45240.21
557.16	45361.92
557.32	44973.39
557.49	45268.30
557.65	44650.40
557.82	45050.63
557.98	44898.50
558.15	44978.07
558.32	44989.78
558.48	45223.83
558.65	45059.99
558.81	45270.64
558.98	45268.30
559.14	44762.75
559.31	44706.57
559.47	45137.23
559.64	45177.02
559.80	45619.38
559.97	45394.69
560.13	44938.29
560.30	45652.15
560.46	45907.27
560.63	45525.76
560.79	45450.86
560.96	45881.52
561.12	45556.19
561.29	46019.61
561.45	45902.59
561.61	45509.38
561.78	45378.31
561.94	45598.32
562.11	45574.91
562.27	45631.08
562.44	45750.45
562.60	45345.54
562.77	45684.92
562.93	45813.65
563.10	45876.84
563.26	45572.57
563.42	46096.85
563.59	45570.23
563.75	46045.36
563.92	46094.51
564.08	45933.01
564.24	45734.07
564.41	45783.22
564.57	45986.85
564.74	45944.72
564.90	45617.04
565.07	46026.63
565.23	45769.18
565.39	45790.24
565.56	46103.87
565.72	46005.57
565.88	46036.00
566.05	46082.81
566.21	45888.54
566.38	46127.28
566.54	46040.68
566.70	45895.56
566.87	46220.90
567.03	45837.05
567.19	46333.24
567.36	46211.54
567.52	46040.68
567.68	46246.65
567.85	46749.86
568.01	46497.08
568.17	46138.98
568.34	46398.78
568.50	46174.09
568.66	45935.35
568.83	46167.07
568.99	46347.29
569.15	46459.63
569.32	46422.19
569.48	46300.48
569.64	46979.23
569.81	46593.04
569.97	46848.16
570.13	46637.51
570.30	46239.62
570.46	46326.22
570.62	46681.98
570.78	46609.43
570.95	46234.94
571.11	46623.47
571.27	46291.12
571.43	46415.16
571.60	46330.90
571.76	46457.29
571.92	46555.60
572.09	46593.04
572.25	46560.28
572.41	46590.70
572.57	46672.62
572.74	46841.14
572.90	46564.96
573.06	46646.88
573.22	46602.41
573.38	46571.98
573.55	46614.11
573.71	46740.50
573.87	46738.16
574.03	46663.26
574.20	46953.49
574.36	46791.99
574.52	47194.56
574.68	46969.87
574.84	47213.29
575.01	46447.93
575.17	47430.96
575.33	46770.93
575.49	46677.30
575.65	47016.68
575.82	46909.02
575.98	46803.69
576.14	46873.91
576.30	47271.80
576.46	46667.94
576.62	46483.04
576.79	46696.03
576.95	46588.36
577.11	46667.94
577.27	46717.09
577.43	47007.32
577.59	46773.27
577.75	46724.11
577.92	46373.03
578.08	46799.01
578.24	46843.48
578.40	47590.11
578.56	46979.23
578.72	46981.57
578.88	47065.83
579.04	46810.71
579.21	46667.94
579.37	47271.80
579.53	46754.54
579.69	46532.19
579.85	46934.76
580.01	47264.78
580.17	46887.95
580.33	47288.18
580.49	47028.38
580.65	47428.62
580.82	46885.61
580.98	46637.51
581.14	47100.94
581.30	46789.65
581.46	47103.28
581.62	46691.35
581.78	46691.35
581.94	47164.14
582.10	47002.64
582.26	46885.61
582.42	47164.14
582.58	47171.16
582.74	47075.19
582.90	47143.07
583.06	47459.04
583.22	46962.85
583.38	47100.94
583.54	47091.58
583.70	47285.84
583.86	47323.29
584.02	47206.26
584.18	47590.11
584.34	47405.21
584.50	47323.29
584.66	47313.93
584.82	46974.55
584.98	47445.00
585.14	47384.15
585.30	47124.35
585.46	47295.21
585.62	47224.99
585.78	47192.22
585.94	46962.85
586.10	47400.53
586.26	47086.90
586.42	47302.23
586.58	47114.98
586.74	47129.03
586.90	47250.74
587.06	46642.20
587.22	47543.30
587.38	47030.72
587.54	47339.68
587.70	47381.80
587.86	47423.93
588.02	47428.62
588.18	47250.74
588.34	47250.74
588.49	47267.12
588.65	47021.36
588.81	47374.78
588.97	47592.45
589.13	47318.61
589.29	47379.46
589.45	47543.30
589.61	47459.04
589.77	47419.25
589.93	47496.49
590.08	47426.28
590.24	47798.42
590.40	47356.06
590.56	47648.63
590.72	47524.58
590.88	47428.62
591.04	47370.10
591.20	47700.12
591.35	47711.82
591.51	47833.53
591.67	47885.02
591.83	47587.77
591.99	47519.90
592.15	47622.88
592.31	47512.88
592.46	47517.56
592.62	47629.90
592.78	47824.17
592.94	47667.35
593.10	47847.57
593.26	48161.20
593.41	47868.64
593.57	47777.36
593.73	47943.53
593.89	48367.17
594.05	47985.66
594.20	47758.63
594.36	48128.44
594.52	47950.56
594.68	47992.68
594.84	47971.62
594.99	48198.65
595.15	48112.05
595.31	48018.43
595.47	47899.06
595.62	48154.18
595.78	47931.83
595.94	48334.40
596.10	47679.05
596.25	48287.59
596.41	48217.38
596.57	47955.24
596.73	48287.59
596.88	48151.84
597.04	48034.81
597.20	48020.77
597.36	47767.99
597.51	48116.73
597.67	47583.09
597.83	47955.24
597.99	48095.67
598.14	47749.27
598.30	47908.43
598.46	47983.32
598.61	48259.51
598.77	48460.79
598.93	48198.65
599.09	48172.91
599.24	48268.87
599.40	48378.87
599.56	48385.89
599.71	48341.42
599.87	48619.95
600.03	48264.19
600.18	48172.91
600.34	48013.75
600.50	47955.24
600.65	48144.82
600.81	48629.31
600.97	48280.57
601.12	48243.12
601.28	48378.87
601.44	48196.31
601.59	47803.10
601.75	47917.79
601.91	48280.57
602.06	48151.84
602.22	48032.47
602.37	47899.06
602.53	48006.73
602.69	48154.18
602.84	47824.17
603.00	47922.47
603.16	47798.42
603.31	48566.12
603.47	48505.26
603.62	48018.43
603.78	48652.72
603.94	48032.47
604.09	48231.42
604.25	47870.98
604.40	48147.16
604.56	47711.82
604.71	48643.35
604.87	47969.28
605.03	47964.60
605.18	47742.25
605.34	48399.94
605.49	48161.20
605.65	47964.60
605.80	47915.45
605.96	47887.36
606.12	47978.64
606.27	48198.65
606.43	47634.58
606.58	48046.52
606.74	47985.66
606.89	47929.49
607.05	48362.49
607.20	47880.34
607.36	47903.74
607.51	47812.46
607.67	48004.39
607.82	48034.81
607.98	47854.59
608.13	47885.02
608.29	47983.32
608.44	47910.77
608.60	47686.07
608.75	48074.60
608.91	47852.25
609.06	47566.71
609.22	47978.64
609.37	47695.44
609.53	48315.68
609.68	48376.53
609.84	48011.41
609.99	47510.53
610.15	47955.24
610.30	48161.20
610.46	47894.38
610.61	48200.99
610.76	47878.00
610.92	47618.20
611.07	47828.85
611.23	47419.25
611.38	47753.95
611.54	47913.11
611.69	47859.27
611.84	47793.74
612.00	48030.13
612.15	47744.59
612.31	47639.26
612.46	47199.24
612.62	47253.08
612.77	47732.89
612.92	47634.58
613.08	47622.88
613.23	47489.47
613.39	47117.32
613.54	47241.37
613.69	47749.27
613.85	47416.91
614.00	47545.64
614.15	47496.49
614.31	47398.19
614.46	47114.98
614.62	47224.99
614.77	47536.28
614.92	47423.93
615.08	47468.40
615.23	47250.74
615.38	47746.93
615.54	46946.47
615.69	47496.49
615.84	47414.57
616.00	47767.99
616.15	47276.48
616.30	47620.54
616.46	47435.64
616.61	47351.38
616.76	47316.27
616.92	47267.12
617.07	47189.88
617.22	47292.86
617.37	46433.89
617.53	47430.96
617.68	47533.94
617.83	46883.27
617.99	47248.39
618.14	47615.86
618.29	47192.22
618.45	46770.93
618.60	47192.22
618.75	46469.00
618.90	46728.80
619.06	46801.35
619.21	47079.88
619.36	47346.70
619.51	46883.27
619.67	46567.30
619.82	46693.69
619.97	47002.64
620.12	46864.55
620.28	46588.36
620.43	47138.39
620.58	47105.62
620.73	47157.11
620.89	46724.11
621.04	47042.43
621.19	46553.26
621.34	46630.49
621.49	46855.18
621.65	46679.64
621.80	47058.81
621.95	46799.01
622.10	46639.86
622.25	46628.15
622.41	46656.24
622.56	46279.41
622.71	46656.24
622.86	46293.46
623.01	46686.67
623.16	46330.90
623.32	46698.37
623.47	46747.52
623.62	45961.10
623.77	46492.40
623.92	46351.97
624.07	46279.41
624.23	46569.64
624.38	46288.77
624.53	46377.72
624.68	46031.32
624.83	46160.05
624.98	46426.87
625.13	46312.18
625.29	46244.30
625.44	46071.10
625.59	46160.05
625.74	45918.97
625.89	45928.33
626.04	45521.08
626.19	46010.25
626.34	45895.56
626.49	45914.29
626.65	45677.90
626.80	46188.13
626.95	45294.05
627.10	45797.26
627.25	46010.25
627.40	45972.80
627.55	45846.41
627.70	45518.74
627.85	45680.24
628.00	45785.56
628.15	45668.53
628.30	45191.06
628.45	45216.81
628.60	45116.17
628.76	45652.15
628.91	45490.65
629.06	44816.58
629.21	45621.72
629.36	45371.28
629.51	45350.22
629.66	45448.52
629.81	45471.93
629.96	45226.17
630.11	45495.33
630.26	44868.07
630.41	45258.94
630.56	45127.87
630.71	45326.81
630.86	45125.53
631.01	45235.53
631.16	45144.25
631.31	45050.63
631.46	45045.95
631.61	45350.22
631.76	45598.32
631.91	45226.17
632.06	45500.01
632.21	45497.67
632.36	45507.04
632.51	44954.67
632.66	45371.28
632.81	44940.63
632.96	45134.89
633.10	44542.74
633.25	44725.30
633.40	44622.31
633.55	45284.68
633.70	44982.76
633.85	44889.13
634.00	44521.67
634.15	44737.00
634.30	44708.91
634.45	44418.69
634.60	44760.40
634.75	44961.69
634.90	44732.32
635.05	44919.56
635.19	44673.81
635.34	44554.44
635.49	44531.03
635.64	44907.86
635.79	44556.78
635.94	44217.40
636.09	44411.67
636.24	44198.68
636.39	44484.22
636.53	44587.21
636.68	43990.37
636.83	43966.96
636.98	44072.29
637.13	43835.89
637.28	44006.75
637.43	43859.30
637.57	44133.14
637.72	43880.36
637.87	43613.54
638.02	43938.88
638.17	44018.46
638.32	43913.13
638.46	43697.80
638.61	43545.67
638.76	43775.04
638.91	43995.05
639.06	43658.01
639.20	43468.43
639.35	43842.92
639.50	43634.61
639.65	44091.01
639.80	43753.97
639.94	44385.92
640.09	43945.90
640.24	43721.21
640.39	43206.29
640.54	43330.34
640.68	43777.38
640.83	43707.16
640.98	43812.49
641.13	43372.47
641.27	43531.62
641.42	43267.14
641.57	43320.98
641.72	43381.83
641.86	43482.47
642.01	43337.36
642.16	43325.66
642.31	42813.08
642.45	43501.20
642.60	42909.04
642.75	43007.34
642.90	43351.40
643.04	43065.86
643.19	42899.68
643.34	43112.67
643.48	42965.21
643.63	43131.39
643.78	42602.43
643.93	43257.78
644.07	43402.89
644.22	42934.79
644.37	42820.10
644.51	43051.81
644.66	42534.56
644.81	42923.08
644.95	43313.95
645.10	42677.33
645.25	42780.31
645.39	42529.87
645.54	42628.18
645.69	42541.58
645.83	42543.92
645.98	42525.19
646.13	42707.76
646.27	42506.47
646.42	42106.24
646.57	42541.58
646.71	42621.16
646.86	42784.99
647.00	42693.71
647.15	42263.05
647.30	42410.51
647.44	42707.76
647.59	42349.65
647.74	42384.76
647.88	42553.28
648.03	43105.65
648.17	42923.08
648.32	42663.28
648.47	43030.75
648.61	41996.23
648.76	42939.47
648.90	42249.01
649.05	42295.82
649.20	42429.23
649.34	42204.54
649.49	42064.11
649.63	42487.74
649.78	42588.39
649.92	42330.93
650.07	42693.71
650.21	42284.12
650.36	42267.73
650.51	42256.03
650.65	42129.64
650.80	42314.55
650.94	41689.62
651.09	41942.40
651.23	41698.98
651.38	41883.89
651.52	41385.35
651.67	41921.34
651.81	41752.82
651.96	41928.36
652.10	41415.78
652.25	41270.67
652.39	41404.08
652.54	41879.21
652.68	41642.81
652.83	41794.95
652.97	41450.89
653.12	41521.10
653.26	41579.62
653.41	41493.02
653.55	41933.04
653.70	41460.25
653.84	42019.64
653.99	41715.37
654.13	41340.88
654.27	41263.64
654.42	41888.57
654.56	41303.43
654.71	41436.84
654.85	41710.69
655.00	41338.54
655.14	41532.81
655.29	41593.66
655.43	41633.45
655.57	41308.11
655.72	40751.07
655.86	40942.99
656.01	40708.94
656.15	41109.17
656.30	40905.54
656.44	41153.64
656.58	41352.58
656.73	40685.53
656.87	40404.67
657.01	40552.12
657.16	40655.11
657.30	40786.18
657.45	40952.35
657.59	40926.61
657.73	40727.66
657.88	40842.35
658.02	41043.63
658.16	41123.21
658.31	41331.52
658.45	40563.82
658.60	40622.34
658.74	40804.90
658.88	40259.55
659.03	40488.93
659.17	40357.86
659.31	39824.22
659.46	40594.25
659.60	40282.96
659.74	39849.96
659.89	40121.46
660.03	39976.35
660.17	40247.85
660.32	40081.67
660.46	40060.61
660.60	39452.07
660.74	40020.82
660.89	39742.30
661.03	39519.95
661.17	39372.49
661.32	39309.30
661.46	39812.51
661.60	39665.06
661.74	39182.91
661.89	39466.11
662.03	39536.33
662.17	39313.98
662.31	39241.42
662.46	39234.40
662.60	39648.68
662.74	39096.31
662.88	38565.01
663.03	38548.62
663.17	39058.86
663.31	38635.22
663.45	38653.95
663.60	39367.81
663.74	39299.94
663.88	38967.58
664.02	38398.83
664.17	39051.84
664.31	38485.43
664.45	38581.39
664.59	38300.53
664.73	38335.63
664.88	38497.13
665.02	38141.37
665.16	38307.55
665.30	38312.23
665.44	38019.66
665.59	37670.92
665.73	37778.59
665.87	37558.58
666.01	38234.99
666.15	37287.07
666.29	37436.87
666.44	38000.94
666.58	37771.57
666.72	37535.17
666.86	37556.24
667.00	37258.99
667.14	37427.51
667.28	37340.91
667.43	37380.70
667.57	37284.73
667.71	37591.34
667.85	37347.93
667.99	37177.07
668.13	37230.90
668.27	36889.18
668.41	37132.60
668.56	36566.19
668.70	36615.34
668.84	36734.71
668.98	36741.73
669.12	36840.03
669.26	36598.96
669.40	36708.96
669.54	36570.87
669.68	36423.42
669.82	36615.34
669.96	35578.48
670.10	36018.50
670.25	35805.52
670.39	36245.54
670.53	36126.17
670.67	35793.81
670.81	36273.62
670.95	35990.42
671.09	35625.29
671.23	35526.99
671.37	35831.26
671.51	35426.35
671.65	35803.17
671.79	35229.74
671.93	35583.16
672.07	35793.81
672.21	35182.93
672.35	35325.71
672.49	35290.60
672.63	35227.40
672.77	35161.87
672.91	34909.09
673.05	34792.06
673.19	34588.44
673.33	34742.91
673.47	34316.93
673.61	34490.13
673.75	34574.39
673.89	34143.74
674.03	34345.02
674.17	33783.29
674.31	33853.51
674.45	34169.48
674.59	33553.92
674.73	33706.05
674.87	33958.83
675.01	33324.55
675.15	33202.84
675.29	33338.59
675.43	33450.94
675.56	33464.98
675.70	33336.25
675.84	32926.66
675.98	32236.20
676.12	33198.16
676.26	33528.17
676.40	32840.06
676.54	32680.90
676.68	32540.47
676.82	32072.36
676.96	32657.49
677.10	32830.69
677.23	32416.42
677.37	32175.34
677.51	32032.57
677.65	32266.63
677.79	31578.51
677.93	31732.98
678.07	31688.51
678.21	31473.18
678.34	31646.38
678.48	31241.47
678.62	31110.40
678.76	30972.31
678.90	31082.31
679.04	31138.49
679.18	31047.21
679.31	30920.82
679.45	30981.67
679.59	30696.13
679.73	30441.01
679.87	30684.42
680.00	30431.65
680.14	30211.64
680.28	30525.27
680.42	30129.72
680.56	29876.94
680.70	30061.84
680.83	29652.25
680.97	29813.74
681.11	29701.40
681.25	29448.62
681.39	29064.77
681.52	29406.49
681.66	29172.44
681.80	28685.61
681.94	28776.89
682.07	28711.35
682.21	28814.34
682.35	28327.50
682.49	28833.06
682.62	28863.49
682.76	28617.73
682.90	28634.11
683.04	28383.68
683.17	28259.63
683.31	27775.14
683.45	28018.55
683.59	27962.38
683.72	27686.20
683.86	27538.74
684.00	27517.68
684.13	27608.96
684.27	27218.09
684.41	27070.64
684.55	27257.88
684.68	27351.50
684.82	26838.92
684.96	27047.23
685.09	26916.16
685.23	27197.02
685.37	27271.92
685.50	27063.61
685.64	26808.50
685.78	26036.12
685.91	26218.68
686.05	26024.42
686.19	26036.12
686.32	25902.71
686.46	25535.24
686.60	25212.25
686.73	25565.67
686.87	25223.95
687.01	25413.54
687.14	25872.28
687.28	25193.53
687.42	25425.24
687.55	25172.46
687.69	25348.00
687.82	24755.85
687.96	24713.72
688.10	25127.99
688.23	24779.25
688.37	25048.41
688.50	24662.22
688.64	24577.97
688.78	24566.26
688.91	24631.80
689.05	23976.45
689.18	24095.82
689.32	23646.43
689.46	23545.79
689.59	23789.20
689.73	23754.10
689.86	24308.80
690.00	23372.59
690.13	23445.15
690.27	23564.51
690.41	23480.25
690.54	23058.96
690.68	23084.70
690.81	23091.73
690.95	22906.82
691.08	22733.62
691.22	22661.07
691.35	22354.46
691.49	22647.02
691.62	22625.96
691.76	22324.03
691.89	22132.11
692.03	21687.40
692.16	21734.21
692.30	22047.85
692.43	22043.17
692.57	21514.20
692.70	21848.90
692.84	21443.99
692.97	21266.11
693.11	21022.69
693.24	21025.03
693.38	20952.48
693.51	21090.57
693.65	20753.53
693.78	20720.76
693.92	20830.77
694.05	20435.22
694.19	20996.95
694.32	20650.55
694.45	20702.04
694.59	20388.41
694.72	20798.00
694.86	20493.73
694.99	19697.95
695.13	20116.90
695.26	19932.00
695.39	19609.01
695.53	19601.99
695.66	19480.28
695.80	19487.30
695.93	19665.18
696.07	19400.70
696.20	19129.20
696.33	18902.17
696.47	19112.81
696.60	18888.12
696.73	19061.32
696.87	18511.30
697.00	18874.08
697.14	18628.32
697.27	18469.17
697.40	18677.48
697.54	18342.78
697.67	18167.24
697.80	18389.59
697.94	18178.94
698.07	17731.90
698.21	18092.34
698.34	18108.72
698.47	17774.03
698.61	17621.89
698.74	17516.57
698.87	17666.36
699.01	17413.59
699.14	17188.89
699.27	17202.94
699.40	17228.68
699.54	16840.15
699.67	17177.19
699.80	16879.94
699.94	16585.04
700.07	16938.46
700.20	16795.68
700.34	16486.73
700.47	16575.67
700.60	17034.42
700.73	16643.55
700.87	16723.13
701.00	16086.50
701.13	16184.80
701.26	16346.30
701.40	15917.98
701.53	15915.64
701.66	16020.97
701.79	15871.17
701.93	15501.37
702.06	15756.49
702.19	15253.27
702.32	15683.93
702.46	15789.25
702.59	15484.98
702.72	15627.76
702.85	15496.69
702.99	15382.00
703.12	15260.29
703.25	15122.20
703.38	14981.77
703.51	15316.47
703.65	14794.53
703.78	14548.77
703.91	14689.20
704.04	14614.30
704.17	14398.98
704.31	14375.57
704.44	14307.69
704.57	14375.57
704.70	14244.50
704.83	14193.01
704.96	13980.02
705.10	13909.80
705.23	13832.57
>>>>>End Processed Spectral Data<<<<<
