SpectraSuite Data File
++++++++++++++++++++++++++++++++++++
Date: Fri Oct 25 10:43:45 EDT 2013
User: price-jones
Dark Spectrum Present: No
Reference Spectrum Present: No
Number of Sampled Component Spectra: 1
Spectrometers: USB2+H05261
Integration Time (usec): 100000 (USB2+H05261)
Spectra Averaged: 1 (USB2+H05261)
Boxcar Smoothing: 0 (USB2+H05261)
Correct for Electrical Dark: No (USB2+H05261)
Strobe/Lamp Enabled: No (USB2+H05261)
Correct for Detector Non-linearity: No (USB2+H05261)
Correct for Stray Light: No (USB2+H05261)
Number of Pixels in Processed Spectrum: 2048
>>>>>Begin Processed Spectral Data<<<<<
365.73	77.24
365.92	77.24
366.12	77.24
366.32	35.11
366.52	63.19
366.72	65.54
366.91	11.70
367.11	37.45
367.31	39.79
367.51	14.04
367.70	21.06
367.90	58.51
368.10	0.00
368.30	11.70
368.49	72.56
368.69	63.19
368.89	58.51
369.09	4.68
369.28	119.37
369.48	110.01
369.68	49.15
369.87	65.54
370.07	70.22
370.27	112.35
370.47	184.90
370.66	360.44
370.86	444.70
371.06	491.51
371.25	493.85
371.45	437.68
371.65	437.68
371.84	411.93
372.04	437.68
372.24	479.81
372.44	477.47
372.63	554.71
372.83	524.28
373.03	465.77
373.22	519.60
373.42	557.05
373.62	475.13
373.81	486.83
374.01	482.15
374.21	521.94
374.40	500.87
374.60	463.43
374.79	498.53
374.99	582.79
375.19	568.75
375.38	641.31
375.58	603.86
375.78	535.98
375.97	568.75
376.17	641.31
376.37	589.82
376.56	615.56
376.76	638.97
376.95	582.79
377.15	638.97
377.35	678.76
377.54	631.94
377.74	669.39
377.93	720.88
378.13	645.99
378.33	660.03
378.52	634.29
378.72	629.60
378.91	711.52
379.11	561.73
379.31	657.69
379.50	624.92
379.70	660.03
379.89	648.33
380.09	596.84
380.28	699.82
380.48	692.80
380.68	692.80
380.87	645.99
381.07	643.65
381.26	716.20
381.46	727.91
381.65	723.23
381.85	678.76
382.04	638.97
382.24	664.71
382.43	770.04
382.63	648.33
382.83	751.31
383.02	711.52
383.22	767.70
383.41	695.14
383.61	791.10
383.80	805.14
384.00	706.84
384.19	774.72
384.39	807.48
384.58	784.08
384.78	896.43
384.97	786.42
385.17	713.86
385.36	821.53
385.56	739.61
385.75	828.55
385.95	847.27
386.14	788.76
386.34	870.68
386.53	861.32
386.72	793.44
386.92	866.00
387.11	903.45
387.31	903.45
387.50	863.66
387.70	795.78
387.89	919.83
388.09	931.53
388.28	849.61
388.48	896.43
388.67	912.81
388.86	898.77
389.06	987.71
389.25	870.68
389.45	938.55
389.64	1018.13
389.84	999.41
390.03	1020.47
390.22	952.60
390.42	957.28
390.61	945.58
390.81	976.00
391.00	1008.77
391.19	1081.33
391.39	994.73
391.58	1020.47
391.78	952.60
391.97	1020.47
392.16	1025.15
392.36	1153.88
392.55	1090.69
392.75	985.37
392.94	884.72
393.13	1048.56
393.33	980.68
393.52	1060.26
393.71	1114.10
393.91	1057.92
394.10	971.32
394.29	1142.18
394.49	1205.38
394.68	1177.29
394.88	1123.46
395.07	1245.16
395.26	1219.42
395.46	1242.82
395.65	1191.33
395.84	1174.95
396.04	1256.87
396.23	1196.01
396.42	1151.54
396.62	1240.48
396.81	1142.18
397.00	1128.14
397.19	1294.32
397.39	1252.19
397.58	1336.45
397.77	1287.29
397.97	1462.83
398.16	1385.60
398.35	1474.54
398.55	1387.94
398.74	1401.98
398.93	1556.46
399.12	1486.24
399.32	1502.62
399.51	1432.41
399.70	1519.01
399.90	1502.62
400.09	1554.12
400.28	1600.93
400.47	1675.82
400.67	1614.97
400.86	1603.27
401.05	1589.22
401.24	1762.42
401.44	1617.31
401.63	1671.14
401.82	1603.27
402.01	1652.42
402.21	1778.81
402.40	1748.38
402.59	1638.38
402.78	1743.70
402.97	1600.93
403.17	1785.83
403.36	1846.68
403.55	1785.83
403.74	1675.82
403.93	1832.64
404.13	1804.55
404.32	1900.52
404.51	1863.07
404.70	1806.89
404.89	1823.28
405.09	1944.99
405.28	1842.00
405.47	1884.13
405.66	1937.96
405.85	2031.58
406.05	1893.49
406.24	2010.52
406.43	1980.09
406.62	1947.33
406.81	2083.08
407.00	2052.65
407.20	2019.88
407.39	2015.20
407.58	2057.33
407.77	2118.18
407.96	2148.61
408.15	2169.68
408.34	2094.78
408.54	2258.62
408.73	2298.41
408.92	2326.49
409.11	2246.91
409.30	2282.02
409.49	2202.44
409.68	2174.36
409.87	2207.13
410.07	2321.81
410.26	2282.02
410.45	2333.51
410.64	2401.39
410.83	2403.73
411.02	2422.45
411.21	2583.95
411.40	2520.76
411.59	2600.34
411.78	2581.61
411.98	2502.03
412.17	2663.53
412.36	2672.89
412.55	2630.76
412.74	2689.28
412.93	2803.96
413.12	2574.59
413.31	2832.05
413.50	2853.11
413.69	2860.13
413.88	2902.26
414.07	2754.81
414.26	2857.79
414.45	2902.26
414.64	2832.05
414.83	3054.40
415.02	2951.42
415.22	2949.08
415.41	3061.42
415.60	3000.57
415.79	3169.09
415.98	3337.60
416.17	3187.81
416.36	3152.70
416.55	3049.72
416.74	3239.30
416.93	3197.17
417.12	3276.75
417.31	3400.80
417.50	3309.52
417.69	3534.21
417.88	3286.11
418.07	3389.10
418.26	3478.04
418.45	3452.29
418.64	3557.61
418.83	3496.76
419.02	3503.78
419.21	3503.78
419.39	3452.29
419.58	3456.97
419.77	3545.91
419.96	3590.38
420.15	3590.38
420.34	3517.83
420.53	3695.71
420.72	3735.50
420.91	3735.50
421.10	3740.18
421.29	3735.50
421.48	3688.68
421.67	3911.04
421.86	3630.17
422.05	3824.44
422.24	3655.92
422.43	3709.75
422.61	3772.94
422.80	3756.56
422.99	3765.92
423.18	3927.42
423.37	3784.65
423.56	3782.31
423.75	3833.80
423.94	3880.61
424.13	3606.77
424.32	3747.20
424.50	3782.31
424.69	3967.21
424.88	3983.59
425.07	3859.54
425.26	3801.03
425.45	3892.31
425.64	3843.16
425.83	3873.59
426.01	3925.08
426.20	3833.80
426.39	4030.40
426.58	3845.50
426.77	3955.51
426.96	4100.62
427.15	3838.48
427.33	4124.02
427.52	3983.59
427.71	4051.47
427.90	3861.88
428.09	4109.98
428.28	4114.66
428.46	3953.16
428.65	4053.81
428.84	4196.58
429.03	4208.28
429.22	4037.42
429.40	4077.21
429.59	4093.60
429.78	3808.05
429.97	3985.93
430.16	3997.64
430.34	4126.36
430.53	4037.42
430.72	4025.72
430.91	4112.32
431.10	4198.92
431.28	4362.76
431.47	4596.81
431.66	4620.22
431.85	4538.30
432.03	4463.40
432.22	4540.64
432.41	4517.23
432.60	4596.81
432.79	4627.24
432.97	4624.90
433.16	4554.68
433.35	4599.15
433.54	4550.00
433.72	4685.75
433.91	4662.35
434.10	4720.86
434.28	4793.42
434.47	4933.85
434.66	4739.58
434.85	4894.06
435.03	4835.55
435.22	4915.12
435.41	4997.04
435.59	4877.68
435.78	4807.46
435.97	5097.69
436.16	5034.49
436.34	5022.79
436.53	5123.43
436.72	5233.44
436.90	5022.79
437.09	5015.77
437.28	4919.81
437.46	4978.32
437.65	5088.32
437.84	4924.49
438.02	4929.17
438.21	5231.10
438.40	5118.75
438.58	5352.81
438.77	5294.29
438.96	5327.06
439.14	5591.54
439.33	5504.94
439.52	5423.02
439.70	5568.13
439.89	5526.00
440.08	5526.00
440.26	5685.16
440.45	5703.89
440.63	5703.89
440.82	5823.25
441.01	5652.39
441.19	6017.52
441.38	5928.58
441.57	5921.56
441.75	6019.86
441.94	6225.82
442.12	6162.63
442.31	6382.64
442.50	6303.06
442.68	6146.25
442.87	6293.70
443.05	6246.89
443.24	6289.02
443.43	6382.64
443.61	6293.70
443.80	6462.22
443.98	6174.33
444.17	6202.42
444.35	6345.19
444.54	6492.65
444.73	6565.20
444.91	6274.98
445.10	6464.56
445.28	6384.98
445.47	6223.48
445.65	6469.24
445.84	6476.26
446.02	6497.33
446.21	6457.54
446.39	6590.95
446.58	6466.90
446.77	6743.08
446.95	6417.75
447.14	6480.94
447.32	6553.50
447.51	6572.22
447.69	6436.47
447.88	6600.31
448.06	6621.38
448.25	6513.71
448.43	6619.04
448.62	6544.14
448.80	6637.76
448.99	6553.50
449.17	6834.36
449.36	6731.38
449.54	6890.54
449.73	7063.74
449.91	7101.19
450.10	6979.48
450.28	6981.82
450.46	7103.53
450.65	7117.57
450.83	7274.38
451.02	7096.50
451.20	7098.84
451.39	7124.59
451.57	7157.36
451.76	7066.08
451.94	7059.06
452.13	7049.69
452.31	7138.63
452.49	6904.58
452.68	7098.84
452.86	6977.14
453.05	7129.27
453.23	7396.09
453.42	7112.89
453.60	6993.52
453.78	7304.81
453.97	7110.55
454.15	7087.14
454.34	7316.51
454.52	7564.61
454.70	7375.03
454.89	7365.67
455.07	7470.99
455.26	7669.94
455.44	7644.19
455.62	7557.59
455.81	7740.15
455.99	7702.70
456.17	7506.10
456.36	7784.62
456.54	7761.22
456.73	7857.18
456.91	7903.99
457.09	8037.40
457.28	8180.17
457.46	7964.84
457.64	7922.71
457.83	8102.93
458.01	7943.78
458.19	8201.24
458.38	7882.92
458.56	8229.32
458.74	8035.06
458.93	8028.04
459.11	8182.51
459.29	8271.45
459.48	8194.22
459.66	8198.90
459.84	8348.69
460.03	8334.65
460.21	8568.70
460.39	8365.07
460.57	8353.37
460.76	8395.50
460.94	8430.61
461.12	8468.06
461.31	8486.78
461.49	8491.46
461.67	8477.42
461.85	8538.27
462.04	8650.62
462.22	9104.68
462.40	8744.24
462.59	8800.41
462.77	8627.21
462.95	8732.54
463.13	9008.72
463.32	8805.10
463.50	8784.03
463.68	8912.76
463.86	8802.75
464.05	8753.60
464.23	8723.18
464.41	8980.64
464.59	8545.30
464.78	8875.31
464.96	9018.08
465.14	8800.41
465.32	9029.79
465.50	9221.71
465.69	9200.65
465.87	9071.92
466.05	9186.60
466.23	9039.15
466.41	9123.41
466.60	9193.62
466.78	9114.05
466.96	8957.23
467.14	9088.30
467.32	9228.73
467.51	9355.12
467.69	9123.41
467.87	9343.42
468.05	9385.55
468.23	9130.43
468.41	9380.87
468.60	9427.68
468.78	9467.47
468.96	9523.64
469.14	9666.41
469.32	9551.73
469.50	9217.03
469.69	9507.26
469.87	9741.31
470.05	9628.96
470.23	9778.76
470.41	9633.64
470.59	9823.23
470.77	9738.97
470.95	9781.10
471.14	9944.94
471.32	9975.36
471.50	9947.28
471.68	9963.66
471.86	10267.93
472.04	10171.97
472.22	10443.47
472.40	10148.56
472.58	10448.15
472.77	10319.42
472.95	10253.89
473.13	10677.52
473.31	10307.72
473.49	10310.06
473.67	10272.61
473.85	10490.28
474.03	10473.90
474.21	10965.41
474.39	10712.63
474.57	10899.87
474.75	11159.67
474.93	11061.37
475.12	10878.81
475.30	11192.44
475.48	11103.50
475.66	11232.23
475.84	11131.59
476.02	11183.08
476.20	11262.66
476.38	11433.52
476.56	11957.80
476.74	11641.82
476.92	11543.52
477.10	11618.42
477.28	11882.90
477.46	11943.75
477.64	12037.38
477.82	12189.51
478.00	12322.92
478.18	12358.03
478.36	12503.14
478.54	12486.76
478.72	12510.16
478.90	12739.54
479.08	12800.39
479.26	12980.61
479.44	13270.84
479.62	12856.56
479.80	13043.81
479.98	13383.18
480.16	13404.25
480.34	13235.73
480.52	13486.17
480.70	13500.21
480.88	13415.95
481.06	13701.50
481.24	13523.62
481.41	13991.72
481.59	14134.50
481.77	14127.47
481.95	14443.45
482.13	14361.53
482.31	14431.74
482.49	14647.07
482.67	14785.16
482.85	14862.40
483.03	15028.58
483.21	15206.46
483.39	15054.33
483.57	14988.79
483.74	15218.16
483.92	15328.17
484.10	15316.47
484.28	15943.73
484.46	15896.92
484.64	15929.69
484.82	15936.71
485.00	15866.49
485.18	15861.81
485.35	16313.53
485.53	16140.33
485.71	15920.32
485.89	16400.13
486.07	16210.55
486.25	16610.78
486.43	16868.24
486.61	16931.44
486.78	17006.33
486.96	16882.28
487.14	17228.68
487.32	17500.19
487.50	17884.03
487.68	18050.21
487.85	18080.64
488.03	18424.70
488.21	18492.57
488.39	18258.52
488.57	18204.69
488.75	18300.65
488.92	18792.16
489.10	19084.73
489.28	19150.26
489.46	19475.60
489.64	19480.28
489.81	19791.57
489.99	19756.46
490.17	19840.72
490.35	19992.86
490.53	19997.54
490.70	19976.47
490.88	20149.67
491.06	20580.33
491.24	20524.16
491.41	20475.01
491.59	20589.69
491.77	20540.54
491.95	20882.26
492.13	20891.62
492.30	21184.19
492.48	21350.37
492.66	21488.46
492.84	21205.25
493.01	21996.35
493.19	21802.09
493.37	22185.94
493.54	21893.37
493.72	22237.43
493.90	22539.36
494.08	22684.47
494.25	23026.19
494.43	23044.91
494.61	23143.22
494.79	22878.74
494.96	23051.94
495.14	23105.77
495.32	23393.65
495.49	23307.05
495.67	23360.89
495.85	23564.51
496.02	24013.90
496.20	23866.44
496.38	23744.73
496.55	23971.77
496.73	24556.90
496.91	24238.59
497.09	24627.12
497.26	24542.86
497.44	24863.51
497.62	24882.24
497.79	25186.50
497.97	24678.61
498.14	25188.85
498.32	25296.51
498.50	25495.46
498.67	25500.14
498.85	25872.28
499.03	25811.43
499.20	26106.34
499.38	26054.84
499.56	25879.30
499.73	26216.34
499.91	26106.34
500.08	26010.37
500.26	25951.86
500.44	26525.29
500.61	26263.15
500.79	26305.28
500.97	26787.43
501.14	27005.10
501.32	26775.73
501.49	26948.93
501.67	27016.80
501.84	27161.92
502.02	26867.01
502.20	27311.71
502.37	27770.46
502.55	27405.33
502.72	27489.59
502.90	27789.18
503.07	27770.46
503.25	27690.88
503.43	27513.00
503.60	27805.56
503.78	27793.86
503.95	27775.14
504.13	28414.10
504.30	28332.18
504.48	27988.13
504.65	28900.94
504.83	28538.15
505.01	28800.29
505.18	28634.11
505.36	29106.90
505.53	29317.55
505.71	29139.67
505.88	29287.12
506.06	28907.96
506.23	29317.55
506.41	29181.80
506.58	29638.20
506.76	29518.84
506.93	29633.52
507.11	29675.65
507.28	29970.56
507.46	29720.12
507.63	29734.17
507.81	29656.93
507.98	29944.81
508.16	30216.32
508.33	30005.67
508.50	30436.33
508.68	30553.35
508.85	30593.14
509.03	30366.11
509.20	30492.50
509.38	30859.96
509.55	30881.03
509.73	31108.06
509.90	30998.06
510.08	30789.75
510.25	31419.35
510.42	31199.34
510.60	31421.69
510.77	31456.80
510.95	31494.25
511.12	31697.88
511.30	31718.94
511.47	31735.32
511.64	31634.68
511.82	31913.20
511.99	31835.97
512.17	31793.84
512.34	31906.18
512.51	32439.82
512.69	31943.63
512.86	32341.52
513.04	32613.02
513.21	32601.32
513.38	32624.73
513.56	32488.98
513.73	32414.08
513.90	32811.97
514.08	32914.95
514.25	33097.52
514.43	33067.09
514.60	32931.34
514.77	32975.81
514.95	32961.76
515.12	33160.71
515.29	33577.33
515.47	33661.58
515.64	33467.32
515.81	33605.41
515.99	33825.42
516.16	33577.33
516.33	33408.81
516.51	33656.90
516.68	32989.85
516.85	32952.40
517.03	33312.84
517.20	33530.51
517.37	33469.66
517.54	34054.79
517.72	34075.86
517.89	33369.02
518.06	33603.07
518.24	33582.01
518.41	33860.53
518.58	34117.99
518.75	34164.80
518.93	34979.31
519.10	34483.11
519.27	34469.07
519.45	34689.08
519.62	34745.25
519.79	34778.02
519.96	35187.61
520.14	35274.21
520.31	34824.83
520.48	34988.67
520.65	34902.07
520.83	35292.94
521.00	35353.79
521.17	35306.98
521.34	35775.09
521.52	35524.65
521.69	35475.50
521.86	35704.87
522.03	35952.97
522.20	35374.86
522.38	36065.31
522.55	36116.81
522.72	36224.47
522.89	36018.50
523.07	36240.86
523.24	36294.69
523.41	36428.10
523.58	36673.85
523.75	37275.37
523.92	36643.43
524.10	36987.49
524.27	37111.53
524.44	36526.40
524.61	37139.62
524.78	37085.79
524.96	36849.39
525.13	37153.66
525.30	37338.57
525.47	37207.50
525.64	37240.26
525.81	37289.42
525.98	36992.17
526.16	36659.81
526.33	36835.35
526.50	37558.58
526.67	36938.33
526.84	37127.92
527.01	37055.36
527.18	37471.98
527.36	37764.54
527.53	37287.07
527.70	37916.68
527.87	37837.10
528.04	37937.74
528.21	38141.37
528.38	38286.48
528.55	38494.79
528.72	38323.93
528.89	38572.03
529.07	38197.54
529.24	38356.70
529.41	38628.20
529.58	38391.81
529.75	38188.18
529.92	38630.54
530.09	39012.05
530.26	38831.83
530.43	39070.56
530.60	38550.96
530.77	39042.48
530.94	38775.66
531.11	38773.31
531.28	38845.87
531.46	39042.48
531.63	39398.24
531.80	39005.03
531.97	39276.53
532.14	38937.15
532.31	39047.16
532.48	39180.57
532.65	39042.48
532.82	39325.68
532.99	39646.33
533.16	39281.21
533.33	39583.14
533.50	39594.84
533.67	38972.26
533.84	39505.90
534.01	39503.56
534.18	39459.09
534.35	40208.06
534.52	39423.98
534.69	40158.91
534.86	39997.41
535.03	40081.67
535.20	40467.86
535.37	40631.70
535.54	40470.20
535.71	40547.44
535.88	40437.44
536.05	40264.24
536.22	40013.80
536.38	40402.33
536.55	40568.51
536.72	40495.95
536.89	40341.47
537.06	40259.55
537.23	41038.95
537.40	40329.77
537.57	40776.81
537.74	40620.00
537.91	41060.02
538.08	40830.65
538.25	40648.08
538.42	40636.38
538.59	40825.96
538.75	40594.25
538.92	40917.25
539.09	41233.22
539.26	41193.43
539.43	40935.97
539.60	40952.35
539.77	40835.33
539.94	40680.85
540.11	40748.73
540.28	41184.07
540.44	41158.32
540.61	41233.22
540.78	40959.38
540.95	41134.92
541.12	41525.78
541.29	41076.40
541.46	41577.28
541.62	41219.17
541.79	41544.51
541.96	41375.99
542.13	41029.59
542.30	41539.83
542.47	41806.65
542.63	41649.83
542.80	42038.36
542.97	41907.29
543.14	42270.08
543.31	41806.65
543.48	42384.76
543.64	42508.81
543.81	42445.62
543.98	42422.21
544.15	42602.43
544.32	42080.49
544.48	42721.80
544.65	42630.52
544.82	42363.70
544.99	42686.69
545.16	42316.89
545.32	41902.61
545.49	43089.26
545.66	42939.47
545.83	43063.52
546.00	43072.88
546.16	42892.66
546.33	42562.64
546.50	42429.23
546.67	43035.43
546.83	42855.21
547.00	42981.60
547.17	42447.96
547.34	42895.00
547.50	42906.70
547.67	43232.04
547.84	42995.64
548.00	42993.30
548.17	43732.91
548.34	43700.14
548.51	43489.49
548.67	43117.35
548.84	43206.29
549.01	43058.84
549.18	43318.64
549.34	42913.72
549.51	43906.11
549.68	43477.79
549.84	43543.33
550.01	43529.28
550.18	43597.16
550.34	43742.27
550.51	43320.98
550.68	43335.02
550.84	43239.06
551.01	43761.00
551.18	43487.15
551.34	43552.69
551.51	44041.86
551.68	44318.04
551.84	44151.87
552.01	44208.04
552.18	43768.02
552.34	43313.95
552.51	43716.53
552.68	44037.18
552.84	44163.57
553.01	44201.02
553.18	43859.30
553.34	44224.42
553.51	44121.44
553.67	44079.31
553.84	44348.47
554.01	44573.16
554.17	44800.19
554.34	44364.85
554.51	44397.62
554.67	44512.31
554.84	44114.42
555.00	43861.64
555.17	43948.24
555.33	44158.89
555.50	44512.31
555.67	44091.01
555.83	44865.73
556.00	44383.58
556.16	45024.89
556.33	44715.93
556.50	44589.55
556.66	44519.33
556.83	44385.92
556.99	44451.45
557.16	45017.86
557.32	44559.12
557.49	44788.49
557.65	44479.54
557.82	44804.88
557.98	44666.78
558.15	44875.09
558.32	44755.72
558.48	44203.36
558.65	44821.26
558.81	45123.19
558.98	44605.93
559.14	44500.61
559.31	44779.13
559.47	44409.32
559.64	44900.84
559.80	44786.15
559.97	44657.42
560.13	44671.46
560.30	44617.63
560.46	45052.97
560.63	45364.26
560.79	44964.03
560.96	45038.93
561.12	45155.96
561.29	45481.29
561.45	44734.66
561.61	45249.58
561.78	44732.32
561.94	44924.24
562.11	44870.41
562.27	45144.25
562.44	44971.05
562.60	45097.44
562.77	45179.36
562.93	45268.30
563.10	45357.24
563.26	44900.84
563.42	45102.12
563.59	45127.87
563.75	45275.32
563.92	45783.22
564.08	45521.08
564.24	45687.26
564.41	45514.06
564.57	45324.47
564.74	45162.98
564.90	45647.47
565.07	45172.34
565.23	45258.94
565.39	45425.12
565.56	45481.29
565.72	44800.19
565.88	44980.42
566.05	45064.67
566.21	45216.81
566.38	45074.04
566.54	45020.20
566.70	45900.25
566.87	45617.04
567.03	45666.19
567.19	45855.78
567.36	45401.71
567.52	45153.62
567.68	45411.07
567.85	45422.78
568.01	45188.72
568.17	45116.17
568.34	45668.53
568.50	45488.31
568.66	45666.19
568.83	45923.65
568.99	44858.71
569.15	45364.26
569.32	45333.84
569.48	45242.56
569.64	46164.73
569.81	45448.52
569.97	45235.53
570.13	45757.47
570.30	44825.94
570.46	45296.39
570.62	45411.07
570.78	45460.23
570.95	45310.43
571.11	45471.93
571.27	45373.63
571.43	45272.98
571.60	45357.24
571.76	45617.04
571.92	45904.93
572.09	45897.91
572.25	45649.81
572.41	45762.15
572.57	46134.30
572.74	46120.26
572.90	45757.47
573.06	45649.81
573.22	45502.35
573.38	45825.35
573.55	45579.59
573.71	45563.21
573.87	45935.35
574.03	45275.32
574.20	45352.56
574.36	45766.84
574.52	45420.44
574.68	45862.80
574.84	45986.85
575.01	45684.92
575.17	45933.01
575.33	45703.64
575.49	45752.79
575.65	46134.30
575.82	45897.91
575.98	45729.39
576.14	45853.44
576.30	45869.82
576.46	45521.08
576.62	45989.19
576.79	45401.71
576.95	45780.88
577.11	45839.39
577.27	45666.19
577.43	45745.77
577.59	45556.19
577.75	45263.62
577.92	45502.35
578.08	45310.43
578.24	45539.80
578.40	45727.05
578.56	46036.00
578.72	45631.08
578.88	45942.38
579.04	45867.48
579.21	45673.21
579.37	45949.40
579.53	45766.84
579.69	45670.87
579.85	45806.62
580.01	45792.58
580.17	45549.17
580.33	45923.65
580.49	45869.82
580.65	45881.52
580.82	45717.68
580.98	45701.30
581.14	46071.10
581.30	45642.79
581.46	45937.69
581.62	45729.39
581.78	45691.94
581.94	46286.43
582.10	45977.48
582.26	46143.66
582.42	45853.44
582.58	45986.85
582.74	45839.39
582.90	45893.22
583.06	46092.17
583.22	46087.49
583.38	46319.20
583.54	45743.43
583.70	45792.58
583.86	46220.90
584.02	45443.84
584.18	45998.55
584.34	45649.81
584.50	45933.01
584.66	45923.65
584.82	45846.41
584.98	45881.52
585.14	46038.34
585.30	45841.73
585.46	45762.15
585.62	45500.01
585.78	45808.96
585.94	45694.28
586.10	45680.24
586.26	45893.22
586.42	46300.48
586.58	46085.15
586.74	45998.55
586.90	45518.74
587.06	45909.61
587.22	45993.87
587.38	46146.00
587.54	45865.14
587.70	46117.92
587.86	45944.72
588.02	45935.35
588.18	45741.09
588.34	45551.51
588.49	45635.77
588.65	45326.81
588.81	45399.37
588.97	45684.92
589.13	45553.85
589.29	45485.97
589.45	45675.55
589.61	45638.11
589.77	46337.93
589.93	45893.22
590.08	46007.91
590.24	46071.10
590.40	45993.87
590.56	46157.70
590.72	46045.36
590.88	45989.19
591.04	46323.88
591.20	46588.36
591.35	46171.75
591.51	46398.78
591.67	45977.48
591.83	46064.08
591.99	46033.66
592.15	46178.77
592.31	45853.44
592.46	46260.69
592.62	46316.86
592.78	45984.51
592.94	45940.04
593.10	45933.01
593.26	45947.06
593.41	45970.46
593.57	45897.91
593.73	45940.04
593.89	46113.23
594.05	46256.01
594.20	45961.10
594.36	46092.17
594.52	46298.14
594.68	46089.83
594.84	46167.07
594.99	46328.56
595.15	45883.86
595.31	46398.78
595.47	46377.72
595.62	46181.11
595.78	45963.44
595.94	46485.38
596.10	46057.06
596.25	46115.58
596.41	46110.89
596.57	45904.93
596.73	45514.06
596.88	45851.09
597.04	45975.14
597.20	46092.17
597.36	45724.71
597.51	46527.51
597.67	46356.65
597.83	46101.53
597.99	46405.80
598.14	46024.29
598.30	45895.56
598.46	45930.67
598.61	45956.42
598.77	45954.08
598.93	46143.66
599.09	46075.79
599.24	46471.34
599.40	46216.22
599.56	46583.68
599.71	46157.70
599.87	46190.47
600.03	46518.15
600.18	45916.63
600.34	45827.69
600.50	45839.39
600.65	45963.44
600.81	46270.05
600.97	46354.31
601.12	46204.52
601.28	46263.03
601.44	45766.84
601.59	45904.93
601.75	45879.18
601.91	46028.98
602.06	45928.33
602.22	45715.34
602.37	45759.81
602.53	46293.46
602.69	46651.56
602.84	46232.60
603.00	45970.46
603.16	46253.67
603.31	46073.45
603.47	46363.67
603.62	46021.95
603.78	46052.38
603.94	46469.00
604.09	46335.59
604.25	46021.95
604.40	46113.23
604.56	46005.57
604.71	46412.82
604.87	45750.45
605.03	45904.93
605.18	45904.93
605.34	45970.46
605.49	45593.64
605.65	46218.56
605.80	46040.68
605.96	45958.76
606.12	45890.88
606.27	46017.27
606.43	45792.58
606.58	45925.99
606.74	45895.56
606.89	45830.03
607.05	45883.86
607.20	45485.97
607.36	45612.36
607.51	45925.99
607.67	45570.23
607.82	45986.85
607.98	45865.14
608.13	45897.91
608.29	45874.50
608.44	45518.74
608.60	45233.19
608.75	45605.34
608.91	45628.74
609.06	45223.83
609.22	45916.63
609.37	45450.86
609.53	45373.63
609.68	45705.98
609.84	45497.67
609.99	45193.40
610.15	45071.70
610.30	45415.76
610.46	45017.86
610.61	45113.83
610.76	45315.11
610.92	45677.90
611.07	45502.35
611.23	45457.88
611.38	45174.68
611.54	45170.00
611.69	44949.99
611.84	45148.93
612.00	45078.72
612.15	45317.45
612.31	45397.03
612.46	45162.98
612.62	45659.17
612.77	45382.99
612.92	45745.77
613.08	44875.09
613.23	45022.54
613.39	44619.97
613.54	44538.05
613.69	45052.97
613.85	44608.27
614.00	44910.20
614.15	44940.63
614.31	45326.81
614.46	45172.34
614.62	45029.57
614.77	45254.26
614.92	45268.30
615.08	44612.95
615.23	44683.17
615.38	44524.01
615.54	44488.90
615.69	44729.98
615.84	44547.42
616.00	44697.21
616.15	45287.03
616.30	44589.55
616.46	44516.99
616.61	44231.44
616.76	44652.74
616.92	44304.00
617.07	44533.37
617.22	43995.05
617.37	44282.94
617.53	44559.12
617.68	45085.74
617.83	44629.34
617.99	44596.57
618.14	44360.17
618.29	44318.04
618.45	44292.30
618.60	43784.40
618.75	44011.43
618.90	43800.79
619.06	44053.56
619.21	44444.43
619.36	44308.68
619.51	44458.48
619.67	44126.12
619.82	44306.34
619.97	44168.25
620.12	43833.55
620.28	43718.87
620.43	44098.03
620.58	43983.35
620.73	44364.85
620.89	43985.69
621.04	43999.73
621.19	43859.30
621.34	43648.65
621.49	44226.76
621.65	43435.66
621.80	43943.56
621.95	43688.44
622.10	43833.55
622.25	43632.27
622.41	43711.84
622.56	43662.69
622.71	43461.41
622.86	43328.00
623.01	43653.33
623.16	43150.12
623.32	43330.34
623.47	43405.23
623.62	43927.17
623.77	43580.78
623.92	43679.08
624.07	43337.36
624.23	43047.13
624.38	43182.88
624.53	43440.34
624.68	43283.53
624.83	43480.13
624.98	43054.15
625.13	43210.97
625.29	43206.29
625.44	43194.59
625.59	42747.54
625.74	42639.88
625.89	42602.43
626.04	43206.29
626.19	43136.07
626.34	42609.45
626.49	42862.23
626.65	42927.77
626.80	43007.34
626.95	42440.93
627.10	42740.52
627.25	42866.91
627.40	42382.42
627.55	42286.46
627.70	42403.49
627.85	42616.47
628.00	42553.28
628.15	42918.40
628.30	42469.02
628.45	42464.34
628.60	42557.96
628.76	42244.33
628.91	42480.72
629.06	42534.56
629.21	42417.53
629.36	41890.91
629.51	41874.52
629.66	42382.42
629.81	42131.98
629.96	42096.88
630.11	42600.09
630.26	42171.77
630.41	42354.33
630.56	41846.44
630.71	41729.41
630.86	41701.32
631.01	42415.19
631.16	42040.70
631.31	41296.41
631.46	41605.36
631.61	41394.71
631.76	41610.04
631.91	41851.12
632.06	42410.51
632.21	41869.84
632.36	42122.62
632.51	42059.43
632.66	41804.31
632.81	41507.06
632.96	41825.37
633.10	41823.03
633.25	41940.06
633.40	41865.16
633.55	41635.79
633.70	41792.61
633.85	41567.91
634.00	41336.20
634.15	41696.64
634.30	41214.49
634.45	41237.90
634.60	41322.16
634.75	41291.73
634.90	41528.13
635.05	41322.16
635.19	41572.60
635.34	41656.85
635.49	41415.78
635.64	41038.95
635.79	41116.19
635.94	41132.57
636.09	40854.05
636.24	41097.47
636.39	40732.34
636.53	41198.11
636.68	41053.00
636.83	40996.82
636.98	41329.18
637.13	41010.87
637.28	41282.37
637.43	41544.51
637.57	41195.77
637.72	40947.67
637.87	41202.79
638.02	40411.69
638.17	41181.73
638.32	40933.63
638.46	40912.56
638.61	40481.91
638.76	40341.47
638.91	40832.99
639.06	41109.17
639.20	41261.30
639.35	40797.88
639.50	40641.06
639.65	40811.92
639.80	40512.33
639.94	40187.00
640.09	40404.67
640.24	40320.41
640.39	40144.87
640.54	40065.29
640.68	40811.92
640.83	40158.91
640.98	40182.32
641.13	39786.77
641.27	40388.28
641.42	39864.00
641.57	40130.83
641.72	40301.68
641.86	39887.41
642.01	39454.41
642.16	39929.54
642.31	39676.76
642.45	40385.94
642.60	39793.79
642.75	39491.86
642.90	40144.87
643.04	39622.93
643.19	39885.07
643.34	39576.12
643.48	39700.17
643.63	39871.03
643.78	40076.99
643.93	39807.83
644.07	39786.77
644.22	38972.26
644.37	39189.93
644.51	39482.50
644.66	39660.38
644.81	39742.30
644.95	39325.68
645.10	39608.89
645.25	39847.62
645.39	39653.36
645.54	39459.09
645.69	39239.08
645.83	39349.09
645.98	39182.91
646.13	38440.96
646.27	39981.03
646.42	39395.90
646.57	39037.80
646.71	38710.12
646.86	38916.09
647.00	39505.90
647.15	39014.39
647.30	39468.45
647.44	39072.90
647.59	39072.90
647.74	38794.38
647.88	38923.11
648.03	39281.21
648.17	38941.83
648.32	38789.70
648.47	38829.49
648.61	38862.26
648.76	38925.45
648.90	38836.51
649.05	38831.83
649.20	38792.04
649.34	38707.78
649.49	38440.96
649.63	38476.07
649.78	38670.33
649.92	38597.77
650.07	38953.54
650.21	39068.22
650.36	38550.96
650.51	38476.07
650.65	39028.43
650.80	39297.59
650.94	38780.34
651.09	38733.53
651.23	38464.36
651.38	38071.15
651.52	38272.44
651.67	38068.81
651.81	38604.80
651.96	38309.89
652.10	38375.42
652.25	38227.97
652.39	38305.21
652.54	38665.65
652.68	38288.82
652.83	38417.55
652.97	38572.03
653.12	38408.19
653.26	38117.96
653.41	37839.44
653.55	37975.19
653.70	38328.61
653.84	38014.98
653.99	37607.73
654.13	37890.93
654.27	37837.10
654.42	37865.19
654.56	37724.75
654.71	37907.32
654.85	37673.26
655.00	37745.82
655.14	37418.14
655.29	37207.50
655.43	37200.47
655.57	37556.24
655.72	37364.31
655.86	37186.43
656.01	37322.18
656.15	36886.84
656.30	36926.63
656.44	37102.17
656.58	37357.29
656.73	37148.98
656.87	37177.07
657.01	37081.11
657.16	37301.12
657.30	36737.05
657.45	36943.02
657.59	37228.56
657.73	37228.56
657.88	37361.97
658.02	37085.79
658.16	37469.64
658.31	37233.24
658.45	37111.53
658.60	37230.90
658.74	37134.94
658.88	36807.26
659.03	37294.10
659.17	36844.71
659.31	36783.86
659.46	36526.40
659.60	36732.37
659.74	36559.17
659.89	36575.55
660.03	36613.00
660.17	36861.10
660.32	36725.35
660.46	36678.54
660.60	36456.18
660.74	36388.31
660.89	36172.98
661.03	36245.54
661.17	36205.75
661.32	36030.21
661.46	36215.11
661.60	36407.03
661.74	36238.51
661.89	36322.77
662.03	35578.48
662.17	35941.27
662.31	36070.00
662.46	36360.22
662.60	35789.13
662.74	35772.75
662.88	35716.58
663.03	35660.40
663.17	35576.14
663.31	35271.87
663.45	35438.05
663.60	35391.24
663.74	35452.09
663.88	35564.44
664.02	35012.07
664.17	35370.18
664.31	35098.67
664.45	34827.17
664.59	34911.43
664.73	35005.05
664.88	35290.60
665.02	34813.13
665.16	35241.45
665.30	34869.30
665.44	34419.92
665.59	34469.07
665.73	34789.72
665.87	34445.66
666.01	34637.59
666.15	34199.91
666.29	34494.82
666.44	34422.26
666.58	34024.37
666.72	34532.26
666.86	34457.37
667.00	34345.02
667.14	33628.82
667.28	34181.18
667.43	34017.35
667.57	34422.26
667.71	34274.80
667.85	34176.50
667.99	33930.75
668.13	33919.04
668.27	33539.88
668.41	34120.33
668.56	33956.49
668.70	33617.11
668.84	33387.74
668.98	33354.97
669.12	33687.33
669.26	33717.76
669.40	33357.32
669.54	33354.97
669.68	33202.84
669.82	33027.30
669.96	33202.84
670.10	32863.46
670.25	33081.13
670.39	32854.10
670.53	32477.27
670.67	32615.37
670.81	32708.99
670.95	32566.21
671.09	32765.16
671.23	32381.31
671.37	32175.34
671.51	32364.93
671.65	32128.53
671.79	31931.93
671.93	32512.38
672.07	32063.00
672.21	31981.08
672.35	32187.05
672.49	32264.28
672.63	32334.50
672.77	31821.92
672.91	32037.25
673.05	32032.57
673.19	31796.18
673.33	31583.19
673.47	31662.77
673.61	31637.02
673.75	31314.03
673.89	30962.95
674.03	31077.63
674.17	30979.33
674.31	31384.24
674.45	31388.92
674.59	31456.80
674.73	31278.92
674.87	30909.11
675.01	30848.26
675.15	30937.20
675.29	30546.33
675.43	30892.73
675.56	30553.35
675.70	30890.39
675.84	30422.28
675.98	29837.15
676.12	30211.64
676.26	30309.94
676.40	30174.19
676.54	30132.06
676.68	30239.72
676.82	29589.05
676.96	29809.06
677.10	29993.97
677.23	29867.58
677.37	29591.39
677.51	29694.38
677.65	29029.66
677.79	29001.58
677.93	28865.83
678.07	28828.38
678.21	28507.72
678.34	28664.54
678.48	28823.70
678.62	28430.49
678.76	28100.47
678.90	28294.74
679.04	28271.33
679.18	28208.14
679.31	27988.13
679.45	27768.12
679.59	27941.32
679.73	27543.42
679.87	27866.42
680.00	27522.36
680.14	27594.92
680.28	28203.46
680.42	27690.88
680.56	27440.44
680.70	27377.25
680.83	27178.30
680.97	27604.28
681.11	27218.09
681.25	27330.44
681.39	27115.11
681.52	27332.78
681.66	27009.78
681.80	26867.01
681.94	26602.53
682.07	26256.13
682.21	26288.90
682.35	26593.17
682.49	26450.39
682.62	26001.01
682.76	25933.14
682.90	26005.69
683.04	26258.47
683.17	25933.14
683.31	25699.08
683.45	25575.03
683.59	25631.21
683.72	25640.57
683.86	25638.23
684.00	25827.81
684.13	24950.11
684.27	25502.48
684.41	24903.30
684.55	24961.81
684.68	25053.09
684.82	25223.95
684.96	24634.14
685.09	24797.98
685.23	24865.85
685.37	24638.82
685.50	24959.47
685.64	24741.80
685.78	24369.66
685.91	24219.86
686.05	23915.59
686.19	23449.83
686.32	23571.54
686.46	23314.08
686.60	23388.97
686.73	23143.22
686.87	23119.81
687.01	23117.47
687.14	22918.53
687.28	22794.48
687.42	22852.99
687.55	22927.89
687.69	22806.18
687.82	22710.22
687.96	22881.08
688.10	22675.11
688.23	22494.89
688.37	22363.82
688.50	22434.03
688.64	22249.13
688.78	22539.36
688.91	22235.09
689.05	22104.02
689.18	22015.08
689.32	21776.34
689.46	22141.47
689.59	22342.75
689.73	22207.00
689.86	21542.29
690.00	21710.81
690.13	21649.96
690.27	21598.46
690.41	20903.32
690.54	21352.71
690.68	21172.49
690.81	21177.17
690.95	21158.44
691.08	20893.96
691.22	21039.08
691.35	21165.46
691.49	21092.91
691.62	20840.13
691.76	20683.31
691.89	20786.30
692.03	20636.50
692.16	20276.06
692.30	20299.47
692.43	20194.14
692.57	19742.42
692.70	19803.27
692.84	20126.27
692.97	19613.69
693.11	19819.66
693.24	19410.06
693.38	19580.92
693.51	19868.81
693.65	19756.46
693.78	19494.32
693.92	19316.44
694.05	19323.46
694.19	19648.80
694.32	19129.20
694.45	19145.58
694.59	19068.34
694.72	18916.21
694.86	18871.74
694.99	18663.43
695.13	18705.56
695.26	18590.88
695.39	18438.74
695.53	18743.01
695.66	18494.91
695.80	18459.81
695.93	18183.62
696.07	18178.94
696.20	18359.16
696.33	18218.73
696.47	18036.17
696.60	17771.69
696.73	17795.09
696.87	17652.32
697.00	17689.77
697.14	17497.84
697.27	17483.80
697.40	17219.32
697.54	17390.18
697.67	17315.28
697.80	17364.43
697.94	17207.62
698.07	17067.19
698.21	16947.82
698.34	16730.15
698.47	17060.16
698.61	16727.81
698.74	16882.28
698.87	16561.63
699.01	16329.92
699.14	16208.21
699.27	16201.19
699.40	16362.69
699.54	16212.89
699.67	16039.69
699.80	15838.41
699.94	16091.18
700.07	15611.37
700.20	15871.17
700.34	15997.56
700.47	16039.69
700.60	15917.98
700.73	15625.42
700.87	15559.88
701.00	15433.49
701.13	15353.91
701.26	15286.04
701.40	15286.04
701.53	15124.54
701.66	15389.02
701.79	14951.34
701.93	14932.62
702.06	14827.29
702.19	14831.97
702.32	14839.00
702.46	14661.12
702.59	14916.23
702.72	14775.80
702.85	14539.41
702.99	14588.56
703.12	14618.99
703.25	14340.46
703.38	14331.10
703.51	14513.66
703.65	14382.59
703.78	13886.40
703.91	13589.15
704.04	13895.76
704.17	14090.02
704.31	13898.10
704.44	13940.23
704.57	13923.85
704.70	13664.05
704.83	13802.14
704.96	13785.76
705.10	13392.55
705.23	13645.32
>>>>>End Processed Spectral Data<<<<<
