SpectraSuite Data File
++++++++++++++++++++++++++++++++++++
Date: Fri Oct 25 10:47:25 EDT 2013
User: price-jones
Dark Spectrum Present: No
Reference Spectrum Present: No
Number of Sampled Component Spectra: 1
Spectrometers: USB2+H05261
Integration Time (usec): 100000 (USB2+H05261)
Spectra Averaged: 1 (USB2+H05261)
Boxcar Smoothing: 0 (USB2+H05261)
Correct for Electrical Dark: No (USB2+H05261)
Strobe/Lamp Enabled: No (USB2+H05261)
Correct for Detector Non-linearity: No (USB2+H05261)
Correct for Stray Light: No (USB2+H05261)
Number of Pixels in Processed Spectrum: 2048
>>>>>Begin Processed Spectral Data<<<<<
365.73	124.05
365.92	124.05
366.12	124.05
366.32	77.24
366.52	23.41
366.72	91.28
366.91	42.13
367.11	9.36
367.31	56.17
367.51	39.79
367.70	0.00
367.90	70.22
368.10	28.09
368.30	42.13
368.49	65.54
368.69	44.47
368.89	93.62
369.09	32.77
369.28	88.94
369.48	84.26
369.68	138.09
369.87	126.39
370.07	128.73
370.27	105.32
370.47	227.03
370.66	381.51
370.86	433.00
371.06	402.57
371.25	390.87
371.45	428.32
371.65	470.45
371.84	451.72
372.04	435.34
372.24	500.87
372.44	486.83
372.63	475.13
372.83	491.51
373.03	463.43
373.22	486.83
373.42	470.45
373.62	503.22
373.81	528.96
374.01	521.94
374.21	550.03
374.40	535.98
374.60	608.54
374.79	589.82
374.99	543.00
375.19	540.66
375.38	528.96
375.58	521.94
375.78	636.63
375.97	526.62
376.17	660.03
376.37	568.75
376.56	498.53
376.76	552.37
376.95	533.64
377.15	622.58
377.35	636.63
377.54	629.60
377.74	610.88
377.93	631.94
378.13	592.16
378.33	575.77
378.52	678.76
378.72	606.20
378.91	643.65
379.11	528.96
379.31	676.41
379.50	643.65
379.70	582.79
379.89	709.18
380.09	685.78
380.28	645.99
380.48	734.93
380.68	613.22
380.87	620.24
381.07	737.27
381.26	676.41
381.46	650.67
381.65	594.50
381.85	657.69
382.04	674.07
382.24	620.24
382.43	732.59
382.63	695.14
382.83	763.01
383.02	674.07
383.22	758.33
383.41	660.03
383.61	655.35
383.80	741.95
384.00	760.67
384.19	702.16
384.39	753.65
384.58	770.04
384.78	718.54
384.97	688.12
385.17	763.01
385.36	734.93
385.56	772.38
385.75	770.04
385.95	830.89
386.14	763.01
386.34	709.18
386.53	781.74
386.72	805.14
386.92	856.64
387.11	929.19
387.31	833.23
387.50	917.49
387.70	767.70
387.89	737.27
388.09	823.87
388.28	826.21
388.48	798.12
388.67	791.10
388.86	805.14
389.06	863.66
389.25	915.15
389.45	910.47
389.64	997.07
389.84	905.79
390.03	912.81
390.22	954.94
390.42	905.79
390.61	936.21
390.81	999.41
391.00	936.21
391.19	929.19
391.39	1020.47
391.58	1006.43
391.78	954.94
391.97	997.07
392.16	957.28
392.36	1006.43
392.55	966.64
392.75	985.37
392.94	924.51
393.13	959.62
393.33	961.96
393.52	1046.22
393.71	1008.77
393.91	1006.43
394.10	1006.43
394.29	1029.84
394.49	1008.77
394.68	1179.63
394.88	1107.07
395.07	1135.16
395.26	1123.46
395.46	1128.14
395.65	1149.20
395.84	1142.18
396.04	1170.27
396.23	1102.39
396.42	1062.60
396.62	1181.97
396.81	1165.59
397.00	1139.84
397.19	1174.95
397.39	1174.95
397.58	1245.16
397.77	1235.80
397.97	1252.19
398.16	1256.87
398.35	1268.57
398.55	1291.98
398.74	1331.76
398.93	1364.53
399.12	1390.28
399.32	1380.92
399.51	1280.27
399.70	1355.17
399.90	1322.40
400.09	1366.87
400.28	1423.05
400.47	1516.67
400.67	1437.09
400.86	1479.22
401.05	1547.09
401.24	1467.52
401.44	1603.27
401.63	1579.86
401.82	1455.81
402.01	1369.21
402.21	1495.60
402.40	1558.80
402.59	1540.07
402.78	1547.09
402.97	1516.67
403.17	1572.84
403.36	1554.12
403.55	1666.46
403.74	1626.67
403.93	1687.53
404.13	1607.95
404.32	1710.93
404.51	1661.78
404.70	1774.13
404.89	1633.69
405.09	1729.66
405.28	1661.78
405.47	1713.27
405.66	1703.91
405.85	1713.27
406.05	1710.93
406.24	1708.59
406.43	1727.32
406.62	1872.43
406.81	1926.26
407.00	1792.85
407.20	1816.26
407.39	1806.89
407.58	1785.83
407.77	1996.48
407.96	1998.82
408.15	2078.40
408.34	1895.83
408.54	1902.86
408.73	1998.82
408.92	2005.84
409.11	2036.27
409.30	2125.21
409.49	2026.90
409.68	2153.29
409.87	2050.31
410.07	1961.37
410.26	2017.54
410.45	2078.40
410.64	2136.91
410.83	2214.15
411.02	2258.62
411.21	2246.91
411.40	2087.76
411.59	2282.02
411.78	2239.89
411.98	2305.43
412.17	2476.29
412.36	2246.91
412.55	2284.36
412.74	2499.69
412.93	2523.10
413.12	2413.09
413.31	2546.50
413.50	2509.05
413.69	2403.73
413.88	2686.94
414.07	2537.14
414.26	2586.29
414.45	2738.43
414.64	2590.97
414.83	2654.17
415.02	2715.02
415.22	2682.25
415.41	2888.22
415.60	2820.35
415.79	2698.64
415.98	2848.43
416.17	2827.37
416.36	2792.26
416.55	2848.43
416.74	2918.65
416.93	2979.50
417.12	2888.22
417.31	2897.58
417.50	2993.55
417.69	3145.68
417.88	2977.16
418.07	2988.86
418.26	3014.61
418.45	3026.31
418.64	3096.53
418.83	3164.40
419.02	3124.62
419.21	3185.47
419.39	3239.30
419.58	3260.37
419.77	3222.92
419.96	3192.49
420.15	3297.81
420.34	3288.45
420.53	3389.10
420.72	3382.07
420.91	3475.70
421.10	3379.73
421.29	3597.40
421.48	3438.25
421.67	3452.29
421.86	3405.48
422.05	3456.97
422.24	3452.29
422.43	3442.93
422.61	3459.31
422.80	3503.78
422.99	3456.97
423.18	3527.19
423.37	3534.21
423.56	3513.14
423.75	3463.99
423.94	3520.17
424.13	3358.67
424.32	3337.60
424.50	3566.98
424.69	3641.87
424.88	3618.47
425.07	3442.93
425.26	3536.55
425.45	3487.40
425.64	3506.12
425.83	3536.55
426.01	3712.09
426.20	3665.28
426.39	3482.72
426.58	3578.68
426.77	3606.77
426.96	3597.40
427.15	3595.06
427.33	3726.13
427.52	3728.47
427.71	3737.84
427.90	3407.82
428.09	3737.84
428.28	3674.64
428.46	3644.21
428.65	3744.86
428.84	3908.69
429.03	3904.01
429.22	3819.75
429.40	3744.86
429.59	3889.97
429.78	3550.59
429.97	3503.78
430.16	3791.67
430.34	3796.35
430.53	3857.20
430.72	3805.71
430.91	3779.97
431.10	3892.31
431.28	3990.61
431.47	4095.94
431.66	4243.39
431.85	4042.11
432.03	4201.26
432.22	4189.56
432.41	4124.02
432.60	4093.60
432.79	4292.54
432.97	4341.69
433.16	4276.16
433.35	4210.62
433.54	4102.96
433.72	4262.12
433.91	4252.75
434.10	4381.48
434.28	4124.02
434.47	4325.31
434.66	4409.57
434.85	4409.57
435.03	4337.01
435.22	4381.48
435.41	4610.86
435.59	4599.15
435.78	4578.09
435.97	4587.45
436.16	4592.13
436.34	4428.29
436.53	4657.67
436.72	4669.37
436.90	4608.51
437.09	4564.04
437.28	4641.28
437.46	4559.36
437.65	4624.90
437.84	4692.77
438.02	4615.54
438.21	4727.88
438.40	4725.54
438.58	4903.42
438.77	4964.28
438.96	4908.10
439.14	4915.12
439.33	4978.32
439.52	5041.51
439.70	4950.23
439.89	5060.24
440.08	5151.52
440.26	5123.43
440.45	5184.29
440.63	5397.28
440.82	5338.76
441.01	5359.83
441.19	5490.90
441.38	5467.49
441.57	5500.26
441.75	5394.93
441.94	5420.68
442.12	5626.65
442.31	5713.25
442.50	5643.03
442.68	5685.16
442.87	5633.67
443.05	5731.97
443.24	5809.21
443.43	5769.42
443.61	5708.57
443.80	5966.03
443.98	5547.07
444.17	5467.49
444.35	5919.21
444.54	5921.56
444.73	5846.66
444.91	5856.02
445.10	5715.59
445.28	5778.78
445.47	5813.89
445.65	5813.89
445.84	5753.04
446.02	5832.62
446.21	5860.70
446.39	5898.15
446.58	5996.45
446.77	5987.09
446.95	5839.64
447.14	5865.38
447.32	6040.92
447.51	5921.56
447.69	6076.03
447.88	5874.74
448.06	5989.43
448.25	6045.60
448.43	5940.28
448.62	5809.21
448.80	5968.37
448.99	6218.80
449.17	6099.44
449.36	5980.07
449.54	6071.35
449.73	6230.51
449.91	6253.91
450.10	6443.49
450.28	6225.82
450.46	6375.62
450.65	6525.41
450.83	6392.00
451.02	6307.74
451.20	6558.18
451.39	6317.11
451.57	6338.17
451.76	6377.96
451.94	6420.09
452.13	6443.49
452.31	6277.32
452.49	6445.84
452.68	6359.24
452.86	6403.71
453.05	6539.46
453.23	6375.62
453.42	6506.69
453.60	6509.03
453.78	6754.79
453.97	6715.00
454.15	6796.92
454.34	6527.75
454.52	6794.58
454.70	6757.13
454.89	6925.65
455.07	6693.93
455.26	6864.79
455.44	6944.37
455.62	6892.88
455.81	6902.24
455.99	6920.96
456.17	6960.75
456.36	6958.41
456.54	6981.82
456.73	7192.47
456.91	7344.60
457.09	7112.89
457.28	7295.45
457.46	7330.56
457.64	7332.90
457.83	7304.81
458.01	7222.89
458.19	7461.63
458.38	7407.80
458.56	7389.07
458.74	7375.03
458.93	7548.23
459.11	7492.05
459.29	7646.53
459.48	7564.61
459.66	7499.08
459.84	7597.38
460.03	7672.28
460.21	7744.83
460.39	7646.53
460.57	7489.71
460.76	7571.63
460.94	7627.81
461.12	7693.34
461.31	7712.07
461.49	7653.55
461.67	7667.60
461.85	8030.38
462.04	7782.28
462.22	8486.78
462.40	8009.31
462.59	7796.32
462.77	7962.50
462.95	8161.45
463.13	7920.37
463.32	7887.61
463.50	7911.01
463.68	8243.37
463.86	8173.15
464.05	8182.51
464.23	7981.23
464.41	8135.70
464.59	8170.81
464.78	8168.47
464.96	8173.15
465.14	8358.05
465.32	8491.46
465.50	8208.26
465.69	8358.05
465.87	8397.84
466.05	8243.37
466.23	8430.61
466.41	8252.73
466.60	8535.93
466.78	8379.12
466.96	8322.94
467.14	8484.44
467.32	8643.60
467.51	8524.23
467.69	8231.66
467.87	8409.54
468.05	8566.36
468.23	8542.96
468.41	8557.00
468.60	8531.25
468.78	8599.13
468.96	8659.98
469.14	8985.32
469.32	8833.18
469.50	8655.30
469.69	8997.02
469.87	8922.12
470.05	9217.03
470.23	8828.50
470.41	8943.19
470.59	8943.19
470.77	8690.41
470.95	8975.95
471.14	9191.28
471.32	8992.34
471.50	9219.37
471.68	9207.67
471.86	9343.42
472.04	9186.60
472.22	9533.00
472.40	9107.02
472.58	9446.40
472.77	9586.83
472.95	9621.94
473.13	9856.00
473.31	9488.53
473.49	9432.36
473.67	9451.08
473.85	9610.24
474.03	9699.18
474.21	9867.70
474.39	10001.11
474.57	10080.69
474.75	10265.59
474.93	10118.14
475.12	9977.70
475.30	10296.02
475.48	10136.86
475.66	10359.21
475.84	10211.76
476.02	10370.91
476.20	10366.23
476.38	10710.29
476.56	10874.13
476.74	10663.48
476.92	10565.18
477.10	10789.87
477.28	11000.52
477.46	10864.77
477.64	11091.80
477.82	11253.30
478.00	11325.85
478.18	11398.41
478.36	11569.27
478.54	11625.44
478.72	11548.20
478.90	11747.15
479.08	11955.46
479.26	11913.33
479.44	12020.99
479.62	12006.95
479.80	12095.89
479.98	12140.36
480.16	12613.15
480.34	12313.56
480.52	12683.36
480.70	12468.03
480.88	12329.94
481.06	12709.11
481.24	12760.60
481.41	12915.08
481.59	13018.06
481.77	13088.28
481.95	13275.52
482.13	13055.51
482.31	13209.98
482.49	13429.99
482.67	13444.04
482.85	13664.05
483.03	14045.55
483.21	13720.22
483.39	13898.10
483.57	14157.90
483.74	13788.10
483.92	14108.75
484.10	13895.76
484.28	14340.46
484.46	14618.99
484.64	14822.61
484.82	14272.59
485.00	14827.29
485.18	15094.11
485.35	15239.23
485.53	14953.68
485.71	14916.23
485.89	15091.77
486.07	15183.06
486.25	15332.85
486.43	15489.67
486.61	15723.72
486.78	16081.82
486.96	15976.50
487.14	16379.07
487.32	16266.72
487.50	16219.91
487.68	16491.41
487.85	16844.84
488.03	17053.14
488.21	17205.28
488.39	17174.85
488.57	17191.23
488.75	17231.02
488.92	17593.81
489.10	17664.02
489.28	17521.25
489.46	17860.63
489.64	17687.43
489.81	18429.38
489.99	18354.48
490.17	18345.12
490.35	18644.71
490.53	18574.49
490.70	18944.30
490.88	18520.66
491.06	19138.56
491.24	18845.99
491.41	19056.64
491.59	18738.33
491.77	19304.74
491.95	19101.11
492.13	19669.86
492.30	19857.10
492.48	19754.12
492.66	19906.26
492.84	20308.83
493.01	20217.55
493.19	20215.21
493.37	20322.87
493.54	20575.65
493.72	20608.42
493.90	20737.15
494.08	21111.63
494.25	21371.43
494.43	21373.77
494.61	21465.05
494.79	21544.63
494.96	21284.83
495.14	21415.90
495.32	21633.57
495.49	21907.41
495.67	21778.68
495.85	21947.20
496.02	21881.67
496.20	22314.67
496.38	22251.47
496.55	22356.80
496.73	23138.54
496.91	22586.17
497.09	23271.95
497.26	22874.06
497.44	23035.55
497.62	22925.55
497.79	23484.94
497.97	23335.14
498.14	23587.92
498.32	23463.87
498.50	23407.70
498.67	23819.63
498.85	24016.24
499.03	24184.76
499.20	24175.39
499.38	23941.34
499.56	24088.79
499.73	24084.11
499.91	24435.19
500.08	24657.54
500.26	24318.17
500.44	24638.82
500.61	24730.10
500.79	24650.52
500.97	24929.05
501.14	25383.11
501.32	25355.02
501.49	24964.15
501.67	25092.88
501.84	25462.69
502.02	25565.67
502.20	25673.34
502.37	25963.56
502.55	26038.46
502.72	25893.35
502.90	26092.29
503.07	25773.98
503.25	25848.88
503.43	25867.60
503.60	26115.70
503.78	25809.09
503.95	26389.54
504.13	26338.05
504.30	26590.83
504.48	26672.74
504.65	26862.33
504.83	26946.59
505.01	26934.88
505.18	27159.58
505.36	27255.54
505.53	26944.25
505.71	27421.72
505.88	27690.88
506.06	27040.21
506.23	27365.54
506.41	27199.37
506.58	27349.16
506.76	27985.79
506.93	27850.03
507.11	27763.43
507.28	27894.50
507.46	27948.34
507.63	27917.91
507.81	27688.54
507.98	28009.19
508.16	28135.58
508.33	28425.81
508.50	28414.10
508.68	28673.90
508.85	28407.08
509.03	28634.11
509.20	28980.51
509.38	28992.22
509.55	28924.34
509.73	29027.32
509.90	29149.03
510.08	29333.93
510.25	29237.97
510.42	29406.49
510.60	29734.17
510.77	29483.73
510.95	29804.38
511.12	29724.80
511.30	29617.14
511.47	30253.76
511.64	30146.10
511.82	30281.85
511.99	29837.15
512.17	30040.78
512.34	30000.99
512.51	30146.10
512.69	30485.48
512.86	30192.91
513.04	30583.78
513.21	30616.55
513.38	30462.07
513.56	30941.88
513.73	30611.87
513.90	31009.76
514.08	30714.85
514.25	31515.31
514.43	31199.34
514.60	31030.82
514.77	30866.98
514.95	31154.87
515.12	31175.94
515.29	31461.48
515.47	31667.45
515.64	31648.72
515.81	31779.79
515.99	31665.11
516.16	31847.67
516.33	31484.89
516.51	32250.24
516.68	31482.55
516.85	31803.20
517.03	32070.02
517.20	32084.06
517.37	32128.53
517.54	32095.77
517.72	32725.37
517.89	32119.17
518.06	32594.30
518.24	32020.87
518.41	32135.56
518.58	32208.11
518.75	32259.60
518.93	32886.87
519.10	32666.86
519.27	32774.52
519.45	32730.05
519.62	33041.34
519.79	33083.47
519.96	32975.81
520.14	32898.57
520.31	33041.34
520.48	33523.49
520.65	33287.10
520.83	33720.10
521.00	33757.55
521.17	33692.01
521.34	33453.28
521.52	33631.16
521.69	33802.02
521.86	33860.53
522.03	34162.46
522.20	34277.15
522.38	34103.95
522.55	34342.68
522.72	34094.58
522.89	33670.95
523.07	34515.88
523.24	34536.94
523.41	34099.26
523.58	34754.61
523.75	35033.14
523.92	34572.05
524.10	34827.17
524.27	35068.25
524.44	34951.22
524.61	35201.66
524.78	35072.93
524.96	35412.31
525.13	35283.58
525.30	35122.08
525.47	35449.75
525.64	35653.38
525.81	35089.31
525.98	35330.39
526.16	35599.55
526.33	35239.11
526.50	35835.94
526.67	35534.01
526.84	35023.78
527.01	35409.96
527.18	35702.53
527.36	35873.39
527.53	35821.90
527.70	36402.35
527.87	36205.75
528.04	36046.59
528.21	36313.41
528.38	35985.74
528.55	36472.57
528.72	36404.69
528.89	36570.87
529.07	36432.78
529.24	36484.27
529.41	36650.45
529.58	36282.98
529.75	36421.08
529.92	36545.12
530.09	36327.45
530.26	36776.84
530.43	36753.43
530.60	36898.55
530.77	36994.51
530.94	37191.11
531.11	36943.02
531.28	37001.53
531.46	37523.47
531.63	37436.87
531.80	37230.90
531.97	37195.79
532.14	37219.20
532.31	36858.76
532.48	37240.26
532.65	37596.03
532.82	37434.53
532.99	37460.27
533.16	37350.27
533.33	37858.17
533.50	38237.33
533.67	37830.08
533.84	37371.33
534.01	38291.16
534.18	37755.18
534.35	38328.61
534.52	37956.47
534.69	38160.09
534.86	38024.34
535.03	37862.85
535.20	38476.07
535.37	38845.87
535.54	38717.14
535.71	37968.17
535.88	38321.59
536.05	38742.89
536.22	38632.88
536.38	38396.49
536.55	38588.41
536.72	38665.65
536.89	38536.92
537.06	38602.46
537.23	38742.89
537.40	38543.94
537.57	38768.63
537.74	39232.06
537.91	39035.45
538.08	38403.51
538.25	38925.45
538.42	39049.50
538.59	39321.00
538.75	38787.36
538.92	39306.96
539.09	39126.74
539.26	39442.71
539.43	39009.71
539.60	39618.25
539.77	39157.16
539.94	39124.40
540.11	38981.62
540.28	39477.82
540.44	39798.47
540.61	39459.09
540.78	39246.10
540.95	39108.01
541.12	39339.72
541.29	39274.19
541.46	39629.95
541.62	39442.71
541.79	40074.65
541.96	39302.28
542.13	39828.90
542.30	39948.26
542.47	40105.08
542.63	39810.17
542.80	40584.89
542.97	40423.39
543.14	40540.42
543.31	40421.05
543.48	40814.26
543.64	41125.55
543.81	40790.86
543.98	40858.73
544.15	40533.40
544.32	40573.19
544.48	41200.45
544.65	40474.88
544.82	40912.56
544.99	40664.47
545.16	41036.61
545.32	40676.17
545.49	40779.15
545.66	40903.20
545.83	40928.95
546.00	41050.66
546.16	41296.41
546.33	40524.04
546.50	40659.79
546.67	41071.72
546.83	40898.52
547.00	40905.54
547.17	40940.65
547.34	40947.67
547.50	41319.82
547.67	41375.99
547.84	41357.27
548.00	41628.77
548.17	41558.55
548.34	41268.33
548.51	41427.48
548.67	41916.65
548.84	41673.24
549.01	41879.21
549.18	41827.71
549.34	41926.02
549.51	42031.34
549.68	41701.32
549.84	41698.98
550.01	41724.73
550.18	41846.44
550.34	41897.93
550.51	41584.30
550.68	41516.42
550.84	41750.48
551.01	41904.95
551.18	42010.28
551.34	41846.44
551.51	42384.76
551.68	42110.92
551.84	42021.98
552.01	42293.48
552.18	42171.77
552.34	41909.63
552.51	42480.72
552.68	42843.51
552.84	42246.67
553.01	42660.94
553.18	42288.80
553.34	42408.17
553.51	42225.60
553.67	42305.18
553.84	42869.25
554.01	42670.31
554.17	42560.30
554.34	42777.97
554.51	42682.01
554.67	42904.36
554.84	42770.95
555.00	42946.49
555.17	42749.88
555.33	42838.83
555.50	42775.63
555.67	43007.34
555.83	43089.26
556.00	42749.88
556.16	43328.00
556.33	42707.76
556.50	42667.97
556.66	43217.99
556.83	43082.24
556.99	43044.79
557.16	43072.88
557.32	42794.36
557.49	43302.25
557.65	42799.04
557.82	42801.38
557.98	43082.24
558.15	43093.94
558.32	43112.67
558.48	43344.38
558.65	43370.13
558.81	43920.15
558.98	43283.53
559.14	43402.89
559.31	43257.78
559.47	43236.72
559.64	43849.94
559.80	43606.52
559.97	43548.01
560.13	43178.20
560.30	43473.11
560.46	43515.24
560.63	43133.73
560.79	43800.79
560.96	43576.09
561.12	43732.91
561.29	43599.50
561.45	43941.22
561.61	43894.41
561.78	43384.17
561.94	43126.71
562.11	43849.94
562.27	43217.99
562.44	43641.63
562.60	43976.33
562.77	43538.65
562.93	43999.73
563.10	43707.16
563.26	43814.83
563.42	44282.94
563.59	43648.65
563.75	43643.97
563.92	44098.03
564.08	43723.55
564.24	44130.80
564.41	44170.59
564.57	43847.60
564.74	43753.97
564.90	43845.26
565.07	43723.55
565.23	44027.82
565.39	43662.69
565.56	43901.43
565.72	43878.02
565.88	43906.11
566.05	43969.30
566.21	43943.56
566.38	43636.95
566.54	44044.20
566.70	44039.52
566.87	44495.92
567.03	44219.74
567.19	44713.59
567.36	44456.14
567.52	43550.35
567.68	44175.27
567.85	44545.08
568.01	43938.88
568.17	43910.79
568.34	44334.43
568.50	44051.22
568.66	43800.79
568.83	44198.68
568.99	43887.39
569.15	44191.65
569.32	44212.72
569.48	43730.57
569.64	44924.24
569.81	44137.82
569.97	43988.03
570.13	44046.54
570.30	44271.23
570.46	44058.24
570.62	44102.71
570.78	43889.73
570.95	44381.24
571.11	44636.36
571.27	44404.64
571.43	43934.20
571.60	44332.09
571.76	44795.51
571.92	44439.75
572.09	44175.27
572.25	44339.11
572.41	44453.79
572.57	44687.85
572.74	44744.02
572.90	44643.38
573.06	44641.04
573.22	44495.92
573.38	44472.52
573.55	43896.75
573.71	44133.14
573.87	44465.50
574.03	43854.62
574.20	44416.35
574.36	44603.59
574.52	44367.20
574.68	44449.11
574.84	44514.65
575.01	44669.12
575.17	44917.22
575.33	44133.14
575.49	44233.78
575.65	44584.86
575.82	44795.51
575.98	44903.18
576.14	44968.71
576.30	44320.38
576.46	44570.82
576.62	44201.02
576.79	44570.82
576.95	43997.39
577.11	44683.17
577.27	44619.97
577.43	45029.57
577.59	44687.85
577.75	44655.08
577.92	44273.57
578.08	43962.28
578.24	44130.80
578.40	44451.45
578.56	44446.77
578.72	44437.41
578.88	44886.79
579.04	44889.13
579.21	44421.03
579.37	44783.81
579.53	44582.52
579.69	44294.64
579.85	44428.05
580.01	44825.94
580.17	44816.58
580.33	44744.02
580.49	44949.99
580.65	44442.09
580.82	44835.30
580.98	44772.11
581.14	44421.03
581.30	44275.91
581.46	44463.16
581.62	44804.88
581.78	44229.10
581.94	44746.36
582.10	44432.73
582.26	45041.27
582.42	44858.71
582.58	44767.43
582.74	44446.77
582.90	44809.56
583.06	45191.06
583.22	45059.99
583.38	44556.78
583.54	44399.96
583.70	44898.50
583.86	44348.47
584.02	44313.36
584.18	44928.92
584.34	44823.60
584.50	44636.36
584.66	44760.40
584.82	44769.77
584.98	45027.23
585.14	45155.96
585.30	44395.28
585.46	44182.29
585.62	44788.49
585.78	44610.61
585.94	44273.57
586.10	44673.81
586.26	44376.56
586.42	44486.56
586.58	44966.37
586.74	44793.17
586.90	44641.04
587.06	44446.77
587.22	45029.57
587.38	44765.09
587.54	45144.25
587.70	44978.07
587.86	44905.52
588.02	44739.34
588.18	45502.35
588.34	44505.29
588.49	44538.05
588.65	44439.75
588.81	44341.45
588.97	44524.01
589.13	44549.76
589.29	44615.29
589.45	44722.96
589.61	44720.62
589.77	44755.72
589.93	44931.26
590.08	45184.04
590.24	44809.56
590.40	44641.04
590.56	45134.89
590.72	44807.22
590.88	44942.97
591.04	44615.29
591.20	45207.45
591.35	45127.87
591.51	45102.12
591.67	44725.30
591.83	44954.67
591.99	44825.94
592.15	44875.09
592.31	45003.82
592.46	44839.98
592.62	44692.53
592.78	44968.71
592.94	45092.76
593.10	44945.31
593.26	44912.54
593.41	44896.16
593.57	44985.10
593.73	45038.93
593.89	45137.23
594.05	45055.31
594.20	44999.14
594.36	45394.69
594.52	45048.29
594.68	45104.46
594.84	44825.94
594.99	45488.31
595.15	44793.17
595.31	45165.32
595.47	44935.95
595.62	44914.88
595.78	45125.53
595.94	45516.40
596.10	45666.19
596.25	45380.65
596.41	45301.07
596.57	45090.42
596.73	45272.98
596.88	44467.84
597.04	44945.31
597.20	44818.92
597.36	45380.65
597.51	45610.02
597.67	44891.48
597.83	44931.26
597.99	45734.07
598.14	45837.05
598.30	45207.45
598.46	45170.00
598.61	45165.32
598.77	44720.62
598.93	45113.83
599.09	45017.86
599.24	45705.98
599.40	45359.58
599.56	45357.24
599.71	44952.33
599.87	45146.59
600.03	45326.81
600.18	45158.30
600.34	45195.74
600.50	45027.23
600.65	44971.05
600.81	45193.40
600.97	45329.16
601.12	45666.19
601.28	45429.80
601.44	45031.91
601.59	45415.76
601.75	44549.76
601.91	45123.19
602.06	44989.78
602.22	45127.87
602.37	45125.53
602.53	45155.96
602.69	45315.11
602.84	45322.13
603.00	45265.96
603.16	45165.32
603.31	45048.29
603.47	44900.84
603.62	45413.41
603.78	45294.05
603.94	45158.30
604.09	45366.60
604.25	45167.66
604.40	45064.67
604.56	45031.91
604.71	44825.94
604.87	44626.99
605.03	45113.83
605.18	44891.48
605.34	45144.25
605.49	44858.71
605.65	45214.47
605.80	44802.53
605.96	45085.74
606.12	45525.76
606.27	45371.28
606.43	45404.05
606.58	45378.31
606.74	44884.45
606.89	44690.19
607.05	45006.16
607.20	44973.39
607.36	45003.82
607.51	45474.27
607.67	45188.72
607.82	44467.84
607.98	44746.36
608.13	44772.11
608.29	44437.41
608.44	45088.08
608.60	44165.91
608.75	45074.04
608.91	44779.13
609.06	44460.82
609.22	45120.85
609.37	44535.71
609.53	44432.73
609.68	44634.02
609.84	45036.59
609.99	44690.19
610.15	45193.40
610.30	44282.94
610.46	44748.70
610.61	44760.40
610.76	44701.89
610.92	44584.86
611.07	44659.76
611.23	44376.56
611.38	44598.91
611.54	44126.12
611.69	44280.60
611.84	44409.32
612.00	44273.57
612.15	44568.48
612.31	44451.45
612.46	44320.38
612.62	44559.12
612.77	44538.05
612.92	44362.51
613.08	44463.16
613.23	44252.51
613.39	44336.77
613.54	43791.42
613.69	44327.41
613.85	44116.76
614.00	44589.55
614.15	44704.23
614.31	44203.36
614.46	44528.69
614.62	44318.04
614.77	44343.79
614.92	44336.77
615.08	43995.05
615.23	43990.37
615.38	44315.70
615.54	43800.79
615.69	44240.81
615.84	43636.95
616.00	43899.09
616.15	43878.02
616.30	43945.90
616.46	43761.00
616.61	43779.72
616.76	43798.44
616.92	43833.55
617.07	43531.62
617.22	43452.05
617.37	43409.92
617.53	44238.47
617.68	43599.50
617.83	43962.28
617.99	44296.98
618.14	43805.47
618.29	43859.30
618.45	43714.19
618.60	43648.65
618.75	43358.42
618.90	43105.65
619.06	43824.19
619.21	43660.35
619.36	43847.60
619.51	43639.29
619.67	43379.49
619.82	43557.37
619.97	43475.45
620.12	43180.54
620.28	43105.65
620.43	43660.35
620.58	43524.60
620.73	43428.64
620.89	43042.45
621.04	43550.35
621.19	43360.76
621.34	43346.72
621.49	43342.04
621.65	43536.30
621.80	43033.09
621.95	42887.98
622.10	42789.67
622.25	43241.40
622.41	42918.40
622.56	42766.27
622.71	42958.19
622.86	42543.92
623.01	43360.76
623.16	43056.50
623.32	43061.18
623.47	42848.19
623.62	42974.58
623.77	42813.08
623.92	42581.37
624.07	42682.01
624.23	42490.09
624.38	42539.24
624.53	42976.92
624.68	42515.83
624.83	42644.56
624.98	42564.98
625.13	42724.14
625.29	42653.92
625.44	42576.69
625.59	42181.13
625.74	42031.34
625.89	42265.39
626.04	41766.86
626.19	42356.67
626.34	42724.14
626.49	42270.08
626.65	42525.19
626.80	42691.37
626.95	42068.79
627.10	41830.05
627.25	41759.84
627.40	41750.48
627.55	41961.12
627.70	41507.06
627.85	41546.85
628.00	42078.15
628.15	41993.89
628.30	41951.76
628.45	42349.65
628.60	42279.44
628.76	42342.63
628.91	41886.23
629.06	41855.80
629.21	41806.65
629.36	41890.91
629.51	41900.27
629.66	41500.04
629.81	41216.83
629.96	41890.91
630.11	41940.06
630.26	42129.64
630.41	41844.10
630.56	41647.49
630.71	41745.80
630.86	41560.89
631.01	41493.02
631.16	41624.09
631.31	40952.35
631.46	41095.13
631.61	41390.03
631.76	41825.37
631.91	41354.93
632.06	41354.93
632.21	41577.28
632.36	41474.29
632.51	41481.31
632.66	41357.27
632.81	40942.99
632.96	41179.39
633.10	41174.70
633.25	40680.85
633.40	40957.03
633.55	41588.98
633.70	41544.51
633.85	41111.51
634.00	41415.78
634.15	41013.21
634.30	40528.72
634.45	40910.22
634.60	40666.81
634.75	40973.42
634.90	40910.22
635.05	40748.73
635.19	40811.92
635.34	41090.44
635.49	40858.73
635.64	40992.14
635.79	40610.64
635.94	40636.38
636.09	40531.06
636.24	40680.85
636.39	40275.94
636.53	40381.26
636.68	40100.40
636.83	40198.70
636.98	40128.48
637.13	40495.95
637.28	40631.70
637.43	40458.50
637.57	40465.52
637.72	40514.67
637.87	40147.21
638.02	40194.02
638.17	40512.33
638.32	40023.16
638.46	40067.63
638.61	39871.03
638.76	40392.97
638.91	40205.72
639.06	40046.57
639.20	40292.32
639.35	40062.95
639.50	40275.94
639.65	40250.19
639.80	40416.37
639.94	39716.55
640.09	39859.32
640.24	40196.36
640.39	40088.70
640.54	39835.92
640.68	39791.45
640.83	39777.40
640.98	39798.47
641.13	39903.79
641.27	39945.92
641.42	39735.27
641.57	40004.44
641.72	39807.83
641.86	39477.82
642.01	39676.76
642.16	39590.16
642.31	39072.90
642.45	39566.76
642.60	39407.60
642.75	39182.91
642.90	39501.22
643.04	39353.77
643.19	39250.78
643.34	39536.33
643.48	39367.81
643.63	39447.39
643.78	38983.96
643.93	39206.31
644.07	39250.78
644.22	39054.18
644.37	39234.40
644.51	39166.52
644.66	38951.20
644.81	38951.20
644.95	39552.71
645.10	39491.86
645.25	39023.75
645.39	38965.24
645.54	39501.22
645.69	38904.38
645.83	38529.90
645.98	38778.00
646.13	39098.65
646.27	39208.65
646.42	38871.62
646.57	38829.49
646.71	39276.53
646.86	39021.41
647.00	38698.42
647.15	38684.37
647.30	39019.07
647.44	39119.71
647.59	38511.17
647.74	38785.02
647.88	38426.92
648.03	38396.49
648.17	38417.55
648.32	38419.89
648.47	38059.45
648.61	38403.51
648.76	38714.80
648.90	38691.40
649.05	38583.73
649.20	38363.72
649.34	38658.63
649.49	38288.82
649.63	38335.63
649.78	38127.33
649.92	38265.42
650.07	38679.69
650.21	38621.18
650.36	38330.95
650.51	37949.45
650.65	38604.80
650.80	38852.89
650.94	37923.70
651.09	38150.73
651.23	38176.48
651.38	38108.60
651.52	38038.39
651.67	38216.27
651.81	38003.28
651.96	37907.32
652.10	37834.76
652.25	37757.52
652.39	37818.38
652.54	37633.47
652.68	38377.76
652.83	38258.40
652.97	38038.39
653.12	38234.99
653.26	37722.41
653.41	38031.36
653.55	37411.12
653.70	37816.04
653.84	37745.82
653.99	37282.39
654.13	37448.57
654.27	37551.56
654.42	37710.71
654.56	37947.11
654.71	37261.33
654.85	37495.38
655.00	37869.87
655.14	37486.02
655.29	37354.95
655.43	37010.89
655.57	36933.65
655.72	37064.72
655.86	37266.01
656.01	37202.82
656.15	37102.17
656.30	36931.31
656.44	37411.12
656.58	36753.43
656.73	36847.05
656.87	36531.08
657.01	36582.57
657.16	37247.29
657.30	36926.63
657.45	36814.29
657.59	36573.21
657.73	36730.03
657.88	37111.53
658.02	36940.68
658.16	36961.74
658.31	36779.18
658.45	36650.45
658.60	36823.65
658.74	36648.11
658.88	36650.45
659.03	36458.52
659.17	36875.14
659.31	36077.02
659.46	36610.66
659.60	36130.85
659.74	36290.01
659.89	36020.84
660.03	36165.96
660.17	36018.50
660.32	36493.63
660.46	35955.31
660.60	36140.21
660.74	36224.47
660.89	36589.59
661.03	35969.35
661.17	35859.35
661.32	35555.08
661.46	36032.55
661.60	35377.20
661.74	35899.14
661.89	35374.86
662.03	36140.21
662.17	35566.78
662.31	35587.85
662.46	35552.74
662.60	35709.55
662.74	35594.87
662.88	35030.80
663.03	35629.98
663.17	35517.63
663.31	35255.49
663.45	35267.19
663.60	35522.31
663.74	35009.73
663.88	35166.55
664.02	34991.01
664.17	35009.73
664.31	34841.21
664.45	34632.91
664.59	34782.70
664.73	34932.50
664.88	34862.28
665.02	34522.90
665.16	34749.93
665.30	34944.20
665.44	34277.15
665.59	34440.98
665.73	34487.79
665.87	34272.46
666.01	34242.04
666.15	33916.70
666.29	34274.80
666.44	33993.94
666.58	34087.56
666.72	34590.78
666.86	34136.71
667.00	34354.38
667.14	33937.77
667.28	34066.50
667.43	33251.99
667.57	33745.84
667.71	33656.90
667.85	34094.58
667.99	33809.04
668.13	33256.67
668.27	33092.83
668.41	33708.40
668.56	33373.70
668.70	33172.41
668.84	33340.93
668.98	33322.21
669.12	32685.58
669.26	33139.65
669.40	32945.38
669.54	33261.35
669.68	32849.42
669.82	33277.74
669.96	32971.13
670.10	32606.00
670.25	33109.22
670.39	32744.09
670.53	32432.80
670.67	32367.27
670.81	32741.75
670.95	32587.28
671.09	32498.34
671.23	33008.58
671.37	32467.91
671.51	32594.30
671.65	32210.45
671.79	32041.93
671.93	32203.43
672.07	31938.95
672.21	31754.05
672.35	31995.12
672.49	31995.12
672.63	32053.64
672.77	31873.42
672.91	31908.52
673.05	31578.51
673.19	31599.57
673.33	31388.92
673.47	31175.94
673.61	31402.97
673.75	31208.70
673.89	30775.70
674.03	31152.53
674.17	30841.24
674.31	30810.81
674.45	30885.71
674.59	30848.26
674.73	31117.42
674.87	30916.14
675.01	30604.84
675.15	31037.84
675.29	30927.84
675.43	30831.88
675.56	30595.48
675.70	30630.59
675.84	30326.32
675.98	29617.14
676.12	29970.56
676.26	30015.03
676.40	29628.84
676.54	29804.38
676.68	29780.98
676.82	29591.39
676.96	29511.81
677.10	29467.34
677.23	29132.65
677.37	29202.86
677.51	29277.76
677.65	29350.32
677.79	28945.41
677.93	28971.15
678.07	28971.15
678.21	28797.95
678.34	28606.03
678.48	28404.74
678.62	28348.57
678.76	28201.11
678.90	28013.87
679.04	28416.44
679.18	28697.31
679.31	28168.35
679.45	27798.54
679.59	27630.02
679.73	27672.15
679.87	27798.54
680.00	27534.06
680.14	27566.83
680.28	27520.02
680.42	27325.75
680.56	27513.00
680.70	27615.98
680.83	26967.65
680.97	27356.18
681.11	27035.53
681.25	26867.01
681.39	27115.11
681.52	27360.86
681.66	26703.17
681.80	26609.55
681.94	26424.65
682.07	26284.22
682.21	26424.65
682.35	26127.40
682.49	26092.29
682.62	26497.20
682.76	25797.38
682.90	26113.36
683.04	25879.30
683.17	26295.92
683.31	26064.21
683.45	25926.11
683.59	25600.78
683.72	25521.20
683.86	25135.01
684.00	25198.21
684.13	25462.69
684.27	25109.27
684.41	25160.76
684.55	25099.90
684.68	24861.17
684.82	24821.38
684.96	24854.15
685.09	24657.54
685.23	24575.62
685.37	24503.07
685.50	24547.54
685.64	24301.78
685.78	24212.84
685.91	24182.42
686.05	24102.84
686.19	23784.52
686.32	23807.93
686.46	23529.41
686.60	23379.61
686.73	23445.15
686.87	23484.94
687.01	23232.16
687.14	23250.88
687.28	23133.86
687.42	22888.10
687.55	23321.10
687.69	23250.88
687.82	22850.65
687.96	22850.65
688.10	22801.50
688.23	22649.36
688.37	22511.27
688.50	22501.91
688.64	22097.00
688.78	22373.18
688.91	22389.56
689.05	22024.44
689.18	21935.50
689.32	21600.80
689.46	21799.75
689.59	22015.08
689.73	22136.79
689.86	21834.86
690.00	21671.02
690.13	22064.23
690.27	21788.05
690.41	21373.77
690.54	21270.79
690.68	21422.92
690.81	21097.59
690.95	20732.47
691.08	21041.42
691.22	20884.60
691.35	20793.32
691.49	20917.37
691.62	20980.56
691.76	20662.25
691.89	20662.25
692.03	20673.95
692.16	20301.81
692.30	20329.89
692.43	20252.66
692.57	20163.72
692.70	20388.41
692.84	20067.75
692.97	19868.81
693.11	19672.20
693.24	19484.96
693.38	19370.27
693.51	19681.56
693.65	19538.79
693.78	19601.99
693.92	19381.98
694.05	19248.57
694.19	19307.08
694.32	19026.21
694.45	19063.66
694.59	18871.74
694.72	19084.73
694.86	18684.50
694.99	18948.98
695.13	18572.15
695.26	18359.16
695.39	18251.50
695.53	18551.09
695.66	18256.18
695.80	18464.49
695.93	18090.00
696.07	17689.77
696.20	18017.44
696.33	18087.66
696.47	17572.74
696.60	17886.37
696.73	17858.29
696.87	17720.20
697.00	17617.21
697.14	17830.20
697.27	17556.36
697.40	17703.81
697.54	17408.90
697.67	17446.35
697.80	17149.11
697.94	17280.18
698.07	16971.22
698.21	16973.56
698.34	17163.15
698.47	17167.83
698.61	16566.31
698.74	16599.08
698.87	16435.24
699.01	16332.26
699.14	16381.41
699.27	16493.76
699.40	16224.59
699.54	16187.14
699.67	16240.98
699.80	16046.71
699.94	16116.93
700.07	15915.64
700.20	15840.75
700.34	15932.03
700.47	15857.13
700.60	16180.12
700.73	15730.74
700.87	15845.43
701.00	15318.81
701.13	15449.88
701.26	15494.35
701.40	15578.61
701.53	14977.09
701.66	15295.40
701.79	15042.62
701.93	15101.14
702.06	14747.72
702.19	14579.20
702.32	15115.18
702.46	14644.73
702.59	14712.61
702.72	14473.87
702.85	14703.25
702.99	14630.69
703.12	14668.14
703.25	14747.72
703.38	14501.96
703.51	14604.94
703.65	14384.93
703.78	14190.67
703.91	14197.69
704.04	14134.50
704.17	13991.72
704.31	14141.52
704.44	13598.51
704.57	13465.10
704.70	13668.73
704.83	13862.99
704.96	13696.82
705.10	13680.43
705.23	13502.55
>>>>>End Processed Spectral Data<<<<<
