SpectraSuite Data File
++++++++++++++++++++++++++++++++++++
Date: Fri Oct 25 10:44:39 EDT 2013
User: price-jones
Dark Spectrum Present: No
Reference Spectrum Present: No
Number of Sampled Component Spectra: 1
Spectrometers: USB2+H05261
Integration Time (usec): 100000 (USB2+H05261)
Spectra Averaged: 1 (USB2+H05261)
Boxcar Smoothing: 0 (USB2+H05261)
Correct for Electrical Dark: No (USB2+H05261)
Strobe/Lamp Enabled: No (USB2+H05261)
Correct for Detector Non-linearity: No (USB2+H05261)
Correct for Stray Light: No (USB2+H05261)
Number of Pixels in Processed Spectrum: 2048
>>>>>Begin Processed Spectral Data<<<<<
365.73	74.90
365.92	74.90
366.12	74.90
366.32	91.28
366.52	67.88
366.72	18.72
366.91	11.70
367.11	14.04
367.31	72.56
367.51	72.56
367.70	7.02
367.90	16.38
368.10	0.00
368.30	14.04
368.49	0.00
368.69	39.79
368.89	0.00
369.09	46.81
369.28	58.51
369.48	7.02
369.68	93.62
369.87	63.19
370.07	0.00
370.27	102.98
370.47	95.96
370.66	421.30
370.86	367.46
371.06	437.68
371.25	428.32
371.45	404.91
371.65	465.77
371.84	475.13
372.04	486.83
372.24	465.77
372.44	430.66
372.63	454.06
372.83	458.74
373.03	451.72
373.22	491.51
373.42	472.79
373.62	437.68
373.81	510.24
374.01	571.09
374.21	531.30
374.40	547.69
374.60	521.94
374.79	475.13
374.99	514.92
375.19	589.82
375.38	580.45
375.58	631.94
375.78	571.09
375.97	566.41
376.17	568.75
376.37	526.62
376.56	461.09
376.76	564.07
376.95	557.05
377.15	643.65
377.35	645.99
377.54	568.75
377.74	608.54
377.93	526.62
378.13	603.86
378.33	561.73
378.52	566.41
378.72	578.11
378.91	629.60
379.11	561.73
379.31	674.07
379.50	550.03
379.70	720.88
379.89	613.22
380.09	631.94
380.28	645.99
380.48	594.50
380.68	627.26
380.87	599.18
381.07	585.13
381.26	599.18
381.46	671.73
381.65	634.29
381.85	720.88
382.04	645.99
382.24	713.86
382.43	610.88
382.63	671.73
382.83	631.94
383.02	667.05
383.22	648.33
383.41	716.20
383.61	697.48
383.80	638.97
384.00	671.73
384.19	704.50
384.39	720.88
384.58	713.86
384.78	751.31
384.97	828.55
385.17	671.73
385.36	723.23
385.56	802.80
385.75	723.23
385.95	770.04
386.14	767.70
386.34	777.06
386.53	748.97
386.72	795.78
386.92	800.46
387.11	716.20
387.31	786.42
387.50	751.31
387.70	823.87
387.89	697.48
388.09	798.12
388.28	823.87
388.48	765.36
388.67	802.80
388.86	952.60
389.06	903.45
389.25	791.10
389.45	882.38
389.64	856.64
389.84	898.77
390.03	873.02
390.22	919.83
390.42	901.11
390.61	910.47
390.81	868.34
391.00	987.71
391.19	966.64
391.39	882.38
391.58	950.26
391.78	924.51
391.97	978.34
392.16	961.96
392.36	1060.26
392.55	924.51
392.75	976.00
392.94	943.24
393.13	959.62
393.33	901.11
393.52	980.68
393.71	971.32
393.91	917.49
394.10	1041.54
394.29	1013.45
394.49	1039.20
394.68	1100.05
394.88	1107.07
395.07	1146.86
395.26	1118.78
395.46	1163.25
395.65	1149.20
395.84	1057.92
396.04	1170.27
396.23	1078.99
396.42	1062.60
396.62	1069.62
396.81	1102.39
397.00	1156.22
397.19	1172.61
397.39	1149.20
397.58	1198.35
397.77	1238.14
397.97	1259.21
398.16	1317.72
398.35	1366.87
398.55	1336.45
398.74	1341.13
398.93	1425.39
399.12	1240.48
399.32	1362.19
399.51	1366.87
399.70	1366.87
399.90	1357.51
400.09	1390.28
400.28	1406.66
400.47	1369.21
400.67	1476.88
400.86	1390.28
401.05	1444.11
401.24	1383.26
401.44	1406.66
401.63	1497.94
401.82	1568.16
402.01	1397.30
402.21	1453.47
402.40	1556.46
402.59	1547.09
402.78	1446.45
402.97	1614.97
403.17	1610.29
403.36	1521.35
403.55	1579.86
403.74	1692.21
403.93	1629.01
404.13	1657.10
404.32	1694.55
404.51	1533.05
404.70	1572.84
404.89	1631.35
405.09	1614.97
405.28	1694.55
405.47	1703.91
405.66	1661.78
405.85	1729.66
406.05	1846.68
406.24	1781.15
406.43	1825.62
406.62	1954.35
406.81	1816.26
407.00	1797.53
407.20	1778.81
407.39	1722.63
407.58	1933.28
407.77	1942.64
407.96	1832.64
408.15	1991.80
408.34	1937.96
408.54	1973.07
408.73	1947.33
408.92	2040.95
409.11	2003.50
409.30	2036.27
409.49	2026.90
409.68	2012.86
409.87	2069.03
410.07	2148.61
410.26	1954.35
410.45	2141.59
410.64	2148.61
410.83	2181.38
411.02	2246.91
411.21	2361.60
411.40	2359.26
411.59	2214.15
411.78	2141.59
411.98	2279.68
412.17	2249.25
412.36	2420.11
412.55	2394.37
412.74	2452.88
412.93	2497.35
413.12	2326.49
413.31	2537.14
413.50	2445.86
413.69	2567.57
413.88	2579.27
414.07	2534.80
414.26	2612.04
414.45	2628.42
414.64	2644.81
414.83	2785.24
415.02	2733.75
415.22	2677.57
415.41	2684.59
415.60	2705.66
415.79	2768.85
415.98	2806.30
416.17	2958.44
416.36	2775.88
416.55	2825.03
416.74	2860.13
416.93	2836.73
417.12	2850.77
417.31	2981.84
417.50	2988.86
417.69	3087.17
417.88	2925.67
418.07	3016.95
418.26	2911.63
418.45	3040.36
418.64	3150.36
418.83	3070.78
419.02	3222.92
419.21	3136.32
419.39	3169.09
419.58	3232.28
419.77	3297.81
419.96	3185.47
420.15	3236.96
420.34	3262.71
420.53	3213.56
420.72	3304.84
420.91	3377.39
421.10	3377.39
421.29	3454.63
421.48	3323.56
421.67	3346.97
421.86	3463.99
422.05	3501.44
422.24	3393.78
422.43	3339.94
422.61	3449.95
422.80	3414.84
422.99	3543.57
423.18	3482.72
423.37	3611.45
423.56	3492.08
423.75	3478.04
423.94	3363.35
424.13	3265.05
424.32	3328.24
424.50	3482.72
424.69	3503.78
424.88	3527.19
425.07	3529.53
425.26	3508.46
425.45	3503.78
425.64	3365.69
425.83	3480.38
426.01	3709.75
426.20	3452.29
426.39	3609.11
426.58	3632.51
426.77	3557.61
426.96	3667.62
427.15	3557.61
427.33	3674.64
427.52	3667.62
427.71	3634.85
427.90	3791.67
428.09	3824.44
428.28	3658.26
428.46	3733.15
428.65	3737.84
428.84	3859.54
429.03	3829.12
429.22	3709.75
429.40	3674.64
429.59	3854.86
429.78	3485.06
429.97	3515.48
430.16	3550.59
430.34	3716.77
430.53	3852.52
430.72	3845.50
430.91	3950.82
431.10	3810.39
431.28	4007.00
431.47	4058.49
431.66	4252.75
431.85	4063.17
432.03	4234.03
432.22	4224.67
432.41	4095.94
432.60	4255.09
432.79	4091.26
432.97	4215.30
433.16	4154.45
433.35	4105.30
433.54	4257.43
433.72	4264.46
433.91	4109.98
434.10	4280.84
434.28	4351.06
434.47	4269.14
434.66	4337.01
434.85	4454.04
435.03	4493.83
435.22	4447.02
435.41	4566.39
435.59	4397.87
435.78	4561.70
435.97	4521.92
436.16	4454.04
436.34	4552.34
436.53	4587.45
436.72	4692.77
436.90	4594.47
437.09	4568.73
437.28	4585.11
437.46	4554.68
437.65	4585.11
437.84	4704.48
438.02	4613.20
438.21	4692.77
438.40	4561.70
438.58	4748.95
438.77	4931.51
438.96	4748.95
439.14	4903.42
439.33	4943.21
439.52	5132.79
439.70	5123.43
439.89	5107.05
440.08	5116.41
440.26	5020.45
440.45	5114.07
440.63	5193.65
440.82	5427.70
441.01	5268.55
441.19	5334.08
441.38	5486.22
441.57	5416.00
441.75	5458.13
441.94	5626.65
442.12	5472.17
442.31	5495.58
442.50	5748.36
442.68	5619.63
442.87	5696.86
443.05	5666.44
443.24	5720.27
443.43	5647.71
443.61	5919.21
443.80	5991.77
443.98	5661.76
444.17	5586.86
444.35	5694.52
444.54	5853.68
444.73	5820.91
444.91	5891.13
445.10	5940.28
445.28	5748.36
445.47	5748.36
445.65	5879.43
445.84	5881.77
446.02	5973.05
446.21	5834.96
446.39	6022.20
446.58	5914.53
446.77	5898.15
446.95	5820.91
447.14	5912.19
447.32	5970.71
447.51	5912.19
447.69	5916.87
447.88	5963.68
448.06	5785.80
448.25	5858.36
448.43	5898.15
448.62	6005.81
448.80	6083.05
448.99	6005.81
449.17	6024.54
449.36	6099.44
449.54	6401.37
449.73	6338.17
449.91	6179.01
450.10	6106.46
450.28	6509.03
450.46	6424.77
450.65	6303.06
450.83	6331.15
451.02	6352.21
451.20	6527.75
451.39	6651.80
451.57	6345.19
451.76	6408.39
451.94	6319.45
452.13	6583.93
452.31	6413.07
452.49	6312.42
452.68	6476.26
452.86	6366.26
453.05	6494.99
453.23	6703.29
453.42	6541.80
453.60	6436.47
453.78	6750.10
453.97	6431.79
454.15	6581.59
454.34	6541.80
454.52	6745.42
454.70	6719.68
454.89	6822.66
455.07	6874.15
455.26	6729.04
455.44	6855.43
455.62	6885.86
455.81	6740.74
455.99	7129.27
456.17	7000.54
456.36	7023.95
456.54	7159.70
456.73	7166.72
456.91	7267.36
457.09	7255.66
457.28	7382.05
457.46	7171.40
457.64	7215.87
457.83	7157.36
458.01	7382.05
458.19	7375.03
458.38	7124.59
458.56	7506.10
458.74	7410.14
458.93	7372.69
459.11	7515.46
459.29	7358.64
459.48	7398.43
459.66	7389.07
459.84	7424.18
460.03	7756.54
460.21	7604.40
460.39	7573.97
460.57	7517.80
460.76	7573.97
460.94	7939.10
461.12	7651.21
461.31	7665.25
461.49	7751.85
461.67	7618.44
461.85	8006.97
462.04	7826.75
462.22	7946.12
462.40	7880.58
462.59	7861.86
462.77	7983.57
462.95	7969.52
463.13	7887.61
463.32	7981.23
463.50	8191.88
463.68	7875.90
463.86	8168.47
464.05	8086.55
464.23	8121.66
464.41	8081.87
464.59	8013.99
464.78	8196.56
464.96	8215.28
465.14	8154.43
465.32	8215.28
465.50	8245.71
465.69	8311.24
465.87	8353.37
466.05	8334.65
466.23	8035.06
466.41	8388.48
466.60	8297.20
466.78	8201.24
466.96	8421.25
467.14	8285.50
467.32	8472.74
467.51	8671.68
467.69	8135.70
467.87	8622.53
468.05	8540.61
468.23	8512.53
468.41	8430.61
468.60	8580.40
468.78	8748.92
468.96	8575.72
469.14	8919.78
469.32	8842.54
469.50	8521.89
469.69	8872.97
469.87	8805.10
470.05	8704.45
470.23	8851.91
470.41	8992.34
470.59	8861.27
470.77	8786.37
470.95	9013.40
471.14	9043.83
471.32	8971.27
471.50	9104.68
471.68	9144.47
471.86	9102.34
472.04	9383.21
472.22	9589.17
472.40	9303.63
472.58	9504.92
472.77	9638.33
472.95	9483.85
473.13	9717.90
473.31	9423.00
473.49	9596.20
473.67	9682.80
473.85	9467.47
474.03	9895.78
474.21	9872.38
474.39	9884.08
474.57	9951.96
474.75	10043.24
474.93	10108.77
475.12	10064.30
475.30	10111.11
475.48	9909.83
475.66	10249.21
475.84	10171.97
476.02	10169.63
476.20	10363.89
476.38	10399.00
476.56	10712.63
476.74	10649.44
476.92	10796.89
477.10	10630.71
477.28	10942.00
477.46	11119.89
477.64	11140.95
477.82	11063.71
478.00	11375.00
478.18	11227.55
478.36	11449.90
478.54	11225.21
478.72	11393.73
478.90	11702.68
479.08	11639.48
479.26	11995.25
479.44	11906.31
479.62	11784.60
479.80	12002.27
479.98	11950.78
480.16	12184.83
480.34	12271.43
480.52	12500.80
480.70	12475.06
480.88	12245.68
481.06	12449.31
481.24	12592.08
481.41	12727.83
481.59	13104.66
481.77	12851.88
481.95	13011.04
482.13	13170.19
482.31	13151.47
482.49	13540.00
482.67	13303.60
482.85	13645.32
483.03	13818.52
483.21	13654.69
483.39	13703.84
483.57	13888.74
483.74	13968.32
483.92	14448.13
484.10	14153.22
484.28	14452.81
484.46	14597.92
484.64	14773.46
484.82	14630.69
485.00	14682.18
485.18	14782.82
485.35	15115.18
485.53	14883.47
485.71	15061.35
485.89	15346.89
486.07	15227.53
486.25	15274.34
486.43	15358.60
486.61	15611.37
486.78	16077.14
486.96	15653.50
487.14	16084.16
487.32	16264.38
487.50	16278.43
487.68	16451.63
487.85	16559.29
488.03	16842.50
488.21	17069.53
488.39	16844.84
488.57	17125.70
488.75	17238.05
488.92	17261.45
489.10	17666.36
489.28	17596.15
489.46	17984.68
489.64	17647.64
489.81	18059.57
489.99	18230.43
490.17	18396.61
490.35	18319.37
490.53	18520.66
490.70	18520.66
490.88	18654.07
491.06	18918.55
491.24	19007.49
491.41	18911.53
491.59	19126.86
491.77	18867.06
491.95	19351.55
492.13	19550.49
492.30	19768.16
492.48	19459.21
492.66	19896.89
492.84	20011.58
493.01	19995.20
493.19	20109.88
493.37	20297.13
493.54	20652.89
493.72	20475.01
493.90	20666.93
494.08	20793.32
494.25	21153.76
494.43	21186.53
494.61	21228.66
494.79	21123.33
494.96	21263.77
495.14	21333.98
495.32	21748.26
495.49	21357.39
495.67	21743.58
495.85	22099.34
496.02	22375.52
496.20	21984.65
496.38	22010.40
496.55	22696.17
496.73	22817.88
496.91	22569.79
497.09	22771.07
497.26	22841.29
497.44	22857.67
497.62	22841.29
497.79	23501.32
497.97	23140.88
498.14	23030.87
498.32	23300.03
498.50	23480.25
498.67	23985.81
498.85	23608.98
499.03	23793.89
499.20	23931.98
499.38	23726.01
499.56	23978.79
499.73	24170.71
499.91	24416.47
500.08	24264.33
500.26	23967.09
500.44	24535.84
500.61	24542.86
500.79	24315.83
500.97	24659.88
501.14	24842.45
501.32	24910.32
501.49	25076.50
501.67	24933.73
501.84	25092.88
502.02	25371.41
502.20	25380.77
502.37	25380.77
502.55	25668.66
502.72	25738.87
502.90	25898.03
503.07	25612.48
503.25	25874.62
503.43	25743.55
503.60	26022.08
503.78	25778.66
503.95	25832.49
504.13	26373.16
504.30	26452.73
504.48	26565.08
504.65	26534.65
504.83	26717.22
505.01	26586.15
505.18	26625.93
505.36	27208.73
505.53	26944.25
505.71	27330.44
505.88	27438.10
506.06	26761.69
506.23	27220.43
506.41	27138.51
506.58	27337.46
506.76	27269.58
506.93	27552.79
507.11	27807.90
507.28	27644.07
507.46	27248.52
507.63	27676.83
507.81	27826.63
507.98	27763.43
508.16	27697.90
508.33	27985.79
508.50	28011.53
508.68	28290.06
508.85	28362.61
509.03	28409.42
509.20	28294.74
509.38	28961.79
509.55	29202.86
509.73	29060.09
509.90	28666.88
510.08	28802.63
510.25	28741.78
510.42	29343.30
510.60	29219.25
510.77	29350.32
510.95	29633.52
511.12	29392.45
511.30	29591.39
511.47	29640.54
511.64	30087.59
511.82	30068.86
511.99	29656.93
512.17	30089.93
512.34	29675.65
512.51	29902.68
512.69	30443.35
512.86	30389.52
513.04	30445.69
513.21	30075.88
513.38	30803.79
513.56	30384.83
513.73	30307.60
513.90	30719.53
514.08	30508.88
514.25	30492.50
514.43	30948.90
514.60	31147.85
514.77	30611.87
514.95	31098.70
515.12	30754.64
515.29	30862.30
515.47	31782.13
515.64	31426.37
515.81	31662.77
515.99	31461.48
516.16	31393.61
516.33	31339.77
516.51	31592.55
516.68	31555.10
516.85	31229.77
517.03	31686.17
517.20	32137.90
517.37	31768.09
517.54	32018.53
517.72	31882.78
517.89	31838.31
518.06	31751.71
518.24	31819.58
518.41	31985.76
518.58	32301.73
518.75	32273.65
518.93	32524.08
519.10	32503.02
519.27	32627.07
519.45	32622.39
519.62	32561.53
519.79	32636.43
519.96	32327.48
520.14	32783.88
520.31	32514.72
520.48	33172.41
520.65	33163.05
520.83	32936.02
521.00	33530.51
521.17	32975.81
521.34	33778.61
521.52	33696.69
521.69	33383.06
521.86	33876.91
522.03	33912.02
522.20	33827.76
522.38	34417.58
522.55	33804.36
522.72	34223.31
522.89	33659.24
523.07	34309.91
523.24	33792.65
523.41	34396.51
523.58	34227.99
523.75	34637.59
523.92	34873.98
524.10	34586.10
524.27	34649.29
524.44	34981.65
524.61	34817.81
524.78	34972.28
524.96	35461.46
525.13	35061.22
525.30	35007.39
525.47	35019.10
525.64	35182.93
525.81	35086.97
525.98	35126.76
526.16	35133.78
526.33	35049.52
526.50	35325.71
526.67	35185.27
526.84	35248.47
527.01	35021.44
527.18	35541.03
527.36	35391.24
527.53	35555.08
527.70	35896.80
527.87	36194.04
528.04	35688.49
528.21	36137.87
528.38	35864.03
528.55	35835.94
528.72	36254.90
528.89	36350.86
529.07	36194.04
529.24	35910.84
529.41	35826.58
529.58	36165.96
529.75	36172.98
529.92	36278.30
530.09	36549.81
530.26	36538.10
530.43	36669.17
530.60	36662.15
530.77	36355.54
530.94	37165.37
531.11	36596.62
531.28	37057.70
531.46	36971.10
531.63	37546.87
531.80	37139.62
531.97	37195.79
532.14	37170.05
532.31	36804.92
532.48	37043.66
532.65	37158.34
532.82	37383.04
532.99	37443.89
533.16	37378.36
533.33	37516.45
533.50	37635.81
533.67	37572.62
533.84	37319.84
534.01	37535.17
534.18	37551.56
534.35	37837.10
534.52	37610.07
534.69	37982.21
534.86	37546.87
535.03	37734.12
535.20	38412.87
535.37	37989.24
535.54	38286.48
535.71	37902.64
535.88	38183.50
536.05	37907.32
536.22	38340.32
536.38	38185.84
536.55	38623.52
536.72	38237.33
536.89	38160.09
537.06	38291.16
537.23	38361.38
537.40	38579.05
537.57	38508.83
537.74	38555.64
537.91	38675.01
538.08	38855.23
538.25	38635.22
538.42	38588.41
538.59	38270.10
538.75	38775.66
538.92	38792.04
539.09	38408.19
539.26	38820.13
539.43	39096.31
539.60	38974.60
539.77	38565.01
539.94	39143.12
540.11	39079.92
540.28	39253.12
540.44	39283.55
540.61	39093.97
540.78	39683.78
540.95	39363.13
541.12	39049.50
541.29	39056.52
541.46	39248.44
541.62	39468.45
541.79	39887.41
541.96	39622.93
542.13	39452.07
542.30	39377.17
542.47	39754.00
542.63	39290.57
542.80	39711.87
542.97	40615.32
543.14	40105.08
543.31	40023.16
543.48	40032.52
543.64	40781.49
543.81	40505.31
543.98	40259.55
544.15	40072.31
544.32	40205.72
544.48	40645.74
544.65	40470.20
544.82	40493.61
544.99	40505.31
545.16	40348.50
545.32	40456.16
545.49	41254.28
545.66	41024.91
545.83	40722.98
546.00	41191.09
546.16	41055.34
546.33	40505.31
546.50	40423.39
546.67	40683.19
546.83	40407.01
547.00	40807.24
547.17	40765.11
547.34	41029.59
547.50	41031.93
547.67	41130.23
547.84	41324.50
548.00	41181.73
548.17	41333.86
548.34	41287.05
548.51	41343.22
548.67	41670.90
548.84	41387.69
549.01	41209.81
549.18	41085.76
549.34	41118.53
549.51	41727.07
549.68	41689.62
549.84	41532.81
550.01	41794.95
550.18	41380.67
550.34	41483.66
550.51	41516.42
550.68	41532.81
550.84	41301.09
551.01	42021.98
551.18	41462.59
551.34	41890.91
551.51	41916.65
551.68	41954.10
551.84	41893.25
552.01	41354.93
552.18	41947.08
552.34	41977.51
552.51	42178.79
552.68	42220.92
552.84	41717.71
553.01	42623.50
553.18	42312.20
553.34	41886.23
553.51	41656.85
553.67	42209.22
553.84	42539.24
554.01	42319.23
554.17	42553.28
554.34	41993.89
554.51	42595.41
554.67	41944.74
554.84	42342.63
555.00	42178.79
555.17	42195.18
555.33	42574.34
555.50	42361.36
555.67	42314.55
555.83	42328.59
556.00	42586.05
556.16	42618.81
556.33	42609.45
556.50	42703.07
556.66	42513.49
556.83	42192.84
556.99	42925.42
557.16	42909.04
557.32	42768.61
557.49	42859.89
557.65	42674.99
557.82	42958.19
557.98	43112.67
558.15	42742.86
558.32	43079.90
558.48	42614.13
558.65	42904.36
558.81	42745.20
558.98	42689.03
559.14	42679.67
559.31	42616.47
559.47	43037.77
559.64	42958.19
559.80	43316.29
559.97	43161.82
560.13	43318.64
560.30	43239.06
560.46	43082.24
560.63	43196.93
560.79	42880.95
560.96	43393.53
561.12	43253.10
561.29	42965.21
561.45	42939.47
561.61	42897.34
561.78	43746.95
561.94	43093.94
562.11	43433.32
562.27	43194.59
562.44	43386.51
562.60	43676.74
562.77	43438.00
562.93	43220.33
563.10	43545.67
563.26	42904.36
563.42	43704.82
563.59	43136.07
563.75	43384.17
563.92	43555.03
564.08	43725.89
564.24	43957.60
564.41	43346.72
564.57	43452.05
564.74	43618.22
564.90	43889.73
565.07	43250.76
565.23	43356.08
565.39	43164.16
565.56	43519.92
565.72	43510.56
565.88	43524.60
566.05	43344.38
566.21	43676.74
566.38	43161.82
566.54	43805.47
566.70	43735.25
566.87	44217.40
567.03	43782.06
567.19	44133.14
567.36	43868.66
567.52	43271.82
567.68	43697.80
567.85	43892.07
568.01	43784.40
568.17	43445.02
568.34	43852.28
568.50	43786.74
568.66	43686.10
568.83	43901.43
568.99	43667.37
569.15	43950.58
569.32	43538.65
569.48	43866.32
569.64	44133.14
569.81	44261.87
569.97	43807.81
570.13	43896.75
570.30	43805.47
570.46	43833.55
570.62	43482.47
570.78	43599.50
570.95	43966.96
571.11	43945.90
571.27	43992.71
571.43	44009.09
571.60	43756.32
571.76	43955.26
571.92	43831.21
572.09	44069.95
572.25	44226.76
572.41	43772.70
572.57	43962.28
572.74	44123.78
572.90	44196.34
573.06	44194.00
573.22	44109.74
573.38	43889.73
573.55	43618.22
573.71	43901.43
573.87	44060.58
574.03	43721.21
574.20	44091.01
574.36	43981.01
574.52	44233.78
574.68	43562.05
574.84	44350.81
575.01	44037.18
575.17	43988.03
575.33	43697.80
575.49	43910.79
575.65	44222.08
575.82	44072.29
575.98	43632.27
576.14	44465.50
576.30	44657.42
576.46	44121.44
576.62	43948.24
576.79	43941.22
576.95	43648.65
577.11	44041.86
577.27	43805.47
577.43	44650.40
577.59	44121.44
577.75	44081.65
577.92	43538.65
578.08	44062.93
578.24	43863.98
578.40	43742.27
578.56	44048.88
578.72	43995.05
578.88	44315.70
579.04	44449.11
579.21	44048.88
579.37	44294.64
579.53	43943.56
579.69	44409.32
579.85	43959.94
580.01	44322.72
580.17	44467.84
580.33	43969.30
580.49	44428.05
580.65	44212.72
580.82	44107.40
580.98	43959.94
581.14	43978.67
581.30	44973.39
581.46	44442.09
581.62	44418.69
581.78	44098.03
581.94	44528.69
582.10	44165.91
582.26	44388.26
582.42	44179.95
582.58	44416.35
582.74	44168.25
582.90	44275.91
583.06	44320.38
583.22	44729.98
583.38	44722.96
583.54	44711.25
583.70	44371.88
583.86	44439.75
584.02	44287.62
584.18	44306.34
584.34	44531.03
584.50	44521.67
584.66	44304.00
584.82	43789.08
584.98	44641.04
585.14	44252.51
585.30	44093.35
585.46	44832.96
585.62	44037.18
585.78	44369.54
585.94	43416.94
586.10	44231.44
586.26	44212.72
586.42	44306.34
586.58	44500.61
586.74	44378.90
586.90	44378.90
587.06	44130.80
587.22	44224.42
587.38	44137.82
587.54	44299.32
587.70	44119.10
587.86	43936.54
588.02	44105.06
588.18	44645.72
588.34	44114.42
588.49	44570.82
588.65	43758.66
588.81	43885.04
588.97	44210.38
589.13	44086.33
589.29	44357.83
589.45	44329.75
589.61	44561.46
589.77	44308.68
589.93	44222.08
590.08	44832.96
590.24	44402.30
590.40	44699.55
590.56	44886.79
590.72	44556.78
590.88	44205.70
591.04	44203.36
591.20	44725.30
591.35	44594.23
591.51	45219.15
591.67	44854.03
591.83	44884.45
591.99	44390.60
592.15	44683.17
592.31	44898.50
592.46	44519.33
592.62	44191.65
592.78	44762.75
592.94	44847.00
593.10	44449.11
593.26	44399.96
593.41	44872.75
593.57	44273.57
593.73	44016.11
593.89	44755.72
594.05	44584.86
594.20	44711.25
594.36	45090.42
594.52	44692.53
594.68	44664.44
594.84	44500.61
594.99	44762.75
595.15	44900.84
595.31	44641.04
595.47	44914.88
595.62	44636.36
595.78	44617.63
595.94	44605.93
596.10	44610.61
596.25	44465.50
596.41	44500.61
596.57	44392.94
596.73	44882.11
596.88	44355.49
597.04	44378.90
597.20	44289.96
597.36	44809.56
597.51	44996.80
597.67	44697.21
597.83	44842.32
597.99	44973.39
598.14	44652.74
598.30	44299.32
598.46	44694.87
598.61	44781.47
598.77	44477.20
598.93	44486.56
599.09	44797.85
599.24	45022.54
599.40	44980.42
599.56	44755.72
599.71	44472.52
599.87	44980.42
600.03	44811.90
600.18	44453.79
600.34	44477.20
600.50	44648.06
600.65	44531.03
600.81	45113.83
600.97	45315.11
601.12	45041.27
601.28	44776.79
601.44	44418.69
601.59	44652.74
601.75	44505.29
601.91	44687.85
602.06	44320.38
602.22	44959.35
602.37	44641.04
602.53	44215.06
602.69	44641.04
602.84	44643.38
603.00	44718.28
603.16	44615.29
603.31	44456.14
603.47	44612.95
603.62	44320.38
603.78	44872.75
603.94	44477.20
604.09	44966.37
604.25	44940.63
604.40	44605.93
604.56	44718.28
604.71	44924.24
604.87	44641.04
605.03	44657.42
605.18	44657.42
605.34	44774.45
605.49	44301.66
605.65	44507.63
605.80	44446.77
605.96	44566.14
606.12	45165.32
606.27	44942.97
606.43	44402.30
606.58	44348.47
606.74	44502.95
606.89	44533.37
607.05	44596.57
607.20	44788.49
607.36	44016.11
607.51	44493.58
607.67	44343.79
607.82	44507.63
607.98	44484.22
608.13	44004.41
608.29	44257.19
608.44	44016.11
608.60	44048.88
608.75	44381.24
608.91	43744.61
609.06	44037.18
609.22	44575.50
609.37	44091.01
609.53	44280.60
609.68	44406.98
609.84	44102.71
609.99	44083.99
610.15	44243.15
610.30	44179.95
610.46	44034.84
610.61	44500.61
610.76	43959.94
610.92	44296.98
611.07	43943.56
611.23	44313.36
611.38	44025.48
611.54	44011.43
611.69	44229.10
611.84	44102.71
612.00	43709.50
612.15	44009.09
612.31	44208.04
612.46	43922.49
612.62	44388.26
612.77	43917.81
612.92	44671.46
613.08	43863.98
613.23	43896.75
613.39	43929.51
613.54	43346.72
613.69	43564.39
613.85	43831.21
614.00	43662.69
614.15	44201.02
614.31	43739.93
614.46	44044.20
614.62	44107.40
614.77	43739.93
614.92	44032.50
615.08	43608.86
615.23	43246.08
615.38	43569.07
615.54	43407.58
615.69	43517.58
615.84	43115.01
616.00	43487.15
616.15	43185.22
616.30	43550.35
616.46	43306.93
616.61	43454.39
616.76	43222.67
616.92	42974.58
617.07	43311.61
617.22	43363.11
617.37	43105.65
617.53	43739.93
617.68	43086.92
617.83	43552.69
617.99	43138.41
618.14	43079.90
618.29	43363.11
618.45	43133.73
618.60	43323.32
618.75	42532.22
618.90	42777.97
619.06	43243.74
619.21	43093.94
619.36	43526.94
619.51	43007.34
619.67	42726.48
619.82	43325.66
619.97	42937.13
620.12	42651.58
620.28	42607.11
620.43	42476.04
620.58	42782.65
620.73	42698.39
620.89	42780.31
621.04	43005.00
621.19	42438.59
621.34	43016.71
621.49	42440.93
621.65	42721.80
621.80	42740.52
621.95	42579.03
622.10	42548.60
622.25	42209.22
622.41	41977.51
622.56	42368.38
622.71	42595.41
622.86	41890.91
623.01	42525.19
623.16	42323.91
623.32	42459.66
623.47	42487.74
623.62	42326.25
623.77	42059.43
623.92	42433.91
624.07	41874.52
624.23	42057.09
624.38	42206.88
624.53	41750.48
624.68	41968.15
624.83	41930.70
624.98	42117.94
625.13	41778.56
625.29	42157.73
625.44	41848.78
625.59	41790.27
625.74	41132.57
625.89	41612.38
626.04	41488.34
626.19	42024.32
626.34	41713.03
626.49	42342.63
626.65	42199.86
626.80	42288.80
626.95	41638.13
627.10	41888.57
627.25	41731.75
627.40	41469.61
627.55	41322.16
627.70	41212.15
627.85	41184.07
628.00	41127.89
628.15	41326.84
628.30	41263.64
628.45	41317.48
628.60	41364.29
628.76	41567.91
628.91	41684.94
629.06	41282.37
629.21	41273.01
629.36	41074.06
629.51	41289.39
629.66	41151.30
629.81	40903.20
629.96	41055.34
630.11	41347.90
630.26	41242.58
630.41	41443.87
630.56	41158.32
630.71	41027.25
630.86	40673.83
631.01	41041.29
631.16	41230.88
631.31	40760.43
631.46	40484.25
631.61	41310.46
631.76	40903.20
631.91	40882.14
632.06	41083.42
632.21	41397.06
632.36	40748.73
632.51	40708.94
632.66	40577.87
632.81	40091.04
632.96	40861.07
633.10	40528.72
633.25	40701.92
633.40	40580.21
633.55	40985.12
633.70	40006.78
633.85	40432.75
634.00	40608.29
634.15	40383.60
634.30	40615.32
634.45	40280.62
634.60	40453.82
634.75	40493.61
634.90	40407.01
635.05	40437.44
635.19	40100.40
635.34	40374.24
635.49	40037.20
635.64	40123.80
635.79	40247.85
635.94	40327.43
636.09	40217.43
636.24	39868.69
636.39	39803.15
636.53	39985.71
636.68	39711.87
636.83	39819.53
636.98	39959.97
637.13	39915.50
637.28	40201.04
637.43	39875.71
637.57	40034.86
637.72	40044.23
637.87	39707.19
638.02	39557.39
638.17	39749.32
638.32	39847.62
638.46	39466.11
638.61	39557.39
638.76	39089.29
638.91	39150.14
639.06	39929.54
639.20	39697.83
639.35	39737.62
639.50	39711.87
639.65	39899.11
639.80	40002.10
639.94	39739.96
640.09	39271.85
640.24	39115.03
640.39	39145.46
640.54	39323.34
640.68	39103.33
640.83	39304.62
640.98	39306.96
641.13	39096.31
641.27	39299.94
641.42	39115.03
641.57	39407.60
641.72	39412.28
641.86	38955.88
642.01	38998.01
642.16	38843.53
642.31	38920.77
642.45	39297.59
642.60	38548.62
642.75	38897.36
642.90	38948.85
643.04	39154.82
643.19	38525.22
643.34	39028.43
643.48	38426.92
643.63	38635.22
643.78	38565.01
643.93	38242.01
644.07	38675.01
644.22	38621.18
644.37	38494.79
644.51	38431.60
644.66	39096.31
644.81	38424.57
644.95	39063.54
645.10	38960.56
645.25	38892.68
645.39	38916.09
645.54	38522.88
645.69	38490.11
645.83	38714.80
645.98	38284.14
646.13	38597.77
646.27	38747.57
646.42	38293.50
646.57	38719.48
646.71	38319.25
646.86	38422.23
647.00	38710.12
647.15	38567.35
647.30	38197.54
647.44	38602.46
647.59	37886.25
647.74	38342.66
647.88	38462.02
648.03	38169.46
648.17	37900.29
648.32	37963.49
648.47	38080.52
648.61	37581.98
648.76	38199.88
648.90	38354.36
649.05	37935.40
649.20	37776.25
649.34	38099.24
649.49	37933.06
649.63	38302.87
649.78	37406.44
649.92	37567.94
650.07	38440.96
650.21	37441.55
650.36	37633.47
650.51	37762.20
650.65	37961.15
650.80	38136.69
650.94	38059.45
651.09	38124.99
651.23	37930.72
651.38	37411.12
651.52	37830.08
651.67	37504.74
651.81	37483.68
651.96	37514.11
652.10	37006.21
652.25	37418.14
652.39	37343.25
652.54	37483.68
652.68	37493.04
652.83	37579.64
652.97	37909.66
653.12	37249.63
653.26	37177.07
653.41	37331.54
653.55	36830.67
653.70	37460.27
653.84	37048.34
653.99	37085.79
654.13	37277.71
654.27	37141.96
654.42	36964.08
654.56	36947.70
654.71	36687.90
654.85	37439.21
655.00	37148.98
655.14	37029.62
655.29	36723.01
655.43	37036.64
655.57	36519.38
655.72	36519.38
655.86	36554.49
656.01	36212.77
656.15	36697.26
656.30	36814.29
656.44	36435.12
656.58	36388.31
656.73	36402.35
656.87	36238.51
657.01	36451.50
657.16	36460.87
657.30	36432.78
657.45	36271.28
657.59	36577.89
657.73	36367.24
657.88	36486.61
658.02	36760.45
658.16	36411.71
658.31	36278.30
658.45	36605.98
658.60	36144.89
658.74	36210.43
658.88	36655.13
659.03	36231.49
659.17	36182.34
659.31	36210.43
659.46	35566.78
659.60	36055.95
659.74	36046.59
659.89	35924.88
660.03	35807.86
660.17	36112.13
660.32	35775.09
660.46	36109.78
660.60	35517.63
660.74	35770.41
660.89	35840.62
661.03	35587.85
661.17	35524.65
661.32	35061.22
661.46	35283.58
661.60	35082.29
661.74	35283.58
661.89	35641.68
662.03	35611.25
662.17	35250.81
662.31	35255.49
662.46	35019.10
662.60	34958.24
662.74	35213.36
662.88	34909.09
663.03	34569.71
663.17	34426.94
663.31	34438.64
663.45	34705.46
663.60	34756.96
663.74	34707.80
663.88	34862.28
664.02	34202.25
664.17	34487.79
664.31	34499.50
664.45	34796.74
664.59	34354.38
664.73	34448.00
664.88	34684.40
665.02	34005.64
665.16	34483.11
665.30	34401.19
665.44	33804.36
665.59	34614.18
665.73	33937.77
665.87	33881.60
666.01	34019.69
666.15	33841.81
666.29	33741.16
666.44	33830.10
666.58	33855.85
666.72	34000.96
666.86	33677.97
667.00	33354.97
667.14	33284.76
667.28	33420.51
667.43	32987.51
667.57	33366.68
667.71	33020.28
667.85	33235.61
667.99	33670.95
668.13	33144.33
668.27	32964.10
668.41	33020.28
668.56	32634.09
668.70	33233.27
668.84	32910.27
668.98	32577.92
669.12	32570.90
669.26	32589.62
669.40	32306.41
669.54	32496.00
669.68	32343.86
669.82	32280.67
669.96	32264.28
670.10	32292.37
670.25	32488.98
670.39	32465.57
670.53	32006.83
670.67	31938.95
670.81	32343.86
670.95	32198.75
671.09	31557.44
671.23	32266.63
671.37	32458.55
671.51	31550.42
671.65	31562.12
671.79	31732.98
671.93	31615.96
672.07	31749.37
672.21	31709.58
672.35	31393.61
672.49	31384.24
672.63	31711.92
672.77	31409.99
672.91	31255.51
673.05	31335.09
673.19	31225.09
673.33	30689.10
673.47	30979.33
673.61	30401.22
673.75	31026.14
673.89	30785.07
674.03	30771.02
674.17	30288.87
674.31	30733.57
674.45	30508.88
674.59	30731.23
674.73	30672.72
674.87	30361.43
675.01	30396.54
675.15	30323.98
675.29	30450.37
675.43	30199.93
675.56	29984.60
675.70	29706.08
675.84	29766.93
675.98	29032.00
676.12	29539.90
676.26	29376.06
676.40	29282.44
676.54	29504.79
676.68	29713.10
676.82	29064.77
676.96	29413.51
677.10	29551.60
677.23	28961.79
677.37	29256.70
677.51	28758.16
677.65	28584.96
677.79	28409.42
677.93	28615.39
678.07	28716.03
678.21	28133.24
678.34	28322.82
678.48	27852.38
678.62	27978.76
678.76	27592.58
678.90	27274.26
679.04	27632.36
679.18	27569.17
679.31	27721.30
679.45	27571.51
679.59	27381.93
679.73	27161.92
679.87	27358.52
680.00	27080.00
680.14	27087.02
680.28	27119.79
680.42	26960.63
680.56	27374.91
680.70	26768.71
680.83	27145.53
680.97	26757.00
681.11	27129.15
681.25	26630.62
681.39	26473.80
681.52	26462.10
681.66	26813.18
681.80	26415.29
681.94	26405.92
682.07	26230.38
682.21	26024.42
682.35	25680.36
682.49	26457.42
682.62	26141.44
682.76	25673.34
682.90	26075.91
683.04	25954.20
683.17	25563.33
683.31	24959.47
683.45	25308.21
683.59	25266.08
683.72	24835.42
683.86	25291.83
684.00	25263.74
684.13	25144.38
684.27	24950.11
684.41	24617.75
684.55	24407.11
684.68	24631.80
684.82	24458.60
684.96	24271.36
685.09	24531.15
685.23	24357.96
685.37	24554.56
685.50	24093.47
685.64	23920.28
685.78	23995.17
685.91	23681.54
686.05	23508.34
686.19	23484.94
686.32	23543.45
686.46	23442.81
686.60	23012.15
686.73	23042.57
686.87	23091.73
687.01	22738.30
687.14	22703.20
687.28	22874.06
687.42	22735.96
687.55	22434.03
687.69	22895.12
687.82	22480.85
687.96	22848.31
688.10	23077.68
688.23	22462.12
688.37	22192.96
688.50	21738.90
688.64	21876.99
688.78	22059.55
688.91	22288.92
689.05	21759.96
689.18	22057.21
689.32	21380.79
689.46	21563.36
689.59	21720.17
689.73	21432.29
689.86	21682.72
690.00	21404.20
690.13	21259.09
690.27	21383.13
690.41	21043.76
690.54	21186.53
690.68	20952.48
690.81	20772.25
690.95	20842.47
691.08	20540.54
691.22	20379.04
691.35	20397.77
691.49	20428.20
691.62	20877.58
691.76	20514.80
691.89	20269.04
692.03	20226.91
692.16	20135.63
692.30	19906.26
692.43	19557.52
692.57	19580.92
692.70	19737.74
692.84	19508.37
692.97	19623.05
693.11	19363.25
693.24	19559.86
693.38	19250.91
693.51	19316.44
693.65	19613.69
693.78	19250.91
693.92	19185.37
694.05	18874.08
694.19	18843.65
694.32	19002.81
694.45	18710.24
694.59	18642.37
694.72	18672.79
694.86	18511.30
694.99	18258.52
695.13	18469.17
695.26	18455.12
695.39	18288.95
695.53	18274.90
695.66	18286.61
695.80	18333.42
695.93	18008.08
696.07	17867.65
696.20	17968.29
696.33	17980.00
696.47	17727.22
696.60	17579.76
696.73	17483.80
696.87	17352.73
697.00	17305.92
697.14	17439.33
697.27	17490.82
697.40	17268.47
697.54	17181.87
697.67	17102.29
697.80	16704.40
697.94	16879.94
698.07	16622.48
698.21	16739.51
698.34	17043.78
698.47	16629.51
698.61	16266.72
698.74	16444.60
698.87	16159.06
699.01	16215.23
699.14	15976.50
699.27	16039.69
699.40	16166.08
699.54	15990.54
699.67	15688.61
699.80	15800.96
699.94	15611.37
700.07	15943.73
700.20	15655.84
700.34	15501.37
700.47	15477.96
700.60	15845.43
700.73	15754.15
700.87	15428.81
701.00	15480.30
701.13	15288.38
701.26	15281.36
701.40	15152.63
701.53	14740.69
701.66	14998.15
701.79	14995.81
701.93	15028.58
702.06	14984.11
702.19	14817.93
702.32	14712.61
702.46	14527.71
702.59	14539.41
702.72	14691.54
702.85	14588.56
702.99	14431.74
703.12	14239.82
703.25	14249.18
703.38	14141.52
703.51	14026.83
703.65	13984.70
703.78	14033.85
703.91	13837.25
704.04	13973.00
704.17	13893.42
704.31	13579.79
704.44	13603.19
704.57	13848.95
704.70	13434.68
704.83	13640.64
704.96	13577.45
705.10	13687.45
705.23	13624.26
>>>>>End Processed Spectral Data<<<<<
