SpectraSuite Data File
++++++++++++++++++++++++++++++++++++
Date: Fri Oct 25 11:34:50 EDT 2013
User: price-jones
Dark Spectrum Present: No
Reference Spectrum Present: No
Number of Sampled Component Spectra: 1
Spectrometers: USB2+H05261
Integration Time (usec): 100000 (USB2+H05261)
Spectra Averaged: 1 (USB2+H05261)
Boxcar Smoothing: 0 (USB2+H05261)
Correct for Electrical Dark: No (USB2+H05261)
Strobe/Lamp Enabled: No (USB2+H05261)
Correct for Detector Non-linearity: No (USB2+H05261)
Correct for Stray Light: No (USB2+H05261)
Number of Pixels in Processed Spectrum: 2048
>>>>>Begin Processed Spectral Data<<<<<
365.73	290.23
365.92	290.23
366.12	290.23
366.32	159.16
366.52	182.56
366.72	238.73
366.91	180.22
367.11	177.88
367.31	196.60
367.51	187.24
367.70	154.48
367.90	210.65
368.10	173.20
368.30	187.24
368.49	205.97
368.69	175.54
368.89	154.48
369.09	222.35
369.28	201.29
369.48	187.24
369.68	229.37
369.87	238.73
370.07	278.52
370.27	299.59
370.47	325.33
370.66	444.70
370.86	500.87
371.06	545.34
371.25	519.60
371.45	587.47
371.65	519.60
371.84	561.73
372.04	543.00
372.24	550.03
372.44	596.84
372.63	592.16
372.83	650.67
373.03	645.99
373.22	561.73
373.42	575.77
373.62	592.16
373.81	568.75
374.01	601.52
374.21	648.33
374.40	648.33
374.60	653.01
374.79	624.92
374.99	634.29
375.19	596.84
375.38	732.59
375.58	648.33
375.78	692.80
375.97	648.33
376.17	741.95
376.37	695.14
376.56	613.22
376.76	704.50
376.95	664.71
377.15	662.37
377.35	748.97
377.54	657.69
377.74	624.92
377.93	603.86
378.13	638.97
378.33	690.46
378.52	664.71
378.72	688.12
378.91	746.63
379.11	617.90
379.31	636.63
379.50	702.16
379.70	734.93
379.89	648.33
380.09	739.61
380.28	688.12
380.48	655.35
380.68	711.52
380.87	706.84
381.07	744.29
381.26	751.31
381.46	716.20
381.65	772.38
381.85	727.91
382.04	711.52
382.24	681.10
382.43	784.08
382.63	741.95
382.83	716.20
383.02	819.19
383.22	828.55
383.41	777.06
383.61	702.16
383.80	770.04
384.00	772.38
384.19	781.74
384.39	812.17
384.58	772.38
384.78	830.89
384.97	861.32
385.17	821.53
385.36	812.17
385.56	823.87
385.75	814.51
385.95	894.08
386.14	802.80
386.34	908.13
386.53	739.61
386.72	851.96
386.92	866.00
387.11	875.36
387.31	786.42
387.50	847.27
387.70	784.08
387.89	912.81
388.09	807.48
388.28	889.40
388.48	863.66
388.67	898.77
388.86	844.93
389.06	901.11
389.25	997.07
389.45	861.32
389.64	1006.43
389.84	917.49
390.03	933.87
390.22	947.92
390.42	896.43
390.61	926.85
390.81	877.70
391.00	919.83
391.19	1001.75
391.39	908.13
391.58	978.34
391.78	992.39
391.97	973.66
392.16	1029.84
392.36	1041.54
392.55	1071.97
392.75	1027.50
392.94	997.07
393.13	926.85
393.33	1008.77
393.52	992.39
393.71	1090.69
393.91	1043.88
394.10	1041.54
394.29	1004.09
394.49	1029.84
394.68	1029.84
394.88	1050.90
395.07	1184.31
395.26	1137.50
395.46	1071.97
395.65	1123.46
395.84	1060.26
396.04	1205.38
396.23	1174.95
396.42	1071.97
396.62	1179.63
396.81	1144.52
397.00	1116.44
397.19	1196.01
397.39	1086.01
397.58	1186.65
397.77	1235.80
397.97	1231.12
398.16	1135.16
398.35	1359.85
398.55	1219.42
398.74	1270.91
398.93	1280.27
399.12	1217.08
399.32	1210.06
399.51	1303.68
399.70	1284.95
399.90	1233.46
400.09	1294.32
400.28	1387.94
400.47	1341.13
400.67	1425.39
400.86	1385.60
401.05	1425.39
401.24	1329.42
401.44	1392.62
401.63	1439.43
401.82	1472.20
402.01	1345.81
402.21	1383.26
402.40	1387.94
402.59	1479.22
402.78	1378.58
402.97	1460.49
403.17	1544.75
403.36	1387.94
403.55	1526.03
403.74	1556.46
403.93	1568.16
404.13	1502.62
404.32	1563.48
404.51	1563.48
404.70	1579.86
404.89	1568.16
405.09	1661.78
405.28	1514.33
405.47	1586.88
405.66	1586.88
405.85	1631.35
406.05	1664.12
406.24	1621.99
406.43	1755.40
406.62	1741.36
406.81	1710.93
407.00	1671.14
407.20	1696.89
407.39	1753.06
407.58	1706.25
407.77	1767.10
407.96	1781.15
408.15	1708.59
408.34	1804.55
408.54	1834.98
408.73	1792.85
408.92	1729.66
409.11	1933.28
409.30	1893.49
409.49	1813.92
409.68	1914.56
409.87	1846.68
410.07	1952.01
410.26	1902.86
410.45	1926.26
410.64	1912.22
410.83	2054.99
411.02	2047.97
411.21	2087.76
411.40	2073.71
411.59	2172.02
411.78	2165.00
411.98	2108.82
412.17	2150.95
412.36	2113.50
412.55	2174.36
412.74	2193.08
412.93	2249.25
413.12	2125.21
413.31	2300.75
413.50	2174.36
413.69	2352.24
413.88	2392.03
414.07	2349.90
414.26	2356.92
414.45	2368.62
414.64	2333.51
414.83	2387.35
415.02	2459.90
415.22	2588.63
415.41	2490.33
415.60	2504.37
415.79	2513.74
415.98	2621.40
416.17	2576.93
416.36	2548.84
416.55	2675.23
416.74	2630.76
416.93	2546.50
417.12	2647.15
417.31	2810.98
417.50	2839.07
417.69	2841.41
417.88	2789.92
418.07	2740.77
418.26	2855.45
418.45	2733.75
418.64	2876.52
418.83	2923.33
419.02	2888.22
419.21	2897.58
419.39	2979.50
419.58	2974.82
419.77	2937.37
419.96	3005.25
420.15	2897.58
420.34	3040.36
420.53	3033.33
420.72	3091.85
420.91	3145.68
421.10	3026.31
421.29	3136.32
421.48	3005.25
421.67	3119.93
421.86	3119.93
422.05	3084.83
422.24	3148.02
422.43	3297.81
422.61	3141.00
422.80	3232.28
422.99	3330.58
423.18	3194.83
423.37	3234.62
423.56	3171.43
423.75	3265.05
423.94	3148.02
424.13	2963.12
424.32	3148.02
424.50	3220.58
424.69	3358.67
424.88	3262.71
425.07	3274.41
425.26	3197.17
425.45	3314.20
425.64	3253.34
425.83	3197.17
426.01	3361.01
426.20	3375.05
426.39	3325.90
426.58	3309.52
426.77	3335.26
426.96	3414.84
427.15	3300.16
427.33	3382.07
427.52	3337.60
427.71	3344.63
427.90	3480.38
428.09	3485.06
428.28	3466.33
428.46	3510.80
428.65	3428.88
428.84	3574.00
429.03	3609.11
429.22	3536.55
429.40	3494.42
429.59	3576.34
429.78	3372.71
429.97	3466.33
430.16	3566.98
430.34	3641.87
430.53	3779.97
430.72	3599.74
430.91	3660.60
431.10	3513.14
431.28	3665.28
431.47	3824.44
431.66	3742.52
431.85	3688.68
432.03	3901.67
432.22	4018.70
432.41	3765.92
432.60	3927.42
432.79	3777.62
432.97	3922.74
433.16	3892.31
433.35	3934.44
433.54	3829.12
433.72	3920.40
433.91	3920.40
434.10	3967.21
434.28	3850.18
434.47	3957.85
434.66	4112.32
434.85	4168.49
435.03	4187.22
435.22	3918.06
435.41	4304.25
435.59	4241.05
435.78	4161.47
435.97	4245.73
436.16	4238.71
436.34	4114.66
436.53	4201.26
436.72	4297.22
436.90	4095.94
437.09	4255.09
437.28	4131.05
437.46	4311.27
437.65	4294.88
437.84	4255.09
438.02	4327.65
438.21	4337.01
438.40	4250.41
438.58	4496.17
438.77	4491.49
438.96	4505.53
439.14	4461.06
439.33	4484.47
439.52	4603.83
439.70	4660.01
439.89	4692.77
440.08	4791.08
440.26	4755.97
440.45	4819.16
440.63	4847.25
440.82	4805.12
441.01	4762.99
441.19	4894.06
441.38	4968.96
441.57	5048.54
441.75	5062.58
441.94	5062.58
442.12	4983.00
442.31	5210.03
442.50	5186.63
442.68	5118.75
442.87	5055.56
443.05	5107.05
443.24	5284.93
443.43	5163.22
443.61	5247.48
443.80	5315.36
443.98	4992.36
444.17	4987.68
444.35	5416.00
444.54	5582.18
444.73	5205.35
444.91	5359.83
445.10	5334.08
445.28	5460.47
445.47	5277.91
445.65	5329.40
445.84	5397.28
446.02	5338.76
446.21	5451.11
446.39	5352.81
446.58	5444.09
446.77	5537.71
446.95	5444.09
447.14	5448.77
447.32	5425.36
447.51	5399.62
447.69	5357.49
447.88	5476.85
448.06	5500.26
448.25	5488.56
448.43	5495.58
448.62	5540.05
448.80	5460.47
448.99	5509.62
449.17	5479.19
449.36	5479.19
449.54	5645.37
449.73	5589.20
449.91	5678.14
450.10	5753.04
450.28	5900.49
450.46	5874.74
450.65	5722.61
450.83	5668.78
451.02	5823.25
451.20	5731.97
451.39	5959.00
451.57	5849.00
451.76	5940.28
451.94	5832.62
452.13	5877.09
452.31	5778.78
452.49	5699.20
452.68	6017.52
452.86	5991.77
453.05	5996.45
453.23	6047.94
453.42	5907.51
453.60	6031.56
453.78	6214.12
453.97	6097.10
454.15	5987.09
454.34	6052.63
454.52	6057.31
454.70	6094.76
454.89	6094.76
455.07	6312.42
455.26	6246.89
455.44	6202.42
455.62	6251.57
455.81	6197.74
455.99	6265.61
456.17	6436.47
456.36	6427.11
456.54	6354.55
456.73	6448.18
456.91	6651.80
457.09	6572.22
457.28	6750.10
457.46	6637.76
457.64	6562.86
457.83	6696.27
458.01	6619.04
458.19	6878.83
458.38	6717.34
458.56	6782.87
458.74	6853.09
458.93	6621.38
459.11	6700.95
459.29	6771.17
459.48	6810.96
459.66	6710.32
459.84	6963.09
460.03	7007.56
460.21	6984.16
460.39	6984.16
460.57	6956.07
460.76	7119.91
460.94	7009.90
461.12	7129.27
461.31	7286.09
461.49	7241.62
461.67	7098.84
461.85	7403.11
462.04	7227.57
462.22	7353.96
462.40	7337.58
462.59	7382.05
462.77	7283.75
462.95	7279.07
463.13	7356.30
463.32	7351.62
463.50	7302.47
463.68	7396.09
463.86	7400.77
464.05	7349.28
464.23	7452.27
464.41	7400.77
464.59	7386.73
464.78	7660.57
464.96	7763.56
465.14	7545.89
465.32	7513.12
465.50	7534.18
465.69	7630.15
465.87	7583.34
466.05	7772.92
466.23	7676.96
466.41	7632.49
466.60	7978.89
466.78	7801.01
466.96	7613.76
467.14	7721.43
467.32	7812.71
467.51	7962.50
467.69	7662.91
467.87	7850.16
468.05	7948.46
468.23	7903.99
468.41	7695.68
468.60	7819.73
468.78	8154.43
468.96	7981.23
469.14	7969.52
469.32	8131.02
469.50	7840.79
469.69	8037.40
469.87	8154.43
470.05	8084.21
470.23	8236.35
470.41	8325.29
470.59	8451.67
470.77	8379.12
470.95	8510.19
471.14	8477.42
471.32	8283.16
471.50	8671.68
471.68	8559.34
471.86	8739.56
472.04	8542.96
472.22	8697.43
472.40	8517.21
472.58	8863.61
472.77	8662.32
472.95	8922.12
473.13	9228.73
473.31	8753.60
473.49	9160.86
473.67	8798.07
473.85	9034.47
474.03	9219.37
474.21	9092.98
474.39	9376.19
474.57	9366.82
474.75	9348.10
474.93	9399.59
475.12	9390.23
475.30	9465.13
475.48	9348.10
475.66	9488.53
475.84	9591.52
476.02	9551.73
476.20	9647.69
476.38	9764.72
476.56	9987.07
476.74	9832.59
476.92	9816.21
477.10	10036.22
477.28	9968.34
477.46	9982.38
477.64	10045.58
477.82	10403.68
478.00	10490.28
478.18	10633.05
478.36	10569.86
478.54	10595.61
478.72	10691.57
478.90	10960.73
479.08	10979.45
479.26	10949.03
479.44	11150.31
479.62	10836.68
479.80	11220.53
479.98	11173.72
480.16	11473.31
480.34	11169.04
480.52	11545.86
480.70	11625.44
480.88	11506.07
481.06	11634.80
481.24	11599.70
481.41	11726.08
481.59	12074.82
481.77	12257.39
481.95	12116.95
482.13	12257.39
482.31	12269.09
482.49	12451.65
482.67	12444.63
482.85	12589.74
483.03	12617.83
483.21	12894.01
483.39	12861.24
483.57	12791.03
483.74	13004.02
483.92	13357.44
484.10	13092.96
484.28	13598.51
484.46	13589.15
484.64	13820.86
484.82	13689.79
485.00	13570.43
485.18	14068.96
485.35	14141.52
485.53	14061.94
485.71	13914.48
485.89	14684.52
486.07	14216.41
486.25	14401.32
486.43	14448.13
486.61	14895.17
486.78	14787.50
486.96	15009.86
487.14	15330.51
487.32	15274.34
487.50	15349.23
487.68	15356.25
487.85	15552.86
488.03	15604.35
488.21	15936.71
488.39	15770.53
488.57	15920.32
488.75	16009.26
488.92	16175.44
489.10	16355.66
489.28	16652.91
489.46	16697.38
489.64	16681.00
489.81	16779.30
489.99	16980.59
490.17	17078.89
490.35	17130.38
490.53	17376.14
490.70	17509.55
490.88	17460.40
491.06	17900.42
491.24	18001.06
491.41	17841.90
491.59	17790.41
491.77	18200.01
491.95	18148.51
492.13	18305.33
492.30	18623.64
492.48	18490.23
492.66	18799.18
492.84	18675.13
493.01	18920.89
493.19	18927.91
493.37	19398.36
493.54	19103.45
493.72	19190.05
493.90	19529.43
494.08	19777.53
494.25	19662.84
494.43	19576.24
494.61	19740.08
494.79	20016.26
494.96	19922.64
495.14	20056.05
495.32	20273.72
495.49	20463.30
495.67	20692.68
495.85	20563.95
496.02	20676.29
496.20	20793.32
496.38	21125.68
496.55	20978.22
496.73	21411.22
496.91	21310.58
497.09	21139.72
497.26	21366.75
497.44	21671.02
497.62	21460.37
497.79	22104.02
497.97	21848.90
498.14	21860.60
498.32	22216.36
498.50	22214.02
498.67	22197.64
498.85	22356.80
499.03	22745.33
499.20	22546.38
499.38	22801.50
499.56	22948.95
499.73	23119.81
499.91	22843.63
500.08	23370.25
500.26	22834.27
500.44	22991.08
500.61	23220.45
500.79	23541.11
500.97	23412.38
501.14	23784.52
501.32	24025.60
501.49	23517.70
501.67	23791.55
501.84	23974.11
502.02	24018.58
502.20	24053.69
502.37	23807.93
502.55	23936.66
502.72	24261.99
502.90	24533.50
503.07	23948.36
503.25	24519.45
503.43	24400.08
503.60	24783.93
503.78	24659.88
503.95	24877.55
504.13	24795.64
504.30	25125.65
504.48	25027.35
504.65	25195.87
504.83	25507.16
505.01	25359.70
505.18	25469.71
505.36	25876.96
505.53	25504.82
505.71	25647.59
505.88	25542.27
506.06	25837.17
506.23	26064.21
506.41	26031.44
506.58	25785.68
506.76	26169.53
506.93	26263.15
507.11	25996.33
507.28	26071.23
507.46	26363.79
507.63	26539.33
507.81	26792.11
507.98	26335.71
508.16	26831.90
508.33	26864.67
508.50	26799.13
508.68	26867.01
508.85	27124.47
509.03	27037.87
509.20	27180.64
509.38	27363.20
509.55	27807.90
509.73	27508.32
509.90	27723.65
510.08	27805.56
510.25	27587.89
510.42	27658.11
510.60	28257.29
510.77	28081.75
510.95	28350.91
511.12	28151.96
511.30	28109.83
511.47	28503.04
511.64	28205.80
511.82	28348.57
511.99	28425.81
512.17	28451.55
512.34	28357.93
512.51	28751.14
512.69	28926.68
512.86	28603.69
513.04	28893.91
513.21	28912.64
513.38	29029.66
513.56	29078.82
513.73	28868.17
513.90	29109.24
514.08	29146.69
514.25	29722.46
514.43	29338.62
514.60	29462.66
514.77	29511.81
514.95	29809.06
515.12	29621.82
515.29	29490.75
515.47	30005.67
515.64	30359.09
515.81	29706.08
515.99	29792.68
516.16	30359.09
516.33	30221.00
516.51	30246.74
516.68	30169.51
516.85	30515.90
517.03	30380.15
517.20	30782.73
517.37	30646.97
517.54	30363.77
517.72	30663.36
517.89	30834.22
518.06	30911.46
518.24	30654.00
518.41	30588.46
518.58	31145.51
518.75	30841.24
518.93	31360.84
519.10	30895.07
519.27	31407.65
519.45	31253.17
519.62	31538.72
519.79	31681.49
519.96	31515.31
520.14	31997.46
520.31	31634.68
520.48	31732.98
520.65	31992.78
520.83	32187.05
521.00	32397.70
521.17	31950.65
521.34	31868.73
521.52	32048.96
521.69	32493.66
521.86	32645.79
522.03	32428.12
522.20	33020.28
522.38	32917.29
522.55	32919.63
522.72	32582.60
522.89	32643.45
523.07	32980.49
523.24	32900.91
523.41	33003.89
523.58	33469.66
523.75	33275.40
523.92	32900.91
524.10	32975.81
524.27	33268.37
524.44	33591.37
524.61	33364.34
524.78	33165.39
524.96	33729.46
525.13	33858.19
525.30	34047.77
525.47	33748.18
525.64	34031.39
525.81	33811.38
525.98	34288.85
526.16	33626.48
526.33	34391.83
526.50	34239.70
526.67	33687.33
526.84	34431.62
527.01	34562.69
527.18	34387.15
527.36	34660.99
527.53	34539.29
527.70	34689.08
527.87	34672.70
528.04	34965.26
528.21	34485.45
528.38	34941.86
528.55	35072.93
528.72	34941.86
528.89	35318.68
529.07	34763.98
529.24	34857.60
529.41	35192.30
529.58	35140.80
529.75	35112.72
529.92	35482.52
530.09	35229.74
530.26	35168.89
530.43	35363.15
530.60	35391.24
530.77	35196.98
530.94	35849.99
531.11	35370.18
531.28	35934.24
531.46	35534.01
531.63	35995.10
531.80	35592.53
531.97	36037.23
532.14	35599.55
532.31	35894.46
532.48	36264.26
532.65	36023.19
532.82	36091.06
532.99	36315.75
533.16	36364.90
533.33	36208.09
533.50	36355.54
533.67	36318.09
533.84	36198.73
534.01	36535.76
534.18	36325.11
534.35	36613.00
534.52	36676.19
534.69	37085.79
534.86	36828.33
535.03	37153.66
535.20	37024.93
535.37	37020.25
535.54	37258.99
535.71	37104.51
535.88	37471.98
536.05	37041.32
536.22	37198.13
536.38	37195.79
536.55	37221.54
536.72	37387.72
536.89	37118.56
537.06	37385.38
537.23	37504.74
537.40	37041.32
537.57	37394.74
537.74	37378.36
537.91	37579.64
538.08	37488.36
538.25	37546.87
538.42	37722.41
538.59	37965.83
538.75	37799.65
538.92	37773.91
539.09	38157.75
539.26	37937.74
539.43	37921.36
539.60	37668.58
539.77	38319.25
539.94	38471.39
540.11	38089.88
540.28	38197.54
540.44	38377.76
540.61	38162.43
540.78	38038.39
540.95	38455.00
541.12	38319.25
541.29	38110.94
541.46	38494.79
541.62	38693.74
541.79	38852.89
541.96	37984.55
542.13	38447.98
542.30	38820.13
542.47	38480.75
542.63	38487.77
542.80	39103.33
542.97	39100.99
543.14	39367.81
543.31	38941.83
543.48	38972.26
543.64	39845.28
543.81	39175.89
543.98	39772.72
544.15	39501.22
544.32	39313.98
544.48	39473.13
544.65	39906.13
544.82	39674.42
544.99	39622.93
545.16	39545.69
545.32	39562.08
545.49	40170.61
545.66	39934.22
545.83	40006.78
546.00	39910.82
546.16	40381.26
546.33	40018.48
546.50	40182.32
546.67	40016.14
546.83	39557.39
547.00	40196.36
547.17	39856.98
547.34	40329.77
547.50	39899.11
547.67	40713.62
547.84	40264.24
548.00	40451.48
548.17	40617.66
548.34	40856.39
548.51	40732.34
548.67	40383.60
548.84	40411.69
549.01	40423.39
549.18	40741.71
549.34	41008.53
549.51	41155.98
549.68	40945.33
549.84	40556.80
550.01	40730.00
550.18	40538.08
550.34	40879.80
550.51	40907.88
550.68	41109.17
550.84	40746.39
551.01	41024.91
551.18	41036.61
551.34	41198.11
551.51	40861.07
551.68	41127.89
551.84	41045.97
552.01	41097.47
552.18	41045.97
552.34	41226.20
552.51	41216.83
552.68	41336.20
552.84	41596.00
553.01	41411.10
553.18	41256.62
553.34	41457.91
553.51	41043.63
553.67	41717.71
553.84	41682.60
554.01	42054.75
554.17	41839.42
554.34	41762.18
554.51	41755.16
554.67	41832.39
554.84	41792.61
555.00	41698.98
555.17	42080.49
555.33	42007.94
555.50	42167.09
555.67	41792.61
555.83	41907.29
556.00	42490.09
556.16	42625.84
556.33	42415.19
556.50	41879.21
556.66	42000.91
556.83	42234.97
556.99	42342.63
557.16	42300.50
557.32	42349.65
557.49	42660.94
557.65	42117.94
557.82	42286.46
557.98	42614.13
558.15	42497.11
558.32	42431.57
558.48	42403.49
558.65	42876.27
558.81	42813.08
558.98	42417.53
559.14	42581.37
559.31	42391.78
559.47	42806.06
559.64	42557.96
559.80	42637.54
559.97	42581.37
560.13	42607.11
560.30	43054.15
560.46	42885.64
560.63	42799.04
560.79	42803.72
560.96	43173.52
561.12	43058.84
561.29	43100.97
561.45	42873.93
561.61	43103.31
561.78	43026.07
561.94	42958.19
562.11	43147.78
562.27	42993.30
562.44	43117.35
562.60	43217.99
562.77	43075.22
562.93	43400.55
563.10	43452.05
563.26	43082.24
563.42	43889.73
563.59	43182.88
563.75	42906.70
563.92	43234.38
564.08	42740.52
564.24	43168.84
564.41	43248.42
564.57	43419.28
564.74	42864.57
564.90	43171.18
565.07	43124.37
565.23	43096.28
565.39	43391.19
565.56	43540.99
565.72	43758.66
565.88	43615.88
566.05	43367.79
566.21	43557.37
566.38	43931.86
566.54	43805.47
566.70	43559.71
566.87	43569.07
567.03	43496.52
567.19	44076.97
567.36	43372.47
567.52	43538.65
567.68	43723.55
567.85	43658.01
568.01	43915.47
568.17	43398.21
568.34	43842.92
568.50	43629.93
568.66	43388.85
568.83	44126.12
568.99	43601.84
569.15	43576.09
569.32	43597.16
569.48	43393.53
569.64	43658.01
569.81	43992.71
569.97	44156.55
570.13	44123.78
570.30	43611.20
570.46	44126.12
570.62	43763.34
570.78	43880.36
570.95	43915.47
571.11	44168.25
571.27	43796.10
571.43	43688.44
571.60	44018.46
571.76	43805.47
571.92	43908.45
572.09	43695.46
572.25	44053.56
572.41	43379.49
572.57	43756.32
572.74	44491.24
572.90	43461.41
573.06	44144.84
573.22	44194.00
573.38	44521.67
573.55	44313.36
573.71	44271.23
573.87	44081.65
574.03	44053.56
574.20	44360.17
574.36	43861.64
574.52	44030.16
574.68	44306.34
574.84	44428.05
575.01	44360.17
575.17	44259.53
575.33	44432.73
575.49	44147.18
575.65	44935.95
575.82	44421.03
575.98	44002.07
576.14	44184.63
576.30	44566.14
576.46	44294.64
576.62	43751.63
576.79	43716.53
576.95	43615.88
577.11	43679.08
577.27	44184.63
577.43	44388.26
577.59	44547.42
577.75	44154.21
577.92	43880.36
578.08	44004.41
578.24	44577.84
578.40	44706.57
578.56	44577.84
578.72	44395.28
578.88	44182.29
579.04	44243.15
579.21	44390.60
579.37	44378.90
579.53	44664.44
579.69	44397.62
579.85	44149.53
580.01	44294.64
580.17	44177.61
580.33	44367.20
580.49	44561.46
580.65	44519.33
580.82	44081.65
580.98	44376.56
581.14	44189.31
581.30	44603.59
581.46	44229.10
581.62	44418.69
581.78	44289.96
581.94	44832.96
582.10	44236.12
582.26	44334.43
582.42	44612.95
582.58	44215.06
582.74	44367.20
582.90	44446.77
583.06	44734.66
583.22	44135.48
583.38	44737.00
583.54	44762.75
583.70	44196.34
583.86	44622.31
584.02	44535.71
584.18	44624.65
584.34	44697.21
584.50	44692.53
584.66	44893.82
584.82	44811.90
584.98	44924.24
585.14	44570.82
585.30	44701.89
585.46	44655.08
585.62	44694.87
585.78	44797.85
585.94	44128.46
586.10	44926.58
586.26	44177.61
586.42	44748.70
586.58	44514.65
586.74	44570.82
586.90	44156.55
587.06	44591.89
587.22	44641.04
587.38	44505.29
587.54	44694.87
587.70	45099.78
587.86	44898.50
588.02	45113.83
588.18	44641.04
588.34	44666.78
588.49	44835.30
588.65	44664.44
588.81	44453.79
588.97	45029.57
589.13	44795.51
589.29	44704.23
589.45	45336.18
589.61	44711.25
589.77	44692.53
589.93	45088.08
590.08	45464.91
590.24	45294.05
590.40	45205.11
590.56	45214.47
590.72	45228.51
590.88	44914.88
591.04	45029.57
591.20	45151.27
591.35	45373.63
591.51	45366.60
591.67	45120.85
591.83	45748.11
591.99	45118.51
592.15	45130.21
592.31	45198.09
592.46	45031.91
592.62	45083.40
592.78	45406.39
592.94	45434.48
593.10	45490.65
593.26	45476.61
593.41	44802.53
593.57	45256.60
593.73	45186.38
593.89	45668.53
594.05	45567.89
594.20	45324.47
594.36	46337.93
594.52	45743.43
594.68	45544.48
594.84	45350.22
594.99	45141.91
595.15	44994.46
595.31	45621.72
595.47	45146.59
595.62	45708.32
595.78	45256.60
595.94	45170.00
596.10	45301.07
596.25	45708.32
596.41	45989.19
596.57	45209.79
596.73	45338.52
596.88	45401.71
597.04	45907.27
597.20	45453.20
597.36	45492.99
597.51	45455.54
597.67	45137.23
597.83	45542.14
597.99	45436.82
598.14	45476.61
598.30	45230.85
598.46	45439.16
598.61	45591.30
598.77	45542.14
598.93	45607.68
599.09	45202.77
599.24	45720.02
599.40	45165.32
599.56	46099.19
599.71	46115.58
599.87	46143.66
600.03	46038.34
600.18	45715.34
600.34	45703.64
600.50	45448.52
600.65	45415.76
600.81	45315.11
600.97	45483.63
601.12	45525.76
601.28	45654.49
601.44	45406.39
601.59	45418.10
601.75	45492.99
601.91	46120.26
602.06	45317.45
602.22	45883.86
602.37	45698.96
602.53	45708.32
602.69	45593.64
602.84	45617.04
603.00	45668.53
603.16	45741.09
603.31	45502.35
603.47	45860.46
603.62	45937.69
603.78	45645.13
603.94	45815.99
604.09	45689.60
604.25	45523.42
604.40	45282.34
604.56	45743.43
604.71	45883.86
604.87	45544.48
605.03	45455.54
605.18	45193.40
605.34	45415.76
605.49	45013.18
605.65	45738.75
605.80	45375.97
605.96	45085.74
606.12	45207.45
606.27	45610.02
606.43	45247.24
606.58	45441.50
606.74	45441.50
606.89	45298.73
607.05	45443.84
607.20	45500.01
607.36	45375.97
607.51	45331.50
607.67	45441.50
607.82	44694.87
607.98	45127.87
608.13	45350.22
608.29	45551.51
608.44	45432.14
608.60	45375.97
608.75	45219.15
608.91	44847.00
609.06	44767.43
609.22	45301.07
609.37	45202.77
609.53	45347.88
609.68	45549.17
609.84	45177.02
609.99	45556.19
610.15	45104.46
610.30	45195.74
610.46	45179.36
610.61	45153.62
610.76	44634.02
610.92	45139.57
611.07	44921.90
611.23	45001.48
611.38	45050.63
611.54	44982.76
611.69	45483.63
611.84	45059.99
612.00	44865.73
612.15	45067.02
612.31	45120.85
612.46	44891.48
612.62	44828.28
612.77	45317.45
612.92	45291.71
613.08	44549.76
613.23	44811.90
613.39	45263.62
613.54	44598.91
613.69	45509.38
613.85	44940.63
614.00	44760.40
614.15	45104.46
614.31	44591.89
614.46	44610.61
614.62	44622.31
614.77	44725.30
614.92	44582.52
615.08	44938.29
615.23	44533.37
615.38	44961.69
615.54	44507.63
615.69	44776.79
615.84	44584.86
616.00	44779.13
616.15	44631.68
616.30	45095.10
616.46	44634.02
616.61	44758.06
616.76	44919.56
616.92	44938.29
617.07	44854.03
617.22	44355.49
617.37	43863.98
617.53	44114.42
617.68	44610.61
617.83	44549.76
617.99	44687.85
618.14	44355.49
618.29	44194.00
618.45	44369.54
618.60	44439.75
618.75	44161.23
618.90	44032.50
619.06	44392.94
619.21	44320.38
619.36	44430.39
619.51	44016.11
619.67	44107.40
619.82	44254.85
619.97	44233.78
620.12	43758.66
620.28	44151.87
620.43	44259.53
620.58	44376.56
620.73	44296.98
620.89	44226.76
621.04	44500.61
621.19	44243.15
621.34	43856.96
621.49	44240.81
621.65	44397.62
621.80	44261.87
621.95	44133.14
622.10	43995.05
622.25	43988.03
622.41	43491.83
622.56	43328.00
622.71	43885.04
622.86	43337.36
623.01	43552.69
623.16	43737.59
623.32	43810.15
623.47	43840.57
623.62	43590.14
623.77	43693.12
623.92	43562.05
624.07	43672.06
624.23	43697.80
624.38	43955.26
624.53	43351.40
624.68	43147.78
624.83	43550.35
624.98	43931.86
625.13	43126.71
625.29	43728.23
625.44	43557.37
625.59	43548.01
625.74	43501.20
625.89	43115.01
626.04	43138.41
626.19	43447.36
626.34	43063.52
626.49	43117.35
626.65	42742.86
626.80	43234.38
626.95	43267.14
627.10	42918.40
627.25	42951.17
627.40	43056.50
627.55	42902.02
627.70	43089.26
627.85	43480.13
628.00	43381.83
628.15	43225.01
628.30	42848.19
628.45	42623.50
628.60	42452.64
628.76	42845.85
628.91	43082.24
629.06	42429.23
629.21	42738.18
629.36	42298.16
629.51	43033.09
629.66	42995.64
629.81	42616.47
629.96	42415.19
630.11	42691.37
630.26	42768.61
630.41	42663.28
630.56	42071.13
630.71	42583.71
630.86	42337.95
631.01	42185.82
631.16	41965.81
631.31	42160.07
631.46	42230.29
631.61	42766.27
631.76	42513.49
631.91	42529.87
632.06	42754.57
632.21	42464.34
632.36	42754.57
632.51	42623.50
632.66	42342.63
632.81	41579.62
632.96	42564.98
633.10	41942.40
633.25	42281.78
633.40	42258.37
633.55	42541.58
633.70	42286.46
633.85	41904.95
634.00	41486.00
634.15	41607.70
634.30	42153.05
634.45	41790.27
634.60	42321.57
634.75	42155.39
634.90	41874.52
635.05	42314.55
635.19	41439.18
635.34	41937.72
635.49	41663.88
635.64	42024.32
635.79	42033.68
635.94	42014.96
636.09	42396.46
636.24	41385.35
636.39	42066.45
636.53	41694.30
636.68	41497.70
636.83	41294.07
636.98	41614.72
637.13	41317.48
637.28	41317.48
637.43	41427.48
637.57	41219.17
637.72	41085.76
637.87	41378.33
638.02	41441.53
638.17	41310.46
638.32	41551.53
638.46	41284.71
638.61	41387.69
638.76	41205.13
638.91	41160.66
639.06	41062.36
639.20	40648.08
639.35	41013.21
639.50	40905.54
639.65	41141.94
639.80	41125.55
639.94	41251.94
640.09	40814.26
640.24	41038.95
640.39	40369.56
640.54	40748.73
640.68	41048.32
640.83	40905.54
640.98	40935.97
641.13	40793.20
641.27	40896.18
641.42	41010.87
641.57	40535.74
641.72	40519.35
641.86	40964.06
642.01	40634.04
642.16	40608.29
642.31	40327.43
642.45	40952.35
642.60	40355.52
642.75	40318.07
642.90	40540.42
643.04	40528.72
643.19	40498.29
643.34	40289.98
643.48	40142.53
643.63	40364.88
643.78	40289.98
643.93	40823.62
644.07	40610.64
644.22	40421.05
644.37	40275.94
644.51	40470.20
644.66	40360.20
644.81	40797.88
644.95	40584.89
645.10	40435.10
645.25	40196.36
645.39	39974.01
645.54	39754.00
645.69	39749.32
645.83	40062.95
645.98	39744.64
646.13	40205.72
646.27	39587.82
646.42	39955.29
646.57	40226.79
646.71	39950.60
646.86	40177.64
647.00	39903.79
647.15	40261.90
647.30	39908.47
647.44	39913.16
647.59	39697.83
647.74	39681.44
647.88	39636.97
648.03	39562.08
648.17	40493.61
648.32	39789.11
648.47	39957.63
648.61	39629.95
648.76	39974.01
648.90	39306.96
649.05	39482.50
649.20	39257.81
649.34	39854.64
649.49	39414.62
649.63	39681.44
649.78	39770.38
649.92	39744.64
650.07	39920.18
650.21	39566.76
650.36	39805.49
650.51	39290.57
650.65	39662.72
650.80	39639.31
650.94	39557.39
651.09	39959.97
651.23	38927.79
651.38	39232.06
651.52	39047.16
651.67	39232.06
651.81	39115.03
651.96	39309.30
652.10	39091.63
652.25	38859.91
652.39	39070.56
652.54	39590.16
652.68	39016.73
652.83	38677.35
652.97	39241.42
653.12	39028.43
653.26	38927.79
653.41	38396.49
653.55	38815.44
653.70	39147.80
653.84	39313.98
653.99	38925.45
654.13	38490.11
654.27	38656.29
654.42	38705.44
654.56	38588.41
654.71	38845.87
654.85	38623.52
655.00	38799.06
655.14	38895.02
655.29	38841.19
655.43	39154.82
655.57	38490.11
655.72	38256.06
655.86	38597.77
656.01	38583.73
656.15	38279.46
656.30	38726.50
656.44	38457.34
656.58	38534.58
656.73	38733.53
656.87	37942.42
657.01	38342.66
657.16	38316.91
657.30	38286.48
657.45	38000.94
657.59	37942.42
657.73	38328.61
657.88	38206.90
658.02	38426.92
658.16	38541.60
658.31	38457.34
658.45	38307.55
658.60	37598.37
658.74	38155.41
658.88	38129.67
659.03	37825.40
659.17	37748.16
659.31	37785.61
659.46	37563.26
659.60	37677.94
659.74	37656.88
659.89	36973.44
660.03	36999.19
660.17	37638.15
660.32	37429.85
660.46	37301.12
660.60	36971.10
660.74	37441.55
660.89	37340.91
661.03	36741.73
661.17	37010.89
661.32	36486.61
661.46	37163.03
661.60	36825.99
661.74	37357.29
661.89	36725.35
662.03	37223.88
662.17	36472.57
662.31	36884.50
662.46	37296.44
662.60	36751.09
662.74	36046.59
662.88	35969.35
663.03	36453.84
663.17	36275.96
663.31	36151.91
663.45	36694.92
663.60	36989.83
663.74	36259.58
663.88	36507.68
664.02	35969.35
664.17	36477.25
664.31	35803.17
664.45	36020.84
664.59	36229.15
664.73	35655.72
664.88	36121.49
665.02	35800.83
665.16	35882.75
665.30	35800.83
665.44	35894.46
665.59	35311.66
665.73	35384.22
665.87	35466.14
666.01	35400.60
666.15	35679.13
666.29	35264.85
666.44	35473.16
666.58	35669.76
666.72	35283.58
666.86	35470.82
667.00	34810.79
667.14	35168.89
667.28	34881.00
667.43	34782.70
667.57	35091.65
667.71	35077.61
667.85	35000.37
667.99	34778.02
668.13	34412.90
668.27	34593.12
668.41	34478.43
668.56	34518.22
668.70	34550.99
668.84	34391.83
668.98	34120.33
669.12	33949.47
669.26	34485.45
669.40	34279.49
669.54	34183.52
669.68	34253.74
669.82	34036.07
669.96	33802.02
670.10	33504.77
670.25	33954.15
670.39	33371.36
670.53	33907.34
670.67	33897.98
670.81	33914.36
670.95	33596.05
671.09	33649.88
671.23	33570.30
671.37	33640.52
671.51	33387.74
671.65	32959.42
671.79	33392.42
671.93	32823.67
672.07	33209.86
672.21	33055.39
672.35	33017.94
672.49	33013.26
672.63	32776.86
672.77	32507.70
672.91	32645.79
673.05	32556.85
673.19	32114.49
673.33	32524.08
673.47	32322.80
673.61	32121.51
673.75	32109.81
673.89	32163.64
674.03	31651.06
674.17	31971.72
674.31	31835.97
674.45	31686.17
674.59	31686.17
674.73	31688.51
674.87	31393.61
675.01	31377.22
675.15	31442.76
675.29	30988.69
675.43	31150.19
675.56	31239.13
675.70	31246.15
675.84	31171.25
675.98	30132.06
676.12	30787.41
676.26	30607.19
676.40	30459.73
676.54	30621.23
676.68	30492.50
676.82	29785.66
676.96	30508.88
677.10	29944.81
677.23	29748.21
677.37	30508.88
677.51	29802.04
677.65	29848.85
677.79	29495.43
677.93	29689.70
678.07	29457.98
678.21	29397.13
678.34	29214.57
678.48	29291.80
678.62	29294.14
678.76	28982.85
678.90	29331.59
679.04	28926.68
679.18	29163.08
679.31	28734.76
679.45	29024.98
679.59	28624.75
679.73	28259.63
679.87	28315.80
680.00	28720.71
680.14	28912.64
680.28	28226.86
680.42	28166.01
680.56	27793.86
680.70	27758.75
680.83	27648.75
680.97	27814.93
681.11	27583.21
681.25	27520.02
681.39	27323.41
681.52	27386.61
681.66	27632.36
681.80	26899.78
681.94	26883.39
682.07	26941.91
682.21	27117.45
682.35	26703.17
682.49	26438.69
682.62	26707.85
682.76	26850.63
682.90	26574.44
683.04	26441.03
683.17	26438.69
683.31	26157.83
683.45	26148.46
683.59	25720.15
683.72	25549.29
683.86	25741.21
684.00	25947.18
684.13	25324.60
684.27	25514.18
684.41	25371.41
684.55	25570.35
684.68	25139.69
684.82	25184.16
684.96	25282.47
685.09	25193.53
685.23	25193.53
685.37	25158.42
685.50	24849.47
685.64	25195.87
685.78	24872.87
685.91	24505.41
686.05	24212.84
686.19	23791.55
686.32	24151.99
686.46	23950.70
686.60	23861.76
686.73	23683.88
686.87	23707.29
687.01	24093.47
687.14	23770.48
687.28	23639.41
687.42	23620.69
687.55	23358.55
687.69	23723.67
687.82	23150.24
687.96	22876.40
688.10	23498.98
688.23	23211.09
688.37	23168.96
688.50	23201.73
688.64	22932.57
688.78	22649.36
688.91	22520.63
689.05	22618.94
689.18	22207.00
689.32	21949.54
689.46	21788.05
689.59	22178.92
689.73	22375.52
689.86	22120.40
690.00	22230.41
690.13	21713.15
690.27	21556.33
690.41	21930.82
690.54	21589.10
690.68	21366.75
690.81	21429.94
690.95	21467.39
691.08	21315.26
691.22	20858.85
691.35	21146.74
691.49	21184.19
691.62	21041.42
691.76	20428.20
691.89	20669.27
692.03	20334.57
692.16	20343.94
692.30	20376.70
692.43	20318.19
692.57	19983.49
692.70	20081.80
692.84	20208.19
692.97	19988.18
693.11	19838.38
693.24	19653.48
693.38	19494.32
693.51	19503.68
693.65	19496.66
693.78	19293.04
693.92	19220.48
694.05	19215.80
694.19	19262.61
694.32	19040.26
694.45	19145.58
694.59	19337.51
694.72	19417.08
694.86	19161.97
694.99	18665.77
695.13	18927.91
695.26	18408.31
695.39	18340.44
695.53	18654.07
695.66	18527.68
695.80	17998.72
695.93	18169.58
696.07	17886.37
696.20	18043.19
696.33	17671.04
696.47	17296.56
696.60	17429.97
696.73	17638.28
696.87	17795.09
697.00	17877.01
697.14	17640.62
697.27	17319.96
697.40	17219.32
697.54	17167.83
697.67	17254.43
697.80	17015.69
697.94	17158.47
698.07	17092.93
698.21	16835.47
698.34	17036.76
698.47	16901.01
698.61	16219.91
698.74	16414.18
698.87	16264.38
699.01	16081.82
699.14	16339.28
699.27	15985.86
699.40	16205.87
699.54	15969.48
699.67	15955.43
699.80	15852.45
699.94	15772.87
700.07	15768.19
700.20	15618.39
700.34	15449.88
700.47	15431.15
700.60	15559.88
700.73	15513.07
700.87	15215.82
701.00	15215.82
701.13	14923.26
701.26	15070.71
701.40	14923.26
701.53	14754.74
701.66	14956.02
701.79	14839.00
701.93	14635.37
702.06	14588.56
702.19	14548.77
702.32	14583.88
702.46	14455.15
702.59	14471.53
702.72	14293.65
702.85	14382.59
702.99	14295.99
703.12	13902.78
703.25	13998.74
703.38	14080.66
703.51	13767.03
703.65	13710.86
703.78	13736.60
703.91	13572.77
704.04	13530.64
704.17	13579.79
704.31	13343.39
704.44	13504.89
704.57	13345.73
704.70	12989.97
704.83	13303.60
704.96	13193.60
705.10	13207.64
705.23	13018.06
>>>>>End Processed Spectral Data<<<<<
