SpectraSuite Data File
++++++++++++++++++++++++++++++++++++
Date: Fri Oct 25 11:34:31 EDT 2013
User: price-jones
Dark Spectrum Present: No
Reference Spectrum Present: No
Number of Sampled Component Spectra: 1
Spectrometers: USB2+H05261
Integration Time (usec): 100000 (USB2+H05261)
Spectra Averaged: 1 (USB2+H05261)
Boxcar Smoothing: 0 (USB2+H05261)
Correct for Electrical Dark: No (USB2+H05261)
Strobe/Lamp Enabled: No (USB2+H05261)
Correct for Detector Non-linearity: No (USB2+H05261)
Correct for Stray Light: No (USB2+H05261)
Number of Pixels in Processed Spectrum: 2048
>>>>>Begin Processed Spectral Data<<<<<
365.73	313.63
365.92	313.63
366.12	313.63
366.32	210.65
366.52	248.10
366.72	210.65
366.91	145.11
367.11	180.22
367.31	147.45
367.51	215.33
367.70	229.37
367.90	194.26
368.10	215.33
368.30	182.56
368.49	166.18
368.69	131.07
368.89	149.79
369.09	257.46
369.28	215.33
369.48	201.29
369.68	318.31
369.87	266.82
370.07	243.42
370.27	229.37
370.47	348.74
370.66	435.34
370.86	500.87
371.06	524.28
371.25	561.73
371.45	489.17
371.65	550.03
371.84	533.64
372.04	468.11
372.24	543.00
372.44	545.34
372.63	594.50
372.83	564.07
373.03	615.56
373.22	669.39
373.42	617.90
373.62	592.16
373.81	606.20
374.01	655.35
374.21	681.10
374.40	608.54
374.60	655.35
374.79	655.35
374.99	617.90
375.19	674.07
375.38	720.88
375.58	622.58
375.78	734.93
375.97	664.71
376.17	734.93
376.37	702.16
376.56	660.03
376.76	660.03
376.95	664.71
377.15	683.44
377.35	613.22
377.54	697.48
377.74	683.44
377.93	674.07
378.13	664.71
378.33	690.46
378.52	688.12
378.72	739.61
378.91	688.12
379.11	734.93
379.31	751.31
379.50	660.03
379.70	660.03
379.89	746.63
380.09	678.76
380.28	683.44
380.48	709.18
380.68	713.86
380.87	709.18
381.07	723.23
381.26	711.52
381.46	777.06
381.65	734.93
381.85	730.25
382.04	702.16
382.24	767.70
382.43	676.41
382.63	770.04
382.83	758.33
383.02	744.29
383.22	800.46
383.41	779.40
383.61	732.59
383.80	866.00
384.00	683.44
384.19	767.70
384.39	760.67
384.58	805.14
384.78	812.17
384.97	800.46
385.17	849.61
385.36	807.48
385.56	814.51
385.75	840.25
385.95	847.27
386.14	870.68
386.34	765.36
386.53	842.59
386.72	875.36
386.92	901.11
387.11	821.53
387.31	891.74
387.50	887.06
387.70	908.13
387.89	875.36
388.09	851.96
388.28	858.98
388.48	936.21
388.67	924.51
388.86	959.62
389.06	891.74
389.25	929.19
389.45	971.32
389.64	891.74
389.84	940.90
390.03	898.77
390.22	896.43
390.42	954.94
390.61	952.60
390.81	950.26
391.00	908.13
391.19	1004.09
391.39	823.87
391.58	964.30
391.78	1001.75
391.97	1020.47
392.16	1020.47
392.36	1069.62
392.55	943.24
392.75	1006.43
392.94	980.68
393.13	1036.86
393.33	994.73
393.52	1041.54
393.71	1039.20
393.91	1069.62
394.10	1102.39
394.29	1076.65
394.49	1050.90
394.68	1090.69
394.88	1032.18
395.07	1167.93
395.26	1088.35
395.46	1179.63
395.65	1086.01
395.84	1149.20
396.04	1156.22
396.23	1158.57
396.42	1156.22
396.62	1167.93
396.81	1137.50
397.00	1198.35
397.19	1270.91
397.39	1118.78
397.58	1275.59
397.77	1233.46
397.97	1221.76
398.16	1315.38
398.35	1235.80
398.55	1193.67
398.74	1254.53
398.93	1322.40
399.12	1249.85
399.32	1284.95
399.51	1217.08
399.70	1313.04
399.90	1341.13
400.09	1416.02
400.28	1275.59
400.47	1315.38
400.67	1355.17
400.86	1392.62
401.05	1315.38
401.24	1327.08
401.44	1392.62
401.63	1516.67
401.82	1357.51
402.01	1425.39
402.21	1401.98
402.40	1509.65
402.59	1362.19
402.78	1561.14
402.97	1544.75
403.17	1535.39
403.36	1549.43
403.55	1451.13
403.74	1481.56
403.93	1497.94
404.13	1636.03
404.32	1579.86
404.51	1549.43
404.70	1558.80
404.89	1584.54
405.09	1612.63
405.28	1614.97
405.47	1647.74
405.66	1621.99
405.85	1598.59
406.05	1682.85
406.24	1689.87
406.43	1769.44
406.62	1678.16
406.81	1746.04
407.00	1715.61
407.20	1757.74
407.39	1706.25
407.58	1872.43
407.77	1893.49
407.96	1834.98
408.15	1839.66
408.34	1788.17
408.54	1827.96
408.73	1849.02
408.92	1914.56
409.11	2026.90
409.30	1970.73
409.49	1900.52
409.68	2003.50
409.87	1944.99
410.07	1977.75
410.26	2062.01
410.45	1921.58
410.64	1900.52
410.83	1959.03
411.02	1982.43
411.21	2064.35
411.40	2057.33
411.59	2050.31
411.78	2115.84
411.98	2195.42
412.17	2209.47
412.36	2111.16
412.55	2197.76
412.74	2202.44
412.93	2354.58
413.12	2242.23
413.31	2289.04
413.50	2298.41
413.69	2183.72
413.88	2401.39
414.07	2354.58
414.26	2401.39
414.45	2408.41
414.64	2331.17
414.83	2523.10
415.02	2583.95
415.22	2583.95
415.41	2576.93
415.60	2518.42
415.79	2480.97
415.98	2731.41
416.17	2691.62
416.36	2583.95
416.55	2572.25
416.74	2700.98
416.93	2700.98
417.12	2693.96
417.31	2705.66
417.50	2647.15
417.69	2799.28
417.88	2857.79
418.07	2803.96
418.26	2888.22
418.45	2925.67
418.64	3030.99
418.83	2944.39
419.02	2951.42
419.21	2935.03
419.39	3082.49
419.58	2967.80
419.77	3009.93
419.96	3040.36
420.15	2979.50
420.34	2970.14
420.53	3070.78
420.72	3047.38
420.91	3038.02
421.10	3169.09
421.29	3035.67
421.48	3119.93
421.67	3295.47
421.86	3260.37
422.05	3276.75
422.24	3073.12
422.43	3372.71
422.61	3206.53
422.80	3255.69
422.99	3145.68
423.18	3232.28
423.37	3211.22
423.56	3194.83
423.75	3220.58
423.94	3314.20
424.13	3082.49
424.32	3110.57
424.50	3208.87
424.69	3412.50
424.88	3351.65
425.07	3141.00
425.26	3218.24
425.45	3246.32
425.64	3253.34
425.83	3384.41
426.01	3396.12
426.20	3239.30
426.39	3431.23
426.58	3344.63
426.77	3288.45
426.96	3304.84
427.15	3463.99
427.33	3466.33
427.52	3433.57
427.71	3529.53
427.90	3456.97
428.09	3431.23
428.28	3641.87
428.46	3510.80
428.65	3613.79
428.84	3595.06
429.03	3679.32
429.22	3595.06
429.40	3506.12
429.59	3595.06
429.78	3487.40
429.97	3548.25
430.16	3604.42
430.34	3611.45
430.53	3721.45
430.72	3641.87
430.91	3707.41
431.10	3646.55
431.28	3742.52
431.47	3808.05
431.66	3833.80
431.85	3805.71
432.03	3850.18
432.22	3892.31
432.41	3847.84
432.60	3859.54
432.79	3929.76
432.97	3932.10
433.16	4072.53
433.35	3885.29
433.54	4098.28
433.72	4042.11
433.91	3950.82
434.10	3976.57
434.28	4014.02
434.47	3988.27
434.66	4065.51
434.85	4175.52
435.03	4187.22
435.22	4112.32
435.41	4231.69
435.59	4112.32
435.78	4297.22
435.97	4121.68
436.16	4124.02
436.34	4219.99
436.53	4212.96
436.72	4386.16
436.90	4262.12
437.09	4329.99
437.28	4175.52
437.46	4264.46
437.65	4362.76
437.84	4517.23
438.02	4489.15
438.21	4379.14
438.40	4355.74
438.58	4547.66
438.77	4657.67
438.96	4620.22
439.14	4517.23
439.33	4648.30
439.52	4645.96
439.70	4720.86
439.89	4835.55
440.08	4844.91
440.26	4678.73
440.45	4667.03
440.63	4856.61
440.82	4788.74
441.01	4985.34
441.19	4926.83
441.38	5088.32
441.57	4975.98
441.75	5034.49
441.94	5121.09
442.12	5263.86
442.31	5200.67
442.50	5203.01
442.68	5212.37
442.87	5179.61
443.05	5298.97
443.24	5317.70
443.43	5149.18
443.61	5404.30
443.80	5416.00
443.98	5205.35
444.17	5277.91
444.35	5401.96
444.54	5380.89
444.73	5348.12
444.91	5284.93
445.10	5408.98
445.28	5270.89
445.47	5327.06
445.65	5355.15
445.84	5687.50
446.02	5528.35
446.21	5418.34
446.39	5387.91
446.58	5446.43
446.77	5530.69
446.95	5502.60
447.14	5483.88
447.32	5549.41
447.51	5366.85
447.69	5336.42
447.88	5352.81
448.06	5355.15
448.25	5572.82
448.43	5593.88
448.62	5556.43
448.80	5413.66
448.99	5621.97
449.17	5799.85
449.36	5465.15
449.54	5575.16
449.73	5809.21
449.91	5844.32
450.10	5797.51
450.28	6029.22
450.46	5982.41
450.65	5853.68
450.83	5839.64
451.02	5664.10
451.20	5994.11
451.39	5930.92
451.57	5895.81
451.76	5856.02
451.94	5898.15
452.13	6031.56
452.31	6071.35
452.49	5881.77
452.68	5937.94
452.86	6003.47
453.05	6111.14
453.23	6286.68
453.42	6024.54
453.60	5902.83
453.78	6146.25
453.97	6045.60
454.15	6125.18
454.34	6155.61
454.52	6197.74
454.70	6340.51
454.89	6291.36
455.07	6370.94
455.26	6382.64
455.44	6471.58
455.62	6235.19
455.81	6354.55
455.99	6331.15
456.17	6410.73
456.36	6438.81
456.54	6658.82
456.73	6724.36
456.91	6677.55
457.09	6775.85
457.28	6717.34
457.46	6693.93
457.64	6813.30
457.83	6747.76
458.01	6689.25
458.19	6902.24
458.38	6806.28
458.56	6832.02
458.74	6906.92
458.93	6881.18
459.11	6932.67
459.29	7009.90
459.48	6920.96
459.66	6850.75
459.84	6993.52
460.03	6998.20
460.21	6986.50
460.39	7171.40
460.57	7063.74
460.76	7166.72
460.94	7211.19
461.12	6958.41
461.31	7124.59
461.49	7208.85
461.67	7227.57
461.85	7255.66
462.04	7075.44
462.22	7705.04
462.40	7438.22
462.59	7552.91
462.77	7417.16
462.95	7375.03
463.13	7414.82
463.32	7545.89
463.50	7623.12
463.68	7566.95
463.86	7485.03
464.05	7346.94
464.23	7400.77
464.41	7529.50
464.59	7487.37
464.78	7688.66
464.96	7606.74
465.14	7447.58
465.32	7765.90
465.50	7779.94
465.69	7742.49
465.87	7803.35
466.05	7875.90
466.23	7911.01
466.41	7751.85
466.60	7819.73
466.78	7824.41
466.96	7826.75
467.14	7707.38
467.32	7772.92
467.51	7882.92
467.69	8016.33
467.87	7934.42
468.05	7950.80
468.23	7915.69
468.41	7857.18
468.60	7922.71
468.78	8070.17
468.96	8163.79
469.14	8009.31
469.32	8205.92
469.50	7941.44
469.69	8259.75
469.87	8351.03
470.05	8238.69
470.23	8470.40
470.41	8255.07
470.59	8418.91
470.77	8449.33
470.95	8402.52
471.14	8610.83
471.32	8360.39
471.50	8468.06
471.68	8566.36
471.86	8596.79
472.04	8505.51
472.22	8917.44
472.40	8741.90
472.58	8755.94
472.77	9011.06
472.95	8931.48
473.13	9217.03
473.31	8819.14
473.49	9139.79
473.67	8870.63
473.85	8959.57
474.03	9322.35
474.21	9210.01
474.39	9401.93
474.57	9486.19
474.75	9556.41
474.93	9481.51
475.12	9472.15
475.30	9703.86
475.48	9425.34
475.66	9710.88
475.84	9570.45
476.02	9792.80
476.20	9785.78
476.38	9961.32
476.56	10141.54
476.74	9968.34
476.92	9909.83
477.10	9968.34
477.28	10305.38
477.46	9998.77
477.64	10136.86
477.82	10443.47
478.00	10607.31
478.18	10703.27
478.36	10602.63
478.54	10616.67
478.72	10841.36
478.90	11002.86
479.08	10974.77
479.26	10977.11
479.44	11253.30
479.62	11323.51
479.80	11236.91
479.98	11431.18
480.16	11690.98
480.34	11721.40
480.52	11606.72
480.70	11543.52
480.88	11632.46
481.06	11740.13
481.24	11887.58
481.41	11922.69
481.59	12514.84
481.77	12259.73
481.95	12383.77
482.13	12428.24
482.31	12411.86
482.49	12814.43
482.67	12798.05
482.85	12812.09
483.03	13048.49
483.21	12966.57
483.39	13465.10
483.57	12821.45
483.74	13355.10
483.92	13322.33
484.10	13387.86
484.28	13783.41
484.46	13664.05
484.64	14183.65
484.82	13764.69
485.00	14059.60
485.18	14406.00
485.35	14216.41
485.53	14251.52
485.71	14251.52
485.89	14764.10
486.07	14401.32
486.25	14743.03
486.43	14808.57
486.61	14813.25
486.78	15176.03
486.96	15049.64
487.14	15328.17
487.32	15241.57
487.50	15412.43
487.68	15625.42
487.85	15655.84
488.03	15885.22
488.21	16285.45
488.39	16107.57
488.57	16177.78
488.75	16086.50
488.92	16432.90
489.10	16730.15
489.28	16699.72
489.46	16870.58
489.64	16636.53
489.81	17296.56
489.99	17359.75
490.17	17214.64
490.35	17675.73
490.53	17584.44
490.70	17947.23
490.88	17575.08
491.06	18003.40
491.24	18108.72
491.41	18033.83
491.59	18310.01
491.77	18314.69
491.95	18450.44
492.13	18677.48
492.30	18705.56
492.48	18703.22
492.66	18934.93
492.84	18977.06
493.01	19058.98
493.19	19356.23
493.37	19098.77
493.54	19534.11
493.72	19669.86
493.90	19405.38
494.08	19714.33
494.25	19742.42
494.43	20065.41
494.61	20051.37
494.79	20063.07
494.96	20238.61
495.14	20297.13
495.32	20688.00
495.49	20386.07
495.67	20711.40
495.85	20720.76
496.02	21050.78
496.20	21392.50
496.38	21319.94
496.55	21490.80
496.73	21626.55
496.91	21523.57
497.09	21771.66
497.26	21769.32
497.44	21940.18
497.62	21813.79
497.79	22412.97
497.97	22178.92
498.14	22295.94
498.32	22635.32
498.50	22700.86
498.67	23103.43
498.85	22768.73
499.03	23215.77
499.20	22977.04
499.38	22916.19
499.56	23124.49
499.73	23421.74
499.91	23295.35
500.08	23178.33
500.26	23293.01
500.44	23571.54
500.61	23779.84
500.79	23864.10
500.97	23793.89
501.14	24395.40
501.32	24009.22
501.49	24182.42
501.67	24769.89
501.84	24388.38
502.02	24063.05
502.20	24355.61
502.37	24542.86
502.55	24592.01
502.72	24353.27
502.90	24489.03
503.07	24622.44
503.25	24959.47
503.43	24781.59
503.60	24938.41
503.78	24943.09
503.95	25069.48
504.13	25343.32
504.30	25738.87
504.48	25364.39
504.65	25385.45
504.83	25731.85
505.01	25820.79
505.18	25816.11
505.36	25989.31
505.53	25961.22
505.71	26267.83
505.88	26558.06
506.06	25919.09
506.23	26190.59
506.41	26597.85
506.58	26302.94
506.76	26347.41
506.93	26684.45
507.11	26892.76
507.28	26761.69
507.46	26782.75
507.63	27019.14
507.81	26916.16
507.98	27138.51
508.16	27208.73
508.33	27367.88
508.50	27513.00
508.68	27374.91
508.85	27498.95
509.03	27218.09
509.20	27824.29
509.38	27934.29
509.55	28243.24
509.73	28112.17
509.90	28027.92
510.08	28051.32
510.25	27871.10
510.42	27667.47
510.60	28444.53
510.77	28381.34
510.95	28959.45
511.12	28432.83
511.30	28407.08
511.47	28744.12
511.64	28622.41
511.82	28882.21
511.99	28744.12
512.17	29127.97
512.34	28851.78
512.51	29624.16
512.69	29336.27
512.86	29125.63
513.04	29474.37
513.21	29359.68
513.38	29584.37
513.56	29544.58
513.73	29577.35
513.90	29558.63
514.08	29600.76
514.25	30171.85
514.43	30139.08
514.60	30373.13
514.77	30221.00
514.95	30183.55
515.12	30244.40
515.29	30136.74
515.47	30169.51
515.64	30646.97
515.81	30536.97
515.99	30686.76
516.16	30923.16
516.33	31023.80
516.51	30389.52
516.68	30661.02
516.85	30930.18
517.03	31035.50
517.20	30955.93
517.37	31119.76
517.54	30944.22
517.72	30902.09
517.89	31824.26
518.06	31414.67
518.24	31049.55
518.41	31749.37
518.58	31421.69
518.75	31171.25
518.93	31718.94
519.10	31519.99
519.27	31543.40
519.45	31613.62
519.62	32217.47
519.79	32360.25
519.96	31606.59
520.14	32428.12
520.31	32034.91
520.48	32215.13
520.65	32730.05
520.83	32652.81
521.00	32650.47
521.17	32694.94
521.34	32500.68
521.52	32811.97
521.69	32739.41
521.86	33184.12
522.03	33172.41
522.20	33500.09
522.38	33219.22
522.55	33528.17
522.72	33352.63
522.89	33202.84
523.07	33352.63
523.24	33780.95
523.41	33584.35
523.58	33493.07
523.75	33383.06
523.92	33486.04
524.10	34026.71
524.27	33975.22
524.44	33930.75
524.61	33907.34
524.78	34120.33
524.96	34211.61
525.13	34213.95
525.30	34480.77
525.47	34787.38
525.64	33902.66
525.81	34520.56
525.98	34733.55
526.16	34698.44
526.33	34480.77
526.50	34717.17
526.67	34382.47
526.84	34810.79
527.01	34763.98
527.18	35166.55
527.36	34827.17
527.53	35431.03
527.70	35409.96
527.87	35665.08
528.04	34845.90
528.21	35241.45
528.38	35119.74
528.55	35487.20
528.72	35372.52
528.89	35349.11
529.07	35314.00
529.24	35164.21
529.41	35761.05
529.58	35702.53
529.75	35416.99
529.92	35489.54
530.09	36055.95
530.26	35615.93
530.43	35967.01
530.60	35686.15
530.77	35772.75
530.94	36357.88
531.11	36142.55
531.28	35976.37
531.46	36189.36
531.63	36341.50
531.80	36460.87
531.97	36692.58
532.14	36519.38
532.31	36470.23
532.48	36570.87
532.65	36800.24
532.82	36746.41
532.99	36762.79
533.16	36404.69
533.33	36854.08
533.50	36954.72
533.67	36835.35
533.84	36985.15
534.01	36748.75
534.18	36648.11
534.35	37237.92
534.52	37270.69
534.69	37406.44
534.86	37696.67
535.03	37340.91
535.20	37930.72
535.37	37801.99
535.54	37619.43
535.71	37500.06
535.88	37846.46
536.05	37434.53
536.22	37991.58
536.38	37979.87
536.55	37972.85
536.72	38108.60
536.89	37649.86
537.06	38052.43
537.23	38148.39
537.40	38183.50
537.57	37780.93
537.74	37656.88
537.91	38085.20
538.08	38017.32
538.25	38183.50
538.42	38122.65
538.59	38436.28
538.75	38068.81
538.92	38660.97
539.09	38785.02
539.26	38653.95
539.43	38272.44
539.60	38396.49
539.77	38586.07
539.94	39058.86
540.11	38696.08
540.28	38565.01
540.44	39056.52
540.61	38567.35
540.78	38607.14
540.95	38721.82
541.12	38696.08
541.29	38667.99
541.46	39061.20
541.62	39199.29
541.79	39442.71
541.96	39035.45
542.13	38944.17
542.30	38759.27
542.47	39339.72
542.63	39304.62
542.80	39711.87
542.97	40348.50
543.14	39751.66
543.31	39735.27
543.48	39669.74
543.64	40168.27
543.81	39756.34
543.98	39892.09
544.15	39658.04
544.32	40488.93
544.48	40435.10
544.65	40224.45
544.82	39990.39
544.99	40004.44
545.16	40102.74
545.32	40140.19
545.49	40605.95
545.66	40334.45
545.83	40481.91
546.00	40662.13
546.16	40730.00
546.33	40509.99
546.50	40495.95
546.67	41015.55
546.83	40297.00
547.00	40116.78
547.17	40397.65
547.34	40411.69
547.50	40545.10
547.67	41045.97
547.84	40783.83
548.00	41350.24
548.17	40959.38
548.34	41219.17
548.51	41364.29
548.67	40975.76
548.84	41221.52
549.01	41163.00
549.18	41251.94
549.34	41780.90
549.51	41493.02
549.68	41352.58
549.84	41373.65
550.01	41516.42
550.18	41048.32
550.34	41673.24
550.51	41825.37
550.68	41652.17
550.84	41188.75
551.01	41839.42
551.18	41879.21
551.34	41366.63
551.51	41794.95
551.68	41614.72
551.84	41593.66
552.01	41380.67
552.18	42087.51
552.34	41804.31
552.51	42031.34
552.68	41853.46
552.84	41986.87
553.01	42436.25
553.18	41895.59
553.34	42246.67
553.51	41956.44
553.67	42323.91
553.84	42438.59
554.01	42005.59
554.17	42139.00
554.34	42569.66
554.51	42241.99
554.67	43100.97
554.84	42249.01
555.00	42295.82
555.17	42366.04
555.33	42527.53
555.50	42895.00
555.67	42443.27
555.83	42452.64
556.00	42656.26
556.16	42806.06
556.33	42710.10
556.50	43005.00
556.66	42770.95
556.83	42747.54
556.99	43203.95
557.16	42927.77
557.32	43227.35
557.49	43210.97
557.65	42820.10
557.82	43353.74
557.98	42667.97
558.15	43009.68
558.32	43194.59
558.48	43395.87
558.65	43079.90
558.81	43201.61
558.98	43206.29
559.14	43173.52
559.31	43152.46
559.47	43168.84
559.64	43714.19
559.80	43068.20
559.97	43302.25
560.13	43435.66
560.30	43372.47
560.46	44177.61
560.63	43854.62
560.79	43880.36
560.96	43945.90
561.12	43548.01
561.29	43917.81
561.45	43674.40
561.61	43505.88
561.78	43440.34
561.94	43414.60
562.11	43627.59
562.27	43433.32
562.44	43746.95
562.60	43648.65
562.77	43793.76
562.93	43519.92
563.10	43999.73
563.26	43882.70
563.42	43990.37
563.59	43711.84
563.75	43632.27
563.92	44039.52
564.08	43983.35
564.24	43981.01
564.41	44020.80
564.57	43934.20
564.74	43693.12
564.90	43842.92
565.07	44184.63
565.23	43592.48
565.39	43863.98
565.56	44240.81
565.72	43966.96
565.88	44051.22
566.05	44182.29
566.21	43959.94
566.38	44135.48
566.54	44355.49
566.70	44446.77
566.87	44102.71
567.03	44385.92
567.19	44362.51
567.36	43931.86
567.52	44208.04
567.68	44577.84
567.85	44563.80
568.01	44435.07
568.17	44051.22
568.34	44460.82
568.50	44383.58
568.66	44292.30
568.83	44442.09
568.99	44261.87
569.15	44437.41
569.32	44083.99
569.48	44292.30
569.64	44603.59
569.81	44201.02
569.97	44758.06
570.13	44456.14
570.30	44406.98
570.46	44208.04
570.62	44222.08
570.78	44439.75
570.95	44444.43
571.11	44704.23
571.27	44629.34
571.43	44320.38
571.60	45027.23
571.76	44343.79
571.92	44563.80
572.09	43892.07
572.25	44329.75
572.41	44224.42
572.57	45132.55
572.74	45453.20
572.90	44458.48
573.06	44921.90
573.22	44500.61
573.38	45083.40
573.55	45081.06
573.71	45357.24
573.87	44865.73
574.03	44935.95
574.20	45148.93
574.36	44818.92
574.52	44659.76
574.68	44832.96
574.84	45443.84
575.01	45205.11
575.17	44940.63
575.33	44973.39
575.49	44847.00
575.65	45268.30
575.82	44854.03
575.98	44711.25
576.14	44889.13
576.30	45130.21
576.46	44879.77
576.62	44718.28
576.79	45294.05
576.95	44664.44
577.11	45127.87
577.27	44671.46
577.43	45174.68
577.59	44631.68
577.75	44673.81
577.92	44650.40
578.08	44807.22
578.24	45460.23
578.40	45181.70
578.56	45308.09
578.72	45272.98
578.88	45153.62
579.04	45088.08
579.21	44807.22
579.37	45158.30
579.53	45336.18
579.69	44545.08
579.85	44957.01
580.01	45092.76
580.17	44994.46
580.33	45329.16
580.49	45165.32
580.65	45200.43
580.82	45254.26
580.98	45249.58
581.14	44924.24
581.30	45713.00
581.46	44898.50
581.62	45209.79
581.78	44872.75
581.94	45181.70
582.10	45062.33
582.26	44762.75
582.42	45170.00
582.58	45287.03
582.74	45057.65
582.90	45001.48
583.06	45577.25
583.22	44954.67
583.38	45207.45
583.54	45317.45
583.70	45500.01
583.86	44903.18
584.02	44903.18
584.18	45272.98
584.34	45385.33
584.50	45535.12
584.66	45682.58
584.82	45031.91
584.98	45741.09
585.14	45490.65
585.30	45179.36
585.46	45401.71
585.62	45390.01
585.78	45319.79
585.94	44821.26
586.10	45186.38
586.26	45397.03
586.42	45132.55
586.58	45301.07
586.74	45062.33
586.90	45144.25
587.06	44683.17
587.22	45368.94
587.38	44868.07
587.54	45134.89
587.70	45408.73
587.86	45263.62
588.02	45256.60
588.18	45069.36
588.34	45338.52
588.49	45556.19
588.65	45502.35
588.81	45055.31
588.97	45502.35
589.13	45343.20
589.29	45457.88
589.45	45464.91
589.61	45532.78
589.77	45289.37
589.93	45148.93
590.08	45872.16
590.24	45495.33
590.40	45677.90
590.56	46028.98
590.72	45975.14
590.88	45373.63
591.04	45633.42
591.20	45755.13
591.35	45937.69
591.51	45818.33
591.67	45593.64
591.83	45970.46
591.99	45745.77
592.15	45855.78
592.31	45675.55
592.46	45474.27
592.62	45734.07
592.78	46167.07
592.94	46059.40
593.10	45834.71
593.26	45757.47
593.41	46057.06
593.57	46120.26
593.73	45794.92
593.89	46298.14
594.05	46122.60
594.20	46092.17
594.36	46153.02
594.52	46036.00
594.68	45734.07
594.84	46085.15
594.99	46176.43
595.15	45851.09
595.31	45909.61
595.47	45605.34
595.62	45574.91
595.78	46108.55
595.94	45834.71
596.10	46085.15
596.25	46281.75
596.41	46241.96
596.57	45930.67
596.73	46162.39
596.88	45888.54
597.04	45949.40
597.20	46469.00
597.36	46148.34
597.51	46155.36
597.67	45619.38
597.83	46178.77
597.99	45989.19
598.14	45897.91
598.30	46061.74
598.46	45972.80
598.61	46012.59
598.77	45944.72
598.93	46223.24
599.09	46424.53
599.24	46246.65
599.40	46237.28
599.56	46366.01
599.71	46209.20
599.87	46955.83
600.03	46260.69
600.18	46185.79
600.34	46148.34
600.50	46143.66
600.65	46169.41
600.81	46312.18
600.97	46099.19
601.12	46424.53
601.28	45916.63
601.44	46089.83
601.59	45975.14
601.75	45869.82
601.91	46557.94
602.06	45979.82
602.22	46508.79
602.37	45916.63
602.53	46511.13
602.69	46635.17
602.84	46108.55
603.00	46197.49
603.16	46377.72
603.31	46164.73
603.47	46412.82
603.62	46450.27
603.78	46358.99
603.94	46394.10
604.09	46602.41
604.25	46433.89
604.40	46176.43
604.56	46518.15
604.71	46855.18
604.87	46127.28
605.03	46010.25
605.18	46218.56
605.34	45883.86
605.49	46045.36
605.65	46143.66
605.80	45736.41
605.96	45750.45
606.12	46036.00
606.27	46258.35
606.43	46227.92
606.58	46260.69
606.74	46124.94
606.89	46183.45
607.05	46251.33
607.20	46099.19
607.36	46471.34
607.51	46295.80
607.67	45687.26
607.82	45668.53
607.98	45933.01
608.13	46326.22
608.29	45837.05
608.44	46129.62
608.60	46124.94
608.75	46532.19
608.91	45837.05
609.06	46150.68
609.22	46155.36
609.37	45598.32
609.53	45879.18
609.68	46075.79
609.84	45324.47
609.99	45956.42
610.15	45631.08
610.30	45682.58
610.46	45762.15
610.61	46288.77
610.76	45710.66
610.92	45757.47
611.07	45415.76
611.23	46087.49
611.38	45736.41
611.54	46047.70
611.69	45757.47
611.84	45832.37
612.00	45504.70
612.15	45504.70
612.31	45949.40
612.46	45507.04
612.62	45752.79
612.77	45792.58
612.92	45724.71
613.08	45535.12
613.23	46195.15
613.39	45766.84
613.54	45443.84
613.69	45680.24
613.85	45535.12
614.00	45638.11
614.15	45530.44
614.31	45453.20
614.46	45261.28
614.62	45507.04
614.77	45759.81
614.92	45151.27
615.08	45556.19
615.23	45502.35
615.38	45488.31
615.54	45312.77
615.69	45219.15
615.84	45464.91
616.00	45397.03
616.15	45186.38
616.30	45507.04
616.46	45336.18
616.61	45324.47
616.76	45492.99
616.92	44872.75
617.07	45137.23
617.22	45256.60
617.37	44875.09
617.53	45205.11
617.68	45106.80
617.83	45352.56
617.99	45663.85
618.14	45272.98
618.29	45008.50
618.45	44877.43
618.60	45235.53
618.75	44940.63
618.90	44566.14
619.06	45221.49
619.21	44854.03
619.36	45230.85
619.51	44863.39
619.67	44458.48
619.82	45010.84
619.97	45263.62
620.12	44521.67
620.28	44755.72
620.43	45198.09
620.58	44964.03
620.73	45015.52
620.89	44720.62
621.04	45095.10
621.19	44952.33
621.34	44828.28
621.49	44786.15
621.65	44816.58
621.80	45078.72
621.95	44690.19
622.10	44348.47
622.25	44884.45
622.41	44842.32
622.56	44301.66
622.71	44715.93
622.86	44533.37
623.01	44519.33
623.16	44507.63
623.32	44140.16
623.47	44432.73
623.62	44086.33
623.77	44163.57
623.92	44350.81
624.07	44671.46
624.23	44907.86
624.38	44385.92
624.53	44374.22
624.68	44306.34
624.83	44135.48
624.98	44086.33
625.13	43798.44
625.29	43775.04
625.44	44268.89
625.59	43999.73
625.74	44119.10
625.89	43761.00
626.04	44233.78
626.19	43981.01
626.34	43749.29
626.49	43910.79
626.65	43597.16
626.80	44069.95
626.95	43985.69
627.10	43229.69
627.25	44027.82
627.40	43821.85
627.55	43704.82
627.70	43922.49
627.85	44341.45
628.00	43915.47
628.15	43943.56
628.30	43545.67
628.45	43346.72
628.60	43054.15
628.76	43468.43
628.91	43711.84
629.06	43253.10
629.21	43203.95
629.36	43077.56
629.51	43332.68
629.66	43566.73
629.81	43491.83
629.96	43157.14
630.11	43445.02
630.26	42674.99
630.41	43323.32
630.56	43430.98
630.71	43688.44
630.86	43138.41
631.01	42951.17
631.16	42988.62
631.31	42976.92
631.46	43129.05
631.61	43367.79
631.76	43033.09
631.91	42906.70
632.06	43735.25
632.21	43217.99
632.36	43501.20
632.51	43328.00
632.66	43349.06
632.81	42646.90
632.96	43009.68
633.10	42752.23
633.25	42876.27
633.40	42611.79
633.55	43505.88
633.70	42539.24
633.85	42920.74
634.00	42443.27
634.15	42213.90
634.30	42536.90
634.45	42569.66
634.60	43040.11
634.75	42653.92
634.90	42784.99
635.05	42550.94
635.19	42986.28
635.34	42225.60
635.49	42216.24
635.64	42469.02
635.79	42553.28
635.94	42707.76
636.09	42536.90
636.24	42354.33
636.39	42625.84
636.53	42291.14
636.68	42099.22
636.83	42162.41
636.98	42246.67
637.13	41958.78
637.28	42337.95
637.43	42471.36
637.57	41841.76
637.72	42080.49
637.87	42415.19
638.02	42113.26
638.17	42178.79
638.32	41923.68
638.46	41785.58
638.61	42031.34
638.76	41998.57
638.91	41750.48
639.06	42108.58
639.20	41333.86
639.35	41783.24
639.50	41284.71
639.65	41727.07
639.80	41752.82
639.94	41771.54
640.09	41680.26
640.24	42000.91
640.39	41504.72
640.54	41509.40
640.68	41839.42
640.83	42057.09
640.98	41493.02
641.13	41621.75
641.27	41907.29
641.42	41666.22
641.57	41319.82
641.72	41385.35
641.86	41603.02
642.01	41191.09
642.16	41102.15
642.31	40463.18
642.45	41476.63
642.60	41319.82
642.75	41076.40
642.90	41673.24
643.04	41436.84
643.19	41064.70
643.34	41027.25
643.48	40615.32
643.63	40847.03
643.78	41289.39
643.93	40989.80
644.07	41294.07
644.22	41170.02
644.37	41153.64
644.51	41193.43
644.66	41102.15
644.81	40891.50
644.95	41130.23
645.10	41045.97
645.25	40603.61
645.39	40458.50
645.54	40893.84
645.69	40315.73
645.83	40732.34
645.98	40615.32
646.13	40755.75
646.27	40456.16
646.42	40631.70
646.57	40449.14
646.71	40840.01
646.86	40985.12
647.00	40631.70
647.15	40760.43
647.30	40418.71
647.44	40334.45
647.59	40715.96
647.74	40339.13
647.88	40596.59
648.03	40816.60
648.17	40809.58
648.32	40032.52
648.47	40580.21
648.61	40002.10
648.76	40411.69
648.90	39854.64
649.05	39974.01
649.20	40467.86
649.34	40247.85
649.49	39974.01
649.63	40500.63
649.78	40203.38
649.92	39955.29
650.07	40739.36
650.21	40453.82
650.36	40311.05
650.51	40502.97
650.65	40184.66
650.80	40100.40
650.94	40587.23
651.09	39915.50
651.23	39866.34
651.38	39859.32
651.52	39665.06
651.67	40004.44
651.81	40261.90
651.96	39878.05
652.10	39594.84
652.25	39615.91
652.39	39653.36
652.54	39407.60
652.68	39288.23
652.83	39491.86
652.97	39751.66
653.12	40210.40
653.26	39880.39
653.41	39662.72
653.55	39206.31
653.70	39646.33
653.84	39880.39
653.99	39679.10
654.13	39494.20
654.27	39622.93
654.42	39356.11
654.56	39428.66
654.71	39526.97
654.85	39332.70
655.00	39536.33
655.14	39529.31
655.29	39959.97
655.43	39440.37
655.57	38981.62
655.72	39054.18
655.86	39070.56
656.01	39185.25
656.15	38752.25
656.30	38852.89
656.44	39189.93
656.58	39482.50
656.73	38939.49
656.87	38927.79
657.01	38813.10
657.16	38873.96
657.30	38864.60
657.45	38981.62
657.59	38955.88
657.73	38724.16
657.88	38979.28
658.02	38806.08
658.16	38967.58
658.31	38897.36
658.45	38270.10
658.60	38883.32
658.74	38607.14
658.88	38738.21
659.03	38515.86
659.17	38354.36
659.31	38218.61
659.46	38143.71
659.60	38618.84
659.74	38188.18
659.89	37883.91
660.03	37778.59
660.17	38153.07
660.32	38216.27
660.46	38616.50
660.60	37792.63
660.74	37717.73
660.89	38129.67
661.03	37574.96
661.17	37687.31
661.32	37619.43
661.46	37670.92
661.60	37731.78
661.74	37673.26
661.89	37682.62
662.03	37919.02
662.17	37081.11
662.31	37682.62
662.46	37469.64
662.60	37256.65
662.74	37280.05
662.88	37174.73
663.03	36818.97
663.17	36872.80
663.31	36737.05
663.45	37324.52
663.60	37514.11
663.74	37003.87
663.88	37312.82
664.02	36652.79
664.17	36797.90
664.31	36697.26
664.45	36390.65
664.59	36404.69
664.73	36694.92
664.88	36753.43
665.02	36102.76
665.16	36189.36
665.30	36477.25
665.44	36376.61
665.59	36091.06
665.73	36390.65
665.87	35894.46
666.01	35739.98
666.15	36114.47
666.29	36034.89
666.44	36168.30
666.58	36095.74
666.72	36102.76
666.86	35655.72
667.00	35641.68
667.14	35491.88
667.28	35641.68
667.43	35431.03
667.57	35819.56
667.71	35892.12
667.85	35716.58
667.99	35718.92
668.13	35433.37
668.27	35330.39
668.41	35159.53
668.56	34988.67
668.70	34684.40
668.84	34562.69
668.98	34745.25
669.12	34962.92
669.26	34546.31
669.40	34979.31
669.54	34703.12
669.68	34845.90
669.82	34700.78
669.96	34005.64
670.10	34199.91
670.25	34504.18
670.39	34529.92
670.53	34375.45
670.67	34136.71
670.81	34202.25
670.95	34321.62
671.09	34340.34
671.23	34012.66
671.37	34398.85
671.51	33776.27
671.65	33500.09
671.79	33659.24
671.93	33415.83
672.07	33748.18
672.21	33504.77
672.35	33125.60
672.49	33778.61
672.63	33446.26
672.77	33483.70
672.91	33329.23
673.05	33198.16
673.19	33123.26
673.33	33029.64
673.47	32830.69
673.61	32524.08
673.75	32645.79
673.89	32781.54
674.03	32514.72
674.17	32556.85
674.31	32278.33
674.45	32273.65
674.59	32268.97
674.73	32769.84
674.87	32074.70
675.01	32091.09
675.15	31508.29
675.29	31288.28
675.43	31452.12
675.56	31744.69
675.70	31676.81
675.84	31435.74
675.98	30859.96
676.12	31534.04
676.26	31393.61
676.40	31372.54
676.54	30796.77
676.68	31044.87
676.82	30555.69
676.96	31021.46
677.10	30979.33
677.23	30941.88
677.37	30883.37
677.51	30572.08
677.65	30609.53
677.79	30433.99
677.93	30204.61
678.07	30211.64
678.21	30087.59
678.34	30012.69
678.48	29839.49
678.62	29902.68
678.76	29677.99
678.90	29474.37
679.04	30211.64
679.18	29516.50
679.31	29366.70
679.45	28931.36
679.59	29362.02
679.73	29144.35
679.87	28952.43
680.00	28657.52
680.14	28987.53
680.28	28664.54
680.42	29060.09
680.56	28446.87
680.70	28355.59
680.83	28166.01
680.97	28437.51
681.11	28435.17
681.25	27864.08
681.39	27634.71
681.52	27751.73
681.66	27796.20
681.80	27402.99
681.94	26986.38
682.07	27206.39
682.21	27321.07
682.35	27000.42
682.49	27335.12
682.62	27087.02
682.76	27342.14
682.90	26815.52
683.04	27138.51
683.17	26906.80
683.31	26417.63
683.45	26637.64
683.59	26171.87
683.72	26181.23
683.86	26471.46
684.00	26176.55
684.13	26314.64
684.27	25811.43
684.41	25933.14
684.55	25914.41
684.68	25876.96
684.82	25254.38
684.96	25317.57
685.09	25727.17
685.23	25479.07
685.37	25743.55
685.50	25682.70
685.64	25507.16
685.78	24739.46
685.91	24524.13
686.05	24622.44
686.19	24580.31
686.32	24514.77
686.46	24428.17
686.60	24102.84
686.73	24264.33
686.87	24233.91
687.01	24353.27
687.14	23992.83
687.28	24114.54
687.42	24180.07
687.55	24098.16
687.69	23924.96
687.82	23594.94
687.96	23548.13
688.10	23508.34
688.23	23843.04
688.37	23854.74
688.50	23768.14
688.64	23194.71
688.78	23049.60
688.91	22848.31
689.05	23337.48
689.18	22782.77
689.32	22642.34
689.46	22377.86
689.59	22466.80
689.73	22857.67
689.86	22597.87
690.00	22539.36
690.13	22335.73
690.27	21961.25
690.41	22115.72
690.54	21762.30
690.68	21954.22
690.81	21617.19
690.95	21668.68
691.08	21647.61
691.22	21373.77
691.35	21102.27
691.49	21359.73
691.62	21472.07
691.76	20968.86
691.89	20933.75
692.03	20786.30
692.16	20608.42
692.30	20725.44
692.43	20774.60
692.57	20524.16
692.70	20311.17
692.84	20517.14
692.97	20177.76
693.11	20198.82
693.24	20039.67
693.38	20168.40
693.51	20123.93
693.65	19852.42
693.78	19798.59
693.92	19641.78
694.05	19456.87
694.19	19321.12
694.32	19344.53
694.45	19590.28
694.59	19747.10
694.72	19414.74
694.86	19075.37
694.99	19115.16
695.13	18948.98
695.26	18860.04
695.39	18604.92
695.53	18398.95
695.66	18513.64
695.80	18675.13
695.93	18560.45
696.07	18249.16
696.20	17919.14
696.33	18118.09
696.47	17923.82
696.60	17928.50
696.73	18043.19
696.87	17589.13
697.00	17942.55
697.14	17759.98
697.27	17748.28
697.40	17692.11
697.54	17394.86
697.67	17547.00
697.80	17701.47
697.94	17380.82
698.07	17193.58
698.21	17123.36
698.34	17022.72
698.47	17252.09
698.61	16320.56
698.74	16552.27
698.87	16503.12
699.01	16435.24
699.14	16404.81
699.27	16503.12
699.40	16376.73
699.54	16177.78
699.67	16297.15
699.80	16116.93
699.94	16224.59
700.07	15964.79
700.20	16044.37
700.34	15920.32
700.47	15969.48
700.60	16098.20
700.73	15674.57
700.87	15463.92
701.00	15501.37
701.13	15363.28
701.26	15304.76
701.40	15089.43
701.53	15063.69
701.66	15199.44
701.79	14993.47
701.93	14717.29
702.06	14675.16
702.19	14743.03
702.32	14890.49
702.46	14956.02
702.59	14504.30
702.72	14839.00
702.85	14611.96
702.99	14827.29
703.12	14415.36
703.25	14274.93
703.38	14291.31
703.51	14087.68
703.65	13933.21
703.78	13764.69
703.91	13837.25
704.04	13685.11
704.17	13640.64
704.31	13621.92
704.44	13603.19
704.57	13778.73
704.70	13804.48
704.83	13642.98
704.96	13441.70
705.10	13345.73
705.23	13224.03
>>>>>End Processed Spectral Data<<<<<
