SpectraSuite Data File
++++++++++++++++++++++++++++++++++++
Date: Fri Oct 25 10:47:39 EDT 2013
User: price-jones
Dark Spectrum Present: No
Reference Spectrum Present: No
Number of Sampled Component Spectra: 1
Spectrometers: USB2+H05261
Integration Time (usec): 100000 (USB2+H05261)
Spectra Averaged: 1 (USB2+H05261)
Boxcar Smoothing: 0 (USB2+H05261)
Correct for Electrical Dark: No (USB2+H05261)
Strobe/Lamp Enabled: No (USB2+H05261)
Correct for Detector Non-linearity: No (USB2+H05261)
Correct for Stray Light: No (USB2+H05261)
Number of Pixels in Processed Spectrum: 2048
>>>>>Begin Processed Spectral Data<<<<<
365.73	180.22
365.92	180.22
366.12	180.22
366.32	112.35
366.52	74.90
366.72	102.98
366.91	63.19
367.11	7.02
367.31	0.00
367.51	23.41
367.70	28.09
367.90	77.24
368.10	133.41
368.30	4.68
368.49	63.19
368.69	74.90
368.89	72.56
369.09	42.13
369.28	72.56
369.48	145.11
369.68	119.37
369.87	102.98
370.07	56.17
370.27	126.39
370.47	189.58
370.66	348.74
370.86	386.19
371.06	458.74
371.25	470.45
371.45	418.96
371.65	351.08
371.84	437.68
372.04	372.15
372.24	400.23
372.44	421.30
372.63	435.34
372.83	528.96
373.03	575.77
373.22	447.04
373.42	533.64
373.62	603.86
373.81	592.16
374.01	561.73
374.21	653.01
374.40	557.05
374.60	496.19
374.79	540.66
374.99	493.85
375.19	557.05
375.38	538.32
375.58	594.50
375.78	568.75
375.97	592.16
376.17	638.97
376.37	606.20
376.56	533.64
376.76	617.90
376.95	575.77
377.15	617.90
377.35	615.56
377.54	557.05
377.74	589.82
377.93	643.65
378.13	566.41
378.33	690.46
378.52	657.69
378.72	589.82
378.91	643.65
379.11	660.03
379.31	585.13
379.50	566.41
379.70	660.03
379.89	748.97
380.09	620.24
380.28	678.76
380.48	692.80
380.68	624.92
380.87	711.52
381.07	650.67
381.26	725.57
381.46	678.76
381.65	704.50
381.85	779.40
382.04	697.48
382.24	809.83
382.43	627.26
382.63	723.23
382.83	641.31
383.02	706.84
383.22	608.54
383.41	664.71
383.61	667.05
383.80	748.97
384.00	753.65
384.19	713.86
384.39	763.01
384.58	744.29
384.78	763.01
384.97	777.06
385.17	739.61
385.36	767.70
385.56	711.52
385.75	800.46
385.95	704.50
386.14	873.02
386.34	786.42
386.53	851.96
386.72	784.08
386.92	889.40
387.11	791.10
387.31	830.89
387.50	837.91
387.70	786.42
387.89	798.12
388.09	889.40
388.28	912.81
388.48	819.19
388.67	936.21
388.86	898.77
389.06	882.38
389.25	894.08
389.45	936.21
389.64	842.59
389.84	959.62
390.03	844.93
390.22	887.06
390.42	952.60
390.61	875.36
390.81	964.30
391.00	990.05
391.19	1043.88
391.39	1004.09
391.58	954.94
391.78	1032.18
391.97	1053.24
392.16	992.39
392.36	952.60
392.55	1076.65
392.75	1013.45
392.94	983.02
393.13	992.39
393.33	940.90
393.52	1043.88
393.71	1001.75
393.91	1078.99
394.10	1097.71
394.29	1013.45
394.49	1100.05
394.68	1125.80
394.88	1074.31
395.07	1107.07
395.26	1102.39
395.46	1146.86
395.65	1207.72
395.84	1242.82
396.04	1137.50
396.23	1139.84
396.42	1081.33
396.62	1132.82
396.81	1165.59
397.00	1130.48
397.19	1107.07
397.39	1247.51
397.58	1198.35
397.77	1235.80
397.97	1275.59
398.16	1371.55
398.35	1291.98
398.55	1406.66
398.74	1371.55
398.93	1362.19
399.12	1327.08
399.32	1380.92
399.51	1420.71
399.70	1373.89
399.90	1413.68
400.09	1430.07
400.28	1397.30
400.47	1392.62
400.67	1394.96
400.86	1516.67
401.05	1507.30
401.24	1474.54
401.44	1554.12
401.63	1540.07
401.82	1411.34
402.01	1469.86
402.21	1549.43
402.40	1598.59
402.59	1495.60
402.78	1626.67
402.97	1636.03
403.17	1661.78
403.36	1542.41
403.55	1680.50
403.74	1678.16
403.93	1666.46
404.13	1636.03
404.32	1682.85
404.51	1647.74
404.70	1692.21
404.89	1652.42
405.09	1703.91
405.28	1727.32
405.47	1713.27
405.66	1750.72
405.85	1694.55
406.05	1792.85
406.24	1746.04
406.43	1818.60
406.62	1867.75
406.81	2024.56
407.00	1806.89
407.20	1898.17
407.39	1813.92
407.58	1912.22
407.77	1933.28
407.96	2017.54
408.15	2076.06
408.34	2076.06
408.54	1923.92
408.73	2087.76
408.92	2104.14
409.11	2003.50
409.30	2047.97
409.49	2062.01
409.68	2019.88
409.87	2104.14
410.07	2059.67
410.26	2071.37
410.45	2207.13
410.64	2267.98
410.83	2165.00
411.02	2326.49
411.21	2324.15
411.40	2307.77
411.59	2258.62
411.78	2385.01
411.98	2370.96
412.17	2354.58
412.36	2424.80
412.55	2401.39
412.74	2431.82
412.93	2480.97
413.12	2448.20
413.31	2560.55
413.50	2516.08
413.69	2597.99
413.88	2733.75
414.07	2574.59
414.26	2567.57
414.45	2712.68
414.64	2567.57
414.83	2663.53
415.02	2656.51
415.22	2818.00
415.41	2904.60
415.60	2846.09
415.79	2855.45
415.98	2871.84
416.17	2904.60
416.36	2918.65
416.55	2942.05
416.74	2991.20
416.93	2942.05
417.12	2942.05
417.31	2984.18
417.50	3045.04
417.69	3063.76
417.88	3056.74
418.07	3073.12
418.26	3204.19
418.45	3164.40
418.64	3215.90
418.83	3180.79
419.02	3073.12
419.21	3314.20
419.39	3176.11
419.58	3307.18
419.77	3215.90
419.96	3396.12
420.15	3346.97
420.34	3332.92
420.53	3461.65
420.72	3382.07
420.91	3485.06
421.10	3480.38
421.29	3475.70
421.48	3396.12
421.67	3445.27
421.86	3410.16
422.05	3417.18
422.24	3393.78
422.43	3496.76
422.61	3576.34
422.80	3550.59
422.99	3449.95
423.18	3541.23
423.37	3728.47
423.56	3590.38
423.75	3496.76
423.94	3459.31
424.13	3318.88
424.32	3419.52
424.50	3658.26
424.69	3737.84
424.88	3630.17
425.07	3684.00
425.26	3431.23
425.45	3583.36
425.64	3693.37
425.83	3679.32
426.01	3676.98
426.20	3550.59
426.39	3634.85
426.58	3599.74
426.77	3613.79
426.96	3653.58
427.15	3653.58
427.33	3707.41
427.52	3648.90
427.71	3709.75
427.90	3791.67
428.09	3798.69
428.28	3789.33
428.46	3789.33
428.65	3817.41
428.84	3850.18
429.03	3950.82
429.22	3754.22
429.40	3936.78
429.59	3777.62
429.78	3630.17
429.97	3707.41
430.16	3705.07
430.34	3864.22
430.53	3840.82
430.72	3878.27
430.91	3906.35
431.10	3852.52
431.28	4203.60
431.47	4217.65
431.66	4152.11
431.85	4102.96
432.03	4098.28
432.22	4287.86
432.41	4231.69
432.60	4325.31
432.79	4416.59
432.97	4367.44
433.16	4212.96
433.35	4173.18
433.54	4344.03
433.72	4257.43
433.91	4283.18
434.10	4348.72
434.28	4348.72
434.47	4367.44
434.66	4512.55
434.85	4587.45
435.03	4596.81
435.22	4444.68
435.41	4734.90
435.59	4594.47
435.78	4645.96
435.97	4585.11
436.16	4732.56
436.34	4491.49
436.53	4664.69
436.72	4765.33
436.90	4575.75
437.09	4608.51
437.28	4627.24
437.46	4627.24
437.65	4631.92
437.84	4737.24
438.02	4627.24
438.21	4830.87
438.40	4753.63
438.58	4891.72
438.77	4968.96
438.96	4929.17
439.14	5034.49
439.33	5062.58
439.52	5025.13
439.70	5067.26
439.89	5135.14
440.08	5093.01
440.26	5385.57
440.45	5238.12
440.63	5369.19
440.82	5411.32
441.01	5287.27
441.19	5418.34
441.38	5537.71
441.57	5589.20
441.75	5572.82
441.94	5792.83
442.12	5638.35
442.31	5673.46
442.50	5680.48
442.68	5551.75
442.87	5818.57
443.05	5717.93
443.24	5933.26
443.43	5778.78
443.61	5799.85
443.80	5966.03
443.98	5872.40
444.17	5647.71
444.35	5685.16
444.54	6078.37
444.73	6010.50
444.91	5900.49
445.10	5942.62
445.28	6005.81
445.47	5926.24
445.65	5867.72
445.84	5923.90
446.02	6040.92
446.21	6012.84
446.39	6043.26
446.58	5895.81
446.77	6045.60
446.95	5947.30
447.14	6181.35
447.32	6113.48
447.51	6146.25
447.69	6069.01
447.88	6118.16
448.06	5951.98
448.25	6148.59
448.43	6171.99
448.62	6274.98
448.80	6052.63
448.99	6249.23
449.17	6186.04
449.36	6174.33
449.54	6349.87
449.73	6314.77
449.91	6544.14
450.10	6462.22
450.28	6333.49
450.46	6586.27
450.65	6471.58
450.83	6576.91
451.02	6429.45
451.20	6593.29
451.39	6595.63
451.57	6600.31
451.76	6459.88
451.94	6696.27
452.13	6703.29
452.31	6431.79
452.49	6410.73
452.68	6565.20
452.86	6668.19
453.05	6619.04
453.23	6717.34
453.42	6614.35
453.60	6576.91
453.78	6719.68
453.97	6614.35
454.15	6689.25
454.34	6754.79
454.52	6871.81
454.70	6895.22
454.89	6927.99
455.07	6827.34
455.26	6956.07
455.44	6892.88
455.62	7091.82
455.81	7152.68
455.99	7016.93
456.17	7166.72
456.36	7047.35
456.54	7229.91
456.73	7143.32
456.91	7506.10
457.09	7463.97
457.28	7522.48
457.46	7328.22
457.64	7302.47
457.83	7494.40
458.01	7190.13
458.19	7674.62
458.38	7377.37
458.56	7637.17
458.74	7576.31
458.93	7456.95
459.11	7559.93
459.29	7515.46
459.48	7623.12
459.66	7515.46
459.84	7676.96
460.03	7822.07
460.21	7831.43
460.39	7875.90
460.57	7709.72
460.76	7978.89
460.94	7824.41
461.12	7805.69
461.31	8016.33
461.49	7714.41
461.67	7927.39
461.85	7948.46
462.04	8126.34
462.22	8512.53
462.40	8102.93
462.59	8138.04
462.77	8140.38
462.95	8208.26
463.13	8252.73
463.32	8074.85
463.50	8334.65
463.68	8170.81
463.86	8119.32
464.05	8098.25
464.23	8149.75
464.41	8255.07
464.59	8088.89
464.78	8355.71
464.96	8315.92
465.14	8255.07
465.32	8517.21
465.50	8404.86
465.69	8535.93
465.87	8318.26
466.05	8395.50
466.23	8442.31
466.41	8535.93
466.60	8751.26
466.78	8451.67
466.96	8409.54
467.14	8589.77
467.32	8451.67
467.51	8641.26
467.69	8308.90
467.87	8571.04
468.05	8648.28
468.23	8769.99
468.41	8692.75
468.60	8667.00
468.78	8936.17
468.96	9041.49
469.14	8905.74
469.32	8837.86
469.50	8704.45
469.69	9006.38
469.87	8908.08
470.05	9029.79
470.23	8849.57
470.41	8961.91
470.59	8994.68
470.77	9172.56
470.95	9174.90
471.14	9100.00
471.32	9121.07
471.50	9434.70
471.68	9317.67
471.86	9385.55
472.04	9399.59
472.22	9902.81
472.40	9301.29
472.58	9504.92
472.77	9635.99
472.95	9825.57
473.13	10029.20
473.31	9668.75
473.49	9619.60
473.67	9668.75
473.85	9825.57
474.03	9980.04
474.21	10146.22
474.39	10087.71
474.57	10010.47
474.75	10356.87
474.93	10368.57
475.12	10270.27
475.30	10438.79
475.48	10296.02
475.66	10574.54
475.84	10373.25
476.02	10548.79
476.20	10504.32
476.38	10595.61
476.56	10890.51
476.74	11014.56
476.92	10963.07
477.10	11019.24
477.28	10986.47
477.46	10986.47
477.64	11201.80
477.82	11115.20
478.00	11398.41
478.18	11475.65
478.36	11494.37
478.54	11800.98
478.72	11997.59
478.90	11946.09
479.08	11988.22
479.26	12058.44
479.44	12042.06
479.62	12210.57
479.80	12301.86
479.98	12336.96
480.16	12657.62
480.34	12465.69
480.52	12669.32
480.70	12479.74
480.88	12599.10
481.06	12540.59
481.24	12739.54
481.41	13128.06
481.59	13394.89
481.77	13221.69
481.95	13509.57
482.13	13177.22
482.31	13467.44
482.49	13806.82
482.67	13710.86
482.85	13792.78
483.03	13848.95
483.21	14214.07
483.39	14073.64
483.57	14125.13
483.74	14232.80
483.92	14499.62
484.10	14516.00
484.28	14743.03
484.46	14593.24
484.64	14998.15
484.82	14752.40
485.00	14923.26
485.18	15396.04
485.35	15393.70
485.53	14916.23
485.71	14984.11
485.89	15260.29
486.07	15279.02
486.25	15489.67
486.43	16051.39
486.61	15936.71
486.78	15868.83
486.96	16053.73
487.14	16423.54
487.32	16304.17
487.50	16608.44
487.68	16699.72
487.85	17003.99
488.03	17041.44
488.21	17572.74
488.39	17392.52
488.57	17170.17
488.75	17738.92
488.92	17348.05
489.10	17834.88
489.28	17989.36
489.46	18022.12
489.64	18026.81
489.81	18551.09
489.99	18712.58
490.17	18630.66
490.35	19110.47
490.53	18799.18
490.70	19115.16
490.88	19030.90
491.06	18948.98
491.24	19122.18
491.41	19833.70
491.59	19374.95
491.77	19199.41
491.95	19522.41
492.13	19793.91
492.30	20280.74
492.48	20123.93
492.66	20238.61
492.84	20545.22
493.01	20563.95
493.19	20505.43
493.37	20900.98
493.54	20769.91
493.72	21032.05
493.90	20985.24
494.08	21486.12
494.25	21216.96
494.43	21404.20
494.61	21589.10
494.79	21919.12
494.96	21771.66
495.14	21619.53
495.32	21755.28
495.49	22059.55
495.67	22373.18
495.85	22382.54
496.02	22609.58
496.20	22656.39
496.38	22544.04
496.55	22686.81
496.73	23293.01
496.91	23112.79
497.09	23363.23
497.26	23332.80
497.44	23241.52
497.62	23454.51
497.79	23747.08
497.97	23690.90
498.14	23627.71
498.32	23721.33
498.50	23988.15
498.67	24271.36
498.85	24159.01
499.03	24343.91
499.20	24446.90
499.38	24474.98
499.56	24325.19
499.73	24931.39
499.91	24699.67
500.08	24893.94
500.26	24620.10
500.44	24929.05
500.61	24858.83
500.79	25050.75
500.97	25289.49
501.14	25130.33
501.32	25305.87
501.49	25280.13
501.67	25502.48
501.84	25448.64
502.02	25652.27
502.20	26029.10
502.37	26188.25
502.55	25874.62
502.72	26073.57
502.90	26228.04
503.07	26195.28
503.25	26242.09
503.43	26192.94
503.60	26693.81
503.78	26354.43
503.95	26609.55
504.13	26789.77
504.30	26977.01
504.48	27014.46
504.65	26768.71
504.83	27005.10
505.01	27391.29
505.18	27026.17
505.36	27491.93
505.53	27679.18
505.71	27728.33
505.88	27585.55
506.06	27452.14
506.23	27981.10
506.41	27541.08
506.58	27590.24
506.76	28070.04
506.93	28168.35
507.11	27934.29
507.28	28032.60
507.46	27978.76
507.63	28060.68
507.81	28196.43
507.98	28334.53
508.16	28538.15
508.33	28582.62
508.50	28788.59
508.68	28811.99
508.85	29511.81
509.03	29125.63
509.20	28957.11
509.38	29074.13
509.55	29465.00
509.73	29596.07
509.90	29638.20
510.08	29317.55
510.25	29535.22
510.42	29560.97
510.60	30139.08
510.77	29418.19
510.95	29371.38
511.12	29888.64
511.30	29785.66
511.47	30429.30
511.64	30050.14
511.82	30452.71
511.99	30319.30
512.17	30780.39
512.34	30513.56
512.51	30391.86
512.69	30611.87
512.86	31192.32
513.04	30911.46
513.21	31136.15
513.38	30852.94
513.56	30822.51
513.73	31033.16
513.90	31098.70
514.08	30871.67
514.25	31314.03
514.43	31143.17
514.60	31243.81
514.77	30918.48
514.95	31405.31
515.12	31449.78
515.29	31702.56
515.47	31770.43
515.64	31971.72
515.81	31955.33
515.99	32067.68
516.16	32109.81
516.33	32158.96
516.51	31957.67
516.68	31690.85
516.85	31955.33
517.03	31749.37
517.20	32187.05
517.37	32402.38
517.54	32369.61
517.72	32072.36
517.89	32383.65
518.06	32306.41
518.24	32385.99
518.41	32540.47
518.58	32851.76
518.75	32748.78
518.93	33116.24
519.10	32800.27
519.27	33216.88
519.45	33422.85
519.62	32947.72
519.79	33383.06
519.96	33305.82
520.14	33647.54
520.31	33261.35
520.48	33710.74
520.65	33591.37
520.83	34050.11
521.00	33759.89
521.17	33914.36
521.34	33647.54
521.52	33879.25
521.69	34265.44
521.86	34368.43
522.03	34286.51
522.20	34614.18
522.38	34321.62
522.55	34738.23
522.72	34373.11
522.89	34422.26
523.07	34616.52
523.24	34330.98
523.41	35028.46
523.58	34679.72
523.75	35089.31
523.92	34944.20
524.10	35487.20
524.27	35304.64
524.44	35381.88
524.61	35505.93
524.78	35337.41
524.96	35110.38
525.13	35618.27
525.30	35950.63
525.47	35679.13
525.64	35498.91
525.81	35440.39
525.98	35651.04
526.16	35510.61
526.33	35306.98
526.50	36140.21
526.67	35524.65
526.84	35723.60
527.01	35601.89
527.18	35768.07
527.36	36367.24
527.53	36053.61
527.70	36545.12
527.87	36495.97
528.04	36062.97
528.21	36301.71
528.38	36353.20
528.55	36875.14
528.72	36400.01
528.89	36924.29
529.07	36758.11
529.24	36861.10
529.41	36694.92
529.58	36545.12
529.75	36924.29
529.92	37120.90
530.09	37277.71
530.26	37371.33
530.43	37373.67
530.60	37191.11
530.77	37319.84
530.94	37806.67
531.11	37230.90
531.28	37158.34
531.46	37373.67
531.63	37462.61
531.80	37031.96
531.97	37329.20
532.14	37476.66
532.31	37352.61
532.48	37790.29
532.65	37982.21
532.82	37787.95
532.99	38022.00
533.16	37668.58
533.33	37724.75
533.50	38586.07
533.67	38302.87
533.84	38195.20
534.01	38218.61
534.18	38417.55
534.35	38721.82
534.52	38256.06
534.69	38452.66
534.86	38869.28
535.03	38071.15
535.20	38976.94
535.37	38831.83
535.54	39108.01
535.71	38396.49
535.88	38817.78
536.05	39016.73
536.22	39063.54
536.38	38761.61
536.55	38857.57
536.72	39061.20
536.89	38759.27
537.06	39063.54
537.23	39318.66
537.40	38946.51
537.57	38979.28
537.74	39131.42
537.91	39215.68
538.08	39438.03
538.25	39194.61
538.42	39189.93
538.59	39356.11
538.75	39477.82
538.92	39302.28
539.09	39587.82
539.26	39604.20
539.43	39398.24
539.60	39545.69
539.77	39426.32
539.94	39550.37
540.11	39489.52
540.28	39646.33
540.44	39997.41
540.61	39482.50
540.78	39402.92
540.95	39899.11
541.12	39791.45
541.29	39908.47
541.46	39913.16
541.62	39868.69
541.79	40243.17
541.96	39814.85
542.13	39906.13
542.30	40128.48
542.47	40346.15
542.63	40027.84
542.80	40034.86
542.97	40411.69
543.14	40999.16
543.31	41275.35
543.48	40800.22
543.64	41453.23
543.81	41057.68
543.98	41006.19
544.15	41130.23
544.32	41425.14
544.48	41055.34
544.65	41240.24
544.82	41078.74
544.99	40479.57
545.16	41010.87
545.32	41045.97
545.49	41265.99
545.66	41530.47
545.83	41523.44
546.00	41170.02
546.16	41633.45
546.33	41303.43
546.50	41029.59
546.67	41565.57
546.83	41139.60
547.00	41111.51
547.17	41450.89
547.34	41560.89
547.50	41415.78
547.67	42153.05
547.84	41867.50
548.00	42019.64
548.17	42029.00
548.34	41769.20
548.51	42064.11
548.67	42265.39
548.84	42139.00
549.01	42045.38
549.18	42012.62
549.34	41371.31
549.51	42146.03
549.68	42113.26
549.84	42632.86
550.01	42277.10
550.18	41893.25
550.34	42408.17
550.51	42129.64
550.68	41626.43
550.84	41909.63
551.01	42185.82
551.18	42047.72
551.34	42218.58
551.51	42684.35
551.68	42424.55
551.84	42476.04
552.01	42539.24
552.18	42866.91
552.34	42176.45
552.51	42761.59
552.68	43016.71
552.84	42726.48
553.01	43166.50
553.18	42700.73
553.34	42658.60
553.51	42389.44
553.67	42534.56
553.84	43171.18
554.01	43091.60
554.17	43068.20
554.34	43189.91
554.51	43416.94
554.67	43346.72
554.84	43042.45
555.00	43019.05
555.17	43196.93
555.33	43363.11
555.50	43014.37
555.67	43309.27
555.83	42869.25
556.00	43283.53
556.16	43306.93
556.33	43309.27
556.50	43030.75
556.66	43508.22
556.83	42883.30
556.99	43400.55
557.16	43386.51
557.32	43442.68
557.49	43559.71
557.65	43477.79
557.82	42967.55
557.98	43494.18
558.15	43639.29
558.32	43522.26
558.48	43576.09
558.65	43599.50
558.81	43426.30
558.98	43344.38
559.14	43480.13
559.31	43290.55
559.47	43629.93
559.64	43789.08
559.80	43629.93
559.97	43971.64
560.13	43676.74
560.30	43112.67
560.46	43620.56
560.63	43693.12
560.79	43730.57
560.96	43863.98
561.12	43725.89
561.29	43969.30
561.45	43807.81
561.61	43938.88
561.78	43433.32
561.94	43845.26
562.11	43753.97
562.27	43515.24
562.44	43744.61
562.60	44194.00
562.77	44072.29
562.93	44191.65
563.10	44254.85
563.26	43971.64
563.42	44212.72
563.59	44184.63
563.75	43997.39
563.92	44002.07
564.08	44495.92
564.24	44554.44
564.41	44392.94
564.57	43917.81
564.74	43999.73
564.90	43908.45
565.07	44243.15
565.23	44428.05
565.39	43866.32
565.56	44505.29
565.72	44353.15
565.88	44231.44
566.05	44343.79
566.21	44538.05
566.38	43800.79
566.54	44392.94
566.70	44479.54
566.87	44360.17
567.03	43969.30
567.19	44690.19
567.36	44320.38
567.52	43702.48
567.68	44540.39
567.85	44062.93
568.01	44439.75
568.17	44486.56
568.34	44493.58
568.50	44830.62
568.66	44378.90
568.83	44243.15
568.99	45076.38
569.15	44561.46
569.32	44020.80
569.48	44320.38
569.64	44802.53
569.81	44839.98
569.97	44673.81
570.13	44533.37
570.30	44524.01
570.46	44182.29
570.62	44334.43
570.78	44109.74
570.95	44186.97
571.11	44624.65
571.27	44348.47
571.43	44119.10
571.60	44552.10
571.76	44495.92
571.92	44622.31
572.09	44287.62
572.25	44631.68
572.41	44369.54
572.57	44746.36
572.74	45038.93
572.90	44971.05
573.06	44748.70
573.22	44912.54
573.38	44549.76
573.55	44304.00
573.71	44472.52
573.87	44720.62
574.03	44507.63
574.20	44701.89
574.36	44701.89
574.52	44643.38
574.68	44563.80
574.84	45076.38
575.01	44456.14
575.17	44486.56
575.33	44896.16
575.49	44968.71
575.65	44959.35
575.82	44884.45
575.98	44961.69
576.14	45237.87
576.30	44830.62
576.46	44711.25
576.62	44582.52
576.79	45022.54
576.95	44369.54
577.11	45151.27
577.27	44680.83
577.43	44727.64
577.59	44793.17
577.75	44341.45
577.92	44439.75
578.08	44549.76
578.24	44275.91
578.40	44809.56
578.56	44830.62
578.72	44648.06
578.88	44821.26
579.04	45120.85
579.21	44479.54
579.37	44790.83
579.53	44392.94
579.69	44247.83
579.85	44580.18
580.01	44772.11
580.17	45099.78
580.33	45099.78
580.49	45076.38
580.65	45130.21
580.82	45017.86
580.98	45003.82
581.14	44952.33
581.30	44938.29
581.46	44795.51
581.62	44837.64
581.78	44914.88
581.94	44989.78
582.10	44821.26
582.26	44655.08
582.42	45034.25
582.58	44978.07
582.74	44657.42
582.90	44603.59
583.06	45375.97
583.22	45191.06
583.38	44804.88
583.54	45212.13
583.70	44816.58
583.86	45436.82
584.02	44329.75
584.18	45076.38
584.34	44966.37
584.50	44957.01
584.66	44547.42
584.82	45048.29
584.98	45614.70
585.14	45205.11
585.30	44949.99
585.46	44907.86
585.62	44493.58
585.78	44968.71
585.94	44573.16
586.10	44928.92
586.26	44648.06
586.42	45069.36
586.58	44839.98
586.74	45247.24
586.90	44772.11
587.06	44512.31
587.22	44830.62
587.38	44568.48
587.54	45111.49
587.70	45155.96
587.86	45083.40
588.02	44603.59
588.18	45450.86
588.34	44809.56
588.49	44659.76
588.65	44921.90
588.81	45031.91
588.97	44460.82
589.13	44879.77
589.29	45013.18
589.45	45162.98
589.61	44877.43
589.77	45219.15
589.93	45092.76
590.08	45453.20
590.24	45237.87
590.40	45127.87
590.56	44938.29
590.72	45043.61
590.88	44882.11
591.04	44772.11
591.20	45511.72
591.35	45109.14
591.51	45614.70
591.67	45172.34
591.83	45202.77
591.99	44804.88
592.15	45109.14
592.31	45193.40
592.46	45272.98
592.62	45181.70
592.78	45261.28
592.94	45280.00
593.10	45174.68
593.26	45303.41
593.41	45338.52
593.57	45064.67
593.73	45411.07
593.89	45429.80
594.05	45118.51
594.20	45038.93
594.36	45432.14
594.52	45312.77
594.68	45116.17
594.84	44788.49
594.99	45413.41
595.15	45055.31
595.31	45633.42
595.47	45289.37
595.62	45413.41
595.78	44954.67
595.94	45057.65
596.10	45528.10
596.25	45694.28
596.41	45909.61
596.57	45008.50
596.73	45607.68
596.88	45074.04
597.04	45139.57
597.20	45759.81
597.36	45017.86
597.51	45897.91
597.67	45137.23
597.83	45544.48
597.99	45247.24
598.14	45221.49
598.30	45490.65
598.46	45474.27
598.61	45668.53
598.77	44978.07
598.93	45305.75
599.09	45331.50
599.24	45474.27
599.40	45385.33
599.56	45722.37
599.71	45900.25
599.87	45633.42
600.03	45226.17
600.18	45610.02
600.34	45076.38
600.50	45387.67
600.65	45263.62
600.81	45617.04
600.97	45918.97
601.12	45642.79
601.28	45207.45
601.44	45151.27
601.59	45497.67
601.75	45184.04
601.91	45677.90
602.06	45132.55
602.22	45579.59
602.37	45132.55
602.53	45478.95
602.69	45638.11
602.84	45111.49
603.00	45483.63
603.16	45219.15
603.31	44964.03
603.47	44790.83
603.62	45184.04
603.78	45333.84
603.94	45565.55
604.09	45605.34
604.25	45535.12
604.40	45375.97
604.56	45507.04
604.71	45263.62
604.87	45083.40
605.03	45291.71
605.18	45092.76
605.34	45230.85
605.49	45298.73
605.65	45970.46
605.80	45188.72
605.96	45560.87
606.12	45399.37
606.27	45586.61
606.43	44942.97
606.58	45151.27
606.74	44858.71
606.89	44964.03
607.05	44947.65
607.20	45387.67
607.36	45083.40
607.51	45478.95
607.67	45202.77
607.82	45188.72
607.98	45504.70
608.13	44570.82
608.29	45092.76
608.44	44832.96
608.60	44465.50
608.75	44722.96
608.91	44821.26
609.06	44755.72
609.22	45294.05
609.37	44872.75
609.53	45109.14
609.68	44704.23
609.84	44687.85
609.99	44858.71
610.15	44947.65
610.30	45193.40
610.46	44566.14
610.61	44877.43
610.76	44994.46
610.92	44552.10
611.07	44605.93
611.23	44605.93
611.38	44807.22
611.54	44673.81
611.69	44645.72
611.84	44968.71
612.00	44444.43
612.15	44563.80
612.31	44737.00
612.46	45074.04
612.62	44797.85
612.77	44357.83
612.92	44636.36
613.08	44645.72
613.23	44556.78
613.39	44844.66
613.54	44465.50
613.69	44430.39
613.85	44477.20
614.00	44547.42
614.15	44542.74
614.31	44655.08
614.46	44512.31
614.62	44601.25
614.77	44067.61
614.92	44086.33
615.08	44629.34
615.23	44432.73
615.38	44542.74
615.54	44133.14
615.69	43807.81
615.84	43990.37
616.00	44282.94
616.15	44278.25
616.30	44332.09
616.46	43999.73
616.61	43887.39
616.76	44074.63
616.92	43955.26
617.07	44186.97
617.22	43615.88
617.37	44004.41
617.53	43927.17
617.68	43906.11
617.83	43812.49
617.99	43831.21
618.14	44229.10
618.29	43840.57
618.45	43496.52
618.60	43328.00
618.75	43749.29
618.90	44250.17
619.06	43915.47
619.21	44107.40
619.36	43896.75
619.51	43700.14
619.67	43849.94
619.82	43835.89
619.97	43360.76
620.12	43716.53
620.28	43360.76
620.43	43203.95
620.58	43288.21
620.73	43501.20
620.89	43250.76
621.04	43540.99
621.19	43594.82
621.34	43297.57
621.49	42969.90
621.65	42677.33
621.80	43672.06
621.95	43201.61
622.10	43449.70
622.25	42988.62
622.41	43143.09
622.56	43133.73
622.71	43318.64
622.86	43126.71
623.01	42880.95
623.16	43145.44
623.32	43318.64
623.47	43260.12
623.62	43416.94
623.77	42546.26
623.92	43463.75
624.07	42595.41
624.23	42557.96
624.38	42836.48
624.53	43159.48
624.68	43028.41
624.83	42822.44
624.98	43215.65
625.13	42752.23
625.29	42806.06
625.44	42412.85
625.59	42679.67
625.74	42342.63
625.89	42010.28
626.04	41818.35
626.19	42192.84
626.34	42728.82
626.49	42799.04
626.65	42398.80
626.80	42366.04
626.95	41951.76
627.10	42384.76
627.25	42237.31
627.40	41951.76
627.55	41996.23
627.70	41598.34
627.85	41818.35
628.00	42380.08
628.15	42370.72
628.30	42354.33
628.45	42256.03
628.60	42309.86
628.76	41869.84
628.91	42426.89
629.06	42225.60
629.21	42237.31
629.36	41713.03
629.51	41862.82
629.66	41640.47
629.81	41244.92
629.96	41612.38
630.11	41895.59
630.26	41804.31
630.41	41968.15
630.56	41855.80
630.71	41942.40
630.86	41933.04
631.01	41567.91
631.16	41794.95
631.31	41371.31
631.46	40971.08
631.61	41263.64
631.76	41343.22
631.91	41736.43
632.06	41401.74
632.21	41338.54
632.36	41254.28
632.51	41191.09
632.66	41530.47
632.81	40753.41
632.96	41043.63
633.10	41027.25
633.25	41097.47
633.40	41177.04
633.55	41167.68
633.70	41581.96
633.85	41015.55
634.00	40877.46
634.15	41045.97
634.30	40886.82
634.45	41280.03
634.60	41237.90
634.75	41298.75
634.90	41088.10
635.05	41289.39
635.19	41053.00
635.34	41109.17
635.49	41193.43
635.64	40470.20
635.79	40622.34
635.94	40994.48
636.09	40683.19
636.24	40650.42
636.39	40444.46
636.53	40409.35
636.68	40554.46
636.83	40563.82
636.98	40966.40
637.13	40289.98
637.28	40676.17
637.43	40526.38
637.57	40959.38
637.72	40643.40
637.87	40587.23
638.02	40531.06
638.17	40449.14
638.32	40147.21
638.46	40039.54
638.61	40247.85
638.76	39896.77
638.91	40568.51
639.06	40311.05
639.20	40091.04
639.35	40294.66
639.50	40519.35
639.65	40718.30
639.80	40247.85
639.94	40163.59
640.09	39990.39
640.24	39725.91
640.39	39618.25
640.54	39976.35
640.68	39936.56
640.83	39978.69
640.98	39866.34
641.13	39541.01
641.27	40205.72
641.42	39770.38
641.57	40189.34
641.72	39964.65
641.86	39613.57
642.01	39756.34
642.16	39899.11
642.31	39667.40
642.45	39508.24
642.60	39187.59
642.75	39213.34
642.90	39756.34
643.04	39412.28
643.19	39646.33
643.34	39164.18
643.48	39592.50
643.63	39695.49
643.78	39021.41
643.93	39206.31
644.07	39466.11
644.22	39194.61
644.37	39192.27
644.51	39115.03
644.66	39236.74
644.81	39473.13
644.95	39365.47
645.10	39646.33
645.25	39636.97
645.39	39386.54
645.54	39564.42
645.69	39168.87
645.83	38948.85
645.98	39030.77
646.13	38998.01
646.27	39028.43
646.42	38761.61
646.57	39180.57
646.71	38892.68
646.86	38958.22
647.00	39161.84
647.15	38981.62
647.30	38972.26
647.44	38691.40
647.59	39105.67
647.74	38873.96
647.88	38651.61
648.03	38782.68
648.17	38808.42
648.32	38487.77
648.47	38553.30
648.61	38375.42
648.76	38740.55
648.90	38927.79
649.05	38918.43
649.20	38967.58
649.34	39058.86
649.49	38274.78
649.63	38576.71
649.78	38462.02
649.92	38218.61
650.07	39058.86
650.21	38328.61
650.36	38295.85
650.51	38370.74
650.65	38415.21
650.80	38616.50
650.94	38906.73
651.09	38284.14
651.23	38171.80
651.38	38043.07
651.52	38059.45
651.67	38408.19
651.81	38220.95
651.96	37951.79
652.10	38045.41
652.25	37734.12
652.39	37996.26
652.54	38120.31
652.68	38401.17
652.83	37783.27
652.97	38293.50
653.12	37942.42
653.26	38052.43
653.41	37977.53
653.55	37408.78
653.70	37801.99
653.84	37813.70
653.99	37556.24
654.13	38085.20
654.27	37996.26
654.42	37514.11
654.56	37502.40
654.71	38043.07
654.85	37574.96
655.00	37572.62
655.14	37308.14
655.29	37251.97
655.43	37287.07
655.57	37275.37
655.72	37024.93
655.86	37076.43
656.01	37097.49
656.15	36858.76
656.30	37088.13
656.44	37130.26
656.58	36833.01
656.73	37046.00
656.87	37097.49
657.01	37069.40
657.16	37249.63
657.30	36662.15
657.45	36339.16
657.59	36917.27
657.73	36610.66
657.88	37251.97
658.02	36519.38
658.16	36671.51
658.31	36973.44
658.45	37053.02
658.60	36605.98
658.74	36900.89
658.88	37137.28
659.03	36669.17
659.17	36613.00
659.31	36259.58
659.46	36411.71
659.60	36182.34
659.74	36177.66
659.89	36112.13
660.03	36254.90
660.17	36666.83
660.32	36306.39
660.46	36671.51
660.60	36517.04
660.74	36215.11
660.89	36292.35
661.03	35751.68
661.17	36009.14
661.32	35625.29
661.46	35718.92
661.60	35730.62
661.74	35634.66
661.89	36060.63
662.03	35702.53
662.17	35793.81
662.31	35711.89
662.46	35697.85
662.60	35976.37
662.74	35409.96
662.88	35913.18
663.03	35449.75
663.17	35498.91
663.31	35402.94
663.45	35576.14
663.60	35332.73
663.74	35154.85
663.88	35049.52
664.02	34927.81
664.17	35447.41
664.31	34686.74
664.45	34752.27
664.59	34541.63
664.73	34946.54
664.88	35037.82
665.02	34333.32
665.16	34630.57
665.30	34735.89
665.44	34740.57
665.59	34223.31
665.73	34040.75
665.87	34382.47
666.01	34387.15
666.15	34560.35
666.29	34668.02
666.44	34597.80
666.58	34211.61
666.72	34501.84
666.86	34256.08
667.00	34188.21
667.14	33816.06
667.28	33926.07
667.43	33724.78
667.57	33846.49
667.71	33708.40
667.85	34017.35
667.99	33720.10
668.13	33507.11
668.27	33453.28
668.41	33542.22
668.56	33769.25
668.70	33237.95
668.84	33453.28
668.98	32936.02
669.12	33310.50
669.26	32914.95
669.40	32954.74
669.54	33205.18
669.68	32980.49
669.82	33069.43
669.96	32655.15
670.10	32694.94
670.25	32746.44
670.39	32748.78
670.53	33525.83
670.67	32180.03
670.81	32655.15
670.95	33104.54
671.09	32753.46
671.23	32914.95
671.37	32355.57
671.51	32587.28
671.65	32261.94
671.79	32212.79
671.93	32217.47
672.07	32627.07
672.21	32058.32
672.35	32121.51
672.49	32025.55
672.63	32154.28
672.77	31988.10
672.91	31559.78
673.05	31901.50
673.19	31510.63
673.33	31592.55
673.47	31550.42
673.61	31236.79
673.75	31409.99
673.89	31335.09
674.03	30953.58
674.17	31096.36
674.31	30897.41
674.45	30899.75
674.59	30714.85
674.73	30827.20
674.87	30574.42
675.01	31115.08
675.15	31236.79
675.29	31108.06
675.43	30307.60
675.56	30347.39
675.70	30656.34
675.84	30368.45
675.98	29326.91
676.12	30057.16
676.26	29940.13
676.40	29881.62
676.54	29923.75
676.68	29692.04
676.82	29546.92
676.96	29771.61
677.10	29076.48
677.23	29355.00
677.37	29563.31
677.51	29720.12
677.65	29151.37
677.79	28882.21
677.93	29097.54
678.07	28994.56
678.21	28701.99
678.34	29104.56
678.48	28964.13
678.62	28741.78
678.76	28322.82
678.90	28364.95
679.04	28259.63
679.18	28376.66
679.31	27892.16
679.45	27864.08
679.59	28212.82
679.73	28130.90
679.87	27786.84
680.00	27791.52
680.14	27852.38
680.28	27843.01
680.42	27550.45
680.56	27585.55
680.70	27351.50
680.83	27356.18
680.97	26820.20
681.11	26862.33
681.25	27091.70
681.39	27014.46
681.52	26761.69
681.66	27009.78
681.80	26820.20
681.94	26567.42
682.07	26747.64
682.21	26740.62
682.35	26356.77
682.49	26293.58
682.62	26476.14
682.76	25970.58
682.90	26115.70
683.04	25949.52
683.17	26298.26
683.31	25916.75
683.45	25757.60
683.59	25902.71
683.72	25408.86
683.86	25268.42
684.00	25422.90
684.13	25680.36
684.27	25364.39
684.41	25193.53
684.55	25202.89
684.68	25106.93
684.82	24561.58
684.96	25013.31
685.09	24713.72
685.23	24971.18
685.37	24362.64
685.50	24690.31
685.64	24451.58
685.78	24088.79
685.91	24299.44
686.05	24182.42
686.19	23831.33
686.32	23866.44
686.46	23693.24
686.60	23396.00
686.73	23826.65
686.87	23440.47
687.01	23356.21
687.14	23311.74
687.28	23089.38
687.42	22958.31
687.55	22764.05
687.69	22918.53
687.82	23005.13
687.96	23061.30
688.10	22647.02
688.23	22497.23
688.37	22443.40
688.50	22155.51
688.64	22335.73
688.78	22415.31
688.91	22171.89
689.05	22167.21
689.18	22143.81
689.32	21717.83
689.46	21947.20
689.59	21965.93
689.73	22326.37
689.86	21659.32
690.00	21591.44
690.13	21656.98
690.27	21378.45
690.41	21436.97
690.54	21284.83
690.68	21282.49
690.81	21092.91
690.95	20931.41
691.08	20957.16
691.22	21034.39
691.35	20989.92
691.49	20940.77
691.62	21085.89
691.76	20671.61
691.89	20805.02
692.03	20952.48
692.16	20425.86
692.30	20411.81
692.43	20442.24
692.57	19824.34
692.70	20271.38
692.84	20100.52
692.97	19761.14
693.11	19625.39
693.24	19885.19
693.38	19674.54
693.51	19693.27
693.65	19639.44
693.78	19587.94
693.92	19286.01
694.05	19541.13
694.19	19302.40
694.32	19297.72
694.45	19314.10
694.59	19110.47
694.72	18958.34
694.86	18871.74
694.99	18457.46
695.13	18658.75
695.26	18696.20
695.39	18338.10
695.53	18581.51
695.66	18752.37
695.80	18389.59
695.93	18195.32
696.07	18134.47
696.20	18190.64
696.33	18202.35
696.47	18143.83
696.60	17661.68
696.73	17987.02
696.87	17708.49
697.00	17727.22
697.14	17474.44
697.27	17668.70
697.40	17612.53
697.54	17514.23
697.67	17322.30
697.80	17364.43
697.94	17242.73
698.07	17125.70
698.21	17172.51
698.34	17275.49
698.47	17092.93
698.61	16861.22
698.74	16636.53
698.87	16987.61
699.01	16545.25
699.14	16149.70
699.27	16285.45
699.40	16362.69
699.54	16203.53
699.67	16231.62
699.80	16044.37
699.94	16067.78
700.07	16212.89
700.20	16191.83
700.34	15740.10
700.47	15894.58
700.60	15700.31
700.73	15939.05
700.87	15817.34
701.00	15524.77
701.13	15358.60
701.26	15927.35
701.40	15651.16
701.53	15201.78
701.66	15215.82
701.79	15002.83
701.93	15080.07
702.06	15042.62
702.19	14883.47
702.32	14827.29
702.46	14806.23
702.59	14883.47
702.72	15012.20
702.85	14902.19
702.99	14710.27
703.12	14892.83
703.25	14686.86
703.38	14408.34
703.51	14223.44
703.65	14370.89
703.78	14288.97
703.91	14288.97
704.04	14178.97
704.17	14019.81
704.31	14022.15
704.44	13591.49
704.57	13715.54
704.70	13661.71
704.83	13540.00
704.96	13994.06
705.10	13628.94
705.23	13624.26
>>>>>End Processed Spectral Data<<<<<
