SpectraSuite Data File
++++++++++++++++++++++++++++++++++++
Date: Fri Oct 25 11:33:58 EDT 2013
User: price-jones
Dark Spectrum Present: No
Reference Spectrum Present: No
Number of Sampled Component Spectra: 1
Spectrometers: USB2+H05261
Integration Time (usec): 100000 (USB2+H05261)
Spectra Averaged: 1 (USB2+H05261)
Boxcar Smoothing: 0 (USB2+H05261)
Correct for Electrical Dark: No (USB2+H05261)
Strobe/Lamp Enabled: No (USB2+H05261)
Correct for Detector Non-linearity: No (USB2+H05261)
Correct for Stray Light: No (USB2+H05261)
Number of Pixels in Processed Spectrum: 2048
>>>>>Begin Processed Spectral Data<<<<<
365.73	266.82
365.92	266.82
366.12	266.82
366.32	241.08
366.52	142.77
366.72	238.73
366.91	163.84
367.11	163.84
367.31	159.16
367.51	163.84
367.70	119.37
367.90	184.90
368.10	191.92
368.30	191.92
368.49	135.75
368.69	241.08
368.89	191.92
369.09	194.26
369.28	248.10
369.48	215.33
369.68	215.33
369.87	212.99
370.07	241.08
370.27	255.12
370.47	351.08
370.66	383.85
370.86	449.38
371.06	503.22
371.25	608.54
371.45	524.28
371.65	587.47
371.84	540.66
372.04	475.13
372.24	599.18
372.44	601.52
372.63	629.60
372.83	531.30
373.03	608.54
373.22	596.84
373.42	676.41
373.62	629.60
373.81	655.35
374.01	596.84
374.21	676.41
374.40	667.05
374.60	648.33
374.79	674.07
374.99	667.05
375.19	674.07
375.38	685.78
375.58	667.05
375.78	706.84
375.97	685.78
376.17	727.91
376.37	723.23
376.56	683.44
376.76	676.41
376.95	737.27
377.15	702.16
377.35	662.37
377.54	692.80
377.74	695.14
377.93	739.61
378.13	706.84
378.33	706.84
378.52	690.46
378.72	791.10
378.91	781.74
379.11	695.14
379.31	734.93
379.50	732.59
379.70	760.67
379.89	784.08
380.09	777.06
380.28	713.86
380.48	662.37
380.68	723.23
380.87	676.41
381.07	690.46
381.26	725.57
381.46	727.91
381.65	716.20
381.85	699.82
382.04	870.68
382.24	755.99
382.43	840.25
382.63	826.21
382.83	746.63
383.02	847.27
383.22	854.30
383.41	765.36
383.61	763.01
383.80	784.08
384.00	830.89
384.19	816.85
384.39	908.13
384.58	788.76
384.78	844.93
384.97	786.42
385.17	854.30
385.36	842.59
385.56	816.85
385.75	823.87
385.95	814.51
386.14	889.40
386.34	856.64
386.53	802.80
386.72	917.49
386.92	873.02
387.11	844.93
387.31	1015.79
387.50	870.68
387.70	971.32
387.89	915.15
388.09	854.30
388.28	884.72
388.48	826.21
388.67	880.04
388.86	940.90
389.06	924.51
389.25	1018.13
389.45	809.83
389.64	866.00
389.84	973.66
390.03	980.68
390.22	954.94
390.42	1004.09
390.61	896.43
390.81	1050.90
391.00	1022.81
391.19	936.21
391.39	931.53
391.58	997.07
391.78	966.64
391.97	952.60
392.16	990.05
392.36	1057.92
392.55	1083.67
392.75	1057.92
392.94	1046.22
393.13	952.60
393.33	1067.28
393.52	1109.41
393.71	1074.31
393.91	1128.14
394.10	1060.26
394.29	1039.20
394.49	1109.41
394.68	1111.75
394.88	1055.58
395.07	1128.14
395.26	1174.95
395.46	1165.59
395.65	1174.95
395.84	1125.80
396.04	1146.86
396.23	1191.33
396.42	1135.16
396.62	1287.29
396.81	1247.51
397.00	1097.71
397.19	1233.46
397.39	1266.23
397.58	1273.25
397.77	1256.87
397.97	1299.00
398.16	1242.82
398.35	1261.55
398.55	1284.95
398.74	1284.95
398.93	1273.25
399.12	1252.19
399.32	1289.64
399.51	1329.42
399.70	1437.09
399.90	1259.21
400.09	1345.81
400.28	1390.28
400.47	1364.53
400.67	1315.38
400.86	1390.28
401.05	1439.43
401.24	1385.60
401.44	1366.87
401.63	1394.96
401.82	1437.09
402.01	1460.49
402.21	1465.18
402.40	1504.96
402.59	1514.33
402.78	1514.33
402.97	1401.98
403.17	1390.28
403.36	1579.86
403.55	1472.20
403.74	1511.99
403.93	1544.75
404.13	1643.06
404.32	1533.05
404.51	1612.63
404.70	1596.25
404.89	1617.31
405.09	1722.63
405.28	1549.43
405.47	1792.85
405.66	1643.06
405.85	1734.34
406.05	1699.23
406.24	1713.27
406.43	1799.87
406.62	1851.36
406.81	1837.32
407.00	1781.15
407.20	1778.81
407.39	1774.13
407.58	1846.68
407.77	1886.47
407.96	1900.52
408.15	1865.41
408.34	1870.09
408.54	1944.99
408.73	1820.94
408.92	1825.62
409.11	1902.86
409.30	1930.94
409.49	1961.37
409.68	1970.73
409.87	1989.46
410.07	2101.80
410.26	2015.20
410.45	2052.65
410.64	2085.42
410.83	2045.63
411.02	2019.88
411.21	2115.84
411.40	2066.69
411.59	2132.23
411.78	2120.53
411.98	2225.85
412.17	2216.49
412.36	2284.36
412.55	2181.38
412.74	2265.64
412.93	2335.85
413.12	2377.98
413.31	2356.92
413.50	2443.52
413.69	2359.26
413.88	2466.92
414.07	2490.33
414.26	2492.67
414.45	2452.88
414.64	2511.39
414.83	2530.12
415.02	2593.31
415.22	2574.59
415.41	2619.06
415.60	2579.27
415.79	2609.70
415.98	2700.98
416.17	2715.02
416.36	2619.06
416.55	2740.77
416.74	2764.17
416.93	2803.96
417.12	2803.96
417.31	2883.54
417.50	2813.32
417.69	2939.71
417.88	2913.97
418.07	2806.30
418.26	2923.33
418.45	2911.63
418.64	3045.04
418.83	2993.55
419.02	3002.91
419.21	2988.86
419.39	3019.29
419.58	3019.29
419.77	2923.33
419.96	2998.23
420.15	3262.71
420.34	3194.83
420.53	3014.61
420.72	3199.51
420.91	3269.73
421.10	3204.19
421.29	3358.67
421.48	3246.32
421.67	3335.26
421.86	3267.39
422.05	3403.14
422.24	3445.27
422.43	3323.56
422.61	3405.48
422.80	3243.98
422.99	3316.54
423.18	3410.16
423.37	3513.14
423.56	3368.03
423.75	3337.60
423.94	3290.79
424.13	3117.59
424.32	3293.13
424.50	3447.61
424.69	3480.38
424.88	3531.87
425.07	3370.37
425.26	3321.22
425.45	3396.12
425.64	3358.67
425.83	3419.52
426.01	3499.10
426.20	3527.19
426.39	3461.65
426.58	3391.44
426.77	3445.27
426.96	3550.59
427.15	3522.51
427.33	3552.93
427.52	3487.40
427.71	3536.55
427.90	3590.38
428.09	3559.95
428.28	3754.22
428.46	3627.83
428.65	3583.36
428.84	3707.41
429.03	3777.62
429.22	3634.85
429.40	3646.55
429.59	3772.94
429.78	3559.95
429.97	3515.48
430.16	3721.45
430.34	3721.45
430.53	3822.09
430.72	3859.54
430.91	3904.01
431.10	3707.41
431.28	4021.04
431.47	3995.29
431.66	3936.78
431.85	3854.86
432.03	4030.40
432.22	4060.83
432.41	3927.42
432.60	4067.85
432.79	4180.20
432.97	4119.34
433.16	3969.55
433.35	4095.94
433.54	4154.45
433.72	4170.83
433.91	4219.99
434.10	4170.83
434.28	4236.37
434.47	4236.37
434.66	4266.80
434.85	4320.63
435.03	4351.06
435.22	4287.86
435.41	4294.88
435.59	4259.78
435.78	4381.48
435.97	4283.18
436.16	4360.42
436.34	4437.66
436.53	4383.82
436.72	4662.35
436.90	4407.23
437.09	4559.36
437.28	4325.31
437.46	4421.27
437.65	4463.40
437.84	4545.32
438.02	4582.77
438.21	4594.47
438.40	4369.78
438.58	4681.07
438.77	4760.65
438.96	4685.75
439.14	4798.10
439.33	4678.73
439.52	4861.29
439.70	4739.58
439.89	5167.90
440.08	5018.11
440.26	5078.96
440.45	5060.24
440.63	5071.94
440.82	5174.92
441.01	5057.90
441.19	5128.11
441.38	5221.74
441.57	5268.55
441.75	5088.32
441.94	5401.96
442.12	5317.70
442.31	5219.39
442.50	5446.43
442.68	5336.42
442.87	5198.33
443.05	5408.98
443.24	5514.30
443.43	5408.98
443.61	5526.00
443.80	5703.89
443.98	5401.96
444.17	5280.25
444.35	5685.16
444.54	5633.67
444.73	5535.37
444.91	5488.56
445.10	5563.45
445.28	5490.90
445.47	5748.36
445.65	5572.82
445.84	5753.04
446.02	5687.50
446.21	5727.29
446.39	5659.42
446.58	5638.35
446.77	5755.38
446.95	5607.92
447.14	5811.55
447.32	5636.01
447.51	5774.10
447.69	5603.24
447.88	5673.46
448.06	5813.89
448.25	5844.32
448.43	5834.96
448.62	5792.83
448.80	5682.82
448.99	5891.13
449.17	5912.19
449.36	5769.42
449.54	5905.17
449.73	6064.33
449.91	5937.94
450.10	5881.77
450.28	6033.90
450.46	6125.18
450.65	6193.06
450.83	6118.16
451.02	6115.82
451.20	6076.03
451.39	6148.59
451.57	6169.65
451.76	6279.66
451.94	6029.22
452.13	6235.19
452.31	6160.29
452.49	6120.50
452.68	6305.40
452.86	6059.65
453.05	6595.63
453.23	6490.31
453.42	6232.85
453.60	6190.72
453.78	6530.09
453.97	6324.13
454.15	6396.68
454.34	6370.94
454.52	6476.26
454.70	6415.41
454.89	6525.41
455.07	6469.24
455.26	6387.32
455.44	6719.68
455.62	6614.35
455.81	6731.38
455.99	6825.00
456.17	6560.52
456.36	6719.68
456.54	6644.78
456.73	6808.62
456.91	6881.18
457.09	7009.90
457.28	7080.12
457.46	6862.45
457.64	7087.14
457.83	7105.87
458.01	6974.80
458.19	7192.47
458.38	7091.82
458.56	7229.91
458.74	7201.83
458.93	7073.10
459.11	7087.14
459.29	7199.49
459.48	7026.29
459.66	7171.40
459.84	7461.63
460.03	7524.82
460.21	7302.47
460.39	7194.81
460.57	7295.45
460.76	7393.75
460.94	7517.80
461.12	7449.93
461.31	7543.55
461.49	7473.33
461.67	7412.48
461.85	7524.82
462.04	7613.76
462.22	7826.75
462.40	7723.77
462.59	7714.41
462.77	7585.68
462.95	7658.23
463.13	7829.09
463.32	7873.56
463.50	7730.79
463.68	7864.20
463.86	7810.37
464.05	7880.58
464.23	7864.20
464.41	7950.80
464.59	7686.32
464.78	7960.16
464.96	7929.74
465.14	8013.99
465.32	7953.14
465.50	8121.66
465.69	7967.18
465.87	8142.72
466.05	8074.85
466.23	8021.02
466.41	8002.29
466.60	8224.64
466.78	8072.51
466.96	8109.96
467.14	8149.75
467.32	8304.22
467.51	8301.88
467.69	8053.78
467.87	8175.49
468.05	8313.58
468.23	8217.62
468.41	8278.47
468.60	8423.59
468.78	8477.42
468.96	8498.49
469.14	8435.29
469.32	8498.49
469.50	8521.89
469.69	8615.51
469.87	8596.79
470.05	8617.85
470.23	8725.52
470.41	8769.99
470.59	8819.14
470.77	8765.31
470.95	8648.28
471.14	9020.42
471.32	8814.46
471.50	8863.61
471.68	9001.70
471.86	9177.24
472.04	9071.92
472.22	9226.39
472.40	8908.08
472.58	9085.96
472.77	9345.76
472.95	9233.41
473.13	9565.77
473.31	9090.64
473.49	9448.74
473.67	9504.92
473.85	9502.58
474.03	9727.27
474.21	9738.97
474.39	9734.29
474.57	9554.07
474.75	9685.14
474.93	9844.29
475.12	9687.48
475.30	9870.04
475.48	9818.55
475.66	10085.37
475.84	9994.09
476.02	10186.01
476.20	9928.55
476.38	10434.11
476.56	10382.62
476.74	10555.82
476.92	10574.54
477.10	10375.59
477.28	10516.03
477.46	10621.35
477.64	10686.89
477.82	11061.37
478.00	11173.72
478.18	10820.30
478.36	11052.01
478.54	11274.36
478.72	11098.82
478.90	11440.54
479.08	11487.35
479.26	11658.21
479.44	11438.20
479.62	11714.38
479.80	11819.71
479.98	11932.05
480.16	12095.89
480.34	12231.64
480.52	12442.29
480.70	12264.41
480.88	11925.03
481.06	12184.83
481.24	12233.98
481.41	12390.80
481.59	12629.53
481.77	12849.54
481.95	12578.04
482.13	13013.38
482.31	12833.16
482.49	13294.24
482.67	13221.69
482.85	13355.10
483.03	13319.99
483.21	13689.79
483.39	13748.31
483.57	13771.71
483.74	13809.16
483.92	14033.85
484.10	14029.17
484.28	14317.06
484.46	14373.23
484.64	14541.75
484.82	14480.89
485.00	14628.35
485.18	14712.61
485.35	15194.76
485.53	14738.35
485.71	14736.01
485.89	15279.02
486.07	15138.58
486.25	15461.58
486.43	15611.37
486.61	15693.29
486.78	15681.59
486.96	15838.41
487.14	16067.78
487.32	16027.99
487.50	16135.65
487.68	16329.92
487.85	16416.52
488.03	16486.73
488.21	16821.43
488.39	16840.15
488.57	17064.85
488.75	16999.31
488.92	17383.16
489.10	17418.27
489.28	17589.13
489.46	17752.96
489.64	17518.91
489.81	17935.53
489.99	17804.46
490.17	18101.70
490.35	18253.84
490.53	18129.79
490.70	18396.61
490.88	18359.16
491.06	18572.15
491.24	18806.20
491.41	18857.70
491.59	18782.80
491.77	19084.73
491.95	19178.35
492.13	19562.20
492.30	19601.99
492.48	19807.95
492.66	19407.72
492.84	19707.31
493.01	19868.81
493.19	19763.48
493.37	20184.78
493.54	20280.74
493.72	20290.10
493.90	20390.75
494.08	20400.11
494.25	20533.52
494.43	20720.76
494.61	20608.42
494.79	20987.58
494.96	20985.24
495.14	21254.40
495.32	21785.71
495.49	21315.26
495.67	21486.12
495.85	21645.27
496.02	22019.76
496.20	22211.68
496.38	22284.24
496.55	22162.53
496.73	22895.12
496.91	22464.46
497.09	22576.81
497.26	22824.90
497.44	22796.82
497.62	22897.46
497.79	23274.29
497.97	22993.42
498.14	23433.44
498.32	23494.30
498.50	23295.35
498.67	23934.32
498.85	23833.68
499.03	23852.40
499.20	23754.10
499.38	24159.01
499.56	24114.54
499.73	24343.91
499.91	24308.80
500.08	24669.25
500.26	24507.75
500.44	24673.93
500.61	24526.47
500.79	24697.33
500.97	25462.69
501.14	25039.05
501.32	25069.48
501.49	25254.38
501.67	25329.28
501.84	25193.53
502.02	25422.90
502.20	25413.54
502.37	25874.62
502.55	25654.61
502.72	25362.04
502.90	25465.03
503.07	25560.99
503.25	25507.16
503.43	25881.64
503.60	26223.36
503.78	26305.28
503.95	26209.32
504.13	26560.40
504.30	26146.12
504.48	26497.20
504.65	26749.98
504.83	26735.94
505.01	26677.43
505.18	26906.80
505.36	27225.11
505.53	26904.46
505.71	27175.96
505.88	27300.01
506.06	27065.96
506.23	27555.13
506.41	27187.66
506.58	27704.92
506.76	27573.85
506.93	28102.81
507.11	27564.49
507.28	27681.52
507.46	27585.55
507.63	28056.00
507.81	28451.55
507.98	28032.60
508.16	28425.81
508.33	28496.02
508.50	28458.57
508.68	28685.61
508.85	28833.06
509.03	28521.77
509.20	28709.01
509.38	29118.60
509.55	29476.71
509.73	29137.33
509.90	29127.97
510.08	29034.35
510.25	29247.33
510.42	29809.06
510.60	29275.42
510.77	29582.03
510.95	29977.58
511.12	29893.32
511.30	29797.36
511.47	29954.18
511.64	29340.96
511.82	30169.51
511.99	29699.06
512.17	29692.04
512.34	30682.08
512.51	30590.80
512.69	30543.99
512.86	30412.92
513.04	30939.54
513.21	30349.73
513.38	30656.34
513.56	30642.29
513.73	30848.26
513.90	31037.84
514.08	30850.60
514.25	31147.85
514.43	30965.29
514.60	31412.33
514.77	31346.79
514.95	31367.86
515.12	31171.25
515.29	31297.64
515.47	31796.18
515.64	31536.38
515.81	31807.88
515.99	32039.59
516.16	31796.18
516.33	32027.89
516.51	32149.60
516.68	31948.31
516.85	32320.46
517.03	32327.48
517.20	32758.14
517.37	32383.65
517.54	32528.77
517.72	32627.07
517.89	32404.72
518.06	32357.91
518.24	32861.12
518.41	32706.65
518.58	32966.45
518.75	33008.58
518.93	33041.34
519.10	33156.03
519.27	33453.28
519.45	33216.88
519.62	33167.73
519.79	33574.98
519.96	33544.56
520.14	33495.41
520.31	33338.59
520.48	33893.30
520.65	34167.14
520.83	34064.16
521.00	34036.07
521.17	33795.00
521.34	33848.83
521.52	34073.52
521.69	33897.98
521.86	34323.96
522.03	34274.80
522.20	34710.14
522.38	34787.38
522.55	34885.68
522.72	34745.25
522.89	34787.38
523.07	35033.14
523.24	35044.84
523.41	35187.61
523.58	34710.14
523.75	35093.99
523.92	34728.87
524.10	35229.74
524.27	35255.49
524.44	35482.52
524.61	35498.91
524.78	35618.27
524.96	35672.10
525.13	36011.48
525.30	35543.38
525.47	36261.92
525.64	35838.28
525.81	35615.93
525.98	36339.16
526.16	36472.57
526.33	36135.53
526.50	36648.11
526.67	35957.65
526.84	36175.32
527.01	35931.90
527.18	36332.14
527.36	36362.56
527.53	36329.80
527.70	37172.39
527.87	36542.78
528.04	36507.68
528.21	36758.11
528.38	36540.44
528.55	36800.24
528.72	37029.62
528.89	36950.04
529.07	36900.89
529.24	36634.06
529.41	36868.12
529.58	37088.13
529.75	37179.41
529.92	37289.42
530.09	37230.90
530.26	37446.23
530.43	37343.25
530.60	37181.75
530.77	37378.36
530.94	37687.31
531.11	37528.15
531.28	37900.29
531.46	37612.41
531.63	37970.51
531.80	37947.11
531.97	38061.79
532.14	38054.77
532.31	37853.48
532.48	38478.41
532.65	38384.79
532.82	37914.34
532.99	38445.64
533.16	38022.00
533.33	38433.94
533.50	38480.75
533.67	38368.40
533.84	38700.76
534.01	38794.38
534.18	38396.49
534.35	38866.94
534.52	38569.69
534.69	38808.42
534.86	39243.76
535.03	38925.45
535.20	39082.27
535.37	39009.71
535.54	39391.22
535.71	39070.56
535.88	39267.17
536.05	39332.70
536.22	39643.99
536.38	39423.98
536.55	39489.52
536.72	39285.89
536.89	39253.12
537.06	39292.91
537.23	39704.85
537.40	39456.75
537.57	39711.87
537.74	39154.82
537.91	40238.49
538.08	39866.34
538.25	39676.76
538.42	39313.98
538.59	39880.39
538.75	39894.43
538.92	40231.47
539.09	40582.55
539.26	39875.71
539.43	40313.39
539.60	40170.61
539.77	40395.31
539.94	40332.11
540.11	40687.87
540.28	40278.28
540.44	40783.83
540.61	40149.55
540.78	40009.12
540.95	40411.69
541.12	40762.77
541.29	40648.08
541.46	40601.27
541.62	40825.96
541.79	41043.63
541.96	40318.07
542.13	40641.06
542.30	40746.39
542.47	41235.56
542.63	41200.45
542.80	41486.00
542.97	41277.69
543.14	41621.75
543.31	41535.15
543.48	41233.22
543.64	41895.59
543.81	41448.55
543.98	41659.20
544.15	41247.26
544.32	41722.39
544.48	41865.16
544.65	41832.39
544.82	41993.89
544.99	41425.14
545.16	41638.13
545.32	42183.48
545.49	42131.98
545.66	42043.04
545.83	42082.83
546.00	42237.31
546.16	42260.71
546.33	41951.76
546.50	42216.24
546.67	42501.79
546.83	42239.65
547.00	42359.02
547.17	42611.79
547.34	41935.38
547.50	42457.32
547.67	42635.20
547.84	42153.05
548.00	42831.80
548.17	43012.02
548.34	42749.88
548.51	43061.18
548.67	42712.44
548.84	42595.41
549.01	42866.91
549.18	42784.99
549.34	43028.41
549.51	43145.44
549.68	43433.32
549.84	43182.88
550.01	43299.91
550.18	42742.86
550.34	43461.41
550.51	43100.97
550.68	43276.51
550.84	43002.66
551.01	43229.69
551.18	42983.94
551.34	43360.76
551.51	43536.30
551.68	43400.55
551.84	43545.67
552.01	43187.56
552.18	43564.39
552.34	43438.00
552.51	44107.40
552.68	43452.05
552.84	43643.97
553.01	43950.58
553.18	43854.62
553.34	43943.56
553.51	43566.73
553.67	43803.13
553.84	44074.63
554.01	44086.33
554.17	43779.72
554.34	44100.37
554.51	44254.85
554.67	44549.76
554.84	44219.74
555.00	44252.51
555.17	44334.43
555.33	44573.16
555.50	44079.31
555.67	43983.35
555.83	44172.93
556.00	44655.08
556.16	44947.65
556.33	44392.94
556.50	44275.91
556.66	44294.64
556.83	44772.11
556.99	44673.81
557.16	44804.88
557.32	44945.31
557.49	44989.78
557.65	44343.79
557.82	44671.46
557.98	44540.39
558.15	44423.37
558.32	44746.36
558.48	44531.03
558.65	45071.70
558.81	44584.86
558.98	44774.45
559.14	44458.48
559.31	44844.66
559.47	45074.04
559.64	44978.07
559.80	44863.39
559.97	45062.33
560.13	44720.62
560.30	44783.81
560.46	45392.35
560.63	45350.22
560.79	45478.95
560.96	45745.77
561.12	45317.45
561.29	45350.22
561.45	45195.74
561.61	45385.33
561.78	45556.19
561.94	45223.83
562.11	45216.81
562.27	45263.62
562.44	45020.20
562.60	45390.01
562.77	45329.16
562.93	45511.72
563.10	45713.00
563.26	45448.52
563.42	45577.25
563.59	45228.51
563.75	45610.02
563.92	45689.60
564.08	45237.87
564.24	45947.06
564.41	45677.90
564.57	45815.99
564.74	45837.05
564.90	45694.28
565.07	45610.02
565.23	45450.86
565.39	45397.03
565.56	45972.80
565.72	45577.25
565.88	45876.84
566.05	45804.28
566.21	46162.39
566.38	45815.99
566.54	45787.90
566.70	46103.87
566.87	46209.20
567.03	45635.77
567.19	45979.82
567.36	45497.67
567.52	45713.00
567.68	46234.94
567.85	46237.28
568.01	45963.44
568.17	45666.19
568.34	46113.23
568.50	46330.90
568.66	45549.17
568.83	46157.70
568.99	46286.43
569.15	45963.44
569.32	45619.38
569.48	46064.08
569.64	46569.64
569.81	46356.65
569.97	45745.77
570.13	46368.35
570.30	46019.61
570.46	46120.26
570.62	46621.13
570.78	46115.58
570.95	46094.51
571.11	46459.63
571.27	46305.16
571.43	46127.28
571.60	45904.93
571.76	46005.57
571.92	46267.71
572.09	46335.59
572.25	46202.18
572.41	46185.79
572.57	46492.40
572.74	46522.83
572.90	46265.37
573.06	46553.26
573.22	46106.21
573.38	46691.35
573.55	46747.52
573.71	46810.71
573.87	46579.00
574.03	46555.60
574.20	46314.52
574.36	46799.01
574.52	46684.33
574.68	46724.11
574.84	46752.20
575.01	46728.80
575.17	46672.62
575.33	46803.69
575.49	46232.60
575.65	46667.94
575.82	46639.86
575.98	46153.02
576.14	46705.39
576.30	46763.90
576.46	47021.36
576.62	46869.23
576.79	46663.26
576.95	46363.67
577.11	46501.76
577.27	46387.08
577.43	46806.03
577.59	46394.10
577.75	46454.95
577.92	46190.47
578.08	46625.81
578.24	46997.96
578.40	46899.65
578.56	47084.56
578.72	46689.01
578.88	46775.61
579.04	46426.87
579.21	46309.84
579.37	46944.12
579.53	46548.57
579.69	46745.18
579.85	46614.11
580.01	46485.38
580.17	46305.16
580.33	46670.28
580.49	46794.33
580.65	46909.02
580.82	46625.81
580.98	46600.07
581.14	46672.62
581.30	46803.69
581.46	46270.05
581.62	46838.80
581.78	46361.33
581.94	46988.60
582.10	46593.04
582.26	47107.96
582.42	46955.83
582.58	46841.14
582.74	46972.21
582.90	46759.22
583.06	46876.25
583.22	46855.18
583.38	46560.28
583.54	46831.78
583.70	46766.24
583.86	46911.36
584.02	46782.63
584.18	47220.31
584.34	46887.95
584.50	47016.68
584.66	47138.39
584.82	46817.74
584.98	47735.23
585.14	46916.04
585.30	46906.68
585.46	46756.88
585.62	46967.53
585.78	47292.86
585.94	46714.75
586.10	46373.03
586.26	47056.47
586.42	47004.98
586.58	46777.95
586.74	47019.02
586.90	46927.74
587.06	47145.41
587.22	47117.32
587.38	47124.35
587.54	47096.26
587.70	47512.88
587.86	47339.68
588.02	47056.47
588.18	46864.55
588.34	47107.96
588.49	47028.38
588.65	46829.44
588.81	46696.03
588.97	47449.68
589.13	46747.52
589.29	47007.32
589.45	47236.69
589.61	47196.90
589.77	47236.69
589.93	47400.53
590.08	47414.57
590.24	47400.53
590.40	47501.17
590.56	47391.17
590.72	47796.08
590.88	47082.22
591.04	46824.76
591.20	48041.84
591.35	47683.73
591.51	47847.57
591.67	47679.05
591.83	47625.22
591.99	47721.18
592.15	47398.19
592.31	47180.52
592.46	47114.98
592.62	47269.46
592.78	47318.61
592.94	47929.49
593.10	47536.28
593.26	47437.98
593.41	47674.37
593.57	47531.60
593.73	47763.31
593.89	47906.08
594.05	47882.68
594.20	47363.08
594.36	48074.60
594.52	47606.50
594.68	47557.35
594.84	47622.88
594.99	47625.22
595.15	47515.22
595.31	47870.98
595.47	47344.36
595.62	47798.42
595.78	47264.78
595.94	47863.96
596.10	48060.56
596.25	47814.80
596.41	47798.42
596.57	47735.23
596.73	47938.85
596.88	48114.39
597.04	47870.98
597.20	47915.45
597.36	47976.30
597.51	47908.43
597.67	47948.21
597.83	47742.25
597.99	48030.13
598.14	47657.99
598.30	48112.05
598.46	48023.11
598.61	48259.51
598.77	47990.34
598.93	48006.73
599.09	47735.23
599.24	47922.47
599.40	47882.68
599.56	48135.46
599.71	47941.19
599.87	48442.07
600.03	48231.42
600.18	47686.07
600.34	47803.10
600.50	47796.08
600.65	48034.81
600.81	47985.66
600.97	48275.89
601.12	48292.27
601.28	48247.80
601.44	47772.67
601.59	48060.56
601.75	47950.56
601.91	48065.24
602.06	47697.78
602.22	47931.83
602.37	47632.24
602.53	48065.24
602.69	47990.34
602.84	47732.89
603.00	47863.96
603.16	47725.86
603.31	47992.68
603.47	48355.47
603.62	47990.34
603.78	48142.48
603.94	47533.94
604.09	48158.86
604.25	47538.62
604.40	47482.45
604.56	47695.44
604.71	48273.55
604.87	47835.87
605.03	47831.19
605.18	47461.38
605.34	48107.37
605.49	47777.36
605.65	47779.70
605.80	47613.52
605.96	47585.43
606.12	47653.31
606.27	47585.43
606.43	47873.32
606.58	47700.12
606.74	47737.57
606.89	47711.82
607.05	48081.63
607.20	47562.03
607.36	47966.94
607.51	47751.61
607.67	47611.18
607.82	47611.18
607.98	47690.76
608.13	47669.69
608.29	47531.60
608.44	48163.54
608.60	47735.23
608.75	47576.07
608.91	47552.66
609.06	46997.96
609.22	47540.96
609.37	47379.46
609.53	47669.69
609.68	47840.55
609.84	47119.66
609.99	47449.68
610.15	47257.76
610.30	47751.61
610.46	47648.63
610.61	47409.89
610.76	47667.35
610.92	47498.83
611.07	47309.25
611.23	47388.83
611.38	47398.19
611.54	47482.45
611.69	47875.66
611.84	47456.70
612.00	47597.13
612.15	47334.99
612.31	47618.20
612.46	47292.86
612.62	47030.72
612.77	47246.05
612.92	47576.07
613.08	47227.33
613.23	47283.50
613.39	47150.09
613.54	47384.15
613.69	47634.58
613.85	47285.84
614.00	47103.28
614.15	47491.81
614.31	46930.08
614.46	46808.37
614.62	47124.35
614.77	47114.98
614.92	47615.86
615.08	46986.25
615.23	47260.10
615.38	47243.71
615.54	47459.04
615.69	47491.81
615.84	47082.22
616.00	47124.35
616.15	47175.84
616.30	47051.79
616.46	47063.49
616.61	47302.23
616.76	47318.61
616.92	47002.64
617.07	46490.06
617.22	46883.27
617.37	46358.99
617.53	46803.69
617.68	46354.31
617.83	46983.91
617.99	46946.47
618.14	47337.33
618.29	46843.48
618.45	46497.08
618.60	46220.90
618.75	46274.73
618.90	46728.80
619.06	46583.68
619.21	46623.47
619.36	46752.20
619.51	46410.48
619.67	46253.67
619.82	46571.98
619.97	47016.68
620.12	46941.78
620.28	46784.97
620.43	46696.03
620.58	46761.56
620.73	46728.80
620.89	46768.58
621.04	46337.93
621.19	46452.61
621.34	46096.85
621.49	46426.87
621.65	46499.42
621.80	47082.22
621.95	46141.32
622.10	46270.05
622.25	46089.83
622.41	46389.42
622.56	46085.15
622.71	46394.10
622.86	46174.09
623.01	46342.61
623.16	46223.24
623.32	46239.62
623.47	46447.93
623.62	46281.75
623.77	45949.40
623.92	46197.49
624.07	46213.88
624.23	46103.87
624.38	46454.95
624.53	45975.14
624.68	45897.91
624.83	46181.11
624.98	46045.36
625.13	45837.05
625.29	45626.40
625.44	45979.82
625.59	45387.67
625.74	46223.24
625.89	45478.95
626.04	45722.37
626.19	45993.87
626.34	45492.99
626.49	45375.97
626.65	45265.96
626.80	45755.13
626.95	44889.13
627.10	45464.91
627.25	45666.19
627.40	45610.02
627.55	45497.67
627.70	45633.42
627.85	45521.08
628.00	45193.40
628.15	45570.23
628.30	44933.60
628.45	45167.66
628.60	44919.56
628.76	45364.26
628.91	44931.26
629.06	44809.56
629.21	45062.33
629.36	45352.56
629.51	45303.41
629.66	45006.16
629.81	44898.50
629.96	45188.72
630.11	45102.12
630.26	44774.45
630.41	45111.49
630.56	44980.42
630.71	45200.43
630.86	44699.55
631.01	45008.50
631.16	44638.70
631.31	44760.40
631.46	44999.14
631.61	44982.76
631.76	45141.91
631.91	45024.89
632.06	44999.14
632.21	45184.04
632.36	44872.75
632.51	44439.75
632.66	44701.89
632.81	44463.16
632.96	44891.48
633.10	44383.58
633.25	44650.40
633.40	44786.15
633.55	44835.30
633.70	44767.43
633.85	44112.08
634.00	44737.00
634.15	44002.07
634.30	44437.41
634.45	44797.85
634.60	44264.21
634.75	44505.29
634.90	43868.66
635.05	44650.40
635.19	44041.86
635.34	44334.43
635.49	44500.61
635.64	44587.21
635.79	44140.16
635.94	44385.92
636.09	44322.72
636.24	44226.76
636.39	44102.71
636.53	44086.33
636.68	44013.77
636.83	43910.79
636.98	44205.70
637.13	43828.87
637.28	44011.43
637.43	43938.88
637.57	43737.59
637.72	43758.66
637.87	43732.91
638.02	43669.72
638.17	43901.43
638.32	43639.29
638.46	43648.65
638.61	43732.91
638.76	43306.93
638.91	43606.52
639.06	43746.95
639.20	43423.96
639.35	43384.17
639.50	43346.72
639.65	43325.66
639.80	43707.16
639.94	43531.62
640.09	43625.25
640.24	43505.88
640.39	42717.12
640.54	43276.51
640.68	43367.79
640.83	43676.74
640.98	43426.30
641.13	43044.79
641.27	43407.58
641.42	43295.23
641.57	43555.03
641.72	42946.49
641.86	43201.61
642.01	43110.33
642.16	42878.61
642.31	42237.31
642.45	43283.53
642.60	42880.95
642.75	42646.90
642.90	43220.33
643.04	43122.03
643.19	42927.77
643.34	42777.97
643.48	42813.08
643.63	42628.18
643.78	42782.65
643.93	42904.36
644.07	42871.59
644.22	42555.62
644.37	42639.88
644.51	43246.08
644.66	42368.38
644.81	42326.25
644.95	42827.12
645.10	42614.13
645.25	42522.85
645.39	42316.89
645.54	42431.57
645.69	42052.41
645.83	42356.67
645.98	42183.48
646.13	42712.44
646.27	42483.06
646.42	42239.65
646.57	42167.09
646.71	42164.75
646.86	42787.33
647.00	42286.46
647.15	42689.03
647.30	42356.67
647.44	42572.00
647.59	41937.72
647.74	42270.08
647.88	42291.14
648.03	42061.77
648.17	41933.04
648.32	42199.86
648.47	42438.59
648.61	42380.08
648.76	42342.63
648.90	42045.38
649.05	41963.46
649.20	42120.28
649.34	41862.82
649.49	41799.63
649.63	41806.65
649.78	42082.83
649.92	41937.72
650.07	42349.65
650.21	42204.54
650.36	42286.46
650.51	41935.38
650.65	41935.38
650.80	41933.04
650.94	41656.85
651.09	41752.82
651.23	41584.30
651.38	41560.89
651.52	41427.48
651.67	41230.88
651.81	41151.30
651.96	41394.71
652.10	41102.15
652.25	41450.89
652.39	41076.40
652.54	41296.41
652.68	41158.32
652.83	41387.69
652.97	41502.38
653.12	41371.31
653.26	41429.82
653.41	41003.85
653.55	40938.31
653.70	41675.58
653.84	41303.43
653.99	41677.92
654.13	41249.60
654.27	40879.80
654.42	40999.16
654.56	41113.85
654.71	41322.16
654.85	41109.17
655.00	40971.08
655.14	41256.62
655.29	41289.39
655.43	41661.54
655.57	40872.78
655.72	40568.51
655.86	40971.08
656.01	40957.03
656.15	40552.12
656.30	40514.67
656.44	40994.48
656.58	40781.49
656.73	41205.13
656.87	40753.41
657.01	40128.48
657.16	40605.95
657.30	40563.82
657.45	40357.86
657.59	40634.04
657.73	40172.96
657.88	40147.21
658.02	40746.39
658.16	40526.38
658.31	40065.29
658.45	40341.47
658.60	40149.55
658.74	40652.76
658.88	40446.80
659.03	40046.57
659.17	39828.90
659.31	39545.69
659.46	39754.00
659.60	40456.16
659.74	39952.94
659.89	39636.97
660.03	39517.60
660.17	40069.97
660.32	39697.83
660.46	39653.36
660.60	39367.81
660.74	39627.61
660.89	39859.32
661.03	39325.68
661.17	39122.05
661.32	39278.87
661.46	39597.18
661.60	39260.15
661.74	39129.08
661.89	39381.85
662.03	39147.80
662.17	38899.70
662.31	39086.95
662.46	39222.70
662.60	39014.39
662.74	38754.59
662.88	38321.59
663.03	38300.53
663.17	38492.45
663.31	38382.45
663.45	38665.65
663.60	39007.37
663.74	38604.80
663.88	38471.39
664.02	38092.22
664.17	38714.80
664.31	38469.04
664.45	38148.39
664.59	38139.03
664.73	37682.62
664.88	38171.80
665.02	37818.38
665.16	38036.05
665.30	37876.89
665.44	38017.32
665.59	37584.32
665.73	37731.78
665.87	37544.53
666.01	37876.89
666.15	37783.27
666.29	37483.68
666.44	37696.67
666.58	37408.78
666.72	37329.20
666.86	37275.37
667.00	37326.86
667.14	37160.69
667.28	37284.73
667.43	37226.22
667.57	37354.95
667.71	37137.28
667.85	37242.60
667.99	36339.16
668.13	36690.24
668.27	36542.78
668.41	37076.43
668.56	36077.02
668.70	36112.13
668.84	36306.39
668.98	36070.00
669.12	36510.02
669.26	36486.61
669.40	36191.70
669.54	36217.45
669.68	36378.95
669.82	36481.93
669.96	35367.84
670.10	35683.81
670.25	35990.42
670.39	36081.70
670.53	35854.67
670.67	35796.15
670.81	36130.85
670.95	35955.31
671.09	35543.38
671.23	35274.21
671.37	35433.37
671.51	35447.41
671.65	35091.65
671.79	35351.45
671.93	35115.06
672.07	35314.00
672.21	35264.85
672.35	34817.81
672.49	34738.23
672.63	34993.35
672.77	34740.57
672.91	34483.11
673.05	34668.02
673.19	34541.63
673.33	34387.15
673.47	34260.76
673.61	34448.00
673.75	33865.21
673.89	34075.86
674.03	34380.13
674.17	33720.10
674.31	33687.33
674.45	33682.65
674.59	34033.73
674.73	33425.19
674.87	33668.61
675.01	33200.50
675.15	33174.75
675.29	33125.60
675.43	33315.19
675.56	33401.79
675.70	33144.33
675.84	32912.61
675.98	31779.79
676.12	32872.82
676.26	32996.87
676.40	32938.36
676.54	32189.39
676.68	31988.10
676.82	31742.35
676.96	32371.95
677.10	32449.19
677.23	32364.93
677.37	32210.45
677.51	32177.68
677.65	32421.10
677.79	32006.83
677.93	31672.13
678.07	31910.86
678.21	31072.95
678.34	31342.11
678.48	30834.22
678.62	31089.34
678.76	30925.50
678.90	31187.64
679.04	31035.50
679.18	30817.83
679.31	30433.99
679.45	30705.49
679.59	30527.61
679.73	30370.79
679.87	30485.48
680.00	30080.56
680.14	30359.09
680.28	30036.09
680.42	30206.95
680.56	29640.54
680.70	29198.18
680.83	29411.17
680.97	29036.69
681.11	29724.80
681.25	29106.90
681.39	29017.96
681.52	29149.03
681.66	28950.09
681.80	28814.34
681.94	28587.30
682.07	28435.17
682.21	28517.09
682.35	28257.29
682.49	28313.46
682.62	28156.64
682.76	28755.82
682.90	28313.46
683.04	28301.76
683.17	27770.46
683.31	27887.48
683.45	27915.57
683.59	27744.71
683.72	27433.42
683.86	27536.40
684.00	27468.53
684.13	27417.04
684.27	27051.91
684.41	26803.82
684.55	27342.14
684.68	26948.93
684.82	26604.87
684.96	26511.25
685.09	26852.97
685.23	26712.53
685.37	27187.66
685.50	26740.62
685.64	26656.36
685.78	26253.79
685.91	26471.46
686.05	25497.80
686.19	25465.03
686.32	25806.75
686.46	25509.50
686.60	25425.24
686.73	25413.54
686.87	25411.20
687.01	25158.42
687.14	25046.07
687.28	24982.88
687.42	25048.41
687.55	25076.50
687.69	24847.13
687.82	24697.33
687.96	24545.20
688.10	24823.72
688.23	24425.83
688.37	24673.93
688.50	24819.04
688.64	24631.80
688.78	24004.53
688.91	24142.63
689.05	23936.66
689.18	23716.65
689.32	23285.99
689.46	23398.34
689.59	23798.57
689.73	23501.32
689.86	23550.47
690.00	23487.28
690.13	23257.90
690.27	23246.20
690.41	23117.47
690.54	22920.87
690.68	22967.68
690.81	22824.90
690.95	22689.15
691.08	22464.46
691.22	22431.69
691.35	22441.06
691.49	22672.77
691.62	22319.35
691.76	22029.12
691.89	21722.51
692.03	21766.98
692.16	21624.21
692.30	21837.20
692.43	21696.77
692.57	21483.78
692.70	21319.94
692.84	21331.64
692.97	21212.28
693.11	21064.82
693.24	20877.58
693.38	20919.71
693.51	20524.16
693.65	20606.08
693.78	20531.18
693.92	20720.76
694.05	20517.14
694.19	20538.20
694.32	20439.90
694.45	20718.42
694.59	20751.19
694.72	20287.76
694.86	19875.83
694.99	19857.10
695.13	19742.42
695.26	19927.32
695.39	19496.66
695.53	19686.25
695.66	19620.71
695.80	19524.75
695.93	19300.06
696.07	19227.50
696.20	18773.44
696.33	18815.57
696.47	18923.23
696.60	18848.33
696.73	19122.18
696.87	18965.36
697.00	18555.77
697.14	18438.74
697.27	18345.12
697.40	18319.37
697.54	18459.81
697.67	18387.25
697.80	18008.08
697.94	18097.02
698.07	17900.42
698.21	17987.02
698.34	17804.46
698.47	17900.42
698.61	17226.34
698.74	17284.86
698.87	17425.29
699.01	17294.22
699.14	17062.51
699.27	17074.21
699.40	17216.98
699.54	17057.82
699.67	16908.03
699.80	16975.91
699.94	16919.73
700.07	16954.84
700.20	16753.55
700.34	16542.91
700.47	16418.86
700.60	16379.07
700.73	16659.93
700.87	16182.46
701.00	16210.55
701.13	15777.55
701.26	15978.84
701.40	15812.66
701.53	15726.06
701.66	15541.16
701.79	15922.66
701.93	15351.57
702.06	15403.07
702.19	15569.24
702.32	15756.49
702.46	15382.00
702.59	15309.44
702.72	15367.96
702.85	15166.67
702.99	15047.30
703.12	15140.93
703.25	14881.13
703.38	14642.39
703.51	14637.71
703.65	14855.38
703.78	14349.82
703.91	14443.45
704.04	14377.91
704.17	14176.62
704.31	14424.72
704.44	14298.33
704.57	14094.71
704.70	14228.12
704.83	14068.96
704.96	14155.56
705.10	13987.04
705.23	13717.88
>>>>>End Processed Spectral Data<<<<<
