SpectraSuite Data File
++++++++++++++++++++++++++++++++++++
Date: Fri Oct 25 10:44:26 EDT 2013
User: price-jones
Dark Spectrum Present: No
Reference Spectrum Present: No
Number of Sampled Component Spectra: 1
Spectrometers: USB2+H05261
Integration Time (usec): 100000 (USB2+H05261)
Spectra Averaged: 1 (USB2+H05261)
Boxcar Smoothing: 0 (USB2+H05261)
Correct for Electrical Dark: No (USB2+H05261)
Strobe/Lamp Enabled: No (USB2+H05261)
Correct for Detector Non-linearity: No (USB2+H05261)
Correct for Stray Light: No (USB2+H05261)
Number of Pixels in Processed Spectrum: 2048
>>>>>Begin Processed Spectral Data<<<<<
365.73	138.09
365.92	138.09
366.12	138.09
366.32	84.26
366.52	7.02
366.72	53.83
366.91	95.96
367.11	51.49
367.31	18.72
367.51	86.60
367.70	28.09
367.90	65.54
368.10	0.00
368.30	39.79
368.49	25.75
368.69	25.75
368.89	25.75
369.09	46.81
369.28	65.54
369.48	39.79
369.68	25.75
369.87	140.43
370.07	0.00
370.27	180.22
370.47	187.24
370.66	322.99
370.86	404.91
371.06	500.87
371.25	505.56
371.45	477.47
371.65	435.34
371.84	519.60
372.04	430.66
372.24	444.70
372.44	503.22
372.63	433.00
372.83	475.13
373.03	507.90
373.22	484.49
373.42	507.90
373.62	641.31
373.81	587.47
374.01	596.84
374.21	592.16
374.40	500.87
374.60	561.73
374.79	587.47
374.99	695.14
375.19	606.20
375.38	613.22
375.58	613.22
375.78	620.24
375.97	613.22
376.17	676.41
376.37	573.43
376.56	582.79
376.76	601.52
376.95	622.58
377.15	655.35
377.35	634.29
377.54	699.82
377.74	702.16
377.93	589.82
378.13	720.88
378.33	732.59
378.52	643.65
378.72	723.23
378.91	678.76
379.11	674.07
379.31	655.35
379.50	653.01
379.70	655.35
379.89	763.01
380.09	718.54
380.28	702.16
380.48	704.50
380.68	746.63
380.87	624.92
381.07	671.73
381.26	760.67
381.46	681.10
381.65	671.73
381.85	713.86
382.04	763.01
382.24	716.20
382.43	727.91
382.63	676.41
382.83	772.38
383.02	777.06
383.22	830.89
383.41	711.52
383.61	704.50
383.80	784.08
384.00	744.29
384.19	723.23
384.39	821.53
384.58	739.61
384.78	870.68
384.97	873.02
385.17	758.33
385.36	770.04
385.56	812.17
385.75	760.67
385.95	791.10
386.14	919.83
386.34	849.61
386.53	947.92
386.72	830.89
386.92	933.87
387.11	875.36
387.31	954.94
387.50	901.11
387.70	915.15
387.89	929.19
388.09	887.06
388.28	814.51
388.48	980.68
388.67	964.30
388.86	882.38
389.06	954.94
389.25	922.17
389.45	1008.77
389.64	990.05
389.84	1081.33
390.03	1086.01
390.22	1008.77
390.42	1015.79
390.61	999.41
390.81	1163.25
391.00	1025.15
391.19	1055.58
391.39	1109.41
391.58	1034.52
391.78	1029.84
391.97	1090.69
392.16	1062.60
392.36	1090.69
392.55	1039.20
392.75	1114.10
392.94	1067.28
393.13	1088.35
393.33	964.30
393.52	1011.11
393.71	1177.29
393.91	1137.50
394.10	1067.28
394.29	1212.40
394.49	1252.19
394.68	1214.74
394.88	1247.51
395.07	1210.06
395.26	1306.02
395.46	1432.41
395.65	1352.83
395.84	1287.29
396.04	1275.59
396.23	1163.25
396.42	1174.95
396.62	1203.04
396.81	1259.21
397.00	1235.80
397.19	1291.98
397.39	1343.47
397.58	1411.34
397.77	1486.24
397.97	1486.24
398.16	1453.47
398.35	1570.50
398.55	1481.56
398.74	1430.07
398.93	1577.52
399.12	1535.39
399.32	1584.54
399.51	1568.16
399.70	1652.42
399.90	1556.46
400.09	1596.25
400.28	1703.91
400.47	1661.78
400.67	1753.06
400.86	1720.29
401.05	1755.40
401.24	1561.14
401.44	1785.83
401.63	1865.41
401.82	1760.08
402.01	1792.85
402.21	1837.32
402.40	1865.41
402.59	1790.51
402.78	1853.70
402.97	1846.68
403.17	1919.24
403.36	1856.04
403.55	1790.51
403.74	2033.93
403.93	1944.99
404.13	1872.43
404.32	1961.37
404.51	2012.86
404.70	1977.75
404.89	1919.24
405.09	2108.82
405.28	1792.85
405.47	2111.16
405.66	2090.10
405.85	2064.35
406.05	2090.10
406.24	2083.08
406.43	2099.46
406.62	2108.82
406.81	2265.64
407.00	2181.38
407.20	2069.03
407.39	2172.02
407.58	2251.60
407.77	2150.95
407.96	2275.00
408.15	2319.47
408.34	2333.51
408.54	2249.25
408.73	2427.14
408.92	2338.20
409.11	2499.69
409.30	2307.77
409.49	2389.69
409.68	2335.85
409.87	2359.26
410.07	2462.24
410.26	2469.27
410.45	2431.82
410.64	2462.24
410.83	2485.65
411.02	2722.04
411.21	2656.51
411.40	2616.72
411.59	2708.00
411.78	2750.13
411.98	2757.15
412.17	2764.17
412.36	2778.22
412.55	2710.34
412.74	2799.28
412.93	2818.00
413.12	2752.47
413.31	2991.20
413.50	2869.50
413.69	2899.92
413.88	3005.25
414.07	3115.25
414.26	3023.97
414.45	3049.72
414.64	3133.98
414.83	3180.79
415.02	3112.91
415.22	3101.21
415.41	3229.94
415.60	3192.49
415.79	3187.81
415.98	3281.43
416.17	3349.31
416.36	3255.69
416.55	3300.16
416.74	3297.81
416.93	3346.97
417.12	3421.86
417.31	3471.01
417.50	3583.36
417.69	3576.34
417.88	3489.74
418.07	3473.36
418.26	3421.86
418.45	3461.65
418.64	3777.62
418.83	3503.78
419.02	3644.21
419.21	3681.66
419.39	3726.13
419.58	3566.98
419.77	3604.42
419.96	3719.11
420.15	3782.31
420.34	3824.44
420.53	3808.05
420.72	3831.46
420.91	3803.37
421.10	3906.35
421.29	4028.06
421.48	3808.05
421.67	4056.15
421.86	3880.61
422.05	4014.02
422.24	3782.31
422.43	3880.61
422.61	3927.42
422.80	4088.92
422.99	4114.66
423.18	4147.43
423.37	4028.06
423.56	4058.49
423.75	4269.14
423.94	3934.44
424.13	3698.05
424.32	3939.12
424.50	4131.05
424.69	4231.69
424.88	4163.81
425.07	4084.23
425.26	3892.31
425.45	4058.49
425.64	4044.45
425.83	3997.64
426.01	4053.81
426.20	4093.60
426.39	4093.60
426.58	4051.47
426.77	3913.38
426.96	4074.87
427.15	4049.13
427.33	4236.37
427.52	4194.24
427.71	4222.33
427.90	4205.94
428.09	4227.01
428.28	4269.14
428.46	4189.56
428.65	4224.67
428.84	4475.10
429.03	4390.84
429.22	4248.07
429.40	4196.58
429.59	4229.35
429.78	4093.60
429.97	4049.13
430.16	4166.15
430.34	4210.62
430.53	4231.69
430.72	4163.81
430.91	4395.53
431.10	4472.76
431.28	4528.94
431.47	4713.84
431.66	4692.77
431.85	4730.22
432.03	4793.42
432.22	4643.62
432.41	4746.61
432.60	4713.84
432.79	4798.10
432.97	4952.57
433.16	4781.71
433.35	4732.56
433.54	4887.04
433.72	4826.18
433.91	4870.65
434.10	4898.74
434.28	4929.17
434.47	5018.11
434.66	5093.01
434.85	4992.36
435.03	5198.33
435.22	5050.88
435.41	5334.08
435.59	5146.84
435.78	5240.46
435.97	5301.31
436.16	5298.97
436.34	5268.55
436.53	5322.38
436.72	5425.36
436.90	5277.91
437.09	5336.42
437.28	5203.01
437.46	5135.14
437.65	5413.66
437.84	5387.91
438.02	5366.85
438.21	5247.48
438.40	5336.42
438.58	5432.38
438.77	5643.03
438.96	5589.20
439.14	5846.66
439.33	5888.79
439.52	5982.41
439.70	5844.32
439.89	5757.72
440.08	5881.77
440.26	5970.71
440.45	5760.06
440.63	6066.67
440.82	6010.50
441.01	6043.26
441.19	6134.54
441.38	6150.93
441.57	6394.34
441.75	6359.24
441.94	6471.58
442.12	6345.19
442.31	6502.01
442.50	6604.99
442.68	6459.88
442.87	6471.58
443.05	6609.67
443.24	6560.52
443.43	6747.76
443.61	6637.76
443.80	6796.92
443.98	6431.79
444.17	6525.41
444.35	6902.24
444.54	6904.58
444.73	6857.77
444.91	6595.63
445.10	6759.47
445.28	6670.53
445.47	6628.40
445.65	6684.57
445.84	6693.93
446.02	6799.26
446.21	6623.72
446.39	6927.99
446.58	6839.05
446.77	6794.58
446.95	6850.75
447.14	7037.99
447.32	6963.09
447.51	6881.18
447.69	6752.45
447.88	6853.09
448.06	6878.83
448.25	6895.22
448.43	7049.69
448.62	7000.54
448.80	6719.68
448.99	6892.88
449.17	7002.88
449.36	6932.67
449.54	7225.23
449.73	7314.17
449.91	7243.96
450.10	7375.03
450.28	7475.67
450.46	7473.33
450.65	7431.20
450.83	7489.71
451.02	7236.94
451.20	7524.82
451.39	7496.74
451.57	7435.88
451.76	7382.05
451.94	7555.25
452.13	7353.96
452.31	7482.69
452.49	7290.77
452.68	7428.86
452.86	7492.05
453.05	7417.16
453.23	7634.83
453.42	7592.70
453.60	7489.71
453.78	7756.54
453.97	7604.40
454.15	7688.66
454.34	7531.84
454.52	7831.43
454.70	7737.81
454.89	7662.91
455.07	7810.37
455.26	7953.14
455.44	7871.22
455.62	8039.74
455.81	7920.37
455.99	7957.82
456.17	8037.40
456.36	8131.02
456.54	7992.93
456.73	8320.60
456.91	8322.94
457.09	8306.56
457.28	8461.04
457.46	8299.54
457.64	8425.93
457.83	8688.07
458.01	8175.49
458.19	8519.55
458.38	8383.80
458.56	8505.51
458.74	8449.33
458.93	8465.72
459.11	8533.59
459.29	8690.41
459.48	8758.28
459.66	8713.81
459.84	8681.05
460.03	8681.05
460.21	8699.77
460.39	8674.03
460.57	8842.54
460.76	8912.76
460.94	8762.97
461.12	8861.27
461.31	9076.60
461.49	8765.31
461.67	8875.31
461.85	9081.28
462.04	8961.91
462.22	9296.61
462.40	9064.89
462.59	9088.30
462.77	9048.51
462.95	9205.33
463.13	9015.74
463.32	9090.64
463.50	9397.25
463.68	9392.57
463.86	9200.65
464.05	9156.18
464.23	9231.07
464.41	9221.71
464.59	9139.79
464.78	9572.79
464.96	9273.20
465.14	9312.99
465.32	9469.81
465.50	9488.53
465.69	9673.43
465.87	9551.73
466.05	9476.83
466.23	9282.56
466.41	9451.08
466.60	9774.08
466.78	9305.97
466.96	9458.10
467.14	9390.23
467.32	9441.72
467.51	9710.88
467.69	9385.55
467.87	9745.99
468.05	9778.76
468.23	9781.10
468.41	9570.45
468.60	9612.58
468.78	9806.84
468.96	9877.06
469.14	9970.68
469.32	10005.79
469.50	9856.00
469.69	10078.35
469.87	10310.06
470.05	10186.01
470.23	10188.35
470.41	9919.19
470.59	10188.35
470.77	10033.88
470.95	10242.18
471.14	10471.56
471.32	10296.02
471.50	10731.36
471.68	10621.35
471.86	10602.63
472.04	10686.89
472.22	10946.69
472.40	10471.56
472.58	10794.55
472.77	10848.38
472.95	10904.56
473.13	11190.10
473.31	10846.04
473.49	10853.06
473.67	10883.49
473.85	10993.50
474.03	11033.29
474.21	11358.62
474.39	11304.79
474.57	11283.72
474.75	11332.87
474.93	11435.86
475.12	11604.38
475.30	11510.75
475.48	11580.97
475.66	11445.22
475.84	11480.33
476.02	11688.64
476.20	11728.42
476.38	11756.51
476.56	12287.81
476.74	12138.02
476.92	12187.17
477.10	12039.72
477.28	12510.16
477.46	12404.84
477.64	12699.75
477.82	12821.45
478.00	13137.43
478.18	12774.64
478.36	12589.74
478.54	13338.71
478.72	13151.47
478.90	13245.09
479.08	13275.52
479.26	13654.69
479.44	13568.09
479.62	13760.01
479.80	13554.04
479.98	13760.01
480.16	14141.52
480.34	13961.30
480.52	14176.62
480.70	14200.03
480.88	14078.32
481.06	14134.50
481.24	14640.05
481.41	14878.79
481.59	14796.87
481.77	14956.02
481.95	14850.70
482.13	15051.99
482.31	15051.99
482.49	15161.99
482.67	15250.93
482.85	15339.87
483.03	15524.77
483.21	15679.25
483.39	15751.81
483.57	15791.59
483.74	15976.50
483.92	15800.96
484.10	15772.87
484.28	16549.93
484.46	16540.57
484.64	16786.32
484.82	16458.65
485.00	16676.32
485.18	16840.15
485.35	17011.01
485.53	16507.80
485.71	16482.05
485.89	16805.05
486.07	16772.28
486.25	17163.15
486.43	17326.99
486.61	17631.26
486.78	17750.62
486.96	17813.82
487.14	18141.49
487.32	18190.64
487.50	18354.48
487.68	18698.54
487.85	18855.36
488.03	18778.12
488.21	19019.19
488.39	19066.00
488.57	19030.90
488.75	19400.70
488.92	19454.53
489.10	19903.92
489.28	19831.36
489.46	20081.80
489.64	20081.80
489.81	20725.44
489.99	20680.97
490.17	21064.82
490.35	20917.37
490.53	20718.42
490.70	20957.16
490.88	20989.92
491.06	21106.95
491.24	21275.47
491.41	21212.28
491.59	21617.19
491.77	21151.42
491.95	21436.97
492.13	21720.17
492.30	22003.38
492.48	22328.71
492.66	22244.45
492.84	22347.44
493.01	22595.53
493.19	22113.38
493.37	22838.95
493.54	22693.83
493.72	23159.60
493.90	23241.52
494.08	23536.43
494.25	23468.55
494.43	23606.64
494.61	23847.72
494.79	23950.70
494.96	23786.86
495.14	24020.92
495.32	24451.58
495.49	24102.84
495.67	24383.70
495.85	24662.22
496.02	24692.65
496.20	25102.25
496.38	24891.60
496.55	25324.60
496.73	25514.18
496.91	25263.74
497.09	25668.66
497.26	25940.16
497.44	25495.46
497.62	25986.97
497.79	26260.81
497.97	25926.11
498.14	26001.01
498.32	26160.17
498.50	26328.69
498.67	26525.29
498.85	26567.42
499.03	26962.97
499.20	26913.82
499.38	27143.19
499.56	27342.14
499.73	27007.44
499.91	27126.81
500.08	27187.66
500.26	27054.25
500.44	27316.39
500.61	27421.72
500.79	27171.28
500.97	27592.58
501.14	27676.83
501.32	27714.28
501.49	27782.16
501.67	27761.09
501.84	28158.99
502.02	28170.69
502.20	28252.61
502.37	28442.19
502.55	28407.08
502.72	28599.01
502.90	29123.29
503.07	28610.71
503.25	28629.43
503.43	28697.31
503.60	28865.83
503.78	28966.47
503.95	28851.78
504.13	29219.25
504.30	29333.93
504.48	29710.76
504.65	29589.05
504.83	29656.93
505.01	29809.06
505.18	29745.87
505.36	30597.82
505.53	29809.06
505.71	30700.81
505.88	30581.44
506.06	30071.20
506.23	30188.23
506.41	30349.73
506.58	30429.30
506.76	30410.58
506.93	30754.64
507.11	30506.54
507.28	30710.17
507.46	30424.62
507.63	30405.90
507.81	31194.66
507.98	30639.95
508.16	31318.71
508.33	31400.63
508.50	31328.07
508.68	31737.66
508.85	31505.95
509.03	31487.23
509.20	31793.84
509.38	31971.72
509.55	32013.85
509.73	32018.53
509.90	31782.13
510.08	32203.43
510.25	31655.75
510.42	32362.59
510.60	32570.90
510.77	32531.11
510.95	32701.96
511.12	32290.03
511.30	32423.44
511.47	33071.77
511.64	32907.93
511.82	32912.61
511.99	32519.40
512.17	33209.86
512.34	32919.63
512.51	33230.93
512.69	33610.09
512.86	33450.94
513.04	33902.66
513.21	33352.63
513.38	33170.07
513.56	33603.07
513.73	33247.31
513.90	33890.96
514.08	33537.54
514.25	33895.64
514.43	33905.00
514.60	34057.14
514.77	34103.95
514.95	34125.01
515.12	34328.64
515.29	34511.20
515.47	35040.16
515.64	34656.31
515.81	34646.95
515.99	34185.86
516.16	34127.35
516.33	34384.81
516.51	34426.94
516.68	34192.89
516.85	33907.34
517.03	34225.65
517.20	34555.67
517.37	35033.14
517.54	34904.41
517.72	34663.33
517.89	35072.93
518.06	34705.46
518.24	34951.22
518.41	35138.46
518.58	34972.28
518.75	35594.87
518.93	35438.05
519.10	35782.11
519.27	35931.90
519.45	36058.29
519.62	35737.64
519.79	35971.69
519.96	35983.40
520.14	35915.52
520.31	36084.04
520.48	36493.63
520.65	36439.80
520.83	36751.09
521.00	36463.21
521.17	36657.47
521.34	36985.15
521.52	36863.44
521.69	36996.85
521.86	36856.42
522.03	37170.05
522.20	36872.80
522.38	37095.15
522.55	37102.17
522.72	36863.44
522.89	37062.38
523.07	37354.95
523.24	37266.01
523.41	37490.70
523.58	37691.99
523.75	38054.77
523.92	38274.78
524.10	38195.20
524.27	38293.50
524.44	38045.41
524.61	38396.49
524.78	38141.37
524.96	38473.73
525.13	38452.66
525.30	38696.08
525.47	38700.76
525.64	38754.59
525.81	38356.70
525.98	37993.92
526.16	38007.96
526.33	37689.65
526.50	38092.22
526.67	38017.32
526.84	38183.50
527.01	38223.29
527.18	38703.10
527.36	39117.37
527.53	39133.76
527.70	38979.28
527.87	39365.47
528.04	38983.96
528.21	38923.11
528.38	39330.36
528.55	39564.42
528.72	39014.39
528.89	39819.53
529.07	39667.40
529.24	39337.38
529.41	39559.73
529.58	39728.25
529.75	39503.56
529.92	39892.09
530.09	39990.39
530.26	39449.73
530.43	40009.12
530.60	39754.00
530.77	40163.59
530.94	40383.60
531.11	40231.47
531.28	40385.94
531.46	40252.53
531.63	40130.83
531.80	40573.19
531.97	40381.26
532.14	40170.61
532.31	40161.25
532.48	40119.12
532.65	40519.35
532.82	39885.07
532.99	40360.20
533.16	40350.84
533.33	40720.64
533.50	40975.76
533.67	40938.31
533.84	41254.28
534.01	41062.36
534.18	40954.69
534.35	40818.94
534.52	40788.52
534.69	40863.41
534.86	41212.15
535.03	40959.38
535.20	41956.44
535.37	42059.43
535.54	41640.47
535.71	41593.66
535.88	41429.82
536.05	41748.14
536.22	41230.88
536.38	41696.64
536.55	41684.94
536.72	41607.70
536.89	41270.67
537.06	41441.53
537.23	41617.07
537.40	41947.08
537.57	42160.07
537.74	41855.80
537.91	41797.29
538.08	42050.06
538.25	41773.88
538.42	41923.68
538.59	42197.52
538.75	41532.81
538.92	41598.34
539.09	42419.87
539.26	42232.63
539.43	42087.51
539.60	41748.14
539.77	42162.41
539.94	42316.89
540.11	41848.78
540.28	42277.10
540.44	42153.05
540.61	42300.50
540.78	42412.85
540.95	42469.02
541.12	42457.32
541.29	42211.56
541.46	42361.36
541.62	42513.49
541.79	42902.02
541.96	42298.16
542.13	42742.86
542.30	42852.87
542.47	42426.89
542.63	42974.58
542.80	43028.41
542.97	43447.36
543.14	43959.94
543.31	43564.39
543.48	43395.87
543.64	44194.00
543.81	43707.16
543.98	43875.68
544.15	43679.08
544.32	43650.99
544.48	43856.96
544.65	43966.96
544.82	43646.31
544.99	43531.62
545.16	43934.20
545.32	43878.02
545.49	44161.23
545.66	44294.64
545.83	44292.30
546.00	43709.50
546.16	43964.62
546.33	43580.78
546.50	43831.21
546.67	43969.30
546.83	43555.03
547.00	44182.29
547.17	43985.69
547.34	44156.55
547.50	44577.84
547.67	44458.48
547.84	44715.93
548.00	44437.41
548.17	44830.62
548.34	44685.51
548.51	44601.25
548.67	44725.30
548.84	44669.12
549.01	44676.15
549.18	44570.82
549.34	44404.64
549.51	44875.09
549.68	44601.25
549.84	44931.26
550.01	44582.52
550.18	44631.68
550.34	45020.20
550.51	44882.11
550.68	44706.57
550.84	44648.06
551.01	44528.69
551.18	44966.37
551.34	44638.70
551.51	45177.02
551.68	45209.79
551.84	45067.02
552.01	44891.48
552.18	45085.74
552.34	44767.43
552.51	44971.05
552.68	44842.32
552.84	45298.73
553.01	45287.03
553.18	44947.65
553.34	45392.35
553.51	44903.18
553.67	45406.39
553.84	46021.95
554.01	45705.98
554.17	45610.02
554.34	45570.23
554.51	45652.15
554.67	45457.88
554.84	45364.26
555.00	45324.47
555.17	45624.06
555.33	45677.90
555.50	45549.17
555.67	45390.01
555.83	45586.61
556.00	45916.63
556.16	45815.99
556.33	45574.91
556.50	45710.66
556.66	45736.41
556.83	45432.14
556.99	46120.26
557.16	45794.92
557.32	45584.27
557.49	45846.41
557.65	45734.07
557.82	45399.37
557.98	45865.14
558.15	45722.37
558.32	45682.58
558.48	45441.50
558.65	45904.93
558.81	46080.47
558.98	45675.55
559.14	45813.65
559.31	45918.97
559.47	46178.77
559.64	46087.49
559.80	46644.54
559.97	45907.27
560.13	45773.86
560.30	45914.29
560.46	45916.63
560.63	46300.48
560.79	46492.40
560.96	46536.87
561.12	46089.83
561.29	46293.46
561.45	45656.83
561.61	45970.46
561.78	46080.47
561.94	45869.82
562.11	46237.28
562.27	46211.54
562.44	46138.98
562.60	46646.88
562.77	46316.86
562.93	45979.82
563.10	46370.69
563.26	45937.69
563.42	46403.46
563.59	46450.27
563.75	46213.88
563.92	46515.81
564.08	46321.54
564.24	46890.29
564.41	46618.79
564.57	46281.75
564.74	46349.63
564.90	46181.11
565.07	46178.77
565.23	46410.48
565.39	46328.56
565.56	46550.91
565.72	46557.94
565.88	46419.84
566.05	46553.26
566.21	46237.28
566.38	46342.61
566.54	46361.33
566.70	46801.35
566.87	47082.22
567.03	46829.44
567.19	46845.82
567.36	46527.51
567.52	46366.01
567.68	46651.56
567.85	46497.08
568.01	46454.95
568.17	46309.84
568.34	46469.00
568.50	46705.39
568.66	46127.28
568.83	46436.23
568.99	46232.60
569.15	46560.28
569.32	46745.18
569.48	46319.20
569.64	46691.35
569.81	46665.60
569.97	46281.75
570.13	46504.10
570.30	46124.94
570.46	46548.57
570.62	46080.47
570.78	46047.70
570.95	46342.61
571.11	46593.04
571.27	46351.97
571.43	46745.18
571.60	46417.50
571.76	46597.73
571.92	46717.09
572.09	46717.09
572.25	46412.82
572.41	46382.40
572.57	46396.44
572.74	46904.34
572.90	46560.28
573.06	46801.35
573.22	46801.35
573.38	46799.01
573.55	46522.83
573.71	46885.61
573.87	46714.75
574.03	46454.95
574.20	46560.28
574.36	46424.53
574.52	46588.36
574.68	46939.44
574.84	47063.49
575.01	46646.88
575.17	46506.44
575.33	46316.86
575.49	46440.91
575.65	46459.63
575.82	46553.26
575.98	46387.08
576.14	47098.60
576.30	47037.75
576.46	46670.28
576.62	46618.79
576.79	46461.97
576.95	46476.02
577.11	46464.32
577.27	46642.20
577.43	46815.40
577.59	46461.97
577.75	46059.40
577.92	46660.92
578.08	46710.07
578.24	46553.26
578.40	46609.43
578.56	46822.42
578.72	46902.00
578.88	47023.70
579.04	47004.98
579.21	46518.15
579.37	47051.79
579.53	46782.63
579.69	46651.56
579.85	46761.56
580.01	47178.18
580.17	46520.49
580.33	46761.56
580.49	46885.61
580.65	47164.14
580.82	47374.78
580.98	46703.05
581.14	46820.08
581.30	47229.67
581.46	46843.48
581.62	47107.96
581.78	46773.27
581.94	46906.68
582.10	46443.25
582.26	46883.27
582.42	46387.08
582.58	46766.24
582.74	46913.70
582.90	47004.98
583.06	46782.63
583.22	47002.64
583.38	46869.23
583.54	47180.52
583.70	47150.09
583.86	46733.48
584.02	46553.26
584.18	47327.97
584.34	46728.80
584.50	46871.57
584.66	46738.16
584.82	46866.89
584.98	47075.19
585.14	46843.48
585.30	46471.34
585.46	46726.46
585.62	47194.56
585.78	46361.33
585.94	46031.32
586.10	46705.39
586.26	46841.14
586.42	46817.74
586.58	46894.97
586.74	46906.68
586.90	46925.40
587.06	46946.47
587.22	46944.12
587.38	46663.26
587.54	47302.23
587.70	46948.81
587.86	46986.25
588.02	47159.45
588.18	46684.33
588.34	46763.90
588.49	46492.40
588.65	46146.00
588.81	45897.91
588.97	46174.09
589.13	45940.04
589.29	46607.09
589.45	46539.21
589.61	46457.29
589.77	47175.84
589.93	46974.55
590.08	46780.29
590.24	47042.43
590.40	46885.61
590.56	47012.00
590.72	46997.96
590.88	46822.42
591.04	46803.69
591.20	47311.59
591.35	47126.69
591.51	47136.05
591.67	47082.22
591.83	47063.49
591.99	46902.00
592.15	46904.34
592.31	46902.00
592.46	46644.54
592.62	46787.31
592.78	46983.91
592.94	47210.95
593.10	46972.21
593.26	47002.64
593.41	47210.95
593.57	46806.03
593.73	47075.19
593.89	47215.63
594.05	47210.95
594.20	47150.09
594.36	47213.29
594.52	46859.87
594.68	46979.23
594.84	47044.77
594.99	47082.22
595.15	47157.11
595.31	46944.12
595.47	47091.58
595.62	47004.98
595.78	46838.80
595.94	47346.70
596.10	47063.49
596.25	47234.35
596.41	47360.74
596.57	46780.29
596.73	47531.60
596.88	46759.22
597.04	47007.32
597.20	46897.31
597.36	46955.83
597.51	47173.50
597.67	47145.41
597.83	47175.84
597.99	47152.43
598.14	47189.88
598.30	47421.59
598.46	47042.43
598.61	46894.97
598.77	46817.74
598.93	46777.95
599.09	46939.44
599.24	47847.57
599.40	47363.08
599.56	47416.91
599.71	46934.76
599.87	47199.24
600.03	47299.89
600.18	47217.97
600.34	46824.76
600.50	47122.01
600.65	46890.29
600.81	47224.99
600.97	46960.51
601.12	47168.82
601.28	46625.81
601.44	47185.20
601.59	47119.66
601.75	46775.61
601.91	46855.18
602.06	47012.00
602.22	47103.28
602.37	46866.89
602.53	47068.17
602.69	47327.97
602.84	47051.79
603.00	47007.32
603.16	46782.63
603.31	46843.48
603.47	46909.02
603.62	46941.78
603.78	47342.02
603.94	46546.23
604.09	47210.95
604.25	46784.97
604.40	46813.05
604.56	47089.24
604.71	46920.72
604.87	46621.13
605.03	46789.65
605.18	47185.20
605.34	46820.08
605.49	46674.96
605.65	46747.52
605.80	46499.42
605.96	46808.37
606.12	46911.36
606.27	46916.04
606.43	46756.88
606.58	46497.08
606.74	46447.93
606.89	46909.02
607.05	46834.12
607.20	46946.47
607.36	46859.87
607.51	47002.64
607.67	46525.17
607.82	47028.38
607.98	46822.42
608.13	46436.23
608.29	46712.41
608.44	46124.94
608.60	46195.15
608.75	46684.33
608.91	46583.68
609.06	46405.80
609.22	46520.49
609.37	46288.77
609.53	46433.89
609.68	46181.11
609.84	46258.35
609.99	46110.89
610.15	46082.81
610.30	46225.58
610.46	46050.04
610.61	46155.36
610.76	46148.34
610.92	46026.63
611.07	46375.37
611.23	46756.88
611.38	46174.09
611.54	46351.97
611.69	46387.08
611.84	46021.95
612.00	46075.79
612.15	46461.97
612.31	46248.99
612.46	45825.35
612.62	46209.20
612.77	45970.46
612.92	45970.46
613.08	45628.74
613.23	45780.88
613.39	45979.82
613.54	45778.54
613.69	45535.12
613.85	45846.41
614.00	45787.90
614.15	45886.20
614.31	46190.47
614.46	46234.94
614.62	46237.28
614.77	45661.51
614.92	45872.16
615.08	45371.28
615.23	45661.51
615.38	45483.63
615.54	45429.80
615.69	45219.15
615.84	45603.00
616.00	45668.53
616.15	45427.46
616.30	45745.77
616.46	45408.73
616.61	45029.57
616.76	45404.05
616.92	44982.76
617.07	44711.25
617.22	45382.99
617.37	45059.99
617.53	45635.77
617.68	45743.43
617.83	45865.14
617.99	45581.93
618.14	45352.56
618.29	45535.12
618.45	44947.65
618.60	45092.76
618.75	45064.67
618.90	45500.01
619.06	45280.00
619.21	45247.24
619.36	45720.02
619.51	45254.26
619.67	45586.61
619.82	45090.42
619.97	45294.05
620.12	45067.02
620.28	45085.74
620.43	44804.88
620.58	44879.77
620.73	44882.11
620.89	44697.21
621.04	45052.97
621.19	44772.11
621.34	44762.75
621.49	44786.15
621.65	44528.69
621.80	44982.76
621.95	44692.53
622.10	44395.28
622.25	44287.62
622.41	43978.67
622.56	44521.67
622.71	44416.35
622.86	44261.87
623.01	44964.03
623.16	45041.27
623.32	44605.93
623.47	44697.21
623.62	44250.17
623.77	43887.39
623.92	44729.98
624.07	43798.44
624.23	44098.03
624.38	43800.79
624.53	43948.24
624.68	44409.32
624.83	44388.26
624.98	44343.79
625.13	43646.31
625.29	43798.44
625.44	43955.26
625.59	43597.16
625.74	43583.12
625.89	43220.33
626.04	43543.33
626.19	43559.71
626.34	43693.12
626.49	43952.92
626.65	43604.18
626.80	43952.92
626.95	44151.87
627.10	43482.47
627.25	43725.89
627.40	43388.85
627.55	43313.95
627.70	43267.14
627.85	43166.50
628.00	43618.22
628.15	43597.16
628.30	43220.33
628.45	43548.01
628.60	43522.26
628.76	43309.27
628.91	43363.11
629.06	42955.85
629.21	43126.71
629.36	42953.51
629.51	42993.30
629.66	42707.76
629.81	43035.43
629.96	42873.93
630.11	43084.58
630.26	42920.74
630.41	43271.82
630.56	43056.50
630.71	42951.17
630.86	42717.12
631.01	42674.99
631.16	42630.52
631.31	42866.91
631.46	42625.84
631.61	42518.17
631.76	42473.70
631.91	42740.52
632.06	42649.24
632.21	43323.32
632.36	42892.66
632.51	42375.40
632.66	42541.58
632.81	42052.41
632.96	42742.86
633.10	42068.79
633.25	42094.53
633.40	42443.27
633.55	42347.31
633.70	42059.43
633.85	42431.57
634.00	42679.67
634.15	42368.38
634.30	42366.04
634.45	42457.32
634.60	42078.15
634.75	42314.55
634.90	41886.23
635.05	42232.63
635.19	41670.90
635.34	41816.01
635.49	41806.65
635.64	42064.11
635.79	41273.01
635.94	41909.63
636.09	41748.14
636.24	41677.92
636.39	41387.69
636.53	41755.16
636.68	41663.88
636.83	42010.28
636.98	41837.08
637.13	41490.68
637.28	41649.83
637.43	41680.26
637.57	42038.36
637.72	41851.12
637.87	41790.27
638.02	41411.10
638.17	41626.43
638.32	41280.03
638.46	41235.56
638.61	41333.86
638.76	41312.80
638.91	41652.17
639.06	41563.23
639.20	41230.88
639.35	41698.98
639.50	41647.49
639.65	41462.59
639.80	41261.30
639.94	40935.97
640.09	41078.74
640.24	41076.40
640.39	41263.64
640.54	40975.76
640.68	40945.33
640.83	40779.15
640.98	41085.76
641.13	41064.70
641.27	41074.06
641.42	41078.74
641.57	40877.46
641.72	41275.35
641.86	40505.31
642.01	40952.35
642.16	40591.91
642.31	40699.58
642.45	40835.33
642.60	40378.92
642.75	40903.20
642.90	40568.51
643.04	40842.35
643.19	40297.00
643.34	40594.25
643.48	40107.42
643.63	40432.75
643.78	39768.04
643.93	40168.27
644.07	40060.61
644.22	40596.59
644.37	40072.31
644.51	40163.59
644.66	40458.50
644.81	40088.70
644.95	40584.89
645.10	40500.63
645.25	40222.11
645.39	40245.51
645.54	40308.71
645.69	40435.10
645.83	40074.65
645.98	40334.45
646.13	40334.45
646.27	40006.78
646.42	40278.28
646.57	40222.11
646.71	40062.95
646.86	39901.45
647.00	39871.03
647.15	40540.42
647.30	39990.39
647.44	39746.98
647.59	40065.29
647.74	39512.92
647.88	39672.08
648.03	39360.79
648.17	40069.97
648.32	39761.02
648.47	39868.69
648.61	39377.17
648.76	39683.78
648.90	39374.83
649.05	39749.32
649.20	39597.18
649.34	39620.59
649.49	39531.65
649.63	39079.92
649.78	39295.25
649.92	39541.01
650.07	40002.10
650.21	39037.80
650.36	39423.98
650.51	39328.02
650.65	39580.80
650.80	39812.51
650.94	39594.84
651.09	39459.09
651.23	38969.92
651.38	39309.30
651.52	38787.36
651.67	39330.36
651.81	38646.93
651.96	38981.62
652.10	38672.67
652.25	39110.35
652.39	39416.96
652.54	38649.27
652.68	39112.69
652.83	39321.00
652.97	38983.96
653.12	38796.72
653.26	38740.55
653.41	39037.80
653.55	38934.81
653.70	38794.38
653.84	38466.70
653.99	38857.57
654.13	38366.06
654.27	38541.60
654.42	38770.97
654.56	38249.03
654.71	38506.49
654.85	38543.94
655.00	38787.36
655.14	38361.38
655.29	38321.59
655.43	38080.52
655.57	38223.29
655.72	37823.06
655.86	37876.89
656.01	37921.36
656.15	37518.79
656.30	37890.93
656.44	37734.12
656.58	37507.08
656.73	37593.68
656.87	37893.27
657.01	37813.70
657.16	38075.84
657.30	37766.88
657.45	38232.65
657.59	37766.88
657.73	37764.54
657.88	38139.03
658.02	37944.76
658.16	37907.32
658.31	38232.65
658.45	37762.20
658.60	37256.65
658.74	37806.67
658.88	37497.72
659.03	37624.11
659.17	37177.07
659.31	37233.24
659.46	37301.12
659.60	37581.98
659.74	37427.51
659.89	37034.30
660.03	36954.72
660.17	37177.07
660.32	37507.08
660.46	37123.24
660.60	36877.48
660.74	37298.78
660.89	36947.70
661.03	36863.44
661.17	37095.15
661.32	36596.62
661.46	36781.52
661.60	36608.32
661.74	36435.12
661.89	36432.78
662.03	36907.91
662.17	36540.44
662.31	36570.87
662.46	36753.43
662.60	36411.71
662.74	36271.28
662.88	36290.01
663.03	35936.59
663.17	35854.67
663.31	36133.19
663.45	36212.77
663.60	36229.15
663.74	35943.61
663.88	35641.68
664.02	36088.72
664.17	36240.86
664.31	35763.39
664.45	35634.66
664.59	35442.73
664.73	35573.80
664.88	35828.92
665.02	35206.34
665.16	35253.15
665.30	35199.32
665.44	35122.08
665.59	35356.13
665.73	35234.42
665.87	35047.18
666.01	35019.10
666.15	34888.03
666.29	34852.92
666.44	35075.27
666.58	35077.61
666.72	35189.95
666.86	35110.38
667.00	35000.37
667.14	34553.33
667.28	34789.72
667.43	34665.67
667.57	34749.93
667.71	34597.80
667.85	34623.54
667.99	34431.62
668.13	34747.59
668.27	34632.91
668.41	34443.32
668.56	34232.68
668.70	34859.94
668.84	34129.69
668.98	34082.88
669.12	33282.42
669.26	33823.08
669.40	33481.36
669.54	33869.89
669.68	33825.42
669.82	33610.09
669.96	33638.18
670.10	33158.37
670.25	33457.96
670.39	33549.24
670.53	33329.23
670.67	33097.52
670.81	33521.15
670.95	33233.27
671.09	33319.87
671.23	33425.19
671.37	33373.70
671.51	33036.66
671.65	33006.23
671.79	32659.84
671.93	32451.53
672.07	32711.33
672.21	32849.42
672.35	32718.35
672.49	32741.75
672.63	32535.79
672.77	32753.46
672.91	32547.49
673.05	32395.35
673.19	32301.73
673.33	32163.64
673.47	31978.74
673.61	32154.28
673.75	32217.47
673.89	31920.23
674.03	31901.50
674.17	32095.77
674.31	31599.57
674.45	31852.35
674.59	31789.16
674.73	31473.18
674.87	31522.34
675.01	31721.28
675.15	31676.81
675.29	31094.02
675.43	31477.86
675.56	31459.14
675.70	31131.47
675.84	30927.84
675.98	30103.97
676.12	30953.58
676.26	30756.98
676.40	30529.95
676.54	30855.28
676.68	30497.18
676.82	30101.63
676.96	30211.64
677.10	30546.33
677.23	30579.10
677.37	30164.82
677.51	29928.43
677.65	30015.03
677.79	29530.54
677.93	29596.07
678.07	29528.20
678.21	29249.67
678.34	29457.98
678.48	29165.42
678.62	29076.48
678.76	28566.24
678.90	28608.37
679.04	29041.37
679.18	28701.99
679.31	28348.57
679.45	28683.27
679.59	28070.04
679.73	28514.75
679.87	28418.78
680.00	28009.19
680.14	28173.03
680.28	28458.57
680.42	28074.73
680.56	28245.58
680.70	27824.29
680.83	28100.47
680.97	27697.90
681.11	27983.44
681.25	27381.93
681.39	27578.53
681.52	27646.41
681.66	27346.82
681.80	27440.44
681.94	27447.46
682.07	27496.61
682.21	27070.64
682.35	27009.78
682.49	27152.55
682.62	26871.69
682.76	26794.45
682.90	26930.20
683.04	26728.92
683.17	26335.71
683.31	26239.75
683.45	26092.29
683.59	26190.59
683.72	25869.94
683.86	25666.31
684.00	25956.54
684.13	25778.66
684.27	25713.13
684.41	25734.19
684.55	25490.77
684.68	25406.52
684.82	25364.39
684.96	25420.56
685.09	25518.86
685.23	25076.50
685.37	25027.35
685.50	25109.27
685.64	25111.61
685.78	24702.01
685.91	24744.14
686.05	24758.19
686.19	24634.14
686.32	24060.71
686.46	24191.78
686.60	23868.78
686.73	24065.39
686.87	23157.26
687.01	23351.52
687.14	23431.10
687.28	23255.56
687.42	23393.65
687.55	23353.87
687.69	23253.22
687.82	23276.63
687.96	23044.91
688.10	23428.76
688.23	23042.57
688.37	22738.30
688.50	22728.94
688.64	22803.84
688.78	22412.97
688.91	22934.91
689.05	22628.30
689.18	22480.85
689.32	22366.16
689.46	22181.26
689.59	21979.97
689.73	22560.42
689.86	22246.79
690.00	22066.57
690.13	22239.77
690.27	21944.86
690.41	21912.10
690.54	21209.93
690.68	21488.46
690.81	21209.93
690.95	21659.32
691.08	21446.33
691.22	21476.76
691.35	21282.49
691.49	21607.83
691.62	21301.22
691.76	20992.26
691.89	20915.03
692.03	21053.12
692.16	20858.85
692.30	20739.49
692.43	20730.12
692.57	20531.18
692.70	20226.91
692.84	20673.95
692.97	19999.88
693.11	20245.63
693.24	20034.99
693.38	19826.68
693.51	19754.12
693.65	19908.60
693.78	20252.66
693.92	19932.00
694.05	19758.80
694.19	19983.49
694.32	19213.46
694.45	19260.27
694.59	19021.53
694.72	19337.51
694.86	19098.77
694.99	19108.13
695.13	19119.84
695.26	19140.90
695.39	18707.90
695.53	18792.16
695.66	18815.57
695.80	18801.52
695.93	18831.95
696.07	18450.44
696.20	18293.63
696.33	18258.52
696.47	18326.39
696.60	18408.31
696.73	18249.16
696.87	18242.14
697.00	18345.12
697.14	17802.11
697.27	17935.53
697.40	18200.01
697.54	17912.12
697.67	17942.55
697.80	17558.70
697.94	17373.80
698.07	17214.64
698.21	17172.51
698.34	17235.70
698.47	17015.69
698.61	16786.32
698.74	16575.67
698.87	16716.11
699.01	16659.93
699.14	16652.91
699.27	16519.50
699.40	16762.92
699.54	16589.72
699.67	16126.29
699.80	16311.19
699.94	16468.01
700.07	16350.98
700.20	16027.99
700.34	16056.08
700.47	16145.02
700.60	16308.85
700.73	16432.90
700.87	16025.65
701.00	15716.70
701.13	15967.13
701.26	15389.02
701.40	15592.65
701.53	15534.14
701.66	15321.15
701.79	15438.17
701.93	15215.82
702.06	15089.43
702.19	15089.43
702.32	15194.76
702.46	14700.90
702.59	14621.33
702.72	15154.97
702.85	14970.07
702.99	15066.03
703.12	14710.27
703.25	14464.51
703.38	14572.18
703.51	14569.83
703.65	14483.24
703.78	14595.58
703.91	14347.48
704.04	14340.46
704.17	14506.64
704.31	14200.03
704.44	13994.06
704.57	14436.42
704.70	13942.57
704.83	13841.93
704.96	13975.34
705.10	13965.98
705.23	13977.68
>>>>>End Processed Spectral Data<<<<<
