SpectraSuite Data File
++++++++++++++++++++++++++++++++++++
Date: Fri Oct 25 11:34:14 EDT 2013
User: price-jones
Dark Spectrum Present: No
Reference Spectrum Present: No
Number of Sampled Component Spectra: 1
Spectrometers: USB2+H05261
Integration Time (usec): 100000 (USB2+H05261)
Spectra Averaged: 1 (USB2+H05261)
Boxcar Smoothing: 0 (USB2+H05261)
Correct for Electrical Dark: No (USB2+H05261)
Strobe/Lamp Enabled: No (USB2+H05261)
Correct for Detector Non-linearity: No (USB2+H05261)
Correct for Stray Light: No (USB2+H05261)
Number of Pixels in Processed Spectrum: 2048
>>>>>Begin Processed Spectral Data<<<<<
365.73	217.67
365.92	217.67
366.12	217.67
366.32	184.90
366.52	145.11
366.72	142.77
366.91	121.71
367.11	133.41
367.31	81.92
367.51	166.18
367.70	182.56
367.90	138.09
368.10	168.52
368.30	182.56
368.49	159.16
368.69	203.63
368.89	212.99
369.09	194.26
369.28	154.48
369.48	119.37
369.68	187.24
369.87	227.03
370.07	266.82
370.27	292.57
370.47	346.40
370.66	456.40
370.86	472.79
371.06	510.24
371.25	521.94
371.45	491.51
371.65	573.43
371.84	503.22
372.04	573.43
372.24	568.75
372.44	624.92
372.63	589.82
372.83	564.07
373.03	573.43
373.22	627.26
373.42	641.31
373.62	683.44
373.81	571.09
374.01	653.01
374.21	669.39
374.40	641.31
374.60	660.03
374.79	650.67
374.99	613.22
375.19	636.63
375.38	669.39
375.58	589.82
375.78	667.05
375.97	744.29
376.17	758.33
376.37	662.37
376.56	678.76
376.76	645.99
376.95	629.60
377.15	678.76
377.35	678.76
377.54	734.93
377.74	706.84
377.93	667.05
378.13	650.67
378.33	695.14
378.52	683.44
378.72	753.65
378.91	662.37
379.11	660.03
379.31	615.56
379.50	734.93
379.70	751.31
379.89	732.59
380.09	638.97
380.28	732.59
380.48	681.10
380.68	741.95
380.87	716.20
381.07	716.20
381.26	765.36
381.46	814.51
381.65	737.27
381.85	683.44
382.04	681.10
382.24	809.83
382.43	805.14
382.63	842.59
382.83	826.21
383.02	830.89
383.22	807.48
383.41	816.85
383.61	760.67
383.80	739.61
384.00	737.27
384.19	837.91
384.39	891.74
384.58	786.42
384.78	814.51
384.97	884.72
385.17	866.00
385.36	844.93
385.56	823.87
385.75	777.06
385.95	863.66
386.14	833.23
386.34	751.31
386.53	894.08
386.72	844.93
386.92	875.36
387.11	812.17
387.31	788.76
387.50	854.30
387.70	858.98
387.89	933.87
388.09	908.13
388.28	917.49
388.48	844.93
388.67	894.08
388.86	940.90
389.06	854.30
389.25	971.32
389.45	950.26
389.64	931.53
389.84	983.02
390.03	950.26
390.22	987.71
390.42	931.53
390.61	826.21
390.81	1041.54
391.00	973.66
391.19	983.02
391.39	978.34
391.58	966.64
391.78	1076.65
391.97	1060.26
392.16	1013.45
392.36	1097.71
392.55	1050.90
392.75	994.73
392.94	966.64
393.13	1109.41
393.33	987.71
393.52	1006.43
393.71	1128.14
393.91	1025.15
394.10	1090.69
394.29	1034.52
394.49	1151.54
394.68	1090.69
394.88	1048.56
395.07	1139.84
395.26	1226.44
395.46	1109.41
395.65	1118.78
395.84	1240.48
396.04	1224.10
396.23	1151.54
396.42	1165.59
396.62	1174.95
396.81	1240.48
397.00	1132.82
397.19	1259.21
397.39	1121.12
397.58	1254.53
397.77	1177.29
397.97	1247.51
398.16	1139.84
398.35	1266.23
398.55	1226.44
398.74	1306.02
398.93	1254.53
399.12	1338.79
399.32	1299.00
399.51	1364.53
399.70	1453.47
399.90	1406.66
400.09	1352.83
400.28	1380.92
400.47	1341.13
400.67	1320.06
400.86	1336.45
401.05	1387.94
401.24	1455.81
401.44	1359.85
401.63	1430.07
401.82	1387.94
402.01	1458.15
402.21	1425.39
402.40	1519.01
402.59	1444.11
402.78	1511.99
402.97	1500.28
403.17	1558.80
403.36	1624.33
403.55	1455.81
403.74	1556.46
403.93	1521.35
404.13	1530.71
404.32	1586.88
404.51	1708.59
404.70	1657.10
404.89	1591.56
405.09	1722.63
405.28	1694.55
405.47	1558.80
405.66	1650.08
405.85	1732.00
406.05	1631.35
406.24	1643.06
406.43	1591.56
406.62	1741.36
406.81	1734.34
407.00	1713.27
407.20	1675.82
407.39	1722.63
407.58	1790.51
407.77	1874.77
407.96	1811.57
408.15	1820.94
408.34	1764.76
408.54	1865.41
408.73	1935.62
408.92	1839.66
409.11	1898.17
409.30	1741.36
409.49	1952.01
409.68	1982.43
409.87	1912.22
410.07	1987.11
410.26	2057.33
410.45	1980.09
410.64	1991.80
410.83	2076.06
411.02	1954.35
411.21	2136.91
411.40	2179.04
411.59	2122.87
411.78	2143.93
411.98	2099.46
412.17	2120.53
412.36	2244.57
412.55	2282.02
412.74	2282.02
412.93	2340.54
413.12	2347.56
413.31	2282.02
413.50	2401.39
413.69	2296.07
413.88	2387.35
414.07	2443.52
414.26	2420.11
414.45	2438.84
414.64	2466.92
414.83	2466.92
415.02	2558.21
415.22	2558.21
415.41	2539.48
415.60	2663.53
415.79	2605.02
415.98	2654.17
416.17	2745.45
416.36	2600.34
416.55	2794.60
416.74	2745.45
416.93	2553.52
417.12	2750.13
417.31	2836.73
417.50	2761.83
417.69	2981.84
417.88	2813.32
418.07	2855.45
418.26	2883.54
418.45	2834.39
418.64	2911.63
418.83	2888.22
419.02	3094.19
419.21	3082.49
419.39	2892.90
419.58	2991.20
419.77	2984.18
419.96	3023.97
420.15	3101.21
420.34	2986.52
420.53	3108.23
420.72	3063.76
420.91	3187.81
421.10	3213.56
421.29	3440.59
421.48	3091.85
421.67	3265.05
421.86	3105.89
422.05	3229.94
422.24	3267.39
422.43	3323.56
422.61	3225.26
422.80	3274.41
422.99	3412.50
423.18	3304.84
423.37	3325.90
423.56	3178.45
423.75	3323.56
423.94	3180.79
424.13	3183.13
424.32	3239.30
424.50	3339.94
424.69	3454.63
424.88	3386.76
425.07	3358.67
425.26	3405.48
425.45	3478.04
425.64	3410.16
425.83	3384.41
426.01	3487.40
426.20	3358.67
426.39	3337.60
426.58	3447.61
426.77	3447.61
426.96	3370.37
427.15	3508.46
427.33	3449.95
427.52	3442.93
427.71	3499.10
427.90	3655.92
428.09	3634.85
428.28	3564.64
428.46	3574.00
428.65	3503.78
428.84	3641.87
429.03	3721.45
429.22	3646.55
429.40	3646.55
429.59	3719.11
429.78	3545.91
429.97	3592.72
430.16	3583.36
430.34	3723.79
430.53	3709.75
430.72	3726.13
430.91	3735.50
431.10	3765.92
431.28	3852.52
431.47	3913.38
431.66	3896.99
431.85	3983.59
432.03	3985.93
432.22	3901.67
432.41	3957.85
432.60	3943.80
432.79	3988.27
432.97	4030.40
433.16	4056.15
433.35	4063.17
433.54	4072.53
433.72	4070.19
433.91	3953.16
434.10	4184.88
434.28	4119.34
434.47	4119.34
434.66	4180.20
434.85	4189.56
435.03	4138.07
435.22	4191.90
435.41	4528.94
435.59	4086.58
435.78	4290.20
435.97	4257.43
436.16	4095.94
436.34	4351.06
436.53	4423.61
436.72	4550.00
436.90	4189.56
437.09	4334.67
437.28	4250.41
437.46	4435.32
437.65	4393.19
437.84	4461.06
438.02	4526.60
438.21	4674.05
438.40	4535.96
438.58	4559.36
438.77	4727.88
438.96	4755.97
439.14	4802.78
439.33	4702.14
439.52	4798.10
439.70	4908.10
439.89	4938.53
440.08	4961.94
440.26	4940.87
440.45	4891.72
440.63	4999.38
440.82	4994.70
441.01	4936.19
441.19	5043.85
441.38	5088.32
441.57	5144.50
441.75	5177.26
441.94	5240.46
442.12	5453.45
442.31	5282.59
442.50	5582.18
442.68	5210.03
442.87	5303.65
443.05	5359.83
443.24	5432.38
443.43	5205.35
443.61	5420.68
443.80	5460.47
443.98	5341.10
444.17	5102.37
444.35	5383.23
444.54	5551.75
444.73	5572.82
444.91	5516.64
445.10	5577.50
445.28	5544.73
445.47	5460.47
445.65	5558.77
445.84	5577.50
446.02	5551.75
446.21	5535.37
446.39	5504.94
446.58	5650.05
446.77	5558.77
446.95	5455.79
447.14	5516.64
447.32	5523.66
447.51	5727.29
447.69	5502.60
447.88	5643.03
448.06	5589.20
448.25	5631.33
448.43	5685.16
448.62	5556.43
448.80	5628.99
448.99	5731.97
449.17	5853.68
449.36	5586.86
449.54	5837.30
449.73	5956.66
449.91	5811.55
450.10	5802.19
450.28	5841.98
450.46	5963.68
450.65	5849.00
450.83	6087.73
451.02	6031.56
451.20	6031.56
451.39	5998.79
451.57	5987.09
451.76	5926.24
451.94	6216.46
452.13	6155.61
452.31	6111.14
452.49	5900.49
452.68	6202.42
452.86	6108.80
453.05	6256.25
453.23	6197.74
453.42	6061.99
453.60	6244.55
453.78	6235.19
453.97	6270.30
454.15	6286.68
454.34	6218.80
454.52	6354.55
454.70	6368.60
454.89	6436.47
455.07	6403.71
455.26	6443.49
455.44	6516.05
455.62	6644.78
455.81	6642.44
455.99	6583.93
456.17	6574.56
456.36	6537.12
456.54	6546.48
456.73	6590.95
456.91	6867.13
457.09	6810.96
457.28	6960.75
457.46	6979.48
457.64	6864.79
457.83	6782.87
458.01	6951.39
458.19	6986.50
458.38	6942.03
458.56	6965.43
458.74	6937.35
458.93	7052.03
459.11	6960.75
459.29	6946.71
459.48	6970.12
459.66	7133.95
459.84	7330.56
460.03	7267.36
460.21	7176.08
460.39	7152.68
460.57	7206.51
460.76	7368.01
460.94	7309.49
461.12	7211.19
461.31	7286.09
461.49	7288.43
461.67	7159.70
461.85	7531.84
462.04	7478.01
462.22	7990.59
462.40	7578.65
462.59	7595.04
462.77	7342.26
462.95	7667.60
463.13	7700.36
463.32	7503.76
463.50	7492.05
463.68	7932.08
463.86	7700.36
464.05	7733.13
464.23	7744.83
464.41	7808.03
464.59	7513.12
464.78	7843.14
464.96	7782.28
465.14	7740.15
465.32	7929.74
465.50	8011.65
465.69	8081.87
465.87	7983.57
466.05	7791.64
466.23	7887.61
466.41	8079.53
466.60	8191.88
466.78	7838.45
466.96	7878.24
467.14	7934.42
467.32	8023.36
467.51	8212.94
467.69	7981.23
467.87	7999.95
468.05	8152.09
468.23	8116.98
468.41	8133.36
468.60	8102.93
468.78	8308.90
468.96	8194.22
469.14	8229.32
469.32	8425.93
469.50	8177.83
469.69	8622.53
469.87	8334.65
470.05	8528.91
470.23	8631.90
470.41	8538.27
470.59	8702.11
470.77	8496.14
470.95	8688.07
471.14	8905.74
471.32	8681.05
471.50	8889.35
471.68	8753.60
471.86	8755.94
472.04	8809.78
472.22	8891.70
472.40	8863.61
472.58	8997.02
472.77	9008.72
472.95	9149.15
473.13	9460.45
473.31	9142.13
473.49	8973.61
473.67	9198.31
473.85	9153.84
474.03	9518.96
474.21	9423.00
474.39	9561.09
474.57	9467.47
474.75	9425.34
474.93	9544.70
475.12	9582.15
475.30	9762.37
475.48	9715.56
475.66	9748.33
475.84	9682.80
476.02	10099.41
476.20	9844.29
476.38	10195.37
476.56	10279.63
476.74	10237.50
476.92	10319.42
477.10	10296.02
477.28	10539.43
477.46	10403.68
477.64	10553.48
477.82	10703.27
478.00	10897.53
478.18	10731.36
478.36	10712.63
478.54	11115.20
478.72	10956.05
478.90	11213.51
479.08	11255.64
479.26	11239.25
479.44	11372.66
479.62	11412.45
479.80	11569.27
479.98	11676.93
480.16	11955.46
480.34	11375.00
480.52	12020.99
480.70	11943.75
480.88	11749.49
481.06	12079.50
481.24	12035.03
481.41	12301.86
481.59	12517.18
481.77	12477.40
481.95	12313.56
482.13	12681.02
482.31	12566.34
482.49	12868.27
482.67	12784.01
482.85	13081.25
483.03	13369.14
483.21	13179.56
483.39	13493.19
483.57	13589.15
483.74	13586.81
483.92	13748.31
484.10	13422.97
484.28	13991.72
484.46	14097.05
484.64	14380.25
484.82	14024.49
485.00	14417.70
485.18	14731.33
485.35	14569.83
485.53	14686.86
485.71	14633.03
485.89	15044.96
486.07	14963.04
486.25	14831.97
486.43	15192.42
486.61	15049.64
486.78	15208.80
486.96	15489.67
487.14	15669.89
487.32	15583.29
487.50	15662.86
487.68	15800.96
487.85	16240.98
488.03	16205.87
488.21	16133.31
488.39	16652.91
488.57	16905.69
488.75	16615.46
488.92	16802.71
489.10	17104.64
489.28	17088.25
489.46	17411.25
489.64	17139.74
489.81	17731.90
489.99	17811.48
490.17	17551.68
490.35	17893.40
490.53	18087.66
490.70	18160.22
490.88	18101.70
491.06	18183.62
491.24	18286.61
491.41	18298.31
491.59	18698.54
491.77	18862.38
491.95	18829.61
492.13	18850.67
492.30	19325.80
492.48	19283.67
492.66	19208.78
492.84	19681.56
493.01	19716.67
493.19	19372.61
493.37	19995.20
493.54	19726.04
493.72	20060.73
493.90	20121.59
494.08	20439.90
494.25	20643.52
494.43	20444.58
494.61	20510.11
494.79	20435.22
494.96	20503.09
495.14	20849.49
495.32	20903.32
495.49	21156.10
495.67	21158.44
495.85	21247.38
496.02	21434.63
496.20	21610.17
496.38	21635.91
496.55	21633.57
496.73	22251.47
496.91	22003.38
497.09	22010.40
497.26	22464.46
497.44	22291.26
497.62	22199.98
497.79	22874.06
497.97	22551.06
498.14	22862.35
498.32	22916.19
498.50	22726.60
498.67	23185.35
498.85	23360.89
499.03	23548.13
499.20	23239.18
499.38	23468.55
499.56	23651.11
499.73	23819.63
499.91	23613.66
500.08	24144.97
500.26	24102.84
500.44	23894.53
500.61	23889.85
500.79	23784.52
500.97	24194.12
501.14	24959.47
501.32	24594.35
501.49	24247.95
501.67	24486.68
501.84	24940.75
502.02	24861.17
502.20	24709.04
502.37	25095.22
502.55	25001.60
502.72	24879.89
502.90	25233.32
503.07	24989.90
503.25	25287.15
503.43	25193.53
503.60	25703.76
503.78	25584.40
503.95	25755.26
504.13	25954.20
504.30	26075.91
504.48	25891.01
504.65	25972.92
504.83	25963.56
505.01	26618.91
505.18	26167.19
505.36	26466.78
505.53	26466.78
505.71	26471.46
505.88	27049.57
506.06	26658.70
506.23	26927.86
506.41	26859.99
506.58	26525.29
506.76	26792.11
506.93	27374.91
507.11	27199.37
507.28	27281.28
507.46	27379.59
507.63	27513.00
507.81	27335.12
507.98	27716.62
508.16	27896.85
508.33	27810.25
508.50	27835.99
508.68	27899.19
508.85	28348.57
509.03	28056.00
509.20	28294.74
509.38	28568.58
509.55	28367.29
509.73	28313.46
509.90	28357.93
510.08	28669.22
510.25	28432.83
510.42	29102.22
510.60	28697.31
510.77	29022.64
510.95	29488.41
511.12	29127.97
511.30	29287.12
511.47	29228.61
511.64	29273.08
511.82	29076.48
511.99	29212.23
512.17	29654.59
512.34	29076.48
512.51	29900.34
512.69	29785.66
512.86	29708.42
513.04	29748.21
513.21	29799.70
513.38	29977.58
513.56	30424.62
513.73	30206.95
513.90	30534.63
514.08	30525.27
514.25	30529.95
514.43	30794.43
514.60	30548.67
514.77	30415.26
514.95	30651.66
515.12	30534.63
515.29	31014.44
515.47	31044.87
515.64	30951.24
515.81	30967.63
515.99	31225.09
516.16	31307.01
516.33	31686.17
516.51	31541.06
516.68	31299.98
516.85	31395.95
517.03	31779.79
517.20	32112.15
517.37	31725.96
517.54	32112.15
517.72	31941.29
517.89	32308.76
518.06	31842.99
518.24	31906.18
518.41	32051.30
518.58	32208.11
518.75	31594.89
518.93	32538.13
519.10	32346.20
519.27	32807.29
519.45	32407.06
519.62	33097.52
519.79	32655.15
519.96	32528.77
520.14	32818.99
520.31	32952.40
520.48	32835.38
520.65	32931.34
520.83	33631.16
521.00	33141.99
521.17	33429.87
521.34	33242.63
521.52	33399.44
521.69	33401.79
521.86	33565.62
522.03	33806.70
522.20	34103.95
522.38	34265.44
522.55	33804.36
522.72	34078.20
522.89	34103.95
523.07	34731.21
523.24	33993.94
523.41	34649.29
523.58	34349.70
523.75	33954.15
523.92	34464.39
524.10	34567.37
524.27	34698.44
524.44	34663.33
524.61	34550.99
524.78	34604.82
524.96	35431.03
525.13	34962.92
525.30	34979.31
525.47	35323.36
525.64	35178.25
525.81	35304.64
525.98	35082.29
526.16	35042.50
526.33	35166.55
526.50	35695.51
526.67	35271.87
526.84	35622.95
527.01	35442.73
527.18	35634.66
527.36	35543.38
527.53	35826.58
527.70	35800.83
527.87	35950.63
528.04	36077.02
528.21	35852.33
528.38	35739.98
528.55	36301.71
528.72	36144.89
528.89	36264.26
529.07	35559.76
529.24	36055.95
529.41	36788.54
529.58	36325.11
529.75	36222.13
529.92	36809.61
530.09	36622.36
530.26	36388.31
530.43	36444.48
530.60	36229.15
530.77	37076.43
530.94	36861.10
531.11	36964.08
531.28	37127.92
531.46	37008.55
531.63	36652.79
531.80	36570.87
531.97	37383.04
532.14	37081.11
532.31	37596.03
532.48	37380.70
532.65	37427.51
532.82	36992.17
532.99	37574.96
533.16	37549.21
533.33	37619.43
533.50	37926.04
533.67	37628.79
533.84	37263.67
534.01	37846.46
534.18	37626.45
534.35	38101.58
534.52	38176.48
534.69	38010.30
534.86	37935.40
535.03	38050.09
535.20	38223.29
535.37	38267.76
535.54	38333.29
535.71	38457.34
535.88	38670.33
536.05	38361.38
536.22	38703.10
536.38	38515.86
536.55	38270.10
536.72	38560.33
536.89	38572.03
537.06	39040.14
537.23	38869.28
537.40	38487.77
537.57	38660.97
537.74	38440.96
537.91	39330.36
538.08	38602.46
538.25	38476.07
538.42	39145.46
538.59	39405.26
538.75	39393.56
538.92	39442.71
539.09	39550.37
539.26	39442.71
539.43	39494.20
539.60	39419.30
539.77	39564.42
539.94	39786.77
540.11	39363.13
540.28	39629.95
540.44	39732.93
540.61	39218.02
540.78	39421.64
540.95	39662.72
541.12	39306.96
541.29	39632.29
541.46	39840.60
541.62	39782.09
541.79	40215.08
541.96	39950.60
542.13	39688.46
542.30	39920.18
542.47	40191.68
542.63	40467.86
542.80	39852.30
542.97	40432.75
543.14	41008.53
543.31	40137.85
543.48	40624.68
543.64	40985.12
543.81	40900.86
543.98	40760.43
544.15	40807.24
544.32	40678.51
544.48	40978.10
544.65	40973.42
544.82	41256.62
544.99	40793.20
545.16	41127.89
545.32	40818.94
545.49	41584.30
545.66	41680.26
545.83	41120.87
546.00	41584.30
546.16	41038.95
546.33	41130.23
546.50	41324.50
546.67	42155.39
546.83	41326.84
547.00	41532.81
547.17	41242.58
547.34	41280.03
547.50	41844.10
547.67	41954.10
547.84	41408.76
548.00	41738.77
548.17	41956.44
548.34	41778.56
548.51	42227.95
548.67	42197.52
548.84	42007.94
549.01	41600.68
549.18	42007.94
549.34	42010.28
549.51	42272.42
549.68	42539.24
549.84	42178.79
550.01	42642.22
550.18	41968.15
550.34	42178.79
550.51	42485.40
550.68	42679.67
550.84	42192.84
551.01	42548.60
551.18	42536.90
551.34	42026.66
551.51	42541.58
551.68	42525.19
551.84	42454.98
552.01	42223.26
552.18	42485.40
552.34	42574.34
552.51	43124.37
552.68	42469.02
552.84	42756.91
553.01	42724.14
553.18	42857.55
553.34	43054.15
553.51	43002.66
553.67	43098.62
553.84	43182.88
554.01	43140.75
554.17	43051.81
554.34	43262.46
554.51	43107.99
554.67	43143.09
554.84	43241.40
555.00	43014.37
555.17	43517.58
555.33	43777.38
555.50	43592.48
555.67	43035.43
555.83	43416.94
556.00	43655.67
556.16	43690.78
556.33	43800.79
556.50	43515.24
556.66	43695.46
556.83	43370.13
556.99	44140.16
557.16	44083.99
557.32	43936.54
557.49	43845.26
557.65	43852.28
557.82	43461.41
557.98	44449.11
558.15	43892.07
558.32	44418.69
558.48	43388.85
558.65	43540.99
558.81	44463.16
558.98	43793.76
559.14	43746.95
559.31	44133.14
559.47	44327.41
559.64	43414.60
559.80	44149.53
559.97	44364.85
560.13	43683.76
560.30	43753.97
560.46	44339.11
560.63	44706.57
560.79	44119.10
560.96	44175.27
561.12	44919.56
561.29	44617.63
561.45	44556.78
561.61	44636.36
561.78	44573.16
561.94	44289.96
562.11	44552.10
562.27	44655.08
562.44	44381.24
562.60	44514.65
562.77	44563.80
562.93	44673.81
563.10	44533.37
563.26	44549.76
563.42	45228.51
563.59	44493.58
563.75	44542.74
563.92	44367.20
564.08	44215.06
564.24	45078.72
564.41	44968.71
564.57	44648.06
564.74	45013.18
564.90	44437.41
565.07	45205.11
565.23	44645.72
565.39	44832.96
565.56	45003.82
565.72	44676.15
565.88	44999.14
566.05	45027.23
566.21	44889.13
566.38	44786.15
566.54	45059.99
566.70	44847.00
566.87	45013.18
567.03	45125.53
567.19	45078.72
567.36	44722.96
567.52	45219.15
567.68	45553.85
567.85	45177.02
568.01	45095.10
568.17	44992.12
568.34	45298.73
568.50	45003.82
568.66	44842.32
568.83	45184.04
568.99	45116.17
569.15	45277.66
569.32	45340.86
569.48	45319.79
569.64	45249.58
569.81	45315.11
569.97	45624.06
570.13	45268.30
570.30	45076.38
570.46	45265.96
570.62	45591.30
570.78	45539.80
570.95	45116.17
571.11	45902.59
571.27	45556.19
571.43	45492.99
571.60	45216.81
571.76	45617.04
571.92	45214.47
572.09	45280.00
572.25	45385.33
572.41	45530.44
572.57	45001.48
572.74	45537.46
572.90	45418.10
573.06	45673.21
573.22	45787.90
573.38	45876.84
573.55	45724.71
573.71	45743.43
573.87	45633.42
574.03	46141.32
574.20	45720.02
574.36	45640.45
574.52	45694.28
574.68	45523.42
574.84	46174.09
575.01	45478.95
575.17	45420.44
575.33	45797.26
575.49	45794.92
575.65	46164.73
575.82	45890.88
575.98	45553.85
576.14	45858.12
576.30	46150.68
576.46	45834.71
576.62	45804.28
576.79	45560.87
576.95	45642.79
577.11	45766.84
577.27	45624.06
577.43	45815.99
577.59	45677.90
577.75	45532.78
577.92	45577.25
578.08	45897.91
578.24	45635.77
578.40	45986.85
578.56	46181.11
578.72	45804.28
578.88	46307.50
579.04	45729.39
579.21	45792.58
579.37	46017.27
579.53	46246.65
579.69	45886.20
579.85	45532.78
580.01	45708.32
580.17	46092.17
580.33	45907.27
580.49	46024.29
580.65	46298.14
580.82	45867.48
580.98	45792.58
581.14	45909.61
581.30	46162.39
581.46	45546.82
581.62	45752.79
581.78	45631.08
581.94	46150.68
582.10	45928.33
582.26	46162.39
582.42	46050.04
582.58	46059.40
582.74	46110.89
582.90	46068.76
583.06	46265.37
583.22	45844.07
583.38	46279.41
583.54	46099.19
583.70	46059.40
583.86	45942.38
584.02	45855.78
584.18	46330.90
584.34	46094.51
584.50	46024.29
584.66	46314.52
584.82	46169.41
584.98	46220.90
585.14	46361.33
585.30	46096.85
585.46	46160.05
585.62	45860.46
585.78	46288.77
585.94	45764.49
586.10	45677.90
586.26	45705.98
586.42	46124.94
586.58	46298.14
586.74	45904.93
586.90	45619.38
587.06	46321.54
587.22	46445.59
587.38	46028.98
587.54	45867.48
587.70	46665.60
587.86	46464.32
588.02	45766.84
588.18	46050.04
588.34	46253.67
588.49	46380.06
588.65	46213.88
588.81	46087.49
588.97	46043.02
589.13	46195.15
589.29	46237.28
589.45	46424.53
589.61	46656.24
589.77	46445.59
589.93	46181.11
590.08	46181.11
590.24	46628.15
590.40	46902.00
590.56	47096.26
590.72	46625.81
590.88	46237.28
591.04	46415.16
591.20	46557.94
591.35	46590.70
591.51	46796.67
591.67	46698.37
591.83	46791.99
591.99	46927.74
592.15	46614.11
592.31	46567.30
592.46	46560.28
592.62	46660.92
592.78	47136.05
592.94	46965.19
593.10	47072.85
593.26	46972.21
593.41	46663.26
593.57	46581.34
593.73	46864.55
593.89	47241.37
594.05	46899.65
594.20	46930.08
594.36	46953.49
594.52	46932.42
594.68	46799.01
594.84	46705.39
594.99	47201.58
595.15	46660.92
595.31	46972.21
595.47	46707.73
595.62	46827.10
595.78	46763.90
595.94	46897.31
596.10	46754.54
596.25	47063.49
596.41	47189.88
596.57	46684.33
596.73	47224.99
596.88	46885.61
597.04	47136.05
597.20	46976.89
597.36	46906.68
597.51	46684.33
597.67	46726.46
597.83	46916.04
597.99	47047.11
598.14	46733.48
598.30	46815.40
598.46	46791.99
598.61	47035.41
598.77	47047.11
598.93	46930.08
599.09	47154.77
599.24	47234.35
599.40	46911.36
599.56	46918.38
599.71	47327.97
599.87	47065.83
600.03	47154.77
600.18	47096.26
600.34	47164.14
600.50	47096.26
600.65	46871.57
600.81	47351.38
600.97	47400.53
601.12	47000.30
601.28	47283.50
601.44	46897.31
601.59	47161.79
601.75	47318.61
601.91	47344.36
602.06	47316.27
602.22	47463.72
602.37	46611.77
602.53	47098.60
602.69	47098.60
602.84	46986.25
603.00	46892.63
603.16	47035.41
603.31	47175.84
603.47	47084.56
603.62	47435.64
603.78	47325.63
603.94	46967.53
604.09	47260.10
604.25	46806.03
604.40	47159.45
604.56	46983.91
604.71	47276.48
604.87	46864.55
605.03	47051.79
605.18	46717.09
605.34	47278.82
605.49	46539.21
605.65	47131.37
605.80	47140.73
605.96	46630.49
606.12	47395.85
606.27	47222.65
606.43	46461.97
606.58	47114.98
606.74	46548.57
606.89	46728.80
607.05	46937.10
607.20	47075.19
607.36	46529.85
607.51	46852.84
607.67	47164.14
607.82	46997.96
607.98	46878.59
608.13	46904.34
608.29	46679.64
608.44	46906.68
608.60	46777.95
608.75	46974.55
608.91	46642.20
609.06	46281.75
609.22	46967.53
609.37	47103.28
609.53	47278.82
609.68	46923.06
609.84	46609.43
609.99	46728.80
610.15	46820.08
610.30	46080.47
610.46	46351.97
610.61	47019.02
610.76	47107.96
610.92	46405.80
611.07	46864.55
611.23	46293.46
611.38	46440.91
611.54	46948.81
611.69	47161.79
611.84	46834.12
612.00	46681.98
612.15	46461.97
612.31	46747.52
612.46	46033.66
612.62	46129.62
612.77	46469.00
612.92	46948.81
613.08	46286.43
613.23	46291.12
613.39	46239.62
613.54	46286.43
613.69	46625.81
613.85	46576.66
614.00	46286.43
614.15	46398.78
614.31	46075.79
614.46	46382.40
614.62	46110.89
614.77	46036.00
614.92	46478.36
615.08	46124.94
615.23	46534.53
615.38	46457.29
615.54	46162.39
615.69	46546.23
615.84	46045.36
616.00	46398.78
616.15	46274.73
616.30	46120.26
616.46	45970.46
616.61	45848.75
616.76	45848.75
616.92	46057.06
617.07	46136.64
617.22	45942.38
617.37	45722.37
617.53	45918.97
617.68	46052.38
617.83	46080.47
617.99	46457.29
618.14	46188.13
618.29	45626.40
618.45	45750.45
618.60	45621.72
618.75	45633.42
618.90	45914.29
619.06	46089.83
619.21	45649.81
619.36	46000.89
619.51	45750.45
619.67	45769.18
619.82	45652.15
619.97	46307.50
620.12	46068.76
620.28	45605.34
620.43	45755.13
620.58	45652.15
620.73	45862.80
620.89	46103.87
621.04	45532.78
621.19	45925.99
621.34	45883.86
621.49	45390.01
621.65	45890.88
621.80	45752.79
621.95	45549.17
622.10	45677.90
622.25	45378.31
622.41	45502.35
622.56	45366.60
622.71	45223.83
622.86	45771.52
623.01	45488.31
623.16	45600.66
623.32	45265.96
623.47	45956.42
623.62	45361.92
623.77	45280.00
623.92	45610.02
624.07	45151.27
624.23	45476.61
624.38	45291.71
624.53	45525.76
624.68	44896.16
624.83	44947.65
624.98	45287.03
625.13	44975.73
625.29	44690.19
625.44	45048.29
625.59	45057.65
625.74	45125.53
625.89	45104.46
626.04	44884.45
626.19	44751.04
626.34	44521.67
626.49	44376.56
626.65	44589.55
626.80	44851.69
626.95	44488.90
627.10	44266.55
627.25	44421.03
627.40	44760.40
627.55	44170.59
627.70	44444.43
627.85	44605.93
628.00	44446.77
628.15	44584.86
628.30	43908.45
628.45	44397.62
628.60	44210.38
628.76	44121.44
628.91	44554.44
629.06	44011.43
629.21	44210.38
629.36	44390.60
629.51	44093.35
629.66	44751.04
629.81	44421.03
629.96	44322.72
630.11	44182.29
630.26	44041.86
630.41	43845.26
630.56	43658.01
630.71	44135.48
630.86	44208.04
631.01	44002.07
631.16	43777.38
631.31	43959.94
631.46	44126.12
631.61	44355.49
631.76	44163.57
631.91	44186.97
632.06	44060.58
632.21	44212.72
632.36	44533.37
632.51	43510.56
632.66	44479.54
632.81	43779.72
632.96	44083.99
633.10	43875.68
633.25	43772.70
633.40	43622.90
633.55	44055.90
633.70	43234.38
633.85	43175.86
634.00	43735.25
634.15	43033.09
634.30	43037.77
634.45	43257.78
634.60	43491.83
634.75	43683.76
634.90	43234.38
635.05	43674.40
635.19	42979.26
635.34	43510.56
635.49	43320.98
635.64	43606.52
635.79	43480.13
635.94	43491.83
636.09	43386.51
636.24	43079.90
636.39	43564.39
636.53	43358.42
636.68	43072.88
636.83	43182.88
636.98	43157.14
637.13	42539.24
637.28	43145.44
637.43	42843.51
637.57	43129.05
637.72	42969.90
637.87	42436.25
638.02	43070.54
638.17	42873.93
638.32	42876.27
638.46	42356.67
638.61	42300.50
638.76	42043.04
638.91	42724.14
639.06	42780.31
639.20	42405.83
639.35	42092.19
639.50	42579.03
639.65	42162.41
639.80	42705.41
639.94	42937.13
640.09	42602.43
640.24	42883.30
640.39	42014.96
640.54	42073.47
640.68	42600.09
640.83	42667.97
640.98	42202.20
641.13	42106.24
641.27	43028.41
641.42	42454.98
641.57	42045.38
641.72	42787.33
641.86	42211.56
642.01	41900.27
642.16	42087.51
642.31	41624.09
642.45	42319.23
642.60	41813.67
642.75	41954.10
642.90	41916.65
643.04	42143.69
643.19	42101.56
643.34	41422.80
643.48	41673.24
643.63	41713.03
643.78	41689.62
643.93	42316.89
644.07	42319.23
644.22	41741.11
644.37	41729.41
644.51	41851.12
644.66	41844.10
644.81	41848.78
644.95	41680.26
645.10	41411.10
645.25	41869.84
645.39	41392.37
645.54	41703.67
645.69	41443.87
645.83	41497.70
645.98	41471.95
646.13	41251.94
646.27	41247.26
646.42	40945.33
646.57	41200.45
646.71	41848.78
646.86	41860.48
647.00	41844.10
647.15	41216.83
647.30	41375.99
647.44	41090.44
647.59	40928.95
647.74	41097.47
647.88	41130.23
648.03	41511.74
648.17	41593.66
648.32	41734.09
648.47	41401.74
648.61	40886.82
648.76	41076.40
648.90	41289.39
649.05	41340.88
649.20	41366.63
649.34	41191.09
649.49	41053.00
649.63	40868.09
649.78	41301.09
649.92	41467.27
650.07	41443.87
650.21	41507.06
650.36	41137.26
650.51	41216.83
650.65	41036.61
650.80	41088.10
650.94	40584.89
651.09	40828.30
651.23	40463.18
651.38	40790.86
651.52	40528.72
651.67	40271.26
651.81	40587.23
651.96	40486.59
652.10	40458.50
652.25	40491.27
652.39	40556.80
652.54	40722.98
652.68	40713.62
652.83	40645.74
652.97	40617.66
653.12	40456.16
653.26	40395.31
653.41	40594.25
653.55	40657.45
653.70	40631.70
653.84	40163.59
653.99	40641.06
654.13	40341.47
654.27	40179.98
654.42	40114.44
654.56	40421.05
654.71	40224.45
654.85	40369.56
655.00	40292.32
655.14	40306.37
655.29	40502.97
655.43	40273.60
655.57	40079.33
655.72	39786.77
655.86	39906.13
656.01	39442.71
656.15	40034.86
656.30	39821.87
656.44	40065.29
656.58	40062.95
656.73	39728.25
656.87	39428.66
657.01	39674.42
657.16	39964.65
657.30	39704.85
657.45	39917.84
657.59	39522.29
657.73	39192.27
657.88	39278.87
658.02	39728.25
658.16	39910.82
658.31	39777.40
658.45	39358.45
658.60	39533.99
658.74	39414.62
658.88	39313.98
659.03	39627.61
659.17	38703.10
659.31	39250.78
659.46	38883.32
659.60	39122.05
659.74	38649.27
659.89	38888.00
660.03	38536.92
660.17	38841.19
660.32	39002.69
660.46	38897.36
660.60	38417.55
660.74	38831.83
660.89	38815.44
661.03	38190.52
661.17	38373.08
661.32	38490.11
661.46	38623.52
661.60	38572.03
661.74	38024.34
661.89	38132.01
662.03	38473.73
662.17	38396.49
662.31	38220.95
662.46	38419.89
662.60	37851.14
662.74	37790.29
662.88	38190.52
663.03	37867.53
663.17	37738.80
663.31	37640.50
663.45	37804.33
663.60	38089.88
663.74	37902.64
663.88	37514.11
664.02	37380.70
664.17	38059.45
664.31	37326.86
664.45	37050.68
664.59	37287.07
664.73	37148.98
664.88	37240.26
665.02	36964.08
665.16	36886.84
665.30	37240.26
665.44	37102.17
665.59	36921.95
665.73	37088.13
665.87	36570.87
666.01	36751.09
666.15	36907.91
666.29	36615.34
666.44	37254.31
666.58	36690.24
666.72	36219.79
666.86	36285.33
667.00	36865.78
667.14	36322.77
667.28	36542.78
667.43	36208.09
667.57	36807.26
667.71	36622.36
667.85	36605.98
667.99	36233.83
668.13	36210.43
668.27	35824.24
668.41	36053.61
668.56	35711.89
668.70	35807.86
668.84	34993.35
668.98	35292.94
669.12	35894.46
669.26	35508.27
669.40	35721.26
669.54	35576.14
669.68	35634.66
669.82	35194.64
669.96	35290.60
670.10	34719.51
670.25	35232.08
670.39	35054.20
670.53	35206.34
670.67	35426.35
670.81	35337.41
670.95	35215.70
671.09	34946.54
671.23	34422.26
671.37	34782.70
671.51	34677.38
671.65	34679.72
671.79	34536.94
671.93	34354.38
672.07	34396.51
672.21	34443.32
672.35	33895.64
672.49	34188.21
672.63	33869.89
672.77	34319.28
672.91	34298.21
673.05	33514.13
673.19	33572.64
673.33	33390.08
673.47	33359.66
673.61	33619.46
673.75	33326.89
673.89	33027.30
674.03	33041.34
674.17	33193.48
674.31	33130.28
674.45	33102.20
674.59	33010.92
674.73	33050.70
674.87	32666.86
675.01	32472.59
675.15	32357.91
675.29	32533.45
675.43	32201.09
675.56	32669.20
675.70	32430.46
675.84	31952.99
675.98	31068.27
676.12	32173.00
676.26	32189.39
676.40	31896.82
676.54	31534.04
676.68	31637.02
676.82	30972.31
676.96	31662.77
677.10	31627.66
677.23	31353.82
677.37	31274.24
677.51	30993.37
677.65	31409.99
677.79	30881.03
677.93	31082.31
678.07	30862.30
678.21	30558.03
678.34	30281.85
678.48	30396.54
678.62	30815.49
678.76	30331.00
678.90	30209.29
679.04	30307.60
679.18	30331.00
679.31	29935.45
679.45	29771.61
679.59	29778.64
679.73	30045.46
679.87	29673.31
680.00	29741.19
680.14	29376.06
680.28	29376.06
680.42	29362.02
680.56	28896.25
680.70	28994.56
680.83	29137.33
680.97	28840.08
681.11	28687.95
681.25	28790.93
681.39	28224.52
681.52	28734.76
681.66	28142.60
681.80	28290.06
681.94	27524.70
682.07	27786.84
682.21	28044.30
682.35	27634.71
682.49	27967.06
682.62	27564.49
682.76	27569.17
682.90	27723.65
683.04	27618.32
683.17	27470.87
683.31	27295.33
683.45	27002.76
683.59	26340.39
683.72	26984.04
683.86	26689.13
684.00	26817.86
684.13	26565.08
684.27	26518.27
684.41	26569.76
684.55	26487.84
684.68	25993.99
684.82	25921.43
684.96	25963.56
685.09	25937.82
685.23	25844.20
685.37	26089.95
685.50	26651.68
685.64	25813.77
685.78	25675.68
685.91	25448.64
686.05	25380.77
686.19	24917.34
686.32	25153.74
686.46	24706.70
686.60	25132.67
686.73	24996.92
686.87	24952.45
687.01	24702.01
687.14	24769.89
687.28	24538.18
687.42	24589.67
687.55	24236.25
687.69	24592.01
687.82	24105.18
687.96	24067.73
688.10	23985.81
688.23	24119.22
688.37	24018.58
688.50	24233.91
688.64	23770.48
688.78	23728.35
688.91	23508.34
689.05	23487.28
689.18	22955.97
689.32	22941.93
689.46	22899.80
689.59	23183.01
689.73	23447.49
689.86	22970.02
690.00	23197.05
690.13	22820.22
690.27	22815.54
690.41	22532.34
690.54	22597.87
690.68	22455.10
690.81	22080.61
690.95	22036.14
691.08	21848.90
691.22	22024.44
691.35	21727.19
691.49	22099.34
691.62	21596.12
691.76	21518.89
691.89	21263.77
692.03	21436.97
692.16	21301.22
692.30	20779.28
692.43	21139.72
692.57	20732.47
692.70	21149.08
692.84	20844.81
692.97	20678.63
693.11	20446.92
693.24	20418.83
693.38	20383.73
693.51	20360.32
693.65	20290.10
693.78	20180.10
693.92	19967.11
694.05	20058.39
694.19	19889.87
694.32	20180.10
694.45	20283.08
694.59	19997.54
694.72	19971.79
694.86	19557.52
694.99	19513.05
695.13	19356.23
695.26	19234.52
695.39	19171.33
695.53	19180.69
695.66	19386.66
695.80	18850.67
695.93	19147.92
696.07	18902.17
696.20	18642.37
696.33	18394.27
696.47	18368.52
696.60	18408.31
696.73	18860.04
696.87	18342.78
697.00	18448.10
697.14	18394.27
697.27	17881.69
697.40	18080.64
697.54	17884.03
697.67	18033.83
697.80	17855.95
697.94	17699.13
698.07	17755.30
698.21	17596.15
698.34	17436.99
698.47	17195.92
698.61	17078.89
698.74	17142.08
698.87	17088.25
699.01	16769.94
699.14	16919.73
699.27	16833.13
699.40	16659.93
699.54	16500.78
699.67	16526.52
699.80	16650.57
699.94	16613.12
700.07	16397.79
700.20	16266.72
700.34	16140.33
700.47	16250.34
700.60	16077.14
700.73	16196.51
700.87	15704.99
701.00	15838.41
701.13	15344.55
701.26	15522.43
701.40	15616.05
701.53	15597.33
701.66	15644.14
701.79	15405.41
701.93	15384.34
702.06	14920.92
702.19	15094.11
702.32	15154.97
702.46	15101.14
702.59	15286.04
702.72	15014.54
702.85	15059.01
702.99	15096.46
703.12	14794.53
703.25	14590.90
703.38	14642.39
703.51	14303.01
703.65	14291.31
703.78	14129.81
703.91	14059.60
704.04	14195.35
704.17	14036.19
704.31	14026.83
704.44	13989.38
704.57	13778.73
704.70	13738.94
704.83	13593.83
704.96	13429.99
705.10	13535.32
705.23	13446.38
>>>>>End Processed Spectral Data<<<<<
