SpectraSuite Data File
++++++++++++++++++++++++++++++++++++
Date: Fri Oct 25 11:34:25 EDT 2013
User: price-jones
Dark Spectrum Present: No
Reference Spectrum Present: No
Number of Sampled Component Spectra: 1
Spectrometers: USB2+H05261
Integration Time (usec): 100000 (USB2+H05261)
Spectra Averaged: 1 (USB2+H05261)
Boxcar Smoothing: 0 (USB2+H05261)
Correct for Electrical Dark: No (USB2+H05261)
Strobe/Lamp Enabled: No (USB2+H05261)
Correct for Detector Non-linearity: No (USB2+H05261)
Correct for Stray Light: No (USB2+H05261)
Number of Pixels in Processed Spectrum: 2048
>>>>>Begin Processed Spectral Data<<<<<
365.73	337.04
365.92	337.04
366.12	337.04
366.32	203.63
366.52	170.86
366.72	222.35
366.91	149.79
367.11	170.86
367.31	196.60
367.51	201.29
367.70	152.13
367.90	198.95
368.10	187.24
368.30	126.39
368.49	220.01
368.69	229.37
368.89	252.78
369.09	196.60
369.28	243.42
369.48	224.69
369.68	131.07
369.87	266.82
370.07	250.44
370.27	292.57
370.47	311.29
370.66	393.21
370.86	477.47
371.06	533.64
371.25	550.03
371.45	580.45
371.65	554.71
371.84	524.28
372.04	519.60
372.24	503.22
372.44	479.81
372.63	594.50
372.83	587.47
373.03	615.56
373.22	550.03
373.42	636.63
373.62	550.03
373.81	629.60
374.01	650.67
374.21	660.03
374.40	655.35
374.60	641.31
374.79	653.01
374.99	683.44
375.19	648.33
375.38	650.67
375.58	643.65
375.78	634.29
375.97	664.71
376.17	690.46
376.37	751.31
376.56	657.69
376.76	641.31
376.95	643.65
377.15	744.29
377.35	631.94
377.54	631.94
377.74	685.78
377.93	662.37
378.13	685.78
378.33	713.86
378.52	734.93
378.72	681.10
378.91	643.65
379.11	760.67
379.31	695.14
379.50	674.07
379.70	751.31
379.89	683.44
380.09	709.18
380.28	615.56
380.48	795.78
380.68	765.36
380.87	676.41
381.07	676.41
381.26	779.40
381.46	791.10
381.65	800.46
381.85	774.72
382.04	631.94
382.24	674.07
382.43	716.20
382.63	746.63
382.83	814.51
383.02	746.63
383.22	711.52
383.41	763.01
383.61	866.00
383.80	739.61
384.00	760.67
384.19	840.25
384.39	877.70
384.58	844.93
384.78	856.64
384.97	765.36
385.17	746.63
385.36	816.85
385.56	709.18
385.75	748.97
385.95	821.53
386.14	807.48
386.34	812.17
386.53	786.42
386.72	854.30
386.92	926.85
387.11	891.74
387.31	945.58
387.50	807.48
387.70	840.25
387.89	833.23
388.09	924.51
388.28	837.91
388.48	905.79
388.67	973.66
388.86	814.51
389.06	847.27
389.25	901.11
389.45	856.64
389.64	978.34
389.84	959.62
390.03	903.45
390.22	926.85
390.42	940.90
390.61	924.51
390.81	894.08
391.00	1062.60
391.19	1006.43
391.39	976.00
391.58	1001.75
391.78	947.92
391.97	978.34
392.16	1104.73
392.36	1013.45
392.55	1083.67
392.75	1043.88
392.94	1053.24
393.13	1022.81
393.33	1025.15
393.52	1067.28
393.71	1095.37
393.91	1027.50
394.10	968.98
394.29	1090.69
394.49	1074.31
394.68	1104.73
394.88	1053.24
395.07	1114.10
395.26	1102.39
395.46	1034.52
395.65	1144.52
395.84	1167.93
396.04	1116.44
396.23	1060.26
396.42	1109.41
396.62	1156.22
396.81	1186.65
397.00	1123.46
397.19	1224.10
397.39	1184.31
397.58	1217.08
397.77	1191.33
397.97	1249.85
398.16	1254.53
398.35	1289.64
398.55	1212.40
398.74	1256.87
398.93	1277.93
399.12	1193.67
399.32	1282.61
399.51	1235.80
399.70	1294.32
399.90	1394.96
400.09	1341.13
400.28	1380.92
400.47	1390.28
400.67	1430.07
400.86	1357.51
401.05	1397.30
401.24	1334.11
401.44	1397.30
401.63	1453.47
401.82	1390.28
402.01	1331.76
402.21	1430.07
402.40	1432.41
402.59	1427.73
402.78	1444.11
402.97	1486.24
403.17	1577.52
403.36	1490.92
403.55	1530.71
403.74	1603.27
403.93	1647.74
404.13	1516.67
404.32	1530.71
404.51	1528.37
404.70	1650.08
404.89	1493.26
405.09	1629.01
405.28	1586.88
405.47	1722.63
405.66	1621.99
405.85	1703.91
406.05	1619.65
406.24	1671.14
406.43	1717.95
406.62	1699.23
406.81	1795.19
407.00	1802.21
407.20	1734.34
407.39	1724.97
407.58	1886.47
407.77	1776.47
407.96	1778.81
408.15	1842.00
408.34	1849.02
408.54	1856.04
408.73	1842.00
408.92	1851.36
409.11	1795.19
409.30	1933.28
409.49	1930.94
409.68	1947.33
409.87	1975.41
410.07	2085.42
410.26	1961.37
410.45	1947.33
410.64	2092.44
410.83	2033.93
411.02	1989.46
411.21	2090.10
411.40	1994.14
411.59	2087.76
411.78	2101.80
411.98	2155.63
412.17	2272.66
412.36	2193.08
412.55	2300.75
412.74	2403.73
412.93	2279.68
413.12	2160.31
413.31	2366.28
413.50	2375.64
413.69	2356.92
413.88	2504.37
414.07	2305.43
414.26	2356.92
414.45	2511.39
414.64	2469.27
414.83	2403.73
415.02	2551.18
415.22	2436.50
415.41	2595.65
415.60	2614.38
415.79	2703.32
415.98	2497.35
416.17	2600.34
416.36	2654.17
416.55	2586.29
416.74	2726.72
416.93	2679.91
417.12	2731.41
417.31	2729.06
417.50	2738.43
417.69	2789.92
417.88	2705.66
418.07	2818.00
418.26	2761.83
418.45	2740.77
418.64	2949.08
418.83	2913.97
419.02	2946.73
419.21	2944.39
419.39	3028.65
419.58	2810.98
419.77	2913.97
419.96	3073.12
420.15	3007.59
420.34	3073.12
420.53	3080.14
420.72	3131.64
420.91	3122.27
421.10	3084.83
421.29	3080.14
421.48	3080.14
421.67	3288.45
421.86	3129.30
422.05	3115.25
422.24	3115.25
422.43	3201.85
422.61	3246.32
422.80	3344.63
422.99	3337.60
423.18	3138.66
423.37	3452.29
423.56	3222.92
423.75	3185.47
423.94	3157.38
424.13	3056.74
424.32	3197.17
424.50	3279.09
424.69	3363.35
424.88	3346.97
425.07	3297.81
425.26	3199.51
425.45	3297.81
425.64	3213.56
425.83	3190.15
426.01	3424.20
426.20	3384.41
426.39	3293.13
426.58	3281.43
426.77	3295.47
426.96	3337.60
427.15	3494.42
427.33	3351.65
427.52	3501.44
427.71	3300.16
427.90	3569.32
428.09	3485.06
428.28	3557.61
428.46	3487.40
428.65	3468.67
428.84	3557.61
429.03	3660.60
429.22	3520.17
429.40	3641.87
429.59	3641.87
429.78	3482.72
429.97	3421.86
430.16	3644.21
430.34	3698.05
430.53	3866.56
430.72	3740.18
430.91	3744.86
431.10	3728.47
431.28	3854.86
431.47	4011.68
431.66	3918.06
431.85	3655.92
432.03	3770.60
432.22	3957.85
432.41	4021.04
432.60	4037.42
432.79	3911.04
432.97	3908.69
433.16	3990.61
433.35	3899.33
433.54	3981.25
433.72	4091.26
433.91	4023.38
434.10	4007.00
434.28	4088.92
434.47	3960.19
434.66	4084.23
434.85	4084.23
435.03	4067.85
435.22	4208.28
435.41	4180.20
435.59	4203.60
435.78	4257.43
435.97	4131.05
436.16	4196.58
436.34	4175.52
436.53	4395.53
436.72	4400.21
436.90	4245.73
437.09	4351.06
437.28	4224.67
437.46	4313.61
437.65	4376.80
437.84	4381.48
438.02	4456.38
438.21	4376.80
438.40	4358.08
438.58	4641.28
438.77	4667.03
438.96	4559.36
439.14	4582.77
439.33	4760.65
439.52	4751.29
439.70	4674.05
439.89	4922.15
440.08	4828.53
440.26	4849.59
440.45	4901.08
440.63	4716.18
440.82	5025.13
441.01	5053.22
441.19	4947.89
441.38	4931.51
441.57	5130.45
441.75	5060.24
441.94	5135.14
442.12	5095.35
442.31	5341.10
442.50	5177.26
442.68	5238.12
442.87	5345.78
443.05	5252.16
443.24	5341.10
443.43	5298.97
443.61	5430.04
443.80	5565.79
443.98	5142.16
444.17	4990.02
444.35	5343.44
444.54	5556.43
444.73	5390.25
444.91	5331.74
445.10	5406.64
445.28	5465.15
445.47	5416.00
445.65	5533.03
445.84	5535.37
446.02	5619.63
446.21	5322.38
446.39	5483.88
446.58	5643.03
446.77	5413.66
446.95	5448.77
447.14	5401.96
447.32	5631.33
447.51	5394.93
447.69	5481.53
447.88	5582.18
448.06	5575.16
448.25	5523.66
448.43	5570.48
448.62	5556.43
448.80	5584.52
448.99	5666.44
449.17	5727.29
449.36	5582.18
449.54	5837.30
449.73	5715.59
449.91	5933.26
450.10	5837.30
450.28	6061.99
450.46	5863.04
450.65	5743.67
450.83	5914.53
451.02	6040.92
451.20	5916.87
451.39	5980.07
451.57	5785.80
451.76	5893.47
451.94	5947.30
452.13	6136.88
452.31	6094.76
452.49	6024.54
452.68	6054.97
452.86	6012.84
453.05	6195.40
453.23	6232.85
453.42	6033.90
453.60	6033.90
453.78	6076.03
453.97	6127.52
454.15	6080.71
454.34	5996.45
454.52	6361.58
454.70	6204.76
454.89	6335.83
455.07	6324.13
455.26	6328.81
455.44	6305.40
455.62	6420.09
455.81	6459.88
455.99	6413.07
456.17	6469.24
456.36	6342.85
456.54	6558.18
456.73	6726.70
456.91	6771.17
457.09	6520.73
457.28	6862.45
457.46	6588.61
457.64	6654.14
457.83	6633.08
458.01	6722.02
458.19	6956.07
458.38	6668.19
458.56	6935.01
458.74	6832.02
458.93	6820.32
459.11	6958.41
459.29	6883.52
459.48	6871.81
459.66	7070.76
459.84	7016.93
460.03	7199.49
460.21	7005.22
460.39	7178.42
460.57	7178.42
460.76	7197.15
460.94	7129.27
461.12	7262.68
461.31	7110.55
461.49	7115.23
461.67	7140.97
461.85	7138.63
462.04	7349.28
462.22	7906.33
462.40	7363.33
462.59	7353.96
462.77	7447.58
462.95	7609.08
463.13	7442.90
463.32	7482.69
463.50	7716.75
463.68	7702.70
463.86	7576.31
464.05	7513.12
464.23	7431.20
464.41	7733.13
464.59	7639.51
464.78	7747.17
464.96	7892.29
465.14	7571.63
465.32	7602.06
465.50	7880.58
465.69	8070.17
465.87	7915.69
466.05	7761.22
466.23	7978.89
466.41	7929.74
466.60	7964.84
466.78	7777.60
466.96	7824.41
467.14	7709.72
467.32	7864.20
467.51	8198.90
467.69	7761.22
467.87	8004.63
468.05	8065.49
468.23	8037.40
468.41	7997.61
468.60	7875.90
468.78	8180.17
468.96	8177.83
469.14	8028.04
469.32	8264.43
469.50	8016.33
469.69	8360.39
469.87	8278.47
470.05	8332.31
470.23	8177.83
470.41	8491.46
470.59	8503.17
470.77	8498.49
470.95	8514.87
471.14	8636.58
471.32	8521.89
471.50	8718.50
471.68	8755.94
471.86	8856.59
472.04	8971.27
472.22	8847.22
472.40	8767.65
472.58	8854.25
472.77	8999.36
472.95	8812.12
473.13	9317.67
473.31	9013.40
473.49	9018.08
473.67	9341.08
473.85	9282.56
474.03	9423.00
474.21	9207.67
474.39	9518.96
474.57	9308.31
474.75	9572.79
474.93	9390.23
475.12	9760.03
475.30	9720.24
475.48	9647.69
475.66	9645.35
475.84	9671.09
476.02	9724.93
476.20	9657.05
476.38	9856.00
476.56	10260.91
476.74	10045.58
476.92	10010.47
477.10	10003.45
477.28	10373.25
477.46	10146.22
477.64	10469.22
477.82	10579.22
478.00	10773.49
478.18	10682.20
478.36	10626.03
478.54	10920.94
478.72	10906.90
478.90	10953.71
479.08	11290.74
479.26	11087.12
479.44	11274.36
479.62	11501.39
479.80	11199.46
479.98	11218.19
480.16	11850.13
480.34	11630.12
480.52	11618.42
480.70	11803.32
480.88	11845.45
481.06	11817.36
481.24	11796.30
481.41	12039.72
481.59	12189.51
481.77	12444.63
481.95	12393.14
482.13	12243.34
482.31	12390.80
482.49	12910.40
482.67	13043.81
482.85	12910.40
483.03	13097.64
483.21	13102.32
483.39	13334.03
483.57	13254.45
483.74	13188.92
483.92	13408.93
484.10	13284.88
484.28	13731.92
484.46	13907.46
484.64	14167.26
484.82	13907.46
485.00	14033.85
485.18	14132.15
485.35	14438.76
485.53	14370.89
485.71	14551.11
485.89	14857.72
486.07	14761.76
486.25	14864.74
486.43	14927.94
486.61	15070.71
486.78	15197.10
486.96	15145.61
487.14	15281.36
487.32	15288.38
487.50	15878.19
487.68	15723.72
487.85	15653.50
488.03	15976.50
488.21	16187.14
488.39	16367.37
488.57	16505.46
488.75	16147.36
488.92	16657.59
489.10	16554.61
489.28	16648.23
489.46	16982.93
489.64	17057.82
489.81	17598.49
489.99	17352.73
490.17	17198.26
490.35	17479.12
490.53	17722.54
490.70	17926.16
490.88	17846.58
491.06	18061.91
491.24	18260.86
491.41	18263.20
491.59	18443.42
491.77	18642.37
491.95	18658.75
492.13	18824.93
492.30	18810.89
492.48	18934.93
492.66	18998.13
492.84	19110.47
493.01	19360.91
493.19	19192.39
493.37	19246.23
493.54	19508.37
493.72	19573.90
493.90	19838.38
494.08	19679.22
494.25	20189.46
494.43	19983.49
494.61	20341.60
494.79	20205.84
494.96	20102.86
495.14	20568.63
495.32	20849.49
495.49	20758.21
495.67	21221.64
495.85	21280.15
496.02	21287.17
496.20	21404.20
496.38	21425.26
496.55	21352.71
496.73	21834.86
496.91	21502.50
497.09	21834.86
497.26	21942.52
497.44	22052.53
497.62	22347.44
497.79	22417.65
497.97	22576.81
498.14	22864.69
498.32	22588.51
498.50	22574.47
498.67	22810.86
498.85	23030.87
499.03	22986.40
499.20	23761.12
499.38	23026.19
499.56	23218.11
499.73	23276.63
499.91	23770.48
500.08	23707.29
500.26	23676.86
500.44	23840.70
500.61	23800.91
500.79	23754.10
500.97	23735.37
501.14	24456.26
501.32	24231.57
501.49	24283.06
501.67	24247.95
501.84	24442.21
502.02	24566.26
502.20	24479.66
502.37	24510.09
502.55	24844.79
502.72	24929.05
502.90	24821.38
503.07	24699.67
503.25	24718.40
503.43	24800.32
503.60	24924.36
503.78	25057.78
503.95	25221.61
504.13	25387.79
504.30	25127.99
504.48	25682.70
504.65	25731.85
504.83	25951.86
505.01	25809.09
505.18	25893.35
505.36	26321.66
505.53	25853.56
505.71	26174.21
505.88	26045.48
506.06	26169.53
506.23	26518.27
506.41	26162.51
506.58	26726.58
506.76	26576.78
506.93	26616.57
507.11	26501.89
507.28	27072.98
507.46	27182.98
507.63	27042.55
507.81	27580.87
507.98	27152.55
508.16	27346.82
508.33	27447.46
508.50	27349.16
508.68	27452.14
508.85	27747.05
509.03	27831.31
509.20	27955.36
509.38	28060.68
509.55	28105.15
509.73	28201.11
509.90	27985.79
510.08	28313.46
510.25	28231.54
510.42	28339.21
510.60	28510.07
510.77	28362.61
510.95	28694.97
511.12	28393.04
511.30	28655.18
511.47	28692.63
511.64	28835.40
511.82	29289.46
511.99	28966.47
512.17	28947.75
512.34	29214.57
512.51	29596.07
512.69	29907.37
512.86	29661.61
513.04	29759.91
513.21	29392.45
513.38	29757.57
513.56	29734.17
513.73	29628.84
513.90	29804.38
514.08	30103.97
514.25	30192.91
514.43	30237.38
514.60	30230.36
514.77	30326.32
514.95	30419.94
515.12	30628.25
515.29	30316.96
515.47	30773.36
515.64	30895.07
515.81	30815.49
515.99	30768.68
516.16	31044.87
516.33	31260.20
516.51	30976.99
516.68	31096.36
516.85	30888.05
517.03	31307.01
517.20	31807.88
517.37	31611.28
517.54	31318.71
517.72	31393.61
517.89	31559.78
518.06	31955.33
518.24	31562.12
518.41	31442.76
518.58	31608.93
518.75	31728.30
518.93	31861.71
519.10	31835.97
519.27	31894.48
519.45	31803.20
519.62	32416.42
519.79	32404.72
519.96	32116.83
520.14	32203.43
520.31	32451.53
520.48	32919.63
520.65	32697.28
520.83	33041.34
521.00	32676.22
521.17	32734.73
521.34	33141.99
521.52	33027.30
521.69	32891.55
521.86	32971.13
522.03	33193.48
522.20	33371.36
522.38	33532.86
522.55	33862.87
522.72	33523.49
522.89	33132.62
523.07	34066.50
523.24	33556.26
523.41	34040.75
523.58	33759.89
523.75	33865.21
523.92	33729.46
524.10	34258.42
524.27	34115.65
524.44	33979.90
524.61	34567.37
524.78	34440.98
524.96	34574.39
525.13	34665.67
525.30	35033.14
525.47	34660.99
525.64	34827.17
525.81	34881.00
525.98	34885.68
526.16	34862.28
526.33	34768.66
526.50	34888.03
526.67	34450.35
526.84	35166.55
527.01	35028.46
527.18	35587.85
527.36	35220.38
527.53	35414.65
527.70	35473.16
527.87	35253.15
528.04	35475.50
528.21	35541.03
528.38	35379.54
528.55	35852.33
528.72	35449.75
528.89	35269.53
529.07	35964.67
529.24	35686.15
529.41	35985.74
529.58	35749.34
529.75	35981.06
529.92	36175.32
530.09	36114.47
530.26	36395.33
530.43	36224.47
530.60	36266.60
530.77	36013.82
530.94	36123.83
531.11	36362.56
531.28	36432.78
531.46	36320.43
531.63	36582.57
531.80	36708.96
531.97	36437.46
532.14	36357.88
532.31	36748.75
532.48	37132.60
532.65	37165.37
532.82	36903.23
532.99	36818.97
533.16	36636.41
533.33	37123.24
533.50	37013.23
533.67	36898.55
533.84	36914.93
534.01	37109.19
534.18	37315.16
534.35	37357.29
534.52	37357.29
534.69	37801.99
534.86	37418.14
535.03	37640.50
535.20	37860.51
535.37	37825.40
535.54	37572.62
535.71	37710.71
535.88	38033.71
536.05	37816.04
536.22	38263.08
536.38	37867.53
536.55	38153.07
536.72	38148.39
536.89	37769.22
537.06	38375.42
537.23	38721.82
537.40	38129.67
537.57	38300.53
537.74	37972.85
537.91	38106.26
538.08	38352.02
538.25	38412.87
538.42	38073.49
538.59	39009.71
538.75	38550.96
538.92	38588.41
539.09	38740.55
539.26	38649.27
539.43	38988.64
539.60	38845.87
539.77	38866.94
539.94	39007.37
540.11	39384.19
540.28	38979.28
540.44	38876.30
540.61	39091.63
540.78	38508.83
540.95	39070.56
541.12	39185.25
541.29	39180.57
541.46	39452.07
541.62	39419.30
541.79	39515.26
541.96	39679.10
542.13	38831.83
542.30	39456.75
542.47	39594.84
542.63	39796.13
542.80	39948.26
542.97	40006.78
543.14	40065.29
543.31	39763.36
543.48	39807.83
543.64	40610.64
543.81	40481.91
543.98	40243.17
544.15	39992.73
544.32	40545.10
544.48	40570.85
544.65	40428.07
544.82	40582.55
544.99	40315.73
545.16	40425.73
545.32	40126.14
545.49	40802.56
545.66	41060.02
545.83	40423.39
546.00	41158.32
546.16	40601.27
546.33	40849.37
546.50	40243.17
546.67	41134.92
546.83	40397.65
547.00	41212.15
547.17	40744.05
547.34	40435.10
547.50	41010.87
547.67	41420.46
547.84	41434.50
548.00	41453.23
548.17	41429.82
548.34	41586.64
548.51	41570.25
548.67	41411.10
548.84	41446.21
549.01	40987.46
549.18	41202.79
549.34	41434.50
549.51	41291.73
549.68	41610.04
549.84	41371.31
550.01	42120.28
550.18	41385.35
550.34	41511.74
550.51	41804.31
550.68	42148.37
550.84	41626.43
551.01	41853.46
551.18	41741.11
551.34	41647.49
551.51	42249.01
551.68	42293.48
551.84	41830.05
552.01	41794.95
552.18	41956.44
552.34	42237.31
552.51	42197.52
552.68	41752.82
552.84	42344.97
553.01	42335.61
553.18	42361.36
553.34	42272.42
553.51	42335.61
553.67	42232.63
553.84	42569.66
554.01	42522.85
554.17	42656.26
554.34	42859.89
554.51	42759.25
554.67	43220.33
554.84	42960.53
555.00	42452.64
555.17	42895.00
555.33	43320.98
555.50	42686.69
555.67	42574.34
555.83	42930.11
556.00	43180.54
556.16	43512.90
556.33	43143.09
556.50	43115.01
556.66	43241.40
556.83	42614.13
556.99	43290.55
557.16	43519.92
557.32	43388.85
557.49	43243.74
557.65	43269.48
557.82	43236.72
557.98	43435.66
558.15	42974.58
558.32	43143.09
558.48	43136.07
558.65	42953.51
558.81	43093.94
558.98	43232.04
559.14	43250.76
559.31	43414.60
559.47	43185.22
559.64	43739.93
559.80	43533.96
559.97	44116.76
560.13	43636.95
560.30	43768.02
560.46	44137.82
560.63	43817.17
560.79	43948.24
560.96	44179.95
561.12	43601.84
561.29	43548.01
561.45	43625.25
561.61	43192.25
561.78	44076.97
561.94	43983.35
562.11	43812.49
562.27	43910.79
562.44	44306.34
562.60	43847.60
562.77	44315.70
562.93	43435.66
563.10	44451.45
563.26	44107.40
563.42	44203.36
563.59	44062.93
563.75	44374.22
563.92	44135.48
564.08	43777.38
564.24	44369.54
564.41	43973.98
564.57	44566.14
564.74	44205.70
564.90	43852.28
565.07	44271.23
565.23	44575.50
565.39	44388.26
565.56	44280.60
565.72	44065.27
565.88	44037.18
566.05	44088.67
566.21	44486.56
566.38	44332.09
566.54	44392.94
566.70	44514.65
566.87	44037.18
567.03	44086.33
567.19	44598.91
567.36	44755.72
567.52	44561.46
567.68	44563.80
567.85	44369.54
568.01	44886.79
568.17	45052.97
568.34	44758.06
568.50	44493.58
568.66	44584.86
568.83	44505.29
568.99	44519.33
569.15	44406.98
569.32	44638.70
569.48	45003.82
569.64	44912.54
569.81	44755.72
569.97	44788.49
570.13	44992.12
570.30	44552.10
570.46	44788.49
570.62	44816.58
570.78	44774.45
570.95	44793.17
571.11	44978.07
571.27	44566.14
571.43	44786.15
571.60	45291.71
571.76	44575.50
571.92	44573.16
572.09	45263.62
572.25	45097.44
572.41	45081.06
572.57	44910.20
572.74	45125.53
572.90	44987.44
573.06	45378.31
573.22	44809.56
573.38	45085.74
573.55	45071.70
573.71	45600.66
573.87	45141.91
574.03	45256.60
574.20	45146.59
574.36	45017.86
574.52	45333.84
574.68	44811.90
574.84	45188.72
575.01	45102.12
575.17	45626.40
575.33	44947.65
575.49	44912.54
575.65	44889.13
575.82	45219.15
575.98	44882.11
576.14	45621.72
576.30	45223.83
576.46	44973.39
576.62	45315.11
576.79	44790.83
576.95	44734.66
577.11	44980.42
577.27	45181.70
577.43	45059.99
577.59	44903.18
577.75	45081.06
577.92	44839.98
578.08	45361.92
578.24	45490.65
578.40	45415.76
578.56	45277.66
578.72	45216.81
578.88	45649.81
579.04	45205.11
579.21	44868.07
579.37	45364.26
579.53	45495.33
579.69	45111.49
579.85	45336.18
580.01	45125.53
580.17	45111.49
580.33	45563.21
580.49	45462.57
580.65	45261.28
580.82	45633.42
580.98	45413.41
581.14	44720.62
581.30	45928.33
581.46	45242.56
581.62	44926.58
581.78	45078.72
581.94	45137.23
582.10	45542.14
582.26	45242.56
582.42	45593.64
582.58	45467.25
582.74	45422.78
582.90	45539.80
583.06	45448.52
583.22	45045.95
583.38	45228.51
583.54	45539.80
583.70	45610.02
583.86	45345.54
584.02	45371.28
584.18	45687.26
584.34	45661.51
584.50	45797.26
584.66	45525.76
584.82	46108.55
584.98	45881.52
585.14	45661.51
585.30	45600.66
585.46	45097.44
585.62	45399.37
585.78	45462.57
585.94	45322.13
586.10	45006.16
586.26	45249.58
586.42	45841.73
586.58	45713.00
586.74	45457.88
586.90	45336.18
587.06	45043.61
587.22	45525.76
587.38	45490.65
587.54	45801.94
587.70	46026.63
587.86	45404.05
588.02	46052.38
588.18	45858.12
588.34	45535.12
588.49	45757.47
588.65	45390.01
588.81	45563.21
588.97	45921.31
589.13	45598.32
589.29	45572.57
589.45	45783.22
589.61	46082.81
589.77	45869.82
589.93	45642.79
590.08	45865.14
590.24	45666.19
590.40	46000.89
590.56	46256.01
590.72	46115.58
590.88	45958.76
591.04	45621.72
591.20	46314.52
591.35	46246.65
591.51	46300.48
591.67	45752.79
591.83	46213.88
591.99	45825.35
592.15	45806.62
592.31	45818.33
592.46	45956.42
592.62	45841.73
592.78	46384.74
592.94	46110.89
593.10	46216.22
593.26	46492.40
593.41	45963.44
593.57	45996.21
593.73	46415.16
593.89	46658.58
594.05	45958.76
594.20	46464.32
594.36	46494.74
594.52	46248.99
594.68	46604.75
594.84	46054.72
594.99	46424.53
595.15	46775.61
595.31	46138.98
595.47	45904.93
595.62	46473.68
595.78	46398.78
595.94	46092.17
596.10	46691.35
596.25	46632.83
596.41	46138.98
596.57	46148.34
596.73	46330.90
596.88	46300.48
597.04	46628.15
597.20	46691.35
597.36	46358.99
597.51	46588.36
597.67	46052.38
597.83	46237.28
597.99	46307.50
598.14	46368.35
598.30	45963.44
598.46	45937.69
598.61	46506.44
598.77	46401.12
598.93	46408.14
599.09	46808.37
599.24	46710.07
599.40	46471.34
599.56	46689.01
599.71	46843.48
599.87	46766.24
600.03	46808.37
600.18	46443.25
600.34	46410.48
600.50	46649.22
600.65	46260.69
600.81	46733.48
600.97	46864.55
601.12	46574.32
601.28	46529.85
601.44	46586.02
601.59	46768.58
601.75	46356.65
601.91	46546.23
602.06	46504.10
602.22	46504.10
602.37	46216.22
602.53	46403.46
602.69	46569.64
602.84	46085.15
603.00	46368.35
603.16	46529.85
603.31	46602.41
603.47	46588.36
603.62	46693.69
603.78	47068.17
603.94	46143.66
604.09	46681.98
604.25	46499.42
604.40	46515.81
604.56	46473.68
604.71	46639.86
604.87	46167.07
605.03	46171.75
605.18	45963.44
605.34	46625.81
605.49	46373.03
605.65	46724.11
605.80	46370.69
605.96	46234.94
606.12	46174.09
606.27	46188.13
606.43	46202.18
606.58	46461.97
606.74	46054.72
606.89	46284.09
607.05	46674.96
607.20	46253.67
607.36	46043.02
607.51	46550.91
607.67	46148.34
607.82	46358.99
607.98	45970.46
608.13	46314.52
608.29	45958.76
608.44	46213.88
608.60	46333.24
608.75	45911.95
608.91	46197.49
609.06	46576.66
609.22	46714.75
609.37	45420.44
609.53	46183.45
609.68	46370.69
609.84	45783.22
609.99	46506.44
610.15	46415.16
610.30	46117.92
610.46	46319.20
610.61	46258.35
610.76	45876.84
610.92	45904.93
611.07	45778.54
611.23	46014.93
611.38	46115.58
611.54	46005.57
611.69	46263.03
611.84	46518.15
612.00	45673.21
612.15	45979.82
612.31	45846.41
612.46	45502.35
612.62	46195.15
612.77	45750.45
612.92	45977.48
613.08	45869.82
613.23	45989.19
613.39	45844.07
613.54	45436.82
613.69	45741.09
613.85	46003.23
614.00	45705.98
614.15	45888.54
614.31	45247.24
614.46	45904.93
614.62	45406.39
614.77	45418.10
614.92	45855.78
615.08	45710.66
615.23	45436.82
615.38	45785.56
615.54	45310.43
615.69	45839.39
615.84	45815.99
616.00	46188.13
616.15	45734.07
616.30	45518.74
616.46	45598.32
616.61	45546.82
616.76	45558.53
616.92	45588.95
617.07	45593.64
617.22	45523.42
617.37	45085.74
617.53	45160.64
617.68	44907.86
617.83	45127.87
617.99	45628.74
618.14	45361.92
618.29	45008.50
618.45	45284.68
618.60	45312.77
618.75	44912.54
618.90	45305.75
619.06	45120.85
619.21	45467.25
619.36	45343.20
619.51	45265.96
619.67	44917.22
619.82	44786.15
619.97	45132.55
620.12	45251.92
620.28	45216.81
620.43	44924.24
620.58	45333.84
620.73	45132.55
620.89	45319.79
621.04	45373.63
621.19	45303.41
621.34	44896.16
621.49	44839.98
621.65	44919.56
621.80	44931.26
621.95	45160.64
622.10	44835.30
622.25	45104.46
622.41	44645.72
622.56	45052.97
622.71	45160.64
622.86	44687.85
623.01	44605.93
623.16	44479.54
623.32	45095.10
623.47	44957.01
623.62	44751.04
623.77	44898.50
623.92	44662.10
624.07	44795.51
624.23	44669.12
624.38	44676.15
624.53	44655.08
624.68	44343.79
624.83	44339.11
624.98	44655.08
625.13	44432.73
625.29	43613.54
625.44	44336.77
625.59	44350.81
625.74	44273.57
625.89	44664.44
626.04	44259.53
626.19	44329.75
626.34	44079.31
626.49	43805.47
626.65	43920.15
626.80	44112.08
626.95	43346.72
627.10	44142.50
627.25	44304.00
627.40	44275.91
627.55	44079.31
627.70	44210.38
627.85	44318.04
628.00	44172.93
628.15	44224.42
628.30	43459.07
628.45	43704.82
628.60	43683.76
628.76	43732.91
628.91	43480.13
629.06	43182.88
629.21	43761.00
629.36	43323.32
629.51	43636.95
629.66	43833.55
629.81	43447.36
629.96	43814.83
630.11	43709.50
630.26	43168.84
630.41	43721.21
630.56	43430.98
630.71	43503.54
630.86	43723.55
631.01	43428.64
631.16	43007.34
631.31	43573.75
631.46	43075.22
631.61	43330.34
631.76	43562.05
631.91	43487.15
632.06	43452.05
632.21	43503.54
632.36	43814.83
632.51	43012.02
632.66	43243.74
632.81	43035.43
632.96	43356.08
633.10	43007.34
633.25	42698.39
633.40	43278.85
633.55	42878.61
633.70	43159.48
633.85	42859.89
634.00	42567.32
634.15	43107.99
634.30	42934.79
634.45	42731.16
634.60	43342.04
634.75	43056.50
634.90	42852.87
635.05	43285.87
635.19	42817.76
635.34	42808.40
635.49	43269.48
635.64	42920.74
635.79	42796.70
635.94	42693.71
636.09	42824.78
636.24	43023.73
636.39	42693.71
636.53	42857.55
636.68	42679.67
636.83	42197.52
636.98	42457.32
637.13	42185.82
637.28	42426.89
637.43	42361.36
637.57	42593.07
637.72	41911.97
637.87	41914.31
638.02	42384.76
638.17	42326.25
638.32	42351.99
638.46	41909.63
638.61	42021.98
638.76	42220.92
638.91	42623.50
639.06	41741.11
639.20	41514.08
639.35	41907.29
639.50	41876.86
639.65	41612.38
639.80	42286.46
639.94	42050.06
640.09	41832.39
640.24	41581.96
640.39	41525.78
640.54	41560.89
640.68	42160.07
640.83	42092.19
640.98	41673.24
641.13	41865.16
641.27	42038.36
641.42	42038.36
641.57	41539.83
641.72	41942.40
641.86	41993.89
642.01	41401.74
642.16	41448.55
642.31	41380.67
642.45	41755.16
642.60	41067.04
642.75	41841.76
642.90	41804.31
643.04	41429.82
643.19	41462.59
643.34	41280.03
643.48	41230.88
643.63	40898.52
643.78	41181.73
643.93	41689.62
644.07	41326.84
644.22	41375.99
644.37	41371.31
644.51	41446.21
644.66	41544.51
644.81	41319.82
644.95	41151.30
645.10	41034.27
645.25	41017.89
645.39	40488.93
645.54	40751.07
645.69	40577.87
645.83	40683.19
645.98	40926.61
646.13	40685.53
646.27	41151.30
646.42	40638.72
646.57	40875.12
646.71	40804.90
646.86	41055.34
647.00	41228.54
647.15	40734.68
647.30	41092.79
647.44	40779.15
647.59	40807.24
647.74	40486.59
647.88	40814.26
648.03	40861.07
648.17	41177.04
648.32	41219.17
648.47	40818.94
648.61	40378.92
648.76	40308.71
648.90	40257.21
649.05	40605.95
649.20	40594.25
649.34	40781.49
649.49	40526.38
649.63	40975.76
649.78	40711.28
649.92	40570.85
650.07	40893.84
650.21	40498.29
650.36	40460.84
650.51	40793.20
650.65	40718.30
650.80	40748.73
650.94	40378.92
651.09	39866.34
651.23	40121.46
651.38	40306.37
651.52	39910.82
651.67	40261.90
651.81	39964.65
651.96	40112.10
652.10	39721.23
652.25	39634.63
652.39	40081.67
652.54	39754.00
652.68	39849.96
652.83	40023.16
652.97	40369.56
653.12	39908.47
653.26	40226.79
653.41	39629.95
653.55	40034.86
653.70	39807.83
653.84	40025.50
653.99	39871.03
654.13	39782.09
654.27	39709.53
654.42	39456.75
654.56	39363.13
654.71	39966.99
654.85	39885.07
655.00	39688.46
655.14	39615.91
655.29	39491.86
655.43	39789.11
655.57	39370.15
655.72	39473.13
655.86	39758.68
656.01	39145.46
656.15	39475.48
656.30	39173.55
656.44	39356.11
656.58	39613.57
656.73	39391.22
656.87	38752.25
657.01	38911.41
657.16	39370.15
657.30	39494.20
657.45	39477.82
657.59	38932.47
657.73	38897.36
657.88	38852.89
658.02	39175.89
658.16	39243.76
658.31	39246.10
658.45	38855.23
658.60	38284.14
658.74	39117.37
658.88	38754.59
659.03	38843.53
659.17	38838.85
659.31	38721.82
659.46	38394.15
659.60	39086.95
659.74	38419.89
659.89	37926.04
660.03	37879.23
660.17	38705.44
660.32	38162.43
660.46	38312.23
660.60	38047.75
660.74	38209.25
660.89	38323.93
661.03	37827.74
661.17	38082.86
661.32	37965.83
661.46	38272.44
661.60	37734.12
661.74	38012.64
661.89	37806.67
662.03	37691.99
662.17	37617.09
662.31	37841.78
662.46	37691.99
662.60	37350.27
662.74	37383.04
662.88	37368.99
663.03	37523.47
663.17	37296.44
663.31	36959.40
663.45	37305.80
663.60	37509.43
663.74	37284.73
663.88	37214.52
664.02	36802.58
664.17	37020.25
664.31	37249.63
664.45	36503.00
664.59	37340.91
664.73	36954.72
664.88	37102.17
665.02	36149.57
665.16	36641.09
665.30	36875.14
665.44	36725.35
665.59	35941.27
665.73	36287.67
665.87	35936.59
666.01	36350.86
666.15	36407.03
666.29	36144.89
666.44	36294.69
666.58	36467.89
666.72	35971.69
666.86	36093.40
667.00	36187.02
667.14	36088.72
667.28	35702.53
667.43	35599.55
667.57	36201.07
667.71	35969.35
667.85	36018.50
667.99	35981.06
668.13	35873.39
668.27	35798.49
668.41	35318.68
668.56	35398.26
668.70	35374.86
668.84	35110.38
668.98	35395.92
669.12	35285.92
669.26	34953.56
669.40	35358.47
669.54	35103.35
669.68	34738.23
669.82	35033.14
669.96	34759.30
670.10	34281.83
670.25	34773.34
670.39	34771.00
670.53	34993.35
670.67	34541.63
670.81	35227.40
670.95	34696.10
671.09	34558.01
671.23	34206.93
671.37	34391.83
671.51	34312.25
671.65	33832.44
671.79	34043.09
671.93	34267.78
672.07	33905.00
672.21	33736.48
672.35	33539.88
672.49	33397.10
672.63	33570.30
672.77	33820.74
672.91	33532.86
673.05	33436.89
673.19	33132.62
673.33	33305.82
673.47	33453.28
673.61	32774.52
673.75	32975.81
673.89	32790.91
674.03	32730.05
674.17	32383.65
674.31	32308.76
674.45	32329.82
674.59	32280.67
674.73	32135.56
674.87	32013.85
675.01	32299.39
675.15	31899.16
675.29	32250.24
675.43	31955.33
675.56	32093.43
675.70	32027.89
675.84	31908.52
675.98	30817.83
676.12	31388.92
676.26	31894.48
676.40	31133.81
676.54	31117.42
676.68	31311.69
676.82	30445.69
676.96	31381.90
677.10	31098.70
677.23	30866.98
677.37	30555.69
677.51	30515.90
677.65	30834.22
677.79	30513.56
677.93	30026.73
678.07	30541.65
678.21	30410.58
678.34	30314.62
678.48	29869.92
678.62	30108.65
678.76	29788.00
678.90	29851.19
679.04	30066.52
679.18	29912.05
679.31	29310.53
679.45	28957.11
679.59	29319.89
679.73	29378.40
679.87	29221.59
680.00	29296.49
680.14	29216.91
680.28	29116.26
680.42	28938.38
680.56	28898.59
680.70	28591.98
680.83	28285.37
680.97	28444.53
681.11	28371.97
681.25	28128.56
681.39	27985.79
681.52	28177.71
681.66	27913.23
681.80	27119.79
681.94	27346.82
682.07	27393.63
682.21	27489.59
682.35	27529.38
682.49	27161.92
682.62	27669.81
682.76	27281.28
682.90	27250.86
683.04	26993.40
683.17	27344.48
683.31	26714.87
683.45	26408.26
683.59	26597.85
683.72	26316.98
683.86	26312.30
684.00	26403.58
684.13	26670.40
684.27	25998.67
684.41	26185.91
684.55	26169.53
684.68	26106.34
684.82	25823.13
684.96	25729.51
685.09	25860.58
685.23	25511.84
685.37	25956.54
685.50	25699.08
685.64	25741.21
685.78	25450.99
685.91	25289.49
686.05	24739.46
686.19	24875.21
686.32	24961.81
686.46	24580.31
686.60	24088.79
686.73	24552.22
686.87	24500.73
687.01	24610.73
687.14	24507.75
687.28	24161.35
687.42	23843.04
687.55	23997.51
687.69	24102.84
687.82	23831.33
687.96	23852.40
688.10	23735.37
688.23	23660.48
688.37	23573.88
688.50	23510.68
688.64	23538.77
688.78	23470.89
688.91	23236.84
689.05	23281.31
689.18	23007.47
689.32	22537.02
689.46	22707.88
689.59	22546.38
689.73	23030.87
689.86	22726.60
690.00	22532.34
690.13	22541.70
690.27	22244.45
690.41	22677.45
690.54	21874.65
690.68	22171.89
690.81	21956.57
690.95	21905.07
691.08	21598.46
691.22	21685.06
691.35	21355.05
691.49	21928.48
691.62	21057.80
691.76	21214.62
691.89	21053.12
692.03	21064.82
692.16	20891.62
692.30	21032.05
692.43	20739.49
692.57	20482.03
692.70	20446.92
692.84	20585.01
692.97	20467.98
693.11	20346.28
693.24	20245.63
693.38	20086.48
693.51	20023.28
693.65	19714.33
693.78	19824.34
693.92	19639.44
694.05	19829.02
694.19	19882.85
694.32	19768.16
694.45	19726.04
694.59	19908.60
694.72	19681.56
694.86	19410.06
694.99	18735.99
695.13	19154.94
695.26	19154.94
695.39	18780.46
695.53	18658.75
695.66	18661.09
695.80	18672.79
695.93	18719.60
696.07	18333.42
696.20	18249.16
696.33	18129.79
696.47	17874.67
696.60	18340.44
696.73	18064.25
696.87	18141.49
697.00	17998.72
697.14	17799.77
697.27	17565.72
697.40	17509.55
697.54	17633.60
697.67	17727.22
697.80	17694.45
697.94	17472.10
698.07	17334.01
698.21	17149.11
698.34	17184.21
698.47	17273.15
698.61	16615.46
698.74	16989.95
698.87	16631.85
699.01	16592.06
699.14	16690.36
699.27	16503.12
699.40	16706.74
699.54	16311.19
699.67	16238.64
699.80	16166.08
699.94	16240.98
700.07	16240.98
700.20	15899.26
700.34	16100.55
700.47	15763.51
700.60	16173.10
700.73	15843.09
700.87	15639.46
701.00	15550.52
701.13	15573.92
701.26	15243.91
701.40	15161.99
701.53	15133.90
701.66	15269.66
701.79	15332.85
701.93	14794.53
702.06	15033.26
702.19	14864.74
702.32	15033.26
702.46	15096.46
702.59	14977.09
702.72	14628.35
702.85	14850.70
702.99	14581.54
703.12	14417.70
703.25	14300.67
703.38	14356.85
703.51	14242.16
703.65	13977.68
703.78	13855.97
703.91	13776.39
704.04	13975.34
704.17	13827.88
704.31	13820.86
704.44	13685.11
704.57	13568.09
704.70	13743.63
704.83	13287.22
704.96	13420.63
705.10	13385.52
705.23	13441.70
>>>>>End Processed Spectral Data<<<<<
