SpectraSuite Data File
++++++++++++++++++++++++++++++++++++
Date: Fri Oct 25 11:33:52 EDT 2013
User: price-jones
Dark Spectrum Present: No
Reference Spectrum Present: No
Number of Sampled Component Spectra: 1
Spectrometers: USB2+H05261
Integration Time (usec): 100000 (USB2+H05261)
Spectra Averaged: 1 (USB2+H05261)
Boxcar Smoothing: 0 (USB2+H05261)
Correct for Electrical Dark: No (USB2+H05261)
Strobe/Lamp Enabled: No (USB2+H05261)
Correct for Detector Non-linearity: No (USB2+H05261)
Correct for Stray Light: No (USB2+H05261)
Number of Pixels in Processed Spectrum: 2048
>>>>>Begin Processed Spectral Data<<<<<
365.73	306.61
365.92	306.61
366.12	306.61
366.32	201.29
366.52	168.52
366.72	189.58
366.91	102.98
367.11	320.65
367.31	220.01
367.51	156.82
367.70	182.56
367.90	119.37
368.10	102.98
368.30	168.52
368.49	145.11
368.69	212.99
368.89	229.37
369.09	201.29
369.28	191.92
369.48	149.79
369.68	210.65
369.87	248.10
370.07	248.10
370.27	250.44
370.47	313.63
370.66	461.09
370.86	510.24
371.06	533.64
371.25	578.11
371.45	564.07
371.65	557.05
371.84	559.39
372.04	461.09
372.24	538.32
372.44	512.58
372.63	566.41
372.83	552.37
373.03	566.41
373.22	573.43
373.42	648.33
373.62	711.52
373.81	699.82
374.01	641.31
374.21	606.20
374.40	545.34
374.60	617.90
374.79	650.67
374.99	594.50
375.19	564.07
375.38	601.52
375.58	655.35
375.78	681.10
375.97	631.94
376.17	830.89
376.37	627.26
376.56	634.29
376.76	669.39
376.95	645.99
377.15	617.90
377.35	676.41
377.54	648.33
377.74	662.37
377.93	585.13
378.13	671.73
378.33	720.88
378.52	643.65
378.72	716.20
378.91	678.76
379.11	676.41
379.31	725.57
379.50	713.86
379.70	709.18
379.89	711.52
380.09	734.93
380.28	814.51
380.48	716.20
380.68	725.57
380.87	751.31
381.07	702.16
381.26	730.25
381.46	720.88
381.65	784.08
381.85	709.18
382.04	781.74
382.24	765.36
382.43	781.74
382.63	692.80
382.83	727.91
383.02	781.74
383.22	791.10
383.41	732.59
383.61	842.59
383.80	786.42
384.00	781.74
384.19	725.57
384.39	812.17
384.58	777.06
384.78	833.23
384.97	777.06
385.17	805.14
385.36	894.08
385.56	833.23
385.75	753.65
385.95	798.12
386.14	933.87
386.34	866.00
386.53	875.36
386.72	851.96
386.92	873.02
387.11	912.81
387.31	894.08
387.50	877.70
387.70	807.48
387.89	945.58
388.09	880.04
388.28	959.62
388.48	952.60
388.67	898.77
388.86	931.53
389.06	968.98
389.25	966.64
389.45	976.00
389.64	894.08
389.84	912.81
390.03	908.13
390.22	1050.90
390.42	1015.79
390.61	1020.47
390.81	966.64
391.00	961.96
391.19	1062.60
391.39	1076.65
391.58	1088.35
391.78	954.94
391.97	966.64
392.16	1036.86
392.36	1088.35
392.55	1048.56
392.75	1064.94
392.94	950.26
393.13	1100.05
393.33	980.68
393.52	978.34
393.71	1048.56
393.91	1039.20
394.10	1137.50
394.29	1095.37
394.49	1086.01
394.68	1116.44
394.88	1163.25
395.07	1238.14
395.26	1146.86
395.46	1100.05
395.65	1116.44
395.84	1196.01
396.04	1181.97
396.23	1160.91
396.42	1146.86
396.62	1128.14
396.81	1228.78
397.00	1266.23
397.19	1181.97
397.39	1233.46
397.58	1245.16
397.77	1116.44
397.97	1177.29
398.16	1231.12
398.35	1210.06
398.55	1231.12
398.74	1277.93
398.93	1329.42
399.12	1341.13
399.32	1299.00
399.51	1387.94
399.70	1352.83
399.90	1392.62
400.09	1364.53
400.28	1439.43
400.47	1373.89
400.67	1404.32
400.86	1418.36
401.05	1455.81
401.24	1371.55
401.44	1439.43
401.63	1380.92
401.82	1409.00
402.01	1416.02
402.21	1479.22
402.40	1465.18
402.59	1451.13
402.78	1523.69
402.97	1511.99
403.17	1561.14
403.36	1554.12
403.55	1593.90
403.74	1600.93
403.93	1589.22
404.13	1652.42
404.32	1607.95
404.51	1558.80
404.70	1643.06
404.89	1710.93
405.09	1650.08
405.28	1741.36
405.47	1682.85
405.66	1657.10
405.85	1783.49
406.05	1762.42
406.24	1739.02
406.43	1746.04
406.62	1813.92
406.81	1853.70
407.00	1816.26
407.20	1696.89
407.39	1846.68
407.58	1771.79
407.77	1944.99
407.96	1809.23
408.15	1909.88
408.34	1806.89
408.54	1991.80
408.73	1930.94
408.92	1891.15
409.11	1989.46
409.30	1933.28
409.49	1905.20
409.68	2026.90
409.87	1944.99
410.07	2076.06
410.26	2092.44
410.45	2073.71
410.64	2022.22
410.83	2115.84
411.02	2057.33
411.21	2265.64
411.40	2099.46
411.59	2244.57
411.78	2132.23
411.98	2146.27
412.17	2265.64
412.36	2221.17
412.55	2272.66
412.74	2310.11
412.93	2307.77
413.12	2401.39
413.31	2363.94
413.50	2340.54
413.69	2312.45
413.88	2485.65
414.07	2565.23
414.26	2443.52
414.45	2602.68
414.64	2607.36
414.83	2597.99
415.02	2572.25
415.22	2555.86
415.41	2558.21
415.60	2644.81
415.79	2658.85
415.98	2761.83
416.17	2668.21
416.36	2665.87
416.55	2780.56
416.74	2806.30
416.93	2768.85
417.12	2733.75
417.31	2803.96
417.50	2855.45
417.69	2960.78
417.88	2979.50
418.07	2867.16
418.26	2850.77
418.45	2920.99
418.64	3119.93
418.83	3042.70
419.02	3075.46
419.21	3178.45
419.39	3002.91
419.58	3152.70
419.77	3112.91
419.96	3180.79
420.15	3035.67
420.34	3103.55
420.53	3192.49
420.72	3251.00
420.91	3267.39
421.10	3155.04
421.29	3239.30
421.48	3262.71
421.67	3269.73
421.86	3262.71
422.05	3295.47
422.24	3265.05
422.43	3241.64
422.61	3325.90
422.80	3302.50
422.99	3318.88
423.18	3368.03
423.37	3459.31
423.56	3400.80
423.75	3466.33
423.94	3344.63
424.13	3243.98
424.32	3286.11
424.50	3288.45
424.69	3431.23
424.88	3543.57
425.07	3412.50
425.26	3452.29
425.45	3506.12
425.64	3426.54
425.83	3466.33
426.01	3382.07
426.20	3412.50
426.39	3440.59
426.58	3569.32
426.77	3665.28
426.96	3644.21
427.15	3524.85
427.33	3658.26
427.52	3691.02
427.71	3555.27
427.90	3538.89
428.09	3606.77
428.28	3566.98
428.46	3620.81
428.65	3571.66
428.84	3798.69
429.03	3779.97
429.22	3744.86
429.40	3824.44
429.59	3868.91
429.78	3765.92
429.97	3569.32
430.16	3779.97
430.34	3838.48
430.53	3925.08
430.72	3822.09
430.91	3798.69
431.10	3911.04
431.28	3999.98
431.47	4053.81
431.66	4072.53
431.85	4016.36
432.03	4030.40
432.22	3941.46
432.41	3985.93
432.60	4037.42
432.79	3936.78
432.97	4124.02
433.16	4100.62
433.35	4049.13
433.54	4156.79
433.72	4229.35
433.91	4114.66
434.10	4117.00
434.28	4189.56
434.47	4131.05
434.66	4145.09
434.85	4180.20
435.03	4318.29
435.22	4114.66
435.41	4243.39
435.59	4315.95
435.78	4383.82
435.97	4381.48
436.16	4407.23
436.34	4379.14
436.53	4465.74
436.72	4615.54
436.90	4444.68
437.09	4442.34
437.28	4507.87
437.46	4500.85
437.65	4442.34
437.84	4629.58
438.02	4690.43
438.21	4540.64
438.40	4372.12
438.58	4779.37
438.77	4601.49
438.96	4678.73
439.14	4809.80
439.33	4903.42
439.52	4957.25
439.70	4854.27
439.89	5015.77
440.08	4929.17
440.26	5008.75
440.45	4908.10
440.63	5114.07
440.82	5135.14
441.01	4983.00
441.19	5186.63
441.38	5210.03
441.57	5062.58
441.75	5191.31
441.94	5406.64
442.12	5195.99
442.31	5434.72
442.50	5413.66
442.68	5465.15
442.87	5275.57
443.05	5509.62
443.24	5488.56
443.43	5586.86
443.61	5570.48
443.80	5694.52
443.98	5479.19
444.17	5322.38
444.35	5638.35
444.54	5671.12
444.73	5521.32
444.91	5502.60
445.10	5579.84
445.28	5584.52
445.47	5575.16
445.65	5720.27
445.84	5724.95
446.02	5755.38
446.21	5687.50
446.39	5612.60
446.58	5715.59
446.77	5689.84
446.95	5741.33
447.14	5687.50
447.32	5879.43
447.51	5753.04
447.69	5570.48
447.88	5755.38
448.06	5834.96
448.25	5760.06
448.43	5921.56
448.62	5790.49
448.80	5654.73
448.99	5872.40
449.17	6010.50
449.36	5844.32
449.54	5987.09
449.73	5994.11
449.91	6204.76
450.10	5776.44
450.28	6059.65
450.46	6090.07
450.65	5980.07
450.83	5996.45
451.02	6005.81
451.20	6097.10
451.39	6127.52
451.57	6373.28
451.76	6115.82
451.94	6214.12
452.13	6307.74
452.31	6244.55
452.49	6436.47
452.68	6312.42
452.86	6246.89
453.05	6230.51
453.23	6307.74
453.42	6225.82
453.60	6270.30
453.78	6443.49
453.97	6349.87
454.15	6270.30
454.34	6342.85
454.52	6525.41
454.70	6633.08
454.89	6569.88
455.07	6593.29
455.26	6665.85
455.44	6717.34
455.62	6766.49
455.81	6775.85
455.99	6703.29
456.17	6766.49
456.36	6715.00
456.54	6775.85
456.73	6761.81
456.91	7108.21
457.09	7150.34
457.28	7133.95
457.46	6881.18
457.64	7075.44
457.83	7187.79
458.01	7040.33
458.19	7136.29
458.38	7176.08
458.56	6984.16
458.74	6951.39
458.93	7059.06
459.11	7159.70
459.29	7056.72
459.48	7173.74
459.66	7396.09
459.84	7265.02
460.03	7456.95
460.21	7302.47
460.39	7288.43
460.57	7318.86
460.76	7309.49
460.94	7487.37
461.12	7531.84
461.31	7709.72
461.49	7393.75
461.67	7578.65
461.85	7634.83
462.04	7667.60
462.22	8196.56
462.40	7714.41
462.59	7831.43
462.77	7770.58
462.95	7744.83
463.13	7730.79
463.32	7691.00
463.50	7805.69
463.68	7847.82
463.86	7939.10
464.05	7826.75
464.23	7744.83
464.41	7960.16
464.59	7847.82
464.78	8217.62
464.96	7960.16
465.14	7772.92
465.32	7950.80
465.50	8173.15
465.69	8081.87
465.87	8046.76
466.05	8203.58
466.23	8018.68
466.41	8205.92
466.60	8566.36
466.78	7964.84
466.96	8250.39
467.14	8079.53
467.32	8280.82
467.51	8456.36
467.69	8182.51
467.87	8318.26
468.05	8449.33
468.23	8395.50
468.41	8327.63
468.60	8477.42
468.78	8421.25
468.96	8407.20
469.14	8549.98
469.32	8713.81
469.50	8432.95
469.69	8547.64
469.87	8470.40
470.05	8524.23
470.23	8875.31
470.41	8685.73
470.59	8830.84
470.77	8765.31
470.95	8954.89
471.14	9132.77
471.32	8699.77
471.50	8971.27
471.68	8982.98
471.86	9064.89
472.04	9151.49
472.22	9259.16
472.40	8978.30
472.58	8987.66
472.77	9172.56
472.95	9174.90
473.13	9554.07
473.31	9352.78
473.49	9504.92
473.67	9434.70
473.85	9628.96
474.03	9666.41
474.21	9650.03
474.39	9799.82
474.57	9645.35
474.75	9902.81
474.93	9935.57
475.12	9692.16
475.30	10022.17
475.48	10064.30
475.66	10064.30
475.84	9916.85
476.02	10305.38
476.20	10057.28
476.38	10457.51
476.56	10443.47
476.74	10455.17
476.92	10523.05
477.10	10485.60
477.28	10768.80
477.46	10747.74
477.64	10764.12
477.82	10785.19
478.00	11091.80
478.18	11112.86
478.36	11138.61
478.54	11501.39
478.72	11503.73
478.90	11573.95
479.08	11583.31
479.26	11543.52
479.44	11602.04
479.62	11524.80
479.80	11894.60
479.98	11939.07
480.16	12119.29
480.34	12145.04
480.52	12187.17
480.70	12400.16
480.88	12009.29
481.06	12009.29
481.24	12248.02
481.41	12554.63
481.59	12716.13
481.77	12744.22
481.95	12741.88
482.13	13043.81
482.31	12877.63
482.49	13336.37
482.67	13153.81
482.85	13273.18
483.03	13359.78
483.21	13635.96
483.39	13862.99
483.57	14022.15
483.74	13645.32
483.92	13970.66
484.10	13958.96
484.28	14272.59
484.46	14485.58
484.64	14714.95
484.82	14193.01
485.00	14539.41
485.18	14824.95
485.35	15035.60
485.53	14878.79
485.71	15229.87
485.89	15379.66
486.07	15379.66
486.25	15501.37
486.43	15325.83
486.61	15400.72
486.78	15494.35
486.96	15779.89
487.14	16149.70
487.32	16086.50
487.50	16486.73
487.68	16320.56
487.85	16397.79
488.03	16624.83
488.21	17034.42
488.39	17001.65
488.57	17046.12
488.75	17011.01
488.92	17326.99
489.10	17191.23
489.28	17584.44
489.46	17708.49
489.64	17788.07
489.81	18073.62
489.99	18047.87
490.17	18370.86
490.35	18459.81
490.53	18253.84
490.70	18387.25
490.88	18448.10
491.06	18785.14
491.24	18944.30
491.41	18867.06
491.59	19271.97
491.77	19197.07
491.95	19222.82
492.13	19360.91
492.30	19646.46
492.48	19639.44
492.66	19601.99
492.84	19798.59
493.01	20128.61
493.19	19997.54
493.37	20226.91
493.54	20123.93
493.72	20631.82
493.90	20624.80
494.08	20688.00
494.25	20908.01
494.43	20959.50
494.61	21261.43
494.79	21422.92
494.96	21015.67
495.14	21570.38
495.32	21549.31
495.49	21638.25
495.67	21935.50
495.85	21865.28
496.02	22001.04
496.20	22111.04
496.38	22235.09
496.55	22401.27
496.73	22759.37
496.91	22721.92
497.09	22916.19
497.26	22878.74
497.44	22672.77
497.62	23257.90
497.79	23229.82
497.97	22906.82
498.14	23470.89
498.32	23576.22
498.50	23608.98
498.67	23765.80
498.85	23784.52
499.03	24182.42
499.20	24002.19
499.38	23831.33
499.56	24137.94
499.73	24093.47
499.91	24439.87
500.08	24863.51
500.26	24517.11
500.44	24570.94
500.61	24870.53
500.79	24800.32
500.97	24940.75
501.14	25284.81
501.32	25289.49
501.49	25247.36
501.67	25142.03
501.84	25570.35
502.02	25663.97
502.20	25493.12
502.37	25757.60
502.55	25755.26
502.72	25750.57
502.90	25942.50
503.07	26047.82
503.25	25940.16
503.43	25788.02
503.60	26171.87
503.78	26249.11
503.95	26293.58
504.13	26438.69
504.30	26621.25
504.48	26565.08
504.65	26654.02
504.83	26958.29
505.01	27051.91
505.18	27187.66
505.36	27220.43
505.53	27309.37
505.71	27386.61
505.88	27292.99
506.06	27377.25
506.23	27725.99
506.41	27491.93
506.58	27487.25
506.76	27309.37
506.93	27728.33
507.11	27667.47
507.28	28114.52
507.46	27812.59
507.63	28156.64
507.81	28500.70
507.98	28170.69
508.16	28189.41
508.33	28638.80
508.50	28781.57
508.68	28891.57
508.85	28790.93
509.03	28865.83
509.20	28732.42
509.38	29242.65
509.55	29036.69
509.73	29071.79
509.90	28898.59
510.08	29715.44
510.25	29582.03
510.42	29500.11
510.60	29898.00
510.77	29399.47
510.95	29811.40
511.12	29750.55
511.30	29993.97
511.47	29970.56
511.64	30054.82
511.82	30134.40
511.99	30331.00
512.17	30455.05
512.34	30080.56
512.51	30377.81
512.69	30686.76
512.86	30476.12
513.04	30693.79
513.21	30857.62
513.38	30740.60
513.56	31292.96
513.73	30429.30
513.90	31012.10
514.08	30923.16
514.25	31569.15
514.43	31307.01
514.60	31517.65
514.77	31601.91
514.95	31475.52
515.12	31360.84
515.29	31555.10
515.47	31660.43
515.64	31669.79
515.81	31784.48
515.99	31660.43
516.16	32395.35
516.33	32236.20
516.51	32266.63
516.68	32107.47
516.85	32542.81
517.03	32652.81
517.20	32606.00
517.37	32357.91
517.54	32458.55
517.72	32830.69
517.89	32643.45
518.06	32737.07
518.24	32968.79
518.41	32875.16
518.58	33200.50
518.75	32699.62
518.93	33326.89
519.10	33317.53
519.27	33298.80
519.45	33357.32
519.62	33802.02
519.79	33731.80
519.96	33755.21
520.14	34010.32
520.31	33362.00
520.48	33912.02
520.65	33504.77
520.83	34216.29
521.00	34253.74
521.17	33942.45
521.34	34361.40
521.52	34270.12
521.69	34227.99
521.86	34380.13
522.03	34766.32
522.20	34543.97
522.38	34728.87
522.55	34864.62
522.72	34888.03
522.89	34848.24
523.07	35276.55
523.24	35084.63
523.41	35250.81
523.58	34689.08
523.75	35604.23
523.92	35136.12
524.10	35531.67
524.27	35725.94
524.44	35505.93
524.61	35730.62
524.78	35344.43
524.96	35686.15
525.13	36137.87
525.30	36025.53
525.47	35992.76
525.64	36039.57
525.81	36184.68
525.98	36187.02
526.16	36175.32
526.33	35959.99
526.50	36690.24
526.67	36212.77
526.84	36418.74
527.01	36271.28
527.18	36711.30
527.36	36114.47
527.53	36350.86
527.70	37071.75
527.87	36877.48
528.04	36842.37
528.21	36917.27
528.38	37200.47
528.55	37226.22
528.72	37167.71
528.89	37036.64
529.07	36842.37
529.24	36945.36
529.41	37687.31
529.58	37544.53
529.75	37158.34
529.92	37598.37
530.09	37486.02
530.26	37656.88
530.43	37443.89
530.60	37352.61
530.77	37518.79
530.94	37598.37
531.11	37469.64
531.28	37872.21
531.46	37748.16
531.63	37937.74
531.80	37942.42
531.97	38487.77
532.14	38052.43
532.31	38103.92
532.48	38546.28
532.65	38511.17
532.82	38302.87
532.99	38396.49
533.16	38483.09
533.33	38621.18
533.50	38579.05
533.67	38775.66
533.84	38759.27
534.01	38436.28
534.18	38548.62
534.35	38934.81
534.52	39028.43
534.69	39096.31
534.86	38923.11
535.03	38770.97
535.20	39459.09
535.37	39557.39
535.54	39330.36
535.71	38806.08
535.88	38932.47
536.05	39115.03
536.22	39512.92
536.38	39564.42
536.55	39250.78
536.72	39779.74
536.89	39557.39
537.06	39896.77
537.23	39941.24
537.40	39910.82
537.57	39459.09
537.74	39725.91
537.91	40212.74
538.08	39805.49
538.25	39503.56
538.42	39875.71
538.59	40289.98
538.75	39955.29
538.92	40458.50
539.09	40299.34
539.26	40247.85
539.43	40327.43
539.60	40484.25
539.77	40353.18
539.94	40488.93
540.11	40685.53
540.28	40575.53
540.44	40339.13
540.61	40470.20
540.78	40566.16
540.95	40320.41
541.12	40612.98
541.29	40505.31
541.46	40931.29
541.62	41127.89
541.79	41106.83
541.96	40608.29
542.13	40973.42
542.30	40938.31
542.47	41230.88
542.63	41111.51
542.80	41603.02
542.97	41806.65
543.14	41689.62
543.31	41790.27
543.48	41762.18
543.64	41970.49
543.81	42059.43
543.98	41649.83
544.15	41734.09
544.32	41771.54
544.48	42415.19
544.65	41668.56
544.82	42122.62
544.99	42019.64
545.16	42139.00
545.32	42007.94
545.49	42719.46
545.66	42803.72
545.83	42396.46
546.00	42436.25
546.16	42082.83
546.33	42555.62
546.50	42529.87
546.67	42796.70
546.83	42204.54
547.00	42300.50
547.17	42506.47
547.34	42597.75
547.50	42726.48
547.67	43210.97
547.84	42969.90
548.00	43026.07
548.17	43105.65
548.34	42948.83
548.51	42803.72
548.67	42649.24
548.84	42794.36
549.01	43007.34
549.18	42754.57
549.34	43222.67
549.51	43543.33
549.68	43136.07
549.84	43391.19
550.01	43501.20
550.18	43269.48
550.34	43302.25
550.51	43419.28
550.68	43227.35
550.84	43316.29
551.01	43917.81
551.18	43107.99
551.34	43660.35
551.51	43658.01
551.68	43358.42
551.84	43562.05
552.01	43201.61
552.18	43576.09
552.34	44018.46
552.51	44067.61
552.68	43709.50
552.84	43824.19
553.01	43515.24
553.18	44032.50
553.34	44154.21
553.51	43629.93
553.67	44252.51
553.84	44444.43
554.01	44329.75
554.17	43805.47
554.34	44151.87
554.51	44439.75
554.67	44594.23
554.84	44507.63
555.00	44383.58
555.17	44083.99
555.33	44287.62
555.50	44669.12
555.67	44713.59
555.83	44226.76
556.00	44797.85
556.16	45036.59
556.33	44533.37
556.50	44935.95
556.66	44357.83
556.83	44301.66
556.99	44921.90
557.16	45069.36
557.32	44685.51
557.49	44545.08
557.65	44495.92
557.82	44961.69
557.98	44467.84
558.15	45139.57
558.32	45212.13
558.48	44729.98
558.65	44954.67
558.81	45483.63
558.98	45434.48
559.14	45024.89
559.31	45141.91
559.47	45177.02
559.64	45308.09
559.80	45380.65
559.97	45207.45
560.13	45085.74
560.30	45338.52
560.46	45605.34
560.63	45698.96
560.79	45813.65
560.96	45652.15
561.12	45497.67
561.29	45659.17
561.45	45434.48
561.61	45654.49
561.78	45591.30
561.94	45785.56
562.11	45525.76
562.27	45509.38
562.44	45202.77
562.60	45682.58
562.77	45682.58
562.93	45488.31
563.10	45542.14
563.26	45397.03
563.42	46106.21
563.59	45759.81
563.75	45570.23
563.92	45703.64
564.08	45385.33
564.24	45392.35
564.41	45495.33
564.57	45860.46
564.74	46012.59
564.90	45820.67
565.07	46415.16
565.23	45869.82
565.39	46101.53
565.56	46068.76
565.72	46192.81
565.88	45820.67
566.05	46300.48
566.21	46220.90
566.38	46206.86
566.54	46174.09
566.70	46050.04
566.87	46284.09
567.03	45436.82
567.19	46396.44
567.36	45752.79
567.52	46064.08
567.68	46253.67
567.85	46169.41
568.01	46504.10
568.17	45858.12
568.34	46487.72
568.50	46092.17
568.66	45935.35
568.83	46232.60
568.99	45918.97
569.15	46321.54
569.32	45998.55
569.48	46066.42
569.64	46366.01
569.81	46244.30
569.97	46366.01
570.13	46433.89
570.30	46263.03
570.46	46424.53
570.62	46691.35
570.78	46188.13
570.95	46335.59
571.11	46773.27
571.27	46115.58
571.43	45951.74
571.60	46066.42
571.76	46501.76
571.92	46106.21
572.09	46363.67
572.25	46424.53
572.41	46639.86
572.57	46340.27
572.74	46773.27
572.90	46527.51
573.06	46560.28
573.22	46660.92
573.38	46883.27
573.55	46642.20
573.71	47133.71
573.87	46712.41
574.03	46298.14
574.20	46946.47
574.36	46611.77
574.52	46665.60
574.68	46656.24
574.84	46894.97
575.01	46862.21
575.17	47140.73
575.33	47304.57
575.49	47023.70
575.65	46770.93
575.82	47049.45
575.98	46520.49
576.14	46593.04
576.30	47124.35
576.46	46660.92
576.62	46803.69
576.79	46834.12
576.95	46677.30
577.11	46487.72
577.27	46815.40
577.43	46817.74
577.59	46838.80
577.75	47124.35
577.92	46567.30
578.08	46916.04
578.24	46756.88
578.40	47201.58
578.56	46843.48
578.72	46473.68
578.88	47421.59
579.04	46820.08
579.21	46969.87
579.37	46997.96
579.53	46738.16
579.69	46799.01
579.85	47143.07
580.01	46859.87
580.17	46607.09
580.33	46801.35
580.49	46766.24
580.65	47037.75
580.82	47166.48
580.98	46913.70
581.14	46763.90
581.30	47117.32
581.46	46871.57
581.62	46817.74
581.78	46808.37
581.94	46677.30
582.10	47402.87
582.26	47330.31
582.42	47377.12
582.58	47068.17
582.74	46883.27
582.90	47063.49
583.06	47372.44
583.22	46916.04
583.38	47342.02
583.54	47227.33
583.70	47178.18
583.86	47342.02
584.02	47264.78
584.18	47412.23
584.34	47405.21
584.50	47477.77
584.66	47419.25
584.82	47112.64
584.98	47796.08
585.14	47540.96
585.30	46761.56
585.46	47243.71
585.62	46871.57
585.78	47445.00
585.94	46967.53
586.10	47290.52
586.26	47016.68
586.42	47402.87
586.58	47131.37
586.74	47470.75
586.90	46838.80
587.06	47440.32
587.22	47313.93
587.38	47098.60
587.54	47445.00
587.70	47800.76
587.86	47248.39
588.02	47049.45
588.18	47063.49
588.34	47428.62
588.49	47550.32
588.65	46962.85
588.81	47089.24
588.97	47379.46
589.13	47466.06
589.29	47407.55
589.45	47913.11
589.61	47505.85
589.77	47592.45
589.93	47133.71
590.08	47711.82
590.24	47746.93
590.40	47669.69
590.56	47824.17
590.72	47906.08
590.88	47735.23
591.04	47491.81
591.20	47782.04
591.35	47866.30
591.51	47842.89
591.67	47803.10
591.83	48142.48
591.99	47988.00
592.15	47613.52
592.31	47966.94
592.46	47646.29
592.62	47566.71
592.78	47922.47
592.94	47896.72
593.10	47636.92
593.26	48306.32
593.41	48058.22
593.57	47955.24
593.73	47700.12
593.89	48062.90
594.05	48018.43
594.20	47777.36
594.36	48275.89
594.52	47763.31
594.68	47894.38
594.84	47430.96
594.99	48102.69
595.15	47620.54
595.31	48002.05
595.47	48011.41
595.62	47887.36
595.78	47777.36
595.94	47742.25
596.10	47639.26
596.25	47931.83
596.41	47878.00
596.57	48020.77
596.73	48051.20
596.88	47840.55
597.04	47875.66
597.20	47744.59
597.36	47782.04
597.51	47995.03
597.67	47749.27
597.83	47655.65
597.99	47929.49
598.14	48025.45
598.30	47924.81
598.46	47753.95
598.61	48388.24
598.77	47856.93
598.93	47955.24
599.09	48121.41
599.24	48385.89
599.40	47988.00
599.56	48292.27
599.71	48474.84
599.87	48926.56
600.03	48413.98
600.18	48268.87
600.34	48009.07
600.50	48135.46
600.65	47849.91
600.81	48100.35
600.97	48229.08
601.12	48381.21
601.28	48189.29
601.44	48245.46
601.59	48282.91
601.75	47969.28
601.91	48428.02
602.06	48273.55
602.22	47973.96
602.37	47835.87
602.53	48023.11
602.69	48219.72
602.84	47915.45
603.00	48093.33
603.16	48388.24
603.31	48371.85
603.47	48250.14
603.62	48076.94
603.78	48264.19
603.94	48055.88
604.09	48186.95
604.25	47941.19
604.40	48002.05
604.56	48184.61
604.71	48381.21
604.87	48294.61
605.03	47784.38
605.18	48287.59
605.34	47796.08
605.49	47927.15
605.65	48245.46
605.80	47896.72
605.96	47997.37
606.12	48278.23
606.27	48364.83
606.43	47686.07
606.58	48650.38
606.74	48107.37
606.89	48240.78
607.05	48453.77
607.20	48046.52
607.36	47700.12
607.51	48179.93
607.67	47697.78
607.82	47920.13
607.98	47531.60
608.13	48041.84
608.29	47901.40
608.44	48123.75
608.60	47882.68
608.75	47924.81
608.91	47543.30
609.06	47672.03
609.22	47828.85
609.37	47669.69
609.53	48037.16
609.68	48163.54
609.84	47601.82
609.99	47889.70
610.15	47672.03
610.30	47669.69
610.46	48126.10
610.61	47342.02
610.76	47552.66
610.92	47646.29
611.07	47955.24
611.23	47304.57
611.38	47559.69
611.54	47365.42
611.69	47667.35
611.84	47798.42
612.00	47559.69
612.15	47557.35
612.31	47555.00
612.46	47295.21
612.62	47688.42
612.77	47517.56
612.92	47372.44
613.08	47334.99
613.23	47707.14
613.39	47657.99
613.54	47208.61
613.69	47484.79
613.85	47171.16
614.00	47557.35
614.15	47917.79
614.31	47222.65
614.46	47203.92
614.62	47363.08
614.77	47168.82
614.92	47435.64
615.08	47234.35
615.23	47489.47
615.38	47655.65
615.54	47655.65
615.69	47194.56
615.84	46946.47
616.00	47650.97
616.15	47564.37
616.30	47367.76
616.46	47103.28
616.61	47122.01
616.76	47861.61
616.92	47110.30
617.07	47194.56
617.22	47325.63
617.37	47210.95
617.53	47124.35
617.68	46838.80
617.83	46909.02
617.99	47435.64
618.14	47253.08
618.29	46298.14
618.45	46759.22
618.60	46747.52
618.75	46588.36
618.90	46742.84
619.06	46796.67
619.21	46953.49
619.36	47353.72
619.51	46590.70
619.67	46813.05
619.82	46593.04
619.97	46653.90
620.12	46614.11
620.28	47049.45
620.43	47398.19
620.58	47360.74
620.73	47030.72
620.89	46993.28
621.04	46923.06
621.19	46473.68
621.34	46913.70
621.49	46478.36
621.65	46761.56
621.80	47014.34
621.95	46646.88
622.10	46630.49
622.25	46466.66
622.41	46546.23
622.56	46506.44
622.71	46899.65
622.86	46326.22
623.01	46506.44
623.16	46602.41
623.32	46646.88
623.47	46223.24
623.62	46113.23
623.77	46181.11
623.92	46499.42
624.07	46745.18
624.23	46553.26
624.38	46581.34
624.53	46419.84
624.68	46050.04
624.83	45986.85
624.98	46417.50
625.13	45853.44
625.29	45956.42
625.44	46422.19
625.59	45968.12
625.74	45820.67
625.89	45675.55
626.04	45617.04
626.19	46312.18
626.34	45750.45
626.49	45799.60
626.65	45549.17
626.80	45659.17
626.95	45645.13
627.10	45345.54
627.25	45890.88
627.40	45825.35
627.55	45869.82
627.70	45490.65
627.85	46047.70
628.00	45848.75
628.15	45666.19
628.30	45757.47
628.45	45254.26
628.60	45137.23
628.76	45179.36
628.91	45251.92
629.06	45216.81
629.21	45261.28
629.36	44725.30
629.51	45560.87
629.66	45478.95
629.81	45443.84
629.96	45317.45
630.11	45516.40
630.26	44879.77
630.41	45219.15
630.56	45074.04
630.71	45209.79
630.86	44940.63
631.01	44989.78
631.16	45062.33
631.31	45069.36
631.46	45186.38
631.61	45626.40
631.76	45207.45
631.91	45202.77
632.06	45509.38
632.21	45666.19
632.36	45071.70
632.51	45020.20
632.66	44699.55
632.81	44175.27
632.96	44655.08
633.10	44289.96
633.25	44636.36
633.40	44753.38
633.55	44889.13
633.70	45258.94
633.85	44872.75
634.00	44154.21
634.15	44584.86
634.30	44643.38
634.45	44404.64
634.60	44458.48
634.75	44694.87
634.90	44442.09
635.05	44629.34
635.19	44584.86
635.34	44676.15
635.49	44390.60
635.64	44409.32
635.79	44797.85
635.94	44172.93
636.09	44758.06
636.24	44364.85
636.39	44367.20
636.53	44339.11
636.68	44151.87
636.83	43777.38
636.98	43922.49
637.13	44112.08
637.28	43667.37
637.43	44222.08
637.57	44215.06
637.72	43559.71
637.87	44030.16
638.02	44058.24
638.17	43667.37
638.32	43983.35
638.46	43587.80
638.61	43737.59
638.76	43889.73
638.91	43761.00
639.06	43882.70
639.20	43229.69
639.35	43775.04
639.50	43606.52
639.65	43814.83
639.80	44009.09
639.94	43826.53
640.09	43793.76
640.24	43728.23
640.39	43393.53
640.54	43473.11
640.68	44165.91
640.83	43690.78
640.98	43894.41
641.13	43292.89
641.27	43746.95
641.42	43608.86
641.57	43391.19
641.72	43562.05
641.86	43285.87
642.01	43353.74
642.16	43353.74
642.31	42953.51
642.45	43143.09
642.60	42906.70
642.75	42953.51
642.90	43349.06
643.04	43178.20
643.19	43131.39
643.34	42927.77
643.48	42623.50
643.63	42852.87
643.78	42717.12
643.93	43239.06
644.07	42892.66
644.22	43241.40
644.37	43026.07
644.51	43152.46
644.66	43220.33
644.81	43126.71
644.95	42560.30
645.10	42614.13
645.25	42960.53
645.39	42298.16
645.54	42410.51
645.69	42546.26
645.83	42646.90
645.98	42560.30
646.13	42899.68
646.27	42412.85
646.42	42146.03
646.57	42653.92
646.71	42096.88
646.86	42899.68
647.00	42747.54
647.15	42546.26
647.30	42476.04
647.44	42344.97
647.59	42490.09
647.74	42504.13
647.88	43040.11
648.03	42593.07
648.17	42719.46
648.32	42328.59
648.47	42469.02
648.61	42396.46
648.76	42113.26
648.90	41998.57
649.05	42410.51
649.20	42241.99
649.34	41944.74
649.49	42291.14
649.63	42272.42
649.78	42148.37
649.92	41696.64
650.07	42476.04
650.21	42267.73
650.36	42515.83
650.51	42349.65
650.65	42253.69
650.80	42335.61
650.94	41738.77
651.09	42471.36
651.23	41457.91
651.38	41778.56
651.52	41663.88
651.67	41722.39
651.81	41680.26
651.96	41706.01
652.10	41539.83
652.25	41483.66
652.39	42075.81
652.54	41743.45
652.68	41436.84
652.83	41457.91
652.97	41818.35
653.12	40999.16
653.26	41383.01
653.41	41553.87
653.55	41748.14
653.70	41581.96
653.84	41460.25
653.99	41738.77
654.13	41914.31
654.27	41404.08
654.42	41577.28
654.56	41350.24
654.71	41198.11
654.85	41361.95
655.00	41731.75
655.14	41240.24
655.29	41478.97
655.43	41640.47
655.57	41249.60
655.72	40832.99
655.86	41216.83
656.01	40807.24
656.15	40570.85
656.30	41067.04
656.44	40987.46
656.58	41219.17
656.73	41099.81
656.87	40708.94
657.01	40643.40
657.16	40921.93
657.30	40376.58
657.45	40769.79
657.59	40297.00
657.73	40474.88
657.88	40725.32
658.02	40879.80
658.16	40814.26
658.31	40601.27
658.45	40627.02
658.60	40502.97
658.74	40811.92
658.88	40507.65
659.03	40346.15
659.17	39934.22
659.31	40142.53
659.46	40399.99
659.60	40425.73
659.74	40271.26
659.89	39999.76
660.03	39854.64
660.17	40009.12
660.32	39826.56
660.46	39908.47
660.60	39402.92
660.74	39562.08
660.89	39966.99
661.03	39543.35
661.17	39739.96
661.32	39264.83
661.46	39798.47
661.60	39608.89
661.74	39346.75
661.89	39374.83
662.03	39260.15
662.17	38658.63
662.31	38801.40
662.46	39501.22
662.60	39353.77
662.74	39159.50
662.88	38913.75
663.03	38539.26
663.17	39016.73
663.31	38412.87
663.45	39086.95
663.60	39056.52
663.74	38972.26
663.88	38932.47
664.02	38742.89
664.17	38878.64
664.31	38609.48
664.45	38309.89
664.59	38459.68
664.73	38040.73
664.88	38237.33
665.02	38164.78
665.16	37844.12
665.30	38267.76
665.44	38415.21
665.59	38099.24
665.73	38124.99
665.87	37560.92
666.01	38033.71
666.15	37764.54
666.29	37745.82
666.44	37783.27
666.58	38195.20
666.72	37521.13
666.86	37399.42
667.00	37394.74
667.14	37486.02
667.28	37406.44
667.43	37291.76
667.57	37982.21
667.71	37347.93
667.85	37490.70
667.99	37181.75
668.13	37020.25
668.27	37010.89
668.41	36514.70
668.56	36378.95
668.70	37074.09
668.84	36297.03
668.98	36484.27
669.12	36961.74
669.26	36505.34
669.40	36627.04
669.54	36575.55
669.68	36601.30
669.82	36425.76
669.96	35899.14
670.10	35992.76
670.25	36135.53
670.39	36147.23
670.53	36002.12
670.67	35852.33
670.81	35880.41
670.95	35901.48
671.09	36114.47
671.23	35545.72
671.37	35669.76
671.51	35302.30
671.65	35564.44
671.79	35407.62
671.93	35611.25
672.07	35379.54
672.21	35644.02
672.35	35126.76
672.49	35302.30
672.63	35075.27
672.77	34869.30
672.91	35136.12
673.05	35192.30
673.19	34691.42
673.33	34717.17
673.47	34637.59
673.61	34181.18
673.75	34520.56
673.89	34244.38
674.03	34330.98
674.17	33748.18
674.31	33809.04
674.45	33787.97
674.59	33905.00
674.73	33935.43
674.87	33689.67
675.01	33551.58
675.15	33495.41
675.29	33284.76
675.43	33362.00
675.56	33352.63
675.70	33153.69
675.84	33130.28
675.98	32308.76
676.12	33041.34
676.26	33174.75
676.40	32554.51
676.54	32587.28
676.68	32905.59
676.82	31978.74
676.96	32222.16
677.10	32093.43
677.23	32350.88
677.37	32383.65
677.51	32332.16
677.65	32011.51
677.79	32053.64
677.93	32027.89
678.07	31723.62
678.21	31304.67
678.34	31311.69
678.48	30909.11
678.62	31349.14
678.76	31182.96
678.90	31082.31
679.04	30946.56
679.18	30904.43
679.31	30834.22
679.45	30621.23
679.59	30466.75
679.73	30677.40
679.87	30457.39
680.00	30424.62
680.14	30202.27
680.28	30164.82
680.42	30115.67
680.56	30459.73
680.70	30017.37
680.83	29476.71
680.97	29460.32
681.11	29989.28
681.25	29401.81
681.39	28804.97
681.52	29188.82
681.66	28952.43
681.80	28781.57
681.94	28807.31
682.07	28421.13
682.21	28858.81
682.35	28442.19
682.49	28512.41
682.62	28524.11
682.76	28341.55
682.90	28386.02
683.04	28554.54
683.17	28360.27
683.31	27828.97
683.45	27826.63
683.59	27618.32
683.72	27913.23
683.86	27606.62
684.00	27241.50
684.13	27400.65
684.27	27494.27
684.41	27101.06
684.55	27395.97
684.68	27255.54
684.82	26906.80
684.96	26934.88
685.09	26972.33
685.23	26897.44
685.37	27122.13
685.50	26909.14
685.64	26480.82
685.78	26246.77
685.91	26218.68
686.05	26024.42
686.19	25642.91
686.32	25560.99
686.46	25436.94
686.60	25404.17
686.73	25514.18
686.87	25652.27
687.01	25432.26
687.14	25633.55
687.28	25338.64
687.42	25280.13
687.55	24666.91
687.69	24945.43
687.82	24945.43
687.96	24884.58
688.10	24840.11
688.23	24594.35
688.37	24987.56
688.50	24769.89
688.64	24718.40
688.78	24051.34
688.91	24397.74
689.05	24189.44
689.18	23910.91
689.32	23372.59
689.46	23566.85
689.59	23548.13
689.73	23866.44
689.86	23985.81
690.00	23592.60
690.13	23737.71
690.27	23131.51
690.41	23433.44
690.54	23225.14
690.68	22813.20
690.81	23126.83
690.95	23012.15
691.08	22618.94
691.22	22394.25
691.35	22558.08
691.49	22466.80
691.62	22185.94
691.76	22141.47
691.89	21909.75
692.03	21640.59
692.16	21572.72
692.30	21659.32
692.43	22155.51
692.57	21687.40
692.70	21659.32
692.84	21551.65
692.97	21399.52
693.11	21184.19
693.24	21135.04
693.38	21186.53
693.51	20676.29
693.65	20959.50
693.78	20886.94
693.92	20760.55
694.05	20950.14
694.19	20580.33
694.32	20465.64
694.45	20980.56
694.59	20568.63
694.72	20702.04
694.86	20079.46
694.99	20039.67
695.13	19786.89
695.26	19740.08
695.39	19634.75
695.53	19501.34
695.66	19541.13
695.80	19424.11
695.93	19573.90
696.07	18995.79
696.20	18977.06
696.33	18862.38
696.47	18682.16
696.60	18780.46
696.73	18960.68
696.87	18794.50
697.00	18937.27
697.14	18590.88
697.27	18366.18
697.40	18600.24
697.54	18431.72
697.67	18635.35
697.80	18499.59
697.94	17980.00
698.07	18068.94
698.21	17860.63
698.34	17811.48
698.47	17748.28
698.61	17362.09
698.74	17692.11
698.87	17572.74
699.01	17326.99
699.14	17769.35
699.27	17343.37
699.40	17184.21
699.54	17188.89
699.67	17378.48
699.80	17029.74
699.94	16886.97
700.07	16772.28
700.20	16826.11
700.34	16627.17
700.47	16636.53
700.60	17013.35
700.73	16662.27
700.87	16217.57
701.00	16027.99
701.13	16168.42
701.26	15885.22
701.40	16140.33
701.53	15953.09
701.66	15716.70
701.79	16114.59
701.93	15585.63
702.06	15477.96
702.19	15428.81
702.32	15559.88
702.46	15496.69
702.59	15543.50
702.72	15538.82
702.85	15398.38
702.99	15393.70
703.12	15405.41
703.25	15035.60
703.38	14792.19
703.51	14824.95
703.65	14640.05
703.78	14363.87
703.91	14581.54
704.04	14516.00
704.17	14340.46
704.31	14420.04
704.44	14394.29
704.57	14090.02
704.70	14188.33
704.83	14279.61
704.96	14024.49
705.10	14200.03
705.23	14038.53
>>>>>End Processed Spectral Data<<<<<
