SpectraSuite Data File
++++++++++++++++++++++++++++++++++++
Date: Fri Oct 25 10:47:59 EDT 2013
User: price-jones
Dark Spectrum Present: No
Reference Spectrum Present: No
Number of Sampled Component Spectra: 1
Spectrometers: USB2+H05261
Integration Time (usec): 100000 (USB2+H05261)
Spectra Averaged: 1 (USB2+H05261)
Boxcar Smoothing: 0 (USB2+H05261)
Correct for Electrical Dark: No (USB2+H05261)
Strobe/Lamp Enabled: No (USB2+H05261)
Correct for Detector Non-linearity: No (USB2+H05261)
Correct for Stray Light: No (USB2+H05261)
Number of Pixels in Processed Spectrum: 2048
>>>>>Begin Processed Spectral Data<<<<<
365.73	161.50
365.92	161.50
366.12	161.50
366.32	74.90
366.52	42.13
366.72	86.60
366.91	53.83
367.11	58.51
367.31	23.41
367.51	39.79
367.70	9.36
367.90	32.77
368.10	0.00
368.30	79.58
368.49	16.38
368.69	60.85
368.89	77.24
369.09	49.15
369.28	56.17
369.48	93.62
369.68	60.85
369.87	88.94
370.07	81.92
370.27	168.52
370.47	196.60
370.66	369.80
370.86	437.68
371.06	444.70
371.25	535.98
371.45	425.98
371.65	531.30
371.84	355.76
372.04	484.49
372.24	510.24
372.44	411.93
372.63	458.74
372.83	479.81
373.03	500.87
373.22	484.49
373.42	538.32
373.62	479.81
373.81	444.70
374.01	528.96
374.21	571.09
374.40	552.37
374.60	622.58
374.79	615.56
374.99	575.77
375.19	547.69
375.38	613.22
375.58	538.32
375.78	615.56
375.97	645.99
376.17	704.50
376.37	573.43
376.56	491.51
376.76	599.18
376.95	599.18
377.15	538.32
377.35	575.77
377.54	601.52
377.74	662.37
377.93	552.37
378.13	538.32
378.33	603.86
378.52	650.67
378.72	592.16
378.91	608.54
379.11	634.29
379.31	571.09
379.50	608.54
379.70	624.92
379.89	678.76
380.09	627.26
380.28	660.03
380.48	702.16
380.68	760.67
380.87	620.24
381.07	641.31
381.26	683.44
381.46	599.18
381.65	725.57
381.85	650.67
382.04	683.44
382.24	603.86
382.43	627.26
382.63	631.94
382.83	711.52
383.02	702.16
383.22	688.12
383.41	676.41
383.61	725.57
383.80	706.84
384.00	772.38
384.19	697.48
384.39	758.33
384.58	748.97
384.78	734.93
384.97	706.84
385.17	688.12
385.36	725.57
385.56	805.14
385.75	805.14
385.95	755.99
386.14	840.25
386.34	744.29
386.53	777.06
386.72	809.83
386.92	868.34
387.11	798.12
387.31	858.98
387.50	802.80
387.70	882.38
387.89	781.74
388.09	819.19
388.28	847.27
388.48	828.55
388.67	868.34
388.86	844.93
389.06	823.87
389.25	903.45
389.45	954.94
389.64	861.32
389.84	891.74
390.03	940.90
390.22	912.81
390.42	929.19
390.61	912.81
390.81	924.51
391.00	1015.79
391.19	976.00
391.39	1064.94
391.58	912.81
391.78	898.77
391.97	903.45
392.16	903.45
392.36	945.58
392.55	940.90
392.75	1001.75
392.94	947.92
393.13	997.07
393.33	1022.81
393.52	997.07
393.71	1062.60
393.91	1053.24
394.10	1022.81
394.29	1001.75
394.49	908.13
394.68	1109.41
394.88	1025.15
395.07	1071.97
395.26	1083.67
395.46	1057.92
395.65	1137.50
395.84	1137.50
396.04	1160.91
396.23	1128.14
396.42	1095.37
396.62	1128.14
396.81	1043.88
397.00	1170.27
397.19	1221.76
397.39	1142.18
397.58	1207.72
397.77	1214.74
397.97	1263.89
398.16	1259.21
398.35	1231.12
398.55	1273.25
398.74	1291.98
398.93	1348.15
399.12	1338.79
399.32	1303.68
399.51	1334.11
399.70	1376.24
399.90	1310.70
400.09	1310.70
400.28	1366.87
400.47	1455.81
400.67	1432.41
400.86	1458.15
401.05	1446.45
401.24	1504.96
401.44	1521.35
401.63	1462.83
401.82	1502.62
402.01	1579.86
402.21	1575.18
402.40	1483.90
402.59	1488.58
402.78	1563.48
402.97	1502.62
403.17	1556.46
403.36	1544.75
403.55	1537.73
403.74	1577.52
403.93	1497.94
404.13	1558.80
404.32	1633.69
404.51	1659.44
404.70	1586.88
404.89	1661.78
405.09	1809.23
405.28	1760.08
405.47	1717.95
405.66	1701.57
405.85	1664.12
406.05	1589.22
406.24	1746.04
406.43	1732.00
406.62	1664.12
406.81	1830.30
407.00	1891.15
407.20	1795.19
407.39	1750.72
407.58	1888.81
407.77	1919.24
407.96	1940.30
408.15	1886.47
408.34	1884.13
408.54	1982.43
408.73	1982.43
408.92	2033.93
409.11	2097.12
409.30	2038.61
409.49	2015.20
409.68	2047.97
409.87	2010.52
410.07	1996.48
410.26	2071.37
410.45	2115.84
410.64	2078.40
410.83	2101.80
411.02	2188.40
411.21	2146.27
411.40	2237.55
411.59	2401.39
411.78	2275.00
411.98	2303.09
412.17	2380.32
412.36	2399.05
412.55	2450.54
412.74	2429.48
412.93	2373.30
413.12	2225.85
413.31	2619.06
413.50	2452.88
413.69	2548.84
413.88	2633.10
414.07	2583.95
414.26	2565.23
414.45	2572.25
414.64	2588.63
414.83	2700.98
415.02	2686.94
415.22	2736.09
415.41	2663.53
415.60	2801.62
415.79	2829.71
415.98	2883.54
416.17	2726.72
416.36	2832.05
416.55	2722.04
416.74	2731.41
416.93	2829.71
417.12	2860.13
417.31	2904.60
417.50	2846.09
417.69	3084.83
417.88	3059.08
418.07	2991.20
418.26	3028.65
418.45	3061.42
418.64	3159.72
418.83	3073.12
419.02	3133.98
419.21	3094.19
419.39	3157.38
419.58	3159.72
419.77	3187.81
419.96	3211.22
420.15	3229.94
420.34	3052.06
420.53	3124.62
420.72	3382.07
420.91	3241.64
421.10	3286.11
421.29	3428.88
421.48	3321.22
421.67	3492.08
421.86	3389.10
422.05	3349.31
422.24	3220.58
422.43	3414.84
422.61	3478.04
422.80	3398.46
422.99	3396.12
423.18	3487.40
423.37	3552.93
423.56	3438.25
423.75	3487.40
423.94	3463.99
424.13	3398.46
424.32	3349.31
424.50	3609.11
424.69	3613.79
424.88	3487.40
425.07	3517.83
425.26	3459.31
425.45	3569.32
425.64	3452.29
425.83	3438.25
426.01	3606.77
426.20	3480.38
426.39	3517.83
426.58	3543.57
426.77	3442.93
426.96	3389.10
427.15	3559.95
427.33	3653.58
427.52	3688.68
427.71	3574.00
427.90	3702.73
428.09	3630.17
428.28	3679.32
428.46	3744.86
428.65	3653.58
428.84	3843.16
429.03	3943.80
429.22	3749.54
429.40	3803.37
429.59	3808.05
429.78	3674.64
429.97	3606.77
430.16	3686.34
430.34	3812.73
430.53	3913.38
430.72	3810.39
430.91	3904.01
431.10	3878.27
431.28	4084.23
431.47	4198.92
431.66	4121.68
431.85	4021.04
432.03	4166.15
432.22	4234.03
432.41	4229.35
432.60	4308.93
432.79	4149.77
432.97	4236.37
433.16	4276.16
433.35	4154.45
433.54	4084.23
433.72	4194.24
433.91	4227.01
434.10	4411.91
434.28	4294.88
434.47	4475.10
434.66	4440.00
434.85	4381.48
435.03	4365.10
435.22	4308.93
435.41	4521.92
435.59	4550.00
435.78	4568.73
435.97	4465.74
436.16	4519.57
436.34	4571.07
436.53	4449.36
436.72	4765.33
436.90	4451.70
437.09	4533.62
437.28	4528.94
437.46	4678.73
437.65	4634.26
437.84	4784.06
438.02	4641.28
438.21	4629.58
438.40	4498.51
438.58	4826.18
438.77	4786.40
438.96	4840.23
439.14	4905.76
439.33	5069.60
439.52	5085.98
439.70	5062.58
439.89	5172.58
440.08	5160.88
440.26	5149.18
440.45	5100.03
440.63	5174.92
440.82	5275.57
441.01	5186.63
441.19	5165.56
441.38	5345.78
441.57	5329.40
441.75	5439.40
441.94	5434.72
442.12	5678.14
442.31	5584.52
442.50	5678.14
442.68	5621.97
442.87	5652.39
443.05	5671.12
443.24	5654.73
443.43	5645.37
443.61	5671.12
443.80	5837.30
443.98	5549.41
444.17	5495.58
444.35	5799.85
444.54	5926.24
444.73	5776.44
444.91	5783.46
445.10	5818.57
445.28	5839.64
445.47	5832.62
445.65	5771.76
445.84	5778.78
446.02	5865.38
446.21	5825.59
446.39	5970.71
446.58	5905.17
446.77	5884.11
446.95	5666.44
447.14	5900.49
447.32	5858.36
447.51	5996.45
447.69	5795.17
447.88	6076.03
448.06	5956.66
448.25	5975.39
448.43	6150.93
448.62	5823.25
448.80	5989.43
448.99	5956.66
449.17	6225.82
449.36	6031.56
449.54	6099.44
449.73	6289.02
449.91	6200.08
450.10	6242.21
450.28	6420.09
450.46	6326.47
450.65	6406.05
450.83	6436.47
451.02	6349.87
451.20	6509.03
451.39	6434.13
451.57	6415.41
451.76	6366.26
451.94	6366.26
452.13	6473.92
452.31	6375.62
452.49	6246.89
452.68	6487.96
452.86	6406.05
453.05	6406.05
453.23	6553.50
453.42	6548.82
453.60	6410.73
453.78	6654.14
453.97	6518.39
454.15	6588.61
454.34	6738.40
454.52	6715.00
454.70	6670.53
454.89	6621.38
455.07	6637.76
455.26	6817.98
455.44	6817.98
455.62	6778.19
455.81	6878.83
455.99	7028.63
456.17	6958.41
456.36	6998.20
456.54	6956.07
456.73	7143.32
456.91	7234.60
457.09	7300.13
457.28	7417.16
457.46	7185.44
457.64	7227.57
457.83	7222.89
458.01	7173.74
458.19	7353.96
458.38	7335.24
458.56	7431.20
458.74	7466.31
458.93	7316.51
459.11	7398.43
459.29	7332.90
459.48	7428.86
459.66	7541.21
459.84	7351.62
460.03	7641.85
460.21	7379.71
460.39	7623.12
460.57	7375.03
460.76	7683.98
460.94	7812.71
461.12	7651.21
461.31	7517.80
461.49	7520.14
461.67	7616.10
461.85	7719.09
462.04	7798.66
462.22	8329.97
462.40	7763.56
462.59	8025.70
462.77	7815.05
462.95	7960.16
463.13	7875.90
463.32	8109.96
463.50	7999.95
463.68	8180.17
463.86	8159.11
464.05	7889.95
464.23	7974.21
464.41	8187.19
464.59	8046.76
464.78	8222.30
464.96	8297.20
465.14	8201.24
465.32	8138.04
465.50	8203.58
465.69	8285.50
465.87	8168.47
466.05	7941.44
466.23	8198.90
466.41	8297.20
466.60	8617.85
466.78	8341.67
466.96	8290.18
467.14	8468.06
467.32	8365.07
467.51	8667.00
467.69	8285.50
467.87	8554.66
468.05	8367.42
468.23	8659.98
468.41	8306.56
468.60	8334.65
468.78	8629.56
468.96	8514.87
469.14	8798.07
469.32	8596.79
469.50	8643.60
469.69	8615.51
469.87	8720.84
470.05	8704.45
470.23	8844.88
470.41	8781.69
470.59	9139.79
470.77	8765.31
470.95	8931.48
471.14	9116.39
471.32	9004.04
471.50	9401.93
471.68	9170.22
471.86	9118.73
472.04	9275.54
472.22	9453.42
472.40	9139.79
472.58	9315.33
472.77	9310.65
472.95	9322.35
473.13	9731.95
473.31	9596.20
473.49	9556.41
473.67	9603.22
473.85	9757.69
474.03	9813.87
474.21	9806.84
474.39	9834.93
474.57	9898.13
474.75	10050.26
474.93	10132.18
475.12	10115.80
475.30	10022.17
475.48	10003.45
475.66	10174.31
475.84	10150.90
476.02	10328.78
476.20	10476.24
476.38	10445.81
476.56	10717.31
476.74	10576.88
476.92	10541.77
477.10	10576.88
477.28	10712.63
477.46	10925.62
477.64	10841.36
477.82	11108.18
478.00	11473.31
478.18	11082.44
478.36	11363.30
478.54	11480.33
478.72	11400.75
478.90	11522.46
479.08	11700.34
479.26	11754.17
479.44	11793.96
479.62	11981.20
479.80	11882.90
479.98	12159.08
480.16	12428.24
480.34	12208.23
480.52	12304.20
480.70	12458.67
480.88	12112.27
481.06	12594.42
481.24	12446.97
481.41	12535.91
481.59	12929.12
481.77	12961.89
481.95	12910.40
482.13	13195.94
482.31	12957.21
482.49	13448.72
482.67	13479.15
482.85	13444.04
483.03	13626.60
483.21	13717.88
483.39	13820.86
483.57	13825.54
483.74	14253.86
483.92	14075.98
484.10	14003.43
484.28	14389.61
484.46	14499.62
484.64	14768.78
484.82	14317.06
485.00	14839.00
485.18	14970.07
485.35	15035.60
485.53	14939.64
485.71	15047.30
485.89	15262.63
486.07	15337.53
486.25	15204.12
486.43	15438.17
486.61	15719.04
486.78	15892.24
486.96	15988.20
487.14	16093.52
487.32	16233.96
487.50	16383.75
487.68	16762.92
487.85	16905.69
488.03	16568.65
488.21	16671.64
488.39	16882.28
488.57	17298.90
488.75	17195.92
488.92	17425.29
489.10	17348.05
489.28	17717.86
489.46	18052.55
489.64	17937.87
489.81	18349.80
489.99	18085.32
490.17	18544.06
490.35	18361.50
490.53	18312.35
490.70	18462.15
490.88	18647.05
491.06	18864.72
491.24	19112.81
491.41	19054.30
491.59	19112.81
491.77	18946.64
491.95	19232.18
492.13	19143.24
492.30	19871.15
492.48	19587.94
492.66	19613.69
492.84	19878.17
493.01	20034.99
493.19	20184.78
493.37	20393.09
493.54	20304.15
493.72	20531.18
493.90	20552.24
494.08	20702.04
494.25	21223.98
494.43	20999.29
494.61	20952.48
494.79	21156.10
494.96	21284.83
495.14	21408.88
495.32	21898.05
495.49	21558.67
495.67	21699.11
495.85	21994.01
496.02	21979.97
496.20	22188.28
496.38	22204.66
496.55	22558.08
496.73	23220.45
496.91	22501.91
497.09	22838.95
497.26	22642.34
497.44	22855.33
497.62	23175.98
497.79	23220.45
497.97	23147.90
498.14	23145.56
498.32	23248.54
498.50	23391.31
498.67	23768.14
498.85	23592.60
499.03	23962.40
499.20	23885.17
499.38	23765.80
499.56	24369.66
499.73	24341.57
499.91	24297.10
500.08	24634.14
500.26	24425.83
500.44	24334.55
500.61	24620.10
500.79	24442.21
500.97	24680.95
501.14	24964.15
501.32	25109.27
501.49	24884.58
501.67	24947.77
501.84	25050.75
502.02	25039.05
502.20	25245.02
502.37	25472.05
502.55	25434.60
502.72	25717.81
502.90	25628.87
503.07	25982.29
503.25	25947.18
503.43	25668.66
503.60	25991.65
503.78	26003.35
503.95	26195.28
504.13	26192.94
504.30	26506.57
504.48	26434.01
504.65	26979.36
504.83	26532.31
505.01	27014.46
505.18	26742.96
505.36	27178.30
505.53	26918.50
505.71	27175.96
505.88	27363.20
506.06	26925.52
506.23	27325.75
506.41	26731.26
506.58	27599.60
506.76	27475.55
506.93	27843.01
507.11	27662.79
507.28	27843.01
507.46	27517.68
507.63	27557.47
507.81	27941.32
507.98	27983.44
508.16	28044.30
508.33	28210.48
508.50	28456.23
508.68	28336.87
508.85	28711.35
509.03	28479.64
509.20	28320.48
509.38	28631.77
509.55	28793.27
509.73	28720.71
509.90	29322.23
510.08	28800.29
510.25	29469.69
510.42	29216.91
510.60	29460.32
510.77	29305.85
510.95	29418.19
511.12	29511.81
511.30	29577.35
511.47	29776.30
511.64	29692.04
511.82	29825.45
511.99	29972.90
512.17	30085.25
512.34	29621.82
512.51	30464.41
512.69	30293.55
512.86	30279.51
513.04	30363.77
513.21	30511.22
513.38	30017.37
513.56	30373.13
513.73	30298.23
513.90	30436.33
514.08	30787.41
514.25	30682.08
514.43	30979.33
514.60	31171.25
514.77	30885.71
514.95	31372.54
515.12	31009.76
515.29	31386.58
515.47	31468.50
515.64	31594.89
515.81	30976.99
515.99	31028.48
516.16	31627.66
516.33	31644.04
516.51	32020.87
516.68	31105.72
516.85	31447.44
517.03	31882.78
517.20	31791.50
517.37	32058.32
517.54	32407.06
517.72	32374.29
517.89	31814.90
518.06	31683.83
518.24	32119.17
518.41	32123.85
518.58	32451.53
518.75	32290.03
518.93	32547.49
519.10	32570.90
519.27	32800.27
519.45	32730.05
519.62	32907.93
519.79	32903.25
519.96	33092.83
520.14	32971.13
520.31	32863.46
520.48	33043.68
520.65	33123.26
520.83	33397.10
521.00	33525.83
521.17	33516.47
521.34	33546.90
521.52	33832.44
521.69	33628.82
521.86	33813.72
522.03	34040.75
522.20	34139.05
522.38	33879.25
522.55	34134.37
522.72	34326.30
522.89	33755.21
523.07	34040.75
523.24	33886.28
523.41	34581.42
523.58	34244.38
523.75	34660.99
523.92	34787.38
524.10	34934.84
524.27	34258.42
524.44	35040.16
524.61	35016.75
524.78	35196.98
524.96	35089.31
525.13	35189.95
525.30	35531.67
525.47	35370.18
525.64	35192.30
525.81	35250.81
525.98	35007.39
526.16	35098.67
526.33	34951.22
526.50	35468.48
526.67	35255.49
526.84	35215.70
527.01	35489.54
527.18	35477.84
527.36	35309.32
527.53	35866.37
527.70	36039.57
527.87	36116.81
528.04	35749.34
528.21	36371.92
528.38	36006.80
528.55	36247.88
528.72	36217.45
528.89	36477.25
529.07	35782.11
529.24	36039.57
529.41	36346.18
529.58	36407.03
529.75	36070.00
529.92	36849.39
530.09	36699.60
530.26	36690.24
530.43	36854.08
530.60	36737.05
530.77	36144.89
530.94	36968.76
531.11	36671.51
531.28	37088.13
531.46	37151.32
531.63	37397.08
531.80	37251.97
531.97	36910.25
532.14	36989.83
532.31	37343.25
532.48	37090.47
532.65	37127.92
532.82	37256.65
532.99	37766.88
533.16	36830.67
533.33	37584.32
533.50	37816.04
533.67	37675.60
533.84	37228.56
534.01	37593.68
534.18	37249.63
534.35	38007.96
534.52	37710.71
534.69	37867.53
534.86	38115.62
535.03	37691.99
535.20	38178.82
535.37	38419.89
535.54	38497.13
535.71	38234.99
535.88	38157.75
536.05	38511.17
536.22	38569.69
536.38	38419.89
536.55	38225.63
536.72	38431.60
536.89	38330.95
537.06	38281.80
537.23	38616.50
537.40	38693.74
537.57	38682.03
537.74	38333.29
537.91	39037.80
538.08	38944.17
538.25	38569.69
538.42	38925.45
538.59	39180.57
538.75	38696.08
538.92	38878.64
539.09	39098.65
539.26	38969.92
539.43	39344.41
539.60	38969.92
539.77	39260.15
539.94	39215.68
540.11	39136.10
540.28	38990.98
540.44	39117.37
540.61	39065.88
540.78	39257.81
540.95	39129.08
541.12	39321.00
541.29	39283.55
541.46	39419.30
541.62	39562.08
541.79	39807.83
541.96	39562.08
542.13	39636.97
542.30	39470.79
542.47	39707.19
542.63	39328.02
542.80	39847.62
542.97	40137.85
543.14	40573.19
543.31	40601.27
543.48	39941.24
543.64	40734.68
543.81	40683.19
543.98	40407.01
544.15	40774.47
544.32	40502.97
544.48	41055.34
544.65	40638.72
544.82	40493.61
544.99	39955.29
545.16	40617.66
545.32	40453.82
545.49	41081.08
545.66	41064.70
545.83	40935.97
546.00	41394.71
546.16	40994.48
546.33	40872.78
546.50	40758.09
546.67	41146.62
546.83	40779.15
547.00	41139.60
547.17	40917.25
547.34	41347.90
547.50	41270.67
547.67	41624.09
547.84	41600.68
548.00	41495.36
548.17	41546.85
548.34	41474.29
548.51	41687.28
548.67	41911.97
548.84	41729.41
549.01	41818.35
549.18	41694.30
549.34	41808.99
549.51	41731.75
549.68	41654.51
549.84	41825.37
550.01	41869.84
550.18	41474.29
550.34	41741.11
550.51	41755.16
550.68	41624.09
550.84	41413.44
551.01	41706.01
551.18	41808.99
551.34	42050.06
551.51	41680.26
551.68	42237.31
551.84	42246.67
552.01	42181.13
552.18	42197.52
552.34	41970.49
552.51	42384.76
552.68	42377.74
552.84	42246.67
553.01	42670.31
553.18	42227.95
553.34	42471.36
553.51	42134.32
553.67	42160.07
553.84	42890.32
554.01	42478.38
554.17	42948.83
554.34	42754.57
554.51	42742.86
554.67	42684.35
554.84	42314.55
555.00	42543.92
555.17	41975.17
555.33	42710.10
555.50	42522.85
555.67	42974.58
555.83	42717.12
556.00	42689.03
556.16	42993.30
556.33	43021.39
556.50	42766.27
556.66	43428.64
556.83	42494.77
556.99	43377.15
557.16	43440.34
557.32	42944.15
557.49	43225.01
557.65	42796.70
557.82	43089.26
557.98	43133.73
558.15	43227.35
558.32	43330.34
558.48	42859.89
558.65	43100.97
558.81	43133.73
558.98	42906.70
559.14	43173.52
559.31	43110.33
559.47	43545.67
559.64	43384.17
559.80	43473.11
559.97	43309.27
560.13	43093.94
560.30	43274.16
560.46	43522.26
560.63	43264.80
560.79	43679.08
560.96	43959.94
561.12	43501.20
561.29	43702.48
561.45	43262.46
561.61	43906.11
561.78	43416.94
561.94	43400.55
562.11	43393.53
562.27	42948.83
562.44	43428.64
562.60	44179.95
562.77	43421.62
562.93	43833.55
563.10	44030.16
563.26	43407.58
563.42	43863.98
563.59	43566.73
563.75	43653.33
563.92	43840.57
564.08	43863.98
564.24	43941.22
564.41	43964.62
564.57	43854.62
564.74	43777.38
564.90	43814.83
565.07	43831.21
565.23	43625.25
565.39	43786.74
565.56	44292.30
565.72	43643.97
565.88	44041.86
566.05	43856.96
566.21	44037.18
566.38	44065.27
566.54	43702.48
566.70	44268.89
566.87	44107.40
567.03	43831.21
567.19	44355.49
567.36	44320.38
567.52	43660.35
567.68	44208.04
567.85	43814.83
568.01	44210.38
568.17	43789.08
568.34	43978.67
568.50	44198.68
568.66	44348.47
568.83	44748.70
568.99	44168.25
569.15	43742.27
569.32	44208.04
569.48	43697.80
569.64	44446.77
569.81	44659.76
569.97	43868.66
570.13	44252.51
570.30	43833.55
570.46	44058.24
570.62	43782.06
570.78	43852.28
570.95	43845.26
571.11	44381.24
571.27	44182.29
571.43	44165.91
571.60	44341.45
571.76	43971.64
571.92	44383.58
572.09	44315.70
572.25	44018.46
572.41	44109.74
572.57	44039.52
572.74	44556.78
572.90	44465.50
573.06	44357.83
573.22	44626.99
573.38	44128.46
573.55	44266.55
573.71	44360.17
573.87	44439.75
574.03	44126.12
574.20	44437.41
574.36	44039.52
574.52	44540.39
574.68	44318.04
574.84	44395.28
575.01	44399.96
575.17	43952.92
575.33	43753.97
575.49	44215.06
575.65	44509.97
575.82	44526.35
575.98	44500.61
576.14	44793.17
576.30	44350.81
576.46	44289.96
576.62	44282.94
576.79	44521.67
576.95	44004.41
577.11	44364.85
577.27	44128.46
577.43	44418.69
577.59	44350.81
577.75	44285.28
577.92	44119.10
578.08	43988.03
578.24	44308.68
578.40	44360.17
578.56	44662.10
578.72	44708.91
578.88	44694.87
579.04	44589.55
579.21	44278.25
579.37	44313.36
579.53	44414.01
579.69	44446.77
579.85	44451.45
580.01	45177.02
580.17	44746.36
580.33	44751.04
580.49	44879.77
580.65	44622.31
580.82	44676.15
580.98	44371.88
581.14	44446.77
581.30	44797.85
581.46	43791.42
581.62	44793.17
581.78	45020.20
581.94	44914.88
582.10	44760.40
582.26	44914.88
582.42	44788.49
582.58	44437.41
582.74	44699.55
582.90	44629.34
583.06	44364.85
583.22	44898.50
583.38	44971.05
583.54	44678.49
583.70	44521.67
583.86	44168.25
584.02	44238.47
584.18	44444.43
584.34	44313.36
584.50	44580.18
584.66	44460.82
584.82	44502.95
584.98	45116.17
585.14	44521.67
585.30	44685.51
585.46	44690.19
585.62	44524.01
585.78	44341.45
585.94	44215.06
586.10	44378.90
586.26	44477.20
586.42	44395.28
586.58	44626.99
586.74	44987.44
586.90	44397.62
587.06	44666.78
587.22	44718.28
587.38	44304.00
587.54	44952.33
587.70	45155.96
587.86	45078.72
588.02	44634.02
588.18	44921.90
588.34	44278.25
588.49	44465.50
588.65	44259.53
588.81	44355.49
588.97	44360.17
589.13	44245.49
589.29	44519.33
589.45	44257.19
589.61	44828.28
589.77	44921.90
589.93	44797.85
590.08	45191.06
590.24	44767.43
590.40	45024.89
590.56	44776.79
590.72	44854.03
590.88	44949.99
591.04	44994.46
591.20	45282.34
591.35	44980.42
591.51	45195.74
591.67	44992.12
591.83	44837.64
591.99	44280.60
592.15	44559.12
592.31	44634.02
592.46	44575.50
592.62	44790.83
592.78	44994.46
592.94	45219.15
593.10	44884.45
593.26	44830.62
593.41	45123.19
593.57	44732.32
593.73	44896.16
593.89	45247.24
594.05	44568.48
594.20	44957.01
594.36	45282.34
594.52	44938.29
594.68	45216.81
594.84	44926.58
594.99	45071.70
595.15	45029.57
595.31	45024.89
595.47	44580.18
595.62	44821.26
595.78	45123.19
595.94	45373.63
596.10	44692.53
596.25	45282.34
596.41	45123.19
596.57	44865.73
596.73	44884.45
596.88	44767.43
597.04	45076.38
597.20	44926.58
597.36	45085.74
597.51	45404.05
597.67	44865.73
597.83	45317.45
597.99	45563.21
598.14	45172.34
598.30	44926.58
598.46	45001.48
598.61	44809.56
598.77	44690.19
598.93	44755.72
599.09	44727.64
599.24	45645.13
599.40	45240.21
599.56	45240.21
599.71	45188.72
599.87	45205.11
600.03	45390.01
600.18	45280.00
600.34	44683.17
600.50	45120.85
600.65	44772.11
600.81	45202.77
600.97	45425.12
601.12	45287.03
601.28	45448.52
601.44	44954.67
601.59	45254.26
601.75	45191.06
601.91	45001.48
602.06	44966.37
602.22	44964.03
602.37	44692.53
602.53	44870.41
602.69	45265.96
602.84	45399.37
603.00	44399.96
603.16	45202.77
603.31	44828.28
603.47	45151.27
603.62	44683.17
603.78	45265.96
603.94	44844.66
604.09	45020.20
604.25	45008.50
604.40	45198.09
604.56	44704.23
604.71	44811.90
604.87	44889.13
605.03	45284.68
605.18	44729.98
605.34	45144.25
605.49	44701.89
605.65	44959.35
605.80	44802.53
605.96	44524.01
606.12	45123.19
606.27	45542.14
606.43	44786.15
606.58	45090.42
606.74	44861.05
606.89	44776.79
607.05	45137.23
607.20	45193.40
607.36	44914.88
607.51	45209.79
607.67	45059.99
607.82	45130.21
607.98	44832.96
608.13	44877.43
608.29	44949.99
608.44	44404.64
608.60	44975.73
608.75	44830.62
608.91	44341.45
609.06	44971.05
609.22	44928.92
609.37	44842.32
609.53	44690.19
609.68	44762.75
609.84	44587.21
609.99	45191.06
610.15	44711.25
610.30	44465.50
610.46	44053.56
610.61	44725.30
610.76	44650.40
610.92	44437.41
611.07	44154.21
611.23	44559.12
611.38	44268.89
611.54	44189.31
611.69	43859.30
611.84	44336.77
612.00	44474.86
612.15	44350.81
612.31	44601.25
612.46	44477.20
612.62	44645.72
612.77	44514.65
612.92	44399.96
613.08	44100.37
613.23	44325.07
613.39	44280.60
613.54	43866.32
613.69	43868.66
613.85	44315.70
614.00	44453.79
614.15	44474.86
614.31	44067.61
614.46	44519.33
614.62	43849.94
614.77	44212.72
614.92	44076.97
615.08	44034.84
615.23	44411.67
615.38	43709.50
615.54	43648.65
615.69	43484.81
615.84	43466.09
616.00	44198.68
616.15	43784.40
616.30	44168.25
616.46	43342.04
616.61	43248.42
616.76	43601.84
616.92	43817.17
617.07	43353.74
617.22	43585.46
617.37	43756.32
617.53	43763.34
617.68	43880.36
617.83	43948.24
617.99	43828.87
618.14	43548.01
618.29	43342.04
618.45	43606.52
618.60	43562.05
618.75	43477.79
618.90	43100.97
619.06	43723.55
619.21	43786.74
619.36	43363.11
619.51	43592.48
619.67	43819.51
619.82	43697.80
619.97	44093.35
620.12	43215.65
620.28	42988.62
620.43	42703.07
620.58	43161.82
620.73	43103.31
620.89	42979.26
621.04	42930.11
621.19	43210.97
621.34	43295.23
621.49	42642.22
621.65	42974.58
621.80	43323.32
621.95	42953.51
622.10	43185.22
622.25	42899.68
622.41	42157.73
622.56	43035.43
622.71	43278.85
622.86	42719.46
623.01	43028.41
623.16	43180.54
623.32	43250.76
623.47	42740.52
623.62	42866.91
623.77	42834.14
623.92	42450.30
624.07	42307.52
624.23	42632.86
624.38	42656.26
624.53	42478.38
624.68	42801.38
624.83	42834.14
624.98	42637.54
625.13	42586.05
625.29	42110.92
625.44	42459.66
625.59	42293.48
625.74	42073.47
625.89	42185.82
626.04	41979.85
626.19	42267.73
626.34	42415.19
626.49	42452.64
626.65	41933.04
626.80	42080.49
626.95	42429.23
627.10	41998.57
627.25	41872.18
627.40	42059.43
627.55	41631.11
627.70	41343.22
627.85	41851.12
628.00	41970.49
628.15	42251.35
628.30	41366.63
628.45	41546.85
628.60	41762.18
628.76	41813.67
628.91	42000.91
629.06	41624.09
629.21	41336.20
629.36	41567.91
629.51	41539.83
629.66	41605.36
629.81	41263.64
629.96	41516.42
630.11	41617.07
630.26	41514.08
630.41	41397.06
630.56	41385.35
630.71	41427.48
630.86	41095.13
631.01	41153.64
631.16	41408.76
631.31	41001.50
631.46	40811.92
631.61	41186.41
631.76	41258.96
631.91	41851.12
632.06	41383.01
632.21	41258.96
632.36	41504.72
632.51	41017.89
632.66	41373.65
632.81	40842.35
632.96	41001.50
633.10	40917.25
633.25	40566.16
633.40	41132.57
633.55	41331.52
633.70	41038.95
633.85	40924.27
634.00	40446.80
634.15	41106.83
634.30	40760.43
634.45	40905.54
634.60	40861.07
634.75	41237.90
634.90	40767.45
635.05	40814.26
635.19	40699.58
635.34	40935.97
635.49	41200.45
635.64	40425.73
635.79	40416.37
635.94	40069.97
636.09	40517.01
636.24	40435.10
636.39	40519.35
636.53	40650.42
636.68	40128.48
636.83	40320.41
636.98	40699.58
637.13	39859.32
637.28	40648.08
637.43	40418.71
637.57	40917.25
637.72	40407.01
637.87	40612.98
638.02	40332.11
638.17	40142.53
638.32	40254.87
638.46	39966.99
638.61	39735.27
638.76	39903.79
638.91	39927.20
639.06	40289.98
639.20	40208.06
639.35	40107.42
639.50	40215.08
639.65	40329.77
639.80	39957.63
639.94	40062.95
640.09	40165.93
640.24	40030.18
640.39	39861.66
640.54	39496.54
640.68	39938.90
640.83	39992.73
640.98	39662.72
641.13	39732.93
641.27	39438.03
641.42	39367.81
641.57	39459.09
641.72	39821.87
641.86	39826.56
642.01	39550.37
642.16	39737.62
642.31	39409.94
642.45	39145.46
642.60	39124.40
642.75	39306.96
642.90	39562.08
643.04	39428.66
643.19	39379.51
643.34	39716.55
643.48	39292.91
643.63	39655.70
643.78	39016.73
643.93	38967.58
644.07	39040.14
644.22	39585.48
644.37	38787.36
644.51	39047.16
644.66	39115.03
644.81	39283.55
644.95	39541.01
645.10	39381.85
645.25	39758.68
645.39	38981.62
645.54	39065.88
645.69	39019.07
645.83	38314.57
645.98	38873.96
646.13	38953.54
646.27	39124.40
646.42	38700.76
646.57	39168.87
646.71	39035.45
646.86	38944.17
647.00	38733.53
647.15	38644.59
647.30	38909.07
647.44	39119.71
647.59	38590.75
647.74	38611.82
647.88	38710.12
648.03	38337.98
648.17	38321.59
648.32	38223.29
648.47	38623.52
648.61	38157.75
648.76	38700.76
648.90	38658.63
649.05	38550.96
649.20	38637.56
649.34	38883.32
649.49	38220.95
649.63	38190.52
649.78	38209.25
649.92	38113.28
650.07	38801.40
650.21	38312.23
650.36	38239.67
650.51	38080.52
650.65	38595.43
650.80	38888.00
650.94	38611.82
651.09	38410.53
651.23	38019.66
651.38	38134.35
651.52	38099.24
651.67	37926.04
651.81	38277.12
651.96	37397.08
652.10	37982.21
652.25	38263.08
652.39	37984.55
652.54	38202.22
652.68	37940.08
652.83	38066.47
652.97	37944.76
653.12	38246.69
653.26	37532.83
653.41	38012.64
653.55	37916.68
653.70	37394.74
653.84	37645.18
653.99	37537.51
654.13	37652.20
654.27	37603.05
654.42	37291.76
654.56	37684.97
654.71	37722.41
654.85	37345.59
655.00	37787.95
655.14	37315.16
655.29	37020.25
655.43	36779.18
655.57	36907.91
655.72	36943.02
655.86	37003.87
656.01	37212.18
656.15	37406.44
656.30	37268.35
656.44	37324.52
656.58	37284.73
656.73	36725.35
656.87	36725.35
657.01	36720.66
657.16	36556.83
657.30	36603.64
657.45	36685.56
657.59	36620.02
657.73	36177.66
657.88	36830.67
658.02	36830.67
658.16	36444.48
658.31	37156.00
658.45	36627.04
658.60	36744.07
658.74	37209.84
658.88	36715.98
659.03	36383.63
659.17	36208.09
659.31	36521.72
659.46	36182.34
659.60	36512.36
659.74	36577.89
659.89	35826.58
660.03	35948.29
660.17	36271.28
660.32	36224.47
660.46	36404.69
660.60	36081.70
660.74	36055.95
660.89	35903.82
661.03	35889.77
661.17	35828.92
661.32	35667.42
661.46	35702.53
661.60	35723.60
661.74	35826.58
661.89	35604.23
662.03	35908.50
662.17	35615.93
662.31	35236.77
662.46	35702.53
662.60	35189.95
662.74	35419.33
662.88	35590.19
663.03	35187.61
663.17	35005.05
663.31	35019.10
663.45	35314.00
663.60	35274.21
663.74	34773.34
663.88	34742.91
664.02	34998.03
664.17	34721.85
664.31	34876.32
664.45	34789.72
664.59	34621.20
664.73	34995.69
664.88	34801.43
665.02	34808.45
665.16	34852.92
665.30	34735.89
665.44	33923.72
665.59	34197.57
665.73	34066.50
665.87	34209.27
666.01	33897.98
666.15	34223.31
666.29	34389.49
666.44	34272.46
666.58	34085.22
666.72	34347.36
666.86	34359.06
667.00	34363.75
667.14	33752.87
667.28	33890.96
667.43	33706.05
667.57	33741.16
667.71	33708.40
667.85	33663.93
667.99	33312.84
668.13	33188.80
668.27	33912.02
668.41	33296.46
668.56	33357.32
668.70	33347.95
668.84	33174.75
668.98	33333.91
669.12	32964.10
669.26	33235.61
669.40	33055.39
669.54	33001.55
669.68	32957.08
669.82	32549.83
669.96	32692.60
670.10	32285.35
670.25	32278.33
670.39	32907.93
670.53	32790.91
670.67	32308.76
670.81	32662.18
670.95	32680.90
671.09	32521.74
671.23	32514.72
671.37	32854.10
671.51	32275.99
671.65	32107.47
671.79	32168.32
671.93	31887.46
672.07	32222.16
672.21	32158.96
672.35	31644.04
672.49	32030.23
672.63	32334.50
672.77	31943.63
672.91	31606.59
673.05	31374.88
673.19	31456.80
673.33	31779.79
673.47	31274.24
673.61	31058.91
673.75	31021.46
673.89	30871.67
674.03	30576.76
674.17	30941.88
674.31	30735.92
674.45	30663.36
674.59	31129.12
674.73	30934.86
674.87	30909.11
675.01	30752.30
675.15	30981.67
675.29	30375.47
675.43	30558.03
675.56	30497.18
675.70	30349.73
675.84	30422.28
675.98	29177.12
676.12	30396.54
676.26	30139.08
676.40	29685.01
676.54	29717.78
676.68	29919.07
676.82	29244.99
676.96	29558.63
677.10	29476.71
677.23	29460.32
677.37	29497.77
677.51	29249.67
677.65	29259.04
677.79	28765.18
677.93	29570.33
678.07	29036.69
678.21	28283.03
678.34	28610.71
678.48	28484.32
678.62	28484.32
678.76	28334.53
678.90	28582.62
679.04	28261.97
679.18	28692.63
679.31	28189.41
679.45	28027.92
679.59	27653.43
679.73	27850.03
679.87	28013.87
680.00	27962.38
680.14	27522.36
680.28	27414.69
680.42	27632.36
680.56	27515.34
680.70	27161.92
680.83	27281.28
680.97	27112.77
681.11	26829.56
681.25	27241.50
681.39	26415.29
681.52	27117.45
681.66	26937.23
681.80	26478.48
681.94	26480.82
682.07	26457.42
682.21	26265.49
682.35	26223.36
682.49	26249.11
682.62	26326.35
682.76	26134.42
682.90	26146.12
683.04	25837.17
683.17	26026.76
683.31	25818.45
683.45	25813.77
683.59	25469.71
683.72	25804.41
683.86	25280.13
684.00	25228.63
684.13	25390.13
684.27	25212.25
684.41	25184.16
684.55	24996.92
684.68	24517.11
684.82	24783.93
684.96	24833.08
685.09	24687.97
685.23	24699.67
685.37	24320.51
685.50	24376.68
685.64	24030.28
685.78	24290.08
685.91	24400.08
686.05	24072.41
686.19	23913.25
686.32	23782.18
686.46	23704.95
686.60	23484.94
686.73	23943.68
686.87	23494.30
687.01	23360.89
687.14	23410.04
687.28	23150.24
687.42	22995.76
687.55	22850.65
687.69	23187.69
687.82	22635.32
687.96	23023.85
688.10	22843.63
688.23	22803.84
688.37	22064.23
688.50	22408.29
688.64	22401.27
688.78	22305.31
688.91	21989.33
689.05	22288.92
689.18	21961.25
689.32	21659.32
689.46	22008.06
689.59	22005.72
689.73	21879.33
689.86	21549.31
690.00	21591.44
690.13	21722.51
690.27	21310.58
690.41	21664.00
690.54	21163.12
690.68	21090.57
690.81	21018.01
690.95	21202.91
691.08	21186.53
691.22	20982.90
691.35	20968.86
691.49	21010.99
691.62	20903.32
691.76	21055.46
691.89	20634.16
692.03	20320.53
692.16	20575.65
692.30	20407.13
692.43	20245.63
692.57	19992.86
692.70	20437.56
692.84	19929.66
692.97	19887.53
693.11	19807.95
693.24	19592.62
693.38	19754.12
693.51	19353.89
693.65	19435.81
693.78	19569.22
693.92	19351.55
694.05	19131.54
694.19	19381.98
694.32	19407.72
694.45	19143.24
694.59	18855.36
694.72	19101.11
694.86	18789.82
694.99	18609.60
695.13	18492.57
695.26	18207.03
695.39	18274.90
695.53	18464.49
695.66	18380.23
695.80	18396.61
695.93	18270.22
696.07	18024.47
696.20	18155.54
696.33	18115.75
696.47	17888.71
696.60	17982.34
696.73	18031.49
696.87	18024.47
697.00	17928.50
697.14	17582.10
697.27	17380.82
697.40	17537.63
697.54	17308.26
697.67	17451.03
697.80	17315.28
697.94	16847.18
698.07	17085.91
698.21	16959.52
698.34	16954.84
698.47	16898.67
698.61	16449.28
698.74	16730.15
698.87	16645.89
699.01	16374.39
699.14	16449.28
699.27	16496.10
699.40	16444.60
699.54	16140.33
699.67	16210.55
699.80	16252.68
699.94	15985.86
700.07	15941.39
700.20	15704.99
700.34	15784.57
700.47	15665.21
700.60	15653.50
700.73	15894.58
700.87	15384.34
701.00	15566.90
701.13	15620.74
701.26	15578.61
701.40	15716.70
701.53	15358.60
701.66	15374.98
701.79	15068.37
701.93	14792.19
702.06	14862.40
702.19	14937.30
702.32	14869.42
702.46	14986.45
702.59	14649.41
702.72	14869.42
702.85	14595.58
702.99	14843.68
703.12	15016.88
703.25	14520.68
703.38	14565.15
703.51	14326.42
703.65	14193.01
703.78	14406.00
703.91	14097.05
704.04	14183.65
704.17	14047.90
704.31	13855.97
704.44	13743.63
704.57	13458.08
704.70	13493.19
704.83	13699.16
704.96	13652.34
705.10	13799.80
705.23	13741.29
>>>>>End Processed Spectral Data<<<<<
