SpectraSuite Data File
++++++++++++++++++++++++++++++++++++
Date: Fri Oct 25 10:47:32 EDT 2013
User: price-jones
Dark Spectrum Present: No
Reference Spectrum Present: No
Number of Sampled Component Spectra: 1
Spectrometers: USB2+H05261
Integration Time (usec): 100000 (USB2+H05261)
Spectra Averaged: 1 (USB2+H05261)
Boxcar Smoothing: 0 (USB2+H05261)
Correct for Electrical Dark: No (USB2+H05261)
Strobe/Lamp Enabled: No (USB2+H05261)
Correct for Detector Non-linearity: No (USB2+H05261)
Correct for Stray Light: No (USB2+H05261)
Number of Pixels in Processed Spectrum: 2048
>>>>>Begin Processed Spectral Data<<<<<
365.73	220.01
365.92	220.01
366.12	220.01
366.32	60.85
366.52	145.11
366.72	0.00
366.91	9.36
367.11	65.54
367.31	32.77
367.51	23.41
367.70	0.00
367.90	51.49
368.10	21.06
368.30	35.11
368.49	0.00
368.69	51.49
368.89	4.68
369.09	44.47
369.28	58.51
369.48	60.85
369.68	79.58
369.87	159.16
370.07	98.30
370.27	147.45
370.47	145.11
370.66	320.65
370.86	327.68
371.06	475.13
371.25	447.04
371.45	498.53
371.65	456.40
371.84	454.06
372.04	423.64
372.24	425.98
372.44	489.17
372.63	519.60
372.83	472.79
373.03	400.23
373.22	390.87
373.42	470.45
373.62	496.19
373.81	486.83
374.01	557.05
374.21	440.02
374.40	500.87
374.60	535.98
374.79	543.00
374.99	554.71
375.19	489.17
375.38	505.56
375.58	596.84
375.78	526.62
375.97	547.69
376.17	543.00
376.37	561.73
376.56	608.54
376.76	538.32
376.95	624.92
377.15	606.20
377.35	571.09
377.54	603.86
377.74	594.50
377.93	566.41
378.13	615.56
378.33	552.37
378.52	575.77
378.72	596.84
378.91	695.14
379.11	571.09
379.31	596.84
379.50	547.69
379.70	613.22
379.89	711.52
380.09	627.26
380.28	688.12
380.48	660.03
380.68	683.44
380.87	657.69
381.07	683.44
381.26	627.26
381.46	603.86
381.65	671.73
381.85	648.33
382.04	601.52
382.24	582.79
382.43	631.94
382.63	671.73
382.83	685.78
383.02	641.31
383.22	767.70
383.41	702.16
383.61	758.33
383.80	784.08
384.00	716.20
384.19	671.73
384.39	720.88
384.58	683.44
384.78	737.27
384.97	760.67
385.17	779.40
385.36	709.18
385.56	702.16
385.75	727.91
385.95	727.91
386.14	774.72
386.34	727.91
386.53	781.74
386.72	856.64
386.92	786.42
387.11	856.64
387.31	819.19
387.50	844.93
387.70	795.78
387.89	814.51
388.09	716.20
388.28	800.46
388.48	770.04
388.67	795.78
388.86	868.34
389.06	791.10
389.25	809.83
389.45	889.40
389.64	833.23
389.84	917.49
390.03	894.08
390.22	945.58
390.42	882.38
390.61	887.06
390.81	901.11
391.00	908.13
391.19	884.72
391.39	983.02
391.58	915.15
391.78	905.79
391.97	997.07
392.16	882.38
392.36	980.68
392.55	964.30
392.75	929.19
392.94	943.24
393.13	922.17
393.33	1013.45
393.52	990.05
393.71	938.55
393.91	990.05
394.10	1132.82
394.29	1006.43
394.49	1076.65
394.68	1039.20
394.88	1064.94
395.07	985.37
395.26	1069.62
395.46	1032.18
395.65	1116.44
395.84	1090.69
396.04	1137.50
396.23	1027.50
396.42	1074.31
396.62	1086.01
396.81	1015.79
397.00	1069.62
397.19	1196.01
397.39	1107.07
397.58	1153.88
397.77	1273.25
397.97	1280.27
398.16	1275.59
398.35	1252.19
398.55	1289.64
398.74	1306.02
398.93	1343.47
399.12	1252.19
399.32	1287.29
399.51	1299.00
399.70	1306.02
399.90	1343.47
400.09	1437.09
400.28	1380.92
400.47	1357.51
400.67	1329.42
400.86	1455.81
401.05	1474.54
401.24	1416.02
401.44	1465.18
401.63	1516.67
401.82	1500.28
402.01	1411.34
402.21	1392.62
402.40	1451.13
402.59	1397.30
402.78	1526.03
402.97	1481.56
403.17	1528.37
403.36	1547.09
403.55	1584.54
403.74	1596.25
403.93	1519.01
404.13	1638.38
404.32	1577.52
404.51	1607.95
404.70	1650.08
404.89	1708.59
405.09	1717.95
405.28	1748.38
405.47	1713.27
405.66	1727.32
405.85	1717.95
406.05	1696.89
406.24	1603.27
406.43	1689.87
406.62	1746.04
406.81	1753.06
407.00	1710.93
407.20	1757.74
407.39	1842.00
407.58	1823.28
407.77	1760.08
407.96	1963.71
408.15	1851.36
408.34	1830.30
408.54	1891.15
408.73	1851.36
408.92	1823.28
409.11	1975.41
409.30	1923.92
409.49	1963.71
409.68	1942.64
409.87	1947.33
410.07	2069.03
410.26	1975.41
410.45	2045.63
410.64	2232.87
410.83	2155.63
411.02	2197.76
411.21	2221.17
411.40	2249.25
411.59	2270.32
411.78	2256.28
411.98	2282.02
412.17	2284.36
412.36	2296.07
412.55	2272.66
412.74	2310.11
412.93	2361.60
413.12	2291.38
413.31	2333.51
413.50	2394.37
413.69	2480.97
413.88	2441.18
414.07	2588.63
414.26	2464.58
414.45	2530.12
414.64	2490.33
414.83	2621.40
415.02	2600.34
415.22	2612.04
415.41	2658.85
415.60	2663.53
415.79	2794.60
415.98	2799.28
416.17	2717.36
416.36	2801.62
416.55	2729.06
416.74	2864.82
416.93	2733.75
417.12	2935.03
417.31	2958.44
417.50	2827.37
417.69	2958.44
417.88	2937.37
418.07	2895.24
418.26	3084.83
418.45	3033.33
418.64	3131.64
418.83	3176.11
419.02	3157.38
419.21	3094.19
419.39	3038.02
419.58	3007.59
419.77	3049.72
419.96	3185.47
420.15	3227.60
420.34	3136.32
420.53	3208.87
420.72	3218.24
420.91	3229.94
421.10	3485.06
421.29	3368.03
421.48	3236.96
421.67	3248.66
421.86	3384.41
422.05	3309.52
422.24	3328.24
422.43	3295.47
422.61	3332.92
422.80	3265.05
422.99	3461.65
423.18	3405.48
423.37	3431.23
423.56	3531.87
423.75	3527.19
423.94	3293.13
424.13	3098.87
424.32	3276.75
424.50	3524.85
424.69	3466.33
424.88	3632.51
425.07	3456.97
425.26	3452.29
425.45	3426.54
425.64	3433.57
425.83	3501.44
426.01	3515.48
426.20	3433.57
426.39	3468.67
426.58	3393.78
426.77	3456.97
426.96	3576.34
427.15	3475.70
427.33	3552.93
427.52	3604.42
427.71	3592.72
427.90	3613.79
428.09	3515.48
428.28	3536.55
428.46	3646.55
428.65	3655.92
428.84	3662.94
429.03	3737.84
429.22	3768.26
429.40	3688.68
429.59	3730.81
429.78	3503.78
429.97	3599.74
430.16	3714.43
430.34	3857.20
430.53	3840.82
430.72	3838.48
430.91	3691.02
431.10	3866.56
431.28	3992.95
431.47	3936.78
431.66	4095.94
431.85	3957.85
432.03	4032.74
432.22	4241.05
432.41	3976.57
432.60	4121.68
432.79	4074.87
432.97	4262.12
433.16	4177.86
433.35	3927.42
433.54	4386.16
433.72	4086.58
433.91	4039.76
434.10	4081.89
434.28	4152.11
434.47	4210.62
434.66	4243.39
434.85	4402.55
435.03	4322.97
435.22	4339.35
435.41	4617.88
435.59	4294.88
435.78	4554.68
435.97	4423.61
436.16	4486.81
436.34	4489.15
436.53	4468.08
436.72	4531.28
436.90	4463.40
437.09	4519.57
437.28	4372.12
437.46	4517.23
437.65	4631.92
437.84	4573.41
438.02	4603.83
438.21	4610.86
438.40	4613.20
438.58	4802.78
438.77	4765.33
438.96	4746.61
439.14	4954.91
439.33	4945.55
439.52	4901.08
439.70	4847.25
439.89	4973.64
440.08	5050.88
440.26	5004.07
440.45	4966.62
440.63	5102.37
440.82	5177.26
441.01	5193.65
441.19	5327.06
441.38	5369.19
441.57	5228.76
441.75	5320.04
441.94	5273.23
442.12	5357.49
442.31	5476.85
442.50	5530.69
442.68	5490.90
442.87	5600.90
443.05	5416.00
443.24	5640.69
443.43	5542.39
443.61	5528.35
443.80	5628.99
443.98	5598.56
444.17	5392.59
444.35	5694.52
444.54	5820.91
444.73	5710.91
444.91	5680.48
445.10	5565.79
445.28	5715.59
445.47	5652.39
445.65	5701.54
445.84	5680.48
446.02	5696.86
446.21	5764.74
446.39	5769.42
446.58	5926.24
446.77	5633.67
446.95	5708.57
447.14	5872.40
447.32	5949.64
447.51	5863.04
447.69	5785.80
447.88	5891.13
448.06	5795.17
448.25	5605.58
448.43	6038.58
448.62	5809.21
448.80	5785.80
448.99	5991.77
449.17	5898.15
449.36	5771.76
449.54	6171.99
449.73	6153.27
449.91	6174.33
450.10	6270.30
450.28	6305.40
450.46	6017.52
450.65	6059.65
450.83	6188.38
451.02	6181.35
451.20	6251.57
451.39	6209.44
451.57	6246.89
451.76	6195.40
451.94	6392.00
452.13	6368.60
452.31	6354.55
452.49	6115.82
452.68	6366.26
452.86	6282.00
453.05	6328.81
453.23	6466.90
453.42	6363.92
453.60	6480.94
453.78	6539.46
453.97	6499.67
454.15	6471.58
454.34	6579.25
454.52	6586.27
454.70	6429.45
454.89	6703.29
455.07	6574.56
455.26	6569.88
455.44	6530.09
455.62	6806.28
455.81	6698.61
455.99	6890.54
456.17	6850.75
456.36	6839.05
456.54	6944.37
456.73	6991.18
456.91	7138.63
457.09	7143.32
457.28	7222.89
457.46	6939.69
457.64	7108.21
457.83	7040.33
458.01	7077.78
458.19	7215.87
458.38	7185.44
458.56	7323.54
458.74	6986.50
458.93	7124.59
459.11	7393.75
459.29	7328.22
459.48	7290.77
459.66	7452.27
459.84	7180.76
460.03	7566.95
460.21	7527.16
460.39	7258.00
460.57	7225.23
460.76	7379.71
460.94	7627.81
461.12	7688.66
461.31	7698.02
461.49	7461.63
461.67	7522.48
461.85	7578.65
462.04	7705.04
462.22	8205.92
462.40	7770.58
462.59	7714.41
462.77	7941.44
462.95	7824.41
463.13	7943.78
463.32	7920.37
463.50	7838.45
463.68	7889.95
463.86	7843.14
464.05	7761.22
464.23	7894.63
464.41	7969.52
464.59	7833.77
464.78	8105.28
464.96	7925.05
465.14	8032.72
465.32	8196.56
465.50	8248.05
465.69	8063.15
465.87	8159.11
466.05	8098.25
466.23	8142.72
466.41	8051.44
466.60	8252.73
466.78	8241.03
466.96	8156.77
467.14	8348.69
467.32	8304.22
467.51	8280.82
467.69	8006.97
467.87	8145.06
468.05	8383.80
468.23	8322.94
468.41	8418.91
468.60	8477.42
468.78	8365.07
468.96	8379.12
469.14	8594.45
469.32	8667.00
469.50	8374.44
469.69	8503.17
469.87	8596.79
470.05	8760.63
470.23	8610.83
470.41	8744.24
470.59	8718.50
470.77	8681.05
470.95	8798.07
471.14	8975.95
471.32	8931.48
471.50	9151.49
471.68	9135.11
471.86	9315.33
472.04	9289.59
472.22	9504.92
472.40	8966.59
472.58	9212.35
472.77	9142.13
472.95	9362.14
473.13	9694.50
473.31	9305.97
473.49	9291.93
473.67	9551.73
473.85	9486.19
474.03	9643.01
474.21	9682.80
474.39	9858.34
474.57	9586.83
474.75	9727.27
474.93	9951.96
475.12	9940.26
475.30	9951.96
475.48	9921.53
475.66	10195.37
475.84	9968.34
476.02	9937.91
476.20	10146.22
476.38	10342.83
476.56	10546.45
476.74	10546.45
476.92	10335.81
477.10	10611.99
477.28	10635.39
477.46	10630.71
477.64	10729.02
477.82	10911.58
478.00	11211.17
478.18	11042.65
478.36	11049.67
478.54	11290.74
478.72	11386.71
478.90	11414.79
479.08	11351.60
479.26	11426.50
479.44	11793.96
479.62	11740.13
479.80	11988.22
479.98	12102.91
480.16	12224.62
480.34	12013.97
480.52	12273.77
480.70	12262.07
480.88	12123.98
481.06	12252.70
481.24	12528.89
481.41	12608.47
481.59	12788.69
481.77	13022.74
481.95	12924.44
482.13	13109.34
482.31	12898.69
482.49	13336.37
482.67	12982.95
482.85	13217.01
483.03	13437.02
483.21	13406.59
483.39	13563.40
483.57	13596.17
483.74	13605.53
483.92	13900.44
484.10	13870.01
484.28	14136.84
484.46	14263.22
484.64	14368.55
484.82	14221.10
485.00	14256.20
485.18	14696.22
485.35	14897.51
485.53	14925.60
485.71	14726.65
485.89	15012.20
486.07	15115.18
486.25	14925.60
486.43	15300.08
486.61	15227.53
486.78	15669.89
486.96	15737.76
487.14	15901.60
487.32	15941.39
487.50	15983.52
487.68	16304.17
487.85	16243.32
488.03	16503.12
488.21	16695.04
488.39	16568.65
488.57	16957.18
488.75	17039.10
488.92	17015.69
489.10	17563.38
489.28	17282.52
489.46	17802.11
489.64	17284.86
489.81	18005.74
489.99	17893.40
490.17	18054.89
490.35	18314.69
490.53	18192.98
490.70	18347.46
490.88	18391.93
491.06	18808.54
491.24	18387.25
491.41	18845.99
491.59	18750.03
491.77	18771.10
491.95	19047.28
492.13	19257.93
492.30	19389.00
492.48	19440.49
492.66	19470.92
492.84	19288.35
493.01	19742.42
493.19	19997.54
493.37	20105.20
493.54	19929.66
493.72	20360.32
493.90	19978.81
494.08	20695.02
494.25	20821.41
494.43	20837.79
494.61	21057.80
494.79	21198.23
494.96	21090.57
495.14	20840.13
495.32	21188.87
495.49	21355.05
495.67	21331.64
495.85	21504.84
496.02	21687.40
496.20	21968.27
496.38	22111.04
496.55	21991.67
496.73	22855.33
496.91	21771.66
497.09	22476.16
497.26	22719.58
497.44	22260.84
497.62	22464.46
497.79	22939.59
497.97	22906.82
498.14	23009.81
498.32	23360.89
498.50	22838.95
498.67	23557.49
498.85	23660.48
499.03	23431.10
499.20	23896.87
499.38	23576.22
499.56	23824.31
499.73	23611.32
499.91	23920.28
500.08	23974.11
500.26	24004.53
500.44	23929.64
500.61	24280.72
500.79	24304.12
500.97	24580.31
501.14	24566.26
501.32	24833.08
501.49	24629.46
501.67	24662.22
501.84	25003.94
502.02	24868.19
502.20	25268.42
502.37	25172.46
502.55	25432.26
502.72	25364.39
502.90	25380.77
503.07	25472.05
503.25	25352.68
503.43	25549.29
503.60	25570.35
503.78	25855.90
503.95	25785.68
504.13	26101.65
504.30	25902.71
504.48	26146.12
504.65	26391.88
504.83	26604.87
505.01	26441.03
505.18	26621.25
505.36	26808.50
505.53	26675.09
505.71	26588.49
505.88	26829.56
506.06	26691.47
506.23	26740.62
506.41	26848.29
506.58	27316.39
506.76	27264.90
506.93	27222.77
507.11	27381.93
507.28	27587.89
507.46	27477.89
507.63	27676.83
507.81	27768.12
507.98	27489.59
508.16	27543.42
508.33	27695.56
508.50	27999.83
508.68	27906.21
508.85	28149.62
509.03	28591.98
509.20	28287.71
509.38	28676.24
509.55	28290.06
509.73	28561.56
509.90	28814.34
510.08	28496.02
510.25	28589.64
510.42	28868.17
510.60	29125.63
510.77	28783.91
510.95	29062.43
511.12	29282.44
511.30	29687.36
511.47	29228.61
511.64	29624.16
511.82	29507.13
511.99	29598.41
512.17	29472.03
512.34	29701.40
512.51	29926.09
512.69	30136.74
512.86	29916.73
513.04	29584.37
513.21	30188.23
513.38	30300.58
513.56	30054.82
513.73	29731.83
513.90	30263.13
514.08	30433.99
514.25	30497.18
514.43	30565.06
514.60	30574.42
514.77	30618.89
514.95	31035.50
515.12	30962.95
515.29	30771.02
515.47	31283.60
515.64	31344.45
515.81	30881.03
515.99	31206.36
516.16	31438.08
516.33	31072.95
516.51	31463.82
516.68	31220.41
516.85	31021.46
517.03	31566.81
517.20	31452.12
517.37	32107.47
517.54	31817.24
517.72	31592.55
517.89	31810.22
518.06	31693.19
518.24	31428.71
518.41	31740.00
518.58	31945.97
518.75	31903.84
518.93	32231.52
519.10	32416.42
519.27	32240.88
519.45	32826.01
519.62	32151.94
519.79	32652.81
519.96	32833.04
520.14	32762.82
520.31	32676.22
520.48	32650.47
520.65	32669.20
520.83	32912.61
521.00	32868.14
521.17	33324.55
521.34	33034.32
521.52	33443.91
521.69	33233.27
521.86	33261.35
522.03	33436.89
522.20	33263.69
522.38	33343.27
522.55	34071.18
522.72	33773.93
522.89	33656.90
523.07	33820.74
523.24	33511.79
523.41	34295.87
523.58	33806.70
523.75	34431.62
523.92	33996.28
524.10	34349.70
524.27	34403.53
524.44	34267.78
524.61	34237.36
524.78	34464.39
524.96	34958.24
525.13	34969.94
525.30	34836.53
525.47	34649.29
525.64	34539.29
525.81	34653.97
525.98	35140.80
526.16	34782.70
526.33	34897.39
526.50	35049.52
526.67	34810.79
526.84	35058.88
527.01	35222.72
527.18	35119.74
527.36	35517.63
527.53	35206.34
527.70	36041.91
527.87	35648.70
528.04	35704.87
528.21	35676.79
528.38	35311.66
528.55	35519.97
528.72	35552.74
528.89	35913.18
529.07	35903.82
529.24	35833.60
529.41	35873.39
529.58	35618.27
529.75	35601.89
529.92	36414.05
530.09	36009.14
530.26	36168.30
530.43	35959.99
530.60	36346.18
530.77	36318.09
530.94	36165.96
531.11	36552.15
531.28	36713.64
531.46	36774.50
531.63	36793.22
531.80	36673.85
531.97	36416.40
532.14	36804.92
532.31	35807.86
532.48	37132.60
532.65	36837.69
532.82	36931.31
532.99	37062.38
533.16	37263.67
533.33	37146.64
533.50	37495.38
533.67	37083.45
533.84	37429.85
534.01	37483.68
534.18	37331.54
534.35	37654.54
534.52	37422.83
534.69	37392.40
534.86	37450.91
535.03	37240.26
535.20	37797.31
535.37	38066.47
535.54	38103.92
535.71	37624.11
535.88	37684.97
536.05	38040.73
536.22	37701.35
536.38	37745.82
536.55	38094.56
536.72	38307.55
536.89	37940.08
537.06	38007.96
537.23	38466.70
537.40	38326.27
537.57	38220.95
537.74	38178.82
537.91	38586.07
538.08	38590.75
538.25	38349.68
538.42	38258.40
538.59	38646.93
538.75	38279.46
538.92	38359.04
539.09	38251.38
539.26	38728.84
539.43	38911.41
539.60	38759.27
539.77	38305.21
539.94	39042.48
540.11	38703.10
540.28	38817.78
540.44	38948.85
540.61	38941.83
540.78	38691.40
540.95	39215.68
541.12	39019.07
541.29	39089.29
541.46	38667.99
541.62	39285.89
541.79	39475.48
541.96	38822.47
542.13	38972.26
542.30	39356.11
542.47	38993.32
542.63	39225.04
542.80	39723.57
542.97	40119.12
543.14	40130.83
543.31	39796.13
543.48	40177.64
543.64	40135.51
543.81	39873.37
543.98	40229.13
544.15	40032.52
544.32	40182.32
544.48	40266.58
544.65	40133.17
544.82	40268.92
544.99	39878.05
545.16	40299.34
545.32	40332.11
545.49	40086.36
545.66	40329.77
545.83	40182.32
546.00	40989.80
546.16	40617.66
546.33	40158.91
546.50	40432.75
546.67	40458.50
546.83	40161.25
547.00	40835.33
547.17	40928.95
547.34	40500.63
547.50	40954.69
547.67	41205.13
547.84	40903.20
548.00	40727.66
548.17	41095.13
548.34	40821.28
548.51	41305.77
548.67	41415.78
548.84	41001.50
549.01	41312.80
549.18	40987.46
549.34	41172.36
549.51	41715.37
549.68	41240.24
549.84	41486.00
550.01	41478.97
550.18	41530.47
550.34	41605.36
550.51	41394.71
550.68	41146.62
550.84	41013.21
551.01	41399.40
551.18	41565.57
551.34	41663.88
551.51	41443.87
551.68	41364.29
551.84	41755.16
552.01	41717.71
552.18	41483.66
552.34	41666.22
552.51	41963.46
552.68	41457.91
552.84	41668.56
553.01	42485.40
553.18	41982.19
553.34	41764.52
553.51	41841.76
553.67	42106.24
553.84	42391.78
554.01	42359.02
554.17	41954.10
554.34	42321.57
554.51	42199.86
554.67	42101.56
554.84	42110.92
555.00	41823.03
555.17	42043.04
555.33	42562.64
555.50	42033.68
555.67	42366.04
555.83	42401.14
556.00	42131.98
556.16	43093.94
556.33	42476.04
556.50	42480.72
556.66	43005.00
556.83	42506.47
556.99	42878.61
557.16	42817.76
557.32	42850.53
557.49	42902.02
557.65	42342.63
557.82	42342.63
557.98	42698.39
558.15	42913.72
558.32	42965.21
558.48	42684.35
558.65	42852.87
558.81	42756.91
558.98	42993.30
559.14	42852.87
559.31	42728.82
559.47	43084.58
559.64	43119.69
559.80	43203.95
559.97	43021.39
560.13	42962.87
560.30	42368.38
560.46	43021.39
560.63	43178.20
560.79	43110.33
560.96	43166.50
561.12	42969.90
561.29	42841.17
561.45	42925.42
561.61	42981.60
561.78	42705.41
561.94	43143.09
562.11	42962.87
562.27	43023.73
562.44	42920.74
562.60	43498.86
562.77	43381.83
562.93	43316.29
563.10	43316.29
563.26	42763.93
563.42	43405.23
563.59	43030.75
563.75	43342.04
563.92	43407.58
564.08	43342.04
564.24	43585.46
564.41	43400.55
564.57	43239.06
564.74	43592.48
564.90	43566.73
565.07	43716.53
565.23	43100.97
565.39	43639.29
565.56	43838.23
565.72	43601.84
565.88	43608.86
566.05	43463.75
566.21	43459.07
566.38	43538.65
566.54	43131.39
566.70	43309.27
566.87	43821.85
567.03	43512.90
567.19	44161.23
567.36	43723.55
567.52	43505.88
567.68	43758.66
567.85	43599.50
568.01	43641.63
568.17	43803.13
568.34	43770.36
568.50	43477.79
568.66	43562.05
568.83	43761.00
568.99	43445.02
569.15	43885.04
569.32	43892.07
569.48	43466.09
569.64	43978.67
569.81	44025.48
569.97	43519.92
570.13	43192.25
570.30	43496.52
570.46	43517.58
570.62	43487.15
570.78	43365.45
570.95	43981.01
571.11	44189.31
571.27	43679.08
571.43	43863.98
571.60	43550.35
571.76	44161.23
571.92	43814.83
572.09	43608.86
572.25	43770.36
572.41	43847.60
572.57	44222.08
572.74	44502.95
572.90	44105.06
573.06	43910.79
573.22	44154.21
573.38	43665.03
573.55	43840.57
573.71	44062.93
573.87	43798.44
574.03	43835.89
574.20	44093.35
574.36	44339.11
574.52	43929.51
574.68	44463.16
574.84	44219.74
575.01	43791.42
575.17	43913.13
575.33	43770.36
575.49	43688.44
575.65	44495.92
575.82	44549.76
575.98	44065.27
576.14	44311.02
576.30	44238.47
576.46	44154.21
576.62	43529.28
576.79	43796.10
576.95	43262.46
577.11	43770.36
577.27	44467.84
577.43	44081.65
577.59	44121.44
577.75	44233.78
577.92	43995.05
578.08	43878.02
578.24	43683.76
578.40	44203.36
578.56	44332.09
578.72	44540.39
578.88	44128.46
579.04	44168.25
579.21	43973.98
579.37	43882.70
579.53	43758.66
579.69	43772.70
579.85	44294.64
580.01	44114.42
580.17	44371.88
580.33	44114.42
580.49	44741.68
580.65	44502.95
580.82	44210.38
580.98	44112.08
581.14	44163.57
581.30	44182.29
581.46	43969.30
581.62	44135.48
581.78	43964.62
581.94	44376.56
582.10	44107.40
582.26	44428.05
582.42	44278.25
582.58	44383.58
582.74	44037.18
582.90	44395.28
583.06	44126.12
583.22	44367.20
583.38	44626.99
583.54	44535.71
583.70	44027.82
583.86	43770.36
584.02	43941.22
584.18	44346.13
584.34	44535.71
584.50	44245.49
584.66	44259.53
584.82	43992.71
584.98	44563.80
585.14	44294.64
585.30	44367.20
585.46	44282.94
585.62	44374.22
585.78	43955.26
585.94	44091.01
586.10	44432.73
586.26	43924.83
586.42	44168.25
586.58	44428.05
586.74	44371.88
586.90	43840.57
587.06	44217.40
587.22	44830.62
587.38	43775.04
587.54	44788.49
587.70	44418.69
587.86	44137.82
588.02	44397.62
588.18	44589.55
588.34	44444.43
588.49	44198.68
588.65	44299.32
588.81	44538.05
588.97	44423.37
589.13	44156.55
589.29	44273.57
589.45	44369.54
589.61	44278.25
589.77	44498.26
589.93	44439.75
590.08	44584.86
590.24	44582.52
590.40	44383.58
590.56	44580.18
590.72	43833.55
590.88	44376.56
591.04	44472.52
591.20	44968.71
591.35	44179.95
591.51	45205.11
591.67	44772.11
591.83	44720.62
591.99	44318.04
592.15	44348.47
592.31	44610.61
592.46	44776.79
592.62	44484.22
592.78	44542.74
592.94	44208.04
593.10	44280.60
593.26	44772.11
593.41	44507.63
593.57	44491.24
593.73	44737.00
593.89	44933.60
594.05	44673.81
594.20	44854.03
594.36	44844.66
594.52	44952.33
594.68	44762.75
594.84	44371.88
594.99	45050.63
595.15	44533.37
595.31	45029.57
595.47	44516.99
595.62	44456.14
595.78	45010.84
595.94	45034.25
596.10	44968.71
596.25	44788.49
596.41	44776.79
596.57	44559.12
596.73	44484.22
596.88	44460.82
597.04	44699.55
597.20	44725.30
597.36	44708.91
597.51	44905.52
597.67	44556.78
597.83	45120.85
597.99	45155.96
598.14	44804.88
598.30	44704.23
598.46	44818.92
598.61	44397.62
598.77	43908.45
598.93	44624.65
599.09	44893.82
599.24	44549.76
599.40	44868.07
599.56	45134.89
599.71	44957.01
599.87	45006.16
600.03	44715.93
600.18	44959.35
600.34	44725.30
600.50	44505.29
600.65	44638.70
600.81	44662.10
600.97	44884.45
601.12	45212.13
601.28	44776.79
601.44	44737.00
601.59	44865.73
601.75	44634.02
601.91	44753.38
602.06	44531.03
602.22	44755.72
602.37	44811.90
602.53	44484.22
602.69	44727.64
602.84	44933.60
603.00	45050.63
603.16	44858.71
603.31	44495.92
603.47	44964.03
603.62	44568.48
603.78	44556.78
603.94	44755.72
604.09	44786.15
604.25	44982.76
604.40	44734.66
604.56	44727.64
604.71	44896.16
604.87	44959.35
605.03	44816.58
605.18	44156.55
605.34	44659.76
605.49	44355.49
605.65	44603.59
605.80	44542.74
605.96	44898.50
606.12	44847.00
606.27	45120.85
606.43	44456.14
606.58	44968.71
606.74	44371.88
606.89	44722.96
607.05	44708.91
607.20	44500.61
607.36	44421.03
607.51	44957.01
607.67	44502.95
607.82	44779.13
607.98	44376.56
608.13	44102.71
608.29	44734.66
608.44	44053.56
608.60	44339.11
608.75	44203.36
608.91	44222.08
609.06	44205.70
609.22	44460.82
609.37	44444.43
609.53	44594.23
609.68	44362.51
609.84	44168.25
609.99	44425.71
610.15	44325.07
610.30	44023.14
610.46	43988.03
610.61	44182.29
610.76	44566.14
610.92	43847.60
611.07	43901.43
611.23	43894.41
611.38	43936.54
611.54	44032.50
611.69	43819.51
611.84	43824.19
612.00	43969.30
612.15	44163.57
612.31	44069.95
612.46	44011.43
612.62	44421.03
612.77	44243.15
612.92	44554.44
613.08	43999.73
613.23	43840.57
613.39	43660.35
613.54	43655.67
613.69	44112.08
613.85	43950.58
614.00	43842.92
614.15	44142.50
614.31	43995.05
614.46	44203.36
614.62	43791.42
614.77	43796.10
614.92	43686.10
615.08	43690.78
615.23	43564.39
615.38	43721.21
615.54	43353.74
615.69	43564.39
615.84	43777.38
616.00	43269.48
616.15	43725.89
616.30	43753.97
616.46	43643.97
616.61	43501.20
616.76	43482.47
616.92	43445.02
617.07	43185.22
617.22	43374.81
617.37	43187.56
617.53	43714.19
617.68	43430.98
617.83	43393.53
617.99	43318.64
618.14	43014.37
618.29	43009.68
618.45	43070.54
618.60	43423.96
618.75	43583.12
618.90	43267.14
619.06	43311.61
619.21	43452.05
619.36	43426.30
619.51	43241.40
619.67	43463.75
619.82	43126.71
619.97	42988.62
620.12	42684.35
620.28	42796.70
620.43	42902.02
620.58	43091.60
620.73	42653.92
620.89	42806.06
621.04	43009.68
621.19	43033.09
621.34	42286.46
621.49	42855.21
621.65	42337.95
621.80	43180.54
621.95	42653.92
622.10	42883.30
622.25	42630.52
622.41	42478.38
622.56	42677.33
622.71	43262.46
622.86	42920.74
623.01	42873.93
623.16	42876.27
623.32	42897.34
623.47	42880.95
623.62	42351.99
623.77	42274.76
623.92	42506.47
624.07	42506.47
624.23	42122.62
624.38	42073.47
624.53	42204.54
624.68	42204.54
624.83	42501.79
624.98	42178.79
625.13	42216.24
625.29	42555.62
625.44	42333.27
625.59	41872.18
625.74	41874.52
625.89	41790.27
626.04	41642.81
626.19	42045.38
626.34	42281.78
626.49	42216.24
626.65	41773.88
626.80	42082.83
626.95	41823.03
627.10	41900.27
627.25	41773.88
627.40	41467.27
627.55	41684.94
627.70	41352.58
627.85	41755.16
628.00	41818.35
628.15	41698.98
628.30	42080.49
628.45	41816.01
628.60	41963.46
628.76	42223.26
628.91	41745.80
629.06	41516.42
629.21	41577.28
629.36	40905.54
629.51	41343.22
629.66	41593.66
629.81	41076.40
629.96	41113.85
630.11	41256.62
630.26	41315.14
630.41	41600.68
630.56	41123.21
630.71	41214.49
630.86	41724.73
631.01	41230.88
631.16	41191.09
631.31	40744.05
631.46	40666.81
631.61	41123.21
631.76	41081.08
631.91	40968.74
632.06	40685.53
632.21	41289.39
632.36	41055.34
632.51	40704.26
632.66	40755.75
632.81	40561.48
632.96	40877.46
633.10	40849.37
633.25	40781.49
633.40	40713.62
633.55	41027.25
633.70	40980.44
633.85	40554.46
634.00	41003.85
634.15	40301.68
634.30	40540.42
634.45	40617.66
634.60	40648.08
634.75	40713.62
634.90	40842.35
635.05	40694.89
635.19	40268.92
635.34	40975.76
635.49	40378.92
635.64	40201.04
635.79	40418.71
635.94	40542.76
636.09	39676.76
636.24	39854.64
636.39	39955.29
636.53	40069.97
636.68	39608.89
636.83	40102.74
636.98	40226.79
637.13	40362.54
637.28	40301.68
637.43	40374.24
637.57	40397.65
637.72	40084.01
637.87	39693.15
638.02	40329.77
638.17	39779.74
638.32	39524.63
638.46	39454.41
638.61	39643.99
638.76	39416.96
638.91	39765.70
639.06	40072.31
639.20	39447.39
639.35	40194.02
639.50	39662.72
639.65	39913.16
639.80	39562.08
639.94	39702.51
640.09	39615.91
640.24	39620.59
640.39	39597.18
640.54	39386.54
640.68	39552.71
640.83	39531.65
640.98	39548.03
641.13	39707.19
641.27	39819.53
641.42	39433.35
641.57	39512.92
641.72	39220.36
641.86	39122.05
642.01	39175.89
642.16	39203.97
642.31	38937.15
642.45	39124.40
642.60	38871.62
642.75	38630.54
642.90	38944.17
643.04	38972.26
643.19	39236.74
643.34	39145.46
643.48	39028.43
643.63	38883.32
643.78	39021.41
643.93	38710.12
644.07	38370.74
644.22	39040.14
644.37	38773.31
644.51	38656.29
644.66	38607.14
644.81	38639.90
644.95	39161.84
645.10	39021.41
645.25	39360.79
645.39	38951.20
645.54	38883.32
645.69	38742.89
645.83	38330.95
645.98	38356.70
646.13	38820.13
646.27	38785.02
646.42	38895.02
646.57	38394.15
646.71	38450.32
646.86	38560.33
647.00	38822.47
647.15	38579.05
647.30	38785.02
647.44	38572.03
647.59	38361.38
647.74	38050.09
647.88	38265.42
648.03	38450.32
648.17	38260.74
648.32	37928.38
648.47	38204.56
648.61	37982.21
648.76	38543.94
648.90	38132.01
649.05	38073.49
649.20	38361.38
649.34	38398.83
649.49	38000.94
649.63	37914.34
649.78	38162.43
649.92	38232.65
650.07	38370.74
650.21	37890.93
650.36	38057.11
650.51	37853.48
650.65	37907.32
650.80	37914.34
650.94	37935.40
651.09	37741.14
651.23	37551.56
651.38	37603.05
651.52	37661.56
651.67	38134.35
651.81	37694.33
651.96	37951.79
652.10	37713.05
652.25	37614.75
652.39	37764.54
652.54	37483.68
652.68	37298.78
652.83	37624.11
652.97	37806.67
653.12	37439.21
653.26	37919.02
653.41	37537.51
653.55	37062.38
653.70	37111.53
653.84	37380.70
653.99	37411.12
654.13	37092.81
654.27	37174.73
654.42	37347.93
654.56	37186.43
654.71	37511.77
654.85	37453.25
655.00	36931.31
655.14	37076.43
655.29	36912.59
655.43	36664.49
655.57	36650.45
655.72	36765.14
655.86	36711.30
656.01	36627.04
656.15	36760.45
656.30	36966.42
656.44	36713.64
656.58	36484.27
656.73	36706.62
656.87	37053.02
657.01	36252.56
657.16	36505.34
657.30	36802.58
657.45	36491.29
657.59	36790.88
657.73	36779.18
657.88	36751.09
658.02	36346.18
658.16	36313.41
658.31	36884.50
658.45	36584.91
658.60	36687.90
658.74	36299.37
658.88	36292.35
659.03	36217.45
659.17	36180.00
659.31	36245.54
659.46	36065.31
659.60	36378.95
659.74	36149.57
659.89	35660.40
660.03	36046.59
660.17	35739.98
660.32	35878.07
660.46	36215.11
660.60	36294.69
660.74	36072.34
660.89	35749.34
661.03	35824.24
661.17	35744.66
661.32	35065.91
661.46	35491.88
661.60	35566.78
661.74	35515.29
661.89	35302.30
662.03	35508.27
662.17	35449.75
662.31	35314.00
662.46	35496.56
662.60	35424.01
662.74	35014.41
662.88	35314.00
663.03	34656.31
663.17	35098.67
663.31	35171.23
663.45	34745.25
663.60	34469.07
663.74	34726.53
663.88	34560.35
664.02	34541.63
664.17	34822.49
664.31	34457.37
664.45	34356.72
664.59	34646.95
664.73	34602.48
664.88	34721.85
665.02	34073.52
665.16	34408.22
665.30	34354.38
665.44	34462.05
665.59	34263.10
665.73	33970.54
665.87	33654.56
666.01	33979.90
666.15	33965.85
666.29	34300.55
666.44	34211.61
666.58	33944.79
666.72	33567.96
666.86	34204.59
667.00	33942.45
667.14	33759.89
667.28	33586.69
667.43	33626.48
667.57	33975.22
667.71	33504.77
667.85	33656.90
667.99	33055.39
668.13	33069.43
668.27	33542.22
668.41	33191.14
668.56	32631.75
668.70	33284.76
668.84	32996.87
668.98	32898.57
669.12	33132.62
669.26	32900.91
669.40	32844.74
669.54	33289.44
669.68	33053.05
669.82	32718.35
669.96	32465.57
670.10	32285.35
670.25	32491.32
670.39	32147.26
670.53	32898.57
670.67	32023.21
670.81	32479.61
670.95	32575.58
671.09	32397.70
671.23	32467.91
671.37	32247.90
671.51	32025.55
671.65	31941.29
671.79	31737.66
671.93	31676.81
672.07	32109.81
672.21	31906.18
672.35	31295.30
672.49	31519.99
672.63	31945.97
672.77	31419.35
672.91	31534.04
673.05	31047.21
673.19	31302.32
673.33	31360.84
673.47	31147.85
673.61	31194.66
673.75	31105.72
673.89	31152.53
674.03	30852.94
674.17	30272.49
674.31	30761.66
674.45	30670.38
674.59	30675.06
674.73	30415.26
674.87	30775.70
675.01	30623.57
675.15	30822.51
675.29	30672.72
675.43	30628.25
675.56	30391.86
675.70	30452.71
675.84	29837.15
675.98	29553.94
676.12	30291.21
676.26	29820.77
676.40	29879.28
676.54	29516.50
676.68	29954.18
676.82	29378.40
676.96	29514.16
677.10	29343.30
677.23	29085.84
677.37	29181.80
677.51	28985.19
677.65	28877.53
677.79	28624.75
677.93	28669.22
678.07	28685.61
678.21	28496.02
678.34	28474.96
678.48	28460.91
678.62	28318.14
678.76	28322.82
678.90	27997.49
679.04	28086.43
679.18	28177.71
679.31	27751.73
679.45	27702.58
679.59	27665.13
679.73	27878.12
679.87	27775.14
680.00	27529.38
680.14	27468.53
680.28	27218.09
680.42	27192.34
680.56	26918.50
680.70	27407.67
680.83	27007.44
680.97	26909.14
681.11	26677.43
681.25	26319.32
681.39	27101.06
681.52	26857.65
681.66	26560.40
681.80	26466.78
681.94	26235.06
682.07	26398.90
682.21	26174.21
682.35	26202.30
682.49	26377.84
682.62	26106.34
682.76	25785.68
682.90	25841.85
683.04	25846.54
683.17	25720.15
683.31	25886.32
683.45	25738.87
683.59	25369.07
683.72	25130.33
683.86	24762.87
684.00	25041.39
684.13	25088.20
684.27	25198.21
684.41	25317.57
684.55	24627.12
684.68	24800.32
684.82	24755.85
684.96	24364.98
685.09	24453.92
685.23	24666.91
685.37	24133.26
685.50	24208.16
685.64	24208.16
685.78	24308.80
685.91	24041.98
686.05	23868.78
686.19	23601.96
686.32	23899.21
686.46	23365.57
686.60	23178.33
686.73	23318.76
686.87	23262.58
687.01	23183.01
687.14	22998.10
687.28	22604.89
687.42	22895.12
687.55	22960.66
687.69	22614.26
687.82	22927.89
687.96	22649.36
688.10	22658.73
688.23	22815.54
688.37	22143.81
688.50	22347.44
688.64	22263.18
688.78	22214.02
688.91	22169.55
689.05	22136.79
689.18	21832.52
689.32	21694.43
689.46	21743.58
689.59	21766.98
689.73	22120.40
689.86	21518.89
690.00	21238.02
690.13	21879.33
690.27	21280.15
690.41	21261.43
690.54	20961.84
690.68	21142.06
690.81	20844.81
690.95	20765.23
691.08	20690.34
691.22	20940.77
691.35	20872.90
691.49	21034.39
691.62	20662.25
691.76	20655.23
691.89	20847.15
692.03	20166.06
692.16	20318.19
692.30	20159.03
692.43	20051.37
692.57	19880.51
692.70	19885.19
692.84	19906.26
692.97	19885.19
693.11	19454.53
693.24	19721.35
693.38	19470.92
693.51	19346.87
693.65	19379.64
693.78	19641.78
693.92	19789.23
694.05	19021.53
694.19	19096.43
694.32	19119.84
694.45	18991.11
694.59	18874.08
694.72	18972.38
694.86	18956.00
694.99	18721.95
695.13	18319.37
695.26	18427.04
695.39	18094.68
695.53	18352.14
695.66	18375.55
695.80	18335.76
695.93	17987.02
696.07	17884.03
696.20	17975.31
696.33	18150.85
696.47	17825.52
696.60	17820.84
696.73	17862.97
696.87	17668.70
697.00	17532.95
697.14	17664.02
697.27	17586.79
697.40	17268.47
697.54	17458.06
697.67	17018.04
697.80	16877.60
697.94	17207.62
698.07	16826.11
698.21	16975.91
698.34	16816.75
698.47	16678.66
698.61	16664.61
698.74	16528.86
698.87	16795.68
699.01	16201.19
699.14	16343.96
699.27	16477.37
699.40	16109.91
699.54	16105.23
699.67	16105.23
699.80	16119.27
699.94	16070.12
700.07	15936.71
700.20	16044.37
700.34	15632.44
700.47	15712.02
700.60	15590.31
700.73	15962.45
700.87	15552.86
701.00	15370.30
701.13	15279.02
701.26	15166.67
701.40	15594.99
701.53	15112.84
701.66	15159.65
701.79	14813.25
701.93	14904.53
702.06	14712.61
702.19	14726.65
702.32	14934.96
702.46	14817.93
702.59	14799.21
702.72	14733.67
702.85	14724.31
702.99	14628.35
703.12	14511.32
703.25	14178.97
703.38	14345.14
703.51	14239.82
703.65	14167.26
703.78	14019.81
703.91	14085.34
704.04	14342.80
704.17	13778.73
704.31	13865.33
704.44	13427.65
704.57	13399.57
704.70	13500.21
704.83	13563.40
704.96	13640.64
705.10	13561.06
705.23	13465.10
>>>>>End Processed Spectral Data<<<<<
