SpectraSuite Data File
++++++++++++++++++++++++++++++++++++
Date: Fri Oct 25 10:44:13 EDT 2013
User: price-jones
Dark Spectrum Present: No
Reference Spectrum Present: No
Number of Sampled Component Spectra: 1
Spectrometers: USB2+H05261
Integration Time (usec): 100000 (USB2+H05261)
Spectra Averaged: 1 (USB2+H05261)
Boxcar Smoothing: 0 (USB2+H05261)
Correct for Electrical Dark: No (USB2+H05261)
Strobe/Lamp Enabled: No (USB2+H05261)
Correct for Detector Non-linearity: No (USB2+H05261)
Correct for Stray Light: No (USB2+H05261)
Number of Pixels in Processed Spectrum: 2048
>>>>>Begin Processed Spectral Data<<<<<
365.73	35.11
365.92	35.11
366.12	35.11
366.32	0.00
366.52	18.72
366.72	53.83
366.91	16.38
367.11	2.34
367.31	0.00
367.51	0.00
367.70	58.51
367.90	32.77
368.10	0.00
368.30	21.06
368.49	49.15
368.69	56.17
368.89	51.49
369.09	49.15
369.28	67.88
369.48	58.51
369.68	79.58
369.87	100.64
370.07	86.60
370.27	128.73
370.47	194.26
370.66	353.42
370.86	376.83
371.06	355.76
371.25	554.71
371.45	500.87
371.65	461.09
371.84	475.13
372.04	442.36
372.24	475.13
372.44	461.09
372.63	507.90
372.83	465.77
373.03	486.83
373.22	472.79
373.42	451.72
373.62	531.30
373.81	512.58
374.01	585.13
374.21	521.94
374.40	505.56
374.60	617.90
374.79	606.20
374.99	547.69
375.19	566.41
375.38	592.16
375.58	587.47
375.78	620.24
375.97	559.39
376.17	669.39
376.37	669.39
376.56	578.11
376.76	624.92
376.95	559.39
377.15	624.92
377.35	645.99
377.54	676.41
377.74	681.10
377.93	669.39
378.13	655.35
378.33	650.67
378.52	603.86
378.72	571.09
378.91	683.44
379.11	521.94
379.31	681.10
379.50	655.35
379.70	725.57
379.89	655.35
380.09	716.20
380.28	678.76
380.48	716.20
380.68	688.12
380.87	683.44
381.07	669.39
381.26	636.63
381.46	678.76
381.65	631.94
381.85	674.07
382.04	732.59
382.24	725.57
382.43	727.91
382.63	664.71
382.83	730.25
383.02	730.25
383.22	802.80
383.41	770.04
383.61	795.78
383.80	779.40
384.00	800.46
384.19	737.27
384.39	807.48
384.58	802.80
384.78	887.06
384.97	823.87
385.17	905.79
385.36	791.10
385.56	858.98
385.75	784.08
385.95	793.44
386.14	863.66
386.34	851.96
386.53	880.04
386.72	912.81
386.92	891.74
387.11	807.48
387.31	891.74
387.50	809.83
387.70	763.01
387.89	894.08
388.09	833.23
388.28	926.85
388.48	924.51
388.67	870.68
388.86	854.30
389.06	854.30
389.25	1027.50
389.45	1001.75
389.64	929.19
389.84	950.26
390.03	1001.75
390.22	968.98
390.42	976.00
390.61	1011.11
390.81	1046.22
391.00	1053.24
391.19	1043.88
391.39	1111.75
391.58	1076.65
391.78	1011.11
391.97	994.73
392.16	1097.71
392.36	1008.77
392.55	1107.07
392.75	992.39
392.94	1041.54
393.13	990.05
393.33	985.37
393.52	997.07
393.71	1074.31
393.91	1109.41
394.10	1203.04
394.29	1095.37
394.49	1214.74
394.68	1235.80
394.88	1212.40
395.07	1207.72
395.26	1219.42
395.46	1254.53
395.65	1238.14
395.84	1240.48
396.04	1366.87
396.23	1100.05
396.42	1156.22
396.62	1308.36
396.81	1214.74
397.00	1177.29
397.19	1245.16
397.39	1226.44
397.58	1338.79
397.77	1399.64
397.97	1350.49
398.16	1380.92
398.35	1394.96
398.55	1437.09
398.74	1476.88
398.93	1537.73
399.12	1523.69
399.32	1521.35
399.51	1448.79
399.70	1568.16
399.90	1502.62
400.09	1497.94
400.28	1563.48
400.47	1558.80
400.67	1591.56
400.86	1795.19
401.05	1654.76
401.24	1598.59
401.44	1675.82
401.63	1673.48
401.82	1724.97
402.01	1675.82
402.21	1781.15
402.40	1701.57
402.59	1736.68
402.78	1706.25
402.97	1657.10
403.17	1818.60
403.36	1743.70
403.55	1755.40
403.74	1858.39
403.93	1823.28
404.13	1893.49
404.32	1678.16
404.51	1865.41
404.70	1886.47
404.89	1928.60
405.09	1909.88
405.28	2005.84
405.47	1982.43
405.66	1963.71
405.85	2005.84
406.05	1891.15
406.24	1975.41
406.43	2019.88
406.62	1970.73
406.81	2057.33
407.00	1977.75
407.20	2108.82
407.39	2054.99
407.58	2204.78
407.77	2097.12
407.96	2284.36
408.15	2300.75
408.34	2289.04
408.54	2305.43
408.73	2169.68
408.92	2293.72
409.11	2193.08
409.30	2228.19
409.49	2195.42
409.68	2251.60
409.87	2310.11
410.07	2267.98
410.26	2286.70
410.45	2312.45
410.64	2424.80
410.83	2464.58
411.02	2504.37
411.21	2581.61
411.40	2607.36
411.59	2478.63
411.78	2710.34
411.98	2539.48
412.17	2537.14
412.36	2495.01
412.55	2747.79
412.74	2654.17
412.93	2668.21
413.12	2693.96
413.31	2775.88
413.50	2782.90
413.69	3014.61
413.88	2953.76
414.07	2895.24
414.26	2862.48
414.45	2888.22
414.64	2925.67
414.83	2944.39
415.02	3077.80
415.22	3016.95
415.41	3115.25
415.60	3030.99
415.79	3061.42
415.98	3225.26
416.17	3243.98
416.36	3241.64
416.55	3164.40
416.74	3171.43
416.93	3335.26
417.12	3293.13
417.31	3349.31
417.50	3372.71
417.69	3417.18
417.88	3389.10
418.07	3442.93
418.26	3382.07
418.45	3307.18
418.64	3508.46
418.83	3620.81
419.02	3510.80
419.21	3552.93
419.39	3637.19
419.58	3417.18
419.77	3433.57
419.96	3574.00
420.15	3709.75
420.34	3597.40
420.53	3616.13
420.72	3777.62
420.91	3824.44
421.10	3737.84
421.29	3791.67
421.48	3740.18
421.67	3705.07
421.86	3613.79
422.05	3765.92
422.24	3899.33
422.43	3775.28
422.61	3885.29
422.80	3908.69
422.99	3885.29
423.18	3939.12
423.37	4058.49
423.56	3854.86
423.75	3967.21
423.94	3695.71
424.13	3721.45
424.32	3756.56
424.50	3978.91
424.69	4044.45
424.88	4070.19
425.07	3974.23
425.26	3943.80
425.45	3735.50
425.64	3882.95
425.83	3964.87
426.01	3953.16
426.20	3929.76
426.39	3934.44
426.58	4032.74
426.77	4002.32
426.96	4077.21
427.15	3805.71
427.33	4018.70
427.52	4081.89
427.71	3955.51
427.90	4152.11
428.09	4245.73
428.28	4093.60
428.46	4065.51
428.65	4348.72
428.84	4180.20
429.03	4276.16
429.22	4128.70
429.40	4325.31
429.59	3978.91
429.78	3873.59
429.97	4028.06
430.16	3955.51
430.34	4100.62
430.53	4234.03
430.72	4187.22
430.91	4257.43
431.10	4355.74
431.28	4430.63
431.47	4582.77
431.66	4559.36
431.85	4479.79
432.03	4564.04
432.22	4657.67
432.41	4638.94
432.60	4671.71
432.79	4716.18
432.97	4723.20
433.16	4648.30
433.35	4657.67
433.54	4573.41
433.72	4615.54
433.91	4613.20
434.10	4594.47
434.28	4739.58
434.47	4861.29
434.66	4812.14
434.85	4894.06
435.03	5074.28
435.22	4816.82
435.41	5032.15
435.59	4887.04
435.78	5076.62
435.97	5060.24
436.16	5022.79
436.34	5081.30
436.53	5085.98
436.72	5233.44
436.90	5018.11
437.09	5121.09
437.28	5039.17
437.46	5135.14
437.65	5128.11
437.84	5125.77
438.02	5111.73
438.21	5214.71
438.40	5090.67
438.58	5305.99
438.77	5413.66
438.96	5298.97
439.14	5509.62
439.33	5661.76
439.52	5607.92
439.70	5530.69
439.89	5645.37
440.08	5439.40
440.26	5748.36
440.45	5640.69
440.63	5823.25
440.82	6115.82
441.01	5902.83
441.19	5710.91
441.38	6251.57
441.57	6120.50
441.75	6073.69
441.94	6296.04
442.12	6190.72
442.31	6167.31
442.50	6270.30
442.68	6193.06
442.87	6282.00
443.05	6347.53
443.24	6441.15
443.43	6258.59
443.61	6305.40
443.80	6471.58
443.98	6221.14
444.17	6235.19
444.35	6380.30
444.54	6616.69
444.73	6544.14
444.91	6537.12
445.10	6469.24
445.28	6319.45
445.47	6450.52
445.65	6595.63
445.84	6427.11
446.02	6384.98
446.21	6534.78
446.39	6600.31
446.58	6778.19
446.77	6633.08
446.95	6532.44
447.14	6621.38
447.32	6633.08
447.51	6787.55
447.69	6640.10
447.88	6778.19
448.06	6633.08
448.25	6757.13
448.43	6715.00
448.62	6583.93
448.80	6764.15
448.99	6801.60
449.17	6881.18
449.36	6761.81
449.54	6834.36
449.73	7070.76
449.91	6883.52
450.10	7166.72
450.28	7185.44
450.46	7143.32
450.65	7159.70
450.83	7234.60
451.02	7246.30
451.20	7169.06
451.39	7070.76
451.57	7096.50
451.76	7143.32
451.94	7070.76
452.13	7440.56
452.31	7211.19
452.49	7042.67
452.68	7192.47
452.86	7087.14
453.05	7232.26
453.23	7148.00
453.42	7180.76
453.60	7211.19
453.78	7279.07
453.97	7171.40
454.15	7262.68
454.34	7452.27
454.52	7529.50
454.70	7492.05
454.89	7545.89
455.07	7435.88
455.26	7641.85
455.44	7915.69
455.62	7609.08
455.81	7700.36
455.99	7754.19
456.17	7744.83
456.36	7529.50
456.54	7894.63
456.73	7864.20
456.91	7960.16
457.09	7969.52
457.28	8222.30
457.46	8152.09
457.64	8182.51
457.83	8077.19
458.01	7922.71
458.19	8292.52
458.38	8028.04
458.56	8341.67
458.74	8042.08
458.93	8404.86
459.11	8287.84
459.29	8250.39
459.48	8292.52
459.66	8112.30
459.84	8273.79
460.03	8655.30
460.21	8311.24
460.39	8524.23
460.57	8496.14
460.76	8327.63
460.94	8648.28
461.12	8470.40
461.31	8585.08
461.49	8566.36
461.67	8526.57
461.85	8779.35
462.04	8564.02
462.22	9025.11
462.40	8861.27
462.59	8697.43
462.77	8896.38
462.95	8924.46
463.13	8973.61
463.32	8959.57
463.50	8926.80
463.68	9011.06
463.86	8898.72
464.05	8877.65
464.23	8807.44
464.41	8739.56
464.59	8922.12
464.78	9048.51
464.96	9029.79
465.14	8872.97
465.32	9092.98
465.50	9083.62
465.69	9092.98
465.87	8917.44
466.05	8950.21
466.23	9067.24
466.41	9015.74
466.60	9497.89
466.78	9055.53
466.96	9231.07
467.14	9261.50
467.32	9172.56
467.51	9284.91
467.69	9142.13
467.87	9525.98
468.05	9418.32
468.23	9200.65
468.41	9233.41
468.60	9582.15
468.78	9729.61
468.96	9551.73
469.14	9729.61
469.32	9645.35
469.50	9444.06
469.69	9696.84
469.87	9692.16
470.05	9809.19
470.23	9769.40
470.41	9891.10
470.59	9844.29
470.77	9764.72
470.95	10003.45
471.14	10178.99
471.32	9776.42
471.50	10176.65
471.68	10228.14
471.86	10024.51
472.04	10321.76
472.22	10518.37
472.40	10019.83
472.58	10335.81
472.77	10293.68
472.95	10583.90
473.13	10832.00
473.31	10384.96
473.49	10387.30
473.67	10703.27
473.85	10476.24
474.03	10958.39
474.21	10909.24
474.39	10934.98
474.57	11115.20
474.75	10972.43
474.93	10974.77
475.12	11068.39
475.30	11112.86
475.48	10939.66
475.66	11129.25
475.84	11337.56
476.02	11295.43
476.20	11487.35
476.38	11573.95
476.56	11798.64
476.74	11817.36
476.92	11728.42
477.10	11810.34
477.28	12138.02
477.46	11964.82
477.64	12107.59
477.82	12493.78
478.00	12587.40
478.18	12484.42
478.36	12472.71
478.54	12676.34
478.72	12610.81
478.90	12807.41
479.08	12978.27
479.26	13116.36
479.44	13149.13
479.62	13387.86
479.80	13228.71
479.98	13198.28
480.16	13593.83
480.34	13673.41
480.52	13848.95
480.70	13689.79
480.88	13715.54
481.06	13884.06
481.24	13844.27
481.41	14279.61
481.59	14265.57
481.77	14314.72
481.95	14310.04
482.13	14459.83
482.31	14548.77
482.49	14677.50
482.67	14824.95
482.85	14998.15
483.03	15059.01
483.21	15187.74
483.39	15597.33
483.57	15150.29
483.74	15475.62
483.92	15463.92
484.10	15623.08
484.28	15763.51
484.46	15852.45
484.64	16332.26
484.82	15976.50
485.00	16170.76
485.18	16219.91
485.35	16294.81
485.53	16161.40
485.71	16180.12
485.89	16608.44
486.07	16402.47
486.25	16662.27
486.43	16769.94
486.61	17263.79
486.78	17158.47
486.96	17273.15
487.14	17589.13
487.32	17575.08
487.50	18094.68
487.68	18167.24
487.85	18047.87
488.03	18300.65
488.21	18279.58
488.39	18649.39
488.57	18710.24
488.75	18675.13
488.92	19297.72
489.10	19293.04
489.28	19358.57
489.46	19576.24
489.64	19501.34
489.81	20430.54
489.99	20182.44
490.17	20135.63
490.35	20212.87
490.53	20215.21
490.70	20411.81
490.88	20533.52
491.06	21067.16
491.24	20879.92
491.41	20596.71
491.59	20652.89
491.77	20496.07
491.95	20868.22
492.13	21326.96
492.30	21701.45
492.48	21682.72
492.66	21528.25
492.84	21820.81
493.01	22319.35
493.19	21902.73
493.37	22239.77
493.54	21792.73
493.72	22546.38
493.90	22347.44
494.08	22794.48
494.25	23138.54
494.43	23073.00
494.61	23187.69
494.79	23307.05
494.96	23419.40
495.14	23386.63
495.32	23632.39
495.49	23770.48
495.67	23974.11
495.85	23789.20
496.02	24215.18
496.20	24060.71
496.38	24287.74
496.55	24577.97
496.73	24922.02
496.91	25125.65
497.09	24556.90
497.26	25252.04
497.44	25057.78
497.62	24891.60
497.79	25415.88
497.97	25074.16
498.14	25415.88
498.32	25563.33
498.50	25717.81
498.67	25968.24
498.85	25963.56
499.03	26003.35
499.20	26380.18
499.38	26319.32
499.56	26153.15
499.73	26324.01
499.91	26354.43
500.08	26628.27
500.26	26562.74
500.44	26536.99
500.61	26513.59
500.79	26829.56
500.97	26789.77
501.14	27302.35
501.32	27005.10
501.49	26923.18
501.67	27229.79
501.84	27370.22
502.02	27709.60
502.20	27688.54
502.37	27725.99
502.55	27606.62
502.72	27910.89
502.90	27871.10
503.07	27742.37
503.25	28306.44
503.43	28247.93
503.60	28140.26
503.78	28142.60
503.95	28137.92
504.13	28687.95
504.30	28582.62
504.48	28526.45
504.65	28687.95
504.83	29039.03
505.01	28957.11
505.18	29324.57
505.36	29036.69
505.53	29294.14
505.71	29486.07
505.88	29703.74
506.06	29294.14
506.23	29605.44
506.41	29432.24
506.58	29572.67
506.76	29687.36
506.93	29893.32
507.11	29895.66
507.28	30267.81
507.46	29977.58
507.63	29937.79
507.81	30017.37
507.98	29846.51
508.16	30265.47
508.33	30747.62
508.50	30436.33
508.68	30595.48
508.85	31021.46
509.03	31147.85
509.20	30890.39
509.38	31391.26
509.55	31428.71
509.73	31117.42
509.90	31463.82
510.08	31337.43
510.25	31199.34
510.42	31253.17
510.60	31475.52
510.77	31702.56
510.95	31768.09
511.12	31969.38
511.30	32165.98
511.47	32250.24
511.64	32400.04
511.82	32397.70
511.99	32432.80
512.17	32367.27
512.34	31985.76
512.51	32474.93
512.69	32648.13
512.86	32818.99
513.04	32767.50
513.21	32620.05
513.38	32716.01
513.56	32917.29
513.73	32835.38
513.90	32833.04
514.08	32870.48
514.25	33088.15
514.43	33020.28
514.60	33310.50
514.77	33219.22
514.95	33565.62
515.12	33432.21
515.29	33247.31
515.47	34171.82
515.64	34389.49
515.81	33560.94
515.99	33771.59
516.16	33579.67
516.33	33745.84
516.51	33411.15
516.68	33635.84
516.85	33364.34
517.03	33883.94
517.20	33652.22
517.37	34190.55
517.54	34356.72
517.72	33734.14
517.89	33879.25
518.06	34216.29
518.24	34075.86
518.41	34307.57
518.58	34562.69
518.75	34391.83
518.93	34419.92
519.10	34967.60
519.27	35196.98
519.45	34815.47
519.62	34808.45
519.79	35515.29
519.96	35325.71
520.14	35445.07
520.31	35152.51
520.48	35431.03
520.65	35281.24
520.83	36055.95
521.00	36402.35
521.17	35810.20
521.34	36109.78
521.52	36168.30
521.69	36388.31
521.86	36313.41
522.03	36093.40
522.20	36041.91
522.38	36137.87
522.55	36414.05
522.72	36030.21
522.89	36416.40
523.07	36453.84
523.24	36507.68
523.41	36811.95
523.58	36992.17
523.75	37207.50
523.92	37095.15
524.10	37249.63
524.27	37212.18
524.44	37427.51
524.61	37497.72
524.78	37291.76
524.96	37380.70
525.13	37579.64
525.30	37642.84
525.47	38117.96
525.64	37851.14
525.81	37809.01
525.98	37563.26
526.16	37542.19
526.33	37448.57
526.50	37687.31
526.67	37240.26
526.84	37565.60
527.01	37385.38
527.18	37839.44
527.36	37886.25
527.53	38211.59
527.70	38586.07
527.87	38155.41
528.04	38253.72
528.21	38703.10
528.38	38356.70
528.55	38876.30
528.72	38845.87
528.89	38904.38
529.07	38337.98
529.24	38532.24
529.41	38827.15
529.58	38623.52
529.75	38878.64
529.92	38501.81
530.09	39026.09
530.26	39313.98
530.43	39271.85
530.60	38869.28
530.77	38890.34
530.94	39679.10
531.11	39349.09
531.28	39768.04
531.46	39414.62
531.63	39615.91
531.80	39700.17
531.97	39501.22
532.14	39323.34
532.31	39360.79
532.48	39541.01
532.65	39241.42
532.82	39435.69
532.99	39744.64
533.16	39342.06
533.33	39777.40
533.50	40315.73
533.67	40126.14
533.84	39878.05
534.01	39861.66
534.18	39541.01
534.35	40535.74
534.52	40055.93
534.69	40495.95
534.86	40816.60
535.03	40198.70
535.20	40662.13
535.37	40952.35
535.54	40814.26
535.71	40664.47
535.88	40788.52
536.05	40926.61
536.22	40863.41
536.38	40690.21
536.55	40865.75
536.72	40912.56
536.89	40811.92
537.06	40596.59
537.23	41256.62
537.40	40973.42
537.57	41326.84
537.74	40912.56
537.91	41113.85
538.08	41106.83
538.25	40975.76
538.42	40973.42
538.59	41708.35
538.75	41074.06
538.92	41516.42
539.09	41481.31
539.26	41567.91
539.43	41146.62
539.60	41216.83
539.77	41158.32
539.94	41567.91
540.11	41647.49
540.28	41483.66
540.44	41390.03
540.61	41375.99
540.78	41645.15
540.95	41570.25
541.12	41537.49
541.29	41897.93
541.46	41743.45
541.62	41876.86
541.79	42052.41
541.96	41729.41
542.13	41991.55
542.30	41979.85
542.47	41914.31
542.63	42089.85
542.80	42227.95
542.97	42394.12
543.14	42632.86
543.31	42930.11
543.48	42761.59
543.64	43178.20
543.81	43005.00
543.98	42859.89
544.15	42574.34
544.32	42986.28
544.48	43379.49
544.65	43077.56
544.82	43035.43
544.99	42817.76
545.16	43208.63
545.32	42745.20
545.49	43332.68
545.66	43412.26
545.83	43196.93
546.00	43749.29
546.16	43433.32
546.33	43131.39
546.50	42623.50
546.67	42988.62
546.83	42990.96
547.00	43332.68
547.17	42979.26
547.34	43295.23
547.50	43395.87
547.67	43566.73
547.84	43531.62
548.00	43770.36
548.17	44165.91
548.34	43981.01
548.51	43906.11
548.67	43885.04
548.84	43901.43
549.01	43636.95
549.18	43620.56
549.34	43901.43
549.51	43819.51
549.68	43796.10
549.84	43826.53
550.01	44100.37
550.18	44109.74
550.34	44322.72
550.51	43978.67
550.68	44238.47
550.84	43782.06
551.01	43931.86
551.18	43903.77
551.34	44154.21
551.51	44002.07
551.68	44100.37
551.84	44493.58
552.01	44308.68
552.18	44161.23
552.34	44198.68
552.51	44556.78
552.68	44135.48
552.84	44339.11
553.01	44477.20
553.18	44409.32
553.34	44491.24
553.51	44175.27
553.67	44399.96
553.84	44893.82
554.01	44655.08
554.17	44404.64
554.34	44868.07
554.51	44903.18
554.67	45001.48
554.84	44898.50
555.00	44615.29
555.17	44524.01
555.33	44907.86
555.50	44676.15
555.67	44786.15
555.83	44495.92
556.00	44680.83
556.16	45022.54
556.33	44865.73
556.50	44626.99
556.66	44769.77
556.83	45048.29
556.99	45368.94
557.16	45081.06
557.32	44769.77
557.49	45291.71
557.65	44594.23
557.82	45022.54
557.98	45296.39
558.15	44772.11
558.32	44868.07
558.48	45116.17
558.65	45024.89
558.81	44865.73
558.98	44889.13
559.14	45240.21
559.31	45062.33
559.47	44996.80
559.64	45642.79
559.80	45574.91
559.97	45357.24
560.13	45343.20
560.30	44994.46
560.46	45764.49
560.63	45923.65
560.79	45455.54
560.96	46220.90
561.12	45282.34
561.29	45373.63
561.45	45385.33
561.61	45413.41
561.78	45247.24
561.94	44999.14
562.11	45600.66
562.27	45682.58
562.44	45394.69
562.60	45876.84
562.77	45682.58
562.93	45359.58
563.10	45741.09
563.26	45074.04
563.42	45736.41
563.59	45310.43
563.75	45698.96
563.92	45961.10
564.08	45640.45
564.24	45743.43
564.41	45804.28
564.57	46066.42
564.74	45900.25
564.90	45734.07
565.07	45588.95
565.23	45666.19
565.39	45345.54
565.56	46028.98
565.72	45244.90
565.88	45815.99
566.05	45532.78
566.21	45717.68
566.38	45797.26
566.54	45815.99
566.70	46361.33
566.87	46539.21
567.03	45853.44
567.19	46052.38
567.36	46129.62
567.52	45825.35
567.68	45951.74
567.85	45907.27
568.01	45874.50
568.17	45865.14
568.34	45935.35
568.50	45865.14
568.66	45881.52
568.83	45940.04
568.99	46017.27
569.15	45698.96
569.32	45862.80
569.48	45619.38
569.64	46096.85
569.81	46380.06
569.97	45762.15
570.13	45911.95
570.30	45551.51
570.46	45614.70
570.62	45408.73
570.78	45834.71
570.95	45825.35
571.11	46272.39
571.27	46054.72
571.43	45839.39
571.60	46129.62
571.76	46047.70
571.92	46141.32
572.09	46188.13
572.25	46040.68
572.41	45687.26
572.57	46274.73
572.74	46810.71
572.90	45963.44
573.06	46284.09
573.22	46138.98
573.38	46153.02
573.55	45935.35
573.71	46230.26
573.87	46089.83
574.03	46024.29
574.20	46487.72
574.36	45504.70
574.52	45666.19
574.68	46061.74
574.84	45984.51
575.01	46328.56
575.17	46160.05
575.33	45724.71
575.49	45617.04
575.65	46003.23
575.82	46387.08
575.98	45839.39
576.14	45942.38
576.30	46370.69
576.46	45921.31
576.62	46419.84
576.79	45551.51
576.95	45876.84
577.11	45977.48
577.27	46246.65
577.43	46113.23
577.59	45944.72
577.75	45738.75
577.92	45921.31
578.08	45923.65
578.24	45970.46
578.40	45839.39
578.56	46237.28
578.72	46260.69
578.88	46202.18
579.04	46293.46
579.21	46293.46
579.37	46419.84
579.53	46211.54
579.69	46073.45
579.85	46389.42
580.01	46136.64
580.17	46246.65
580.33	46426.87
580.49	46408.14
580.65	46309.84
580.82	46389.42
580.98	46248.99
581.14	46279.41
581.30	46696.03
581.46	46412.82
581.62	46344.95
581.78	46202.18
581.94	46543.89
582.10	46265.37
582.26	46218.56
582.42	46021.95
582.58	46541.55
582.74	45752.79
582.90	46227.92
583.06	46363.67
583.22	46160.05
583.38	46543.89
583.54	46436.23
583.70	46424.53
583.86	46576.66
584.02	46232.60
584.18	46445.59
584.34	46391.76
584.50	46248.99
584.66	46260.69
584.82	46054.72
584.98	46450.27
585.14	46415.16
585.30	45689.60
585.46	46323.88
585.62	45787.90
585.78	45979.82
585.94	45647.47
586.10	46227.92
586.26	46398.78
586.42	46450.27
586.58	46422.19
586.74	46314.52
586.90	45918.97
587.06	46141.32
587.22	46459.63
587.38	45588.95
587.54	46700.71
587.70	46522.83
587.86	46548.57
588.02	46698.37
588.18	46635.17
588.34	46120.26
588.49	45834.71
588.65	45844.07
588.81	45797.26
588.97	45670.87
589.13	45776.20
589.29	46122.60
589.45	46279.41
589.61	46246.65
589.77	46366.01
589.93	46155.36
590.08	46382.40
590.24	46330.90
590.40	46506.44
590.56	46478.36
590.72	46506.44
590.88	46686.67
591.04	46604.75
591.20	46852.84
591.35	46646.88
591.51	46513.47
591.67	46295.80
591.83	46068.76
591.99	46115.58
592.15	46532.19
592.31	46447.93
592.46	46536.87
592.62	46326.22
592.78	46557.94
592.94	47023.70
593.10	46604.75
593.26	46878.59
593.41	46761.56
593.57	46445.59
593.73	46611.77
593.89	46817.74
594.05	46155.36
594.20	46328.56
594.36	46639.86
594.52	46534.53
594.68	46344.95
594.84	46424.53
594.99	46660.92
595.15	46714.75
595.31	46436.23
595.47	46663.26
595.62	46803.69
595.78	46225.58
595.94	46799.01
596.10	46887.95
596.25	46958.17
596.41	46485.38
596.57	46522.83
596.73	46951.15
596.88	45963.44
597.04	46869.23
597.20	46174.09
597.36	46574.32
597.51	47079.88
597.67	46312.18
597.83	46777.95
597.99	46880.93
598.14	46525.17
598.30	46272.39
598.46	46291.12
598.61	46429.21
598.77	46293.46
598.93	46506.44
599.09	46232.60
599.24	46887.95
599.40	47035.41
599.56	46506.44
599.71	46373.03
599.87	46494.74
600.03	46623.47
600.18	46911.36
600.34	46504.10
600.50	46635.17
600.65	46401.12
600.81	46679.64
600.97	46906.68
601.12	46756.88
601.28	46539.21
601.44	46569.64
601.59	46082.81
601.75	46305.16
601.91	46356.65
602.06	46017.27
602.22	46436.23
602.37	46330.90
602.53	46541.55
602.69	46824.76
602.84	46089.83
603.00	46213.88
603.16	46576.66
603.31	46401.12
603.47	46522.83
603.62	46476.02
603.78	46834.12
603.94	46101.53
604.09	46527.51
604.25	46658.58
604.40	46925.40
604.56	45986.85
604.71	46522.83
604.87	46213.88
605.03	46300.48
605.18	46094.51
605.34	46085.15
605.49	45972.80
605.65	46424.53
605.80	46124.94
605.96	46188.13
606.12	46689.01
606.27	46726.46
606.43	46232.60
606.58	46660.92
606.74	46071.10
606.89	46574.32
607.05	46710.07
607.20	46429.21
607.36	46305.16
607.51	45961.10
607.67	46431.55
607.82	46052.38
607.98	46028.98
608.13	46045.36
608.29	45942.38
608.44	45918.97
608.60	45605.34
608.75	46052.38
608.91	46178.77
609.06	45759.81
609.22	46307.50
609.37	45483.63
609.53	46162.39
609.68	46003.23
609.84	45729.39
609.99	46094.51
610.15	45656.83
610.30	45666.19
610.46	45862.80
610.61	45851.09
610.76	45890.88
610.92	46288.77
611.07	46176.43
611.23	46019.61
611.38	45713.00
611.54	45228.51
611.69	45710.66
611.84	45478.95
612.00	45294.05
612.15	45481.29
612.31	45312.77
612.46	45724.71
612.62	45572.57
612.77	45656.83
612.92	45982.16
613.08	45261.28
613.23	45825.35
613.39	45500.01
613.54	45305.75
613.69	45680.24
613.85	44854.03
614.00	45570.23
614.15	45600.66
614.31	45249.58
614.46	45710.66
614.62	45661.51
614.77	45373.63
614.92	45256.60
615.08	45120.85
615.23	45153.62
615.38	45090.42
615.54	45298.73
615.69	45144.25
615.84	44676.15
616.00	44921.90
616.15	45055.31
616.30	45275.32
616.46	44919.56
616.61	44680.83
616.76	44821.26
616.92	44460.82
617.07	44266.55
617.22	44797.85
617.37	44652.74
617.53	45303.41
617.68	45331.50
617.83	45067.02
617.99	45364.26
618.14	45095.10
618.29	45085.74
618.45	44505.29
618.60	44371.88
618.75	44336.77
618.90	44315.70
619.06	44748.70
619.21	45038.93
619.36	44872.75
619.51	44898.50
619.67	44495.92
619.82	44622.31
619.97	44619.97
620.12	44128.46
620.28	44083.99
620.43	44119.10
620.58	44725.30
620.73	44451.45
620.89	44353.15
621.04	44559.12
621.19	44306.34
621.34	44027.82
621.49	44467.84
621.65	43976.33
621.80	44048.88
621.95	44734.66
622.10	44301.66
622.25	44114.42
622.41	44018.46
622.56	44463.16
622.71	44502.95
622.86	44271.23
623.01	43725.89
623.16	44203.36
623.32	43728.23
623.47	44154.21
623.62	43805.47
623.77	44072.29
623.92	44018.46
624.07	44144.84
624.23	43636.95
624.38	43442.68
624.53	43367.79
624.68	43861.64
624.83	43571.41
624.98	43606.52
625.13	43494.18
625.29	43438.00
625.44	43295.23
625.59	43019.05
625.74	42925.42
625.89	42958.19
626.04	43330.34
626.19	43213.31
626.34	43438.00
626.49	43646.31
626.65	43412.26
626.80	43620.56
626.95	43620.56
627.10	43096.28
627.25	42979.26
627.40	43091.60
627.55	42824.78
627.70	42597.75
627.85	42539.24
628.00	42967.55
628.15	43014.37
628.30	42864.57
628.45	42850.53
628.60	42831.80
628.76	42770.95
628.91	43035.43
629.06	42710.10
629.21	42485.40
629.36	42426.89
629.51	42644.56
629.66	42298.16
629.81	42539.24
629.96	42335.61
630.11	42738.18
630.26	42988.62
630.41	42965.21
630.56	42562.64
630.71	42534.56
630.86	42408.17
631.01	42567.32
631.16	42838.83
631.31	42080.49
631.46	42141.35
631.61	42447.96
631.76	42232.63
631.91	42206.88
632.06	42267.73
632.21	42682.01
632.36	42366.04
632.51	41916.65
632.66	41942.40
632.81	41743.45
632.96	41832.39
633.10	42136.66
633.25	41801.97
633.40	41715.37
633.55	42082.83
633.70	42148.37
633.85	41584.30
634.00	41624.09
634.15	42127.30
634.30	41792.61
634.45	41481.31
634.60	42230.29
634.75	41818.35
634.90	41762.18
635.05	41350.24
635.19	41493.02
635.34	41904.95
635.49	41713.03
635.64	41256.62
635.79	41654.51
635.94	41354.93
636.09	41249.60
636.24	41373.65
636.39	41441.53
636.53	41500.04
636.68	41453.23
636.83	41287.05
636.98	41263.64
637.13	41188.75
637.28	41441.53
637.43	41397.06
637.57	41570.25
637.72	41221.52
637.87	41226.20
638.02	41556.21
638.17	41071.72
638.32	41256.62
638.46	40945.33
638.61	41153.64
638.76	40821.28
638.91	41139.60
639.06	41296.41
639.20	41270.67
639.35	41303.43
639.50	41546.85
639.65	41137.26
639.80	41141.94
639.94	40622.34
640.09	40561.48
640.24	40629.36
640.39	40706.60
640.54	40428.07
640.68	40591.91
640.83	40458.50
640.98	40952.35
641.13	40699.58
641.27	40790.86
641.42	40456.16
641.57	39927.20
641.72	40320.41
641.86	40622.34
642.01	40313.39
642.16	39812.51
642.31	39931.88
642.45	40275.94
642.60	40095.72
642.75	40254.87
642.90	40828.30
643.04	40526.38
643.19	40018.48
643.34	39739.96
643.48	40348.50
643.63	39966.99
643.78	39639.31
643.93	40222.11
644.07	39941.24
644.22	40002.10
644.37	39639.31
644.51	40294.66
644.66	39906.13
644.81	39922.52
644.95	40069.97
645.10	39812.51
645.25	40102.74
645.39	40062.95
645.54	39793.79
645.69	40053.59
645.83	39683.78
645.98	39688.46
646.13	39405.26
646.27	39758.68
646.42	39934.22
646.57	39360.79
646.71	39276.53
646.86	39330.36
647.00	39653.36
647.15	39482.50
647.30	39473.13
647.44	39185.25
647.59	39468.45
647.74	39161.84
647.88	39367.81
648.03	39667.40
648.17	39573.78
648.32	39491.86
648.47	39564.42
648.61	38962.90
648.76	39332.70
648.90	39168.87
649.05	39093.97
649.20	39321.00
649.34	39210.99
649.49	39089.29
649.63	39262.49
649.78	38983.96
649.92	38934.81
650.07	39152.48
650.21	38728.84
650.36	38693.74
650.51	39222.70
650.65	39346.75
650.80	39316.32
650.94	39152.48
651.09	38932.47
651.23	38946.51
651.38	38756.93
651.52	38639.90
651.67	38815.44
651.81	38749.91
651.96	38639.90
652.10	38340.32
652.25	38260.74
652.39	38518.20
652.54	38555.64
652.68	39049.50
652.83	38602.46
652.97	38656.29
653.12	38492.45
653.26	38356.70
653.41	38443.30
653.55	38412.87
653.70	38347.34
653.84	38785.02
653.99	37773.91
654.13	38483.09
654.27	37902.64
654.42	38270.10
654.56	38057.11
654.71	37921.36
654.85	38579.05
655.00	38000.94
655.14	37954.13
655.29	37661.56
655.43	37989.24
655.57	37628.79
655.72	37652.20
655.86	37408.78
656.01	37305.80
656.15	37233.24
656.30	37277.71
656.44	37420.48
656.58	37593.68
656.73	37301.12
656.87	37827.74
657.01	37364.31
657.16	37717.73
657.30	37333.89
657.45	37584.32
657.59	37696.67
657.73	37364.31
657.88	37455.59
658.02	37879.23
658.16	37673.26
658.31	37443.89
658.45	37420.48
658.60	37268.35
658.74	37581.98
658.88	37301.12
659.03	37235.58
659.17	37200.47
659.31	37209.84
659.46	36708.96
659.60	37216.86
659.74	36928.97
659.89	36907.91
660.03	36636.41
660.17	36463.21
660.32	36992.17
660.46	37186.43
660.60	36788.54
660.74	37212.18
660.89	36634.06
661.03	36495.97
661.17	36275.96
661.32	36507.68
661.46	36414.05
661.60	36133.19
661.74	36521.72
661.89	36666.83
662.03	36367.24
662.17	36470.23
662.31	36552.15
662.46	36641.09
662.60	36425.76
662.74	36245.54
662.88	36004.46
663.03	35840.62
663.17	35840.62
663.31	35878.07
663.45	35707.21
663.60	36264.26
663.74	35693.17
663.88	35477.84
664.02	35548.06
664.17	35538.69
664.31	35683.81
664.45	35351.45
664.59	35145.48
664.73	35587.85
664.88	35805.52
665.02	35194.64
665.16	35414.65
665.30	35051.86
665.44	34899.73
665.59	34939.52
665.73	35168.89
665.87	34820.15
666.01	34916.11
666.15	34806.11
666.29	34909.09
666.44	34939.52
666.58	34565.03
666.72	34677.38
666.86	35056.54
667.00	35065.91
667.14	34527.58
667.28	34494.82
667.43	34225.65
667.57	34590.78
667.71	34209.27
667.85	34335.66
667.99	34033.73
668.13	34412.90
668.27	34387.15
668.41	34125.01
668.56	33582.01
668.70	33897.98
668.84	33640.52
668.98	33434.55
669.12	33460.30
669.26	33937.77
669.40	33371.36
669.54	33394.76
669.68	33535.20
669.82	33240.29
669.96	33240.29
670.10	33141.99
670.25	33057.73
670.39	33057.73
670.53	33102.20
670.67	33235.61
670.81	33010.92
670.95	32999.21
671.09	33055.39
671.23	32723.03
671.37	33031.98
671.51	32666.86
671.65	32584.94
671.79	32037.25
671.93	32011.51
672.07	32793.25
672.21	32641.11
672.35	32306.41
672.49	32442.17
672.63	32673.88
672.77	32051.30
672.91	32563.87
673.05	32678.56
673.19	31934.27
673.33	31892.14
673.47	31798.52
673.61	31655.75
673.75	31672.13
673.89	31744.69
674.03	31452.12
674.17	31391.26
674.31	31505.95
674.45	31690.85
674.59	31115.08
674.73	31541.06
674.87	31274.24
675.01	31307.01
675.15	31189.98
675.29	31157.21
675.43	31192.32
675.56	30955.93
675.70	30836.56
675.84	30623.57
675.98	30129.72
676.12	30888.05
676.26	30272.49
676.40	30799.11
676.54	30857.62
676.68	30707.83
676.82	29986.94
676.96	30380.15
677.10	30031.41
677.23	30125.04
677.37	30026.73
677.51	29584.37
677.65	29687.36
677.79	29347.98
677.93	29432.24
678.07	29626.50
678.21	28863.49
678.34	28914.98
678.48	28603.69
678.62	28521.77
678.76	28725.39
678.90	28428.15
679.04	28833.06
679.18	28491.34
679.31	28247.93
679.45	28325.16
679.59	28177.71
679.73	28236.22
679.87	28051.32
680.00	27824.29
680.14	27922.59
680.28	27749.39
680.42	27655.77
680.56	28257.29
680.70	27915.57
680.83	27470.87
680.97	27646.41
681.11	27688.54
681.25	26984.04
681.39	27534.06
681.52	27307.03
681.66	27232.13
681.80	26969.99
681.94	27016.80
682.07	27051.91
682.21	26684.45
682.35	26845.94
682.49	26794.45
682.62	26654.02
682.76	26370.82
682.90	26412.95
683.04	26429.33
683.17	26115.70
683.31	25792.70
683.45	26022.08
683.59	25912.07
683.72	25816.11
683.86	25759.94
684.00	25795.04
684.13	25429.92
684.27	25453.33
684.41	25123.31
684.55	25448.64
684.68	25355.02
684.82	25238.00
684.96	25008.62
685.09	25331.62
685.23	25193.53
685.37	24870.53
685.50	24954.79
685.64	24641.16
685.78	24582.65
685.91	24444.56
686.05	24088.79
686.19	23939.00
686.32	24266.67
686.46	23716.65
686.60	23639.41
686.73	23440.47
686.87	23297.69
687.01	23063.64
687.14	22965.34
687.28	23119.81
687.42	23215.77
687.55	23229.82
687.69	23473.23
687.82	23152.58
687.96	22918.53
688.10	23285.99
688.23	22937.25
688.37	22408.29
688.50	22424.67
688.64	22478.50
688.78	22513.61
688.91	22607.23
689.05	22647.02
689.18	22242.11
689.32	22242.11
689.46	22017.42
689.59	22085.30
689.73	22209.34
689.86	22141.47
690.00	22038.48
690.13	21914.44
690.27	21582.08
690.41	21654.64
690.54	21413.56
690.68	21537.61
690.81	21394.84
690.95	21778.68
691.08	21317.60
691.22	21238.02
691.35	21411.22
691.49	21142.06
691.62	21343.35
691.76	21039.08
691.89	20933.75
692.03	20723.10
692.16	20503.09
692.30	20545.22
692.43	20297.13
692.57	20175.42
692.70	20226.91
692.84	20140.31
692.97	19882.85
693.11	19908.60
693.24	19962.43
693.38	19887.53
693.51	19730.72
693.65	19604.33
693.78	19667.52
693.92	19721.35
694.05	19892.21
694.19	19435.81
694.32	19562.20
694.45	19384.32
694.59	19220.48
694.72	18972.38
694.86	19257.93
694.99	18609.60
695.13	18782.80
695.26	18845.99
695.39	18623.64
695.53	18499.59
695.66	18679.82
695.80	18761.73
695.93	18874.08
696.07	18387.25
696.20	18602.58
696.33	18511.30
696.47	18125.11
696.60	18078.30
696.73	18239.79
696.87	17839.56
697.00	17926.16
697.14	17998.72
697.27	17605.51
697.40	17769.35
697.54	17724.88
697.67	17338.69
697.80	17282.52
697.94	17018.04
698.07	17064.85
698.21	17156.13
698.34	17268.47
698.47	17137.40
698.61	16828.45
698.74	16596.74
698.87	16781.64
699.01	16278.43
699.14	16477.37
699.27	16507.80
699.40	16343.96
699.54	16283.11
699.67	16208.21
699.80	16409.50
699.94	16049.05
700.07	16397.79
700.20	16016.29
700.34	16046.71
700.47	15791.59
700.60	16116.93
700.73	16058.42
700.87	15843.09
701.00	15700.31
701.13	15913.30
701.26	15639.46
701.40	15597.33
701.53	15363.28
701.66	15541.16
701.79	15161.99
701.93	15183.06
702.06	15129.22
702.19	15061.35
702.32	14972.41
702.46	14843.68
702.59	14897.51
702.72	14806.23
702.85	14953.68
702.99	14719.63
703.12	14654.09
703.25	14354.51
703.38	14436.42
703.51	14408.34
703.65	14508.98
703.78	14216.41
703.91	14256.20
704.04	14207.05
704.17	14118.11
704.31	14150.88
704.44	13907.46
704.57	13907.46
704.70	13823.20
704.83	13710.86
704.96	13809.16
705.10	13867.67
705.23	13736.60
>>>>>End Processed Spectral Data<<<<<
