SpectraSuite Data File
++++++++++++++++++++++++++++++++++++
Date: Fri Oct 25 11:33:33 EDT 2013
User: price-jones
Dark Spectrum Present: No
Reference Spectrum Present: No
Number of Sampled Component Spectra: 1
Spectrometers: USB2+H05261
Integration Time (usec): 100000 (USB2+H05261)
Spectra Averaged: 1 (USB2+H05261)
Boxcar Smoothing: 0 (USB2+H05261)
Correct for Electrical Dark: No (USB2+H05261)
Strobe/Lamp Enabled: No (USB2+H05261)
Correct for Detector Non-linearity: No (USB2+H05261)
Correct for Stray Light: No (USB2+H05261)
Number of Pixels in Processed Spectrum: 2048
>>>>>Begin Processed Spectral Data<<<<<
365.73	271.50
365.92	271.50
366.12	271.50
366.32	142.77
366.52	163.84
366.72	212.99
366.91	86.60
367.11	180.22
367.31	110.01
367.51	187.24
367.70	182.56
367.90	203.63
368.10	121.71
368.30	177.88
368.49	236.39
368.69	154.48
368.89	198.95
369.09	152.13
369.28	238.73
369.48	210.65
369.68	210.65
369.87	283.20
370.07	231.71
370.27	292.57
370.47	397.89
370.66	475.13
370.86	482.15
371.06	566.41
371.25	573.43
371.45	580.45
371.65	592.16
371.84	599.18
372.04	503.22
372.24	545.34
372.44	545.34
372.63	582.79
372.83	531.30
373.03	585.13
373.22	578.11
373.42	690.46
373.62	547.69
373.81	596.84
374.01	702.16
374.21	606.20
374.40	685.78
374.60	692.80
374.79	660.03
374.99	674.07
375.19	638.97
375.38	580.45
375.58	648.33
375.78	669.39
375.97	711.52
376.17	732.59
376.37	713.86
376.56	697.48
376.76	629.60
376.95	634.29
377.15	716.20
377.35	697.48
377.54	660.03
377.74	709.18
377.93	739.61
378.13	704.50
378.33	681.10
378.52	692.80
378.72	753.65
378.91	751.31
379.11	730.25
379.31	688.12
379.50	718.54
379.70	699.82
379.89	767.70
380.09	791.10
380.28	800.46
380.48	702.16
380.68	798.12
380.87	643.65
381.07	772.38
381.26	793.44
381.46	730.25
381.65	725.57
381.85	784.08
382.04	814.51
382.24	884.72
382.43	737.27
382.63	760.67
382.83	718.54
383.02	760.67
383.22	863.66
383.41	835.57
383.61	744.29
383.80	809.83
384.00	840.25
384.19	851.96
384.39	823.87
384.58	835.57
384.78	894.08
384.97	844.93
385.17	882.38
385.36	905.79
385.56	849.61
385.75	774.72
385.95	830.89
386.14	882.38
386.34	833.23
386.53	905.79
386.72	870.68
386.92	938.55
387.11	851.96
387.31	896.43
387.50	844.93
387.70	866.00
387.89	873.02
388.09	812.17
388.28	964.30
388.48	926.85
388.67	971.32
388.86	947.92
389.06	931.53
389.25	985.37
389.45	910.47
389.64	1004.09
389.84	959.62
390.03	1004.09
390.22	980.68
390.42	959.62
390.61	933.87
390.81	959.62
391.00	987.71
391.19	929.19
391.39	980.68
391.58	1004.09
391.78	1064.94
391.97	1006.43
392.16	1011.11
392.36	1144.52
392.55	950.26
392.75	1067.28
392.94	1074.31
393.13	1027.50
393.33	1025.15
393.52	1025.15
393.71	1027.50
393.91	1062.60
394.10	1048.56
394.29	1078.99
394.49	1093.03
394.68	1184.31
394.88	1067.28
395.07	1165.59
395.26	1146.86
395.46	1135.16
395.65	1137.50
395.84	1163.25
396.04	1247.51
396.23	1266.23
396.42	1125.80
396.62	1228.78
396.81	1219.42
397.00	1228.78
397.19	1226.44
397.39	1221.76
397.58	1268.57
397.77	1289.64
397.97	1317.72
398.16	1203.04
398.35	1270.91
398.55	1315.38
398.74	1273.25
398.93	1418.36
399.12	1254.53
399.32	1289.64
399.51	1252.19
399.70	1308.36
399.90	1364.53
400.09	1338.79
400.28	1472.20
400.47	1432.41
400.67	1378.58
400.86	1287.29
401.05	1444.11
401.24	1458.15
401.44	1437.09
401.63	1521.35
401.82	1495.60
402.01	1493.26
402.21	1563.48
402.40	1511.99
402.59	1460.49
402.78	1472.20
402.97	1551.78
403.17	1549.43
403.36	1577.52
403.55	1577.52
403.74	1614.97
403.93	1570.50
404.13	1540.07
404.32	1535.39
404.51	1657.10
404.70	1680.50
404.89	1732.00
405.09	1706.25
405.28	1657.10
405.47	1657.10
405.66	1687.53
405.85	1769.44
406.05	1706.25
406.24	1612.63
406.43	1760.08
406.62	1783.49
406.81	1870.09
407.00	1792.85
407.20	1774.13
407.39	1806.89
407.58	1884.13
407.77	1902.86
407.96	1813.92
408.15	1909.88
408.34	1886.47
408.54	1916.90
408.73	1926.26
408.92	1987.11
409.11	1975.41
409.30	2087.76
409.49	1961.37
409.68	2001.16
409.87	1905.20
410.07	1982.43
410.26	2031.58
410.45	2078.40
410.64	2134.57
410.83	1996.48
411.02	2052.65
411.21	2143.93
411.40	2190.74
411.59	2270.32
411.78	2260.96
411.98	2186.06
412.17	2249.25
412.36	2209.47
412.55	2293.72
412.74	2387.35
412.93	2314.79
413.12	2394.37
413.31	2487.99
413.50	2326.49
413.69	2492.67
413.88	2473.95
414.07	2394.37
414.26	2410.75
414.45	2487.99
414.64	2612.04
414.83	2476.29
415.02	2644.81
415.22	2717.36
415.41	2560.55
415.60	2731.41
415.79	2593.31
415.98	2614.38
416.17	2806.30
416.36	2722.04
416.55	2726.72
416.74	2754.81
416.93	2682.25
417.12	2677.57
417.31	2913.97
417.50	2874.18
417.69	2981.84
417.88	2928.01
418.07	2925.67
418.26	2979.50
418.45	3012.27
418.64	2939.71
418.83	3019.29
419.02	3098.87
419.21	3077.80
419.39	3143.34
419.58	3021.63
419.77	3075.46
419.96	3159.72
420.15	3155.04
420.34	3201.85
420.53	3199.51
420.72	3171.43
420.91	3220.58
421.10	3236.96
421.29	3325.90
421.48	3304.84
421.67	3368.03
421.86	3316.54
422.05	3246.32
422.24	3279.09
422.43	3314.20
422.61	3389.10
422.80	3274.41
422.99	3463.99
423.18	3442.93
423.37	3471.01
423.56	3351.65
423.75	3414.84
423.94	3339.94
424.13	3368.03
424.32	3274.41
424.50	3407.82
424.69	3524.85
424.88	3384.41
425.07	3431.23
425.26	3417.18
425.45	3391.44
425.64	3403.14
425.83	3438.25
426.01	3545.91
426.20	3463.99
426.39	3552.93
426.58	3356.33
426.77	3447.61
426.96	3506.12
427.15	3501.44
427.33	3651.24
427.52	3424.20
427.71	3616.13
427.90	3695.71
428.09	3623.15
428.28	3676.98
428.46	3777.62
428.65	3679.32
428.84	3707.41
429.03	3672.30
429.22	3709.75
429.40	3723.79
429.59	3786.99
429.78	3515.48
429.97	3515.48
430.16	3859.54
430.34	3824.44
430.53	3922.74
430.72	3875.93
430.91	3838.48
431.10	3843.16
431.28	3918.06
431.47	4063.17
431.66	4046.79
431.85	3854.86
432.03	4173.18
432.22	4086.58
432.41	4007.00
432.60	4163.81
432.79	4084.23
432.97	4173.18
433.16	4243.39
433.35	4100.62
433.54	4205.94
433.72	4173.18
433.91	4283.18
434.10	4145.09
434.28	4177.86
434.47	4318.29
434.66	4252.75
434.85	4269.14
435.03	4266.80
435.22	4351.06
435.41	4503.19
435.59	4388.50
435.78	4365.10
435.97	4468.08
436.16	4308.93
436.34	4542.98
436.53	4437.66
436.72	4496.17
436.90	4430.63
437.09	4519.57
437.28	4383.82
437.46	4540.64
437.65	4578.09
437.84	4678.73
438.02	4634.26
438.21	4657.67
438.40	4362.76
438.58	4629.58
438.77	4713.84
438.96	4779.37
439.14	4975.98
439.33	4781.71
439.52	4992.36
439.70	4837.89
439.89	5111.73
440.08	4926.83
440.26	5074.28
440.45	5064.92
440.63	4994.70
440.82	5165.56
441.01	5100.03
441.19	5102.37
441.38	5238.12
441.57	5221.74
441.75	5275.57
441.94	5420.68
442.12	5266.21
442.31	5423.02
442.50	5392.59
442.68	5350.46
442.87	5493.24
443.05	5465.15
443.24	5741.33
443.43	5425.36
443.61	5579.84
443.80	5631.33
443.98	5305.99
444.17	5249.82
444.35	5582.18
444.54	5556.43
444.73	5687.50
444.91	5703.89
445.10	5636.01
445.28	5727.29
445.47	5558.77
445.65	5685.16
445.84	5865.38
446.02	5659.42
446.21	5713.25
446.39	5734.31
446.58	5774.10
446.77	5701.54
446.95	5685.16
447.14	5682.82
447.32	5827.93
447.51	5685.16
447.69	5689.84
447.88	5729.63
448.06	5888.79
448.25	5813.89
448.43	5809.21
448.62	5724.95
448.80	5755.38
448.99	6012.84
449.17	6078.37
449.36	5785.80
449.54	6005.81
449.73	6057.31
449.91	6150.93
450.10	6235.19
450.28	5989.43
450.46	6015.18
450.65	6251.57
450.83	6209.44
451.02	6003.47
451.20	6274.98
451.39	6263.27
451.57	6258.59
451.76	5980.07
451.94	6169.65
452.13	6389.66
452.31	6207.10
452.49	6349.87
452.68	6335.83
452.86	6228.17
453.05	6406.05
453.23	6513.71
453.42	6286.68
453.60	6195.40
453.78	6441.15
453.97	6349.87
454.15	6356.90
454.34	6586.27
454.52	6558.18
454.70	6684.57
454.89	6525.41
455.07	6642.44
455.26	6633.08
455.44	6567.54
455.62	6640.10
455.81	6750.10
455.99	6693.93
456.17	6693.93
456.36	6724.36
456.54	6810.96
456.73	6850.75
456.91	6991.18
457.09	6885.86
457.28	7236.94
457.46	7000.54
457.64	7077.78
457.83	7227.57
458.01	6773.51
458.19	7136.29
458.38	7169.06
458.56	7293.11
458.74	7206.51
458.93	7094.16
459.11	7077.78
459.29	7080.12
459.48	7325.88
459.66	7375.03
459.84	7187.79
460.03	7440.56
460.21	7452.27
460.39	7405.46
460.57	7321.20
460.76	7578.65
460.94	7527.16
461.12	7618.44
461.31	7564.61
461.49	7293.11
461.67	7356.30
461.85	7623.12
462.04	7536.52
462.22	7983.57
462.40	7798.66
462.59	7679.30
462.77	7585.68
462.95	7728.45
463.13	7733.13
463.32	7686.32
463.50	8049.10
463.68	7950.80
463.86	8028.04
464.05	7864.20
464.23	7925.05
464.41	8152.09
464.59	7967.18
464.78	8152.09
464.96	7967.18
465.14	7936.76
465.32	8009.31
465.50	8060.80
465.69	8238.69
465.87	8152.09
466.05	8044.42
466.23	8121.66
466.41	8156.77
466.60	8463.38
466.78	8006.97
466.96	8131.02
467.14	8163.79
467.32	8100.59
467.51	8381.46
467.69	8116.98
467.87	8287.84
468.05	8547.64
468.23	8379.12
468.41	8418.91
468.60	8585.08
468.78	8498.49
468.96	8358.05
469.14	8533.59
469.32	8681.05
469.50	8521.89
469.69	8791.05
469.87	8812.12
470.05	8458.70
470.23	8788.71
470.41	8833.18
470.59	9013.40
470.77	8891.70
470.95	8826.16
471.14	8863.61
471.32	8950.21
471.50	8980.64
471.68	9088.30
471.86	9078.94
472.04	9074.26
472.22	9373.85
472.40	8968.93
472.58	9132.77
472.77	9301.29
472.95	9371.50
473.13	9666.41
473.31	9282.56
473.49	9472.15
473.67	9444.06
473.85	9521.30
474.03	9565.77
474.21	9778.76
474.39	9799.82
474.57	9715.56
474.75	9980.04
474.93	9935.57
475.12	9563.43
475.30	9989.41
475.48	10024.51
475.66	10120.48
475.84	10064.30
476.02	10012.81
476.20	10221.12
476.38	10443.47
476.56	10649.44
476.74	10609.65
476.92	10602.63
477.10	10644.76
477.28	10885.83
477.46	10761.78
477.64	10911.58
477.82	10810.93
478.00	11201.80
478.18	11190.10
478.36	11290.74
478.54	11375.00
478.72	11520.12
478.90	11517.78
479.08	11690.98
479.26	11705.02
479.44	11775.24
479.62	11786.94
479.80	12112.27
479.98	11805.66
480.16	12236.32
480.34	12065.46
480.52	12358.03
480.70	12446.97
480.88	12042.06
481.06	12416.54
481.24	12241.00
481.41	12666.98
481.59	12776.98
481.77	12833.16
481.95	12807.41
482.13	12924.44
482.31	12779.32
482.49	13387.86
482.67	13212.32
482.85	13664.05
483.03	13554.04
483.21	13661.71
483.39	13717.88
483.57	13848.95
483.74	14197.69
483.92	14001.08
484.10	13940.23
484.28	14312.38
484.46	14546.43
484.64	14904.53
484.82	14249.18
485.00	14986.45
485.18	14600.26
485.35	15307.10
485.53	14834.32
485.71	15187.74
485.89	15470.94
486.07	15445.20
486.25	15400.72
486.43	15580.95
486.61	15466.26
486.78	15800.96
486.96	15840.75
487.14	16383.75
487.32	16428.22
487.50	16276.09
487.68	16374.39
487.85	16652.91
488.03	16606.10
488.21	16788.66
488.39	17165.49
488.57	17296.56
488.75	17242.73
488.92	17455.72
489.10	17804.46
489.28	17408.90
489.46	17689.77
489.64	17933.18
489.81	18174.26
489.99	18015.10
490.17	18045.53
490.35	18363.84
490.53	18677.48
490.70	18492.57
490.88	18342.78
491.06	19140.90
491.24	18906.85
491.41	19136.22
491.59	19552.84
491.77	19407.72
491.95	19445.17
492.13	19550.49
492.30	19442.83
492.48	19447.51
492.66	19903.92
492.84	19817.32
493.01	20081.80
493.19	20360.32
493.37	20395.43
493.54	20535.86
493.72	20428.20
493.90	20732.47
494.08	20727.78
494.25	21099.93
494.43	20922.05
494.61	21130.36
494.79	21266.11
494.96	21291.85
495.14	21355.05
495.32	21598.46
495.49	21839.54
495.67	21813.79
495.85	22061.89
496.02	22429.35
496.20	22347.44
496.38	22422.33
496.55	22705.54
496.73	23175.98
496.91	22764.05
497.09	22719.58
497.26	22958.31
497.44	22806.18
497.62	23386.63
497.79	23531.75
497.97	23426.42
498.14	23901.55
498.32	23651.11
498.50	23697.92
498.67	24212.84
498.85	23618.35
499.03	23974.11
499.20	24102.84
499.38	24098.16
499.56	24140.29
499.73	24458.60
499.91	24374.34
500.08	24790.95
500.26	24566.26
500.44	24500.73
500.61	25015.65
500.79	24823.72
500.97	25123.31
501.14	25298.85
501.32	25575.03
501.49	25252.04
501.67	25310.55
501.84	25495.46
502.02	25614.82
502.20	25776.32
502.37	25736.53
502.55	25748.23
502.72	26080.59
502.90	25886.32
503.07	25797.38
503.25	26183.57
503.43	26235.06
503.60	26284.22
503.78	26581.46
503.95	26775.73
504.13	26614.23
504.30	26864.67
504.48	26782.75
504.65	26881.05
504.83	26899.78
505.01	27138.51
505.18	27082.34
505.36	27297.67
505.53	27276.60
505.71	27873.44
505.88	27236.81
506.06	27215.75
506.23	27676.83
506.41	27520.02
506.58	27915.57
506.76	27791.52
506.93	28292.40
507.11	28505.38
507.28	28102.81
507.46	28198.77
507.63	28147.28
507.81	28407.08
507.98	28067.70
508.16	28350.91
508.33	28659.86
508.50	28430.49
508.68	28795.61
508.85	29336.27
509.03	28669.22
509.20	28811.99
509.38	29216.91
509.55	29326.91
509.73	29453.30
509.90	29338.62
510.08	29411.17
510.25	29619.48
510.42	29738.85
510.60	30026.73
510.77	29968.22
510.95	29764.59
511.12	29935.45
511.30	29813.74
511.47	30188.23
511.64	30064.18
511.82	30197.59
511.99	30253.76
512.17	30469.09
512.34	30663.36
512.51	31070.61
512.69	30628.25
512.86	30904.43
513.04	31232.11
513.21	31110.40
513.38	31056.57
513.56	31218.07
513.73	31314.03
513.90	31103.38
514.08	31732.98
514.25	31566.81
514.43	31779.79
514.60	32027.89
514.77	31527.02
514.95	32009.17
515.12	31555.10
515.29	31931.93
515.47	31889.80
515.64	32350.88
515.81	32168.32
515.99	32013.85
516.16	32140.24
516.33	32198.75
516.51	32437.48
516.68	32488.98
516.85	32467.91
517.03	32224.50
517.20	32484.30
517.37	33053.05
517.54	33158.37
517.72	32861.12
517.89	32755.80
518.06	32910.27
518.24	33287.10
518.41	32816.65
518.58	33034.32
518.75	32804.95
518.93	33376.04
519.10	33207.52
519.27	33291.78
519.45	33453.28
519.62	33418.17
519.79	33942.45
519.96	33797.34
520.14	34181.18
520.31	33996.28
520.48	34033.73
520.65	34033.73
520.83	34415.24
521.00	34817.81
521.17	34223.31
521.34	34614.18
521.52	34637.59
521.69	34078.20
521.86	34876.32
522.03	34560.35
522.20	35194.64
522.38	34904.41
522.55	35019.10
522.72	35204.00
522.89	34806.11
523.07	35964.67
523.24	35534.01
523.41	35318.68
523.58	35424.01
523.75	35660.40
523.92	35084.63
524.10	35484.86
524.27	35335.07
524.44	35758.70
524.61	35817.22
524.78	35573.80
524.96	36217.45
525.13	35931.90
525.30	35885.09
525.47	36306.39
525.64	36250.22
525.81	35941.27
525.98	36194.04
526.16	36187.02
526.33	36084.04
526.50	36664.49
526.67	36116.81
526.84	36673.85
527.01	36500.65
527.18	36575.55
527.36	37060.04
527.53	37223.88
527.70	37141.96
527.87	37273.03
528.04	37024.93
528.21	36966.42
528.38	37347.93
528.55	37284.73
528.72	37216.86
528.89	37123.24
529.07	37429.85
529.24	37139.62
529.41	37406.44
529.58	37483.68
529.75	37471.98
529.92	37586.66
530.09	37591.34
530.26	37792.63
530.43	37738.80
530.60	37722.41
530.77	37656.88
530.94	37471.98
531.11	37820.72
531.28	38110.94
531.46	38422.23
531.63	38190.52
531.80	37895.61
531.97	38167.12
532.14	38249.03
532.31	37780.93
532.48	38471.39
532.65	38529.90
532.82	38415.21
532.99	38742.89
533.16	38794.38
533.33	38918.43
533.50	39044.82
533.67	38850.55
533.84	38586.07
534.01	38761.61
534.18	38658.63
534.35	39360.79
534.52	39187.59
534.69	39180.57
534.86	39290.57
535.03	39353.77
535.20	39475.48
535.37	39524.63
535.54	39515.26
535.71	39335.04
535.88	39545.69
536.05	39878.05
536.22	39800.81
536.38	40093.38
536.55	39608.89
536.72	40016.14
536.89	39660.38
537.06	39557.39
537.23	40044.23
537.40	39358.45
537.57	39625.27
537.74	39924.86
537.91	40163.59
538.08	40189.34
538.25	39910.82
538.42	39761.02
538.59	40273.60
538.75	40163.59
538.92	40465.52
539.09	40648.08
539.26	41088.10
539.43	40507.65
539.60	40474.88
539.77	41029.59
539.94	41301.09
540.11	40886.82
540.28	41116.19
540.44	40776.81
540.61	40797.88
540.78	40421.05
540.95	40868.09
541.12	40591.91
541.29	40877.46
541.46	40849.37
541.62	41081.08
541.79	41305.77
541.96	40851.71
542.13	40889.16
542.30	41294.07
542.47	41193.43
542.63	41244.92
542.80	41500.04
542.97	41993.89
543.14	41954.10
543.31	41495.36
543.48	42003.25
543.64	41993.89
543.81	41741.11
543.98	42192.84
544.15	42337.95
544.32	42314.55
544.48	42387.10
544.65	42237.31
544.82	42195.18
544.99	41888.57
545.16	41921.34
545.32	42433.91
545.49	42866.91
545.66	42777.97
545.83	42536.90
546.00	42616.47
546.16	42391.78
546.33	42438.59
546.50	42010.28
546.67	42632.86
546.83	42099.22
547.00	42911.38
547.17	42614.13
547.34	42478.38
547.50	43206.29
547.67	43723.55
547.84	42997.98
548.00	43180.54
548.17	43157.14
548.34	43220.33
548.51	42878.61
548.67	43548.01
548.84	43246.08
549.01	43105.65
549.18	43676.74
549.34	43262.46
549.51	43615.88
549.68	43423.96
549.84	43526.94
550.01	43445.02
550.18	43393.53
550.34	43913.13
550.51	43690.78
550.68	44144.84
550.84	43618.22
551.01	43459.07
551.18	43667.37
551.34	43363.11
551.51	43702.48
551.68	43700.14
551.84	43878.02
552.01	44018.46
552.18	43821.85
552.34	43725.89
552.51	43735.25
552.68	43955.26
552.84	44009.09
553.01	44350.81
553.18	44072.29
553.34	44706.57
553.51	44100.37
553.67	44308.68
553.84	44102.71
554.01	44832.96
554.17	44577.84
554.34	44463.16
554.51	44467.84
554.67	44765.09
554.84	44610.61
555.00	44538.05
555.17	44196.34
555.33	44760.40
555.50	44570.82
555.67	44669.12
555.83	45017.86
556.00	44467.84
556.16	45280.00
556.33	44624.65
556.50	44868.07
556.66	44741.68
556.83	44634.02
556.99	45268.30
557.16	45010.84
557.32	45698.96
557.49	45331.50
557.65	45029.57
557.82	45214.47
557.98	45118.51
558.15	44914.88
558.32	45397.03
558.48	45219.15
558.65	45427.46
558.81	45319.79
558.98	45198.09
559.14	45413.41
559.31	45134.89
559.47	45244.90
559.64	45158.30
559.80	45244.90
559.97	45368.94
560.13	45535.12
560.30	45628.74
560.46	45911.95
560.63	45684.92
560.79	45923.65
560.96	45862.80
561.12	45731.73
561.29	45715.34
561.45	45661.51
561.61	45954.08
561.78	45591.30
561.94	45855.78
562.11	45656.83
562.27	45537.46
562.44	45614.70
562.60	46026.63
562.77	45940.04
562.93	45638.11
563.10	45975.14
563.26	45371.28
563.42	46361.33
563.59	45750.45
563.75	45703.64
563.92	46436.23
564.08	45579.59
564.24	45757.47
564.41	45982.16
564.57	46134.30
564.74	45984.51
564.90	45989.19
565.07	45942.38
565.23	46225.58
565.39	46178.77
565.56	45942.38
565.72	46045.36
565.88	46136.64
566.05	46146.00
566.21	46293.46
566.38	46185.79
566.54	46461.97
566.70	46387.08
566.87	46494.74
567.03	46113.23
567.19	46258.35
567.36	46286.43
567.52	46394.10
567.68	46464.32
567.85	46382.40
568.01	46583.68
568.17	46036.00
568.34	46354.31
568.50	46396.44
568.66	46248.99
568.83	45977.48
568.99	46424.53
569.15	46646.88
569.32	46602.41
569.48	46747.52
569.64	46635.17
569.81	46698.37
569.97	46429.21
570.13	46773.27
570.30	46281.75
570.46	46733.48
570.62	46239.62
570.78	46763.90
570.95	46937.10
571.11	47082.22
571.27	46557.94
571.43	46787.31
571.60	46588.36
571.76	46749.86
571.92	46513.47
572.09	46658.58
572.25	46656.24
572.41	46469.00
572.57	46621.13
572.74	47239.03
572.90	46660.92
573.06	46789.65
573.22	46967.53
573.38	47126.69
573.55	47292.86
573.71	47253.08
573.87	46934.76
574.03	46583.68
574.20	47388.83
574.36	46815.40
574.52	46862.21
574.68	46883.27
574.84	47210.95
575.01	47187.54
575.17	47131.37
575.33	46981.57
575.49	46674.96
575.65	47086.90
575.82	46878.59
575.98	47086.90
576.14	47562.03
576.30	47281.16
576.46	47035.41
576.62	46955.83
576.79	46974.55
576.95	46440.91
577.11	47072.85
577.27	46981.57
577.43	47203.92
577.59	47145.41
577.75	46894.97
577.92	46691.35
578.08	47133.71
578.24	47117.32
578.40	46965.19
578.56	47278.82
578.72	47138.39
578.88	47079.88
579.04	47344.36
579.21	47234.35
579.37	47192.22
579.53	47459.04
579.69	47093.92
579.85	47269.46
580.01	47274.14
580.17	47154.77
580.33	47484.79
580.49	47250.74
580.65	47124.35
580.82	47288.18
580.98	47136.05
581.14	47358.40
581.30	47255.42
581.46	46890.29
581.62	46597.73
581.78	47428.62
581.94	47367.76
582.10	47412.23
582.26	47210.95
582.42	47480.11
582.58	47337.33
582.74	47526.92
582.90	47445.00
583.06	47484.79
583.22	47246.05
583.38	47414.57
583.54	47505.85
583.70	47421.59
583.86	47440.32
584.02	47161.79
584.18	47632.24
584.34	47634.58
584.50	47489.47
584.66	47414.57
584.82	47695.44
584.98	47686.07
585.14	47697.78
585.30	47452.02
585.46	47182.86
585.62	47131.37
585.78	47334.99
585.94	47110.30
586.10	47613.52
586.26	47255.42
586.42	47449.68
586.58	47622.88
586.74	47489.47
586.90	47353.72
587.06	47529.26
587.22	47728.20
587.38	47145.41
587.54	47693.10
587.70	47892.04
587.86	47655.65
588.02	47529.26
588.18	47674.37
588.34	47646.29
588.49	47208.61
588.65	47372.44
588.81	47302.23
588.97	47433.30
589.13	47414.57
589.29	47564.37
589.45	47782.04
589.61	47627.56
589.77	47777.36
589.93	47742.25
590.08	47650.97
590.24	48154.18
590.40	48196.31
590.56	47980.98
590.72	47990.34
590.88	47683.73
591.04	47913.11
591.20	47707.14
591.35	48004.39
591.51	47896.72
591.67	47725.86
591.83	48449.09
591.99	47906.08
592.15	47730.54
592.31	47798.42
592.46	47585.43
592.62	47903.74
592.78	47969.28
592.94	48275.89
593.10	48212.70
593.26	48191.63
593.41	48105.03
593.57	47620.54
593.73	48233.76
593.89	48406.96
594.05	47870.98
594.20	48156.52
594.36	48413.98
594.52	48074.60
594.68	48296.95
594.84	48311.00
594.99	48205.67
595.15	48158.86
595.31	48252.48
595.47	48009.07
595.62	48193.97
595.78	48088.65
595.94	48392.92
596.10	48002.05
596.25	48704.21
596.41	48360.15
596.57	48154.18
596.73	48306.32
596.88	48041.84
597.04	48163.54
597.20	48601.22
597.36	47908.43
597.51	48280.57
597.67	48406.96
597.83	47957.58
597.99	48357.81
598.14	48168.22
598.30	48355.47
598.46	48055.88
598.61	48364.83
598.77	48175.25
598.93	48610.59
599.09	48193.97
599.24	48208.01
599.40	48334.40
599.56	48353.13
599.71	48659.74
599.87	49038.90
600.03	48439.73
600.18	48285.25
600.34	48282.91
600.50	48231.42
600.65	48556.75
600.81	48701.87
600.97	48758.04
601.12	48601.22
601.28	48341.42
601.44	48664.42
601.59	48102.69
601.75	48182.27
601.91	48238.44
602.06	48458.45
602.22	48729.95
602.37	48135.46
602.53	48528.67
602.69	48271.21
602.84	48016.09
603.00	48556.75
603.16	48699.53
603.31	48243.12
603.47	48451.43
603.62	48205.67
603.78	48540.37
603.94	48458.45
604.09	48381.21
604.25	48325.04
604.40	48119.07
604.56	48491.22
604.71	48715.91
604.87	48257.17
605.03	47903.74
605.18	48458.45
605.34	48512.28
605.49	48130.78
605.65	48622.29
605.80	48254.82
605.96	48121.41
606.12	48128.44
606.27	48329.72
606.43	47957.58
606.58	48093.33
606.74	48121.41
606.89	48200.99
607.05	48067.58
607.20	48528.67
607.36	48217.38
607.51	47849.91
607.67	48093.33
607.82	48079.28
607.98	48105.03
608.13	48264.19
608.29	48189.29
608.44	48301.64
608.60	48404.62
608.75	48446.75
608.91	48296.95
609.06	47880.34
609.22	48217.38
609.37	47608.84
609.53	48240.78
609.68	48325.04
609.84	48018.43
609.99	47821.83
610.15	48025.45
610.30	48058.22
610.46	47966.94
610.61	48439.73
610.76	48105.03
610.92	47739.91
611.07	47807.78
611.23	47798.42
611.38	47959.92
611.54	47859.27
611.69	48325.04
611.84	47842.89
612.00	47973.96
612.15	47543.30
612.31	48339.08
612.46	47510.53
612.62	47641.60
612.77	47648.63
612.92	48105.03
613.08	47629.90
613.23	47924.81
613.39	47599.47
613.54	47660.33
613.69	47992.68
613.85	47746.93
614.00	47840.55
614.15	47660.33
614.31	47547.98
614.46	47611.18
614.62	47477.77
614.77	47707.14
614.92	47800.76
615.08	47756.29
615.23	47800.76
615.38	47833.53
615.54	47421.59
615.69	47615.86
615.84	47356.06
616.00	47924.81
616.15	47578.41
616.30	47587.77
616.46	47576.07
616.61	47372.44
616.76	47632.24
616.92	47655.65
617.07	47835.87
617.22	47110.30
617.37	47356.06
617.53	47749.27
617.68	47229.67
617.83	47185.20
617.99	47559.69
618.14	47592.45
618.29	47316.27
618.45	47114.98
618.60	47288.18
618.75	46721.77
618.90	47351.38
619.06	47030.72
619.21	47271.80
619.36	47311.59
619.51	47260.10
619.67	47119.66
619.82	47203.92
619.97	47138.39
620.12	46799.01
620.28	47264.78
620.43	47100.94
620.58	46946.47
620.73	46848.16
620.89	46686.67
621.04	47253.08
621.19	46763.90
621.34	46607.09
621.49	46862.21
621.65	46782.63
621.80	47257.76
621.95	46960.51
622.10	47241.37
622.25	46791.99
622.41	46686.67
622.56	46745.18
622.71	46761.56
622.86	47026.04
623.01	46799.01
623.16	47047.11
623.32	46747.52
623.47	46630.49
623.62	46527.51
623.77	46681.98
623.92	46391.76
624.07	46583.68
624.23	46579.00
624.38	46784.97
624.53	46279.41
624.68	46277.07
624.83	46377.72
624.98	46571.98
625.13	46415.16
625.29	46447.93
625.44	46272.39
625.59	46473.68
625.74	46681.98
625.89	46225.58
626.04	46007.91
626.19	46143.66
626.34	46293.46
626.49	45764.49
626.65	45759.81
626.80	46363.67
626.95	46054.72
627.10	45682.58
627.25	46103.87
627.40	46146.00
627.55	46267.71
627.70	45914.29
627.85	46160.05
628.00	46092.17
628.15	45897.91
628.30	45488.31
628.45	45656.83
628.60	45352.56
628.76	45579.59
628.91	45750.45
629.06	45237.87
629.21	45235.53
629.36	45677.90
629.51	45464.91
629.66	45904.93
629.81	45703.64
629.96	45741.09
630.11	45743.43
630.26	45336.18
630.41	45020.20
630.56	45401.71
630.71	45666.19
630.86	45628.74
631.01	45390.01
631.16	45223.83
631.31	45155.96
631.46	45212.13
631.61	45490.65
631.76	45120.85
631.91	45425.12
632.06	45701.30
632.21	45727.05
632.36	44957.01
632.51	44797.85
632.66	45455.54
632.81	45020.20
632.96	45448.52
633.10	45247.24
633.25	45256.60
633.40	45064.67
633.55	45626.40
633.70	45186.38
633.85	44697.21
634.00	44538.05
634.15	44704.23
634.30	45067.02
634.45	44612.95
634.60	44905.52
634.75	44486.56
634.90	44935.95
635.05	44788.49
635.19	44692.53
635.34	44612.95
635.49	44865.73
635.64	44935.95
635.79	45099.78
635.94	44687.85
636.09	44477.20
636.24	44734.66
636.39	44603.59
636.53	44807.22
636.68	44612.95
636.83	44460.82
636.98	44626.99
637.13	44025.48
637.28	44362.51
637.43	44519.33
637.57	44306.34
637.72	43777.38
637.87	44100.37
638.02	44311.02
638.17	43955.26
638.32	43805.47
638.46	44306.34
638.61	44076.97
638.76	44343.79
638.91	44245.49
639.06	44016.11
639.20	43859.30
639.35	44058.24
639.50	43721.21
639.65	44039.52
639.80	44311.02
639.94	44177.61
640.09	43971.64
640.24	44112.08
640.39	43627.59
640.54	43515.24
640.68	43861.64
640.83	44044.20
640.98	43966.96
641.13	43548.01
641.27	44280.60
641.42	43770.36
641.57	43409.92
641.72	44027.82
641.86	43274.16
642.01	43260.12
642.16	43775.04
642.31	43164.16
642.45	43414.60
642.60	42946.49
642.75	43143.09
642.90	43395.87
643.04	43398.21
643.19	43168.84
643.34	43412.26
643.48	43241.40
643.63	42927.77
643.78	43304.59
643.93	43395.87
644.07	43515.24
644.22	43512.90
644.37	43117.35
644.51	43632.27
644.66	43100.97
644.81	42878.61
644.95	43056.50
645.10	43402.89
645.25	42904.36
645.39	42731.16
645.54	43199.27
645.69	42876.27
645.83	42752.23
645.98	42981.60
646.13	42642.22
646.27	42536.90
646.42	42499.45
646.57	43037.77
646.71	43173.52
646.86	43049.47
647.00	43009.68
647.15	42878.61
647.30	42962.87
647.44	42763.93
647.59	42789.67
647.74	42164.75
647.88	42864.57
648.03	43084.58
648.17	43267.14
648.32	42698.39
648.47	42703.07
648.61	42188.16
648.76	42728.82
648.90	42202.20
649.05	42218.58
649.20	42279.44
649.34	42487.74
649.49	42382.42
649.63	42464.34
649.78	42499.45
649.92	42440.93
650.07	43033.09
650.21	42307.52
650.36	42527.53
650.51	42508.81
650.65	42459.66
650.80	42087.51
650.94	42387.10
651.09	42359.02
651.23	42239.65
651.38	42382.42
651.52	41277.69
651.67	42000.91
651.81	41951.76
651.96	42005.59
652.10	41610.04
652.25	41399.40
652.39	42124.96
652.54	41935.38
652.68	41968.15
652.83	41682.60
652.97	42068.79
653.12	41867.50
653.26	41717.71
653.41	41996.23
653.55	42012.62
653.70	41839.42
653.84	42115.60
653.99	41979.85
654.13	41900.27
654.27	41483.66
654.42	41567.91
654.56	41453.23
654.71	41535.15
654.85	41703.67
655.00	41610.04
655.14	41827.71
655.29	41963.46
655.43	41439.18
655.57	41242.58
655.72	41340.88
655.86	41163.00
656.01	41057.68
656.15	40973.42
656.30	41074.06
656.44	41504.72
656.58	41312.80
656.73	41315.14
656.87	40804.90
657.01	41228.54
657.16	41193.43
657.30	41003.85
657.45	41380.67
657.59	40961.72
657.73	40655.11
657.88	40816.60
658.02	41120.87
658.16	41074.06
658.31	41067.04
658.45	40905.54
658.60	40549.78
658.74	40800.22
658.88	41062.36
659.03	40556.80
659.17	40446.80
659.31	40594.25
659.46	40683.19
659.60	40563.82
659.74	40573.19
659.89	40161.25
660.03	40126.14
660.17	40074.65
660.32	40201.04
660.46	40130.83
660.60	39983.37
660.74	39845.28
660.89	39786.77
661.03	39709.53
661.17	39522.29
661.32	39838.26
661.46	40016.14
661.60	39695.49
661.74	39861.66
661.89	39683.78
662.03	40067.63
662.17	39538.67
662.31	39772.72
662.46	39597.18
662.60	39241.42
662.74	39040.14
662.88	39323.34
663.03	39140.78
663.17	38796.72
663.31	38754.59
663.45	39363.13
663.60	39372.49
663.74	39035.45
663.88	38679.69
664.02	38382.45
664.17	39033.11
664.31	38770.97
664.45	38550.96
664.59	38712.46
664.73	38691.40
664.88	38824.81
665.02	38511.17
665.16	38265.42
665.30	38714.80
665.44	38450.32
665.59	38597.77
665.73	37954.13
665.87	37708.37
666.01	38082.86
666.15	38572.03
666.29	37766.88
666.44	37968.17
666.58	37900.29
666.72	37888.59
666.86	37741.14
667.00	37778.59
667.14	37996.26
667.28	38167.12
667.43	37827.74
667.57	37696.67
667.71	37670.92
667.85	37628.79
667.99	37560.92
668.13	37172.39
668.27	36877.48
668.41	37113.87
668.56	36573.21
668.70	36662.15
668.84	36467.89
668.98	36734.71
669.12	36947.70
669.26	36985.15
669.40	36701.94
669.54	36561.51
669.68	36584.91
669.82	37017.91
669.96	36432.78
670.10	36205.75
670.25	36596.62
670.39	36114.47
670.53	36182.34
670.67	36046.59
670.81	36114.47
670.95	35992.76
671.09	36240.86
671.23	35915.52
671.37	36121.49
671.51	35761.05
671.65	35505.93
671.79	35903.82
671.93	35971.69
672.07	35749.34
672.21	35723.60
672.35	35077.61
672.49	35037.82
672.63	35278.89
672.77	35456.78
672.91	35583.16
673.05	35285.92
673.19	34902.07
673.33	34827.17
673.47	34803.77
673.61	34740.57
673.75	34817.81
673.89	34415.24
674.03	34073.52
674.17	34197.57
674.31	33816.06
674.45	34057.14
674.59	34043.09
674.73	34110.97
674.87	33802.02
675.01	33975.22
675.15	33640.52
675.29	33481.36
675.43	33635.84
675.56	33621.80
675.70	33549.24
675.84	33394.76
675.98	32488.98
676.12	33357.32
676.26	33546.90
676.40	32793.25
676.54	32711.33
676.68	33053.05
676.82	32039.59
676.96	33380.72
677.10	32847.08
677.23	32879.85
677.37	32517.06
677.51	32716.01
677.65	32322.80
677.79	32126.19
677.93	32360.25
678.07	31955.33
678.21	32182.37
678.34	31606.59
678.48	31243.81
678.62	31243.81
678.76	31463.82
678.90	31264.88
679.04	31330.41
679.18	31828.95
679.31	31161.89
679.45	30850.60
679.59	30693.79
679.73	31197.00
679.87	30609.53
680.00	30314.62
680.14	30232.70
680.28	30639.95
680.42	30377.81
680.56	30314.62
680.70	30064.18
680.83	30031.41
680.97	29752.89
681.11	30101.63
681.25	29579.69
681.39	29626.50
681.52	29785.66
681.66	28968.81
681.80	28776.89
681.94	28933.70
682.07	28994.56
682.21	28954.77
682.35	28732.42
682.49	28503.04
682.62	28968.81
682.76	28797.95
682.90	28816.68
683.04	28393.04
683.17	28554.54
683.31	28198.77
683.45	27941.32
683.59	27569.17
683.72	27751.73
683.86	27751.73
684.00	27847.69
684.13	27552.79
684.27	27304.69
684.41	27271.92
684.55	27405.33
684.68	27255.54
684.82	26930.20
684.96	26930.20
685.09	27091.70
685.23	27129.15
685.37	27634.71
685.50	27199.37
685.64	26534.65
685.78	26710.19
685.91	26792.11
686.05	26043.14
686.19	26101.65
686.32	26075.91
686.46	25851.22
686.60	25621.84
686.73	25944.84
686.87	25729.51
687.01	25872.28
687.14	25933.14
687.28	25727.17
687.42	25553.97
687.55	25205.23
687.69	24893.94
687.82	24931.39
687.96	24599.03
688.10	25170.12
688.23	24996.92
688.37	24912.66
688.50	25022.67
688.64	24879.89
688.78	24538.18
688.91	24395.40
689.05	24631.80
689.18	24364.98
689.32	23597.28
689.46	23613.66
689.59	23641.75
689.73	24041.98
689.86	24320.51
690.00	23704.95
690.13	24074.75
690.27	23290.67
690.41	23555.15
690.54	23126.83
690.68	23098.75
690.81	22710.22
690.95	22913.84
691.08	22789.80
691.22	22822.56
691.35	22632.98
691.49	22864.69
691.62	22707.88
691.76	22335.73
691.89	22207.00
692.03	22125.08
692.16	22045.51
692.30	21944.86
692.43	22036.14
692.57	21228.66
692.70	21607.83
692.84	21598.46
692.97	21223.98
693.11	21727.19
693.24	21390.16
693.38	21200.57
693.51	20872.90
693.65	20992.26
693.78	21053.12
693.92	20950.14
694.05	20683.31
694.19	20751.19
694.32	20739.49
694.45	20580.33
694.59	20610.76
694.72	20753.53
694.86	20484.37
694.99	20381.38
695.13	20219.89
695.26	19960.09
695.39	19878.17
695.53	20046.69
695.66	19761.14
695.80	19527.09
695.93	19466.24
696.07	19545.81
696.20	19321.12
696.33	19012.17
696.47	18892.80
696.60	18897.49
696.73	19468.58
696.87	19122.18
697.00	19110.47
697.14	18939.62
697.27	18506.62
697.40	18562.79
697.54	18590.88
697.67	18469.17
697.80	18640.03
697.94	18038.51
698.07	17949.57
698.21	18136.81
698.34	18230.43
698.47	17940.21
698.61	17750.62
698.74	17743.60
698.87	17614.87
699.01	17776.37
699.14	17605.51
699.27	17642.96
699.40	17156.13
699.54	17165.49
699.67	17263.79
699.80	17373.80
699.94	17226.34
700.07	17179.53
700.20	16964.20
700.34	17170.17
700.47	16868.24
700.60	16582.70
700.73	16524.18
700.87	16437.58
701.00	16210.55
701.13	16271.40
701.26	16105.23
701.40	16180.12
701.53	16074.80
701.66	16112.25
701.79	16339.28
701.93	15587.97
702.06	15569.24
702.19	15555.20
702.32	15653.50
702.46	16159.06
702.59	15789.25
702.72	15726.06
702.85	15623.08
702.99	15260.29
703.12	15372.64
703.25	15382.00
703.38	15002.83
703.51	15035.60
703.65	14841.34
703.78	14782.82
703.91	14504.30
704.04	14764.10
704.17	14679.84
704.31	14380.25
704.44	14710.27
704.57	14434.08
704.70	14499.62
704.83	14403.66
704.96	14104.07
705.10	13923.85
705.23	14101.73
>>>>>End Processed Spectral Data<<<<<
