SpectraSuite Data File
++++++++++++++++++++++++++++++++++++
Date: Fri Oct 25 11:33:31 EDT 2013
User: price-jones
Dark Spectrum Present: No
Reference Spectrum Present: No
Number of Sampled Component Spectra: 1
Spectrometers: USB2+H05261
Integration Time (usec): 100000 (USB2+H05261)
Spectra Averaged: 1 (USB2+H05261)
Boxcar Smoothing: 0 (USB2+H05261)
Correct for Electrical Dark: No (USB2+H05261)
Strobe/Lamp Enabled: No (USB2+H05261)
Correct for Detector Non-linearity: No (USB2+H05261)
Correct for Stray Light: No (USB2+H05261)
Number of Pixels in Processed Spectrum: 2048
>>>>>Begin Processed Spectral Data<<<<<
365.73	252.78
365.92	252.78
366.12	252.78
366.32	189.58
366.52	128.73
366.72	248.10
366.91	145.11
367.11	161.50
367.31	173.20
367.51	227.03
367.70	119.37
367.90	128.73
368.10	159.16
368.30	229.37
368.49	189.58
368.69	241.08
368.89	196.60
369.09	173.20
369.28	191.92
369.48	217.67
369.68	238.73
369.87	184.90
370.07	205.97
370.27	299.59
370.47	294.91
370.66	486.83
370.86	599.18
371.06	543.00
371.25	561.73
371.45	528.96
371.65	557.05
371.84	493.85
372.04	447.04
372.24	526.62
372.44	655.35
372.63	674.07
372.83	589.82
373.03	613.22
373.22	629.60
373.42	606.20
373.62	650.67
373.81	601.52
374.01	648.33
374.21	662.37
374.40	664.71
374.60	599.18
374.79	603.86
374.99	664.71
375.19	674.07
375.38	650.67
375.58	641.31
375.78	741.95
375.97	720.88
376.17	702.16
376.37	699.82
376.56	615.56
376.76	732.59
376.95	678.76
377.15	692.80
377.35	631.94
377.54	610.88
377.74	645.99
377.93	594.50
378.13	709.18
378.33	800.46
378.52	669.39
378.72	695.14
378.91	683.44
379.11	727.91
379.31	713.86
379.50	732.59
379.70	678.76
379.89	772.38
380.09	711.52
380.28	706.84
380.48	823.87
380.68	723.23
380.87	751.31
381.07	791.10
381.26	828.55
381.46	760.67
381.65	814.51
381.85	854.30
382.04	725.57
382.24	737.27
382.43	739.61
382.63	809.83
382.83	791.10
383.02	856.64
383.22	814.51
383.41	765.36
383.61	828.55
383.80	816.85
384.00	823.87
384.19	786.42
384.39	786.42
384.58	791.10
384.78	758.33
384.97	901.11
385.17	795.78
385.36	868.34
385.56	779.40
385.75	929.19
385.95	875.36
386.14	896.43
386.34	961.96
386.53	842.59
386.72	887.06
386.92	926.85
387.11	828.55
387.31	847.27
387.50	835.57
387.70	936.21
387.89	919.83
388.09	884.72
388.28	947.92
388.48	938.55
388.67	976.00
388.86	903.45
389.06	936.21
389.25	1006.43
389.45	898.77
389.64	912.81
389.84	961.96
390.03	1008.77
390.22	973.66
390.42	931.53
390.61	1046.22
390.81	922.17
391.00	929.19
391.19	1043.88
391.39	1090.69
391.58	1015.79
391.78	1006.43
391.97	1055.58
392.16	1015.79
392.36	1062.60
392.55	1086.01
392.75	1043.88
392.94	1160.91
393.13	1090.69
393.33	968.98
393.52	1027.50
393.71	1078.99
393.91	1125.80
394.10	1074.31
394.29	1130.48
394.49	1102.39
394.68	1102.39
394.88	1081.33
395.07	1160.91
395.26	1181.97
395.46	1102.39
395.65	1177.29
395.84	1116.44
396.04	1275.59
396.23	1158.57
396.42	1214.74
396.62	1146.86
396.81	1135.16
397.00	1205.38
397.19	1196.01
397.39	1191.33
397.58	1263.89
397.77	1322.40
397.97	1270.91
398.16	1268.57
398.35	1242.82
398.55	1303.68
398.74	1287.29
398.93	1268.57
399.12	1343.47
399.32	1338.79
399.51	1376.24
399.70	1465.18
399.90	1284.95
400.09	1387.94
400.28	1324.74
400.47	1504.96
400.67	1416.02
400.86	1383.26
401.05	1376.24
401.24	1458.15
401.44	1352.83
401.63	1385.60
401.82	1465.18
402.01	1418.36
402.21	1439.43
402.40	1586.88
402.59	1334.11
402.78	1465.18
402.97	1549.43
403.17	1577.52
403.36	1598.59
403.55	1413.68
403.74	1558.80
403.93	1657.10
404.13	1668.80
404.32	1678.16
404.51	1593.90
404.70	1650.08
404.89	1638.38
405.09	1781.15
405.28	1640.72
405.47	1694.55
405.66	1671.14
405.85	1706.25
406.05	1659.44
406.24	1785.83
406.43	1647.74
406.62	1799.87
406.81	1797.53
407.00	1743.70
407.20	1685.19
407.39	1736.68
407.58	1813.92
407.77	1914.56
407.96	1799.87
408.15	1930.94
408.34	1930.94
408.54	1973.07
408.73	1956.69
408.92	1916.90
409.11	2019.88
409.30	2092.44
409.49	2001.16
409.68	1912.22
409.87	1984.77
410.07	2099.46
410.26	2015.20
410.45	2200.10
410.64	2012.86
410.83	2071.37
411.02	2155.63
411.21	2195.42
411.40	2207.13
411.59	2200.10
411.78	2230.53
411.98	2193.08
412.17	2230.53
412.36	2190.74
412.55	2275.00
412.74	2408.41
412.93	2399.05
413.12	2260.96
413.31	2537.14
413.50	2464.58
413.69	2436.50
413.88	2455.22
414.07	2502.03
414.26	2565.23
414.45	2476.29
414.64	2593.31
414.83	2597.99
415.02	2609.70
415.22	2605.02
415.41	2607.36
415.60	2637.78
415.79	2693.96
415.98	2668.21
416.17	2792.26
416.36	2672.89
416.55	2815.66
416.74	2803.96
416.93	2885.88
417.12	2799.28
417.31	2960.78
417.50	2986.52
417.69	2944.39
417.88	2913.97
418.07	2920.99
418.26	2979.50
418.45	3012.27
418.64	3030.99
418.83	3136.32
419.02	2984.18
419.21	3087.17
419.39	3129.30
419.58	3087.17
419.77	2991.20
419.96	3206.53
420.15	3246.32
420.34	3220.58
420.53	3197.17
420.72	3229.94
420.91	3229.94
421.10	3346.97
421.29	3307.18
421.48	3206.53
421.67	3342.28
421.86	3255.69
422.05	3276.75
422.24	3361.01
422.43	3218.24
422.61	3281.43
422.80	3433.57
422.99	3435.91
423.18	3337.60
423.37	3346.97
423.56	3412.50
423.75	3353.99
423.94	3410.16
424.13	3164.40
424.32	3344.63
424.50	3445.27
424.69	3475.70
424.88	3389.10
425.07	3393.78
425.26	3382.07
425.45	3461.65
425.64	3632.51
425.83	3494.42
426.01	3445.27
426.20	3384.41
426.39	3384.41
426.58	3480.38
426.77	3574.00
426.96	3571.66
427.15	3520.17
427.33	3492.08
427.52	3695.71
427.71	3609.11
427.90	3641.87
428.09	3630.17
428.28	3735.50
428.46	3644.21
428.65	3653.58
428.84	3857.20
429.03	3705.07
429.22	3714.43
429.40	3794.01
429.59	3702.73
429.78	3588.04
429.97	3707.41
430.16	3698.05
430.34	3871.25
430.53	3756.56
430.72	3946.14
430.91	3946.14
431.10	3948.48
431.28	3850.18
431.47	4053.81
431.66	4109.98
431.85	4025.72
432.03	4112.32
432.22	4016.36
432.41	4063.17
432.60	4042.11
432.79	4205.94
432.97	3999.98
433.16	4175.52
433.35	4114.66
433.54	4224.67
433.72	4219.99
433.91	4290.20
434.10	4205.94
434.28	4327.65
434.47	4250.41
434.66	4234.03
434.85	4454.04
435.03	4313.61
435.22	4383.82
435.41	4360.42
435.59	4264.46
435.78	4362.76
435.97	4236.37
436.16	4372.12
436.34	4521.92
436.53	4477.44
436.72	4505.53
436.90	4484.47
437.09	4517.23
437.28	4290.20
437.46	4512.55
437.65	4545.32
437.84	4739.58
438.02	4573.41
438.21	4627.24
438.40	4571.07
438.58	4718.52
438.77	4774.69
438.96	4774.69
439.14	4898.74
439.33	4884.70
439.52	4940.87
439.70	4919.81
439.89	5149.18
440.08	5004.07
440.26	4959.60
440.45	5118.75
440.63	5179.61
440.82	5369.19
441.01	5210.03
441.19	5128.11
441.38	5210.03
441.57	5191.31
441.75	5270.89
441.94	5432.38
442.12	5296.63
442.31	5451.11
442.50	5490.90
442.68	5401.96
442.87	5331.74
443.05	5495.58
443.24	5495.58
443.43	5572.82
443.61	5621.97
443.80	5715.59
443.98	5563.45
444.17	5233.44
444.35	5504.94
444.54	5650.05
444.73	5593.88
444.91	5731.97
445.10	5795.17
445.28	5628.99
445.47	5617.29
445.65	5631.33
445.84	5771.76
446.02	5844.32
446.21	5682.82
446.39	5633.67
446.58	5689.84
446.77	5736.65
446.95	5577.50
447.14	5535.37
447.32	5795.17
447.51	5830.27
447.69	5701.54
447.88	5689.84
448.06	5788.14
448.25	5994.11
448.43	5799.85
448.62	5837.30
448.80	5720.27
448.99	5783.46
449.17	5870.06
449.36	5937.94
449.54	5905.17
449.73	5989.43
449.91	6083.05
450.10	6085.39
450.28	6157.95
450.46	6120.50
450.65	6118.16
450.83	5984.75
451.02	6211.78
451.20	6127.52
451.39	6384.98
451.57	6118.16
451.76	6253.91
451.94	6394.34
452.13	6211.78
452.31	6321.79
452.49	6221.14
452.68	6352.21
452.86	6352.21
453.05	6300.72
453.23	6466.90
453.42	6223.48
453.60	6401.37
453.78	6567.54
453.97	6445.84
454.15	6384.98
454.34	6452.86
454.52	6516.05
454.70	6459.88
454.89	6661.16
455.07	6600.31
455.26	6677.55
455.44	6710.32
455.62	6562.86
455.81	6731.38
455.99	6768.83
456.17	6817.98
456.36	6843.73
456.54	6796.92
456.73	6925.65
456.91	6874.15
457.09	7063.74
457.28	7073.10
457.46	6970.12
457.64	7220.55
457.83	7028.63
458.01	6991.18
458.19	7145.66
458.38	7206.51
458.56	7187.79
458.74	7059.06
458.93	7377.37
459.11	7220.55
459.29	7204.17
459.48	7480.35
459.66	7234.60
459.84	7452.27
460.03	7501.42
460.21	7293.11
460.39	7447.58
460.57	7454.61
460.76	7431.20
460.94	7501.42
461.12	7461.63
461.31	7536.52
461.49	7452.27
461.67	7499.08
461.85	7772.92
462.04	7449.93
462.22	8194.22
462.40	7786.96
462.59	7793.98
462.77	7702.70
462.95	7955.48
463.13	7808.03
463.32	7829.09
463.50	7988.25
463.68	7868.88
463.86	8025.70
464.05	8009.31
464.23	7808.03
464.41	7915.69
464.59	7822.07
464.78	8280.82
464.96	8102.93
465.14	7960.16
465.32	8058.46
465.50	8166.13
465.69	8341.67
465.87	8252.73
466.05	8049.10
466.23	8107.62
466.41	8243.37
466.60	8276.13
466.78	8121.66
466.96	8400.18
467.14	8255.07
467.32	8435.29
467.51	8341.67
467.69	8154.43
467.87	8379.12
468.05	8491.46
468.23	8294.86
468.41	8418.91
468.60	8552.32
468.78	8650.62
468.96	8589.77
469.14	8477.42
469.32	8795.73
469.50	8573.38
469.69	8716.16
469.87	8746.58
470.05	8805.10
470.23	8858.93
470.41	8727.86
470.59	8968.93
470.77	8854.25
470.95	8828.50
471.14	8938.51
471.32	8840.20
471.50	9132.77
471.68	9006.38
471.86	9109.36
472.04	9219.37
472.22	9530.66
472.40	9219.37
472.58	9174.90
472.77	9380.87
472.95	9336.40
473.13	9748.33
473.31	9415.98
473.49	9387.89
473.67	9502.58
473.85	9530.66
474.03	9797.48
474.21	9687.48
474.39	10031.54
474.57	9631.30
474.75	9944.94
474.93	10090.05
475.12	10045.58
475.30	9874.72
475.48	9863.02
475.66	10125.16
475.84	10127.50
476.02	10326.44
476.20	10396.66
476.38	10551.14
476.56	10520.71
476.74	10736.04
476.92	10576.88
477.10	10520.71
477.28	10691.57
477.46	10682.20
477.64	10869.45
477.82	10841.36
478.00	11162.01
478.18	10944.34
478.36	11276.70
478.54	11267.34
478.72	11424.15
478.90	11545.86
479.08	11702.68
479.26	11648.85
479.44	11690.98
479.62	11644.17
479.80	11985.88
479.98	12088.87
480.16	12400.16
480.34	12081.85
480.52	12226.96
480.70	12376.75
480.88	12023.33
481.06	12360.37
481.24	12482.08
481.41	12692.73
481.59	12671.66
481.77	12734.85
481.95	13041.46
482.13	13177.22
482.31	13022.74
482.49	13439.36
482.67	13530.64
482.85	13453.40
483.03	13422.97
483.21	13650.00
483.39	13764.69
483.57	13626.60
483.74	13973.00
483.92	14169.60
484.10	14012.79
484.28	14228.12
484.46	14377.91
484.64	14862.40
484.82	14480.89
485.00	14731.33
485.18	14972.41
485.35	15449.88
485.53	15138.58
485.71	15365.62
485.89	15396.04
486.07	15253.27
486.25	15510.73
486.43	15524.77
486.61	15723.72
486.78	15917.98
486.96	16070.12
487.14	16088.84
487.32	16121.61
487.50	16393.11
487.68	16606.10
487.85	16690.36
488.03	16638.87
488.21	16849.52
488.39	17263.79
488.57	17013.35
488.75	17060.16
488.92	17324.65
489.10	17369.12
489.28	17474.44
489.46	17757.64
489.64	17804.46
489.81	18422.36
489.99	17982.34
490.17	18195.32
490.35	18588.53
490.53	18520.66
490.70	18618.96
490.88	18583.85
491.06	19122.18
491.24	18946.64
491.41	19143.24
491.59	19377.30
491.77	19180.69
491.95	19264.95
492.13	19836.04
492.30	19531.77
492.48	19971.79
492.66	19852.42
492.84	20051.37
493.01	20320.53
493.19	20058.39
493.37	20549.90
493.54	20439.90
493.72	20699.70
493.90	20688.00
494.08	20751.19
494.25	21027.37
494.43	21130.36
494.61	21263.77
494.79	21172.49
494.96	21404.20
495.14	21575.06
495.32	21666.34
495.49	21748.26
495.67	21839.54
495.85	21958.91
496.02	21984.65
496.20	22183.60
496.38	22410.63
496.55	22452.76
496.73	22937.25
496.91	22632.98
497.09	23080.02
497.26	22775.75
497.44	22672.77
497.62	23220.45
497.79	23613.66
497.97	23405.36
498.14	23910.91
498.32	23531.75
498.50	23857.08
498.67	24016.24
498.85	24231.57
499.03	24219.86
499.20	24018.58
499.38	24545.20
499.56	24184.76
499.73	24617.75
499.91	24847.13
500.08	24802.66
500.26	25010.96
500.44	24905.64
500.61	24765.21
500.79	24601.37
500.97	24973.52
501.14	25359.70
501.32	25436.94
501.49	25219.27
501.67	25699.08
501.84	25832.49
502.02	25469.71
502.20	25919.09
502.37	25809.09
502.55	25970.58
502.72	26031.44
502.90	25869.94
503.07	26036.12
503.25	26012.71
503.43	26019.74
503.60	26480.82
503.78	26469.12
503.95	26764.03
504.13	26679.77
504.30	26799.13
504.48	26981.70
504.65	27246.18
504.83	27096.38
505.01	26934.88
505.18	27463.85
505.36	27555.13
505.53	27344.48
505.71	27953.02
505.88	27438.10
506.06	27442.78
506.23	27737.69
506.41	27466.19
506.58	28016.21
506.76	27835.99
506.93	28121.54
507.11	28133.24
507.28	28292.40
507.46	28189.41
507.63	28158.99
507.81	28739.44
507.98	28589.64
508.16	28606.03
508.33	28772.21
508.50	28912.64
508.68	28837.74
508.85	28826.04
509.03	29062.43
509.20	28971.15
509.38	29406.49
509.55	29422.87
509.73	29411.17
509.90	29317.55
510.08	29670.97
510.25	29130.31
510.42	29647.57
510.60	30120.35
510.77	29642.88
510.95	30230.36
511.12	29741.19
511.30	29890.98
511.47	30377.81
511.64	30431.65
511.82	30429.30
511.99	30412.92
512.17	30321.64
512.34	30773.36
512.51	30794.43
512.69	30953.58
512.86	31166.57
513.04	31129.12
513.21	30864.64
513.38	31136.15
513.56	31236.79
513.73	31136.15
513.90	31580.85
514.08	31461.48
514.25	31402.97
514.43	31716.60
514.60	31503.61
514.77	31594.89
514.95	31971.72
515.12	31498.93
515.29	31552.76
515.47	31922.57
515.64	32311.10
515.81	31789.16
515.99	32147.26
516.16	32357.91
516.33	32205.77
516.51	32446.85
516.68	32570.90
516.85	32790.91
517.03	32919.63
517.20	32755.80
517.37	32835.38
517.54	33207.52
517.72	32783.88
517.89	33123.26
518.06	32907.93
518.24	32936.02
518.41	32706.65
518.58	32982.83
518.75	32744.09
518.93	33488.38
519.10	33247.31
519.27	33717.76
519.45	33689.67
519.62	33977.56
519.79	33710.74
519.96	34202.25
520.14	33881.60
520.31	33701.37
520.48	34103.95
520.65	34235.02
520.83	34555.67
521.00	34263.10
521.17	34377.79
521.34	34408.22
521.52	34455.03
521.69	34679.72
521.86	34754.61
522.03	34810.79
522.20	34885.68
522.38	35409.96
522.55	35297.62
522.72	34965.26
522.89	35349.11
523.07	35590.19
523.24	35192.30
523.41	35365.49
523.58	35175.91
523.75	35606.57
523.92	35723.60
524.10	35459.12
524.27	35964.67
524.44	36105.10
524.61	36219.79
524.78	36062.97
524.96	36013.82
525.13	36219.79
525.30	36315.75
525.47	36336.82
525.64	36229.15
525.81	36266.60
525.98	36694.92
526.16	36383.63
526.33	36292.35
526.50	36437.46
526.67	36385.97
526.84	36346.18
527.01	36158.94
527.18	36973.44
527.36	36940.68
527.53	37071.75
527.70	37151.32
527.87	37558.58
528.04	36701.94
528.21	37249.63
528.38	37031.96
528.55	37331.54
528.72	37134.94
528.89	37734.12
529.07	37521.13
529.24	37455.59
529.41	37851.14
529.58	37736.46
529.75	37649.86
529.92	37979.87
530.09	37408.78
530.26	37801.99
530.43	37654.54
530.60	37500.06
530.77	37523.47
530.94	37874.55
531.11	37979.87
531.28	38244.35
531.46	38059.45
531.63	38300.53
531.80	38394.15
531.97	38447.98
532.14	38476.07
532.31	38478.41
532.48	38389.47
532.65	38752.25
532.82	38710.12
532.99	39086.95
533.16	38555.64
533.33	38710.12
533.50	38885.66
533.67	38780.34
533.84	38878.64
534.01	38925.45
534.18	38857.57
534.35	39299.94
534.52	39435.69
534.69	39072.90
534.86	40037.20
535.03	39313.98
535.20	39414.62
535.37	39543.35
535.54	39674.42
535.71	39599.52
535.88	39653.36
536.05	40297.00
536.22	39779.74
536.38	39695.49
536.55	39868.69
536.72	39924.86
536.89	39597.18
537.06	40119.12
537.23	40236.15
537.40	39681.44
537.57	39732.93
537.74	40088.70
537.91	40325.09
538.08	40287.64
538.25	39824.22
538.42	40048.91
538.59	40369.56
538.75	40987.46
538.92	40631.70
539.09	41209.81
539.26	40198.70
539.43	40587.23
539.60	40861.07
539.77	40687.87
539.94	41284.71
540.11	40940.65
540.28	41237.90
540.44	40992.14
540.61	40765.11
540.78	40587.23
540.95	40734.68
541.12	41055.34
541.29	41043.63
541.46	41172.36
541.62	41074.06
541.79	41490.68
541.96	41354.93
542.13	41305.77
542.30	41408.76
542.47	41586.64
542.63	41375.99
542.80	41837.08
542.97	42244.33
543.14	42471.36
543.31	41762.18
543.48	41837.08
543.64	42033.68
543.81	42527.53
543.98	41858.14
544.15	42054.75
544.32	42314.55
544.48	43206.29
544.65	42377.74
544.82	42270.08
544.99	42136.66
545.16	42438.59
545.32	41923.68
545.49	42574.34
545.66	42951.17
545.83	42876.27
546.00	42693.71
546.16	42651.58
546.33	42438.59
546.50	42518.17
546.67	42721.80
546.83	42469.02
547.00	42511.15
547.17	42934.79
547.34	42770.95
547.50	43068.20
547.67	43217.99
547.84	42997.98
548.00	43421.62
548.17	43737.59
548.34	43047.13
548.51	43281.19
548.67	43292.89
548.84	43225.01
549.01	43313.95
549.18	43257.78
549.34	43473.11
549.51	43796.10
549.68	43683.76
549.84	43372.47
550.01	43503.54
550.18	43213.31
550.34	43632.27
550.51	43807.81
550.68	43660.35
550.84	43164.16
551.01	44332.09
551.18	43597.16
551.34	43641.63
551.51	43833.55
551.68	43814.83
551.84	43648.65
552.01	44304.00
552.18	43990.37
552.34	43786.74
552.51	44264.21
552.68	44254.85
552.84	44182.29
553.01	44837.64
553.18	44268.89
553.34	44343.79
553.51	44135.48
553.67	44116.76
553.84	44411.67
554.01	44388.26
554.17	44414.01
554.34	44769.77
554.51	44570.82
554.67	44699.55
554.84	44591.89
555.00	44498.26
555.17	44905.52
555.33	45055.31
555.50	44933.60
555.67	44748.70
555.83	44971.05
556.00	45109.14
556.16	45556.19
556.33	45001.48
556.50	44765.09
556.66	45043.61
556.83	44636.36
556.99	45471.93
557.16	45558.53
557.32	45460.23
557.49	45324.47
557.65	45052.97
557.82	44858.71
557.98	44938.29
558.15	45287.03
558.32	45062.33
558.48	44949.99
558.65	45228.51
558.81	45357.24
558.98	45296.39
559.14	45052.97
559.31	45610.02
559.47	45422.78
559.64	45392.35
559.80	45509.38
559.97	45724.71
560.13	45422.78
560.30	45205.11
560.46	45595.98
560.63	45750.45
560.79	46033.66
560.96	46307.50
561.12	45954.08
561.29	45448.52
561.45	45794.92
561.61	45947.06
561.78	45982.16
561.94	45642.79
562.11	45780.88
562.27	45778.54
562.44	45801.94
562.60	46347.29
562.77	45794.92
562.93	45797.26
563.10	46461.97
563.26	45839.39
563.42	46314.52
563.59	45928.33
563.75	45940.04
563.92	46054.72
564.08	45984.51
564.24	46424.53
564.41	46167.07
564.57	46295.80
564.74	46197.49
564.90	46532.19
565.07	46337.93
565.23	46326.22
565.39	46770.93
565.56	46272.39
565.72	46377.72
565.88	46146.00
566.05	46356.65
566.21	46506.44
566.38	46026.63
566.54	46466.66
566.70	46571.98
566.87	46700.71
567.03	46028.98
567.19	46660.92
567.36	46450.27
567.52	46054.72
567.68	46824.76
567.85	46562.62
568.01	46632.83
568.17	46656.24
568.34	46614.11
568.50	46607.09
568.66	46036.00
568.83	46347.29
568.99	46728.80
569.15	46728.80
569.32	46356.65
569.48	46806.03
569.64	46965.19
569.81	46813.05
569.97	46906.68
570.13	46909.02
570.30	46450.27
570.46	46880.93
570.62	47276.48
570.78	46649.22
570.95	46983.91
571.11	47023.70
571.27	47171.16
571.43	46637.51
571.60	46852.84
571.76	46728.80
571.92	46796.67
572.09	47035.41
572.25	47023.70
572.41	46663.26
572.57	47049.45
572.74	46990.94
572.90	46637.51
573.06	47063.49
573.22	47002.64
573.38	47365.42
573.55	47138.39
573.71	47576.07
573.87	47075.19
574.03	47334.99
574.20	47388.83
574.36	47004.98
574.52	47082.22
574.68	46965.19
574.84	47117.32
575.01	47278.82
575.17	47459.04
575.33	47657.99
575.49	46815.40
575.65	47323.29
575.82	47112.64
575.98	47035.41
576.14	47103.28
576.30	47505.85
576.46	47004.98
576.62	47035.41
576.79	47248.39
576.95	46913.70
577.11	47217.97
577.27	46934.76
577.43	47065.83
577.59	47026.04
577.75	47091.58
577.92	46707.73
578.08	47693.10
578.24	47234.35
578.40	47407.55
578.56	47342.02
578.72	47320.95
578.88	47466.06
579.04	47260.10
579.21	47714.16
579.37	47370.10
579.53	47374.78
579.69	47220.31
579.85	47091.58
580.01	47608.84
580.17	47285.84
580.33	47480.11
580.49	47587.77
580.65	47817.14
580.82	47302.23
580.98	47468.40
581.14	47370.10
581.30	47657.99
581.46	47615.86
581.62	47196.90
581.78	47091.58
581.94	47215.63
582.10	47620.54
582.26	47309.25
582.42	47056.47
582.58	47407.55
582.74	47302.23
582.90	47470.75
583.06	47730.54
583.22	47175.84
583.38	47224.99
583.54	47480.11
583.70	47349.04
583.86	47206.26
584.02	47519.90
584.18	47538.62
584.34	47545.64
584.50	47721.18
584.66	47800.76
584.82	47526.92
584.98	47615.86
585.14	47611.18
585.30	47246.05
585.46	47484.79
585.62	47143.07
585.78	47852.25
585.94	47657.99
586.10	47489.47
586.26	47339.68
586.42	47229.67
586.58	47793.74
586.74	47356.06
586.90	47552.66
587.06	47686.07
587.22	47608.84
587.38	47459.04
587.54	47861.61
587.70	47931.83
587.86	47618.20
588.02	47608.84
588.18	47313.93
588.34	47498.83
588.49	47622.88
588.65	47782.04
588.81	47585.43
588.97	47545.64
589.13	47505.85
589.29	47679.05
589.45	47777.36
589.61	47749.27
589.77	47709.48
589.93	47756.29
590.08	48044.18
590.24	48353.13
590.40	47962.26
590.56	48222.06
590.72	48428.02
590.88	47763.31
591.04	47859.27
591.20	47990.34
591.35	47814.80
591.51	48671.44
591.67	47920.13
591.83	48533.35
591.99	48002.05
592.15	47901.40
592.31	48060.56
592.46	47962.26
592.62	47840.55
592.78	48299.30
592.94	48353.13
593.10	48353.13
593.26	48261.85
593.41	48069.92
593.57	48430.36
593.73	48275.89
593.89	48477.18
594.05	48451.43
594.20	48025.45
594.36	48629.31
594.52	48624.63
594.68	48179.93
594.84	48177.59
594.99	48535.69
595.15	48399.94
595.31	48308.66
595.47	48067.58
595.62	48547.39
595.78	48100.35
595.94	48432.71
596.10	47992.68
596.25	48385.89
596.41	48130.78
596.57	47707.14
596.73	48521.65
596.88	48423.34
597.04	48257.17
597.20	48280.57
597.36	48282.91
597.51	48385.89
597.67	48048.86
597.83	48121.41
597.99	48633.99
598.14	48245.46
598.30	48013.75
598.46	48254.82
598.61	48505.26
598.77	48261.85
598.93	48573.14
599.09	48460.79
599.24	48701.87
599.40	48072.26
599.56	48631.65
599.71	48865.70
599.87	48978.05
600.03	48568.46
600.18	48435.05
600.34	48554.41
600.50	48498.24
600.65	48540.37
600.81	48947.62
600.97	48554.41
601.12	48577.82
601.28	48343.77
601.44	48612.93
601.59	48523.99
601.75	48282.91
601.91	48280.57
602.06	48395.26
602.22	48472.49
602.37	48540.37
602.53	48739.32
602.69	48404.62
602.84	48383.55
603.00	48474.84
603.16	48526.33
603.31	48411.64
603.47	48788.47
603.62	48802.51
603.78	48701.87
603.94	48659.74
604.09	48982.73
604.25	48336.74
604.40	48289.93
604.56	48212.70
604.71	48568.46
604.87	47920.13
605.03	48172.91
605.18	48355.47
605.34	48582.50
605.49	48233.76
605.65	48446.75
605.80	48350.79
605.96	48018.43
606.12	48287.59
606.27	48144.82
606.43	48320.36
606.58	48273.55
606.74	48245.46
606.89	48582.50
607.05	48318.02
607.20	47955.24
607.36	48533.35
607.51	48535.69
607.67	48116.73
607.82	48292.27
607.98	48444.41
608.13	48271.21
608.29	48519.31
608.44	48329.72
608.60	47962.26
608.75	48500.58
608.91	48332.06
609.06	47721.18
609.22	48594.20
609.37	48051.20
609.53	48491.22
609.68	48484.20
609.84	47948.21
609.99	48044.18
610.15	48048.86
610.30	48467.81
610.46	48355.47
610.61	48273.55
610.76	48126.10
610.92	47980.98
611.07	47969.28
611.23	47915.45
611.38	48350.79
611.54	47903.74
611.69	48217.38
611.84	48257.17
612.00	48013.75
612.15	47686.07
612.31	48385.89
612.46	47873.32
612.62	48069.92
612.77	48018.43
612.92	47913.11
613.08	47505.85
613.23	47742.25
613.39	47718.84
613.54	47562.03
613.69	48189.29
613.85	47489.47
614.00	47852.25
614.15	48257.17
614.31	47760.97
614.46	47423.93
614.62	47711.82
614.77	47665.01
614.92	47770.33
615.08	47793.74
615.23	47988.00
615.38	47613.52
615.54	47643.94
615.69	47856.93
615.84	47756.29
616.00	47828.85
616.15	47732.89
616.30	47852.25
616.46	47592.45
616.61	47655.65
616.76	47501.17
616.92	47419.25
617.07	47358.40
617.22	47646.29
617.37	46962.85
617.53	47100.94
617.68	47363.08
617.83	47653.31
617.99	47646.29
618.14	48069.92
618.29	47470.75
618.45	47000.30
618.60	47365.42
618.75	47000.30
618.90	46941.78
619.06	47306.91
619.21	47302.23
619.36	47789.06
619.51	46794.33
619.67	47112.64
619.82	47157.11
619.97	47358.40
620.12	47278.82
620.28	47168.82
620.43	47379.46
620.58	47466.06
620.73	47412.23
620.89	47316.27
621.04	47171.16
621.19	47484.79
621.34	46696.03
621.49	46724.11
621.65	46813.05
621.80	47349.04
621.95	47033.07
622.10	47302.23
622.25	46796.67
622.41	47037.75
622.56	46986.25
622.71	46667.94
622.86	46873.91
623.01	47065.83
623.16	46794.33
623.32	46967.53
623.47	46609.43
623.62	47049.45
623.77	46590.70
623.92	46866.89
624.07	46756.88
624.23	46960.51
624.38	47023.70
624.53	46829.44
624.68	46199.83
624.83	46721.77
624.98	46305.16
625.13	46335.59
625.29	46330.90
625.44	46557.94
625.59	46384.74
625.74	46253.67
625.89	46373.03
626.04	45808.96
626.19	46536.87
626.34	45989.19
626.49	45755.13
626.65	45553.85
626.80	45872.16
626.95	45930.67
627.10	45787.90
627.25	46326.22
627.40	46459.63
627.55	46295.80
627.70	45942.38
627.85	46377.72
628.00	46019.61
628.15	46085.15
628.30	45684.92
628.45	45415.76
628.60	45464.91
628.76	45750.45
628.91	45743.43
629.06	45532.78
629.21	45881.52
629.36	45591.30
629.51	45546.82
629.66	45937.69
629.81	45972.80
629.96	45874.50
630.11	45837.05
630.26	45434.48
630.41	45593.64
630.56	45673.21
630.71	45998.55
630.86	45289.37
631.01	45181.70
631.16	45277.66
631.31	45581.93
631.46	45354.90
631.61	45902.59
631.76	45659.17
631.91	45799.60
632.06	45654.49
632.21	45656.83
632.36	45652.15
632.51	44863.39
632.66	45909.61
632.81	45516.40
632.96	45577.25
633.10	45057.65
633.25	45762.15
633.40	45907.27
633.55	45556.19
633.70	45193.40
633.85	44947.65
634.00	45034.25
634.15	44587.21
634.30	45062.33
634.45	45528.10
634.60	45027.23
634.75	44722.96
634.90	45062.33
635.05	44940.63
635.19	44718.28
635.34	45104.46
635.49	44877.43
635.64	45067.02
635.79	45074.04
635.94	44957.01
636.09	44975.73
636.24	44648.06
636.39	44762.75
636.53	44865.73
636.68	44346.13
636.83	44067.61
636.98	44594.23
637.13	44072.29
637.28	43948.24
637.43	44472.52
637.57	44664.44
637.72	43885.04
637.87	44643.38
638.02	44605.93
638.17	44706.57
638.32	44374.22
638.46	44313.36
638.61	44243.15
638.76	43995.05
638.91	44390.60
639.06	44140.16
639.20	43871.00
639.35	43768.02
639.50	44048.88
639.65	44055.90
639.80	44304.00
639.94	44467.84
640.09	44184.63
640.24	44231.44
640.39	43838.23
640.54	43728.23
640.68	44137.82
640.83	43950.58
640.98	43777.38
641.13	43491.83
641.27	44023.14
641.42	43627.59
641.57	43646.31
641.72	43838.23
641.86	43550.35
642.01	43484.81
642.16	43529.28
642.31	43302.25
642.45	44018.46
642.60	43290.55
642.75	44062.93
642.90	43281.19
643.04	43782.06
643.19	43447.36
643.34	43220.33
643.48	43124.37
643.63	43482.47
643.78	43849.94
643.93	43260.12
644.07	43262.46
644.22	43395.87
644.37	43253.10
644.51	43253.10
644.66	43524.60
644.81	43201.61
644.95	43140.75
645.10	43082.24
645.25	43210.97
645.39	42745.20
645.54	42918.40
645.69	42820.10
645.83	42876.27
645.98	43002.66
646.13	43021.39
646.27	42726.48
646.42	43220.33
646.57	42492.43
646.71	42988.62
646.86	43054.15
647.00	42995.64
647.15	42955.85
647.30	42497.11
647.44	42822.44
647.59	42735.84
647.74	42473.70
647.88	42965.21
648.03	42983.94
648.17	43072.88
648.32	42607.11
648.47	43199.27
648.61	42497.11
648.76	42326.25
648.90	42639.88
649.05	42557.96
649.20	42714.78
649.34	42714.78
649.49	42373.06
649.63	43002.66
649.78	42415.19
649.92	42543.92
650.07	43213.31
650.21	42752.23
650.36	42796.70
650.51	42473.70
650.65	42653.92
650.80	42422.21
650.94	42946.49
651.09	42127.30
651.23	42293.48
651.38	42143.69
651.52	41970.49
651.67	42192.84
651.81	42176.45
651.96	42038.36
652.10	41694.30
652.25	42003.25
652.39	42150.71
652.54	42043.04
652.68	41940.06
652.83	42241.99
652.97	42124.96
653.12	41619.41
653.26	41911.97
653.41	42019.64
653.55	41605.36
653.70	41834.74
653.84	41633.45
653.99	42436.25
654.13	42005.59
654.27	41654.51
654.42	41895.59
654.56	41347.90
654.71	41759.84
654.85	41385.35
655.00	41954.10
655.14	42000.91
655.29	41883.89
655.43	41687.28
655.57	41652.17
655.72	41371.31
655.86	41455.57
656.01	41282.37
656.15	41418.12
656.30	41078.74
656.44	41486.00
656.58	41392.37
656.73	41698.98
656.87	41125.55
657.01	40849.37
657.16	41387.69
657.30	41336.20
657.45	41010.87
657.59	41050.66
657.73	41184.07
657.88	40610.64
658.02	41109.17
658.16	41497.70
658.31	41060.02
658.45	41221.52
658.60	41067.04
658.74	40811.92
658.88	41273.01
659.03	40587.23
659.17	40451.48
659.31	40779.15
659.46	40407.01
659.60	40938.31
659.74	40381.26
659.89	40409.35
660.03	40084.01
660.17	40299.34
660.32	40463.18
660.46	40076.99
660.60	39861.66
660.74	40304.02
660.89	40449.14
661.03	39662.72
661.17	39873.37
661.32	40011.46
661.46	39938.90
661.60	39840.60
661.74	40020.82
661.89	39910.82
662.03	39754.00
662.17	39402.92
662.31	39648.68
662.46	39988.05
662.60	39470.79
662.74	39505.90
662.88	38855.23
663.03	39098.65
663.17	39119.71
663.31	39299.94
663.45	39248.44
663.60	39337.38
663.74	39222.70
663.88	39395.90
664.02	38948.85
664.17	39042.48
664.31	38939.49
664.45	38981.62
664.59	39028.43
664.73	38958.22
664.88	38946.51
665.02	38632.88
665.16	38548.62
665.30	38646.93
665.44	38478.41
665.59	38139.03
665.73	38429.26
665.87	37912.00
666.01	38366.06
666.15	38375.42
666.29	38190.52
666.44	38237.33
666.58	38181.16
666.72	37804.33
666.86	38108.60
667.00	37949.45
667.14	37596.03
667.28	37848.80
667.43	37708.37
667.57	37635.81
667.71	37490.70
667.85	38064.13
667.99	38052.43
668.13	37249.63
668.27	36641.09
668.41	36982.80
668.56	36980.46
668.70	36919.61
668.84	36935.99
668.98	36882.16
669.12	36872.80
669.26	37088.13
669.40	36774.50
669.54	36891.52
669.68	36620.02
669.82	36921.95
669.96	36451.50
670.10	36371.92
670.25	36329.80
670.39	36622.36
670.53	36353.20
670.67	36821.31
670.81	36044.25
670.95	36367.24
671.09	35683.81
671.23	35814.88
671.37	35901.48
671.51	35791.47
671.65	35482.52
671.79	35981.06
671.93	35838.28
672.07	35747.00
672.21	35751.68
672.35	34955.90
672.49	35370.18
672.63	35541.03
672.77	35398.26
672.91	35332.73
673.05	35178.25
673.19	34983.99
673.33	35164.21
673.47	35246.13
673.61	34794.40
673.75	34855.26
673.89	34724.19
674.03	34448.00
674.17	34499.50
674.31	33984.58
674.45	33673.29
674.59	34178.84
674.73	34436.30
674.87	33776.27
675.01	33949.47
675.15	33097.52
675.29	33497.75
675.43	33792.65
675.56	33963.51
675.70	33511.79
675.84	33509.45
675.98	32491.32
676.12	33493.07
676.26	34127.35
676.40	33053.05
676.54	32924.32
676.68	32966.45
676.82	32018.53
676.96	33057.73
677.10	32568.55
677.23	32629.41
677.37	32893.89
677.51	32645.79
677.65	32374.29
677.79	32147.26
677.93	32283.01
678.07	32058.32
678.21	31936.61
678.34	31550.42
678.48	31924.91
678.62	31597.23
678.76	31695.53
678.90	31372.54
679.04	31213.38
679.18	31290.62
679.31	30864.64
679.45	30981.67
679.59	30696.13
679.73	30827.20
679.87	30604.84
680.00	30590.80
680.14	30438.67
680.28	30700.81
680.42	30618.89
680.56	30356.75
680.70	29949.50
680.83	30155.46
680.97	29972.90
681.11	29736.51
681.25	29439.26
681.39	29783.32
681.52	29441.60
681.66	29315.21
681.80	29137.33
681.94	29355.00
682.07	28835.40
682.21	29214.57
682.35	29184.14
682.49	29062.43
682.62	28514.75
682.76	28484.32
682.90	28591.98
683.04	28388.36
683.17	28685.61
683.31	28037.28
683.45	27878.12
683.59	27861.74
683.72	27938.97
683.86	28011.53
684.00	27913.23
684.13	27718.96
684.27	27740.03
684.41	27660.45
684.55	27505.98
684.68	27463.85
684.82	27175.96
684.96	27049.57
685.09	27157.24
685.23	27115.11
685.37	27578.53
685.50	27206.39
685.64	27108.08
685.78	26953.61
685.91	26129.74
686.05	26618.91
686.19	26015.05
686.32	26174.21
686.46	25919.09
686.60	25443.96
686.73	26153.15
686.87	25727.17
687.01	25486.09
687.14	25565.67
687.28	25261.40
687.42	25542.27
687.55	25586.74
687.69	25422.90
687.82	25116.29
687.96	25064.80
688.10	25137.35
688.23	24945.43
688.37	24957.13
688.50	24926.71
688.64	24882.24
688.78	24620.10
688.91	24383.70
689.05	24521.79
689.18	24388.38
689.32	23960.06
689.46	23529.41
689.59	24084.11
689.73	23957.72
689.86	23747.08
690.00	24159.01
690.13	24056.03
690.27	23463.87
690.41	23967.09
690.54	23234.50
690.68	23410.04
690.81	23131.51
690.95	23150.24
691.08	22857.67
691.22	22775.75
691.35	22642.34
691.49	23037.89
691.62	22628.30
691.76	22469.14
691.89	22251.47
692.03	21853.58
692.16	22005.72
692.30	21961.25
692.43	21942.52
692.57	21682.72
692.70	21671.02
692.84	21895.71
692.97	21563.36
693.11	21916.78
693.24	21263.77
693.38	21406.54
693.51	21385.47
693.65	21125.68
693.78	20889.28
693.92	21048.44
694.05	21050.78
694.19	20678.63
694.32	20648.21
694.45	20798.00
694.59	20720.76
694.72	20596.71
694.86	20247.97
694.99	20154.35
695.13	19784.55
695.26	19889.87
695.39	19714.33
695.53	20166.06
695.66	19885.19
695.80	19716.67
695.93	19882.85
696.07	19311.76
696.20	19178.35
696.33	18764.07
696.47	19119.84
696.60	19421.77
696.73	19040.26
696.87	19147.92
697.00	19037.92
697.14	18948.98
697.27	18633.00
697.40	18745.35
697.54	18689.18
697.67	18670.45
697.80	18569.81
697.94	18047.87
698.07	18216.39
698.21	18181.28
698.34	18293.63
698.47	18040.85
698.61	17635.94
698.74	17598.49
698.87	17757.64
699.01	17628.92
699.14	17479.12
699.27	17607.85
699.40	17556.36
699.54	17085.91
699.67	17291.88
699.80	17427.63
699.94	17259.11
700.07	16940.80
700.20	17003.99
700.34	17088.25
700.47	16879.94
700.60	17193.58
700.73	16795.68
700.87	16697.38
701.00	16379.07
701.13	16395.45
701.26	16201.19
701.40	16266.72
701.53	15875.85
701.66	16123.95
701.79	16248.00
701.93	15796.28
702.06	15910.96
702.19	15894.58
702.32	15903.94
702.46	15786.91
702.59	15690.95
702.72	15534.14
702.85	15527.11
702.99	15503.71
703.12	15442.85
703.25	14930.28
703.38	14993.47
703.51	14951.34
703.65	14815.59
703.78	14892.83
703.91	14691.54
704.04	14553.45
704.17	14471.53
704.31	14747.72
704.44	14700.90
704.57	14403.66
704.70	14321.74
704.83	14406.00
704.96	14153.22
705.10	14050.24
705.23	14120.45
>>>>>End Processed Spectral Data<<<<<
