SpectraSuite Data File
++++++++++++++++++++++++++++++++++++
Date: Fri Oct 25 10:43:45 EDT 2013
User: price-jones
Dark Spectrum Present: No
Reference Spectrum Present: No
Number of Sampled Component Spectra: 1
Spectrometers: USB2+H05261
Integration Time (usec): 100000 (USB2+H05261)
Spectra Averaged: 1 (USB2+H05261)
Boxcar Smoothing: 0 (USB2+H05261)
Correct for Electrical Dark: No (USB2+H05261)
Strobe/Lamp Enabled: No (USB2+H05261)
Correct for Detector Non-linearity: No (USB2+H05261)
Correct for Stray Light: No (USB2+H05261)
Number of Pixels in Processed Spectrum: 2048
>>>>>Begin Processed Spectral Data<<<<<
365.73	107.66
365.92	107.66
366.12	107.66
366.32	74.90
366.52	0.00
366.72	35.11
366.91	72.56
367.11	79.58
367.31	0.00
367.51	0.00
367.70	0.00
367.90	18.72
368.10	0.00
368.30	44.47
368.49	0.00
368.69	107.66
368.89	72.56
369.09	18.72
369.28	72.56
369.48	0.00
369.68	100.64
369.87	72.56
370.07	37.45
370.27	163.84
370.47	231.71
370.66	390.87
370.86	379.17
371.06	388.53
371.25	484.49
371.45	365.12
371.65	430.66
371.84	444.70
372.04	416.62
372.24	552.37
372.44	531.30
372.63	521.94
372.83	547.69
373.03	526.62
373.22	573.43
373.42	528.96
373.62	505.56
373.81	540.66
374.01	552.37
374.21	601.52
374.40	362.78
374.60	559.39
374.79	552.37
374.99	512.58
375.19	503.22
375.38	643.65
375.58	610.88
375.78	596.84
375.97	674.07
376.17	613.22
376.37	575.77
376.56	667.05
376.76	585.13
376.95	552.37
377.15	624.92
377.35	599.18
377.54	550.03
377.74	667.05
377.93	603.86
378.13	671.73
378.33	601.52
378.52	641.31
378.72	692.80
378.91	702.16
379.11	636.63
379.31	636.63
379.50	554.71
379.70	699.82
379.89	676.41
380.09	641.31
380.28	692.80
380.48	699.82
380.68	667.05
380.87	667.05
381.07	669.39
381.26	692.80
381.46	706.84
381.65	674.07
381.85	685.78
382.04	699.82
382.24	676.41
382.43	681.10
382.63	709.18
382.83	732.59
383.02	812.17
383.22	711.52
383.41	788.76
383.61	631.94
383.80	748.97
384.00	676.41
384.19	809.83
384.39	814.51
384.58	830.89
384.78	800.46
384.97	856.64
385.17	786.42
385.36	748.97
385.56	746.63
385.75	767.70
385.95	854.30
386.14	823.87
386.34	868.34
386.53	802.80
386.72	805.14
386.92	849.61
387.11	851.96
387.31	837.91
387.50	837.91
387.70	889.40
387.89	891.74
388.09	875.36
388.28	819.19
388.48	844.93
388.67	910.47
388.86	966.64
389.06	924.51
389.25	1015.79
389.45	973.66
389.64	952.60
389.84	1008.77
390.03	987.71
390.22	1048.56
390.42	1006.43
390.61	1004.09
390.81	1074.31
391.00	1081.33
391.19	1001.75
391.39	1050.90
391.58	1064.94
391.78	1039.20
391.97	1034.52
392.16	1015.79
392.36	994.73
392.55	1139.84
392.75	1034.52
392.94	1050.90
393.13	966.64
393.33	987.71
393.52	1013.45
393.71	1050.90
393.91	1083.67
394.10	1167.93
394.29	1043.88
394.49	1062.60
394.68	1259.21
394.88	1235.80
395.07	1224.10
395.26	1294.32
395.46	1245.16
395.65	1233.46
395.84	1196.01
396.04	1247.51
396.23	1177.29
396.42	1156.22
396.62	1196.01
396.81	1135.16
397.00	1193.67
397.19	1224.10
397.39	1235.80
397.58	1366.87
397.77	1362.19
397.97	1394.96
398.16	1357.51
398.35	1371.55
398.55	1423.05
398.74	1474.54
398.93	1591.56
399.12	1533.05
399.32	1348.15
399.51	1465.18
399.70	1694.55
399.90	1479.22
400.09	1523.69
400.28	1572.84
400.47	1511.99
400.67	1591.56
400.86	1610.29
401.05	1724.97
401.24	1739.02
401.44	1593.90
401.63	1558.80
401.82	1750.72
402.01	1724.97
402.21	1741.36
402.40	1820.94
402.59	1703.91
402.78	1657.10
402.97	1755.40
403.17	1764.76
403.36	1851.36
403.55	1788.17
403.74	1914.56
403.93	1811.57
404.13	1790.51
404.32	1827.96
404.51	1851.36
404.70	1902.86
404.89	1795.19
405.09	1989.46
405.28	1912.22
405.47	1989.46
405.66	2029.24
405.85	1916.90
406.05	2001.16
406.24	2029.24
406.43	2024.56
406.62	2087.76
406.81	2127.55
407.00	2024.56
407.20	1982.43
407.39	2036.27
407.58	2165.00
407.77	2169.68
407.96	2286.70
408.15	2253.94
408.34	2174.36
408.54	2167.34
408.73	2242.23
408.92	2251.60
409.11	2256.28
409.30	2244.57
409.49	2282.02
409.68	2260.96
409.87	2216.49
410.07	2307.77
410.26	2303.09
410.45	2434.16
410.64	2370.96
410.83	2389.69
411.02	2513.74
411.21	2544.16
411.40	2427.14
411.59	2576.93
411.78	2504.37
411.98	2588.63
412.17	2698.64
412.36	2642.46
412.55	2630.76
412.74	2597.99
412.93	2670.55
413.12	2733.75
413.31	2862.48
413.50	2935.03
413.69	2820.35
413.88	2808.64
414.07	2785.24
414.26	2925.67
414.45	3040.36
414.64	2911.63
414.83	2850.77
415.02	2920.99
415.22	3117.59
415.41	3112.91
415.60	3042.70
415.79	3176.11
415.98	3185.47
416.17	3098.87
416.36	3143.34
416.55	3148.02
416.74	3262.71
416.93	3171.43
417.12	3192.49
417.31	3274.41
417.50	3274.41
417.69	3368.03
417.88	3396.12
418.07	3433.57
418.26	3351.65
418.45	3382.07
418.64	3648.90
418.83	3478.04
419.02	3506.12
419.21	3494.42
419.39	3564.64
419.58	3461.65
419.77	3543.57
419.96	3595.06
420.15	3588.04
420.34	3646.55
420.53	3674.64
420.72	3651.24
420.91	3775.28
421.10	3794.01
421.29	3803.37
421.48	3599.74
421.67	3911.04
421.86	3798.69
422.05	3744.86
422.24	3688.68
422.43	3880.61
422.61	3896.99
422.80	3822.09
422.99	3845.50
423.18	3815.07
423.37	3981.25
423.56	3978.91
423.75	3840.82
423.94	3810.39
424.13	3592.72
424.32	3599.74
424.50	3922.74
424.69	3962.53
424.88	3943.80
425.07	3749.54
425.26	3878.27
425.45	3796.35
425.64	3864.22
425.83	3896.99
426.01	3967.21
426.20	4039.76
426.39	4016.36
426.58	3934.44
426.77	3957.85
426.96	3796.35
427.15	4016.36
427.33	3941.46
427.52	4037.42
427.71	4128.70
427.90	4135.73
428.09	4297.22
428.28	4007.00
428.46	4058.49
428.65	4114.66
428.84	4245.73
429.03	4208.28
429.22	3950.82
429.40	4093.60
429.59	4140.41
429.78	3852.52
429.97	3871.25
430.16	3948.48
430.34	4285.52
430.53	4170.83
430.72	4081.89
430.91	4170.83
431.10	4100.62
431.28	4482.13
431.47	4489.15
431.66	4578.09
431.85	4596.81
432.03	4402.55
432.22	4585.11
432.41	4566.39
432.60	4627.24
432.79	4697.46
432.97	4720.86
433.16	4674.05
433.35	4613.20
433.54	4676.39
433.72	4514.89
433.91	4676.39
434.10	4650.64
434.28	4774.69
434.47	4657.67
434.66	4795.76
434.85	4842.57
435.03	4772.35
435.22	4896.40
435.41	5006.41
435.59	4968.96
435.78	5034.49
435.97	5193.65
436.16	5121.09
436.34	4863.63
436.53	5055.56
436.72	5195.99
436.90	5158.54
437.09	5107.05
437.28	4980.66
437.46	5088.32
437.65	4971.30
437.84	5032.15
438.02	5050.88
438.21	5057.90
438.40	4957.25
438.58	5291.95
438.77	5416.00
438.96	5425.36
439.14	5516.64
439.33	5425.36
439.52	5530.69
439.70	5703.89
439.89	5680.48
440.08	5628.99
440.26	5699.20
440.45	5603.24
440.63	5844.32
440.82	5998.79
441.01	5762.40
441.19	5982.41
441.38	6012.84
441.57	6071.35
441.75	5968.37
441.94	5994.11
442.12	6188.38
442.31	6253.91
442.50	6225.82
442.68	6282.00
442.87	6221.14
443.05	6272.64
443.24	6408.39
443.43	6483.28
443.61	6480.94
443.80	6600.31
443.98	6127.52
444.17	6155.61
444.35	6380.30
444.54	6530.09
444.73	6516.05
444.91	6380.30
445.10	6424.77
445.28	6335.83
445.47	6340.51
445.65	6396.68
445.84	6392.00
446.02	6408.39
446.21	6480.94
446.39	6401.37
446.58	6600.31
446.77	6464.56
446.95	6345.19
447.14	6642.44
447.32	6640.10
447.51	6665.85
447.69	6637.76
447.88	6785.21
448.06	6675.21
448.25	6597.97
448.43	6757.13
448.62	6572.22
448.80	6722.02
448.99	6595.63
449.17	6857.77
449.36	6672.87
449.54	6810.96
449.73	6946.71
449.91	7155.02
450.10	7047.35
450.28	7119.91
450.46	7021.61
450.65	7019.27
450.83	7082.46
451.02	7112.89
451.20	7332.90
451.39	7194.81
451.57	7089.48
451.76	7246.30
451.94	7045.01
452.13	7176.08
452.31	7143.32
452.49	7014.59
452.68	7007.56
452.86	7007.56
453.05	7073.10
453.23	7157.36
453.42	7143.32
453.60	7201.83
453.78	7304.81
453.97	7342.26
454.15	7332.90
454.34	7232.26
454.52	7489.71
454.70	7424.18
454.89	7513.12
455.07	7307.15
455.26	7456.95
455.44	7709.72
455.62	7613.76
455.81	7534.18
455.99	7522.48
456.17	7840.79
456.36	7763.56
456.54	7833.77
456.73	7882.92
456.91	8098.25
457.09	8018.68
457.28	8168.47
457.46	7770.58
457.64	8025.70
457.83	7964.84
458.01	7971.86
458.19	8067.83
458.38	8100.59
458.56	8112.30
458.74	8105.28
458.93	8114.64
459.11	8152.09
459.29	8276.13
459.48	8191.88
459.66	8191.88
459.84	8187.19
460.03	8557.00
460.21	8435.29
460.39	8437.63
460.57	8339.33
460.76	8475.08
460.94	8454.02
461.12	8475.08
461.31	8557.00
461.49	8561.68
461.67	8484.44
461.85	8858.93
462.04	8678.71
462.22	9142.13
462.40	8692.75
462.59	8826.16
462.77	8760.63
462.95	8961.91
463.13	8950.21
463.32	8940.85
463.50	8950.21
463.68	8683.39
463.86	9142.13
464.05	8683.39
464.23	8858.93
464.41	8954.89
464.59	8882.33
464.78	9069.58
464.96	9067.24
465.14	9050.85
465.32	9048.51
465.50	9247.46
465.69	9128.09
465.87	8992.34
466.05	9128.09
466.23	8982.98
466.41	9034.47
466.60	9366.82
466.78	9036.81
466.96	9083.62
467.14	9277.88
467.32	9399.59
467.51	9249.80
467.69	9139.79
467.87	9247.46
468.05	9467.47
468.23	9357.46
468.41	9303.63
468.60	9179.58
468.78	9490.87
468.96	9312.99
469.14	9593.86
469.32	9540.02
469.50	9420.66
469.69	9533.00
469.87	9572.79
470.05	9755.35
470.23	9848.97
470.41	9633.64
470.59	9710.88
470.77	9540.02
470.95	9811.53
471.14	9848.97
471.32	9858.34
471.50	10274.95
471.68	10218.78
471.86	10256.23
472.04	10359.21
472.22	10597.95
472.40	10076.01
472.58	10406.02
472.77	10335.81
472.95	10281.97
473.13	10824.98
473.31	10305.38
473.49	10361.55
473.67	10672.84
473.85	10661.14
474.03	10651.78
474.21	10846.04
474.39	10876.47
474.57	10958.39
474.75	10993.50
474.93	11276.70
475.12	11220.53
475.30	11185.42
475.48	10981.79
475.66	11164.36
475.84	11147.97
476.02	11325.85
476.20	11421.81
476.38	11265.00
476.56	11754.17
476.74	11742.47
476.92	11688.64
477.10	11850.13
477.28	11850.13
477.46	12013.97
477.64	11992.90
477.82	12079.50
478.00	12369.73
478.18	12294.83
478.36	12388.46
478.54	12526.55
478.72	12657.62
478.90	12695.07
479.08	12709.11
479.26	12966.57
479.44	13036.78
479.62	13095.30
479.80	12844.86
479.98	13256.79
480.16	13877.04
480.34	13291.90
480.52	13465.10
480.70	13635.96
480.88	13434.68
481.06	13549.36
481.24	13638.30
481.41	14047.90
481.59	14183.65
481.77	14115.77
481.95	14431.74
482.13	14558.13
482.31	14263.22
482.49	14593.24
482.67	14604.94
482.85	14696.22
483.03	14925.60
483.21	15173.69
483.39	15262.63
483.57	15054.33
483.74	15389.02
483.92	15541.16
484.10	15183.06
484.28	15466.26
484.46	15957.77
484.64	16411.84
484.82	15826.70
485.00	15789.25
485.18	15995.22
485.35	16482.05
485.53	15978.84
485.71	15899.26
485.89	16173.10
486.07	16341.62
486.25	16519.50
486.43	16589.72
486.61	16659.93
486.78	16819.09
486.96	17554.02
487.14	17329.33
487.32	17657.00
487.50	17635.94
487.68	18068.94
487.85	18022.12
488.03	18202.35
488.21	18590.88
488.39	18567.47
488.57	18799.18
488.75	18265.54
488.92	18642.37
489.10	19042.60
489.28	19152.60
489.46	19447.51
489.64	19435.81
489.81	19651.14
489.99	19822.00
490.17	20098.18
490.35	20084.14
490.53	20079.46
490.70	20149.67
490.88	20229.25
491.06	20596.71
491.24	20531.18
491.41	20524.16
491.59	20664.59
491.77	20891.62
491.95	21020.35
492.13	21135.04
492.30	21486.12
492.48	21369.09
492.66	21804.43
492.84	21490.80
493.01	21745.92
493.19	21755.28
493.37	22045.51
493.54	22286.58
493.72	22525.32
493.90	22328.71
494.08	22691.49
494.25	22654.05
494.43	23246.20
494.61	23269.61
494.79	23297.69
494.96	23108.11
495.14	23288.33
495.32	23742.39
495.49	23400.68
495.67	23564.51
495.85	23491.96
496.02	23730.69
496.20	23922.62
496.38	24018.58
496.55	24041.98
496.73	24734.78
496.91	24592.01
497.09	24690.31
497.26	24847.13
497.44	24877.55
497.62	25170.12
497.79	25214.59
497.97	24907.98
498.14	25003.94
498.32	25460.35
498.50	25645.25
498.67	25525.88
498.85	25603.12
499.03	26183.57
499.20	26162.51
499.38	26225.70
499.56	26204.64
499.73	26045.48
499.91	26534.65
500.08	26483.16
500.26	26101.65
500.44	26518.27
500.61	26284.22
500.79	26487.84
500.97	26647.00
501.14	27129.15
501.32	27023.83
501.49	26953.61
501.67	26609.55
501.84	26888.07
502.02	27222.77
502.20	27592.58
502.37	27735.35
502.55	27470.87
502.72	27936.63
502.90	27934.29
503.07	27658.11
503.25	27894.50
503.43	27653.43
503.60	27983.44
503.78	27803.22
503.95	27653.43
504.13	28034.94
504.30	28346.23
504.48	28622.41
504.65	28496.02
504.83	29013.28
505.01	28648.16
505.18	28814.34
505.36	29207.55
505.53	29366.70
505.71	29422.87
505.88	29111.58
506.06	29525.86
506.23	29420.53
506.41	29233.29
506.58	29488.41
506.76	29862.90
506.93	29890.98
507.11	29926.09
507.28	29970.56
507.46	30274.83
507.63	29355.00
507.81	29860.55
507.98	29898.00
508.16	29944.81
508.33	30319.30
508.50	30326.32
508.68	30499.52
508.85	30864.64
509.03	30698.47
509.20	30930.18
509.38	30836.56
509.55	31051.89
509.73	31295.30
509.90	31166.57
510.08	31075.29
510.25	30878.69
510.42	31283.60
510.60	31634.68
510.77	31648.72
510.95	31409.99
511.12	31321.05
511.30	32081.72
511.47	31859.37
511.64	32297.05
511.82	31920.23
511.99	31557.44
512.17	32208.11
512.34	32063.00
512.51	32542.81
512.69	32336.84
512.86	32423.44
513.04	32620.05
513.21	33383.06
513.38	32631.75
513.56	32582.60
513.73	32400.04
513.90	32678.56
514.08	32458.55
514.25	32622.39
514.43	32898.57
514.60	33502.43
514.77	33291.78
514.95	33071.77
515.12	32926.66
515.29	33275.40
515.47	33577.33
515.64	33680.31
515.81	33474.34
515.99	33741.16
516.16	33273.06
516.33	33263.69
516.51	33560.94
516.68	33303.48
516.85	32589.62
517.03	33141.99
517.20	33809.04
517.37	34270.12
517.54	33970.54
517.72	33811.38
517.89	34071.18
518.06	33455.62
518.24	33855.85
518.41	34134.37
518.58	34572.05
518.75	34295.87
518.93	34476.09
519.10	34199.91
519.27	34553.33
519.45	34611.84
519.62	35117.40
519.79	35112.72
519.96	35119.74
520.14	35332.73
520.31	34665.67
520.48	35037.82
520.65	35206.34
520.83	35445.07
521.00	35306.98
521.17	35416.99
521.34	35749.34
521.52	35913.18
521.69	36151.91
521.86	35756.36
522.03	36067.66
522.20	36130.85
522.38	36058.29
522.55	36011.48
522.72	35927.22
522.89	35852.33
523.07	36889.18
523.24	36374.27
523.41	36779.18
523.58	36542.78
523.75	36961.74
523.92	36865.78
524.10	37015.57
524.27	37024.93
524.44	37109.19
524.61	37467.30
524.78	37067.06
524.96	37319.84
525.13	37017.91
525.30	37860.51
525.47	37696.67
525.64	36933.65
525.81	37504.74
525.98	37198.13
526.16	36849.39
526.33	36760.45
526.50	37158.34
526.67	37003.87
526.84	37001.53
527.01	37181.75
527.18	37605.39
527.36	37837.10
527.53	38281.80
527.70	38431.60
527.87	37975.19
528.04	37956.47
528.21	37993.92
528.38	38005.62
528.55	38691.40
528.72	38429.26
528.89	38520.54
529.07	38391.81
529.24	38429.26
529.41	38504.15
529.58	38600.12
529.75	38389.47
529.92	38515.86
530.09	38883.32
530.26	38794.38
530.43	38499.47
530.60	38487.77
530.77	39171.21
530.94	39140.78
531.11	38845.87
531.28	39400.58
531.46	39482.50
531.63	39112.69
531.80	39508.24
531.97	39199.29
532.14	39035.45
532.31	38789.70
532.48	39157.16
532.65	39524.63
532.82	39662.72
532.99	39292.91
533.16	39360.79
533.33	39529.31
533.50	39419.30
533.67	39445.05
533.84	39077.58
534.01	40112.10
534.18	39695.49
534.35	40673.83
534.52	40053.59
534.69	39826.56
534.86	40556.80
535.03	40172.96
535.20	40521.69
535.37	40467.86
535.54	40570.85
535.71	40318.07
535.88	40598.93
536.05	40355.52
536.22	40418.71
536.38	40491.27
536.55	40556.80
536.72	40701.92
536.89	40170.61
537.06	40563.82
537.23	41043.63
537.40	40685.53
537.57	40671.49
537.74	40982.78
537.91	40655.11
538.08	40975.76
538.25	40460.84
538.42	40718.30
538.59	41235.56
538.75	40753.41
538.92	40992.14
539.09	41088.10
539.26	40957.03
539.43	41287.05
539.60	41207.47
539.77	40957.03
539.94	40942.99
540.11	41258.96
540.28	41296.41
540.44	41029.59
540.61	41263.64
540.78	41263.64
540.95	41523.44
541.12	41212.15
541.29	41628.77
541.46	41649.83
541.62	41911.97
541.79	41701.32
541.96	41518.76
542.13	41752.82
542.30	41703.67
542.47	42071.13
542.63	41874.52
542.80	41825.37
542.97	42464.34
543.14	42813.08
543.31	42251.35
543.48	42525.19
543.64	42396.46
543.81	41977.51
543.98	42223.26
544.15	42419.87
544.32	42630.52
544.48	42997.98
544.65	43000.32
544.82	42738.18
544.99	42651.58
545.16	42808.40
545.32	42174.11
545.49	43075.22
545.66	42965.21
545.83	43180.54
546.00	42869.25
546.16	42777.97
546.33	42712.44
546.50	42515.83
546.67	42946.49
546.83	42569.66
547.00	43316.29
547.17	43178.20
547.34	42850.53
547.50	43339.70
547.67	43466.09
547.84	43077.56
548.00	43489.49
548.17	43592.48
548.34	43672.06
548.51	43950.58
548.67	43742.27
548.84	43922.49
549.01	43164.16
549.18	43580.78
549.34	43814.83
549.51	43604.18
549.68	43665.03
549.84	43929.51
550.01	44039.52
550.18	43566.73
550.34	43653.33
550.51	44053.56
550.68	43810.15
550.84	43217.99
551.01	44088.67
551.18	43789.08
551.34	43585.46
551.51	44067.61
551.68	43849.94
551.84	44329.75
552.01	43889.73
552.18	43777.38
552.34	43789.08
552.51	44516.99
552.68	43929.51
552.84	43995.05
553.01	44044.20
553.18	44673.81
553.34	44238.47
553.51	43807.81
553.67	44280.60
553.84	44210.38
554.01	44758.06
554.17	44109.74
554.34	44437.41
554.51	44790.83
554.67	44561.46
554.84	44053.56
555.00	44165.91
555.17	44048.88
555.33	44718.28
555.50	44421.03
555.67	44547.42
555.83	44294.64
556.00	44516.99
556.16	44631.68
556.33	44343.79
556.50	44673.81
556.66	44877.43
556.83	44598.91
556.99	45081.06
557.16	44856.37
557.32	44809.56
557.49	44751.04
557.65	44659.76
557.82	44615.29
557.98	44912.54
558.15	44828.28
558.32	45256.60
558.48	44776.79
558.65	44540.39
558.81	44641.04
558.98	44872.75
559.14	45102.12
559.31	44940.63
559.47	45022.54
559.64	45298.73
559.80	45167.66
559.97	44978.07
560.13	44996.80
560.30	44837.64
560.46	44872.75
560.63	45656.83
560.79	45165.32
560.96	45184.04
561.12	44856.37
561.29	44762.75
561.45	45034.25
561.61	45144.25
561.78	45165.32
561.94	45315.11
562.11	45123.19
562.27	45387.67
562.44	45148.93
562.60	45521.08
562.77	45471.93
562.93	45345.54
563.10	45570.23
563.26	45141.91
563.42	45324.47
563.59	44889.13
563.75	45425.12
563.92	45757.47
564.08	45289.37
564.24	45483.63
564.41	45123.19
564.57	45198.09
564.74	45350.22
564.90	45195.74
565.07	45406.39
565.23	45504.70
565.39	45382.99
565.56	45593.64
565.72	45003.82
565.88	45626.40
566.05	45710.66
566.21	45263.62
566.38	45289.37
566.54	45687.26
566.70	45776.20
566.87	45696.62
567.03	45319.79
567.19	45961.10
567.36	45918.97
567.52	45530.44
567.68	45546.82
567.85	45333.84
568.01	45371.28
568.17	45631.08
568.34	45855.78
568.50	45172.34
568.66	45638.11
568.83	45317.45
568.99	45504.70
569.15	45219.15
569.32	45705.98
569.48	45425.12
569.64	45998.55
569.81	46181.11
569.97	45612.36
570.13	45916.63
570.30	45378.31
570.46	45691.94
570.62	45598.32
570.78	45315.11
570.95	45254.26
571.11	45563.21
571.27	45607.68
571.43	45483.63
571.60	45654.49
571.76	45425.12
571.92	45717.68
572.09	45947.06
572.25	45315.11
572.41	46131.96
572.57	45883.86
572.74	45961.10
572.90	45443.84
573.06	45708.32
573.22	46169.41
573.38	45773.86
573.55	45380.65
573.71	45947.06
573.87	45481.29
574.03	45851.09
574.20	45490.65
574.36	45734.07
574.52	46108.55
574.68	45579.59
574.84	45886.20
575.01	46026.63
575.17	45586.61
575.33	45558.53
575.49	45961.10
575.65	45993.87
575.82	45830.03
575.98	45560.87
576.14	46043.02
576.30	45951.74
576.46	45673.21
576.62	45949.40
576.79	46014.93
576.95	45827.69
577.11	45928.33
577.27	45696.62
577.43	45883.86
577.59	45422.78
577.75	45408.73
577.92	45380.65
578.08	45226.17
578.24	45247.24
578.40	45612.36
578.56	45780.88
578.72	45790.24
578.88	45947.06
579.04	46391.76
579.21	45841.73
579.37	45855.78
579.53	45897.91
579.69	45560.87
579.85	45954.08
580.01	46052.38
580.17	46050.04
580.33	45986.85
580.49	46241.96
580.65	45876.84
580.82	45855.78
580.98	45979.82
581.14	45467.25
581.30	46080.47
581.46	45876.84
581.62	46195.15
581.78	45614.70
581.94	46078.13
582.10	46012.59
582.26	46387.08
582.42	45752.79
582.58	46146.00
582.74	45649.81
582.90	45851.09
583.06	45911.95
583.22	46087.49
583.38	46286.43
583.54	45876.84
583.70	45799.60
583.86	46225.58
584.02	45785.56
584.18	46117.92
584.34	45804.28
584.50	46164.73
584.66	45530.44
584.82	45680.24
584.98	45743.43
585.14	46050.04
585.30	46087.49
585.46	45886.20
585.62	45214.47
585.78	45940.04
585.94	45258.94
586.10	45572.57
586.26	45799.60
586.42	45937.69
586.58	46363.67
586.74	45989.19
586.90	45853.44
587.06	45748.11
587.22	46183.45
587.38	45911.95
587.54	45759.81
587.70	46202.18
587.86	46143.66
588.02	45893.22
588.18	45923.65
588.34	45956.42
588.49	45661.51
588.65	45626.40
588.81	45670.87
588.97	45659.17
589.13	45500.01
589.29	45818.33
589.45	46237.28
589.61	45862.80
589.77	45801.94
589.93	46335.59
590.08	46052.38
590.24	46148.34
590.40	46426.87
590.56	46361.33
590.72	46033.66
590.88	46234.94
591.04	46270.05
591.20	46412.82
591.35	46401.12
591.51	46469.00
591.67	46061.74
591.83	45755.13
591.99	45853.44
592.15	46415.16
592.31	46197.49
592.46	46527.51
592.62	45993.87
592.78	46216.22
592.94	45991.53
593.10	46258.35
593.26	46260.69
593.41	45881.52
593.57	46225.58
593.73	45895.56
593.89	46010.25
594.05	45979.82
594.20	45839.39
594.36	46110.89
594.52	46019.61
594.68	45925.99
594.84	45879.18
594.99	46471.34
595.15	45720.02
595.31	46028.98
595.47	45923.65
595.62	46202.18
595.78	46316.86
595.94	46501.76
596.10	46106.21
596.25	46038.34
596.41	46263.03
596.57	46370.69
596.73	45904.93
596.88	46351.97
597.04	46092.17
597.20	46082.81
597.36	46464.32
597.51	46534.53
597.67	46476.02
597.83	46258.35
597.99	46651.56
598.14	46092.17
598.30	45893.22
598.46	46057.06
598.61	46169.41
598.77	45911.95
598.93	46024.29
599.09	46373.03
599.24	46384.74
599.40	46211.54
599.56	46267.71
599.71	45998.55
599.87	46398.78
600.03	46316.86
600.18	46078.13
600.34	46019.61
600.50	45993.87
600.65	45851.09
600.81	46199.83
600.97	46433.89
601.12	46469.00
601.28	46452.61
601.44	46333.24
601.59	45970.46
601.75	46115.58
601.91	45933.01
602.06	46103.87
602.22	46209.20
602.37	46436.23
602.53	45989.19
602.69	46670.28
602.84	45343.20
603.00	46216.22
603.16	45942.38
603.31	46117.92
603.47	46464.32
603.62	46176.43
603.78	46213.88
603.94	46106.21
604.09	46293.46
604.25	45993.87
604.40	46232.60
604.56	45904.93
604.71	46440.91
604.87	46059.40
605.03	46089.83
605.18	45872.16
605.34	45818.33
605.49	45909.61
605.65	45785.56
605.80	45736.41
605.96	45991.53
606.12	45762.15
606.27	46138.98
606.43	45968.12
606.58	45434.48
606.74	46014.93
606.89	45858.12
607.05	46014.93
607.20	46326.22
607.36	45684.92
607.51	45996.21
607.67	45865.14
607.82	46050.04
607.98	45907.27
608.13	45928.33
608.29	45705.98
608.44	45797.26
608.60	45343.20
608.75	45743.43
608.91	45975.14
609.06	45801.94
609.22	45820.67
609.37	45198.09
609.53	45780.88
609.68	45867.48
609.84	45542.14
609.99	45778.54
610.15	45092.76
610.30	45624.06
610.46	45476.61
610.61	45504.70
610.76	45624.06
610.92	45677.90
611.07	45291.71
611.23	45387.67
611.38	45509.38
611.54	45422.78
611.69	45195.74
611.84	45045.95
612.00	45165.32
612.15	45195.74
612.31	45338.52
612.46	45144.25
612.62	45375.97
612.77	45448.52
612.92	45420.44
613.08	45310.43
613.23	45212.13
613.39	45209.79
613.54	44772.11
613.69	45137.23
613.85	45172.34
614.00	45322.13
614.15	45256.60
614.31	45125.53
614.46	45146.59
614.62	44839.98
614.77	45177.02
614.92	44683.17
615.08	45090.42
615.23	44952.33
615.38	44608.27
615.54	44437.41
615.69	44713.59
615.84	44502.95
616.00	44900.84
616.15	44526.35
616.30	44917.22
616.46	44612.95
616.61	44425.71
616.76	44917.22
616.92	44458.48
617.07	44715.93
617.22	44563.80
617.37	44601.25
617.53	44678.49
617.68	44626.99
617.83	44474.86
617.99	44601.25
618.14	44245.49
618.29	44168.25
618.45	43840.57
618.60	44128.46
618.75	43955.26
618.90	44083.99
619.06	44275.91
619.21	44048.88
619.36	44657.42
619.51	43917.81
619.67	43796.10
619.82	44423.37
619.97	44575.50
620.12	44006.75
620.28	44177.61
620.43	43693.12
620.58	44313.36
620.73	44289.96
620.89	43861.64
621.04	43945.90
621.19	44313.36
621.34	44011.43
621.49	43892.07
621.65	43618.22
621.80	43957.60
621.95	43786.74
622.10	44184.63
622.25	43892.07
622.41	43782.06
622.56	43482.47
622.71	43814.83
622.86	43779.72
623.01	43632.27
623.16	43688.44
623.32	43756.32
623.47	43463.75
623.62	43566.73
623.77	43166.50
623.92	43627.59
624.07	43161.82
624.23	43498.86
624.38	43402.89
624.53	43548.01
624.68	43627.59
624.83	43096.28
624.98	43442.68
625.13	43306.93
625.29	43096.28
625.44	42787.33
625.59	42871.59
625.74	42614.13
625.89	42539.24
626.04	43000.32
626.19	42808.40
626.34	43449.70
626.49	43398.21
626.65	43285.87
626.80	42677.33
626.95	42759.25
627.10	42787.33
627.25	43192.25
627.40	42232.63
627.55	42288.80
627.70	42511.15
627.85	42670.31
628.00	42518.17
628.15	42948.83
628.30	42848.19
628.45	42564.98
628.60	42515.83
628.76	42899.68
628.91	43054.15
629.06	42665.63
629.21	42305.18
629.36	42192.84
629.51	42155.39
629.66	42113.26
629.81	41851.12
629.96	42712.44
630.11	42293.48
630.26	42784.99
630.41	42508.81
630.56	42117.94
630.71	42075.81
630.86	42071.13
631.01	42291.14
631.16	42356.67
631.31	41518.76
631.46	42043.04
631.61	42169.43
631.76	41743.45
631.91	42375.40
632.06	41942.40
632.21	42426.89
632.36	42139.00
632.51	41584.30
632.66	41532.81
632.81	41474.29
632.96	41755.16
633.10	41698.98
633.25	42021.98
633.40	42087.51
633.55	41834.74
633.70	41401.74
633.85	41755.16
634.00	42024.32
634.15	41823.03
634.30	41502.38
634.45	41195.77
634.60	41310.46
634.75	41340.88
634.90	40966.40
635.05	41619.41
635.19	41406.42
635.34	41467.27
635.49	41427.48
635.64	41282.37
635.79	41280.03
635.94	41104.49
636.09	41022.57
636.24	40502.97
636.39	40905.54
636.53	41256.62
636.68	40711.28
636.83	40814.26
636.98	41146.62
637.13	40797.88
637.28	40942.99
637.43	41476.63
637.57	41022.57
637.72	40865.75
637.87	41027.25
638.02	40982.78
638.17	40935.97
638.32	40559.14
638.46	40811.92
638.61	40549.78
638.76	40407.01
638.91	40634.04
639.06	40921.93
639.20	40985.12
639.35	41134.92
639.50	40133.17
639.65	41034.27
639.80	40914.90
639.94	40641.06
640.09	40542.76
640.24	40072.31
640.39	40484.25
640.54	40437.44
640.68	40168.27
640.83	40416.37
640.98	39824.22
641.13	40233.81
641.27	40521.69
641.42	40137.85
641.57	40650.42
641.72	40016.14
641.86	40149.55
642.01	40158.91
642.16	39679.10
642.31	39627.61
642.45	40140.19
642.60	39899.11
642.75	40596.59
642.90	40250.19
643.04	40121.46
643.19	39772.72
643.34	39831.24
643.48	39714.21
643.63	39793.79
643.78	39749.32
643.93	40039.54
644.07	39550.37
644.22	39473.13
644.37	39299.94
644.51	39599.52
644.66	39845.28
644.81	39948.26
644.95	39784.43
645.10	39332.70
645.25	39924.86
645.39	39377.17
645.54	39971.67
645.69	39601.86
645.83	38932.47
645.98	39260.15
646.13	39232.06
646.27	39278.87
646.42	39133.76
646.57	39175.89
646.71	39124.40
646.86	39105.67
647.00	39138.44
647.15	39232.06
647.30	39033.11
647.44	39131.42
647.59	39203.97
647.74	39250.78
647.88	38754.59
648.03	38803.74
648.17	39166.52
648.32	38939.49
648.47	38815.44
648.61	38785.02
648.76	39093.97
648.90	38969.92
649.05	38778.00
649.20	39117.37
649.34	38579.05
649.49	38560.33
649.63	38733.53
649.78	38983.96
649.92	38869.28
650.07	38623.52
650.21	39159.50
650.36	39005.03
650.51	38637.56
650.65	39428.66
650.80	39096.31
650.94	38712.46
651.09	38707.78
651.23	38106.26
651.38	38478.41
651.52	38745.23
651.67	37722.41
651.81	38256.06
651.96	38515.86
652.10	38691.40
652.25	38621.18
652.39	38277.12
652.54	38698.42
652.68	38157.75
652.83	38136.69
652.97	38506.49
653.12	38644.59
653.26	38103.92
653.41	37930.72
653.55	38213.93
653.70	38244.35
653.84	38007.96
653.99	38073.49
654.13	38071.15
654.27	38014.98
654.42	37893.27
654.56	37827.74
654.71	38115.62
654.85	37450.91
655.00	38174.14
655.14	37652.20
655.29	37766.88
655.43	37469.64
655.57	37006.21
655.72	37099.83
655.86	37198.13
656.01	37301.12
656.15	37216.86
656.30	37202.82
656.44	37446.23
656.58	37181.75
656.73	37329.20
656.87	37160.69
657.01	36795.56
657.16	36896.20
657.30	36655.13
657.45	36687.90
657.59	37090.47
657.73	37092.81
657.88	37706.03
658.02	37301.12
658.16	37200.47
658.31	37462.61
658.45	37315.16
658.60	37504.74
658.74	37661.56
658.88	36992.17
659.03	37034.30
659.17	36725.35
659.31	36648.11
659.46	36734.71
659.60	36758.11
659.74	36893.86
659.89	36456.18
660.03	36584.91
660.17	36900.89
660.32	36409.37
660.46	36533.42
660.60	36320.43
660.74	36418.74
660.89	36907.91
661.03	36273.62
661.17	36364.90
661.32	36184.68
661.46	36378.95
661.60	35805.52
661.74	36290.01
661.89	36156.60
662.03	36332.14
662.17	35945.95
662.31	36224.47
662.46	36662.15
662.60	36299.37
662.74	35814.88
662.88	35931.90
663.03	35522.31
663.17	35363.15
663.31	35498.91
663.45	35580.82
663.60	36006.80
663.74	35374.86
663.88	35152.51
664.02	35257.83
664.17	35402.94
664.31	35150.17
664.45	35416.99
664.59	34684.40
664.73	35559.76
664.88	35178.25
665.02	34714.83
665.16	35016.75
665.30	34553.33
665.44	34995.69
665.59	34611.84
665.73	34869.30
665.87	34506.52
666.01	34396.51
666.15	34590.78
666.29	34920.79
666.44	34394.17
666.58	34417.58
666.72	34464.39
666.86	34958.24
667.00	34452.69
667.14	34401.19
667.28	34349.70
667.43	34040.75
667.57	34169.48
667.71	34237.36
667.85	34391.83
667.99	34101.61
668.13	34298.21
668.27	34036.07
668.41	34340.34
668.56	33544.56
668.70	33785.63
668.84	33750.52
668.98	33425.19
669.12	33116.24
669.26	33638.18
669.40	32994.53
669.54	33235.61
669.68	32634.09
669.82	32938.36
669.96	32804.95
670.10	32727.71
670.25	33280.08
670.39	32788.56
670.53	32748.78
670.67	32503.02
670.81	32861.12
670.95	32933.68
671.09	32671.54
671.23	32559.19
671.37	32559.19
671.51	32577.92
671.65	32140.24
671.79	32168.32
671.93	32371.95
672.07	32198.75
672.21	32283.01
672.35	32215.13
672.49	32432.80
672.63	32217.47
672.77	32046.62
672.91	31814.90
673.05	31709.58
673.19	32079.38
673.33	31398.29
673.47	31557.44
673.61	31615.96
673.75	31342.11
673.89	31283.60
674.03	31077.63
674.17	31482.55
674.31	31072.95
674.45	31246.15
674.59	31562.12
674.73	31201.68
674.87	31213.38
675.01	30984.01
675.15	30946.56
675.29	30799.11
675.43	30932.52
675.56	30539.31
675.70	30698.47
675.84	30536.97
675.98	30078.22
676.12	30349.73
676.26	30581.44
676.40	30225.68
676.54	30373.13
676.68	29984.60
676.82	29649.91
676.96	29556.28
677.10	29834.81
677.23	30038.44
677.37	29558.63
677.51	29811.40
677.65	29170.10
677.79	29287.12
677.93	29074.13
678.07	28744.12
678.21	28629.43
678.34	28584.96
678.48	29046.05
678.62	28657.52
678.76	28383.68
678.90	28514.75
679.04	28439.85
679.18	28315.80
679.31	28121.54
679.45	27850.03
679.59	27873.44
679.73	28034.94
679.87	28034.94
680.00	27798.54
680.14	27903.87
680.28	27892.16
680.42	27608.96
680.56	27620.66
680.70	27510.66
680.83	27688.54
680.97	27009.78
681.11	27407.67
681.25	27211.07
681.39	27061.27
681.52	27253.20
681.66	27124.47
681.80	26738.28
681.94	26441.03
682.07	26813.18
682.21	26480.82
682.35	26490.18
682.49	26726.58
682.62	26300.60
682.76	25944.84
682.90	25867.60
683.04	26113.36
683.17	25963.56
683.31	25692.06
683.45	25741.21
683.59	25731.85
683.72	25715.47
683.86	25631.21
684.00	25521.20
684.13	25207.57
684.27	25048.41
684.41	25167.78
684.55	24989.90
684.68	24826.06
684.82	24945.43
684.96	24807.34
685.09	24517.11
685.23	24608.39
685.37	25022.67
685.50	24603.71
685.64	24671.59
685.78	24383.70
685.91	24299.44
686.05	24072.41
686.19	23859.42
686.32	23903.89
686.46	23508.34
686.60	23461.53
686.73	23094.07
686.87	23445.15
687.01	23396.00
687.14	23285.99
687.28	22916.19
687.42	22967.68
687.55	23197.05
687.69	22991.08
687.82	22939.59
687.96	22787.46
688.10	22607.23
688.23	22644.68
688.37	22618.94
688.50	22375.52
688.64	22361.48
688.78	22134.45
688.91	22361.48
689.05	22225.73
689.18	22115.72
689.32	21797.41
689.46	21986.99
689.59	22171.89
689.73	21891.03
689.86	21844.22
690.00	21479.10
690.13	21989.33
690.27	21343.35
690.41	21479.10
690.54	21469.73
690.68	20936.09
690.81	21568.04
690.95	21209.93
691.08	21137.38
691.22	21172.49
691.35	21139.72
691.49	21060.14
691.62	20830.77
691.76	20893.96
691.89	20828.43
692.03	20456.28
692.16	20599.05
692.30	20100.52
692.43	20407.13
692.57	19824.34
692.70	20226.91
692.84	20152.01
692.97	19936.68
693.11	19798.59
693.24	19990.52
693.38	19665.18
693.51	19571.56
693.65	19674.54
693.78	19407.72
693.92	19208.78
694.05	19026.21
694.19	19115.16
694.32	19370.27
694.45	19206.44
694.59	19194.73
694.72	19101.11
694.86	18897.49
694.99	18534.70
695.13	18925.57
695.26	18436.40
695.39	18583.85
695.53	18735.99
695.66	18850.67
695.80	18640.03
695.93	18424.70
696.07	18148.51
696.20	18029.15
696.33	17996.38
696.47	18218.73
696.60	17994.04
696.73	17689.77
696.87	17830.20
697.00	17525.93
697.14	17301.24
697.27	17151.45
697.40	17446.35
697.54	17137.40
697.67	17144.42
697.80	17474.44
697.94	17130.38
698.07	16959.52
698.21	16957.18
698.34	17151.45
698.47	17453.37
698.61	16713.77
698.74	16877.60
698.87	16795.68
699.01	16580.36
699.14	16358.00
699.27	16322.90
699.40	16217.57
699.54	16114.59
699.67	16149.70
699.80	16222.25
699.94	16133.31
700.07	16196.51
700.20	15976.50
700.34	16025.65
700.47	15845.43
700.60	15829.04
700.73	15981.18
700.87	15709.68
701.00	15674.57
701.13	15477.96
701.26	15566.90
701.40	15115.18
701.53	15229.87
701.66	15201.78
701.79	14974.75
701.93	15089.43
702.06	14459.83
702.19	14792.19
702.32	14890.49
702.46	14883.47
702.59	14890.49
702.72	14874.10
702.85	14719.63
702.99	14913.89
703.12	14520.68
703.25	14569.83
703.38	14073.64
703.51	14267.91
703.65	14359.19
703.78	14279.61
703.91	14026.83
704.04	14031.51
704.17	13729.58
704.31	13928.53
704.44	13874.70
704.57	13689.79
704.70	13724.90
704.83	13446.38
704.96	13767.03
705.10	13500.21
705.23	13603.19
>>>>>End Processed Spectral Data<<<<<
