SpectraSuite Data File
++++++++++++++++++++++++++++++++++++
Date: Fri Oct 25 10:43:37 EDT 2013
User: price-jones
Dark Spectrum Present: No
Reference Spectrum Present: No
Number of Sampled Component Spectra: 1
Spectrometers: USB2+H05261
Integration Time (usec): 100000 (USB2+H05261)
Spectra Averaged: 1 (USB2+H05261)
Boxcar Smoothing: 0 (USB2+H05261)
Correct for Electrical Dark: No (USB2+H05261)
Strobe/Lamp Enabled: No (USB2+H05261)
Correct for Detector Non-linearity: No (USB2+H05261)
Correct for Stray Light: No (USB2+H05261)
Number of Pixels in Processed Spectrum: 2048
>>>>>Begin Processed Spectral Data<<<<<
365.73	147.45
365.92	147.45
366.12	147.45
366.32	98.30
366.52	0.00
366.72	46.81
366.91	39.79
367.11	0.00
367.31	0.00
367.51	28.09
367.70	0.00
367.90	0.00
368.10	0.00
368.30	51.49
368.49	25.75
368.69	63.19
368.89	49.15
369.09	56.17
369.28	128.73
369.48	65.54
369.68	128.73
369.87	65.54
370.07	112.35
370.27	131.07
370.47	135.75
370.66	355.76
370.86	388.53
371.06	491.51
371.25	486.83
371.45	479.81
371.65	521.94
371.84	451.72
372.04	564.07
372.24	543.00
372.44	512.58
372.63	535.98
372.83	557.05
373.03	521.94
373.22	475.13
373.42	545.34
373.62	461.09
373.81	468.11
374.01	568.75
374.21	580.45
374.40	538.32
374.60	582.79
374.79	634.29
374.99	503.22
375.19	608.54
375.38	636.63
375.58	606.20
375.78	636.63
375.97	601.52
376.17	620.24
376.37	573.43
376.56	620.24
376.76	657.69
376.95	601.52
377.15	578.11
377.35	648.33
377.54	655.35
377.74	648.33
377.93	690.46
378.13	667.05
378.33	716.20
378.52	650.67
378.72	709.18
378.91	741.95
379.11	653.01
379.31	713.86
379.50	702.16
379.70	662.37
379.89	688.12
380.09	669.39
380.28	676.41
380.48	638.97
380.68	699.82
380.87	678.76
381.07	671.73
381.26	748.97
381.46	795.78
381.65	692.80
381.85	720.88
382.04	777.06
382.24	685.78
382.43	702.16
382.63	739.61
382.83	671.73
383.02	739.61
383.22	643.65
383.41	770.04
383.61	744.29
383.80	662.37
384.00	753.65
384.19	770.04
384.39	720.88
384.58	823.87
384.78	868.34
384.97	791.10
385.17	777.06
385.36	704.50
385.56	826.21
385.75	812.17
385.95	793.44
386.14	840.25
386.34	854.30
386.53	922.17
386.72	891.74
386.92	931.53
387.11	894.08
387.31	868.34
387.50	880.04
387.70	889.40
387.89	873.02
388.09	868.34
388.28	873.02
388.48	851.96
388.67	976.00
388.86	898.77
389.06	959.62
389.25	1060.26
389.45	891.74
389.64	917.49
389.84	1074.31
390.03	983.02
390.22	1006.43
390.42	992.39
390.61	1004.09
390.81	1043.88
391.00	1050.90
391.19	1181.97
391.39	1097.71
391.58	1060.26
391.78	971.32
391.97	1064.94
392.16	1004.09
392.36	1076.65
392.55	1006.43
392.75	1022.81
392.94	1062.60
393.13	1011.11
393.33	992.39
393.52	1095.37
393.71	1067.28
393.91	1135.16
394.10	1074.31
394.29	1172.61
394.49	1198.35
394.68	1165.59
394.88	1256.87
395.07	1289.64
395.26	1254.53
395.46	1254.53
395.65	1352.83
395.84	1327.08
396.04	1240.48
396.23	1224.10
396.42	1114.10
396.62	1181.97
396.81	1301.34
397.00	1198.35
397.19	1280.27
397.39	1341.13
397.58	1380.92
397.77	1336.45
397.97	1474.54
398.16	1369.21
398.35	1458.15
398.55	1423.05
398.74	1434.75
398.93	1448.79
399.12	1521.35
399.32	1479.22
399.51	1495.60
399.70	1549.43
399.90	1568.16
400.09	1605.61
400.28	1668.80
400.47	1572.84
400.67	1666.46
400.86	1748.38
401.05	1675.82
401.24	1722.63
401.44	1844.34
401.63	1614.97
401.82	1806.89
402.01	1685.19
402.21	1701.57
402.40	1778.81
402.59	1895.83
402.78	1729.66
402.97	1760.08
403.17	1825.62
403.36	1884.13
403.55	1839.66
403.74	1881.79
403.93	1881.79
404.13	1991.80
404.32	1893.49
404.51	1898.17
404.70	1881.79
404.89	2069.03
405.09	2040.95
405.28	2019.88
405.47	1930.94
405.66	2036.27
405.85	1998.82
406.05	2047.97
406.24	2005.84
406.43	2104.14
406.62	2015.20
406.81	2141.59
407.00	2118.18
407.20	2122.87
407.39	2111.16
407.58	2162.66
407.77	2228.19
407.96	2277.34
408.15	2195.42
408.34	2275.00
408.54	2373.30
408.73	2307.77
408.92	2427.14
409.11	2307.77
409.30	2333.51
409.49	2387.35
409.68	2303.09
409.87	2296.07
410.07	2347.56
410.26	2408.41
410.45	2466.92
410.64	2466.92
410.83	2586.29
411.02	2710.34
411.21	2630.76
411.40	2546.50
411.59	2640.12
411.78	2628.42
411.98	2574.59
412.17	2677.57
412.36	2754.81
412.55	2785.24
412.74	2705.66
412.93	2785.24
413.12	2785.24
413.31	2883.54
413.50	2843.75
413.69	2832.05
413.88	2970.14
414.07	2993.55
414.26	2871.84
414.45	3019.29
414.64	3030.99
414.83	3038.02
415.02	3002.91
415.22	3094.19
415.41	2991.20
415.60	3145.68
415.79	3300.16
415.98	3300.16
416.17	3389.10
416.36	3204.19
416.55	3281.43
416.74	3213.56
416.93	3330.58
417.12	3316.54
417.31	3337.60
417.50	3478.04
417.69	3414.84
417.88	3510.80
418.07	3407.82
418.26	3471.01
418.45	3506.12
418.64	3529.53
418.83	3653.58
419.02	3627.83
419.21	3536.55
419.39	3695.71
419.58	3583.36
419.77	3604.42
419.96	3709.75
420.15	3740.18
420.34	3810.39
420.53	3772.94
420.72	3904.01
420.91	3786.99
421.10	3927.42
421.29	3911.04
421.48	3894.65
421.67	3815.07
421.86	3719.11
422.05	3833.80
422.24	3896.99
422.43	3754.22
422.61	3988.27
422.80	3943.80
422.99	3918.06
423.18	3985.93
423.37	4039.76
423.56	3899.33
423.75	4098.28
423.94	3976.57
424.13	3693.37
424.32	3751.88
424.50	3997.64
424.69	4070.19
424.88	4119.34
425.07	3925.08
425.26	3934.44
425.45	4002.32
425.64	4032.74
425.83	3836.14
426.01	4028.06
426.20	4011.68
426.39	4102.96
426.58	3990.61
426.77	4046.79
426.96	4046.79
427.15	4086.58
427.33	4049.13
427.52	4208.28
427.71	4095.94
427.90	4100.62
428.09	4184.88
428.28	4308.93
428.46	4229.35
428.65	4234.03
428.84	4252.75
429.03	4393.19
429.22	4117.00
429.40	4166.15
429.59	4135.73
429.78	3974.23
429.97	4046.79
430.16	4037.42
430.34	4163.81
430.53	4180.20
430.72	4255.09
430.91	4327.65
431.10	4383.82
431.28	4620.22
431.47	4631.92
431.66	4608.51
431.85	4568.73
432.03	4706.82
432.22	4674.05
432.41	4695.11
432.60	4643.62
432.79	4713.84
432.97	4676.39
433.16	4891.72
433.35	4720.86
433.54	4755.97
433.72	4777.03
433.91	4896.40
434.10	4933.85
434.28	4805.12
434.47	5039.17
434.66	4952.57
434.85	5104.71
435.03	5020.45
435.22	4938.53
435.41	5334.08
435.59	5107.05
435.78	5195.99
435.97	5177.26
436.16	5235.78
436.34	5224.08
436.53	5167.90
436.72	5376.21
436.90	5214.71
437.09	5247.48
437.28	5238.12
437.46	5172.58
437.65	5057.90
437.84	5093.01
438.02	5093.01
438.21	5233.44
438.40	5245.14
438.58	5387.91
438.77	5317.70
438.96	5481.53
439.14	5682.82
439.33	5750.70
439.52	5542.39
439.70	5572.82
439.89	5825.59
440.08	5734.31
440.26	5797.51
440.45	5783.46
440.63	5863.04
440.82	6012.84
441.01	5970.71
441.19	6101.78
441.38	6291.36
441.57	6200.08
441.75	6188.38
441.94	6478.60
442.12	6274.98
442.31	6511.37
442.50	6471.58
442.68	6478.60
442.87	6349.87
443.05	6310.08
443.24	6520.73
443.43	6537.12
443.61	6661.16
443.80	6640.10
443.98	6490.31
444.17	6401.37
444.35	6572.22
444.54	6677.55
444.73	6656.48
444.91	6518.39
445.10	6579.25
445.28	6525.41
445.47	6466.90
445.65	6679.89
445.84	6677.55
446.02	6628.40
446.21	6665.85
446.39	6724.36
446.58	6820.32
446.77	6787.55
446.95	6628.40
447.14	6883.52
447.32	6998.20
447.51	6827.34
447.69	6771.17
447.88	6621.38
448.06	6642.44
448.25	6747.76
448.43	6761.81
448.62	6754.79
448.80	6817.98
448.99	6792.23
449.17	6843.73
449.36	6878.83
449.54	7080.12
449.73	7098.84
449.91	7140.97
450.10	7321.20
450.28	7424.18
450.46	7171.40
450.65	7255.66
450.83	7236.94
451.02	7286.09
451.20	7379.71
451.39	7171.40
451.57	7255.66
451.76	7250.98
451.94	7140.97
452.13	7250.98
452.31	7281.41
452.49	7206.51
452.68	7335.24
452.86	7197.15
453.05	7286.09
453.23	7524.82
453.42	7562.27
453.60	7353.96
453.78	7571.63
453.97	7520.14
454.15	7421.84
454.34	7438.22
454.52	7693.34
454.70	7595.04
454.89	7733.13
455.07	7707.38
455.26	7669.94
455.44	7793.98
455.62	7854.84
455.81	7747.17
455.99	7845.48
456.17	7822.07
456.36	7875.90
456.54	7997.61
456.73	8091.23
456.91	8070.17
457.09	8255.07
457.28	8409.54
457.46	8025.70
457.64	8297.20
457.83	8100.59
458.01	8196.56
458.19	8283.16
458.38	8402.52
458.56	8142.72
458.74	8248.05
458.93	8306.56
459.11	8458.70
459.29	8439.97
459.48	8341.67
459.66	8320.60
459.84	8278.47
460.03	8549.98
460.21	8739.56
460.39	8615.51
460.57	8503.17
460.76	8762.97
460.94	8784.03
461.12	8887.01
461.31	8610.83
461.49	8786.37
461.67	8819.14
461.85	9060.21
462.04	8903.40
462.22	9497.89
462.40	8931.48
462.59	8856.59
462.77	8936.17
462.95	9123.41
463.13	8975.95
463.32	8997.02
463.50	9207.67
463.68	8978.30
463.86	9158.52
464.05	9123.41
464.23	9011.06
464.41	9142.13
464.59	9130.43
464.78	9401.93
464.96	9135.11
465.14	9041.49
465.32	9179.58
465.50	9509.60
465.69	9540.02
465.87	9305.97
466.05	9327.03
466.23	9100.00
466.41	9380.87
466.60	9493.21
466.78	9245.12
466.96	9504.92
467.14	9327.03
467.32	9380.87
467.51	9563.43
467.69	9270.86
467.87	9439.38
468.05	9675.77
468.23	9390.23
468.41	9554.07
468.60	9345.76
468.78	9715.56
468.96	9645.35
469.14	9762.37
469.32	9771.74
469.50	9572.79
469.69	9902.81
469.87	9940.26
470.05	10019.83
470.23	9987.07
470.41	9884.08
470.59	10155.58
470.77	9757.69
470.95	10174.31
471.14	10207.08
471.32	10024.51
471.50	10237.50
471.68	10281.97
471.86	10565.18
472.04	10422.41
472.22	10827.32
472.40	10501.98
472.58	10485.60
472.77	10448.15
472.95	10714.97
473.13	11084.78
473.31	10640.08
473.49	10602.63
473.67	10679.86
473.85	10614.33
474.03	11232.23
474.21	11035.63
474.39	11265.00
474.57	11346.92
474.75	11295.43
474.93	11438.20
475.12	11279.04
475.30	11150.31
475.48	11115.20
475.66	11592.67
475.84	11445.22
476.02	11456.92
476.20	11735.45
476.38	11822.05
476.56	11913.33
476.74	11700.34
476.92	11714.38
477.10	12343.99
477.28	12128.66
477.46	12168.45
477.64	12308.88
477.82	12414.20
478.00	12734.85
478.18	12603.78
478.36	12659.96
478.54	12781.67
478.72	12800.39
478.90	13092.96
479.08	13057.85
479.26	13448.72
479.44	13275.52
479.62	13518.93
479.80	13441.70
479.98	13769.37
480.16	14026.83
480.34	13451.06
480.52	13870.01
480.70	13893.42
480.88	13914.48
481.06	13951.93
481.24	14249.18
481.41	14431.74
481.59	14668.14
481.77	14347.48
481.95	14349.82
482.13	14733.67
482.31	14813.25
482.49	14848.36
482.67	14850.70
482.85	14878.79
483.03	15267.31
483.21	15571.58
483.39	15590.31
483.57	15571.58
483.74	15658.18
483.92	15644.14
484.10	15456.90
484.28	16133.31
484.46	16343.96
484.64	16489.07
484.82	16456.31
485.00	16369.71
485.18	16409.50
485.35	16563.97
485.53	16606.10
485.71	16510.14
485.89	16718.45
486.07	16664.61
486.25	16634.19
486.43	17085.91
486.61	17387.84
486.78	17240.39
486.96	17729.56
487.14	18008.08
487.32	17954.25
487.50	18017.44
487.68	18176.60
487.85	18530.02
488.03	18696.20
488.21	18897.49
488.39	18593.22
488.57	18829.61
488.75	19143.24
488.92	19459.21
489.10	19089.41
489.28	19513.05
489.46	19864.13
489.64	19765.82
489.81	20285.42
489.99	20290.10
490.17	20540.54
490.35	20528.84
490.53	20704.38
490.70	20624.80
490.88	20627.14
491.06	20807.36
491.24	20926.73
491.41	21179.51
491.59	21057.80
491.77	21069.50
491.95	21539.95
492.13	21055.46
492.30	22017.42
492.48	21891.03
492.66	22001.04
492.84	22279.56
493.01	22288.92
493.19	22302.96
493.37	22490.21
493.54	22583.83
493.72	22845.97
493.90	22789.80
494.08	23199.39
494.25	23307.05
494.43	23426.42
494.61	23466.21
494.79	23836.02
494.96	23882.83
495.14	23335.14
495.32	24217.52
495.49	23728.35
495.67	24219.86
495.85	24673.93
496.02	24460.94
496.20	24676.27
496.38	24730.10
496.55	24938.41
496.73	25483.75
496.91	25331.62
497.09	25366.73
497.26	25411.20
497.44	25467.37
497.62	25586.74
497.79	25741.21
497.97	25724.83
498.14	25558.65
498.32	26005.69
498.50	25907.39
498.67	26541.68
498.85	26153.15
499.03	26363.79
499.20	26136.76
499.38	26792.11
499.56	26429.33
499.73	27047.23
499.91	26637.64
500.08	26925.52
500.26	26941.91
500.44	27307.03
500.61	26782.75
500.79	27112.77
500.97	27033.19
501.14	27330.44
501.32	27314.05
501.49	27325.75
501.67	27168.94
501.84	27704.92
502.02	27637.05
502.20	27639.39
502.37	28299.42
502.55	28669.22
502.72	28130.90
502.90	28610.71
503.07	28261.97
503.25	28484.32
503.43	28381.34
503.60	28346.23
503.78	28629.43
503.95	28400.06
504.13	29102.22
504.30	28711.35
504.48	28645.82
504.65	29177.12
504.83	29216.91
505.01	29380.74
505.18	29233.29
505.36	29755.23
505.53	29780.98
505.71	30078.22
505.88	29958.86
506.06	29687.36
506.23	29851.19
506.41	29790.34
506.58	29937.79
506.76	29869.92
506.93	30113.33
507.11	30249.08
507.28	30272.49
507.46	30251.42
507.63	30452.71
507.81	30661.02
507.98	30010.35
508.16	30747.62
508.33	30869.33
508.50	31101.04
508.68	31395.95
508.85	31435.74
509.03	31288.28
509.20	31248.49
509.38	31831.29
509.55	31477.86
509.73	31608.93
509.90	32067.68
510.08	31594.89
510.25	31442.76
510.42	31978.74
510.60	32112.15
510.77	31824.26
510.95	32184.71
511.12	32161.30
511.30	32149.60
511.47	32622.39
511.64	32582.60
511.82	32886.87
511.99	32624.73
512.17	32678.56
512.34	32318.12
512.51	33209.86
512.69	32882.19
512.86	32971.13
513.04	33563.28
513.21	32830.69
513.38	32957.08
513.56	33034.32
513.73	33418.17
513.90	33039.00
514.08	32828.35
514.25	33362.00
514.43	33766.91
514.60	33284.76
514.77	33687.33
514.95	33888.62
515.12	33612.43
515.29	33914.36
515.47	34080.54
515.64	34265.44
515.81	34312.25
515.99	34260.76
516.16	34022.03
516.33	33942.45
516.51	33944.79
516.68	33413.49
516.85	33589.03
517.03	33979.90
517.20	34394.17
517.37	34668.02
517.54	34249.06
517.72	34522.90
517.89	34141.39
518.06	34302.89
518.24	34216.29
518.41	34808.45
518.58	34892.71
518.75	34817.81
518.93	35419.33
519.10	35194.64
519.27	35133.78
519.45	35526.99
519.62	35573.80
519.79	35302.30
519.96	35536.35
520.14	35545.72
520.31	35515.29
520.48	35669.76
520.65	35578.48
520.83	36051.27
521.00	36259.58
521.17	36187.02
521.34	36673.85
521.52	36016.16
521.69	36666.83
521.86	36493.63
522.03	36692.58
522.20	36528.74
522.38	36495.97
522.55	36535.76
522.72	36598.96
522.89	36732.37
523.07	37376.01
523.24	36872.80
523.41	37235.58
523.58	37432.19
523.75	37855.82
523.92	37296.44
524.10	37741.14
524.27	37628.79
524.44	37464.96
524.61	37811.35
524.78	37532.83
524.96	37804.33
525.13	37813.70
525.30	38022.00
525.47	38136.69
525.64	37713.05
525.81	37921.36
525.98	37851.14
526.16	37663.90
526.33	37787.95
526.50	38284.14
526.67	37324.52
526.84	37523.47
527.01	37558.58
527.18	37837.10
527.36	38759.27
527.53	38452.66
527.70	38824.81
527.87	38363.72
528.04	38565.01
528.21	38976.94
528.38	38487.77
528.55	38663.31
528.72	39269.51
528.89	39126.74
529.07	39098.65
529.24	38965.24
529.41	39147.80
529.58	38780.34
529.75	38939.49
529.92	39295.25
530.09	39590.16
530.26	39321.00
530.43	39615.91
530.60	39721.23
530.77	39601.86
530.94	39718.89
531.11	39613.57
531.28	40072.31
531.46	39878.05
531.63	39864.00
531.80	39484.84
531.97	39566.76
532.14	39707.19
532.31	39531.65
532.48	39526.97
532.65	40215.08
532.82	39667.40
532.99	39997.41
533.16	40025.50
533.33	40304.02
533.50	40245.51
533.67	40252.53
533.84	40128.48
534.01	40285.30
534.18	40254.87
534.35	40910.22
534.52	40315.73
534.69	40350.84
534.86	41228.54
535.03	41024.91
535.20	41556.21
535.37	41401.74
535.54	41450.89
535.71	40788.52
535.88	41111.51
536.05	40643.40
536.22	40980.44
536.38	41148.96
536.55	41364.29
536.72	40996.82
536.89	40460.84
537.06	40821.28
537.23	41638.13
537.40	41078.74
537.57	41904.95
537.74	41432.16
537.91	41682.60
538.08	41556.21
538.25	41247.26
538.42	41553.87
538.59	41668.56
538.75	41132.57
538.92	41659.20
539.09	42014.96
539.26	41698.98
539.43	41698.98
539.60	41638.13
539.77	41600.68
539.94	41935.38
540.11	41404.08
540.28	41687.28
540.44	41923.68
540.61	41785.58
540.78	41375.99
540.95	41841.76
541.12	41507.06
541.29	41989.21
541.46	42103.90
541.62	42426.89
541.79	42387.10
541.96	41916.65
542.13	41968.15
542.30	42351.99
542.47	42593.07
542.63	42377.74
542.80	42410.51
542.97	42869.25
543.14	42932.45
543.31	42768.61
543.48	42609.45
543.64	43042.45
543.81	42604.77
543.98	43065.86
544.15	42902.02
544.32	43152.46
544.48	43428.64
544.65	43548.01
544.82	43400.55
544.99	43295.23
545.16	43264.80
545.32	43028.41
545.49	43856.96
545.66	43540.99
545.83	43215.65
546.00	43735.25
546.16	43353.74
546.33	43372.47
546.50	43178.20
546.67	43599.50
546.83	43194.59
547.00	43812.49
547.17	43941.22
547.34	43295.23
547.50	43187.56
547.67	43821.85
547.84	43646.31
548.00	43847.60
548.17	44252.51
548.34	44088.67
548.51	44512.31
548.67	44226.76
548.84	44437.41
549.01	44013.77
549.18	44086.33
549.34	43983.35
549.51	44182.29
549.68	44273.57
549.84	43981.01
550.01	44381.24
550.18	44048.88
550.34	44030.16
550.51	44215.06
550.68	43880.36
550.84	43690.78
551.01	44477.20
551.18	44446.77
551.34	44650.40
551.51	44336.77
551.68	44776.79
551.84	44603.59
552.01	44512.31
552.18	44533.37
552.34	44421.03
552.51	44470.18
552.68	44795.51
552.84	44779.13
553.01	44776.79
553.18	44318.04
553.34	44795.51
553.51	44753.38
553.67	44598.91
553.84	44739.34
554.01	45265.96
554.17	45017.86
554.34	44641.04
554.51	45282.34
554.67	45343.20
554.84	45336.18
555.00	44889.13
555.17	44957.01
555.33	45434.48
555.50	44900.84
555.67	45153.62
555.83	45202.77
556.00	45123.19
556.16	45390.01
556.33	44762.75
556.50	44835.30
556.66	45001.48
556.83	45109.14
556.99	45249.58
557.16	45104.46
557.32	45123.19
557.49	45308.09
557.65	45296.39
557.82	45382.99
557.98	45598.32
558.15	45530.44
558.32	45434.48
558.48	44872.75
558.65	45385.33
558.81	45361.92
558.98	45478.95
559.14	44828.28
559.31	45242.56
559.47	45443.84
559.64	45361.92
559.80	45247.24
559.97	45844.07
560.13	45364.26
560.30	45209.79
560.46	45703.64
560.63	45593.64
560.79	46068.76
560.96	45734.07
561.12	45577.25
561.29	45284.68
561.45	45322.13
561.61	45537.46
561.78	45701.30
561.94	45567.89
562.11	45368.94
562.27	45780.88
562.44	45895.56
562.60	45727.05
562.77	45565.55
562.93	45514.06
563.10	45984.51
563.26	45619.38
563.42	45750.45
563.59	45448.52
563.75	45673.21
563.92	45713.00
564.08	45720.02
564.24	45750.45
564.41	45801.94
564.57	45502.35
564.74	45577.25
564.90	45865.14
565.07	45715.34
565.23	46190.47
565.39	45813.65
565.56	45902.59
565.72	45462.57
565.88	45684.92
566.05	46197.49
566.21	45603.00
566.38	45895.56
566.54	45947.06
566.70	46347.29
566.87	46326.22
567.03	45958.76
567.19	46202.18
567.36	46061.74
567.52	45989.19
567.68	46281.75
567.85	46043.02
568.01	46066.42
568.17	45930.67
568.34	46387.08
568.50	45696.62
568.66	46117.92
568.83	45925.99
568.99	45851.09
569.15	45703.64
569.32	46358.99
569.48	45853.44
569.64	46223.24
569.81	45961.10
569.97	45705.98
570.13	46328.56
570.30	45811.31
570.46	45474.27
570.62	45820.67
570.78	46241.96
570.95	45446.18
571.11	46040.68
571.27	46293.46
571.43	46150.68
571.60	46162.39
571.76	46567.30
571.92	46286.43
572.09	46398.78
572.25	46586.02
572.41	46176.43
572.57	46216.22
572.74	46342.61
572.90	46258.35
573.06	46377.72
573.22	45895.56
573.38	46389.42
573.55	45858.12
573.71	46735.82
573.87	46342.61
574.03	46005.57
574.20	46036.00
574.36	46532.19
574.52	46328.56
574.68	46508.79
574.84	46520.49
575.01	45977.48
575.17	46277.07
575.33	46028.98
575.49	46099.19
575.65	46321.54
575.82	46604.75
575.98	46204.52
576.14	46440.91
576.30	46419.84
576.46	46298.14
576.62	45897.91
576.79	45895.56
576.95	46174.09
577.11	46244.30
577.27	46265.37
577.43	45823.01
577.59	45825.35
577.75	45872.16
577.92	45666.19
578.08	46059.40
578.24	45858.12
578.40	46239.62
578.56	46300.48
578.72	46433.89
578.88	46593.04
579.04	46375.37
579.21	46288.77
579.37	46141.32
579.53	46366.01
579.69	46204.52
579.85	46244.30
580.01	46045.36
580.17	46328.56
580.33	46377.72
580.49	46513.47
580.65	46546.23
580.82	46300.48
580.98	46153.02
581.14	45633.42
581.30	46241.96
581.46	46387.08
581.62	46391.76
581.78	46202.18
581.94	46562.62
582.10	46454.95
582.26	46417.50
582.42	46298.14
582.58	46286.43
582.74	46211.54
582.90	46611.77
583.06	46555.60
583.22	46279.41
583.38	46632.83
583.54	46115.58
583.70	46773.27
583.86	46314.52
584.02	46244.30
584.18	46433.89
584.34	46511.13
584.50	46602.41
584.66	46260.69
584.82	46164.73
584.98	46574.32
585.14	46726.46
585.30	46267.71
585.46	45848.75
585.62	46176.43
585.78	46366.01
585.94	45933.01
586.10	46272.39
586.26	45799.60
586.42	46579.00
586.58	46473.68
586.74	46546.23
586.90	46384.74
587.06	46005.57
587.22	46569.64
587.38	46597.73
587.54	46649.22
587.70	46794.33
587.86	46148.34
588.02	46064.08
588.18	46389.42
588.34	45989.19
588.49	45830.03
588.65	45696.62
588.81	46021.95
588.97	46040.68
589.13	46047.70
589.29	45991.53
589.45	45682.58
589.61	45968.12
589.77	46784.97
589.93	46408.14
590.08	46995.62
590.24	46679.64
590.40	46801.35
590.56	46625.81
590.72	46583.68
590.88	46312.18
591.04	46464.32
591.20	46871.57
591.35	46543.89
591.51	46735.82
591.67	46728.80
591.83	46511.13
591.99	46370.69
592.15	46658.58
592.31	46520.49
592.46	46630.49
592.62	46656.24
592.78	46504.10
592.94	46471.34
593.10	46632.83
593.26	46958.17
593.41	46586.02
593.57	46192.81
593.73	46286.43
593.89	46405.80
594.05	46974.55
594.20	46340.27
594.36	46988.60
594.52	46614.11
594.68	46904.34
594.84	46288.77
594.99	46644.54
595.15	46522.83
595.31	46696.03
595.47	46822.42
595.62	46419.84
595.78	46569.64
595.94	46850.50
596.10	46604.75
596.25	46775.61
596.41	46506.44
596.57	46422.19
596.73	46389.42
596.88	45907.27
597.04	46337.93
597.20	46621.13
597.36	46398.78
597.51	46609.43
597.67	46223.24
597.83	46799.01
597.99	46930.08
598.14	46146.00
598.30	46373.03
598.46	46550.91
598.61	46918.38
598.77	46178.77
598.93	46600.07
599.09	46204.52
599.24	47089.24
599.40	46880.93
599.56	47105.62
599.71	46731.14
599.87	46955.83
600.03	46602.41
600.18	46604.75
600.34	46681.98
600.50	46499.42
600.65	46089.83
600.81	46630.49
600.97	46499.42
601.12	46845.82
601.28	46424.53
601.44	46333.24
601.59	46679.64
601.75	46452.61
601.91	46415.16
602.06	46543.89
602.22	46227.92
602.37	46358.99
602.53	46679.64
602.69	46904.34
602.84	46539.21
603.00	46389.42
603.16	46679.64
603.31	46642.20
603.47	46396.44
603.62	46358.99
603.78	46824.76
603.94	46616.45
604.09	46698.37
604.25	46600.07
604.40	46579.00
604.56	46328.56
604.71	46569.64
604.87	46649.22
605.03	46480.70
605.18	46237.28
605.34	45993.87
605.49	46162.39
605.65	46162.39
605.80	46010.25
605.96	46677.30
606.12	46206.86
606.27	46382.40
606.43	46501.76
606.58	46312.18
606.74	46000.89
606.89	45862.80
607.05	46466.66
607.20	45900.25
607.36	46080.47
607.51	46443.25
607.67	46295.80
607.82	46602.41
607.98	46099.19
608.13	46101.53
608.29	45738.75
608.44	45677.90
608.60	45736.41
608.75	46160.05
608.91	46265.37
609.06	46131.96
609.22	46012.59
609.37	45766.84
609.53	46131.96
609.68	46555.60
609.84	45975.14
609.99	46131.96
610.15	45787.90
610.30	45675.55
610.46	45565.55
610.61	45823.01
610.76	45979.82
610.92	45851.09
611.07	46183.45
611.23	46103.87
611.38	46260.69
611.54	45790.24
611.69	45333.84
611.84	45399.37
612.00	45048.29
612.15	45542.14
612.31	46234.94
612.46	45769.18
612.62	46085.15
612.77	45476.61
612.92	45497.67
613.08	45478.95
613.23	45420.44
613.39	44975.73
613.54	45296.39
613.69	45610.02
613.85	45429.80
614.00	45743.43
614.15	45338.52
614.31	45312.77
614.46	45649.81
614.62	45237.87
614.77	45492.99
614.92	45834.71
615.08	45214.47
615.23	45170.00
615.38	45097.44
615.54	44708.91
615.69	45464.91
615.84	45256.60
616.00	45312.77
616.15	44701.89
616.30	45298.73
616.46	44966.37
616.61	44781.47
616.76	44804.88
616.92	44690.19
617.07	45153.62
617.22	44650.40
617.37	45146.59
617.53	45579.59
617.68	44975.73
617.83	44896.16
617.99	45074.04
618.14	44755.72
618.29	44584.86
618.45	44587.21
618.60	44184.63
618.75	44369.54
618.90	44769.77
619.06	44563.80
619.21	44439.75
619.36	44673.81
619.51	44313.36
619.67	44189.31
619.82	44638.70
619.97	44547.42
620.12	44414.01
620.28	43964.62
620.43	44584.86
620.58	44367.20
620.73	44282.94
620.89	44423.37
621.04	44278.25
621.19	44432.73
621.34	44208.04
621.49	44610.61
621.65	44318.04
621.80	44856.37
621.95	44406.98
622.10	44210.38
622.25	43852.28
622.41	43992.71
622.56	44114.42
622.71	44198.68
622.86	44034.84
623.01	44261.87
623.16	43828.87
623.32	43901.43
623.47	43838.23
623.62	43753.97
623.77	43807.81
623.92	43988.03
624.07	43627.59
624.23	43615.88
624.38	44091.01
624.53	43749.29
624.68	43749.29
624.83	44198.68
624.98	43650.99
625.13	43384.17
625.29	43131.39
625.44	43119.69
625.59	43274.16
625.74	42967.55
625.89	42895.00
626.04	43665.03
626.19	43264.80
626.34	43337.36
626.49	43789.08
626.65	43159.48
626.80	43419.28
626.95	43115.01
627.10	42576.69
627.25	42976.92
627.40	42962.87
627.55	42569.66
627.70	42480.72
627.85	43292.89
628.00	43503.54
628.15	43150.12
628.30	42625.84
628.45	42752.23
628.60	42841.17
628.76	42817.76
628.91	42473.70
629.06	42480.72
629.21	42223.26
629.36	42354.33
629.51	42387.10
629.66	42452.64
629.81	42349.65
629.96	42623.50
630.11	42595.41
630.26	42705.41
630.41	42602.43
630.56	42583.71
630.71	42550.94
630.86	42476.04
631.01	42450.30
631.16	42316.89
631.31	41701.32
631.46	41780.90
631.61	42480.72
631.76	42003.25
631.91	42281.78
632.06	42731.16
632.21	42426.89
632.36	42768.61
632.51	42202.20
632.66	42387.10
632.81	41766.86
632.96	42183.48
633.10	41968.15
633.25	42462.00
633.40	41984.53
633.55	42249.01
633.70	41965.81
633.85	41963.46
634.00	42295.82
634.15	41839.42
634.30	41577.28
634.45	41633.45
634.60	41839.42
634.75	41698.98
634.90	41638.13
635.05	41521.10
635.19	41544.51
635.34	41928.36
635.49	41476.63
635.64	41837.08
635.79	41701.32
635.94	41399.40
636.09	41682.60
636.24	41354.93
636.39	41102.15
636.53	41663.88
636.68	41530.47
636.83	41446.21
636.98	41270.67
637.13	41268.33
637.28	41364.29
637.43	41097.47
637.57	41387.69
637.72	41439.18
637.87	41450.89
638.02	41092.79
638.17	41198.11
638.32	41020.23
638.46	40854.05
638.61	40650.42
638.76	40699.58
638.91	41352.58
639.06	41200.45
639.20	40889.16
639.35	41045.97
639.50	40655.11
639.65	41226.20
639.80	40678.51
639.94	41083.42
640.09	40856.39
640.24	41305.77
640.39	40446.80
640.54	40575.53
640.68	40308.71
640.83	40336.79
640.98	40622.34
641.13	40194.02
641.27	40528.72
641.42	40535.74
641.57	40343.81
641.72	40903.20
641.86	40236.15
642.01	39803.15
642.16	40273.60
642.31	39995.07
642.45	40414.03
642.60	40046.57
642.75	40095.72
642.90	40119.12
643.04	40027.84
643.19	40147.21
643.34	39931.88
643.48	39999.76
643.63	40289.98
643.78	39672.08
643.93	40018.48
644.07	39952.94
644.22	39744.64
644.37	39377.17
644.51	39943.58
644.66	39955.29
644.81	40479.57
644.95	39693.15
645.10	39880.39
645.25	39739.96
645.39	39512.92
645.54	39718.89
645.69	39618.25
645.83	39564.42
645.98	39641.65
646.13	39463.77
646.27	39672.08
646.42	39618.25
646.57	39761.02
646.71	39372.49
646.86	39360.79
647.00	39447.39
647.15	39494.20
647.30	39796.13
647.44	39288.23
647.59	39407.60
647.74	38902.04
647.88	38969.92
648.03	39332.70
648.17	39477.82
648.32	39075.24
648.47	38623.52
648.61	38930.13
648.76	39569.10
648.90	39058.86
649.05	39253.12
649.20	39058.86
649.34	38941.83
649.49	38693.74
649.63	38960.56
649.78	39208.65
649.92	39248.44
650.07	39210.99
650.21	38916.09
650.36	39016.73
650.51	39278.87
650.65	39117.37
650.80	39358.45
650.94	38960.56
651.09	38792.04
651.23	38845.87
651.38	38541.60
651.52	38604.80
651.67	38167.12
651.81	38520.54
651.96	38714.80
652.10	38684.37
652.25	38452.66
652.39	38717.14
652.54	38703.10
652.68	38644.59
652.83	38625.86
652.97	39108.01
653.12	38649.27
653.26	38124.99
653.41	38373.08
653.55	38513.52
653.70	38202.22
653.84	38511.17
653.99	38014.98
654.13	38293.50
654.27	38225.63
654.42	38164.78
654.56	38150.73
654.71	38384.79
654.85	38115.62
655.00	37972.85
655.14	37830.08
655.29	37928.38
655.43	38136.69
655.57	37434.53
655.72	37401.76
655.86	37446.23
656.01	37600.71
656.15	37020.25
656.30	36884.50
656.44	37228.56
656.58	37670.92
656.73	37235.58
656.87	37425.17
657.01	37160.69
657.16	37160.69
657.30	36634.06
657.45	37090.47
657.59	37614.75
657.73	37525.81
657.88	37748.16
658.02	37851.14
658.16	37521.13
658.31	37801.99
658.45	37626.45
658.60	37181.75
658.74	37471.98
658.88	37699.01
659.03	36840.03
659.17	36690.24
659.31	37090.47
659.46	37031.96
659.60	36975.78
659.74	37237.92
659.89	36376.61
660.03	36912.59
660.17	36999.19
660.32	36783.86
660.46	36788.54
660.60	36432.78
660.74	36725.35
660.89	36708.96
661.03	36451.50
661.17	36404.69
661.32	36325.11
661.46	36634.06
661.60	36170.64
661.74	35941.27
661.89	36201.07
662.03	36369.58
662.17	36229.15
662.31	36168.30
662.46	36388.31
662.60	36439.80
662.74	36084.04
662.88	35578.48
663.03	35929.56
663.17	36048.93
663.31	35505.93
663.45	36158.94
663.60	35924.88
663.74	35524.65
663.88	35646.36
664.02	35384.22
664.17	35761.05
664.31	34918.45
664.45	35047.18
664.59	35412.31
664.73	35515.29
664.88	35072.93
665.02	34850.58
665.16	34635.25
665.30	34778.02
665.44	34969.94
665.59	34998.03
665.73	35044.84
665.87	34590.78
666.01	34625.89
666.15	34717.17
666.29	34829.51
666.44	34562.69
666.58	35110.38
666.72	34796.74
666.86	34754.61
667.00	34719.51
667.14	34260.76
667.28	34321.62
667.43	34567.37
667.57	34546.31
667.71	34522.90
667.85	34085.22
667.99	34078.20
668.13	34373.11
668.27	34256.08
668.41	34445.66
668.56	33715.42
668.70	34160.12
668.84	33352.63
668.98	33179.43
669.12	33617.11
669.26	34153.10
669.40	33357.32
669.54	33579.67
669.68	33553.92
669.82	32968.79
669.96	33282.42
670.10	33177.09
670.25	33380.72
670.39	32945.38
670.53	32856.44
670.67	32973.47
670.81	33177.09
670.95	32720.69
671.09	32898.57
671.23	32910.27
671.37	32432.80
671.51	32758.14
671.65	32615.37
671.79	32376.63
671.93	32620.05
672.07	32517.06
672.21	32393.01
672.35	32004.49
672.49	31974.06
672.63	32519.40
672.77	32313.44
672.91	32079.38
673.05	32123.85
673.19	32039.59
673.33	31791.50
673.47	31871.07
673.61	31566.81
673.75	31393.61
673.89	31473.18
674.03	31583.19
674.17	31433.39
674.31	31442.76
674.45	31707.24
674.59	31777.45
674.73	31269.56
674.87	31466.16
675.01	30806.13
675.15	31129.12
675.29	30930.18
675.43	30820.17
675.56	31189.98
675.70	30951.24
675.84	31110.40
675.98	29809.06
676.12	30174.19
676.26	30689.10
676.40	30033.75
676.54	30349.73
676.68	29982.26
676.82	29970.56
676.96	30155.46
677.10	29827.79
677.23	30054.82
677.37	29797.36
677.51	29373.72
677.65	29301.17
677.79	29137.33
677.93	29436.92
678.07	29198.18
678.21	28826.04
678.34	28943.06
678.48	28694.97
678.62	28767.52
678.76	28716.03
678.90	28467.94
679.04	28662.20
679.18	28573.26
679.31	28711.35
679.45	28187.07
679.59	28002.17
679.73	28126.22
679.87	28341.55
680.00	28088.77
680.14	27791.52
680.28	28315.80
680.42	27651.09
680.56	27700.24
680.70	27573.85
680.83	27988.13
680.97	27391.29
681.11	27356.18
681.25	27578.53
681.39	27503.64
681.52	27438.10
681.66	27154.90
681.80	27285.97
681.94	26775.73
682.07	26541.68
682.21	26752.32
682.35	26459.76
682.49	26759.34
682.62	26132.08
682.76	26188.25
682.90	25942.50
683.04	26085.27
683.17	26008.03
683.31	25876.96
683.45	25883.98
683.59	25923.77
683.72	25858.24
683.86	25830.15
684.00	25605.46
684.13	25558.65
684.27	25823.13
684.41	25111.61
684.55	25238.00
684.68	24924.36
684.82	25046.07
684.96	24940.75
685.09	24884.58
685.23	24718.40
685.37	24599.03
685.50	24793.29
685.64	24882.24
685.78	24308.80
685.91	24297.10
686.05	24189.44
686.19	23997.51
686.32	23934.32
686.46	23566.85
686.60	23426.42
686.73	23576.22
686.87	22998.10
687.01	22934.91
687.14	22855.33
687.28	23236.84
687.42	22892.78
687.55	23138.54
687.69	23220.45
687.82	22740.64
687.96	23187.69
688.10	22986.40
688.23	22483.19
688.37	22988.74
688.50	22508.93
688.64	22724.26
688.78	22789.80
688.91	22071.25
689.05	22384.88
689.18	22202.32
689.32	21895.71
689.46	21881.67
689.59	22267.86
689.73	22459.78
689.86	21970.61
690.00	22141.47
690.13	21649.96
690.27	21305.90
690.41	21366.75
690.54	21408.88
690.68	21085.89
690.81	21179.51
690.95	21102.27
691.08	21205.25
691.22	21165.46
691.35	20992.26
691.49	21113.97
691.62	21153.76
691.76	20966.52
691.89	20538.20
692.03	20755.87
692.16	20531.18
692.30	20212.87
692.43	20463.30
692.57	20032.65
692.70	20133.29
692.84	19810.29
692.97	19906.26
693.11	19957.75
693.24	19513.05
693.38	19489.64
693.51	19641.78
693.65	19812.63
693.78	19704.97
693.92	19592.62
694.05	19578.58
694.19	19564.54
694.32	19309.42
694.45	19208.78
694.59	19161.97
694.72	19096.43
694.86	19101.11
694.99	18672.79
695.13	19028.56
695.26	18452.78
695.39	18794.50
695.53	18890.46
695.66	18759.39
695.80	18855.36
695.93	18490.23
696.07	18118.09
696.20	18492.57
696.33	18272.56
696.47	18162.56
696.60	18008.08
696.73	17877.01
696.87	17783.39
697.00	17933.18
697.14	17387.84
697.27	17476.78
697.40	17490.82
697.54	17472.10
697.67	17514.23
697.80	17348.05
697.94	17245.07
698.07	17214.64
698.21	17235.70
698.34	17448.69
698.47	17235.70
698.61	16599.08
698.74	16856.54
698.87	16891.65
699.01	16613.12
699.14	16468.01
699.27	16245.66
699.40	16425.88
699.54	16599.08
699.67	16137.99
699.80	16521.84
699.94	16173.10
700.07	15939.05
700.20	16346.30
700.34	16035.01
700.47	15747.12
700.60	15943.73
700.73	15950.75
700.87	15798.62
701.00	15522.43
701.13	15094.11
701.26	15393.70
701.40	15531.80
701.53	15246.25
701.66	15421.79
701.79	15075.39
701.93	15187.74
702.06	15063.69
702.19	14834.32
702.32	14913.89
702.46	15051.99
702.59	15049.64
702.72	14817.93
702.85	14703.25
702.99	14644.73
703.12	14532.39
703.25	14478.55
703.38	14436.42
703.51	14303.01
703.65	14207.05
703.78	14214.07
703.91	13774.05
704.04	13994.06
704.17	14031.51
704.31	14040.87
704.44	14078.32
704.57	14047.90
704.70	13612.56
704.83	13764.69
704.96	13818.52
705.10	13710.86
705.23	13652.34
>>>>>End Processed Spectral Data<<<<<
