SpectraSuite Data File
++++++++++++++++++++++++++++++++++++
Date: Fri Oct 25 10:48:27 EDT 2013
User: price-jones
Dark Spectrum Present: No
Reference Spectrum Present: No
Number of Sampled Component Spectra: 1
Spectrometers: USB2+H05261
Integration Time (usec): 100000 (USB2+H05261)
Spectra Averaged: 1 (USB2+H05261)
Boxcar Smoothing: 0 (USB2+H05261)
Correct for Electrical Dark: No (USB2+H05261)
Strobe/Lamp Enabled: No (USB2+H05261)
Correct for Detector Non-linearity: No (USB2+H05261)
Correct for Stray Light: No (USB2+H05261)
Number of Pixels in Processed Spectrum: 2048
>>>>>Begin Processed Spectral Data<<<<<
365.73	187.24
365.92	187.24
366.12	187.24
366.32	23.41
366.52	70.22
366.72	77.24
366.91	0.00
367.11	0.00
367.31	63.19
367.51	0.00
367.70	0.00
367.90	93.62
368.10	56.17
368.30	60.85
368.49	0.00
368.69	81.92
368.89	67.88
369.09	81.92
369.28	25.75
369.48	100.64
369.68	98.30
369.87	152.13
370.07	135.75
370.27	100.64
370.47	184.90
370.66	402.57
370.86	470.45
371.06	472.79
371.25	585.13
371.45	496.19
371.65	496.19
371.84	470.45
372.04	482.15
372.24	500.87
372.44	543.00
372.63	489.17
372.83	554.71
373.03	587.47
373.22	573.43
373.42	498.53
373.62	596.84
373.81	559.39
374.01	566.41
374.21	526.62
374.40	641.31
374.60	538.32
374.79	603.86
374.99	578.11
375.19	587.47
375.38	641.31
375.58	592.16
375.78	634.29
375.97	671.73
376.17	650.67
376.37	580.45
376.56	664.71
376.76	636.63
376.95	538.32
377.15	641.31
377.35	629.60
377.54	622.58
377.74	634.29
377.93	636.63
378.13	678.76
378.33	636.63
378.52	685.78
378.72	622.58
378.91	671.73
379.11	706.84
379.31	732.59
379.50	772.38
379.70	702.16
379.89	704.50
380.09	734.93
380.28	629.60
380.48	758.33
380.68	622.58
380.87	645.99
381.07	685.78
381.26	744.29
381.46	744.29
381.65	739.61
381.85	720.88
382.04	763.01
382.24	706.84
382.43	704.50
382.63	741.95
382.83	706.84
383.02	690.46
383.22	674.07
383.41	676.41
383.61	849.61
383.80	851.96
384.00	763.01
384.19	765.36
384.39	840.25
384.58	781.74
384.78	858.98
384.97	828.55
385.17	807.48
385.36	814.51
385.56	858.98
385.75	880.04
385.95	887.06
386.14	905.79
386.34	856.64
386.53	837.91
386.72	777.06
386.92	868.34
387.11	823.87
387.31	959.62
387.50	898.77
387.70	887.06
387.89	873.02
388.09	889.40
388.28	891.74
388.48	781.74
388.67	915.15
388.86	952.60
389.06	983.02
389.25	1025.15
389.45	1013.45
389.64	1041.54
389.84	994.73
390.03	1034.52
390.22	1107.07
390.42	929.19
390.61	931.53
390.81	1020.47
391.00	1027.50
391.19	1046.22
391.39	1001.75
391.58	1060.26
391.78	1055.58
391.97	1095.37
392.16	990.05
392.36	1083.67
392.55	1064.94
392.75	1018.13
392.94	931.53
393.13	1008.77
393.33	1025.15
393.52	1067.28
393.71	1083.67
393.91	1200.69
394.10	1111.75
394.29	1174.95
394.49	1170.27
394.68	1207.72
394.88	1146.86
395.07	1214.74
395.26	1242.82
395.46	1217.08
395.65	1247.51
395.84	1252.19
396.04	1287.29
396.23	1184.31
396.42	1212.40
396.62	1212.40
396.81	1217.08
397.00	1310.70
397.19	1329.42
397.39	1355.17
397.58	1277.93
397.77	1364.53
397.97	1462.83
398.16	1437.09
398.35	1352.83
398.55	1411.34
398.74	1483.90
398.93	1523.69
399.12	1523.69
399.32	1516.67
399.51	1598.59
399.70	1582.20
399.90	1547.09
400.09	1612.63
400.28	1526.03
400.47	1575.18
400.67	1689.87
400.86	1633.69
401.05	1565.82
401.24	1650.08
401.44	1687.53
401.63	1584.54
401.82	1849.02
402.01	1703.91
402.21	1673.48
402.40	1650.08
402.59	1755.40
402.78	1834.98
402.97	1753.06
403.17	1788.17
403.36	1687.53
403.55	1797.53
403.74	1816.26
403.93	1820.94
404.13	1926.26
404.32	1881.79
404.51	1912.22
404.70	2036.27
404.89	1820.94
405.09	1865.41
405.28	1975.41
405.47	1975.41
405.66	2052.65
405.85	1900.52
406.05	2024.56
406.24	2050.31
406.43	2033.93
406.62	2085.42
406.81	2223.51
407.00	1975.41
407.20	2010.52
407.39	2064.35
407.58	2125.21
407.77	2186.06
407.96	2186.06
408.15	2235.21
408.34	2111.16
408.54	2207.13
408.73	2293.72
408.92	2277.34
409.11	2291.38
409.30	2207.13
409.49	2279.68
409.68	2167.34
409.87	2298.41
410.07	2347.56
410.26	2345.22
410.45	2396.71
410.64	2338.20
410.83	2506.71
411.02	2511.39
411.21	2581.61
411.40	2490.33
411.59	2530.12
411.78	2593.31
411.98	2506.71
412.17	2682.25
412.36	2689.28
412.55	2684.59
412.74	2752.47
412.93	2722.04
413.12	2743.11
413.31	2825.03
413.50	2796.94
413.69	2789.92
413.88	2888.22
414.07	2764.17
414.26	2951.42
414.45	2953.76
414.64	2846.09
414.83	2953.76
415.02	2928.01
415.22	3056.74
415.41	3016.95
415.60	2977.16
415.79	3194.83
415.98	3286.11
416.17	3187.81
416.36	3143.34
416.55	3171.43
416.74	3236.96
416.93	3180.79
417.12	3272.07
417.31	3290.79
417.50	3190.15
417.69	3480.38
417.88	3370.37
418.07	3234.62
418.26	3435.91
418.45	3456.97
418.64	3613.79
418.83	3688.68
419.02	3520.17
419.21	3583.36
419.39	3492.08
419.58	3534.21
419.77	3510.80
419.96	3623.15
420.15	3707.41
420.34	3644.21
420.53	3623.15
420.72	3887.63
420.91	3716.77
421.10	3875.93
421.29	3847.84
421.48	3775.28
421.67	3812.73
421.86	3899.33
422.05	3779.97
422.24	3815.07
422.43	3864.22
422.61	3850.18
422.80	3908.69
422.99	3908.69
423.18	3824.44
423.37	3894.65
423.56	3992.95
423.75	3854.86
423.94	3805.71
424.13	3700.39
424.32	3716.77
424.50	3850.18
424.69	3887.63
424.88	3999.98
425.07	3894.65
425.26	3880.61
425.45	3854.86
425.64	3871.25
425.83	3922.74
426.01	4004.66
426.20	3896.99
426.39	3871.25
426.58	4084.23
426.77	4016.36
426.96	4007.00
427.15	3927.42
427.33	4042.11
427.52	4135.73
427.71	4224.67
427.90	4121.68
428.09	4124.02
428.28	4119.34
428.46	4079.55
428.65	4011.68
428.84	4210.62
429.03	4262.12
429.22	4166.15
429.40	4091.26
429.59	4149.77
429.78	3913.38
429.97	3920.40
430.16	4018.70
430.34	4053.81
430.53	4161.47
430.72	4152.11
430.91	4280.84
431.10	4313.61
431.28	4645.96
431.47	4517.23
431.66	4547.66
431.85	4407.23
432.03	4491.49
432.22	4781.71
432.41	4524.26
432.60	4589.79
432.79	4814.48
432.97	4746.61
433.16	4723.20
433.35	4437.66
433.54	4676.39
433.72	4657.67
433.91	4791.08
434.10	4645.96
434.28	4772.35
434.47	4865.97
434.66	4725.54
434.85	5025.13
435.03	4889.38
435.22	4877.68
435.41	5034.49
435.59	4952.57
435.78	5027.47
435.97	4924.49
436.16	5093.01
436.34	5107.05
436.53	4997.04
436.72	5245.14
436.90	4938.53
437.09	5167.90
437.28	4975.98
437.46	5104.71
437.65	5067.26
437.84	5025.13
438.02	5078.96
438.21	5317.70
438.40	5057.90
438.58	5334.08
438.77	5416.00
438.96	5273.23
439.14	5542.39
439.33	5591.54
439.52	5619.63
439.70	5554.09
439.89	5715.59
440.08	5673.46
440.26	5657.07
440.45	5612.60
440.63	5710.91
440.82	5877.09
441.01	5795.17
441.19	5928.58
441.38	5884.11
441.57	5898.15
441.75	6125.18
441.94	6193.06
442.12	6335.83
442.31	6270.30
442.50	6279.66
442.68	6101.78
442.87	6202.42
443.05	6375.62
443.24	6511.37
443.43	6340.51
443.61	6282.00
443.80	6452.86
443.98	6307.74
444.17	6209.44
444.35	6452.86
444.54	6480.94
444.73	6347.53
444.91	6380.30
445.10	6539.46
445.28	6396.68
445.47	6314.77
445.65	6445.84
445.84	6392.00
446.02	6548.82
446.21	6469.24
446.39	6590.95
446.58	6560.52
446.77	6555.84
446.95	6394.34
447.14	6696.27
447.32	6619.04
447.51	6420.09
447.69	6487.96
447.88	6403.71
448.06	6675.21
448.25	6537.12
448.43	6736.06
448.62	6661.16
448.80	6572.22
448.99	6612.01
449.17	6705.63
449.36	6757.13
449.54	6916.28
449.73	6981.82
449.91	6895.22
450.10	6956.07
450.28	6991.18
450.46	7026.29
450.65	6981.82
450.83	7047.35
451.02	7148.00
451.20	7269.70
451.39	7351.62
451.57	7098.84
451.76	7201.83
451.94	7084.80
452.13	7197.15
452.31	6974.80
452.49	6970.12
452.68	7248.64
452.86	7042.67
453.05	7157.36
453.23	7368.01
453.42	7375.03
453.60	7173.74
453.78	7309.49
453.97	7358.64
454.15	7239.28
454.34	7405.46
454.52	7253.32
454.70	7597.38
454.89	7435.88
455.07	7527.16
455.26	7705.04
455.44	7604.40
455.62	7700.36
455.81	7618.44
455.99	7749.51
456.17	7669.94
456.36	7613.76
456.54	7934.42
456.73	7836.11
456.91	8086.55
457.09	7885.26
457.28	8222.30
457.46	7908.67
457.64	7981.23
457.83	8098.25
458.01	7995.27
458.19	8147.40
458.38	8266.77
458.56	8219.96
458.74	8081.87
458.93	8149.75
459.11	8332.31
459.29	8147.40
459.48	8306.56
459.66	8205.92
459.84	8273.79
460.03	8418.91
460.21	8231.66
460.39	8437.63
460.57	8414.23
460.76	8454.02
460.94	8461.04
461.12	8505.51
461.31	8538.27
461.49	8571.04
461.67	8428.27
461.85	8814.46
462.04	8894.04
462.22	9083.62
462.40	8992.34
462.59	8744.24
462.77	9001.70
462.95	8835.52
463.13	8915.10
463.32	8622.53
463.50	8997.02
463.68	9025.11
463.86	8910.42
464.05	8716.16
464.23	8997.02
464.41	8894.04
464.59	8865.95
464.78	9202.99
464.96	8997.02
465.14	8788.71
465.32	9060.21
465.50	9090.64
465.69	9205.33
465.87	9062.55
466.05	9104.68
466.23	9193.62
466.41	9069.58
466.60	9214.69
466.78	9156.18
466.96	9298.95
467.14	9165.54
467.32	9174.90
467.51	9392.57
467.69	9231.07
467.87	9240.44
468.05	9500.23
468.23	9163.20
468.41	9371.50
468.60	9364.48
468.78	9490.87
468.96	9483.85
469.14	9818.55
469.32	9591.52
469.50	9685.14
469.69	9666.41
469.87	9619.60
470.05	9680.46
470.23	9804.50
470.41	9848.97
470.59	9928.55
470.77	9846.63
470.95	9825.57
471.14	10024.51
471.32	9851.31
471.50	10099.41
471.68	10167.29
471.86	10279.63
472.04	10352.19
472.22	10431.77
472.40	10024.51
472.58	10298.36
472.77	10326.44
472.95	10450.49
473.13	10808.59
473.31	10501.98
473.49	10574.54
473.67	10478.58
473.85	10445.81
474.03	10916.26
474.21	11049.67
474.39	11243.93
474.57	11037.97
474.75	10874.13
474.93	11206.48
475.12	11279.04
475.30	11243.93
475.48	10984.13
475.66	11222.87
475.84	11101.16
476.02	11302.45
476.20	11337.56
476.38	11309.47
476.56	12025.67
476.74	11782.26
476.92	11758.85
477.10	11529.48
477.28	11925.03
477.46	12102.91
477.64	11913.33
477.82	12290.15
478.00	12404.84
478.18	12393.14
478.36	12552.29
478.54	12512.50
478.72	12950.18
478.90	12776.98
479.08	13135.09
479.26	12957.21
479.44	12912.74
479.62	12987.63
479.80	13217.01
479.98	13495.53
480.16	13561.06
480.34	13551.70
480.52	13633.62
480.70	13713.20
480.88	13589.15
481.06	13862.99
481.24	14001.08
481.41	14108.75
481.59	14366.21
481.77	14490.26
481.95	14300.67
482.13	14295.99
482.31	14342.80
482.49	14635.37
482.67	14588.56
482.85	14916.23
483.03	14857.72
483.21	15183.06
483.39	15337.53
483.57	15272.00
483.74	15704.99
483.92	15737.76
484.10	15374.98
484.28	15927.35
484.46	15978.84
484.64	16170.76
484.82	15829.04
485.00	15955.43
485.18	16088.84
485.35	16489.07
485.53	16121.61
485.71	16257.36
485.89	16524.18
486.07	16732.49
486.25	16755.90
486.43	16788.66
486.61	16854.20
486.78	17170.17
486.96	17415.93
487.14	17715.51
487.32	17914.46
487.50	17741.26
487.68	18127.45
487.85	18469.17
488.03	18335.76
488.21	18490.23
488.39	18410.65
488.57	18464.49
488.75	18745.35
488.92	18876.42
489.10	19096.43
489.28	19229.84
489.46	19562.20
489.64	19253.25
489.81	19662.84
489.99	20346.28
490.17	19983.49
490.35	20372.02
490.53	20224.57
490.70	20224.57
490.88	20252.66
491.06	20624.80
491.24	20718.42
491.41	20856.51
491.59	20847.15
491.77	20709.06
491.95	20725.44
492.13	21294.19
492.30	21472.07
492.48	21523.57
492.66	21682.72
492.84	21689.74
493.01	22232.75
493.19	21891.03
493.37	21720.17
493.54	22405.95
493.72	22286.58
493.90	22452.76
494.08	22588.51
494.25	22714.90
494.43	23201.73
494.61	23344.50
494.79	23213.43
494.96	23190.03
495.14	23342.16
495.32	23435.78
495.49	23529.41
495.67	23709.63
495.85	24105.18
496.02	24166.03
496.20	24063.05
496.38	24362.64
496.55	24383.70
496.73	24809.68
496.91	24608.39
497.09	24744.14
497.26	24996.92
497.44	24854.15
497.62	24900.96
497.79	25191.19
497.97	25324.60
498.14	25315.23
498.32	25462.69
498.50	25579.71
498.67	25907.39
498.85	25816.11
499.03	25785.68
499.20	25872.28
499.38	26286.56
499.56	26082.93
499.73	26111.02
499.91	26881.05
500.08	26258.47
500.26	25998.67
500.44	26450.39
500.61	26485.50
500.79	26525.29
500.97	26927.86
501.14	27094.04
501.32	27222.77
501.49	26969.99
501.67	27150.21
501.84	27353.84
502.02	27431.08
502.20	27733.01
502.37	27477.89
502.55	27503.64
502.72	27798.54
502.90	28196.43
503.07	27768.12
503.25	27866.42
503.43	27943.66
503.60	27885.14
503.78	28100.47
503.95	28268.99
504.13	28187.07
504.30	28781.57
504.48	28400.06
504.65	28521.77
504.83	28989.88
505.01	28943.06
505.18	28882.21
505.36	29617.14
505.53	29633.52
505.71	29563.31
505.88	29921.41
506.06	29469.69
506.23	29586.71
506.41	29584.37
506.58	29591.39
506.76	29682.67
506.93	29912.05
507.11	29759.91
507.28	29717.78
507.46	29663.95
507.63	30068.86
507.81	30195.25
507.98	29837.15
508.16	30136.74
508.33	30623.57
508.50	30426.96
508.68	30859.96
508.85	31002.74
509.03	30808.47
509.20	30904.43
509.38	30759.32
509.55	31054.23
509.73	31154.87
509.90	31618.30
510.08	31267.22
510.25	31335.09
510.42	31386.58
510.60	31672.13
510.77	31592.55
510.95	31784.48
511.12	32048.96
511.30	32519.40
511.47	32116.83
511.64	32535.79
511.82	32238.54
511.99	32247.90
512.17	32147.26
512.34	31800.86
512.51	32673.88
512.69	32669.20
512.86	32519.40
513.04	32582.60
513.21	32800.27
513.38	32753.46
513.56	33046.02
513.73	32598.98
513.90	32680.90
514.08	32924.32
514.25	32772.18
514.43	33191.14
514.60	33130.28
514.77	33214.54
514.95	33273.06
515.12	33560.94
515.29	33511.79
515.47	33750.52
515.64	34139.05
515.81	33883.94
515.99	33954.15
516.16	33507.11
516.33	33858.19
516.51	33759.89
516.68	33013.26
516.85	33303.48
517.03	33476.68
517.20	34115.65
517.37	34480.77
517.54	34565.03
517.72	34426.94
517.89	33944.79
518.06	33820.74
518.24	33872.23
518.41	33947.13
518.58	34464.39
518.75	34417.58
518.93	35065.91
519.10	34735.89
519.27	35140.80
519.45	35019.10
519.62	35271.87
519.79	35159.53
519.96	35199.32
520.14	35564.44
520.31	35035.48
520.48	35644.02
520.65	35227.40
520.83	35751.68
521.00	35739.98
521.17	36088.72
521.34	36268.94
521.52	36100.42
521.69	36297.03
521.86	36694.92
522.03	36432.78
522.20	36821.31
522.38	36484.27
522.55	36439.80
522.72	36084.04
522.89	36711.30
523.07	36514.70
523.24	36690.24
523.41	36921.95
523.58	36704.28
523.75	37303.46
523.92	37116.22
524.10	37359.63
524.27	36966.42
524.44	37242.60
524.61	37048.34
524.78	37397.08
524.96	37558.58
525.13	37596.03
525.30	37706.03
525.47	37886.25
525.64	37979.87
525.81	37546.87
525.98	37532.83
526.16	37460.27
526.33	37301.12
526.50	37628.79
526.67	37441.55
526.84	37481.34
527.01	37734.12
527.18	38003.28
527.36	38153.07
527.53	38101.58
527.70	38719.48
527.87	38721.82
528.04	37872.21
528.21	38174.14
528.38	38567.35
528.55	38602.46
528.72	39035.45
528.89	39049.50
529.07	38974.60
529.24	38803.74
529.41	38703.10
529.58	39023.75
529.75	38885.66
529.92	39295.25
530.09	39117.37
530.26	39597.18
530.43	39276.53
530.60	39026.09
530.77	39360.79
530.94	39185.25
531.11	39473.13
531.28	39718.89
531.46	39311.64
531.63	39452.07
531.80	39627.61
531.97	39793.79
532.14	39835.92
532.31	39218.02
532.48	39648.68
532.65	39718.89
532.82	39746.98
532.99	40198.70
533.16	39524.63
533.33	39772.72
533.50	40151.89
533.67	39962.31
533.84	39983.37
534.01	39910.82
534.18	40102.74
534.35	40517.01
534.52	40205.72
534.69	40573.19
534.86	40715.96
535.03	40479.57
535.20	40856.39
535.37	40861.07
535.54	41455.57
535.71	40704.26
535.88	40800.22
536.05	40491.27
536.22	40737.02
536.38	40891.50
536.55	40615.32
536.72	40774.47
536.89	40610.64
537.06	41127.89
537.23	41221.52
537.40	41029.59
537.57	41170.02
537.74	41212.15
537.91	41268.33
538.08	41336.20
538.25	40573.19
538.42	41607.70
538.59	41418.12
538.75	41060.02
538.92	41483.66
539.09	41633.45
539.26	41359.61
539.43	41493.02
539.60	41652.17
539.77	41155.98
539.94	41539.83
540.11	41095.13
540.28	41467.27
540.44	41610.04
540.61	41390.03
540.78	41530.47
540.95	41581.96
541.12	41446.21
541.29	41848.78
541.46	41663.88
541.62	42190.50
541.79	42279.44
541.96	41895.59
542.13	42026.66
542.30	42518.17
542.47	42139.00
542.63	41846.44
542.80	42078.15
542.97	42717.12
543.14	42855.21
543.31	42593.07
543.48	42934.79
543.64	43117.35
543.81	43257.78
543.98	42876.27
544.15	42593.07
544.32	42937.13
544.48	43819.51
544.65	42953.51
544.82	42843.51
544.99	43288.21
545.16	43196.93
545.32	42911.38
545.49	43540.99
545.66	43063.52
545.83	43365.45
546.00	43337.36
546.16	43501.20
546.33	42944.15
546.50	42899.68
546.67	43271.82
546.83	43255.44
547.00	43299.91
547.17	43264.80
547.34	43367.79
547.50	43681.42
547.67	43562.05
547.84	43510.56
548.00	43800.79
548.17	43847.60
548.34	43842.92
548.51	43655.67
548.67	43803.13
548.84	43952.92
549.01	43871.00
549.18	44282.94
549.34	44147.18
549.51	44177.61
549.68	44172.93
549.84	44362.51
550.01	43885.04
550.18	43995.05
550.34	43817.17
550.51	43803.13
550.68	43784.40
550.84	43611.20
551.01	43871.00
551.18	43913.13
551.34	44076.97
551.51	44149.53
551.68	44350.81
551.84	44416.35
552.01	44355.49
552.18	44446.77
552.34	44289.96
552.51	44451.45
552.68	44369.54
552.84	44542.74
553.01	44615.29
553.18	43845.26
553.34	44949.99
553.51	44694.87
553.67	44659.76
553.84	44987.44
554.01	44900.84
554.17	44935.95
554.34	44896.16
554.51	44762.75
554.67	44994.46
554.84	44884.45
555.00	44821.26
555.17	44650.40
555.33	45270.64
555.50	44931.26
555.67	45106.80
555.83	45186.38
556.00	44957.01
556.16	45422.78
556.33	45329.16
556.50	45179.36
556.66	45361.92
556.83	44872.75
556.99	45415.76
557.16	45207.45
557.32	44924.24
557.49	45116.17
557.65	45237.87
557.82	45315.11
557.98	45207.45
558.15	44999.14
558.32	45298.73
558.48	45090.42
558.65	45382.99
558.81	45139.57
558.98	45223.83
559.14	45525.76
559.31	45336.18
559.47	45188.72
559.64	45535.12
559.80	45741.09
559.97	45811.31
560.13	45413.41
560.30	45244.90
560.46	45607.68
560.63	45867.48
560.79	45823.01
560.96	46014.93
561.12	46014.93
561.29	45790.24
561.45	45509.38
561.61	45619.38
561.78	45359.58
561.94	45979.82
562.11	45694.28
562.27	45507.04
562.44	45694.28
562.60	46106.21
562.77	45701.30
562.93	45675.55
563.10	46380.06
563.26	45811.31
563.42	45745.77
563.59	45619.38
563.75	45263.62
563.92	45574.91
564.08	45628.74
564.24	46101.53
564.41	46422.19
564.57	45886.20
564.74	45935.35
564.90	46204.52
565.07	45984.51
565.23	45895.56
565.39	46136.64
565.56	46038.34
565.72	45888.54
565.88	45954.08
566.05	45626.40
566.21	45682.58
566.38	45722.37
566.54	45944.72
566.70	45933.01
566.87	46447.93
567.03	46103.87
567.19	46380.06
567.36	46483.04
567.52	46234.94
567.68	46394.10
567.85	46047.70
568.01	46323.88
568.17	45930.67
568.34	45661.51
568.50	45996.21
568.66	46291.12
568.83	46057.06
568.99	45724.71
569.15	45961.10
569.32	46167.07
569.48	46211.54
569.64	46298.14
569.81	46447.93
569.97	46176.43
570.13	46274.73
570.30	46291.12
570.46	46167.07
570.62	46066.42
570.78	45993.87
570.95	46284.09
571.11	46356.65
571.27	46047.70
571.43	46124.94
571.60	46417.50
571.76	46256.01
571.92	46403.46
572.09	46010.25
572.25	46096.85
572.41	46220.90
572.57	46335.59
572.74	46649.22
572.90	46258.35
573.06	46291.12
573.22	46351.97
573.38	46127.28
573.55	45666.19
573.71	46293.46
573.87	46295.80
574.03	46473.68
574.20	46265.37
574.36	46707.73
574.52	46241.96
574.68	46574.32
574.84	46520.49
575.01	46169.41
575.17	46522.83
575.33	46122.60
575.49	46143.66
575.65	46230.26
575.82	46916.04
575.98	46590.70
576.14	46646.88
576.30	47100.94
576.46	46323.88
576.62	46452.61
576.79	46209.20
576.95	46169.41
577.11	46333.24
577.27	46590.70
577.43	46609.43
577.59	46504.10
577.75	46644.54
577.92	45907.27
578.08	45780.88
578.24	46131.96
578.40	46094.51
578.56	46253.67
578.72	46504.10
578.88	46326.22
579.04	46309.84
579.21	46777.95
579.37	46326.22
579.53	46227.92
579.69	46440.91
579.85	46852.84
580.01	46885.61
580.17	46380.06
580.33	46597.73
580.49	47019.02
580.65	46576.66
580.82	46752.20
580.98	46527.51
581.14	46534.53
581.30	46473.68
581.46	46478.36
581.62	46822.42
581.78	46693.69
581.94	46511.13
582.10	46476.02
582.26	46939.44
582.42	46714.75
582.58	46464.32
582.74	46169.41
582.90	46698.37
583.06	46787.31
583.22	46993.28
583.38	46639.86
583.54	46600.07
583.70	46370.69
583.86	46511.13
584.02	46335.59
584.18	46735.82
584.34	46354.31
584.50	46574.32
584.66	46747.52
584.82	46511.13
584.98	46880.93
585.14	46667.94
585.30	46600.07
585.46	46799.01
585.62	46211.54
585.78	46464.32
585.94	45947.06
586.10	46424.53
586.26	46010.25
586.42	46960.51
586.58	46653.90
586.74	46871.57
586.90	46557.94
587.06	46763.90
587.22	46993.28
587.38	46380.06
587.54	47007.32
587.70	46920.72
587.86	46850.50
588.02	46258.35
588.18	46646.88
588.34	46419.84
588.49	46146.00
588.65	45799.60
588.81	46206.86
588.97	46279.41
589.13	46560.28
589.29	45820.67
589.45	46394.10
589.61	46354.31
589.77	46635.17
589.93	46815.40
590.08	46869.23
590.24	46483.04
590.40	46597.73
590.56	46808.37
590.72	46761.56
590.88	46464.32
591.04	46873.91
591.20	46902.00
591.35	46871.57
591.51	47164.14
591.67	46560.28
591.83	46829.44
591.99	46330.90
592.15	46440.91
592.31	46667.94
592.46	46845.82
592.62	46890.29
592.78	46920.72
592.94	46923.06
593.10	46506.44
593.26	46548.57
593.41	46829.44
593.57	46595.38
593.73	46829.44
593.89	46733.48
594.05	46646.88
594.20	46653.90
594.36	46906.68
594.52	46752.20
594.68	46691.35
594.84	46806.03
594.99	46705.39
595.15	46557.94
595.31	46946.47
595.47	46944.12
595.62	46876.25
595.78	46834.12
595.94	47122.01
596.10	47342.02
596.25	46876.25
596.41	46925.40
596.57	46630.49
596.73	47124.35
596.88	46508.79
597.04	46696.03
597.20	46838.80
597.36	47159.45
597.51	46911.36
597.67	47030.72
597.83	46972.21
597.99	47063.49
598.14	46670.28
598.30	46740.50
598.46	46726.46
598.61	46995.62
598.77	46478.36
598.93	46705.39
599.09	47040.09
599.24	47339.68
599.40	46681.98
599.56	47019.02
599.71	46773.27
599.87	47082.22
600.03	47007.32
600.18	46766.24
600.34	46679.64
600.50	46878.59
600.65	46766.24
600.81	46911.36
600.97	47199.24
601.12	47222.65
601.28	46756.88
601.44	46672.62
601.59	46810.71
601.75	46553.26
601.91	46955.83
602.06	46803.69
602.22	46838.80
602.37	47033.07
602.53	46663.26
602.69	47161.79
602.84	46885.61
603.00	46564.96
603.16	46508.79
603.31	46623.47
603.47	46483.04
603.62	46665.60
603.78	47033.07
603.94	46595.38
604.09	47007.32
604.25	46979.23
604.40	46749.86
604.56	46670.28
604.71	46848.16
604.87	46969.87
605.03	46731.14
605.18	46630.49
605.34	46529.85
605.49	46529.85
605.65	46361.33
605.80	46581.34
605.96	46869.23
606.12	46845.82
606.27	46981.57
606.43	46712.41
606.58	46904.34
606.74	46384.74
606.89	46478.36
607.05	46651.56
607.20	46789.65
607.36	46270.05
607.51	46925.40
607.67	46534.53
607.82	46630.49
607.98	46368.35
608.13	46534.53
608.29	46534.53
608.44	46000.89
608.60	45830.03
608.75	45991.53
608.91	46326.22
609.06	46239.62
609.22	46452.61
609.37	46281.75
609.53	46391.76
609.68	46298.14
609.84	46251.33
609.99	45820.67
610.15	46497.08
610.30	46185.79
610.46	45705.98
610.61	46265.37
610.76	46241.96
610.92	46122.60
611.07	46148.34
611.23	46043.02
611.38	46387.08
611.54	45684.92
611.69	46012.59
611.84	45787.90
612.00	46040.68
612.15	45752.79
612.31	46143.66
612.46	46080.47
612.62	46110.89
612.77	45720.02
612.92	46312.18
613.08	45801.94
613.23	45961.10
613.39	45577.25
613.54	45200.43
613.69	45399.37
613.85	45675.55
614.00	46181.11
614.15	46251.33
614.31	45635.77
614.46	45869.82
614.62	45635.77
614.77	45586.61
614.92	45439.16
615.08	45773.86
615.23	45265.96
615.38	45223.83
615.54	45556.19
615.69	45776.20
615.84	45193.40
616.00	45298.73
616.15	45338.52
616.30	45502.35
616.46	45214.47
616.61	45235.53
616.76	45354.90
616.92	45303.41
617.07	45378.31
617.22	45184.04
617.37	44863.39
617.53	45780.88
617.68	45565.55
617.83	45340.86
617.99	45577.25
618.14	45478.95
618.29	44982.76
618.45	44737.00
618.60	45280.00
618.75	45120.85
618.90	45202.77
619.06	45132.55
619.21	44612.95
619.36	45326.81
619.51	45151.27
619.67	45069.36
619.82	45013.18
619.97	45237.87
620.12	44758.06
620.28	44444.43
620.43	45174.68
620.58	44971.05
620.73	44807.22
620.89	44570.82
621.04	44626.99
621.19	44575.50
621.34	44449.11
621.49	44428.05
621.65	44247.83
621.80	44734.66
621.95	44294.64
622.10	44514.65
622.25	44210.38
622.41	43835.89
622.56	44245.49
622.71	44706.57
622.86	44339.11
623.01	44872.75
623.16	44467.84
623.32	44231.44
623.47	44659.76
623.62	44528.69
623.77	44566.14
623.92	44081.65
624.07	44006.75
624.23	43896.75
624.38	43849.94
624.53	44287.62
624.68	44418.69
624.83	44140.16
624.98	44617.63
625.13	43791.42
625.29	43943.56
625.44	44149.53
625.59	43976.33
625.74	43796.10
625.89	43597.16
626.04	43398.21
626.19	43761.00
626.34	44002.07
626.49	43285.87
626.65	43686.10
626.80	43660.35
626.95	43973.98
627.10	43721.21
627.25	43269.48
627.40	42756.91
627.55	43091.60
627.70	42883.30
627.85	43262.46
628.00	42923.08
628.15	43391.19
628.30	43285.87
628.45	43461.41
628.60	43571.41
628.76	43129.05
628.91	43115.01
629.06	43351.40
629.21	42852.87
629.36	43129.05
629.51	43023.73
629.66	43082.24
629.81	42981.60
629.96	42972.24
630.11	43143.09
630.26	43145.44
630.41	42887.98
630.56	42857.55
630.71	43105.65
630.86	42747.54
631.01	42969.90
631.16	42424.55
631.31	42464.34
631.46	42178.79
631.61	42359.02
631.76	42604.77
631.91	43213.31
632.06	42717.12
632.21	42871.59
632.36	42993.30
632.51	42726.48
632.66	42684.35
632.81	42029.00
632.96	42359.02
633.10	42300.50
633.25	42398.80
633.40	42431.57
633.55	42742.86
633.70	42749.88
633.85	42237.31
634.00	42651.58
634.15	42487.74
634.30	42241.99
634.45	42649.24
634.60	42071.13
634.75	42506.47
634.90	42155.39
635.05	42014.96
635.19	42167.09
635.34	42305.18
635.49	42103.90
635.64	42300.50
635.79	41844.10
635.94	41811.33
636.09	42134.32
636.24	41724.73
636.39	41993.89
636.53	41872.18
636.68	41668.56
636.83	41684.94
636.98	42117.94
637.13	41811.33
637.28	41848.78
637.43	41963.46
637.57	42082.83
637.72	41909.63
637.87	42122.62
638.02	41624.09
638.17	41738.77
638.32	41514.08
638.46	41567.91
638.61	41478.97
638.76	41301.09
638.91	41462.59
639.06	41635.79
639.20	41287.05
639.35	41553.87
639.50	41471.95
639.65	41675.58
639.80	41663.88
639.94	41565.57
640.09	41022.57
640.24	40753.41
640.39	40648.08
640.54	40575.53
640.68	41095.13
640.83	41141.94
640.98	41060.02
641.13	40896.18
641.27	41118.53
641.42	41116.19
641.57	41118.53
641.72	40921.93
641.86	40339.13
642.01	40566.16
642.16	40559.14
642.31	40488.93
642.45	41022.57
642.60	40299.34
642.75	40411.69
642.90	41148.96
643.04	41034.27
643.19	40868.09
643.34	40704.26
643.48	40311.05
643.63	40795.54
643.78	40603.61
643.93	39749.32
644.07	40383.60
644.22	40184.66
644.37	40165.93
644.51	40093.38
644.66	40179.98
644.81	40336.79
644.95	40280.62
645.10	40172.96
645.25	40254.87
645.39	40112.10
645.54	40996.82
645.69	40086.36
645.83	40062.95
645.98	40329.77
646.13	40470.20
646.27	40325.09
646.42	39938.90
646.57	39768.04
646.71	39487.18
646.86	40369.56
647.00	40252.53
647.15	40027.84
647.30	39789.11
647.44	39866.34
647.59	39835.92
647.74	40201.04
647.88	40074.65
648.03	39976.35
648.17	40030.18
648.32	39454.41
648.47	39754.00
648.61	39407.60
648.76	39653.36
648.90	39683.78
649.05	39522.29
649.20	39910.82
649.34	39548.03
649.49	39482.50
649.63	39409.94
649.78	39667.40
649.92	39344.41
650.07	39880.39
650.21	39028.43
650.36	39482.50
650.51	39463.77
650.65	39622.93
650.80	39966.99
650.94	40060.61
651.09	39419.30
651.23	39255.46
651.38	39367.81
651.52	39232.06
651.67	39381.85
651.81	39267.17
651.96	39098.65
652.10	39086.95
652.25	39084.61
652.39	38981.62
652.54	39503.56
652.68	39110.35
652.83	39079.92
652.97	39164.18
653.12	38913.75
653.26	39210.99
653.41	39044.82
653.55	38616.50
653.70	38518.20
653.84	38696.08
653.99	38979.28
654.13	38775.66
654.27	38852.89
654.42	38726.50
654.56	38981.62
654.71	38660.97
654.85	38990.98
655.00	38487.77
655.14	38796.72
655.29	38183.50
655.43	38190.52
655.57	38127.33
655.72	37956.47
655.86	37883.91
656.01	37972.85
656.15	38029.02
656.30	38274.78
656.44	37993.92
656.58	37666.24
656.73	37633.47
656.87	37848.80
657.01	37951.79
657.16	38120.31
657.30	37832.42
657.45	37586.66
657.59	38000.94
657.73	37610.07
657.88	37998.60
658.02	38003.28
658.16	37867.53
658.31	37897.95
658.45	37874.55
658.60	37584.32
658.74	37799.65
658.88	37893.27
659.03	37638.15
659.17	37373.67
659.31	37553.90
659.46	37495.38
659.60	37710.71
659.74	37317.50
659.89	37095.15
660.03	37167.71
660.17	37390.06
660.32	37193.45
660.46	37474.32
660.60	37221.54
660.74	37134.94
660.89	37163.03
661.03	36879.82
661.17	37067.06
661.32	36797.90
661.46	36814.29
661.60	36893.86
661.74	36226.81
661.89	36961.74
662.03	36996.85
662.17	36505.34
662.31	36495.97
662.46	36807.26
662.60	36825.99
662.74	36205.75
662.88	36470.23
663.03	36809.61
663.17	36156.60
663.31	36151.91
663.45	36353.20
663.60	36397.67
663.74	36261.92
663.88	36189.36
664.02	35711.89
664.17	36133.19
664.31	35826.58
664.45	35880.41
664.59	35758.70
664.73	35908.50
664.88	35896.80
665.02	35639.34
665.16	35948.29
665.30	35878.07
665.44	35594.87
665.59	35239.11
665.73	35435.71
665.87	34960.58
666.01	35007.39
666.15	34944.20
666.29	35227.40
666.44	35239.11
666.58	35482.52
666.72	35215.70
666.86	35363.15
667.00	35239.11
667.14	35070.59
667.28	34651.63
667.43	34469.07
667.57	34576.73
667.71	34541.63
667.85	34518.22
667.99	34700.78
668.13	34354.38
668.27	34218.63
668.41	34749.93
668.56	34445.66
668.70	34660.99
668.84	34326.30
668.98	34080.54
669.12	34218.63
669.26	34471.41
669.40	33956.49
669.54	33977.56
669.68	34031.39
669.82	34078.20
669.96	33717.76
670.10	33759.89
670.25	33823.08
670.39	33493.07
670.53	33610.09
670.67	33633.50
670.81	33383.06
670.95	33617.11
671.09	33560.94
671.23	33713.08
671.37	33172.41
671.51	33420.51
671.65	33364.34
671.79	33259.01
671.93	33158.37
672.07	33439.23
672.21	32823.67
672.35	32566.21
672.49	33195.82
672.63	33399.44
672.77	32877.51
672.91	32706.65
673.05	32376.63
673.19	32563.87
673.33	32542.81
673.47	32093.43
673.61	32339.18
673.75	32149.60
673.89	31658.09
674.03	31934.27
674.17	31566.81
674.31	31749.37
674.45	31449.78
674.59	31576.17
674.73	32271.31
674.87	31847.67
675.01	31498.93
675.15	32346.20
675.29	31646.38
675.43	31470.84
675.56	31782.13
675.70	31541.06
675.84	31332.75
675.98	30221.00
676.12	31019.12
676.26	30541.65
676.40	30553.35
676.54	30553.35
676.68	30586.12
676.82	30103.97
676.96	30319.30
677.10	30331.00
677.23	29912.05
677.37	30038.44
677.51	29937.79
677.65	30394.20
677.79	30057.16
677.93	29638.20
678.07	30005.67
678.21	29572.67
678.34	29362.02
678.48	29273.08
678.62	29563.31
678.76	29158.39
678.90	28950.09
679.04	29125.63
679.18	29448.62
679.31	28629.43
679.45	28858.81
679.59	28891.57
679.73	28432.83
679.87	28528.79
680.00	28591.98
680.14	28383.68
680.28	28720.71
680.42	28306.44
680.56	27974.08
680.70	27894.50
680.83	28217.50
680.97	27866.42
681.11	28018.55
681.25	27627.68
681.39	27503.64
681.52	27878.12
681.66	27615.98
681.80	27658.11
681.94	27290.65
682.07	27531.72
682.21	27136.17
682.35	27126.81
682.49	27094.04
682.62	26937.23
682.76	26780.41
682.90	26555.72
683.04	26726.58
683.17	26309.96
683.31	26604.87
683.45	26998.08
683.59	26518.27
683.72	25813.77
683.86	26157.83
684.00	25685.04
684.13	26199.96
684.27	25687.38
684.41	26195.28
684.55	25652.27
684.68	25230.98
684.82	25191.19
684.96	25572.69
685.09	25462.69
685.23	24973.52
685.37	25380.77
685.50	24870.53
685.64	25413.54
685.78	25076.50
685.91	24783.93
686.05	24847.13
686.19	24460.94
686.32	24800.32
686.46	24643.50
686.60	23730.69
686.73	24105.18
686.87	23690.90
687.01	23442.81
687.14	23473.23
687.28	23630.05
687.42	23407.70
687.55	23335.14
687.69	23370.25
687.82	23424.08
687.96	23300.03
688.10	23606.64
688.23	23208.75
688.37	22993.42
688.50	22871.72
688.64	22717.24
688.78	22801.50
688.91	22939.59
689.05	22801.50
689.18	22483.19
689.32	22260.84
689.46	22087.64
689.59	22677.45
689.73	22698.52
689.86	22274.88
690.00	22174.24
690.13	22609.58
690.27	22391.91
690.41	22052.53
690.54	21872.31
690.68	21738.90
690.81	21940.18
690.95	21392.50
691.08	21596.12
691.22	21404.20
691.35	21708.47
691.49	21481.44
691.62	21488.46
691.76	21184.19
691.89	21170.15
692.03	21177.17
692.16	21010.99
692.30	21097.59
692.43	20652.89
692.57	20767.57
692.70	20409.47
692.84	20533.52
692.97	20456.28
693.11	20180.10
693.24	19988.18
693.38	20374.36
693.51	20175.42
693.65	19960.09
693.78	20121.59
693.92	19721.35
694.05	19634.75
694.19	19538.79
694.32	19590.28
694.45	19803.27
694.59	19309.42
694.72	19473.26
694.86	19412.40
694.99	19110.47
695.13	18960.68
695.26	18991.11
695.39	18878.76
695.53	18717.26
695.66	18778.12
695.80	18979.40
695.93	18508.96
696.07	18415.34
696.20	18761.73
696.33	18471.51
696.47	18499.59
696.60	18398.95
696.73	18272.56
696.87	18204.69
697.00	18118.09
697.14	18043.19
697.27	17797.43
697.40	17975.31
697.54	17869.99
697.67	18029.15
697.80	17575.08
697.94	17605.51
698.07	17699.13
698.21	17561.04
698.34	17692.11
698.47	17373.80
698.61	16978.25
698.74	17050.80
698.87	17334.01
699.01	17025.06
699.14	16805.05
699.27	16840.15
699.40	16765.26
699.54	16716.11
699.67	16718.45
699.80	16655.25
699.94	16255.02
700.07	16219.91
700.20	16365.03
700.34	16376.73
700.47	15983.52
700.60	16240.98
700.73	16451.63
700.87	16194.17
701.00	16123.95
701.13	15840.75
701.26	15882.88
701.40	15789.25
701.53	15735.42
701.66	15641.80
701.79	15602.01
701.93	15353.91
702.06	15199.44
702.19	15183.06
702.32	15089.43
702.46	14951.34
702.59	15281.36
702.72	15094.11
702.85	14956.02
702.99	15372.64
703.12	15021.56
703.25	14771.12
703.38	14853.04
703.51	14691.54
703.65	14796.87
703.78	14703.25
703.91	14600.26
704.04	14508.98
704.17	14579.20
704.31	14200.03
704.44	13900.44
704.57	13909.80
704.70	13879.38
704.83	13891.08
704.96	14171.94
705.10	14171.94
705.23	14178.97
>>>>>End Processed Spectral Data<<<<<
