SpectraSuite Data File
++++++++++++++++++++++++++++++++++++
Date: Fri Oct 25 11:34:48 EDT 2013
User: price-jones
Dark Spectrum Present: No
Reference Spectrum Present: No
Number of Sampled Component Spectra: 1
Spectrometers: USB2+H05261
Integration Time (usec): 100000 (USB2+H05261)
Spectra Averaged: 1 (USB2+H05261)
Boxcar Smoothing: 0 (USB2+H05261)
Correct for Electrical Dark: No (USB2+H05261)
Strobe/Lamp Enabled: No (USB2+H05261)
Correct for Detector Non-linearity: No (USB2+H05261)
Correct for Stray Light: No (USB2+H05261)
Number of Pixels in Processed Spectrum: 2048
>>>>>Begin Processed Spectral Data<<<<<
365.73	278.52
365.92	278.52
366.12	278.52
366.32	208.31
366.52	208.31
366.72	168.52
366.91	184.90
367.11	114.69
367.31	168.52
367.51	145.11
367.70	135.75
367.90	175.54
368.10	166.18
368.30	126.39
368.49	208.31
368.69	248.10
368.89	161.50
369.09	184.90
369.28	257.46
369.48	175.54
369.68	212.99
369.87	255.12
370.07	264.48
370.27	198.95
370.47	311.29
370.66	484.49
370.86	468.11
371.06	503.22
371.25	601.52
371.45	505.56
371.65	524.28
371.84	477.47
372.04	643.65
372.24	624.92
372.44	636.63
372.63	564.07
372.83	596.84
373.03	641.31
373.22	566.41
373.42	498.53
373.62	566.41
373.81	599.18
374.01	660.03
374.21	631.94
374.40	631.94
374.60	624.92
374.79	662.37
374.99	638.97
375.19	678.76
375.38	594.50
375.58	734.93
375.78	662.37
375.97	641.31
376.17	657.69
376.37	704.50
376.56	720.88
376.76	550.03
376.95	688.12
377.15	730.25
377.35	725.57
377.54	671.73
377.74	688.12
377.93	566.41
378.13	704.50
378.33	695.14
378.52	720.88
378.72	739.61
378.91	669.39
379.11	674.07
379.31	667.05
379.50	739.61
379.70	748.97
379.89	711.52
380.09	709.18
380.28	713.86
380.48	688.12
380.68	676.41
380.87	723.23
381.07	772.38
381.26	767.70
381.46	781.74
381.65	746.63
381.85	709.18
382.04	681.10
382.24	851.96
382.43	779.40
382.63	739.61
382.83	751.31
383.02	802.80
383.22	751.31
383.41	718.54
383.61	840.25
383.80	814.51
384.00	798.12
384.19	744.29
384.39	896.43
384.58	826.21
384.78	816.85
384.97	805.14
385.17	765.36
385.36	828.55
385.56	833.23
385.75	830.89
385.95	791.10
386.14	861.32
386.34	875.36
386.53	894.08
386.72	828.55
386.92	912.81
387.11	835.57
387.31	779.40
387.50	784.08
387.70	833.23
387.89	767.70
388.09	844.93
388.28	875.36
388.48	905.79
388.67	922.17
388.86	936.21
389.06	1001.75
389.25	896.43
389.45	931.53
389.64	835.57
389.84	983.02
390.03	849.61
390.22	889.40
390.42	964.30
390.61	894.08
390.81	889.40
391.00	999.41
391.19	994.73
391.39	887.06
391.58	978.34
391.78	973.66
391.97	1006.43
392.16	1034.52
392.36	1107.07
392.55	957.28
392.75	994.73
392.94	945.58
393.13	1015.79
393.33	1057.92
393.52	1006.43
393.71	1114.10
393.91	980.68
394.10	1121.12
394.29	1004.09
394.49	1015.79
394.68	1081.33
394.88	1018.13
395.07	1053.24
395.26	1109.41
395.46	1100.05
395.65	1116.44
395.84	1174.95
396.04	1163.25
396.23	1226.44
396.42	1128.14
396.62	1158.57
396.81	1275.59
397.00	1048.56
397.19	1231.12
397.39	1221.76
397.58	1193.67
397.77	1233.46
397.97	1221.76
398.16	1219.42
398.35	1205.38
398.55	1261.55
398.74	1291.98
398.93	1212.40
399.12	1294.32
399.32	1249.85
399.51	1228.78
399.70	1376.24
399.90	1345.81
400.09	1336.45
400.28	1315.38
400.47	1266.23
400.67	1359.85
400.86	1334.11
401.05	1345.81
401.24	1341.13
401.44	1418.36
401.63	1425.39
401.82	1355.17
402.01	1451.13
402.21	1416.02
402.40	1399.64
402.59	1427.73
402.78	1362.19
402.97	1355.17
403.17	1420.71
403.36	1432.41
403.55	1537.73
403.74	1497.94
403.93	1516.67
404.13	1474.54
404.32	1621.99
404.51	1509.65
404.70	1511.99
404.89	1575.18
405.09	1575.18
405.28	1664.12
405.47	1554.12
405.66	1605.61
405.85	1631.35
406.05	1631.35
406.24	1614.97
406.43	1657.10
406.62	1724.97
406.81	1734.34
407.00	1722.63
407.20	1654.76
407.39	1682.85
407.58	1764.76
407.77	1820.94
407.96	1706.25
408.15	1781.15
408.34	1867.75
408.54	1785.83
408.73	1816.26
408.92	1865.41
409.11	1783.49
409.30	1996.48
409.49	1926.26
409.68	1952.01
409.87	1902.86
410.07	1975.41
410.26	1956.69
410.45	1764.76
410.64	2047.97
410.83	2012.86
411.02	2010.52
411.21	2036.27
411.40	1952.01
411.59	2111.16
411.78	2127.55
411.98	2033.93
412.17	2193.08
412.36	2040.95
412.55	2148.61
412.74	2120.53
412.93	2195.42
413.12	2214.15
413.31	2375.64
413.50	2232.87
413.69	2310.11
413.88	2326.49
414.07	2296.07
414.26	2340.54
414.45	2359.26
414.64	2429.48
414.83	2509.05
415.02	2457.56
415.22	2392.03
415.41	2506.71
415.60	2445.86
415.79	2593.31
415.98	2672.89
416.17	2602.68
416.36	2509.05
416.55	2637.78
416.74	2663.53
416.93	2724.38
417.12	2642.46
417.31	2605.02
417.50	2731.41
417.69	2888.22
417.88	2796.94
418.07	2799.28
418.26	2686.94
418.45	2913.97
418.64	2916.31
418.83	2761.83
419.02	2925.67
419.21	3089.51
419.39	2995.89
419.58	2818.00
419.77	2822.69
419.96	3016.95
420.15	2993.55
420.34	3028.65
420.53	3026.31
420.72	2953.76
420.91	3056.74
421.10	3094.19
421.29	3068.44
421.48	3000.57
421.67	3126.96
421.86	3173.77
422.05	3096.53
422.24	3117.59
422.43	3103.55
422.61	3171.43
422.80	3201.85
422.99	3201.85
423.18	3194.83
423.37	3246.32
423.56	3204.19
423.75	3314.20
423.94	3234.62
424.13	2869.50
424.32	3084.83
424.50	3279.09
424.69	3314.20
424.88	3192.49
425.07	3192.49
425.26	3206.53
425.45	3286.11
425.64	3178.45
425.83	3248.66
426.01	3323.56
426.20	3269.73
426.39	3162.06
426.58	3335.26
426.77	3288.45
426.96	3321.22
427.15	3410.16
427.33	3405.48
427.52	3372.71
427.71	3468.67
427.90	3339.94
428.09	3412.50
428.28	3449.95
428.46	3566.98
428.65	3475.70
428.84	3609.11
429.03	3576.34
429.22	3349.31
429.40	3625.49
429.59	3559.95
429.78	3435.91
429.97	3356.33
430.16	3534.21
430.34	3578.68
430.53	3754.22
430.72	3740.18
430.91	3681.66
431.10	3669.96
431.28	3880.61
431.47	3803.37
431.66	3658.26
431.85	3761.24
432.03	3852.52
432.22	3796.35
432.41	3866.56
432.60	3948.48
432.79	3878.27
432.97	3889.97
433.16	3852.52
433.35	3737.84
433.54	3911.04
433.72	3969.55
433.91	4030.40
434.10	3913.38
434.28	3997.64
434.47	4021.04
434.66	3957.85
434.85	4035.08
435.03	3880.61
435.22	4002.32
435.41	4344.03
435.59	4142.75
435.78	4252.75
435.97	4224.67
436.16	4112.32
436.34	4187.22
436.53	4205.94
436.72	4339.35
436.90	4201.26
437.09	4332.33
437.28	4212.96
437.46	4285.52
437.65	4243.39
437.84	4397.87
438.02	4379.14
438.21	4444.68
438.40	4276.16
438.58	4503.19
438.77	4662.35
438.96	4472.76
439.14	4552.34
439.33	4571.07
439.52	4753.63
439.70	4620.22
439.89	4765.33
440.08	4821.50
440.26	4748.95
440.45	4655.33
440.63	4713.84
440.82	4891.72
441.01	4905.76
441.19	4896.40
441.38	4978.32
441.57	5125.77
441.75	4873.00
441.94	5020.45
442.12	5144.50
442.31	5158.54
442.50	5064.92
442.68	5046.20
442.87	5188.97
443.05	5193.65
443.24	5343.44
443.43	5247.48
443.61	5268.55
443.80	5516.64
443.98	5174.92
444.17	4950.23
444.35	5282.59
444.54	5280.25
444.73	5343.44
444.91	5336.42
445.10	5261.52
445.28	5221.74
445.47	5263.86
445.65	5315.36
445.84	5406.64
446.02	5322.38
446.21	5139.82
446.39	5308.34
446.58	5401.96
446.77	5497.92
446.95	5313.02
447.14	5586.86
447.32	5441.75
447.51	5392.59
447.69	5320.04
447.88	5366.85
448.06	5472.17
448.25	5408.98
448.43	5439.40
448.62	5521.32
448.80	5376.21
448.99	5528.35
449.17	5652.39
449.36	5528.35
449.54	5710.91
449.73	5694.52
449.91	5722.61
450.10	5778.78
450.28	5860.70
450.46	5734.31
450.65	5785.80
450.83	5696.86
451.02	5792.83
451.20	5764.74
451.39	5741.33
451.57	5860.70
451.76	5738.99
451.94	5849.00
452.13	5879.43
452.31	6045.60
452.49	5881.77
452.68	5977.73
452.86	5991.77
453.05	6101.78
453.23	6003.47
453.42	5991.77
453.60	5996.45
453.78	6090.07
453.97	6040.92
454.15	5994.11
454.34	5935.60
454.52	6183.70
454.70	6218.80
454.89	6026.88
455.07	6195.40
455.26	6221.14
455.44	6274.98
455.62	6347.53
455.81	6225.82
455.99	6375.62
456.17	6202.42
456.36	6282.00
456.54	6293.70
456.73	6370.94
456.91	6691.59
457.09	6473.92
457.28	6726.70
457.46	6583.93
457.64	6602.65
457.83	6684.57
458.01	6686.91
458.19	6630.74
458.38	6707.98
458.56	6810.96
458.74	6815.64
458.93	6726.70
459.11	6731.38
459.29	6644.78
459.48	7007.56
459.66	6895.22
459.84	6766.49
460.03	7117.57
460.21	6869.47
460.39	6892.88
460.57	7204.17
460.76	7049.69
460.94	6981.82
461.12	6956.07
461.31	7023.95
461.49	7157.36
461.67	7056.72
461.85	7368.01
462.04	7112.89
462.22	7363.33
462.40	7321.20
462.59	7222.89
462.77	7119.91
462.95	7253.32
463.13	7157.36
463.32	7330.56
463.50	7288.43
463.68	7468.65
463.86	7260.34
464.05	7325.88
464.23	7494.40
464.41	7386.73
464.59	7290.77
464.78	7712.07
464.96	7435.88
465.14	7276.73
465.32	7501.42
465.50	7754.19
465.69	7578.65
465.87	7676.96
466.05	7573.97
466.23	7758.88
466.41	7613.76
466.60	8025.70
466.78	7566.95
466.96	7735.47
467.14	7719.09
467.32	7850.16
467.51	8009.31
467.69	7625.47
467.87	7962.50
468.05	7988.25
468.23	7770.58
468.41	7978.89
468.60	8042.08
468.78	7962.50
468.96	8065.49
469.14	8107.62
469.32	8049.10
469.50	7960.16
469.69	7918.03
469.87	8231.66
470.05	8257.41
470.23	8224.64
470.41	8362.73
470.59	8133.36
470.77	8327.63
470.95	8400.18
471.14	8479.76
471.32	8299.54
471.50	8491.46
471.68	8578.06
471.86	8425.93
472.04	8650.62
472.22	8737.22
472.40	8514.87
472.58	8559.34
472.77	8695.09
472.95	8971.27
473.13	9165.54
473.31	8828.50
473.49	8758.28
473.67	8954.89
473.85	9043.83
474.03	8961.91
474.21	9156.18
474.39	9439.38
474.57	9268.52
474.75	9341.08
474.93	9348.10
475.12	9444.06
475.30	9593.86
475.48	9364.48
475.66	9430.02
475.84	9369.16
476.02	9776.42
476.20	9460.45
476.38	9813.87
476.56	9928.55
476.74	9940.26
476.92	9888.76
477.10	9853.66
477.28	10143.88
477.46	10211.76
477.64	10335.81
477.82	10310.06
478.00	10719.65
478.18	10190.69
478.36	10469.22
478.54	10576.88
478.72	10752.42
478.90	10801.57
479.08	11094.14
479.26	10939.66
479.44	10815.62
479.62	11145.63
479.80	11145.63
479.98	11162.01
480.16	11335.21
480.34	11414.79
480.52	11660.55
480.70	11316.49
480.88	11442.88
481.06	11634.80
481.24	11779.92
481.41	11768.21
481.59	11719.06
481.77	12004.61
481.95	12166.10
482.13	12131.00
482.31	12058.44
482.49	12355.69
482.67	12517.18
482.85	12744.22
483.03	12765.28
483.21	12748.90
483.39	12987.63
483.57	12690.38
483.74	13205.30
483.92	13041.46
484.10	13074.23
484.28	13422.97
484.46	13731.92
484.64	13685.11
484.82	13476.80
485.00	13834.91
485.18	14057.26
485.35	14281.95
485.53	13912.14
485.71	14328.76
485.89	14469.19
486.07	14459.83
486.25	14338.12
486.43	14754.74
486.61	14670.48
486.78	14888.15
486.96	14876.44
487.14	15002.83
487.32	15173.69
487.50	15014.54
487.68	15492.01
487.85	15583.29
488.03	15466.26
488.21	15829.04
488.39	16135.65
488.57	15936.71
488.75	16093.52
488.92	16170.76
489.10	16676.32
489.28	16524.18
489.46	16779.30
489.64	16748.87
489.81	16931.44
489.99	17069.53
490.17	17083.57
490.35	17195.92
490.53	17481.46
490.70	17397.20
490.88	17390.18
491.06	17511.89
491.24	17706.15
491.41	17778.71
491.59	17926.16
491.77	17514.23
491.95	17912.12
492.13	18504.28
492.30	18546.40
492.48	18515.98
492.66	18710.24
492.84	18572.15
493.01	19159.63
493.19	19005.15
493.37	18773.44
493.54	19349.21
493.72	19548.15
493.90	19278.99
494.08	19826.68
494.25	19672.20
494.43	19730.72
494.61	19866.47
494.79	19758.80
494.96	19723.69
495.14	19934.34
495.32	20280.74
495.49	20688.00
495.67	20229.25
495.85	20428.20
496.02	20772.25
496.20	20877.58
496.38	21151.42
496.55	20957.16
496.73	21558.67
496.91	21392.50
497.09	21018.01
497.26	21092.91
497.44	21263.77
497.62	21687.40
497.79	21893.37
497.97	21898.05
498.14	22143.81
498.32	22342.75
498.50	22419.99
498.67	22635.32
498.85	22352.12
499.03	22838.95
499.20	22721.92
499.38	22614.26
499.56	22810.86
499.73	23014.49
499.91	23058.96
500.08	23295.35
500.26	23005.13
500.44	23126.83
500.61	23051.94
500.79	23346.84
500.97	23454.51
501.14	23800.91
501.32	23976.45
501.49	23669.84
501.67	23889.85
501.84	23927.30
502.02	23964.75
502.20	23943.68
502.37	24224.54
502.55	23908.57
502.72	24123.90
502.90	24690.31
503.07	24159.01
503.25	24402.43
503.43	24641.16
503.60	24943.09
503.78	24999.26
503.95	24755.85
504.13	24968.84
504.30	25041.39
504.48	25317.57
504.65	24947.77
504.83	25448.64
505.01	25542.27
505.18	25280.13
505.36	25668.66
505.53	25411.20
505.71	25813.77
505.88	25661.63
506.06	25500.14
506.23	25413.54
506.41	25656.95
506.58	25876.96
506.76	26424.65
506.93	26333.37
507.11	25888.67
507.28	26169.53
507.46	26403.58
507.63	26387.20
507.81	26827.22
507.98	26260.81
508.16	26642.32
508.33	26874.03
508.50	26778.07
508.68	26721.90
508.85	26890.41
509.03	26988.72
509.20	27234.47
509.38	27393.63
509.55	27342.14
509.73	27524.70
509.90	27566.83
510.08	27751.73
510.25	27435.76
510.42	27789.18
510.60	27618.32
510.77	27758.75
510.95	28500.70
511.12	28053.66
511.30	27679.18
511.47	27723.65
511.64	28203.46
511.82	28507.72
511.99	28343.89
512.17	28657.52
512.34	28374.31
512.51	28699.65
512.69	29024.98
512.86	28809.65
513.04	29032.00
513.21	28926.68
513.38	28655.18
513.56	29322.23
513.73	28521.77
513.90	29390.11
514.08	29057.75
514.25	29432.24
514.43	29755.23
514.60	29364.36
514.77	29600.76
514.95	29830.13
515.12	29677.99
515.29	29757.57
515.47	29977.58
515.64	30302.92
515.81	29926.09
515.99	30141.42
516.16	30258.45
516.33	30136.74
516.51	30279.51
516.68	30312.28
516.85	30403.56
517.03	30663.36
517.20	30637.61
517.37	30642.29
517.54	30803.79
517.72	31159.55
517.89	30719.53
518.06	30885.71
518.24	31005.08
518.41	30780.39
518.58	31164.23
518.75	30796.77
518.93	30845.92
519.10	31314.03
519.27	31428.71
519.45	31070.61
519.62	31644.04
519.79	31721.28
519.96	31672.13
520.14	31709.58
520.31	31550.42
520.48	32119.17
520.65	31545.74
520.83	32498.34
521.00	32268.97
521.17	32402.38
521.34	31854.69
521.52	32601.32
521.69	32266.63
521.86	32381.31
522.03	32683.24
522.20	32699.62
522.38	32996.87
522.55	32926.66
522.72	32699.62
522.89	33113.90
523.07	33134.96
523.24	33188.80
523.41	33088.15
523.58	32996.87
523.75	33383.06
523.92	33041.34
524.10	33280.08
524.27	32985.17
524.44	33717.76
524.61	33324.55
524.78	33472.00
524.96	33778.61
525.13	33617.11
525.30	33766.91
525.47	34162.46
525.64	33848.83
525.81	33940.11
525.98	34000.96
526.16	33940.11
526.33	33954.15
526.50	34223.31
526.67	34059.48
526.84	34164.80
527.01	34125.01
527.18	34239.70
527.36	34485.45
527.53	34628.23
527.70	34871.64
527.87	34885.68
528.04	34941.86
528.21	34600.14
528.38	34487.79
528.55	35192.30
528.72	34635.25
528.89	35236.77
529.07	34635.25
529.24	34951.22
529.41	35196.98
529.58	35054.20
529.75	35068.25
529.92	35466.14
530.09	34962.92
530.26	35445.07
530.43	35522.31
530.60	35442.73
530.77	35299.96
530.94	35786.79
531.11	35372.52
531.28	35620.61
531.46	35686.15
531.63	35618.27
531.80	35880.41
531.97	35878.07
532.14	35969.35
532.31	35957.65
532.48	36517.04
532.65	35880.41
532.82	35924.88
532.99	36257.24
533.16	36278.30
533.33	36282.98
533.50	36526.40
533.67	36163.62
533.84	35992.76
534.01	36264.26
534.18	36325.11
534.35	36985.15
534.52	36985.15
534.69	36985.15
534.86	36767.48
535.03	37085.79
535.20	36957.06
535.37	37085.79
535.54	36924.29
535.71	36884.50
535.88	36807.26
536.05	37371.33
536.22	37027.28
536.38	37006.21
536.55	37060.04
536.72	37240.26
536.89	36999.19
537.06	37151.32
537.23	37308.14
537.40	37336.23
537.57	37092.81
537.74	37518.79
537.91	37867.53
538.08	37581.98
538.25	37359.63
538.42	37717.73
538.59	37787.95
538.75	37921.36
538.92	37972.85
539.09	37944.76
539.26	38150.73
539.43	37680.28
539.60	37706.03
539.77	37846.46
539.94	38476.07
540.11	38192.86
540.28	38375.42
540.44	38199.88
540.61	37893.27
540.78	38623.52
540.95	38291.16
541.12	38209.25
541.29	38251.38
541.46	38120.31
541.62	38607.14
541.79	38712.46
541.96	38181.16
542.13	38728.84
542.30	38682.03
542.47	38557.99
542.63	39248.44
542.80	38920.77
542.97	39358.45
543.14	39489.52
543.31	39241.42
543.48	38848.21
543.64	39365.47
543.81	39548.03
543.98	39222.70
544.15	39388.88
544.32	39431.01
544.48	39842.94
544.65	39651.02
544.82	39758.68
544.99	39445.05
545.16	39838.26
545.32	39379.51
545.49	39868.69
545.66	40407.01
545.83	40142.53
546.00	39992.73
546.16	39990.39
546.33	39885.07
546.50	39775.06
546.67	39847.62
546.83	39856.98
547.00	39828.90
547.17	39601.86
547.34	40341.47
547.50	40168.27
547.67	40491.27
547.84	40196.36
548.00	40147.21
548.17	40889.16
548.34	40655.11
548.51	40669.15
548.67	40378.92
548.84	40289.98
549.01	40524.04
549.18	40313.39
549.34	40999.16
549.51	40837.67
549.68	40804.90
549.84	40877.46
550.01	40989.80
550.18	40547.44
550.34	40767.45
550.51	40868.09
550.68	41081.08
550.84	40687.87
551.01	40924.27
551.18	40900.86
551.34	40832.99
551.51	41069.38
551.68	41205.13
551.84	41099.81
552.01	41212.15
552.18	41036.61
552.34	40832.99
552.51	41254.28
552.68	41006.19
552.84	41420.46
553.01	41383.01
553.18	40758.09
553.34	41296.41
553.51	41254.28
553.67	41968.15
553.84	41663.88
554.01	41579.62
554.17	41621.75
554.34	42164.75
554.51	41500.04
554.67	41457.91
554.84	41600.68
555.00	41977.51
555.17	41549.19
555.33	42054.75
555.50	41596.00
555.67	42071.13
555.83	41827.71
556.00	41860.48
556.16	42169.43
556.33	42302.84
556.50	42117.94
556.66	41951.76
556.83	42106.24
556.99	42698.39
557.16	42237.31
557.32	42293.48
557.49	42497.11
557.65	42141.35
557.82	42590.73
557.98	42263.05
558.15	42045.38
558.32	42527.53
558.48	42363.70
558.65	42419.87
558.81	42377.74
558.98	42267.73
559.14	42300.50
559.31	42522.85
559.47	42939.47
559.64	42597.75
559.80	42703.07
559.97	42623.50
560.13	42593.07
560.30	42359.02
560.46	42990.96
560.63	42756.91
560.79	42948.83
560.96	42784.99
561.12	42895.00
561.29	42967.55
561.45	43232.04
561.61	43236.72
561.78	42913.72
561.94	43166.50
562.11	43164.16
562.27	43079.90
562.44	43161.82
562.60	43412.26
562.77	42932.45
562.93	43047.13
563.10	43194.59
563.26	43473.11
563.42	43571.41
563.59	42899.68
563.75	42656.26
563.92	42958.19
564.08	42974.58
564.24	43454.39
564.41	43452.05
564.57	43452.05
564.74	43323.32
564.90	43351.40
565.07	43330.34
565.23	43147.78
565.39	43580.78
565.56	43110.33
565.72	43007.34
565.88	43447.36
566.05	43405.23
566.21	43391.19
566.38	43215.65
566.54	43356.08
566.70	43604.18
566.87	43269.48
567.03	43510.56
567.19	43484.81
567.36	43826.53
567.52	43585.46
567.68	44102.71
567.85	43749.29
568.01	43992.71
568.17	43213.31
568.34	43866.32
568.50	43859.30
568.66	43313.95
568.83	43749.29
568.99	43814.83
569.15	43770.36
569.32	43868.66
569.48	43459.07
569.64	44039.52
569.81	44046.54
569.97	44004.41
570.13	43999.73
570.30	43716.53
570.46	43456.73
570.62	43641.63
570.78	43658.01
570.95	43878.02
571.11	44268.89
571.27	43880.36
571.43	44107.40
571.60	44072.29
571.76	44158.89
571.92	43863.98
572.09	44002.07
572.25	43662.69
572.41	43901.43
572.57	43569.07
572.74	44098.03
572.90	44051.22
573.06	44435.07
573.22	43674.40
573.38	44465.50
573.55	44053.56
573.71	44311.02
573.87	44439.75
574.03	43938.88
574.20	44294.64
574.36	44231.44
574.52	44460.82
574.68	44289.96
574.84	44781.47
575.01	43985.69
575.17	44535.71
575.33	44596.57
575.49	44184.63
575.65	44313.36
575.82	44659.76
575.98	44009.09
576.14	44479.54
576.30	44968.71
576.46	44119.10
576.62	44306.34
576.79	44163.57
576.95	44067.61
577.11	44306.34
577.27	44278.25
577.43	44182.29
577.59	44224.42
577.75	44144.84
577.92	43894.41
578.08	44121.44
578.24	44081.65
578.40	44751.04
578.56	44545.08
578.72	44582.52
578.88	44374.22
579.04	44472.52
579.21	43964.62
579.37	44624.65
579.53	44418.69
579.69	44231.44
579.85	44299.32
580.01	44430.39
580.17	44315.70
580.33	44547.42
580.49	44406.98
580.65	44645.72
580.82	44500.61
580.98	44027.82
581.14	44561.46
581.30	44942.97
581.46	44306.34
581.62	44072.29
581.78	44406.98
581.94	44364.85
582.10	44308.68
582.26	44678.49
582.42	44779.13
582.58	44048.88
582.74	43910.79
582.90	44788.49
583.06	44505.29
583.22	44477.20
583.38	44839.98
583.54	44741.68
583.70	43873.34
583.86	45059.99
584.02	44505.29
584.18	44903.18
584.34	44666.78
584.50	45139.57
584.66	44924.24
584.82	44554.44
584.98	44722.96
585.14	44446.77
585.30	44629.34
585.46	44619.97
585.62	44502.95
585.78	44786.15
585.94	44037.18
586.10	44612.95
586.26	44392.94
586.42	44774.45
586.58	44938.29
586.74	44753.38
586.90	44245.49
587.06	44708.91
587.22	44769.77
587.38	44760.40
587.54	44622.31
587.70	44975.73
587.86	44371.88
588.02	44809.56
588.18	44126.12
588.34	44575.50
588.49	45038.93
588.65	44364.85
588.81	44727.64
588.97	44711.25
589.13	44961.69
589.29	44545.08
589.45	45174.68
589.61	44741.68
589.77	44816.58
589.93	44804.88
590.08	45162.98
590.24	44907.86
590.40	45209.79
590.56	45289.37
590.72	45333.84
590.88	44680.83
591.04	44879.77
591.20	44987.44
591.35	45050.63
591.51	45607.68
591.67	45432.14
591.83	45387.67
591.99	44999.14
592.15	45158.30
592.31	44994.46
592.46	45301.07
592.62	45296.39
592.78	45240.21
592.94	44781.47
593.10	45289.37
593.26	45280.00
593.41	45546.82
593.57	45109.14
593.73	45132.55
593.89	45942.38
594.05	45600.66
594.20	45532.78
594.36	45331.50
594.52	45560.87
594.68	45380.65
594.84	44987.44
594.99	45450.86
595.15	45216.81
595.31	45387.67
595.47	45127.87
595.62	45464.91
595.78	45113.83
595.94	45766.84
596.10	45244.90
596.25	45301.07
596.41	45642.79
596.57	45294.05
596.73	45661.51
596.88	45734.07
597.04	45205.11
597.20	45230.85
597.36	45048.29
597.51	45354.90
597.67	45308.09
597.83	45099.78
597.99	45698.96
598.14	45010.84
598.30	45312.77
598.46	45546.82
598.61	45504.70
598.77	45340.86
598.93	45324.47
599.09	45818.33
599.24	45773.86
599.40	45455.54
599.56	45523.42
599.71	45612.36
599.87	45762.15
600.03	45715.34
600.18	45556.19
600.34	45584.27
600.50	45272.98
600.65	45258.94
600.81	45717.68
600.97	45701.30
601.12	45579.59
601.28	45605.34
601.44	45081.06
601.59	45762.15
601.75	45111.49
601.91	45638.11
602.06	45256.60
602.22	45769.18
602.37	45359.58
602.53	45167.66
602.69	45930.67
602.84	44992.12
603.00	45418.10
603.16	45052.97
603.31	45392.35
603.47	45813.65
603.62	45741.09
603.78	46005.57
603.94	45745.77
604.09	45736.41
604.25	45556.19
604.40	45294.05
604.56	45818.33
604.71	45455.54
604.87	45350.22
605.03	45464.91
605.18	45455.54
605.34	45806.62
605.49	45085.74
605.65	45579.59
605.80	44966.37
605.96	45404.05
606.12	45191.06
606.27	45441.50
606.43	45258.94
606.58	45165.32
606.74	44884.45
606.89	45404.05
607.05	45764.49
607.20	45230.85
607.36	45347.88
607.51	45485.97
607.67	45230.85
607.82	45282.34
607.98	45146.59
608.13	45432.14
608.29	45097.44
608.44	45141.91
608.60	44858.71
608.75	45338.52
608.91	44713.59
609.06	45455.54
609.22	45570.23
609.37	45207.45
609.53	45361.92
609.68	45319.79
609.84	45237.87
609.99	45408.73
610.15	45659.17
610.30	45205.11
610.46	44664.44
610.61	45125.53
610.76	45441.50
610.92	44711.25
611.07	45031.91
611.23	44701.89
611.38	45111.49
611.54	45420.44
611.69	45294.05
611.84	45069.36
612.00	45184.04
612.15	45081.06
612.31	45170.00
612.46	44692.53
612.62	45111.49
612.77	45074.04
612.92	45544.48
613.08	44889.13
613.23	45083.40
613.39	44872.75
613.54	44650.40
613.69	45193.40
613.85	44793.17
614.00	44346.13
614.15	45057.65
614.31	44697.21
614.46	44669.12
614.62	44411.67
614.77	44854.03
614.92	44809.56
615.08	44886.79
615.23	44889.13
615.38	44807.22
615.54	44634.02
615.69	44746.36
615.84	44882.11
616.00	44949.99
616.15	44584.86
616.30	44392.94
616.46	44336.77
616.61	44683.17
616.76	45010.84
616.92	44650.40
617.07	44409.32
617.22	44332.09
617.37	44048.88
617.53	44388.26
617.68	44563.80
617.83	44100.37
617.99	44470.18
618.14	44376.56
618.29	44292.30
618.45	44531.03
618.60	44203.36
618.75	44622.31
618.90	44376.56
619.06	44446.77
619.21	44289.96
619.36	44903.18
619.51	44343.79
619.67	44179.95
619.82	44444.43
619.97	44451.45
620.12	44041.86
620.28	44264.21
620.43	44041.86
620.58	44271.23
620.73	43952.92
620.89	44067.61
621.04	44676.15
621.19	44032.50
621.34	44002.07
621.49	43866.32
621.65	43957.60
621.80	44009.09
621.95	43662.69
622.10	44004.41
622.25	44360.17
622.41	43772.70
622.56	43049.47
622.71	43969.30
622.86	44051.22
623.01	44048.88
623.16	43604.18
623.32	43430.98
623.47	43580.78
623.62	44009.09
623.77	43531.62
623.92	43871.00
624.07	43997.39
624.23	43665.03
624.38	44210.38
624.53	43576.09
624.68	43501.20
624.83	43660.35
624.98	43782.06
625.13	43658.01
625.29	43260.12
625.44	43339.70
625.59	43386.51
625.74	43709.50
625.89	43115.01
626.04	43391.19
626.19	43138.41
626.34	42937.13
626.49	43033.09
626.65	43054.15
626.80	42890.32
626.95	42822.44
627.10	42862.23
627.25	43007.34
627.40	42997.98
627.55	43033.09
627.70	42794.36
627.85	43416.94
628.00	43447.36
628.15	42869.25
628.30	42572.00
628.45	42602.43
628.60	42483.06
628.76	42625.84
628.91	42899.68
629.06	42340.29
629.21	42770.95
629.36	42527.53
629.51	42658.60
629.66	42609.45
629.81	42628.18
629.96	42588.39
630.11	42990.96
630.26	42230.29
630.41	42258.37
630.56	42789.67
630.71	42923.08
630.86	42974.58
631.01	42298.16
631.16	42373.06
631.31	42274.76
631.46	41902.61
631.61	42415.19
631.76	43065.86
631.91	42405.83
632.06	42429.23
632.21	42309.86
632.36	42361.36
632.51	42197.52
632.66	42328.59
632.81	42237.31
632.96	42094.53
633.10	42169.43
633.25	42543.92
633.40	42122.62
633.55	42183.48
633.70	42199.86
633.85	41551.53
634.00	42045.38
634.15	41734.09
634.30	41546.85
634.45	41954.10
634.60	41879.21
634.75	42122.62
634.90	41848.78
635.05	42117.94
635.19	41514.08
635.34	42218.58
635.49	41610.04
635.64	41928.36
635.79	41958.78
635.94	41766.86
636.09	42501.79
636.24	41544.51
636.39	41998.57
636.53	41881.55
636.68	41432.16
636.83	41401.74
636.98	41120.87
637.13	41118.53
637.28	40926.61
637.43	41228.54
637.57	41467.27
637.72	41153.64
637.87	41652.17
638.02	41462.59
638.17	41345.56
638.32	41188.75
638.46	41188.75
638.61	41153.64
638.76	41343.22
638.91	41221.52
639.06	40704.26
639.20	40617.66
639.35	40971.08
639.50	40910.22
639.65	40987.46
639.80	41158.32
639.94	41191.09
640.09	40844.69
640.24	41134.92
640.39	40744.05
640.54	40676.17
640.68	41193.43
640.83	40898.52
640.98	40882.14
641.13	40671.49
641.27	41120.87
641.42	40575.53
641.57	40711.28
641.72	40882.14
641.86	40261.90
642.01	40252.53
642.16	40346.15
642.31	40156.57
642.45	40414.03
642.60	40280.62
642.75	40538.08
642.90	40797.88
643.04	40563.82
643.19	40573.19
643.34	40449.14
643.48	40428.07
643.63	40287.64
643.78	40149.55
643.93	40629.36
644.07	40495.95
644.22	40594.25
644.37	40170.61
644.51	40325.09
644.66	40397.65
644.81	40306.37
644.95	40067.63
645.10	40037.20
645.25	39906.13
645.39	40088.70
645.54	40048.91
645.69	39957.63
645.83	40093.38
645.98	39866.34
646.13	40079.33
646.27	39849.96
646.42	39805.49
646.57	40123.80
646.71	40430.41
646.86	40271.26
647.00	40058.27
647.15	39735.27
647.30	40156.57
647.44	39873.37
647.59	39887.41
647.74	39601.86
647.88	40044.23
648.03	39852.30
648.17	39941.24
648.32	39786.77
648.47	40315.73
648.61	39423.98
648.76	39739.96
648.90	39615.91
649.05	39700.17
649.20	39321.00
649.34	39765.70
649.49	39723.57
649.63	39620.59
649.78	39896.77
649.92	39346.75
650.07	39971.67
650.21	39496.54
650.36	39768.04
650.51	39498.88
650.65	39754.00
650.80	39866.34
650.94	39508.24
651.09	39257.81
651.23	38831.83
651.38	39260.15
651.52	39140.78
651.67	39229.72
651.81	39239.08
651.96	39313.98
652.10	38501.81
652.25	38976.94
652.39	39168.87
652.54	39058.86
652.68	38911.41
652.83	38799.06
652.97	39578.46
653.12	38955.88
653.26	38522.88
653.41	38944.17
653.55	38775.66
653.70	39068.22
653.84	39093.97
653.99	39257.81
654.13	39089.29
654.27	38859.91
654.42	39035.45
654.56	38204.56
654.71	38536.92
654.85	39136.10
655.00	38485.43
655.14	39056.52
655.29	39175.89
655.43	38766.29
655.57	38499.47
655.72	38738.21
655.86	38457.34
656.01	38340.32
656.15	38267.76
656.30	38625.86
656.44	38361.38
656.58	38319.25
656.73	38600.12
656.87	38410.53
657.01	38022.00
657.16	38216.27
657.30	38352.02
657.45	38368.40
657.59	37577.30
657.73	38080.52
657.88	38134.35
658.02	38333.29
658.16	38529.90
658.31	37888.59
658.45	38157.75
658.60	38155.41
658.74	38038.39
658.88	38202.22
659.03	38024.34
659.17	37837.10
659.31	37558.58
659.46	37188.77
659.60	38251.38
659.74	37640.50
659.89	37479.00
660.03	37415.80
660.17	37654.54
660.32	37556.24
660.46	37544.53
660.60	37380.70
660.74	37003.87
660.89	37511.77
661.03	36912.59
661.17	36945.36
661.32	37029.62
661.46	36879.82
661.60	37036.64
661.74	36774.50
661.89	37209.84
662.03	36914.93
662.17	37027.28
662.31	36725.35
662.46	36779.18
662.60	36950.04
662.74	36617.68
662.88	36407.03
663.03	36308.73
663.17	36390.65
663.31	35920.20
663.45	36582.57
663.60	36505.34
663.74	36472.57
663.88	36584.91
664.02	36030.21
664.17	36196.38
664.31	35957.65
664.45	36306.39
664.59	35931.90
664.73	35470.82
664.88	35908.50
665.02	35772.75
665.16	36065.31
665.30	36294.69
665.44	36135.53
665.59	35234.42
665.73	35667.42
665.87	35086.97
666.01	35849.99
666.15	35775.09
666.29	35370.18
666.44	35798.49
666.58	35910.84
666.72	35096.33
666.86	35035.48
667.00	35414.65
667.14	35056.54
667.28	35047.18
667.43	35014.41
667.57	35145.48
667.71	35227.40
667.85	35182.93
667.99	35306.98
668.13	34480.77
668.27	34314.59
668.41	34480.77
668.56	34263.10
668.70	33862.87
668.84	33944.79
668.98	34078.20
669.12	34141.39
669.26	34258.42
669.40	34197.57
669.54	33717.76
669.68	33996.28
669.82	34223.31
669.96	33694.35
670.10	33610.09
670.25	33340.93
670.39	33701.37
670.53	33771.59
670.67	33670.95
670.81	34199.91
670.95	33923.72
671.09	33546.90
671.23	33614.77
671.37	33315.19
671.51	32814.31
671.65	33324.55
671.79	33165.39
671.93	33317.53
672.07	33504.77
672.21	33242.63
672.35	32596.64
672.49	33329.23
672.63	32655.15
672.77	32741.75
672.91	32936.02
673.05	32393.01
673.19	32624.73
673.33	32364.93
673.47	32467.91
673.61	32119.17
673.75	32114.49
673.89	32182.37
674.03	31831.29
674.17	31737.66
674.31	31707.24
674.45	31562.12
674.59	31527.02
674.73	31765.75
674.87	31325.73
675.01	31229.77
675.15	31522.34
675.29	31236.79
675.43	31580.85
675.56	31367.86
675.70	31037.84
675.84	31084.65
675.98	30127.38
676.12	30696.13
676.26	31129.12
676.40	30661.02
676.54	30331.00
676.68	30766.34
676.82	30019.71
676.96	30061.84
677.10	30167.16
677.23	30146.10
677.37	30160.14
677.51	29823.11
677.65	30047.80
677.79	29469.69
677.93	29867.58
678.07	29699.06
678.21	29631.18
678.34	29376.06
678.48	29050.73
678.62	29193.50
678.76	28877.53
678.90	28861.15
679.04	29284.78
679.18	29275.42
679.31	28531.13
679.45	28954.77
679.59	28364.95
679.73	28519.43
679.87	28751.14
680.00	28168.35
680.14	28512.41
680.28	28301.76
680.42	28479.64
680.56	28002.17
680.70	28130.90
680.83	27782.16
680.97	27885.14
681.11	27826.63
681.25	27587.89
681.39	27473.21
681.52	27234.47
681.66	27381.93
681.80	26803.82
681.94	26726.58
682.07	26675.09
682.21	26848.29
682.35	26663.38
682.49	26703.17
682.62	26813.18
682.76	26672.74
682.90	26782.75
683.04	26199.96
683.17	26361.45
683.31	26082.93
683.45	26295.92
683.59	25645.25
683.72	25481.41
683.86	25422.90
684.00	25869.94
684.13	25355.02
684.27	25455.67
684.41	25565.67
684.55	25614.82
684.68	25390.13
684.82	25043.73
684.96	25268.42
685.09	25113.95
685.23	25008.62
685.37	25092.88
685.50	25099.90
685.64	24800.32
685.78	24507.75
685.91	24287.74
686.05	24458.60
686.19	23889.85
686.32	24322.85
686.46	24074.75
686.60	23871.12
686.73	23910.91
686.87	23810.27
687.01	23765.80
687.14	23894.53
687.28	23730.69
687.42	23372.59
687.55	23658.14
687.69	23679.20
687.82	23157.26
687.96	23339.82
688.10	23283.65
688.23	22977.04
688.37	23173.64
688.50	22897.46
688.64	22785.12
688.78	22731.28
688.91	22909.16
689.05	22738.30
689.18	22436.38
689.32	21762.30
689.46	22171.89
689.59	22122.74
689.73	22396.59
689.86	22380.20
690.00	22232.75
690.13	22019.76
690.27	21673.36
690.41	21867.63
690.54	21521.23
690.68	21558.67
690.81	21280.15
690.95	21532.93
691.08	21010.99
691.22	21497.82
691.35	21195.89
691.49	21015.67
691.62	21053.12
691.76	20648.21
691.89	20580.33
692.03	20294.79
692.16	20348.62
692.30	20421.17
692.43	20636.50
692.57	19889.87
692.70	20051.37
692.84	20098.18
692.97	19899.23
693.11	20098.18
693.24	19829.02
693.38	19749.44
693.51	19541.13
693.65	19199.41
693.78	19314.10
693.92	19508.37
694.05	19168.99
694.19	19002.81
694.32	19396.02
694.45	19267.29
694.59	19096.43
694.72	19496.66
694.86	18984.09
694.99	18534.70
695.13	18635.35
695.26	18548.75
695.39	18286.61
695.53	18356.82
695.66	18506.62
695.80	18277.24
695.93	18539.38
696.07	18059.57
696.20	17879.35
696.33	17600.83
696.47	17689.77
696.60	17858.29
696.73	17937.87
696.87	17642.96
697.00	17535.29
697.14	17518.91
697.27	17252.09
697.40	17172.51
697.54	17081.23
697.67	17191.23
697.80	17142.08
697.94	16816.75
698.07	16718.45
698.21	17114.00
698.34	17025.06
698.47	16521.84
698.61	16269.06
698.74	16451.63
698.87	16306.51
699.01	16444.60
699.14	16053.73
699.27	16152.04
699.40	16121.61
699.54	15981.18
699.67	15908.62
699.80	15824.36
699.94	15859.47
700.07	15688.61
700.20	15800.96
700.34	15386.68
700.47	15571.58
700.60	15552.86
700.73	15627.76
700.87	15318.81
701.00	14916.23
701.13	14981.77
701.26	15037.94
701.40	15194.76
701.53	14808.57
701.66	14771.12
701.79	14614.30
701.93	14406.00
702.06	14445.79
702.19	14583.88
702.32	14263.22
702.46	14562.81
702.59	14647.07
702.72	14469.19
702.85	14497.28
702.99	14368.55
703.12	14375.57
703.25	14012.79
703.38	13778.73
703.51	13998.74
703.65	13722.56
703.78	13696.82
703.91	13673.41
704.04	13530.64
704.17	13558.72
704.31	13504.89
704.44	13151.47
704.57	13521.27
704.70	13193.60
704.83	13202.96
704.96	13090.62
705.10	13125.72
705.23	12861.24
>>>>>End Processed Spectral Data<<<<<
