SpectraSuite Data File
++++++++++++++++++++++++++++++++++++
Date: Fri Oct 25 10:43:46 EDT 2013
User: price-jones
Dark Spectrum Present: No
Reference Spectrum Present: No
Number of Sampled Component Spectra: 1
Spectrometers: USB2+H05261
Integration Time (usec): 100000 (USB2+H05261)
Spectra Averaged: 1 (USB2+H05261)
Boxcar Smoothing: 0 (USB2+H05261)
Correct for Electrical Dark: No (USB2+H05261)
Strobe/Lamp Enabled: No (USB2+H05261)
Correct for Detector Non-linearity: No (USB2+H05261)
Correct for Stray Light: No (USB2+H05261)
Number of Pixels in Processed Spectrum: 2048
>>>>>Begin Processed Spectral Data<<<<<
365.73	79.58
365.92	79.58
366.12	79.58
366.32	51.49
366.52	44.47
366.72	23.41
366.91	0.00
367.11	0.00
367.31	0.00
367.51	7.02
367.70	4.68
367.90	14.04
368.10	58.51
368.30	21.06
368.49	32.77
368.69	37.45
368.89	7.02
369.09	53.83
369.28	53.83
369.48	156.82
369.68	56.17
369.87	7.02
370.07	110.01
370.27	117.03
370.47	133.41
370.66	381.51
370.86	463.43
371.06	400.23
371.25	442.36
371.45	416.62
371.65	533.64
371.84	461.09
372.04	414.27
372.24	428.32
372.44	493.85
372.63	550.03
372.83	507.90
373.03	512.58
373.22	559.39
373.42	512.58
373.62	592.16
373.81	571.09
374.01	566.41
374.21	498.53
374.40	486.83
374.60	580.45
374.79	589.82
374.99	664.71
375.19	540.66
375.38	660.03
375.58	580.45
375.78	592.16
375.97	650.67
376.17	561.73
376.37	540.66
376.56	578.11
376.76	606.20
376.95	571.09
377.15	688.12
377.35	676.41
377.54	566.41
377.74	660.03
377.93	655.35
378.13	662.37
378.33	685.78
378.52	615.56
378.72	657.69
378.91	676.41
379.11	660.03
379.31	622.58
379.50	655.35
379.70	706.84
379.89	657.69
380.09	746.63
380.28	674.07
380.48	718.54
380.68	683.44
380.87	657.69
381.07	645.99
381.26	723.23
381.46	718.54
381.65	683.44
381.85	681.10
382.04	638.97
382.24	706.84
382.43	690.46
382.63	683.44
382.83	823.87
383.02	706.84
383.22	755.99
383.41	741.95
383.61	671.73
383.80	748.97
384.00	678.76
384.19	772.38
384.39	765.36
384.58	774.72
384.78	774.72
384.97	774.72
385.17	758.33
385.36	842.59
385.56	795.78
385.75	758.33
385.95	903.45
386.14	889.40
386.34	788.76
386.53	772.38
386.72	774.72
386.92	779.40
387.11	866.00
387.31	873.02
387.50	828.55
387.70	894.08
387.89	945.58
388.09	938.55
388.28	861.32
388.48	828.55
388.67	889.40
388.86	896.43
389.06	887.06
389.25	1004.09
389.45	952.60
389.64	947.92
389.84	964.30
390.03	1032.18
390.22	1015.79
390.42	1034.52
390.61	1020.47
390.81	990.05
391.00	1053.24
391.19	1011.11
391.39	992.39
391.58	1076.65
391.78	1020.47
391.97	1053.24
392.16	980.68
392.36	1067.28
392.55	1039.20
392.75	1022.81
392.94	1006.43
393.13	994.73
393.33	1039.20
393.52	1025.15
393.71	1156.22
393.91	1034.52
394.10	1111.75
394.29	1181.97
394.49	1170.27
394.68	1142.18
394.88	1142.18
395.07	1111.75
395.26	1184.31
395.46	1287.29
395.65	1294.32
395.84	1252.19
396.04	1153.88
396.23	1118.78
396.42	1139.84
396.62	1200.69
396.81	1210.06
397.00	1200.69
397.19	1224.10
397.39	1273.25
397.58	1401.98
397.77	1437.09
397.97	1380.92
398.16	1437.09
398.35	1427.73
398.55	1446.45
398.74	1483.90
398.93	1437.09
399.12	1434.75
399.32	1448.79
399.51	1460.49
399.70	1598.59
399.90	1427.73
400.09	1474.54
400.28	1734.34
400.47	1561.14
400.67	1591.56
400.86	1605.61
401.05	1643.06
401.24	1708.59
401.44	1621.99
401.63	1743.70
401.82	1692.21
402.01	1600.93
402.21	1743.70
402.40	1572.84
402.59	1753.06
402.78	1760.08
402.97	1699.23
403.17	1769.44
403.36	1830.30
403.55	1776.47
403.74	1874.77
403.93	1739.02
404.13	1825.62
404.32	1802.21
404.51	1874.77
404.70	1937.96
404.89	1820.94
405.09	1933.28
405.28	1888.81
405.47	1853.70
405.66	1926.26
405.85	1834.98
406.05	1959.03
406.24	1914.56
406.43	1980.09
406.62	2043.29
406.81	2080.74
407.00	2001.16
407.20	2087.76
407.39	1998.82
407.58	2129.89
407.77	2188.40
407.96	2167.34
408.15	2279.68
408.34	2186.06
408.54	2225.85
408.73	2228.19
408.92	2319.47
409.11	2321.81
409.30	2326.49
409.49	2258.62
409.68	2284.36
409.87	2253.94
410.07	2324.15
410.26	2377.98
410.45	2284.36
410.64	2485.65
410.83	2480.97
411.02	2455.22
411.21	2450.54
411.40	2483.31
411.59	2597.99
411.78	2597.99
411.98	2544.16
412.17	2623.74
412.36	2691.62
412.55	2696.30
412.74	2778.22
412.93	2729.06
413.12	2651.83
413.31	2846.09
413.50	2878.86
413.69	2902.26
413.88	2916.31
414.07	2909.29
414.26	2988.86
414.45	2881.20
414.64	2956.10
414.83	2949.08
415.02	3019.29
415.22	3096.53
415.41	3131.64
415.60	3213.56
415.79	3052.06
415.98	3267.39
416.17	3255.69
416.36	3243.98
416.55	3201.85
416.74	3115.25
416.93	3199.51
417.12	3218.24
417.31	3192.49
417.50	3389.10
417.69	3346.97
417.88	3323.56
418.07	3300.16
418.26	3412.50
418.45	3541.23
418.64	3527.19
418.83	3468.67
419.02	3499.10
419.21	3627.83
419.39	3578.68
419.58	3424.20
419.77	3407.82
419.96	3515.48
420.15	3611.45
420.34	3485.06
420.53	3651.24
420.72	3644.21
420.91	3789.33
421.10	3676.98
421.29	3836.14
421.48	3667.62
421.67	3700.39
421.86	3618.47
422.05	3805.71
422.24	3765.92
422.43	3812.73
422.61	3758.90
422.80	3833.80
422.99	3866.56
423.18	3866.56
423.37	3861.88
423.56	3871.25
423.75	3999.98
423.94	3948.48
424.13	3578.68
424.32	3803.37
424.50	3904.01
424.69	4025.72
424.88	3861.88
425.07	3894.65
425.26	3894.65
425.45	3936.78
425.64	3885.29
425.83	3873.59
426.01	3969.55
426.20	3906.35
426.39	3946.14
426.58	3918.06
426.77	3971.89
426.96	3829.12
427.15	3889.97
427.33	3997.64
427.52	4152.11
427.71	4021.04
427.90	4236.37
428.09	4161.47
428.28	4049.13
428.46	4081.89
428.65	4025.72
428.84	4180.20
429.03	4217.65
429.22	4100.62
429.40	4107.64
429.59	4121.68
429.78	3761.24
429.97	3925.08
430.16	3950.82
430.34	3992.95
430.53	4086.58
430.72	4198.92
430.91	4196.58
431.10	4383.82
431.28	4444.68
431.47	4510.21
431.66	4526.60
431.85	4425.95
432.03	4617.88
432.22	4552.34
432.41	4491.49
432.60	4571.07
432.79	4620.22
432.97	4692.77
433.16	4819.16
433.35	4617.88
433.54	4550.00
433.72	4486.81
433.91	4655.33
434.10	4702.14
434.28	4624.90
434.47	4486.81
434.66	4868.31
434.85	4931.51
435.03	4940.87
435.22	4901.08
435.41	5090.67
435.59	4971.30
435.78	5128.11
435.97	5022.79
436.16	5057.90
436.34	4966.62
436.53	5025.13
436.72	5142.16
436.90	5048.54
437.09	5167.90
437.28	4971.30
437.46	5200.67
437.65	4973.64
437.84	5081.30
438.02	5053.22
438.21	5214.71
438.40	5104.71
438.58	5247.48
438.77	5451.11
438.96	5383.23
439.14	5441.75
439.33	5341.10
439.52	5514.30
439.70	5582.18
439.89	5682.82
440.08	5666.44
440.26	5610.26
440.45	5687.50
440.63	5774.10
440.82	5774.10
441.01	5746.02
441.19	5998.79
441.38	6043.26
441.57	6064.33
441.75	6106.46
441.94	6015.18
442.12	6171.99
442.31	6286.68
442.50	6232.85
442.68	6129.86
442.87	6211.78
443.05	6258.59
443.24	6253.91
443.43	6284.34
443.61	6450.52
443.80	6466.90
443.98	6193.06
444.17	6420.09
444.35	6284.34
444.54	6534.78
444.73	6321.79
444.91	6335.83
445.10	6324.13
445.28	6272.64
445.47	6197.74
445.65	6399.02
445.84	6417.75
446.02	6452.86
446.21	6373.28
446.39	6504.35
446.58	6663.51
446.77	6649.46
446.95	6480.94
447.14	6506.69
447.32	6602.65
447.51	6436.47
447.69	6434.13
447.88	6654.14
448.06	6750.10
448.25	6731.38
448.43	6832.02
448.62	6616.69
448.80	6703.29
448.99	6651.80
449.17	6832.02
449.36	6696.27
449.54	6846.07
449.73	6909.26
449.91	7119.91
450.10	7030.97
450.28	7098.84
450.46	6963.09
450.65	7082.46
450.83	7080.12
451.02	7103.53
451.20	7187.79
451.39	7269.70
451.57	7143.32
451.76	6967.77
451.94	7187.79
452.13	7096.50
452.31	7115.23
452.49	7054.37
452.68	6935.01
452.86	7145.66
453.05	7157.36
453.23	7211.19
453.42	7419.50
453.60	7126.93
453.78	7351.62
453.97	7410.14
454.15	7187.79
454.34	7377.37
454.52	7335.24
454.70	7260.34
454.89	7555.25
455.07	7452.27
455.26	7463.97
455.44	7489.71
455.62	7669.94
455.81	7592.70
455.99	7524.82
456.17	7625.47
456.36	7812.71
456.54	7784.62
456.73	7997.61
456.91	7894.63
457.09	8131.02
457.28	8210.60
457.46	7882.92
457.64	7906.33
457.83	7885.26
458.01	7929.74
458.19	8084.21
458.38	8152.09
458.56	8266.77
458.74	8266.77
458.93	8006.97
459.11	8128.68
459.29	8418.91
459.48	8407.20
459.66	8109.96
459.84	8107.62
460.03	8278.47
460.21	8435.29
460.39	8442.31
460.57	8444.65
460.76	8421.25
460.94	8753.60
461.12	8601.47
461.31	8657.64
461.49	8587.43
461.67	8662.32
461.85	8741.90
462.04	8760.63
462.22	8685.73
462.40	8870.63
462.59	8809.78
462.77	8575.72
462.95	8688.07
463.13	8936.17
463.32	8716.16
463.50	8807.44
463.68	8844.88
463.86	8847.22
464.05	8896.38
464.23	8863.61
464.41	8858.93
464.59	8716.16
464.78	8971.27
464.96	8910.42
465.14	8851.91
465.32	9018.08
465.50	9050.85
465.69	9177.24
465.87	9224.05
466.05	9301.29
466.23	8943.19
466.41	9179.58
466.60	9467.47
466.78	9020.42
466.96	9004.04
467.14	9315.33
467.32	9479.17
467.51	9418.32
467.69	9200.65
467.87	9205.33
468.05	9427.68
468.23	9240.44
468.41	9392.57
468.60	9561.09
468.78	9518.96
468.96	9430.02
469.14	9437.04
469.32	9687.48
469.50	9221.71
469.69	9525.98
469.87	9809.19
470.05	9767.06
470.23	9659.39
470.41	9792.80
470.59	9907.49
470.77	9701.52
470.95	9982.38
471.14	10134.52
471.32	10019.83
471.50	10139.20
471.68	10108.77
471.86	10279.63
472.04	10190.69
472.22	10546.45
472.40	10492.62
472.58	10331.12
472.77	10359.21
472.95	10555.82
473.13	10619.01
473.31	10335.81
473.49	10253.89
473.67	10389.64
473.85	10396.66
474.03	10846.04
474.21	11042.65
474.39	10881.15
474.57	10995.84
474.75	10979.45
474.93	10998.18
475.12	10892.85
475.30	11028.60
475.48	11066.05
475.66	11260.32
475.84	10864.77
476.02	11281.38
476.20	11211.17
476.38	11559.91
476.56	11672.25
476.74	11630.12
476.92	11473.31
477.10	11571.61
477.28	11829.07
477.46	11983.54
477.64	12100.57
477.82	12262.07
478.00	12334.62
478.18	12404.84
478.36	12484.42
478.54	12617.83
478.72	12538.25
478.90	12765.28
479.08	12961.89
479.26	12861.24
479.44	12779.32
479.62	13156.15
479.80	12910.40
479.98	13149.13
480.16	13689.79
480.34	13495.53
480.52	13404.25
480.70	13572.77
480.88	13432.33
481.06	13701.50
481.24	13895.76
481.41	14101.73
481.59	13909.80
481.77	14120.45
481.95	14244.50
482.13	14335.78
482.31	14464.51
482.49	15063.69
482.67	14523.02
482.85	14822.61
483.03	15164.33
483.21	14822.61
483.39	15365.62
483.57	15206.46
483.74	15342.21
483.92	15697.97
484.10	14998.15
484.28	15494.35
484.46	16072.46
484.64	16290.13
484.82	15894.58
485.00	15929.69
485.18	16156.72
485.35	16376.73
485.53	15836.06
485.71	15791.59
485.89	16252.68
486.07	16304.17
486.25	16753.55
486.43	16741.85
486.61	17011.01
486.78	16898.67
486.96	17067.19
487.14	17305.92
487.32	17579.76
487.50	17788.07
487.68	17869.99
487.85	18127.45
488.03	18256.18
488.21	18574.49
488.39	18363.84
488.57	18740.67
488.75	18654.07
488.92	18806.20
489.10	18960.68
489.28	19110.47
489.46	19580.92
489.64	19527.09
489.81	19758.80
489.99	20329.89
490.17	20231.59
490.35	20212.87
490.53	20252.66
490.70	20037.33
490.88	20170.74
491.06	20524.16
491.24	20400.11
491.41	20613.10
491.59	20453.94
491.77	20329.89
491.95	20868.22
492.13	20872.90
492.30	21296.53
492.48	21378.45
492.66	21495.48
492.84	21446.33
493.01	21731.87
493.19	22012.74
493.37	22024.44
493.54	22232.75
493.72	22120.40
493.90	22207.00
494.08	22614.26
494.25	22719.58
494.43	22885.76
494.61	23374.93
494.79	22867.03
494.96	23178.33
495.14	23033.21
495.32	23157.26
495.49	23311.74
495.67	23508.34
495.85	23508.34
496.02	24058.37
496.20	24500.73
496.38	24140.29
496.55	24098.16
496.73	24685.63
496.91	24741.80
497.09	25029.69
497.26	24655.20
497.44	25142.03
497.62	24865.85
497.79	24938.41
497.97	24872.87
498.14	25422.90
498.32	25336.30
498.50	25446.30
498.67	25436.94
498.85	25626.53
499.03	25858.24
499.20	25703.76
499.38	25900.37
499.56	26246.77
499.73	26045.48
499.91	26288.90
500.08	26567.42
500.26	26052.50
500.44	26368.48
500.61	26625.93
500.79	26043.14
500.97	26679.77
501.14	26792.11
501.32	26586.15
501.49	26806.16
501.67	27012.12
501.84	26899.78
502.02	27185.32
502.20	27559.81
502.37	27625.34
502.55	27257.88
502.72	27772.80
502.90	27417.04
503.07	27536.40
503.25	27548.11
503.43	27562.15
503.60	27920.25
503.78	27667.47
503.95	27740.03
504.13	28173.03
504.30	28313.46
504.48	28250.27
504.65	28608.37
504.83	28514.75
505.01	28950.09
505.18	28713.69
505.36	28978.17
505.53	28868.17
505.71	29282.44
505.88	29495.43
506.06	29738.85
506.23	29422.87
506.41	29640.54
506.58	29228.61
506.76	29780.98
506.93	30073.54
507.11	29455.64
507.28	29560.97
507.46	29802.04
507.63	29902.68
507.81	29617.14
507.98	29727.14
508.16	30178.87
508.33	30239.72
508.50	30419.94
508.68	30558.03
508.85	30787.41
509.03	30541.65
509.20	30754.64
509.38	30794.43
509.55	31065.93
509.73	30724.21
509.90	30897.41
510.08	30883.37
510.25	31360.84
510.42	31349.14
510.60	31225.09
510.77	31166.57
510.95	31583.19
511.12	31150.19
511.30	31747.03
511.47	31988.10
511.64	32236.20
511.82	32133.21
511.99	31576.17
512.17	32180.03
512.34	32116.83
512.51	32371.95
512.69	32439.82
512.86	32568.55
513.04	32582.60
513.21	32306.41
513.38	32336.84
513.56	32348.54
513.73	32760.48
513.90	32882.19
514.08	32334.50
514.25	33132.62
514.43	33046.02
514.60	32830.69
514.77	32847.08
514.95	33347.95
515.12	33104.54
515.29	33156.03
515.47	33567.96
515.64	33996.28
515.81	33804.36
515.99	33666.27
516.16	33574.98
516.33	32968.79
516.51	33439.23
516.68	32835.38
516.85	33053.05
517.03	33151.35
517.20	33755.21
517.37	33930.75
517.54	34022.03
517.72	34066.50
517.89	33593.71
518.06	34029.05
518.24	33626.48
518.41	33780.95
518.58	34141.39
518.75	34455.03
518.93	34440.98
519.10	34651.63
519.27	34873.98
519.45	34756.96
519.62	35129.10
519.79	35311.66
519.96	35014.41
520.14	34965.26
520.31	34642.27
520.48	34916.11
520.65	35070.59
520.83	35168.89
521.00	35709.55
521.17	35491.88
521.34	35803.17
521.52	35606.57
521.69	36062.97
521.86	36177.66
522.03	35887.43
522.20	35583.16
522.38	36060.63
522.55	35913.18
522.72	35988.08
522.89	35810.20
523.07	36407.03
523.24	36119.15
523.41	36737.05
523.58	36381.29
523.75	37191.11
523.92	36652.79
524.10	36802.58
524.27	37249.63
524.44	36741.73
524.61	36844.71
524.78	37153.66
524.96	37223.88
525.13	37315.16
525.30	37645.18
525.47	37511.77
525.64	37174.73
525.81	37464.96
525.98	36886.84
526.16	37209.84
526.33	36961.74
526.50	37319.84
526.67	36987.49
526.84	37378.36
527.01	37172.39
527.18	37596.03
527.36	38082.86
527.53	38096.90
527.70	38171.80
527.87	38209.25
528.04	37926.04
528.21	38387.13
528.38	38356.70
528.55	38249.03
528.72	38618.84
528.89	38747.57
529.07	38408.19
529.24	38396.49
529.41	38415.21
529.58	38359.04
529.75	38335.63
529.92	38515.86
530.09	38801.40
530.26	38494.79
530.43	38859.91
530.60	38815.44
530.77	38852.89
530.94	38965.24
531.11	39276.53
531.28	39124.40
531.46	39608.89
531.63	39316.32
531.80	39180.57
531.97	38834.17
532.14	39473.13
532.31	39136.10
532.48	39140.78
532.65	38995.67
532.82	39061.20
532.99	39250.78
533.16	39526.97
533.33	39459.09
533.50	39842.94
533.67	39325.68
533.84	39573.78
534.01	39695.49
534.18	39213.34
534.35	39950.60
534.52	39636.97
534.69	40165.93
534.86	40273.60
535.03	39861.66
535.20	40140.19
535.37	40898.52
535.54	40425.73
535.71	40772.13
535.88	40245.51
536.05	40360.20
536.22	40456.16
536.38	40053.59
536.55	40659.79
536.72	40500.63
536.89	40280.62
537.06	40219.77
537.23	40718.30
537.40	40636.38
537.57	40533.40
537.74	40935.97
537.91	41336.20
538.08	41050.66
538.25	40699.58
538.42	40917.25
538.59	40699.58
538.75	40514.67
538.92	40662.13
539.09	41153.64
539.26	41144.28
539.43	41024.91
539.60	41191.09
539.77	40982.78
539.94	40959.38
540.11	40919.59
540.28	41050.66
540.44	41308.11
540.61	41020.23
540.78	41408.76
540.95	41483.66
541.12	41095.13
541.29	41191.09
541.46	41584.30
541.62	41469.61
541.79	41584.30
541.96	41153.64
542.13	41163.00
542.30	41542.17
542.47	41785.58
542.63	41682.60
542.80	41965.81
542.97	42464.34
543.14	42246.67
543.31	42300.50
543.48	42080.49
543.64	42588.39
543.81	42754.57
543.98	42277.10
544.15	42270.08
544.32	42401.14
544.48	42787.33
544.65	42564.98
544.82	42450.30
544.99	42740.52
545.16	42171.77
545.32	42506.47
545.49	43477.79
545.66	42981.60
545.83	43143.09
546.00	42866.91
546.16	42457.32
546.33	43056.50
546.50	42153.05
546.67	43077.56
546.83	42473.70
547.00	42639.88
547.17	42920.74
547.34	43182.88
547.50	42803.72
547.67	43215.65
547.84	43489.49
548.00	43234.38
548.17	43704.82
548.34	43653.33
548.51	43863.98
548.67	43716.53
548.84	43143.09
549.01	43178.20
549.18	43372.47
549.34	43255.44
549.51	43742.27
549.68	43878.02
549.84	43882.70
550.01	43936.54
550.18	43742.27
550.34	43732.91
550.51	43529.28
550.68	43557.37
550.84	43313.95
551.01	43732.91
551.18	43559.71
551.34	43580.78
551.51	44013.77
551.68	44032.50
551.84	43913.13
552.01	43552.69
552.18	44189.31
552.34	44128.46
552.51	44083.99
552.68	44023.14
552.84	43976.33
553.01	43978.67
553.18	43863.98
553.34	44453.79
553.51	44210.38
553.67	44439.75
553.84	44399.96
554.01	44254.85
554.17	44570.82
554.34	44491.24
554.51	44720.62
554.67	44435.07
554.84	44287.62
555.00	44044.20
555.17	44542.74
555.33	44559.12
555.50	44568.48
555.67	44605.93
555.83	44467.84
556.00	44444.43
556.16	44903.18
556.33	44598.91
556.50	44753.38
556.66	45036.59
556.83	44339.11
556.99	44198.68
557.16	44795.51
557.32	44879.77
557.49	44847.00
557.65	44547.42
557.82	44264.21
557.98	45052.97
558.15	44814.24
558.32	45268.30
558.48	44587.21
558.65	44676.15
558.81	44968.71
558.98	44793.17
559.14	44645.72
559.31	44641.04
559.47	44861.05
559.64	44807.22
559.80	44814.24
559.97	45081.06
560.13	44746.36
560.30	45050.63
560.46	44912.54
560.63	44971.05
560.79	45371.28
560.96	44996.80
561.12	45375.97
561.29	45078.72
561.45	45123.19
561.61	44910.20
561.78	44992.12
561.94	44767.43
562.11	45474.27
562.27	45069.36
562.44	45064.67
562.60	45057.65
562.77	45212.13
562.93	45366.60
563.10	45621.72
563.26	44818.92
563.42	45277.66
563.59	45357.24
563.75	45212.13
563.92	45364.26
564.08	45422.78
564.24	45673.21
564.41	45160.64
564.57	45427.46
564.74	45148.93
564.90	45619.38
565.07	44996.80
565.23	45366.60
565.39	45507.04
565.56	45228.51
565.72	44928.92
565.88	45600.66
566.05	45317.45
566.21	45888.54
566.38	45364.26
566.54	45336.18
566.70	45420.44
566.87	45794.92
567.03	45928.33
567.19	45827.69
567.36	45883.86
567.52	45724.71
567.68	45546.82
567.85	45467.25
568.01	45399.37
568.17	45249.58
568.34	45745.77
568.50	45029.57
568.66	45404.05
568.83	45724.71
568.99	45200.43
569.15	45464.91
569.32	45282.34
569.48	45528.10
569.64	45439.16
569.81	45780.88
569.97	45612.36
570.13	45598.32
570.30	45361.92
570.46	45219.15
570.62	45390.01
570.78	44673.81
570.95	45460.23
571.11	45427.46
571.27	45610.02
571.43	45492.99
571.60	45448.52
571.76	45418.10
571.92	45668.53
572.09	45797.26
572.25	45488.31
572.41	45935.35
572.57	46183.45
572.74	46213.88
572.90	45628.74
573.06	45682.58
573.22	45925.99
573.38	45691.94
573.55	45949.40
573.71	45705.98
573.87	45272.98
574.03	45488.31
574.20	46141.32
574.36	45839.39
574.52	45525.76
574.68	45895.56
574.84	45909.61
575.01	45322.13
575.17	45860.46
575.33	44968.71
575.49	45574.91
575.65	46279.41
575.82	46410.48
575.98	45544.48
576.14	45907.27
576.30	45867.48
576.46	45607.68
576.62	45507.04
576.79	45684.92
576.95	45303.41
577.11	45743.43
577.27	46199.83
577.43	45418.10
577.59	45272.98
577.75	45284.68
577.92	45418.10
578.08	45354.90
578.24	45287.03
578.40	45610.02
578.56	45872.16
578.72	46073.45
578.88	45701.30
579.04	46155.36
579.21	45488.31
579.37	45481.29
579.53	45998.55
579.69	45528.10
579.85	45879.18
580.01	46419.84
580.17	46124.94
580.33	45991.53
580.49	46050.04
580.65	45958.76
580.82	45418.10
580.98	45897.91
581.14	45736.41
581.30	45790.24
581.46	46197.49
581.62	46136.64
581.78	45818.33
581.94	46253.67
582.10	45937.69
582.26	46073.45
582.42	46073.45
582.58	45790.24
582.74	45492.99
582.90	46115.58
583.06	46089.83
583.22	46059.40
583.38	46066.42
583.54	46293.46
583.70	46298.14
583.86	46316.86
584.02	45865.14
584.18	46019.61
584.34	46054.72
584.50	45771.52
584.66	45647.47
584.82	45844.07
584.98	46368.35
585.14	45794.92
585.30	45872.16
585.46	45577.25
585.62	45595.98
585.78	45354.90
585.94	45502.35
586.10	45846.41
586.26	45668.53
586.42	45813.65
586.58	45977.48
586.74	46314.52
586.90	45715.34
587.06	46043.02
587.22	46218.56
587.38	45736.41
587.54	45951.74
587.70	46047.70
587.86	46288.77
588.02	45652.15
588.18	46113.23
588.34	45530.44
588.49	45368.94
588.65	45586.61
588.81	45656.83
588.97	45640.45
589.13	45242.56
589.29	45628.74
589.45	45914.29
589.61	46010.25
589.77	46185.79
589.93	46003.23
590.08	46307.50
590.24	46227.92
590.40	46703.05
590.56	46382.40
590.72	46202.18
590.88	45722.37
591.04	46052.38
591.20	46424.53
591.35	46178.77
591.51	46454.95
591.67	46141.32
591.83	45724.71
591.99	45759.81
592.15	45930.67
592.31	46312.18
592.46	46239.62
592.62	45830.03
592.78	46061.74
592.94	46284.09
593.10	45853.44
593.26	46136.64
593.41	45752.79
593.57	45776.20
593.73	45705.98
593.89	46136.64
594.05	45787.90
594.20	45900.25
594.36	46143.66
594.52	46258.35
594.68	46054.72
594.84	45841.73
594.99	46342.61
595.15	45605.34
595.31	46363.67
595.47	46387.08
595.62	46178.77
595.78	45750.45
595.94	46574.32
596.10	46108.55
596.25	45998.55
596.41	45937.69
596.57	45956.42
596.73	46241.96
596.88	45722.37
597.04	46302.82
597.20	46101.53
597.36	45914.29
597.51	46469.00
597.67	46160.05
597.83	46412.82
597.99	46265.37
598.14	46256.01
598.30	46003.23
598.46	46033.66
598.61	46288.77
598.77	46057.06
598.93	46033.66
599.09	46323.88
599.24	46499.42
599.40	46164.73
599.56	46138.98
599.71	45804.28
599.87	46209.20
600.03	46349.63
600.18	46036.00
600.34	45823.01
600.50	46281.75
600.65	46274.73
600.81	46153.02
600.97	46054.72
601.12	46546.23
601.28	45986.85
601.44	46227.92
601.59	45811.31
601.75	45862.80
601.91	46450.27
602.06	45797.26
602.22	46227.92
602.37	46185.79
602.53	45968.12
602.69	46232.60
602.84	46169.41
603.00	46071.10
603.16	46518.15
603.31	45818.33
603.47	46342.61
603.62	45965.78
603.78	46052.38
603.94	46328.56
604.09	46433.89
604.25	45993.87
604.40	46216.22
604.56	45745.77
604.71	46298.14
604.87	46206.86
605.03	45911.95
605.18	45881.52
605.34	45830.03
605.49	45663.85
605.65	45874.50
605.80	46047.70
605.96	46061.74
606.12	45965.78
606.27	46457.29
606.43	45794.92
606.58	46426.87
606.74	46089.83
606.89	45914.29
607.05	45895.56
607.20	45748.11
607.36	46054.72
607.51	45750.45
607.67	45844.07
607.82	45876.84
607.98	45701.30
608.13	45427.46
608.29	45832.37
608.44	45237.87
608.60	44879.77
608.75	46010.25
608.91	45745.77
609.06	45577.25
609.22	45909.61
609.37	45261.28
609.53	45635.77
609.68	45272.98
609.84	45322.13
609.99	45762.15
610.15	45312.77
610.30	45511.72
610.46	45092.76
610.61	45469.59
610.76	45167.66
610.92	45661.51
611.07	45394.69
611.23	45560.87
611.38	45832.37
611.54	45535.12
611.69	45392.35
611.84	45013.18
612.00	45247.24
612.15	45268.30
612.31	45207.45
612.46	45165.32
612.62	45771.52
612.77	45343.20
612.92	45607.68
613.08	45191.06
613.23	44928.92
613.39	45118.51
613.54	44856.37
613.69	44942.97
613.85	45345.54
614.00	45071.70
614.15	45280.00
614.31	45081.06
614.46	45333.84
614.62	45167.66
614.77	45141.91
614.92	45043.61
615.08	44524.01
615.23	45155.96
615.38	45184.04
615.54	44453.79
615.69	44891.48
615.84	44327.41
616.00	44224.42
616.15	44657.42
616.30	44875.09
616.46	44655.08
616.61	44645.72
616.76	44470.18
616.92	44093.35
617.07	44488.90
617.22	44229.10
617.37	44673.81
617.53	44437.41
617.68	44715.93
617.83	44690.19
617.99	44343.79
618.14	44240.81
618.29	44598.91
618.45	44282.94
618.60	43971.64
618.75	43845.26
618.90	44318.04
619.06	44247.83
619.21	44313.36
619.36	44074.63
619.51	44371.88
619.67	44268.89
619.82	44165.91
619.97	44278.25
620.12	44282.94
620.28	43555.03
620.43	44058.24
620.58	44318.04
620.73	43859.30
620.89	43714.19
621.04	44374.22
621.19	44336.77
621.34	44095.69
621.49	43943.56
621.65	44236.12
621.80	44041.86
621.95	43791.42
622.10	43725.89
622.25	43866.32
622.41	43803.13
622.56	42979.26
622.71	43416.94
622.86	44107.40
623.01	43627.59
623.16	43718.87
623.32	43805.47
623.47	43732.91
623.62	43423.96
623.77	43344.38
623.92	43943.56
624.07	43150.12
624.23	43239.06
624.38	43105.65
624.53	43107.99
624.68	43360.76
624.83	43643.97
624.98	43274.16
625.13	42586.05
625.29	43346.72
625.44	43210.97
625.59	43126.71
625.74	42550.94
625.89	42384.76
626.04	43016.71
626.19	43100.97
626.34	43473.11
626.49	42939.47
626.65	42543.92
626.80	43061.18
626.95	42696.05
627.10	42899.68
627.25	42941.81
627.40	42588.39
627.55	42562.64
627.70	42274.76
627.85	42752.23
628.00	42997.98
628.15	42913.72
628.30	41951.76
628.45	42543.92
628.60	42714.78
628.76	42511.15
628.91	42405.83
629.06	42225.60
629.21	42447.96
629.36	42000.91
629.51	42323.91
629.66	42438.59
629.81	42305.18
629.96	42415.19
630.11	41968.15
630.26	42639.88
630.41	42195.18
630.56	42059.43
630.71	42321.57
630.86	42127.30
631.01	41670.90
631.16	41794.95
631.31	41462.59
631.46	41612.38
631.61	42136.66
631.76	42010.28
631.91	42241.99
632.06	42440.93
632.21	41935.38
632.36	42106.24
632.51	41296.41
632.66	41408.76
632.81	41563.23
632.96	41752.82
633.10	41853.46
633.25	41921.34
633.40	41706.01
633.55	42302.84
633.70	41806.65
633.85	41581.96
634.00	41432.16
634.15	41280.03
634.30	41544.51
634.45	41474.29
634.60	41268.33
634.75	41118.53
634.90	41251.94
635.05	41308.11
635.19	41457.91
635.34	41478.97
635.49	41284.71
635.64	41261.30
635.79	41055.34
635.94	41165.34
636.09	41060.02
636.24	40842.35
636.39	40346.15
636.53	41289.39
636.68	40938.31
636.83	40921.93
636.98	41118.53
637.13	41055.34
637.28	41331.52
637.43	41413.44
637.57	41153.64
637.72	40950.01
637.87	41354.93
638.02	41003.85
638.17	41057.68
638.32	40832.99
638.46	40662.13
638.61	41045.97
638.76	40470.20
638.91	40921.93
639.06	40556.80
639.20	40720.64
639.35	41064.70
639.50	40669.15
639.65	40566.16
639.80	40706.60
639.94	40739.36
640.09	40718.30
640.24	40720.64
640.39	40121.46
640.54	40067.63
640.68	40737.02
640.83	40177.64
640.98	40105.08
641.13	40231.47
641.27	40191.68
641.42	40458.50
641.57	40046.57
641.72	40343.81
641.86	40098.06
642.01	39782.09
642.16	39866.34
642.31	39597.18
642.45	39459.09
642.60	39672.08
642.75	39927.20
642.90	39676.76
643.04	40519.35
643.19	39803.15
643.34	39615.91
643.48	39487.18
643.63	40051.25
643.78	39964.65
643.93	39634.63
644.07	39716.55
644.22	39697.83
644.37	39299.94
644.51	39885.07
644.66	39697.83
644.81	39948.26
644.95	39531.65
645.10	39683.78
645.25	39494.20
645.39	39693.15
645.54	39700.17
645.69	39438.03
645.83	39627.61
645.98	39585.48
646.13	39461.43
646.27	39201.63
646.42	39330.36
646.57	39503.56
646.71	38883.32
646.86	38855.23
647.00	39754.00
647.15	39161.84
647.30	39328.02
647.44	38735.87
647.59	39466.11
647.74	39466.11
647.88	39236.74
648.03	39070.56
648.17	38822.47
648.32	39133.76
648.47	38785.02
648.61	38789.70
648.76	38855.23
648.90	38796.72
649.05	38707.78
649.20	38815.44
649.34	39145.46
649.49	38522.88
649.63	38611.82
649.78	39023.75
649.92	39051.84
650.07	39154.82
650.21	38469.04
650.36	38628.20
650.51	38789.70
650.65	39030.77
650.80	39009.71
650.94	38768.63
651.09	38614.16
651.23	38515.86
651.38	38504.15
651.52	37965.83
651.67	38272.44
651.81	38391.81
651.96	38256.06
652.10	38586.07
652.25	38101.58
652.39	38171.80
652.54	38227.97
652.68	38319.25
652.83	38426.92
652.97	38302.87
653.12	38464.36
653.26	38150.73
653.41	37965.83
653.55	38061.79
653.70	38181.16
653.84	37869.87
653.99	37956.47
654.13	37305.80
654.27	37785.61
654.42	37479.00
654.56	37942.42
654.71	38122.65
654.85	37724.75
655.00	37944.76
655.14	37706.03
655.29	37933.06
655.43	37345.59
655.57	37240.26
655.72	37165.37
655.86	37156.00
656.01	37085.79
656.15	36870.46
656.30	36837.69
656.44	37062.38
656.58	37247.29
656.73	37312.82
656.87	37333.89
657.01	37165.37
657.16	37053.02
657.30	36779.18
657.45	37130.26
657.59	36910.25
657.73	36849.39
657.88	37205.16
658.02	37397.08
658.16	37425.17
658.31	37642.84
658.45	37095.15
658.60	36959.40
658.74	37436.87
658.88	37015.57
659.03	36701.94
659.17	36758.11
659.31	36748.75
659.46	36259.58
659.60	36971.10
659.74	36840.03
659.89	36479.59
660.03	36472.57
660.17	36779.18
660.32	36683.22
660.46	37188.77
660.60	36636.41
660.74	36163.62
660.89	36636.41
661.03	35943.61
661.17	35915.52
661.32	35791.47
661.46	36327.45
661.60	36025.53
661.74	35805.52
661.89	36055.95
662.03	36175.32
662.17	35805.52
662.31	36222.13
662.46	36493.63
662.60	36388.31
662.74	35800.83
662.88	35639.34
663.03	35299.96
663.17	35765.73
663.31	35325.71
663.45	35566.78
663.60	35702.53
663.74	35405.28
663.88	34803.77
664.02	35068.25
664.17	35477.84
664.31	35477.84
664.45	35358.47
664.59	35086.97
664.73	34967.60
664.88	35119.74
665.02	34918.45
665.16	34930.16
665.30	34873.98
665.44	34377.79
665.59	34335.66
665.73	34560.35
665.87	34689.08
666.01	34756.96
666.15	34663.33
666.29	34773.34
666.44	34665.67
666.58	34312.25
666.72	34567.37
666.86	34401.19
667.00	34293.53
667.14	34209.27
667.28	34160.12
667.43	34108.63
667.57	34199.91
667.71	34452.69
667.85	33933.09
667.99	34391.83
668.13	33787.97
668.27	34342.68
668.41	33942.45
668.56	34155.44
668.70	33764.57
668.84	33659.24
668.98	33289.44
669.12	33340.93
669.26	33572.64
669.40	33205.18
669.54	33226.24
669.68	33039.00
669.82	32898.57
669.96	33022.62
670.10	33450.94
670.25	32957.08
670.39	32786.22
670.53	32790.91
670.67	32737.07
670.81	32598.98
670.95	32800.27
671.09	32552.17
671.23	33008.58
671.37	32301.73
671.51	32664.52
671.65	31978.74
671.79	32404.72
671.93	32285.35
672.07	32128.53
672.21	32404.72
672.35	32004.49
672.49	31878.10
672.63	32238.54
672.77	32058.32
672.91	31938.95
673.05	31817.24
673.19	31653.40
673.33	31405.31
673.47	31498.93
673.61	31316.37
673.75	31101.04
673.89	31365.52
674.03	31225.09
674.17	31473.18
674.31	31204.02
674.45	31119.76
674.59	31084.65
674.73	31592.55
674.87	31016.78
675.01	30888.05
675.15	30628.25
675.29	30773.36
675.43	30874.01
675.56	30361.43
675.70	30850.60
675.84	30307.60
675.98	29694.38
676.12	30499.52
676.26	30450.37
676.40	30490.16
676.54	30338.02
676.68	30237.38
676.82	29586.71
676.96	30160.14
677.10	29394.79
677.23	29467.34
677.37	29745.87
677.51	29366.70
677.65	29259.04
677.79	29074.13
677.93	29113.92
678.07	28968.81
678.21	28491.34
678.34	28566.24
678.48	28631.77
678.62	28685.61
678.76	28334.53
678.90	28463.25
679.04	28350.91
679.18	28339.21
679.31	28287.71
679.45	28287.71
679.59	28393.04
679.73	28177.71
679.87	27758.75
680.00	27718.96
680.14	27758.75
680.28	28053.66
680.42	27761.09
680.56	27613.64
680.70	27587.89
680.83	27201.71
680.97	27424.06
681.11	27278.94
681.25	27285.97
681.39	27091.70
681.52	27005.10
681.66	26757.00
681.80	26934.88
681.94	26574.44
682.07	26490.18
682.21	26366.13
682.35	26501.89
682.49	26579.12
682.62	26197.62
682.76	26017.40
682.90	26394.22
683.04	26036.12
683.17	25989.31
683.31	25848.88
683.45	25523.54
683.59	25631.21
683.72	25879.30
683.86	25633.55
684.00	25839.51
684.13	25221.61
684.27	25036.71
684.41	24975.86
684.55	25329.28
684.68	25132.67
684.82	24545.20
684.96	25034.37
685.09	24753.51
685.23	24662.22
685.37	24676.27
685.50	24655.20
685.64	24549.88
685.78	24257.31
685.91	24194.12
686.05	24322.85
686.19	23896.87
686.32	23871.12
686.46	23412.38
686.60	23302.37
686.73	23112.79
686.87	23033.21
687.01	23297.69
687.14	22979.38
687.28	22916.19
687.42	22668.09
687.55	23044.91
687.69	22860.01
687.82	22977.04
687.96	23040.23
688.10	22829.59
688.23	22611.92
688.37	22382.54
688.50	22419.99
688.64	22738.30
688.78	22618.94
688.91	22216.36
689.05	22199.98
689.18	21954.22
689.32	21671.02
689.46	21813.79
689.59	22040.82
689.73	22078.27
689.86	21898.05
690.00	21682.72
690.13	21341.00
690.27	21308.24
690.41	21326.96
690.54	21025.03
690.68	21090.57
690.81	21317.60
690.95	21034.39
691.08	21032.05
691.22	21315.26
691.35	20737.15
691.49	21181.85
691.62	20950.14
691.76	21032.05
691.89	20875.24
692.03	20795.66
692.16	20240.95
692.30	20187.12
692.43	20521.82
692.57	19875.83
692.70	20137.97
692.84	20044.35
692.97	19936.68
693.11	19908.60
693.24	19765.82
693.38	19543.47
693.51	19768.16
693.65	19836.04
693.78	19506.02
693.92	19534.11
694.05	19248.57
694.19	19267.29
694.32	19166.65
694.45	18953.66
694.59	19047.28
694.72	18909.19
694.86	18845.99
694.99	18420.02
695.13	18845.99
695.26	18256.18
695.39	18499.59
695.53	18752.37
695.66	18513.64
695.80	18263.20
695.93	18338.10
696.07	18321.71
696.20	18136.81
696.33	18347.46
696.47	17888.71
696.60	17839.56
696.73	17619.55
696.87	17844.24
697.00	17860.63
697.14	17649.98
697.27	17474.44
697.40	17088.25
697.54	17319.96
697.67	17095.27
697.80	17146.76
697.94	17106.98
698.07	16987.61
698.21	16875.26
698.34	17310.60
698.47	17032.08
698.61	16613.12
698.74	16613.12
698.87	16437.58
699.01	16414.18
699.14	16313.53
699.27	16322.90
699.40	16512.48
699.54	16236.30
699.67	16224.59
699.80	16023.31
699.94	16140.33
700.07	15981.18
700.20	16224.59
700.34	16042.03
700.47	16095.86
700.60	15719.04
700.73	15829.04
700.87	15665.21
701.00	15602.01
701.13	15316.47
701.26	15433.49
701.40	15475.62
701.53	15569.24
701.66	15372.64
701.79	15147.95
701.93	15049.64
702.06	15028.58
702.19	14757.08
702.32	14876.44
702.46	15005.17
702.59	14740.69
702.72	14775.80
702.85	14789.85
702.99	14588.56
703.12	14569.83
703.25	14345.14
703.38	14349.82
703.51	14469.19
703.65	14324.08
703.78	14075.98
703.91	13963.64
704.04	13881.72
704.17	14097.05
704.31	14157.90
704.44	13937.89
704.57	14132.15
704.70	13586.81
704.83	13518.93
704.96	13839.59
705.10	13530.64
705.23	13621.92
>>>>>End Processed Spectral Data<<<<<
