SpectraSuite Data File
++++++++++++++++++++++++++++++++++++
Date: Fri Oct 25 11:34:38 EDT 2013
User: price-jones
Dark Spectrum Present: No
Reference Spectrum Present: No
Number of Sampled Component Spectra: 1
Spectrometers: USB2+H05261
Integration Time (usec): 100000 (USB2+H05261)
Spectra Averaged: 1 (USB2+H05261)
Boxcar Smoothing: 0 (USB2+H05261)
Correct for Electrical Dark: No (USB2+H05261)
Strobe/Lamp Enabled: No (USB2+H05261)
Correct for Detector Non-linearity: No (USB2+H05261)
Correct for Stray Light: No (USB2+H05261)
Number of Pixels in Processed Spectrum: 2048
>>>>>Begin Processed Spectral Data<<<<<
365.73	187.24
365.92	187.24
366.12	187.24
366.32	187.24
366.52	147.45
366.72	189.58
366.91	210.65
367.11	93.62
367.31	234.05
367.51	107.66
367.70	224.69
367.90	191.92
368.10	245.76
368.30	201.29
368.49	173.20
368.69	250.44
368.89	187.24
369.09	191.92
369.28	184.90
369.48	208.31
369.68	301.93
369.87	234.05
370.07	273.84
370.27	250.44
370.47	287.89
370.66	386.19
370.86	503.22
371.06	451.72
371.25	517.26
371.45	578.11
371.65	580.45
371.84	521.94
372.04	440.02
372.24	594.50
372.44	519.60
372.63	587.47
372.83	580.45
373.03	573.43
373.22	594.50
373.42	636.63
373.62	631.94
373.81	617.90
374.01	660.03
374.21	662.37
374.40	636.63
374.60	716.20
374.79	730.25
374.99	610.88
375.19	671.73
375.38	631.94
375.58	571.09
375.78	664.71
375.97	702.16
376.17	674.07
376.37	645.99
376.56	692.80
376.76	730.25
376.95	709.18
377.15	645.99
377.35	671.73
377.54	734.93
377.74	748.97
377.93	674.07
378.13	688.12
378.33	723.23
378.52	741.95
378.72	709.18
378.91	685.78
379.11	702.16
379.31	685.78
379.50	702.16
379.70	739.61
379.89	681.10
380.09	723.23
380.28	770.04
380.48	800.46
380.68	692.80
380.87	755.99
381.07	706.84
381.26	765.36
381.46	748.97
381.65	758.33
381.85	699.82
382.04	716.20
382.24	739.61
382.43	718.54
382.63	685.78
382.83	744.29
383.02	849.61
383.22	777.06
383.41	779.40
383.61	858.98
383.80	821.53
384.00	802.80
384.19	819.19
384.39	821.53
384.58	788.76
384.78	763.01
384.97	842.59
385.17	816.85
385.36	854.30
385.56	711.52
385.75	767.70
385.95	861.32
386.14	866.00
386.34	891.74
386.53	840.25
386.72	875.36
386.92	950.26
387.11	891.74
387.31	760.67
387.50	828.55
387.70	887.06
387.89	861.32
388.09	1004.09
388.28	910.47
388.48	910.47
388.67	894.08
388.86	957.28
389.06	870.68
389.25	961.96
389.45	917.49
389.64	873.02
389.84	929.19
390.03	950.26
390.22	978.34
390.42	940.90
390.61	922.17
390.81	938.55
391.00	915.15
391.19	983.02
391.39	938.55
391.58	1011.11
391.78	929.19
391.97	1004.09
392.16	971.32
392.36	1006.43
392.55	1107.07
392.75	947.92
392.94	1008.77
393.13	1018.13
393.33	994.73
393.52	1069.62
393.71	1048.56
393.91	987.71
394.10	1081.33
394.29	1100.05
394.49	1062.60
394.68	1111.75
394.88	1083.67
395.07	1135.16
395.26	1043.88
395.46	1093.03
395.65	1109.41
395.84	1198.35
396.04	1123.46
396.23	1172.61
396.42	1128.14
396.62	1109.41
396.81	1256.87
397.00	1137.50
397.19	1196.01
397.39	1128.14
397.58	1207.72
397.77	1205.38
397.97	1217.08
398.16	1184.31
398.35	1259.21
398.55	1177.29
398.74	1277.93
398.93	1373.89
399.12	1242.82
399.32	1231.12
399.51	1322.40
399.70	1296.66
399.90	1212.40
400.09	1287.29
400.28	1387.94
400.47	1345.81
400.67	1380.92
400.86	1203.04
401.05	1453.47
401.24	1371.55
401.44	1317.72
401.63	1378.58
401.82	1404.32
402.01	1371.55
402.21	1434.75
402.40	1404.32
402.59	1458.15
402.78	1460.49
402.97	1462.83
403.17	1404.32
403.36	1406.66
403.55	1444.11
403.74	1516.67
403.93	1526.03
404.13	1504.96
404.32	1544.75
404.51	1537.73
404.70	1514.33
404.89	1579.86
405.09	1614.97
405.28	1701.57
405.47	1626.67
405.66	1636.03
405.85	1682.85
406.05	1497.94
406.24	1673.48
406.43	1687.53
406.62	1699.23
406.81	1750.72
407.00	1685.19
407.20	1710.93
407.39	1696.89
407.58	1764.76
407.77	1764.76
407.96	1834.98
408.15	1858.39
408.34	1739.02
408.54	1820.94
408.73	1804.55
408.92	1722.63
409.11	1851.36
409.30	1891.15
409.49	1898.17
409.68	1863.07
409.87	1900.52
410.07	1959.03
410.26	1984.77
410.45	1884.13
410.64	1935.62
410.83	2050.31
411.02	1942.64
411.21	2069.03
411.40	2001.16
411.59	2132.23
411.78	2024.56
411.98	2078.40
412.17	2069.03
412.36	2076.06
412.55	2085.42
412.74	2221.17
412.93	2242.23
413.12	2303.09
413.31	2328.83
413.50	2258.62
413.69	2373.30
413.88	2401.39
414.07	2373.30
414.26	2335.85
414.45	2406.07
414.64	2448.20
414.83	2499.69
415.02	2366.28
415.22	2600.34
415.41	2525.44
415.60	2588.63
415.79	2605.02
415.98	2605.02
416.17	2651.83
416.36	2633.10
416.55	2630.76
416.74	2572.25
416.93	2637.78
417.12	2757.15
417.31	2743.11
417.50	2822.69
417.69	2834.39
417.88	2822.69
418.07	2829.71
418.26	2764.17
418.45	2932.69
418.64	2972.48
418.83	2899.92
419.02	2967.80
419.21	2899.92
419.39	2913.97
419.58	2867.16
419.77	2885.88
419.96	2972.48
420.15	3007.59
420.34	3101.21
420.53	2963.12
420.72	3098.87
420.91	2984.18
421.10	3098.87
421.29	3068.44
421.48	3030.99
421.67	3047.38
421.86	3148.02
422.05	3009.93
422.24	3141.00
422.43	3124.62
422.61	3075.46
422.80	3232.28
422.99	3304.84
423.18	3206.53
423.37	3265.05
423.56	3361.01
423.75	3159.72
423.94	3211.22
424.13	3084.83
424.32	3028.65
424.50	3262.71
424.69	3239.30
424.88	3445.27
425.07	3143.34
425.26	3318.88
425.45	3236.96
425.64	3300.16
425.83	3232.28
426.01	3330.58
426.20	3349.31
426.39	3501.44
426.58	3269.73
426.77	3281.43
426.96	3328.24
427.15	3321.22
427.33	3452.29
427.52	3435.91
427.71	3428.88
427.90	3279.09
428.09	3545.91
428.28	3559.95
428.46	3463.99
428.65	3590.38
428.84	3571.66
429.03	3627.83
429.22	3574.00
429.40	3623.15
429.59	3536.55
429.78	3445.27
429.97	3531.87
430.16	3672.30
430.34	3658.26
430.53	3852.52
430.72	3684.00
430.91	3765.92
431.10	3625.49
431.28	3712.09
431.47	3875.93
431.66	3836.14
431.85	3651.24
432.03	3936.78
432.22	3859.54
432.41	3974.23
432.60	3964.87
432.79	3915.72
432.97	3859.54
433.16	3918.06
433.35	3789.33
433.54	4009.34
433.72	4037.42
433.91	4117.00
434.10	3934.44
434.28	4044.45
434.47	4147.43
434.66	4133.39
434.85	4147.43
435.03	4131.05
435.22	4114.66
435.41	4301.90
435.59	4100.62
435.78	4088.92
435.97	4177.86
436.16	4145.09
436.34	4210.62
436.53	4170.83
436.72	4372.12
436.90	4133.39
437.09	4161.47
437.28	4248.07
437.46	4208.28
437.65	4217.65
437.84	4294.88
438.02	4379.14
438.21	4351.06
438.40	4372.12
438.58	4589.79
438.77	4650.64
438.96	4606.17
439.14	4732.56
439.33	4660.01
439.52	4603.83
439.70	4662.35
439.89	4903.42
440.08	4758.31
440.26	4854.27
440.45	4727.88
440.63	4816.82
440.82	4924.49
441.01	4931.51
441.19	4746.61
441.38	4938.53
441.57	5043.85
441.75	5078.96
441.94	5085.98
442.12	5123.43
442.31	5205.35
442.50	5214.71
442.68	5083.64
442.87	5219.39
443.05	5385.57
443.24	5376.21
443.43	5212.37
443.61	5240.46
443.80	5322.38
443.98	5207.69
444.17	5029.81
444.35	5301.31
444.54	5425.36
444.73	5350.46
444.91	5310.68
445.10	5437.06
445.28	5341.10
445.47	5369.19
445.65	5383.23
445.84	5495.58
446.02	5458.13
446.21	5387.91
446.39	5364.51
446.58	5547.07
446.77	5542.39
446.95	5383.23
447.14	5610.26
447.32	5479.19
447.51	5366.85
447.69	5404.30
447.88	5572.82
448.06	5462.81
448.25	5392.59
448.43	5533.03
448.62	5502.60
448.80	5556.43
448.99	5675.80
449.17	5636.01
449.36	5439.40
449.54	5603.24
449.73	5589.20
449.91	5900.49
450.10	5830.27
450.28	5888.79
450.46	5893.47
450.65	5858.36
450.83	5912.19
451.02	5788.14
451.20	5907.51
451.39	5713.25
451.57	6022.20
451.76	5694.52
451.94	5844.32
452.13	5914.53
452.31	5977.73
452.49	5839.64
452.68	5933.26
452.86	6010.50
453.05	5961.34
453.23	6038.58
453.42	5954.32
453.60	6087.73
453.78	6101.78
453.97	6179.01
454.15	6312.42
454.34	6099.44
454.52	6289.02
454.70	6321.79
454.89	6237.53
455.07	6167.31
455.26	6363.92
455.44	6377.96
455.62	6249.23
455.81	6384.98
455.99	6448.18
456.17	6338.17
456.36	6366.26
456.54	6621.38
456.73	6497.33
456.91	6743.08
457.09	6722.02
457.28	6731.38
457.46	6623.72
457.64	6658.82
457.83	6778.19
458.01	6630.74
458.19	6911.60
458.38	6686.91
458.56	6832.02
458.74	6750.10
458.93	6862.45
459.11	6869.47
459.29	6965.43
459.48	6862.45
459.66	6916.28
459.84	6855.43
460.03	7063.74
460.21	7030.97
460.39	6780.53
460.57	7108.21
460.76	7148.00
460.94	6991.18
461.12	7227.57
461.31	7112.89
461.49	6984.16
461.67	7126.93
461.85	7204.17
462.04	7309.49
462.22	7658.23
462.40	7398.43
462.59	7138.63
462.77	7339.92
462.95	7442.90
463.13	7529.50
463.32	7459.29
463.50	7440.56
463.68	7417.16
463.86	7573.97
464.05	7375.03
464.23	7356.30
464.41	7599.72
464.59	7527.16
464.78	7751.85
464.96	7531.84
465.14	7389.07
465.32	7611.42
465.50	7686.32
465.69	7658.23
465.87	7812.71
466.05	7651.21
466.23	7691.00
466.41	7775.26
466.60	7880.58
466.78	7733.13
466.96	7920.37
467.14	7878.24
467.32	7852.50
467.51	8037.40
467.69	7786.96
467.87	7939.10
468.05	7779.94
468.23	7908.67
468.41	7934.42
468.60	7901.65
468.78	8088.89
468.96	7925.05
469.14	8133.36
469.32	8063.15
469.50	8067.83
469.69	8002.29
469.87	8344.01
470.05	8210.60
470.23	8344.01
470.41	8334.65
470.59	8348.69
470.77	8402.52
470.95	8418.91
471.14	8496.14
471.32	8325.29
471.50	8603.81
471.68	8711.47
471.86	8683.39
472.04	8493.80
472.22	8954.89
472.40	8493.80
472.58	8615.51
472.77	8793.39
472.95	9088.30
473.13	9085.96
473.31	8793.39
473.49	8849.57
473.67	9006.38
473.85	9034.47
474.03	9153.84
474.21	9142.13
474.39	9376.19
474.57	9263.84
474.75	9329.38
474.93	9423.00
475.12	9352.78
475.30	9446.40
475.48	9533.00
475.66	9727.27
475.84	9523.64
476.02	9710.88
476.20	9659.39
476.38	9984.73
476.56	9837.27
476.74	10045.58
476.92	9825.57
477.10	9926.21
477.28	10090.05
477.46	10242.18
477.64	10391.98
477.82	10366.23
478.00	10724.33
478.18	10293.68
478.36	10686.89
478.54	10752.42
478.72	10979.45
478.90	10979.45
479.08	11073.07
479.26	11007.54
479.44	11335.21
479.62	11052.01
479.80	11145.63
479.98	11391.39
480.16	11620.76
480.34	11485.01
480.52	11461.60
480.70	11506.07
480.88	11552.88
481.06	11709.70
481.24	11880.56
481.41	11903.96
481.59	12109.93
481.77	12180.15
481.95	12049.08
482.13	12418.88
482.31	12435.27
482.49	12538.25
482.67	12648.26
482.85	12695.07
483.03	12765.28
483.21	13062.53
483.39	12964.23
483.57	13149.13
483.74	13123.38
483.92	13408.93
484.10	13041.46
484.28	13706.18
484.46	13797.46
484.64	13994.06
484.82	13642.98
485.00	13738.94
485.18	14059.60
485.35	14118.11
485.53	14321.74
485.71	14438.76
485.89	14754.74
486.07	14406.00
486.25	14501.96
486.43	14724.31
486.61	14761.76
486.78	15164.33
486.96	14618.99
487.14	15384.34
487.32	15428.81
487.50	15316.47
487.68	15571.58
487.85	15594.99
488.03	15864.15
488.21	15847.77
488.39	16208.21
488.57	16285.45
488.75	16217.57
488.92	16531.20
489.10	16718.45
489.28	16524.18
489.46	16716.11
489.64	16938.46
489.81	17064.85
489.99	17305.92
490.17	17537.63
490.35	17376.14
490.53	17427.63
490.70	17612.53
490.88	17530.61
491.06	17701.47
491.24	18101.70
491.41	17841.90
491.59	18157.88
491.77	18192.98
491.95	18438.74
492.13	18665.77
492.30	18677.48
492.48	18628.32
492.66	18937.27
492.84	18698.54
493.01	19290.70
493.19	19042.60
493.37	19208.78
493.54	19227.50
493.72	19721.35
493.90	19431.13
494.08	19580.92
494.25	19812.63
494.43	19885.19
494.61	19943.70
494.79	20130.95
494.96	20205.84
495.14	20336.91
495.32	20477.35
495.49	20198.82
495.67	20484.37
495.85	20664.59
496.02	20744.17
496.20	21238.02
496.38	21095.25
496.55	21174.83
496.73	21825.50
496.91	21603.14
497.09	21614.85
497.26	21811.45
497.44	21781.03
497.62	21689.74
497.79	22087.64
497.97	22054.87
498.14	22331.05
498.32	22443.40
498.50	22396.59
498.67	22794.48
498.85	22508.93
499.03	22932.57
499.20	23056.62
499.38	22941.93
499.56	22778.09
499.73	23082.36
499.91	23309.40
500.08	23101.09
500.26	23098.75
500.44	23704.95
500.61	23709.63
500.79	23269.61
500.97	23768.14
501.14	23864.10
501.32	23887.51
501.49	23859.42
501.67	23971.77
501.84	24072.41
502.02	24173.05
502.20	24224.54
502.37	24156.67
502.55	24507.75
502.72	24575.62
502.90	24395.40
503.07	24524.13
503.25	24636.48
503.43	24451.58
503.60	25010.96
503.78	24699.67
503.95	24900.96
504.13	24861.17
504.30	25160.76
504.48	25233.32
504.65	25408.86
504.83	25481.41
505.01	25745.89
505.18	25816.11
505.36	26015.05
505.53	25668.66
505.71	26150.81
505.88	26008.03
506.06	25661.63
506.23	26150.81
506.41	26057.18
506.58	26118.04
506.76	26143.78
506.93	26462.10
507.11	26281.88
507.28	26349.75
507.46	26888.07
507.63	26869.35
507.81	27133.83
507.98	26668.06
508.16	27190.00
508.33	26878.71
508.50	27360.86
508.68	26986.38
508.85	27545.76
509.03	27199.37
509.20	27487.25
509.38	27686.20
509.55	27477.89
509.73	27597.26
509.90	27882.80
510.08	27737.69
510.25	28161.33
510.42	27861.74
510.60	28271.33
510.77	28313.46
510.95	28393.04
511.12	28203.46
511.30	28463.25
511.47	28226.86
511.64	28425.81
511.82	28680.92
511.99	28666.88
512.17	28552.20
512.34	28849.44
512.51	28854.12
512.69	29134.99
512.86	28973.49
513.04	29343.30
513.21	29249.67
513.38	29228.61
513.56	29654.59
513.73	29418.19
513.90	29675.65
514.08	29675.65
514.25	29769.27
514.43	29661.61
514.60	29511.81
514.77	29982.26
514.95	30541.65
515.12	30101.63
515.29	30235.04
515.47	30579.10
515.64	30401.22
515.81	29937.79
515.99	30543.99
516.16	30878.69
516.33	30920.82
516.51	30693.79
516.68	30595.48
516.85	30850.60
517.03	31096.36
517.20	31152.53
517.37	30827.20
517.54	30955.93
517.72	31374.88
517.89	31122.10
518.06	31197.00
518.24	31789.16
518.41	31215.72
518.58	31068.27
518.75	31061.25
518.93	31639.36
519.10	31166.57
519.27	31700.22
519.45	31735.32
519.62	32102.79
519.79	32072.36
519.96	31838.31
520.14	32070.02
520.31	31552.76
520.48	32095.77
520.65	32116.83
520.83	32591.96
521.00	32678.56
521.17	32292.37
521.34	32547.49
521.52	32531.11
521.69	32837.72
521.86	33111.56
522.03	32856.44
522.20	33235.61
522.38	33055.39
522.55	33179.43
522.72	32666.86
522.89	33266.03
523.07	33371.36
523.24	33420.51
523.41	33624.14
523.58	33212.20
523.75	33233.27
523.92	33511.79
524.10	33326.89
524.27	34026.71
524.44	33689.67
524.61	34249.06
524.78	33776.27
524.96	34073.52
525.13	34015.01
525.30	34244.38
525.47	33996.28
525.64	34263.10
525.81	34476.09
525.98	34663.33
526.16	34312.25
526.33	34539.29
526.50	34756.96
526.67	34529.92
526.84	34527.58
527.01	34384.81
527.18	34686.74
527.36	34611.84
527.53	34213.95
527.70	35342.09
527.87	34801.43
528.04	34986.33
528.21	35007.39
528.38	35030.80
528.55	35248.47
528.72	35454.44
528.89	35304.64
529.07	35440.39
529.24	35187.61
529.41	35625.29
529.58	34862.28
529.75	35220.38
529.92	35306.98
530.09	35452.09
530.26	35562.10
530.43	36137.87
530.60	35580.82
530.77	35613.59
530.94	36046.59
531.11	35840.62
531.28	35887.43
531.46	36158.94
531.63	35903.82
531.80	36016.16
531.97	36282.98
532.14	36184.68
532.31	36023.19
532.48	36538.10
532.65	36451.50
532.82	36341.50
532.99	36779.18
533.16	36355.54
533.33	36442.14
533.50	36783.86
533.67	36730.03
533.84	36463.21
534.01	36957.06
534.18	36629.38
534.35	37034.30
534.52	37125.58
534.69	36856.42
534.86	37322.18
535.03	36987.49
535.20	37471.98
535.37	37172.39
535.54	37413.46
535.71	37099.83
535.88	37717.73
536.05	37532.83
536.22	37832.42
536.38	37628.79
536.55	37446.23
536.72	37750.50
536.89	37734.12
537.06	37724.75
537.23	37876.89
537.40	37797.31
537.57	37715.39
537.74	37900.29
537.91	37869.87
538.08	37940.08
538.25	37895.61
538.42	37895.61
538.59	38330.95
538.75	37972.85
538.92	38368.40
539.09	38513.52
539.26	38242.01
539.43	37986.89
539.60	38202.22
539.77	38426.92
539.94	39304.62
540.11	38639.90
540.28	38864.60
540.44	38890.34
540.61	38644.59
540.78	38532.24
540.95	38536.92
541.12	38618.84
541.29	38469.04
541.46	38534.58
541.62	38785.02
541.79	39061.20
541.96	38789.70
542.13	38937.15
542.30	38745.23
542.47	38930.13
542.63	39236.74
542.80	39395.90
542.97	39597.18
543.14	39697.83
543.31	39255.46
543.48	39407.60
543.64	39847.62
543.81	39974.01
543.98	39856.98
544.15	39966.99
544.32	40233.81
544.48	40144.87
544.65	39903.79
544.82	40034.86
544.99	39878.05
545.16	39924.86
545.32	40034.86
545.49	40664.47
545.66	40697.24
545.83	40196.36
546.00	40158.91
546.16	40589.57
546.33	40009.12
546.50	40048.91
546.67	40987.46
546.83	39964.65
547.00	40734.68
547.17	40065.29
547.34	40212.74
547.50	40910.22
547.67	40818.94
547.84	40746.39
548.00	41144.28
548.17	41378.33
548.34	40966.40
548.51	41277.69
548.67	40994.48
548.84	41027.25
549.01	40905.54
549.18	40872.78
549.34	40928.95
549.51	41486.00
549.68	40762.77
549.84	41151.30
550.01	41345.56
550.18	41104.49
550.34	41088.10
550.51	41024.91
550.68	41614.72
550.84	41148.96
551.01	41722.39
551.18	41099.81
551.34	41675.58
551.51	41598.34
551.68	41434.50
551.84	41443.87
552.01	41624.09
552.18	41757.50
552.34	41558.55
552.51	41752.82
552.68	41471.95
552.84	41907.29
553.01	41965.81
553.18	41911.97
553.34	41495.36
553.51	41511.74
553.67	42082.83
553.84	41998.57
554.01	42368.38
554.17	42129.64
554.34	42113.26
554.51	42384.76
554.67	42323.91
554.84	42487.74
555.00	42614.13
555.17	41617.07
555.33	42131.98
555.50	42520.51
555.67	42689.03
555.83	42307.52
556.00	42724.14
556.16	42569.66
556.33	42691.37
556.50	42749.88
556.66	42801.38
556.83	42473.70
556.99	42560.30
557.16	43016.71
557.32	42398.80
557.49	43082.24
557.65	42593.07
557.82	42658.60
557.98	42787.33
558.15	42452.64
558.32	42773.29
558.48	42679.67
558.65	43079.90
558.81	42693.71
558.98	42546.26
559.14	42733.50
559.31	43100.97
559.47	42646.90
559.64	42997.98
559.80	43138.41
559.97	43150.12
560.13	42848.19
560.30	43330.34
560.46	43082.24
560.63	43297.57
560.79	43143.09
560.96	43463.75
561.12	43299.91
561.29	43744.61
561.45	43042.45
561.61	43297.57
561.78	43119.69
561.94	43372.47
562.11	43325.66
562.27	43543.33
562.44	43042.45
562.60	43461.41
562.77	43587.80
562.93	43833.55
563.10	43636.95
563.26	43566.73
563.42	43639.29
563.59	43360.76
563.75	43463.75
563.92	43639.29
564.08	43302.25
564.24	43618.22
564.41	43702.48
564.57	44002.07
564.74	43709.50
564.90	43662.69
565.07	43540.99
565.23	43381.83
565.39	43412.26
565.56	44215.06
565.72	43931.86
565.88	44428.05
566.05	43990.37
566.21	43625.25
566.38	43772.70
566.54	43861.64
566.70	44198.68
566.87	43878.02
567.03	44020.80
567.19	44147.18
567.36	43859.30
567.52	43690.78
567.68	44002.07
567.85	44100.37
568.01	44215.06
568.17	44210.38
568.34	44449.11
568.50	43803.13
568.66	44093.35
568.83	44004.41
568.99	43978.67
569.15	44086.33
569.32	44179.95
569.48	44247.83
569.64	44271.23
569.81	44472.52
569.97	44474.86
570.13	44322.72
570.30	44006.75
570.46	44243.15
570.62	44168.25
570.78	44619.97
570.95	44184.63
571.11	44304.00
571.27	44247.83
571.43	44376.56
571.60	44243.15
571.76	44252.51
571.92	44116.76
572.09	44285.28
572.25	44509.97
572.41	44353.15
572.57	44524.01
572.74	44816.58
572.90	44533.37
573.06	44280.60
573.22	44935.95
573.38	44409.32
573.55	44313.36
573.71	44638.70
573.87	44547.42
574.03	44837.64
574.20	44758.06
574.36	44343.79
574.52	44397.62
574.68	44519.33
574.84	44722.96
575.01	44748.70
575.17	44919.56
575.33	44844.66
575.49	44545.08
575.65	44854.03
575.82	44748.70
575.98	44591.89
576.14	45069.36
576.30	44884.45
576.46	44645.72
576.62	44619.97
576.79	44603.59
576.95	44130.80
577.11	44737.00
577.27	44949.99
577.43	44641.04
577.59	44769.77
577.75	44666.78
577.92	44294.64
578.08	44605.93
578.24	45010.84
578.40	44779.13
578.56	44844.66
578.72	45059.99
578.88	44580.18
579.04	44884.45
579.21	44842.32
579.37	44877.43
579.53	45230.85
579.69	44744.02
579.85	44655.08
580.01	44870.41
580.17	44849.35
580.33	44659.76
580.49	45062.33
580.65	44545.08
580.82	44980.42
580.98	44617.63
581.14	44301.66
581.30	45031.91
581.46	44491.24
581.62	44947.65
581.78	44781.47
581.94	44952.33
582.10	44741.68
582.26	44996.80
582.42	44636.36
582.58	44973.39
582.74	44886.79
582.90	45488.31
583.06	45195.74
583.22	45097.44
583.38	44598.91
583.54	44987.44
583.70	45326.81
583.86	45057.65
584.02	44928.92
584.18	44978.07
584.34	44886.79
584.50	45148.93
584.66	44959.35
584.82	45036.59
584.98	45450.86
585.14	44790.83
585.30	45118.51
585.46	44797.85
585.62	45111.49
585.78	45282.34
585.94	44919.56
586.10	44814.24
586.26	44903.18
586.42	44739.34
586.58	45062.33
586.74	44917.22
586.90	45219.15
587.06	45071.70
587.22	45310.43
587.38	44842.32
587.54	45354.90
587.70	45572.57
587.86	44910.20
588.02	44856.37
588.18	45188.72
588.34	44992.12
588.49	44973.39
588.65	44751.04
588.81	45436.82
588.97	45092.76
589.13	45158.30
589.29	44985.10
589.45	45331.50
589.61	45549.17
589.77	45230.85
589.93	45483.63
590.08	45294.05
590.24	45605.34
590.40	45846.41
590.56	45179.36
590.72	45514.06
590.88	45315.11
591.04	45411.07
591.20	45436.82
591.35	45844.07
591.51	45935.35
591.67	45677.90
591.83	45635.77
591.99	45546.82
592.15	45305.75
592.31	45090.42
592.46	45198.09
592.62	45689.60
592.78	45928.33
592.94	45902.59
593.10	45476.61
593.26	45940.04
593.41	45876.84
593.57	45879.18
593.73	45542.14
593.89	46234.94
594.05	45804.28
594.20	46068.76
594.36	46066.42
594.52	46178.77
594.68	46115.58
594.84	45507.04
594.99	45542.14
595.15	45432.14
595.31	45577.25
595.47	45680.24
595.62	45832.37
595.78	45598.32
595.94	45680.24
596.10	45647.47
596.25	45975.14
596.41	45762.15
596.57	45666.19
596.73	45918.97
596.88	45853.44
597.04	45729.39
597.20	45804.28
597.36	45869.82
597.51	45586.61
597.67	45595.98
597.83	45464.91
597.99	45792.58
598.14	45570.23
598.30	45769.18
598.46	45734.07
598.61	45921.31
598.77	45858.12
598.93	46150.68
599.09	45764.49
599.24	45668.53
599.40	46195.15
599.56	46277.07
599.71	45951.74
599.87	46246.65
600.03	46174.09
600.18	46000.89
600.34	45876.84
600.50	46164.73
600.65	45713.00
600.81	45888.54
600.97	46251.33
601.12	46256.01
601.28	46192.81
601.44	45624.06
601.59	45895.56
601.75	45947.06
601.91	45787.90
602.06	45837.05
602.22	46075.79
602.37	45944.72
602.53	46057.06
602.69	46087.49
602.84	45577.25
603.00	45848.75
603.16	46267.71
603.31	45865.14
603.47	45928.33
603.62	45511.72
603.78	46700.71
603.94	45811.31
604.09	45851.09
604.25	45874.50
604.40	45883.86
604.56	45766.84
604.71	45954.08
604.87	45633.42
605.03	45673.21
605.18	45991.53
605.34	46040.68
605.49	45495.33
605.65	45755.13
605.80	45687.26
605.96	45734.07
606.12	45963.44
606.27	45769.18
606.43	45876.84
606.58	46085.15
606.74	45794.92
606.89	45682.58
607.05	45911.95
607.20	46003.23
607.36	45797.26
607.51	45635.77
607.67	45418.10
607.82	45542.14
607.98	45673.21
608.13	45951.74
608.29	45862.80
608.44	45921.31
608.60	45933.01
608.75	46234.94
608.91	45825.35
609.06	45418.10
609.22	45804.28
609.37	45682.58
609.53	45940.04
609.68	45794.92
609.84	45406.39
609.99	45876.84
610.15	45368.94
610.30	45514.06
610.46	45525.76
610.61	45570.23
610.76	45528.10
610.92	45191.06
611.07	45757.47
611.23	45296.39
611.38	45504.70
611.54	45715.34
611.69	45350.22
611.84	45492.99
612.00	45673.21
612.15	45209.79
612.31	45308.09
612.46	45235.53
612.62	45329.16
612.77	44975.73
612.92	45600.66
613.08	45092.76
613.23	45188.72
613.39	45375.97
613.54	44856.37
613.69	45441.50
613.85	45521.08
614.00	45153.62
614.15	45511.72
614.31	45029.57
614.46	45113.83
614.62	45085.74
614.77	45277.66
614.92	44767.43
615.08	45067.02
615.23	45521.08
615.38	45209.79
615.54	45202.77
615.69	45698.96
615.84	45069.36
616.00	45041.27
616.15	44987.44
616.30	45221.49
616.46	45195.74
616.61	44842.32
616.76	45055.31
616.92	45076.38
617.07	45104.46
617.22	45397.03
617.37	44156.55
617.53	44959.35
617.68	44985.10
617.83	44889.13
617.99	45148.93
618.14	45118.51
618.29	44507.63
618.45	44273.57
618.60	45069.36
618.75	44802.53
618.90	44861.05
619.06	44980.42
619.21	45141.91
619.36	44973.39
619.51	44406.98
619.67	44357.83
619.82	44704.23
619.97	44547.42
620.12	44882.11
620.28	44435.07
620.43	44744.02
620.58	44877.43
620.73	44577.84
620.89	44458.48
621.04	45167.66
621.19	44729.98
621.34	44397.62
621.49	44123.78
621.65	44535.71
621.80	44488.90
621.95	44247.83
622.10	44329.75
622.25	44168.25
622.41	44156.55
622.56	44657.42
622.71	44133.14
622.86	44184.63
623.01	44788.49
623.16	44364.85
623.32	43814.83
623.47	43847.60
623.62	44002.07
623.77	44552.10
623.92	44023.14
624.07	43971.64
624.23	44002.07
624.38	44053.56
624.53	44374.22
624.68	43597.16
624.83	43660.35
624.98	44023.14
625.13	43655.67
625.29	43915.47
625.44	43962.28
625.59	44236.12
625.74	43416.94
625.89	43430.98
626.04	43531.62
626.19	43580.78
626.34	44142.50
626.49	43576.09
626.65	43533.96
626.80	43311.61
626.95	43526.94
627.10	43295.23
627.25	43620.56
627.40	43646.31
627.55	43517.58
627.70	43721.21
627.85	43573.75
628.00	43473.11
628.15	43393.53
628.30	43339.70
628.45	43150.12
628.60	42665.63
628.76	43086.92
628.91	43037.77
629.06	42974.58
629.21	43274.16
629.36	43498.86
629.51	43035.43
629.66	43391.19
629.81	43042.45
629.96	43194.59
630.11	42923.08
630.26	43028.41
630.41	42796.70
630.56	42880.95
630.71	43426.30
630.86	43115.01
631.01	42880.95
631.16	43091.60
631.31	42773.29
631.46	42742.86
631.61	43065.86
631.76	42719.46
631.91	43140.75
632.06	43140.75
632.21	42937.13
632.36	42562.64
632.51	42525.19
632.66	43009.68
632.81	42698.39
632.96	42808.40
633.10	42384.76
633.25	42529.87
633.40	43065.86
633.55	42745.20
633.70	42525.19
633.85	42368.38
634.00	42185.82
634.15	42246.67
634.30	42419.87
634.45	42368.38
634.60	42731.16
634.75	42359.02
634.90	42787.33
635.05	42153.05
635.19	41926.02
635.34	42572.00
635.49	42593.07
635.64	42113.26
635.79	42227.95
635.94	42038.36
636.09	42581.37
636.24	42129.64
636.39	42136.66
636.53	42464.34
636.68	41874.52
636.83	41909.63
636.98	41804.31
637.13	42176.45
637.28	41780.90
637.43	41872.18
637.57	42106.24
637.72	41502.38
637.87	41521.10
638.02	42333.27
638.17	41586.64
638.32	41993.89
638.46	41214.49
638.61	41493.02
638.76	41935.38
638.91	41493.02
639.06	41839.42
639.20	41008.53
639.35	41284.71
639.50	41446.21
639.65	41563.23
639.80	41715.37
639.94	41748.14
640.09	41635.79
640.24	41556.21
640.39	41233.22
640.54	41095.13
640.68	41235.56
640.83	41160.66
640.98	41460.25
641.13	41191.09
641.27	41420.46
641.42	41694.30
641.57	40982.78
641.72	41127.89
641.86	40751.07
642.01	41027.25
642.16	41022.57
642.31	40884.48
642.45	40870.43
642.60	40758.09
642.75	41130.23
642.90	41146.62
643.04	41361.95
643.19	41125.55
643.34	40734.68
643.48	40655.11
643.63	40758.09
643.78	40517.01
643.93	41104.49
644.07	40957.03
644.22	40844.69
644.37	40800.22
644.51	41209.81
644.66	40987.46
644.81	40938.31
644.95	40739.36
645.10	40575.53
645.25	40706.60
645.39	40566.16
645.54	40556.80
645.69	40336.79
645.83	40224.45
645.98	40203.38
646.13	40149.55
646.27	40189.34
646.42	40275.94
646.57	40430.41
646.71	40575.53
646.86	40355.52
647.00	40540.42
647.15	40418.71
647.30	40191.68
647.44	40130.83
647.59	40514.67
647.74	39714.21
647.88	40325.09
648.03	40577.87
648.17	40627.02
648.32	40217.43
648.47	40678.51
648.61	40357.86
648.76	39990.39
648.90	39915.50
649.05	40137.85
649.20	40348.50
649.34	39988.05
649.49	40023.16
649.63	40198.70
649.78	40191.68
649.92	39992.73
650.07	40439.78
650.21	40060.61
650.36	40245.51
650.51	40376.58
650.65	39992.73
650.80	40130.83
650.94	40037.20
651.09	39849.96
651.23	39505.90
651.38	39641.65
651.52	39040.14
651.67	39484.84
651.81	39576.12
651.96	39538.67
652.10	39632.29
652.25	39346.75
652.39	39264.83
652.54	39548.03
652.68	38883.32
652.83	39786.77
652.97	40023.16
653.12	39398.24
653.26	39285.89
653.41	39487.18
653.55	39435.69
653.70	39777.40
653.84	39431.01
653.99	39377.17
654.13	39559.73
654.27	39100.99
654.42	39077.58
654.56	39189.93
654.71	39318.66
654.85	39335.04
655.00	39323.34
655.14	39433.35
655.29	39758.68
655.43	39641.65
655.57	38682.03
655.72	38506.49
655.86	38698.42
656.01	38478.41
656.15	38965.24
656.30	38742.89
656.44	39147.80
656.58	39030.77
656.73	38426.92
656.87	38546.28
657.01	38515.86
657.16	38850.55
657.30	38752.25
657.45	38672.67
657.59	37748.16
657.73	38270.10
657.88	38471.39
658.02	39115.03
658.16	38649.27
658.31	38546.28
658.45	38581.39
658.60	38998.01
658.74	38366.06
658.88	38464.36
659.03	38658.63
659.17	37979.87
659.31	38000.94
659.46	37593.68
659.60	37984.55
659.74	38630.54
659.89	37883.91
660.03	37591.34
660.17	38066.47
660.32	37989.24
660.46	37668.58
660.60	37296.44
660.74	37734.12
660.89	37574.96
661.03	37628.79
661.17	37390.06
661.32	37488.36
661.46	37722.41
661.60	37422.83
661.74	37368.99
661.89	37603.05
662.03	37216.86
662.17	37200.47
662.31	37095.15
662.46	37404.10
662.60	36999.19
662.74	36891.52
662.88	36598.96
663.03	36734.71
663.17	36765.14
663.31	36800.24
663.45	36673.85
663.60	36950.04
663.74	37148.98
663.88	36524.06
664.02	36376.61
664.17	36699.60
664.31	36144.89
664.45	36119.15
664.59	36264.26
664.73	36364.90
664.88	36273.62
665.02	35983.40
665.16	36189.36
665.30	36219.79
665.44	35976.37
665.59	35838.28
665.73	36011.48
665.87	35634.66
666.01	35889.77
666.15	35866.37
666.29	35625.29
666.44	35929.56
666.58	36095.74
666.72	35716.58
666.86	35976.37
667.00	35732.96
667.14	35658.06
667.28	35288.26
667.43	35395.92
667.57	35316.34
667.71	35306.98
667.85	35681.47
667.99	35454.44
668.13	35112.72
668.27	35192.30
668.41	34672.70
668.56	34558.01
668.70	34565.03
668.84	34277.15
668.98	34628.23
669.12	34792.06
669.26	34504.18
669.40	34679.72
669.54	34609.50
669.68	34293.53
669.82	34508.86
669.96	34183.52
670.10	33961.17
670.25	34066.50
670.39	34253.74
670.53	34380.13
670.67	33935.43
670.81	34267.78
670.95	33722.44
671.09	33909.68
671.23	33921.38
671.37	33757.55
671.51	33874.57
671.65	33818.40
671.79	33460.30
671.93	33631.16
672.07	33823.08
672.21	33280.08
672.35	32790.91
672.49	33516.47
672.63	33287.10
672.77	33003.89
672.91	33039.00
673.05	32877.51
673.19	32727.71
673.33	33069.43
673.47	32568.55
673.61	32524.08
673.75	31950.65
673.89	32229.18
674.03	31913.20
674.17	31716.60
674.31	32439.82
674.45	31751.71
674.59	31941.29
674.73	31990.44
674.87	31768.09
675.01	31744.69
675.15	31269.56
675.29	31688.51
675.43	31281.26
675.56	31484.89
675.70	31337.43
675.84	31335.09
675.98	30443.35
676.12	31213.38
676.26	31077.63
676.40	30967.63
676.54	31117.42
676.68	30815.49
676.82	30199.93
676.96	30595.48
677.10	30721.87
677.23	30513.56
677.37	30408.24
677.51	30216.32
677.65	30504.20
677.79	30120.35
677.93	29823.11
678.07	30005.67
678.21	29628.84
678.34	29598.41
678.48	29631.18
678.62	29406.49
678.76	29624.16
678.90	29612.46
679.04	29584.37
679.18	29462.66
679.31	29266.06
679.45	29106.90
679.59	28924.34
679.73	28716.03
679.87	28720.71
680.00	28641.14
680.14	28596.67
680.28	28774.55
680.42	28411.76
680.56	28383.68
680.70	27892.16
680.83	28261.97
680.97	27955.36
681.11	28240.90
681.25	27967.06
681.39	27704.92
681.52	27992.81
681.66	27503.64
681.80	27302.35
681.94	26932.54
682.07	27065.96
682.21	27384.27
682.35	27080.00
682.49	26717.22
682.62	27278.94
682.76	26693.81
682.90	26794.45
683.04	26742.96
683.17	26864.67
683.31	26457.42
683.45	26398.90
683.59	26068.89
683.72	25996.33
683.86	25858.24
684.00	25848.88
684.13	25722.49
684.27	25846.54
684.41	25839.51
684.55	25879.30
684.68	25420.56
684.82	25153.74
684.96	25453.33
685.09	25373.75
685.23	25275.45
685.37	25216.93
685.50	25172.46
685.64	25333.96
685.78	24823.72
685.91	24915.00
686.05	24652.86
686.19	24137.94
686.32	24702.01
686.46	24362.64
686.60	24037.30
686.73	24091.13
686.87	24231.57
687.01	24182.42
687.14	24067.73
687.28	24189.44
687.42	23999.85
687.55	23524.72
687.69	23484.94
687.82	23545.79
687.96	23316.42
688.10	23503.66
688.23	23328.12
688.37	23131.51
688.50	23534.09
688.64	23374.93
688.78	23094.07
688.91	22836.61
689.05	22628.30
689.18	22649.36
689.32	22515.95
689.46	22403.61
689.59	22492.55
689.73	22761.71
689.86	22356.80
690.00	22375.52
690.13	22176.58
690.27	21626.55
690.41	21961.25
690.54	22050.19
690.68	21544.63
690.81	21860.60
690.95	21451.01
691.08	21575.06
691.22	21294.19
691.35	21074.18
691.49	21486.12
691.62	21092.91
691.76	20847.15
691.89	20610.76
692.03	20936.09
692.16	20449.26
692.30	21013.33
692.43	20489.05
692.57	20336.91
692.70	20475.01
692.84	20243.29
692.97	19974.13
693.11	20070.09
693.24	20077.12
693.38	19974.13
693.51	19414.74
693.65	19365.59
693.78	19564.54
693.92	19756.46
694.05	19452.19
694.19	19484.96
694.32	19211.12
694.45	19559.86
694.59	19824.34
694.72	19606.67
694.86	19115.16
694.99	19040.26
695.13	18855.36
695.26	18881.10
695.39	18506.62
695.53	18368.52
695.66	18462.15
695.80	18523.00
695.93	18361.50
696.07	18260.86
696.20	17977.65
696.33	17947.23
696.47	18106.38
696.60	17860.63
696.73	18118.09
696.87	17972.97
697.00	17919.14
697.14	17418.27
697.27	17289.54
697.40	17720.20
697.54	17502.53
697.67	17432.31
697.80	17334.01
697.94	17106.98
698.07	17015.69
698.21	16975.91
698.34	16893.99
698.47	16760.58
698.61	16353.32
698.74	16673.98
698.87	16528.86
699.01	16332.26
699.14	16233.96
699.27	16374.39
699.40	16355.66
699.54	16290.13
699.67	16292.47
699.80	16255.02
699.94	15782.23
700.07	15712.02
700.20	15798.62
700.34	15602.01
700.47	15501.37
700.60	15683.93
700.73	15791.59
700.87	15260.29
701.00	15456.90
701.13	15136.24
701.26	14977.09
701.40	15042.62
701.53	15066.03
701.66	15133.90
701.79	14876.44
701.93	14827.29
702.06	14544.09
702.19	14789.85
702.32	15056.67
702.46	14565.15
702.59	14682.18
702.72	14773.46
702.85	14429.40
702.99	14286.63
703.12	14235.14
703.25	14090.02
703.38	14122.79
703.51	14097.05
703.65	13752.99
703.78	13675.75
703.91	13713.20
704.04	13848.95
704.17	13336.37
704.31	13628.94
704.44	13605.53
704.57	13451.06
704.70	13476.80
704.83	13315.31
704.96	13425.31
705.10	13043.81
705.23	13160.83
>>>>>End Processed Spectral Data<<<<<
