SpectraSuite Data File
++++++++++++++++++++++++++++++++++++
Date: Fri Oct 25 10:44:05 EDT 2013
User: price-jones
Dark Spectrum Present: No
Reference Spectrum Present: No
Number of Sampled Component Spectra: 1
Spectrometers: USB2+H05261
Integration Time (usec): 100000 (USB2+H05261)
Spectra Averaged: 1 (USB2+H05261)
Boxcar Smoothing: 0 (USB2+H05261)
Correct for Electrical Dark: No (USB2+H05261)
Strobe/Lamp Enabled: No (USB2+H05261)
Correct for Detector Non-linearity: No (USB2+H05261)
Correct for Stray Light: No (USB2+H05261)
Number of Pixels in Processed Spectrum: 2048
>>>>>Begin Processed Spectral Data<<<<<
365.73	84.26
365.92	84.26
366.12	84.26
366.32	28.09
366.52	14.04
366.72	51.49
366.91	35.11
367.11	56.17
367.31	65.54
367.51	0.00
367.70	21.06
367.90	42.13
368.10	11.70
368.30	16.38
368.49	0.00
368.69	93.62
368.89	11.70
369.09	53.83
369.28	67.88
369.48	28.09
369.68	58.51
369.87	70.22
370.07	93.62
370.27	46.81
370.47	152.13
370.66	362.78
370.86	355.76
371.06	421.30
371.25	458.74
371.45	470.45
371.65	533.64
371.84	484.49
372.04	444.70
372.24	552.37
372.44	561.73
372.63	493.85
372.83	578.11
373.03	461.09
373.22	524.28
373.42	505.56
373.62	505.56
373.81	484.49
374.01	538.32
374.21	547.69
374.40	533.64
374.60	601.52
374.79	566.41
374.99	559.39
375.19	594.50
375.38	592.16
375.58	613.22
375.78	587.47
375.97	620.24
376.17	627.26
376.37	561.73
376.56	557.05
376.76	641.31
376.95	578.11
377.15	547.69
377.35	622.58
377.54	688.12
377.74	606.20
377.93	723.23
378.13	704.50
378.33	678.76
378.52	648.33
378.72	697.48
378.91	674.07
379.11	643.65
379.31	631.94
379.50	676.41
379.70	718.54
379.89	690.46
380.09	662.37
380.28	643.65
380.48	620.24
380.68	709.18
380.87	681.10
381.07	655.35
381.26	840.25
381.46	784.08
381.65	748.97
381.85	716.20
382.04	669.39
382.24	753.65
382.43	697.48
382.63	674.07
382.83	746.63
383.02	692.80
383.22	737.27
383.41	676.41
383.61	683.44
383.80	802.80
384.00	840.25
384.19	812.17
384.39	713.86
384.58	723.23
384.78	842.59
384.97	791.10
385.17	779.40
385.36	821.53
385.56	875.36
385.75	779.40
385.95	830.89
386.14	891.74
386.34	887.06
386.53	915.15
386.72	894.08
386.92	901.11
387.11	905.79
387.31	837.91
387.50	882.38
387.70	866.00
387.89	880.04
388.09	856.64
388.28	873.02
388.48	887.06
388.67	1004.09
388.86	961.96
389.06	929.19
389.25	931.53
389.45	940.90
389.64	994.73
389.84	1032.18
390.03	1032.18
390.22	1086.01
390.42	1029.84
390.61	1011.11
390.81	1062.60
391.00	1097.71
391.19	1158.57
391.39	985.37
391.58	1090.69
391.78	1039.20
391.97	1022.81
392.16	1151.54
392.36	1043.88
392.55	1118.78
392.75	1064.94
392.94	980.68
393.13	1034.52
393.33	994.73
393.52	1062.60
393.71	1121.12
393.91	1181.97
394.10	1174.95
394.29	1048.56
394.49	1196.01
394.68	1268.57
394.88	1235.80
395.07	1219.42
395.26	1366.87
395.46	1235.80
395.65	1238.14
395.84	1205.38
396.04	1287.29
396.23	1219.42
396.42	1163.25
396.62	1256.87
396.81	1226.44
397.00	1313.04
397.19	1380.92
397.39	1348.15
397.58	1373.89
397.77	1404.32
397.97	1469.86
398.16	1467.52
398.35	1537.73
398.55	1486.24
398.74	1530.71
398.93	1530.71
399.12	1521.35
399.32	1516.67
399.51	1568.16
399.70	1629.01
399.90	1558.80
400.09	1460.49
400.28	1713.27
400.47	1621.99
400.67	1715.61
400.86	1746.04
401.05	1743.70
401.24	1755.40
401.44	1722.63
401.63	1849.02
401.82	1750.72
402.01	1732.00
402.21	1739.02
402.40	1827.96
402.59	1820.94
402.78	1732.00
402.97	1806.89
403.17	1879.45
403.36	1933.28
403.55	1886.47
403.74	1940.30
403.93	1905.20
404.13	1867.75
404.32	1914.56
404.51	1942.64
404.70	1977.75
404.89	2008.18
405.09	2026.90
405.28	2005.84
405.47	1994.14
405.66	1970.73
405.85	1970.73
406.05	2092.44
406.24	2115.84
406.43	2080.74
406.62	2108.82
406.81	2108.82
407.00	2162.66
407.20	2069.03
407.39	2209.47
407.58	2225.85
407.77	2263.30
407.96	2289.04
408.15	2244.57
408.34	2340.54
408.54	2314.79
408.73	2403.73
408.92	2361.60
409.11	2314.79
409.30	2361.60
409.49	2244.57
409.68	2354.58
409.87	2401.39
410.07	2333.51
410.26	2401.39
410.45	2452.88
410.64	2443.52
410.83	2476.29
411.02	2523.10
411.21	2619.06
411.40	2719.70
411.59	2729.06
411.78	2623.74
411.98	2696.30
412.17	2724.38
412.36	2700.98
412.55	2855.45
412.74	2876.52
412.93	2726.72
413.12	2759.49
413.31	2897.58
413.50	2904.60
413.69	2888.22
413.88	2932.69
414.07	3073.12
414.26	3012.27
414.45	2951.42
414.64	3117.59
414.83	3030.99
415.02	3000.57
415.22	3148.02
415.41	3267.39
415.60	3229.94
415.79	3297.81
415.98	3368.03
416.17	3407.82
416.36	3375.05
416.55	3342.28
416.74	3232.28
416.93	3485.06
417.12	3377.39
417.31	3346.97
417.50	3513.14
417.69	3581.02
417.88	3475.70
418.07	3421.86
418.26	3688.68
418.45	3581.02
418.64	3676.98
418.83	3763.58
419.02	3646.55
419.21	3763.58
419.39	3716.77
419.58	3641.87
419.77	3597.40
419.96	3779.97
420.15	3829.12
420.34	3712.09
420.53	3922.74
420.72	3899.33
420.91	4074.87
421.10	3983.59
421.29	3899.33
421.48	3763.58
421.67	3925.08
421.86	3899.33
422.05	3932.10
422.24	3946.14
422.43	3915.72
422.61	3929.76
422.80	3997.64
422.99	3953.16
423.18	3985.93
423.37	4119.34
423.56	4058.49
423.75	3997.64
423.94	3960.19
424.13	3840.82
424.32	3920.40
424.50	4070.19
424.69	4081.89
424.88	4234.03
425.07	4084.23
425.26	4074.87
425.45	4042.11
425.64	4028.06
425.83	4138.07
426.01	4028.06
426.20	4161.47
426.39	4112.32
426.58	4074.87
426.77	4077.21
426.96	4142.75
427.15	4250.41
427.33	4077.21
427.52	4212.96
427.71	4264.46
427.90	4152.11
428.09	4105.30
428.28	4198.92
428.46	4219.99
428.65	4266.80
428.84	4365.10
429.03	4461.06
429.22	4264.46
429.40	4266.80
429.59	4138.07
429.78	4042.11
429.97	4028.06
430.16	4060.83
430.34	4283.18
430.53	4198.92
430.72	4339.35
430.91	4355.74
431.10	4491.49
431.28	4545.32
431.47	4631.92
431.66	4877.68
431.85	4746.61
432.03	4622.56
432.22	4856.61
432.41	4908.10
432.60	4788.74
432.79	4833.21
432.97	4903.42
433.16	4968.96
433.35	4702.14
433.54	4772.35
433.72	4765.33
433.91	4725.54
434.10	4847.25
434.28	4765.33
434.47	5032.15
434.66	5053.22
434.85	5217.05
435.03	5123.43
435.22	5069.60
435.41	5111.73
435.59	5137.48
435.78	5362.17
435.97	5334.08
436.16	5191.31
436.34	5296.63
436.53	5259.18
436.72	5305.99
436.90	5090.67
437.09	5378.55
437.28	5331.74
437.46	5163.22
437.65	5207.69
437.84	5362.17
438.02	5355.15
438.21	5188.97
438.40	5151.52
438.58	5544.73
438.77	5572.82
438.96	5535.37
439.14	5731.97
439.33	5746.02
439.52	5717.93
439.70	5774.10
439.89	5832.62
440.08	5762.40
440.26	5832.62
440.45	5853.68
440.63	6080.71
440.82	6282.00
441.01	6050.28
441.19	6090.07
441.38	6153.27
441.57	6176.67
441.75	6399.02
441.94	6523.07
442.12	6485.62
442.31	6626.06
442.50	6541.80
442.68	6457.54
442.87	6590.95
443.05	6436.47
443.24	6583.93
443.43	6621.38
443.61	6516.05
443.80	6700.95
443.98	6497.33
444.17	6483.28
444.35	6740.74
444.54	6740.74
444.73	6794.58
444.91	6731.38
445.10	6661.16
445.28	6820.32
445.47	6530.09
445.65	6590.95
445.84	6677.55
446.02	6665.85
446.21	6551.16
446.39	6808.62
446.58	6745.42
446.77	6832.02
446.95	6754.79
447.14	6918.62
447.32	7166.72
447.51	6834.36
447.69	6960.75
447.88	6904.58
448.06	6920.96
448.25	7007.56
448.43	6787.55
448.62	6834.36
448.80	6892.88
448.99	7089.48
449.17	7110.55
449.36	6832.02
449.54	7279.07
449.73	7227.57
449.91	7356.30
450.10	7379.71
450.28	7384.39
450.46	7487.37
450.65	7461.63
450.83	7396.09
451.02	7370.35
451.20	7501.42
451.39	7478.01
451.57	7447.58
451.76	7478.01
451.94	7480.35
452.13	7688.66
452.31	7236.94
452.49	7302.47
452.68	7452.27
452.86	7433.54
453.05	7445.24
453.23	7669.94
453.42	7459.29
453.60	7625.47
453.78	7424.18
453.97	7667.60
454.15	7653.55
454.34	7538.87
454.52	7829.09
454.70	7777.60
454.89	7662.91
455.07	7749.51
455.26	8028.04
455.44	7943.78
455.62	7932.08
455.81	7754.19
455.99	7943.78
456.17	7983.57
456.36	8042.08
456.54	8021.02
456.73	8208.26
456.91	8519.55
457.09	8402.52
457.28	8456.36
457.46	8269.11
457.64	8491.46
457.83	8329.97
458.01	8379.12
458.19	8315.92
458.38	8355.71
458.56	8458.70
458.74	8442.31
458.93	8400.18
459.11	8477.42
459.29	8514.87
459.48	8519.55
459.66	8561.68
459.84	8510.19
460.03	8891.70
460.21	8734.88
460.39	8664.66
460.57	8828.50
460.76	8617.85
460.94	8767.65
461.12	8865.95
461.31	8959.57
461.49	8987.66
461.67	8931.48
461.85	9064.89
462.04	8987.66
462.22	9355.12
462.40	9146.81
462.59	9151.49
462.77	8978.30
462.95	9282.56
463.13	9343.42
463.32	9195.96
463.50	9130.43
463.68	9160.86
463.86	9312.99
464.05	8950.21
464.23	9125.75
464.41	9224.05
464.59	9219.37
464.78	9575.13
464.96	9472.15
465.14	9247.46
465.32	9535.34
465.50	9809.19
465.69	9753.01
465.87	9334.06
466.05	9593.86
466.23	9249.80
466.41	9542.36
466.60	9591.52
466.78	9427.68
466.96	9675.77
467.14	9516.62
467.32	9802.16
467.51	9624.28
467.69	9404.27
467.87	9610.24
468.05	9626.62
468.23	9657.05
468.41	9753.01
468.60	9671.09
468.78	9804.50
468.96	9621.94
469.14	9867.70
469.32	10113.45
469.50	9806.84
469.69	9966.00
469.87	10197.71
470.05	10076.01
470.23	9961.32
470.41	10024.51
470.59	10169.63
470.77	10104.09
470.95	10193.03
471.14	10253.89
471.32	10335.81
471.50	10485.60
471.68	10679.86
471.86	10616.67
472.04	10534.75
472.22	10785.19
472.40	10560.50
472.58	10677.52
472.77	10712.63
472.95	10775.83
473.13	11119.89
473.31	10607.31
473.49	10834.34
473.67	10867.11
473.85	11119.89
474.03	11126.91
474.21	11173.72
474.39	11382.03
474.57	11290.74
474.75	11267.34
474.93	11609.06
475.12	11375.00
475.30	11524.80
475.48	11630.12
475.66	11616.08
475.84	11744.81
476.02	11775.24
476.20	11789.28
476.38	12098.23
476.56	12016.31
476.74	11957.80
476.92	12236.32
477.10	11875.88
477.28	12446.97
477.46	12430.59
477.64	12451.65
477.82	12465.69
478.00	12931.46
478.18	12849.54
478.36	12823.80
478.54	12814.43
478.72	13027.42
478.90	13406.59
479.08	13366.80
479.26	13621.92
479.44	13547.02
479.62	13645.32
479.80	13776.39
479.98	13689.79
480.16	13980.02
480.34	13853.63
480.52	13912.14
480.70	14155.56
480.88	14068.96
481.06	14223.44
481.24	14319.40
481.41	14586.22
481.59	14736.01
481.77	14925.60
481.95	14677.50
482.13	14979.43
482.31	14953.68
482.49	15274.34
482.67	15199.44
482.85	15548.18
483.03	15868.83
483.21	15662.86
483.39	15810.32
483.57	15871.17
483.74	15913.30
483.92	15953.09
484.10	16035.01
484.28	16285.45
484.46	16449.28
484.64	16725.47
484.82	16191.83
485.00	16154.38
485.18	16753.55
485.35	16854.20
485.53	16711.42
485.71	16322.90
485.89	16849.52
486.07	16786.32
486.25	17036.76
486.43	17296.56
486.61	17448.69
486.78	17654.66
486.96	17626.57
487.14	18127.45
487.32	17872.33
487.50	18560.45
487.68	18930.25
487.85	18675.13
488.03	18927.91
488.21	18691.52
488.39	19073.03
488.57	19138.56
488.75	19197.07
488.92	19346.87
489.10	19908.60
489.28	19754.12
489.46	20369.68
489.64	20379.04
489.81	20807.36
489.99	20666.93
490.17	20491.39
490.35	20573.31
490.53	20610.76
490.70	20767.57
490.88	21113.97
491.06	21214.62
491.24	21289.51
491.41	21139.72
491.59	21317.60
491.77	21249.72
491.95	21458.03
492.13	21799.75
492.30	22188.28
492.48	22422.33
492.66	22331.05
492.84	22230.41
493.01	22595.53
493.19	22558.08
493.37	22508.93
493.54	22747.67
493.72	22977.04
493.90	23054.28
494.08	23440.47
494.25	23747.08
494.43	24030.28
494.61	23985.81
494.79	23824.31
494.96	24109.86
495.14	24053.69
495.32	24512.43
495.49	24435.19
495.67	24140.29
495.85	24606.05
496.02	24650.52
496.20	25041.39
496.38	25109.27
496.55	25207.57
496.73	25853.56
496.91	25209.91
497.09	25612.48
497.26	25818.45
497.44	25582.06
497.62	25752.91
497.79	26099.31
497.97	25659.29
498.14	26038.46
498.32	25968.24
498.50	26314.64
498.67	27009.78
498.85	26277.19
499.03	26794.45
499.20	26909.14
499.38	26733.60
499.56	27211.07
499.73	26867.01
499.91	27014.46
500.08	27178.30
500.26	26991.06
500.44	27077.66
500.61	27117.45
500.79	27370.22
500.97	27456.82
501.14	27681.52
501.32	27662.79
501.49	27875.78
501.67	27990.47
501.84	27737.69
502.02	28027.92
502.20	28362.61
502.37	28596.67
502.55	28528.79
502.72	28559.22
502.90	28709.01
503.07	28481.98
503.25	29034.35
503.43	28760.50
503.60	28781.57
503.78	28294.74
503.95	29034.35
504.13	28847.10
504.30	29088.18
504.48	29252.02
504.65	29256.70
504.83	29720.12
505.01	29867.58
505.18	29717.78
505.36	30075.88
505.53	30054.82
505.71	30265.47
505.88	30930.18
506.06	30103.97
506.23	30448.03
506.41	30181.21
506.58	30588.46
506.76	30675.06
506.93	30506.54
507.11	30668.04
507.28	30705.49
507.46	30438.67
507.63	30831.88
507.81	30881.03
507.98	30621.23
508.16	30960.61
508.33	31503.61
508.50	31475.52
508.68	31653.40
508.85	31842.99
509.03	31938.95
509.20	32077.04
509.38	31646.38
509.55	31761.07
509.73	32030.23
509.90	32147.26
510.08	32032.57
510.25	32226.84
510.42	32425.78
510.60	32463.23
510.77	32503.02
510.95	33057.73
511.12	32563.87
511.30	32613.02
511.47	33354.97
511.64	32898.57
511.82	33160.71
511.99	32989.85
512.17	33294.12
512.34	32954.74
512.51	33247.31
512.69	33432.21
512.86	33165.39
513.04	33647.54
513.21	33687.33
513.38	33862.87
513.56	33404.13
513.73	33687.33
513.90	33572.64
514.08	33923.72
514.25	33975.22
514.43	33806.70
514.60	34068.84
514.77	33900.32
514.95	34110.97
515.12	33979.90
515.29	34230.33
515.47	34939.52
515.64	34766.32
515.81	34558.01
515.99	34602.48
516.16	34188.21
516.33	34455.03
516.51	34515.88
516.68	33825.42
516.85	34085.22
517.03	34249.06
517.20	34909.09
517.37	35061.22
517.54	35550.40
517.72	35234.42
517.89	34586.10
518.06	34735.89
518.24	34110.97
518.41	34876.32
518.58	35365.49
518.75	35295.28
518.93	35775.09
519.10	35173.57
519.27	35587.85
519.45	35842.96
519.62	36137.87
519.79	36020.84
519.96	35861.69
520.14	36187.02
520.31	35524.65
520.48	35824.24
520.65	36287.67
520.83	36353.20
521.00	36222.13
521.17	36566.19
521.34	36671.51
521.52	36737.05
521.69	36837.69
521.86	36919.61
522.03	36980.46
522.20	37003.87
522.38	37062.38
522.55	37319.84
522.72	37153.66
522.89	37069.40
523.07	37160.69
523.24	36825.99
523.41	37572.62
523.58	37647.52
523.75	38031.36
523.92	37991.58
524.10	37926.04
524.27	38092.22
524.44	37881.57
524.61	38298.19
524.78	38457.34
524.96	38185.84
525.13	38483.09
525.30	38581.39
525.47	38548.62
525.64	38445.64
525.81	38328.61
525.98	38356.70
526.16	38164.78
526.33	37757.52
526.50	38263.08
526.67	38089.88
526.84	37986.89
527.01	38122.65
527.18	38829.49
527.36	38897.36
527.53	39002.69
527.70	39344.41
527.87	39058.86
528.04	38677.35
528.21	39248.44
528.38	39318.66
528.55	39470.79
528.72	39503.56
528.89	39866.34
529.07	39608.89
529.24	39299.94
529.41	39426.32
529.58	39559.73
529.75	39372.49
529.92	39765.70
530.09	39831.24
530.26	40018.48
530.43	39758.68
530.60	39945.92
530.77	39915.50
530.94	40348.50
531.11	39880.39
531.28	40222.11
531.46	40336.79
531.63	40605.95
531.80	40336.79
531.97	40250.19
532.14	40100.40
532.31	40137.85
532.48	40292.32
532.65	40343.81
532.82	39910.82
532.99	40556.80
533.16	40236.15
533.33	40353.18
533.50	40746.39
533.67	40645.74
533.84	40935.97
534.01	40741.71
534.18	40687.87
534.35	40992.14
534.52	40786.18
534.69	41373.65
534.86	41280.03
535.03	41397.06
535.20	41621.75
535.37	41579.62
535.54	42068.79
535.71	41394.71
535.88	41237.90
536.05	41333.86
536.22	41373.65
536.38	41612.38
536.55	41345.56
536.72	41869.84
536.89	40921.93
537.06	41270.67
537.23	41853.46
537.40	41612.38
537.57	41696.64
537.74	42143.69
537.91	41949.42
538.08	41872.18
538.25	41729.41
538.42	42000.91
538.59	41963.46
538.75	41741.11
538.92	42251.35
539.09	42440.93
539.26	41904.95
539.43	41874.52
539.60	42401.14
539.77	42012.62
539.94	42012.62
540.11	42026.66
540.28	42309.86
540.44	42286.46
540.61	42270.08
540.78	41975.17
540.95	42270.08
541.12	41930.70
541.29	42218.58
541.46	42291.14
541.62	43164.16
541.79	42700.73
541.96	42267.73
542.13	42511.15
542.30	42756.91
542.47	42443.27
542.63	42923.08
542.80	42829.46
542.97	43098.62
543.14	43580.78
543.31	43601.84
543.48	43592.48
543.64	43882.70
543.81	43732.91
543.98	43482.47
544.15	43374.81
544.32	43468.43
544.48	43992.71
544.65	43529.28
544.82	43676.74
544.99	43606.52
545.16	43613.54
545.32	43002.66
545.49	44495.92
545.66	43990.37
545.83	44339.11
546.00	43910.79
546.16	43700.14
546.33	43856.96
546.50	43466.09
546.67	43920.15
546.83	43559.71
547.00	44137.82
547.17	44009.09
547.34	43908.45
547.50	44280.60
547.67	44685.51
547.84	44257.19
548.00	44587.21
548.17	44261.87
548.34	44390.60
548.51	44629.34
548.67	43983.35
548.84	44685.51
549.01	44491.24
549.18	44343.79
549.34	44137.82
549.51	44762.75
549.68	44781.47
549.84	44524.01
550.01	44737.00
550.18	44385.92
550.34	44652.74
550.51	44732.32
550.68	44762.75
550.84	44165.91
551.01	44868.07
551.18	44952.33
551.34	45095.10
551.51	45184.04
551.68	45113.83
551.84	45022.54
552.01	44879.77
552.18	44910.20
552.34	44652.74
552.51	44949.99
552.68	44957.01
552.84	45914.29
553.01	45333.84
553.18	45013.18
553.34	45088.08
553.51	44856.37
553.67	45055.31
553.84	45420.44
554.01	45525.76
554.17	45031.91
554.34	45918.97
554.51	45155.96
554.67	45483.63
554.84	45923.65
555.00	45523.42
555.17	45118.51
555.33	45605.34
555.50	45441.50
555.67	45301.07
555.83	45237.87
556.00	45708.32
556.16	46258.35
556.33	45467.25
556.50	45460.23
556.66	45387.67
556.83	45642.79
556.99	46026.63
557.16	45823.01
557.32	45825.35
557.49	46010.25
557.65	45708.32
557.82	46057.06
557.98	46251.33
558.15	45579.59
558.32	45769.18
558.48	45738.75
558.65	45724.71
558.81	45874.50
558.98	45666.19
559.14	45645.13
559.31	45858.12
559.47	45743.43
559.64	45584.27
559.80	45764.49
559.97	46204.52
560.13	45989.19
560.30	45895.56
560.46	46244.30
560.63	45738.75
560.79	46391.76
560.96	46171.75
561.12	46358.99
561.29	45654.49
561.45	46504.10
561.61	45820.67
561.78	45925.99
561.94	45841.73
562.11	45823.01
562.27	45874.50
562.44	46005.57
562.60	46445.59
562.77	46450.27
562.93	46000.89
563.10	46279.41
563.26	45963.44
563.42	46323.88
563.59	45930.67
563.75	45989.19
563.92	46181.11
564.08	46153.02
564.24	46206.86
564.41	46361.33
564.57	46541.55
564.74	46555.60
564.90	46710.07
565.07	46328.56
565.23	46146.00
565.39	45972.80
565.56	46153.02
565.72	45776.20
565.88	46089.83
566.05	46005.57
566.21	46415.16
566.38	46480.70
566.54	46309.84
566.70	46897.31
566.87	46916.04
567.03	46618.79
567.19	46920.72
567.36	46731.14
567.52	46574.32
567.68	46454.95
567.85	46316.86
568.01	46394.10
568.17	46527.51
568.34	46995.62
568.50	46436.23
568.66	46490.06
568.83	46459.63
568.99	46258.35
569.15	46595.38
569.32	46258.35
569.48	46424.53
569.64	46511.13
569.81	46974.55
569.97	46309.84
570.13	46532.19
570.30	46089.83
570.46	46230.26
570.62	46007.91
570.78	46398.78
570.95	46459.63
571.11	46859.87
571.27	46768.58
571.43	46511.13
571.60	46761.56
571.76	46454.95
571.92	46747.52
572.09	46497.08
572.25	45944.72
572.41	46782.63
572.57	46883.27
572.74	47213.29
572.90	46557.94
573.06	46780.29
573.22	46583.68
573.38	46646.88
573.55	46784.97
573.71	47075.19
573.87	46609.43
574.03	46710.07
574.20	46644.54
574.36	46586.02
574.52	46501.76
574.68	46595.38
574.84	46382.40
575.01	46384.74
575.17	46579.00
575.33	46752.20
575.49	46473.68
575.65	46574.32
575.82	46955.83
575.98	46543.89
576.14	46726.46
576.30	46796.67
576.46	46766.24
576.62	46749.86
576.79	46803.69
576.95	46518.15
577.11	46731.14
577.27	46506.44
577.43	46574.32
577.59	46588.36
577.75	46522.83
577.92	46691.35
578.08	46473.68
578.24	46368.35
578.40	46611.77
578.56	46417.50
578.72	46593.04
578.88	47159.45
579.04	47194.56
579.21	46380.06
579.37	46593.04
579.53	46637.51
579.69	46831.78
579.85	46461.97
580.01	46820.08
580.17	46387.08
580.33	46831.78
580.49	46918.38
580.65	46665.60
580.82	46658.58
580.98	46354.31
581.14	46791.99
581.30	46892.63
581.46	47063.49
581.62	46904.34
581.78	46417.50
581.94	47051.79
582.10	46803.69
582.26	46869.23
582.42	46513.47
582.58	46674.96
582.74	46759.22
582.90	46649.22
583.06	47028.38
583.22	46789.65
583.38	46927.74
583.54	47395.85
583.70	46864.55
583.86	47138.39
584.02	46520.49
584.18	46997.96
584.34	46794.33
584.50	47224.99
584.66	47004.98
584.82	46777.95
584.98	46972.21
585.14	47175.84
585.30	46487.72
585.46	46855.18
585.62	46689.01
585.78	46651.56
585.94	46696.03
586.10	46579.00
586.26	46593.04
586.42	46588.36
586.58	47147.75
586.74	46815.40
586.90	46892.63
587.06	46471.34
587.22	46934.76
587.38	46681.98
587.54	46880.93
587.70	46705.39
587.86	46883.27
588.02	46822.42
588.18	47306.91
588.34	46890.29
588.49	45691.94
588.65	46260.69
588.81	46096.85
588.97	46483.04
589.13	46307.50
589.29	46653.90
589.45	46459.63
589.61	46679.64
589.77	46763.90
589.93	46789.65
590.08	47004.98
590.24	46777.95
590.40	47475.43
590.56	47168.82
590.72	47103.28
590.88	46808.37
591.04	46806.03
591.20	47330.31
591.35	47103.28
591.51	47393.51
591.67	46789.65
591.83	46829.44
591.99	46981.57
592.15	46941.78
592.31	46735.82
592.46	46916.04
592.62	46681.98
592.78	46876.25
592.94	46988.60
593.10	47402.87
593.26	47316.27
593.41	46806.03
593.57	47161.79
593.73	46808.37
593.89	46899.65
594.05	46899.65
594.20	47042.43
594.36	47021.36
594.52	46593.04
594.68	47009.66
594.84	47016.68
594.99	47012.00
595.15	47047.11
595.31	47070.51
595.47	47194.56
595.62	47096.26
595.78	46836.46
595.94	47283.50
596.10	47480.11
596.25	47805.44
596.41	47124.35
596.57	46897.31
596.73	47236.69
596.88	46478.36
597.04	46925.40
597.20	47058.81
597.36	46887.95
597.51	47262.44
597.67	47260.10
597.83	47236.69
597.99	47274.14
598.14	47271.80
598.30	46773.27
598.46	47122.01
598.61	46705.39
598.77	46705.39
598.93	46836.46
599.09	47126.69
599.24	47398.19
599.40	47243.71
599.56	47585.43
599.71	46796.67
599.87	47112.64
600.03	46958.17
600.18	47175.84
600.34	46986.25
600.50	46923.06
600.65	47112.64
600.81	46756.88
600.97	47189.88
601.12	47306.91
601.28	46993.28
601.44	46916.04
601.59	46850.50
601.75	46363.67
601.91	46878.59
602.06	47007.32
602.22	46920.72
602.37	46454.95
602.53	47016.68
602.69	47325.63
602.84	47299.89
603.00	46684.33
603.16	47175.84
603.31	46567.30
603.47	47468.40
603.62	46815.40
603.78	47236.69
603.94	46761.56
604.09	47227.33
604.25	47297.55
604.40	46588.36
604.56	46665.60
604.71	47187.54
604.87	46946.47
605.03	46689.01
605.18	46686.67
605.34	46557.94
605.49	46681.98
605.65	47023.70
605.80	46979.23
605.96	47040.09
606.12	46838.80
606.27	46953.49
606.43	46492.40
606.58	47253.08
606.74	46829.44
606.89	46948.81
607.05	47012.00
607.20	46873.91
607.36	46667.94
607.51	46518.15
607.67	46930.08
607.82	46916.04
607.98	46607.09
608.13	46600.07
608.29	46667.94
608.44	46138.98
608.60	46120.26
608.75	46274.73
608.91	46211.54
609.06	46232.60
609.22	46501.76
609.37	46185.79
609.53	46277.07
609.68	46150.68
609.84	46548.57
609.99	46178.77
610.15	46141.32
610.30	46590.70
610.46	45752.79
610.61	46188.13
610.76	46377.72
610.92	46443.25
611.07	46508.79
611.23	46260.69
611.38	46066.42
611.54	46108.55
611.69	46160.05
611.84	46036.00
612.00	45827.69
612.15	46206.86
612.31	46286.43
612.46	45600.66
612.62	45984.51
612.77	45993.87
612.92	46043.02
613.08	45853.44
613.23	46003.23
613.39	45979.82
613.54	45471.93
613.69	46024.29
613.85	45600.66
614.00	45989.19
614.15	46223.24
614.31	45502.35
614.46	46251.33
614.62	45853.44
614.77	45663.85
614.92	45944.72
615.08	45886.20
615.23	45645.13
615.38	46085.15
615.54	45446.18
615.69	45408.73
615.84	45193.40
616.00	45584.27
616.15	45415.76
616.30	45851.09
616.46	45558.53
616.61	44762.75
616.76	45106.80
616.92	44865.73
617.07	44959.35
617.22	44615.29
617.37	45020.20
617.53	45572.57
617.68	45352.56
617.83	45401.71
617.99	45357.24
618.14	45326.81
618.29	45488.31
618.45	44666.78
618.60	44858.71
618.75	44989.78
618.90	45132.55
619.06	45038.93
619.21	44945.31
619.36	45347.88
619.51	45233.19
619.67	45352.56
619.82	45251.92
619.97	45530.44
620.12	44772.11
620.28	44406.98
620.43	44727.64
620.58	45528.10
620.73	44825.94
620.89	44605.93
621.04	44729.98
621.19	44727.64
621.34	44844.66
621.49	44720.62
621.65	44641.04
621.80	44816.58
621.95	44360.17
622.10	44704.23
622.25	43896.75
622.41	44041.86
622.56	44126.12
622.71	44648.06
622.86	44222.08
623.01	44582.52
623.16	43894.41
623.32	44285.28
623.47	44676.15
623.62	44648.06
623.77	44580.18
623.92	44935.95
624.07	44465.50
624.23	44259.53
624.38	43985.69
624.53	43592.48
624.68	44341.45
624.83	44128.46
624.98	44205.70
625.13	43845.26
625.29	43810.15
625.44	43728.23
625.59	43590.14
625.74	43351.40
625.89	43400.55
626.04	43852.28
626.19	44062.93
626.34	43784.40
626.49	43990.37
626.65	43739.93
626.80	43878.02
626.95	43342.04
627.10	43419.28
627.25	43571.41
627.40	43522.26
627.55	42969.90
627.70	43187.56
627.85	42782.65
628.00	43428.64
628.15	43086.92
628.30	43281.19
628.45	43248.42
628.60	43339.70
628.76	43468.43
628.91	43459.07
629.06	42962.87
629.21	42862.23
629.36	42916.06
629.51	43217.99
629.66	43133.73
629.81	42511.15
629.96	43435.66
630.11	43438.00
630.26	43358.42
630.41	43049.47
630.56	43271.82
630.71	43030.75
630.86	42745.20
631.01	42801.38
631.16	42705.41
631.31	42469.02
631.46	42656.26
631.61	42703.07
631.76	42480.72
631.91	42824.78
632.06	42632.86
632.21	42752.23
632.36	42986.28
632.51	42541.58
632.66	42471.36
632.81	42174.11
632.96	42553.28
633.10	42429.23
633.25	42581.37
633.40	42377.74
633.55	42260.71
633.70	42153.05
633.85	42237.31
634.00	42333.27
634.15	42223.26
634.30	42454.98
634.45	42115.60
634.60	42590.73
634.75	42286.46
634.90	42045.38
635.05	41986.87
635.19	42052.41
635.34	42047.72
635.49	41914.31
635.64	42117.94
635.79	41556.21
635.94	41703.67
636.09	41790.27
636.24	42129.64
636.39	41911.97
636.53	41741.11
636.68	41860.48
636.83	41338.54
636.98	41998.57
637.13	41265.99
637.28	41418.12
637.43	41769.20
637.57	41778.56
637.72	41584.30
637.87	41277.69
638.02	41647.49
638.17	41352.58
638.32	41432.16
638.46	41621.75
638.61	41619.41
638.76	41298.75
638.91	41811.33
639.06	41514.08
639.20	41605.36
639.35	41371.31
639.50	41603.02
639.65	41324.50
639.80	41434.50
639.94	41354.93
640.09	41209.81
640.24	41045.97
640.39	40935.97
640.54	40549.78
640.68	41008.53
640.83	40596.59
640.98	40816.60
641.13	40460.84
641.27	41244.92
641.42	40744.05
641.57	40704.26
641.72	40893.84
641.86	40786.18
642.01	40079.33
642.16	40854.05
642.31	39934.22
642.45	40694.89
642.60	40465.52
642.75	40587.23
642.90	40959.38
643.04	41015.55
643.19	40704.26
643.34	40638.72
643.48	40587.23
643.63	40170.61
643.78	40156.57
643.93	40414.03
644.07	40257.21
644.22	40568.51
644.37	40439.78
644.51	40488.93
644.66	40411.69
644.81	40390.62
644.95	40392.97
645.10	40650.42
645.25	40465.52
645.39	40568.51
645.54	40215.08
645.69	40013.80
645.83	40271.26
645.98	40718.30
646.13	40109.76
646.27	40058.27
646.42	39889.75
646.57	39992.73
646.71	39620.59
646.86	40346.15
647.00	40002.10
647.15	39651.02
647.30	40140.19
647.44	39477.82
647.59	39901.45
647.74	39585.48
647.88	39557.39
648.03	39817.19
648.17	39817.19
648.32	40076.99
648.47	39564.42
648.61	39344.41
648.76	39613.57
648.90	39433.35
649.05	39505.90
649.20	39447.39
649.34	39461.43
649.49	38862.26
649.63	39384.19
649.78	39452.07
649.92	39241.42
650.07	39557.39
650.21	39089.29
650.36	39222.70
650.51	38909.07
650.65	40147.21
650.80	39971.67
650.94	39562.08
651.09	39360.79
651.23	39103.33
651.38	39566.76
651.52	38965.24
651.67	38740.55
651.81	39367.81
651.96	39065.88
652.10	39026.09
652.25	38639.90
652.39	39089.29
652.54	38738.21
652.68	38988.64
652.83	38749.91
652.97	39065.88
653.12	39051.84
653.26	38850.55
653.41	38686.71
653.55	38536.92
653.70	38480.75
653.84	39049.50
653.99	38707.78
654.13	38600.12
654.27	38335.63
654.42	38485.43
654.56	38562.67
654.71	38738.21
654.85	38696.08
655.00	38745.23
655.14	38244.35
655.29	38213.93
655.43	38328.61
655.57	38078.18
655.72	37731.78
655.86	37507.08
656.01	37703.69
656.15	37282.39
656.30	37818.38
656.44	37689.65
656.58	37574.96
656.73	37713.05
656.87	38010.30
657.01	37717.73
657.16	37912.00
657.30	37862.85
657.45	37249.63
657.59	37479.00
657.73	37947.11
657.88	38204.56
658.02	38277.12
658.16	37968.17
658.31	38314.57
658.45	38054.77
658.60	37638.15
658.74	37586.66
658.88	37942.42
659.03	37151.32
659.17	37193.45
659.31	37132.60
659.46	37156.00
659.60	37055.36
659.74	37376.01
659.89	37298.78
660.03	37038.98
660.17	37684.97
660.32	37074.09
660.46	37034.30
660.60	37226.22
660.74	37076.43
660.89	37113.87
661.03	36697.26
661.17	36687.90
661.32	36390.65
661.46	36701.94
661.60	37006.21
661.74	37170.05
661.89	36814.29
662.03	36989.83
662.17	36596.62
662.31	36521.72
662.46	36903.23
662.60	36493.63
662.74	36589.59
662.88	36175.32
663.03	36081.70
663.17	36180.00
663.31	36238.51
663.45	36126.17
663.60	36437.46
663.74	36465.55
663.88	35964.67
664.02	35826.58
664.17	36027.87
664.31	35435.71
664.45	35931.90
664.59	35941.27
664.73	35693.17
664.88	35929.56
665.02	35257.83
665.16	35192.30
665.30	35611.25
665.44	35323.36
665.59	34941.86
665.73	35489.54
665.87	35281.24
666.01	35199.32
666.15	35138.46
666.29	35049.52
666.44	34974.63
666.58	34717.17
666.72	34731.21
666.86	35213.36
667.00	35133.78
667.14	34665.67
667.28	34384.81
667.43	34766.32
667.57	34983.99
667.71	34911.43
667.85	34639.93
667.99	34555.67
668.13	34871.64
668.27	34485.45
668.41	34529.92
668.56	34270.12
668.70	34286.51
668.84	34263.10
668.98	34071.18
669.12	33577.33
669.26	34036.07
669.40	34117.99
669.54	33708.40
669.68	33998.62
669.82	33544.56
669.96	33905.00
670.10	33415.83
670.25	33841.81
670.39	33663.93
670.53	33127.94
670.67	33266.03
670.81	33275.40
670.95	33474.34
671.09	33352.63
671.23	33097.52
671.37	33226.24
671.51	32545.15
671.65	32907.93
671.79	32776.86
671.93	32804.95
672.07	32795.59
672.21	32840.06
672.35	32989.85
672.49	32552.17
672.63	32437.48
672.77	32507.70
672.91	32694.94
673.05	32423.44
673.19	32142.58
673.33	32170.66
673.47	32065.34
673.61	32070.02
673.75	31585.53
673.89	31936.61
674.03	32023.21
674.17	31831.29
674.31	31688.51
674.45	31964.70
674.59	31777.45
674.73	31615.96
674.87	31377.22
675.01	31253.17
675.15	31321.05
675.29	31349.14
675.43	31178.28
675.56	31026.14
675.70	30960.61
675.84	31042.53
675.98	30106.31
676.12	30927.84
676.26	30789.75
676.40	30998.06
676.54	31040.18
676.68	31136.15
676.82	30590.80
676.96	30445.69
677.10	30125.04
677.23	30171.85
677.37	29940.13
677.51	29926.09
677.65	29680.33
677.79	29380.74
677.93	29729.48
678.07	29579.69
678.21	29156.05
678.34	29170.10
678.48	28896.25
678.62	28687.95
678.76	28678.58
678.90	28650.50
679.04	28856.46
679.18	28503.04
679.31	28444.53
679.45	28280.69
679.59	28086.43
679.73	28528.79
679.87	28142.60
680.00	28325.16
680.14	28386.02
680.28	28170.69
680.42	27800.88
680.56	28121.54
680.70	28081.75
680.83	28037.28
680.97	27723.65
681.11	27810.25
681.25	27222.77
681.39	27435.76
681.52	27365.54
681.66	27234.47
681.80	27330.44
681.94	27335.12
682.07	27152.55
682.21	27087.02
682.35	27026.17
682.49	26822.54
682.62	26984.04
682.76	26684.45
682.90	26457.42
683.04	26480.82
683.17	26202.30
683.31	26295.92
683.45	26185.91
683.59	25951.86
683.72	25872.28
683.86	26202.30
684.00	26057.18
684.13	25912.07
684.27	26008.03
684.41	25518.86
684.55	25551.63
684.68	25453.33
684.82	25376.09
684.96	25209.91
685.09	25497.80
685.23	24999.26
685.37	25443.96
685.50	24772.23
685.64	24844.79
685.78	24655.20
685.91	24594.35
686.05	24702.01
686.19	24238.59
686.32	24222.20
686.46	23960.06
686.60	23660.48
686.73	23639.41
686.87	23669.84
687.01	23094.07
687.14	23215.77
687.28	23351.52
687.42	23405.36
687.55	23428.76
687.69	23309.40
687.82	23278.97
687.96	23393.65
688.10	23185.35
688.23	22993.42
688.37	22827.24
688.50	22740.64
688.64	22686.81
688.78	22890.44
688.91	22569.79
689.05	22735.96
689.18	22410.63
689.32	22113.38
689.46	22338.07
689.59	22246.79
689.73	22459.78
689.86	22242.11
690.00	22019.76
690.13	22050.19
690.27	21879.33
690.41	21940.18
690.54	21331.64
690.68	21759.96
690.81	21282.49
690.95	21546.97
691.08	21439.31
691.22	21216.96
691.35	21521.23
691.49	21245.04
691.62	21067.16
691.76	21158.44
691.89	21350.37
692.03	20961.84
692.16	20585.01
692.30	20624.80
692.43	20528.84
692.57	20128.61
692.70	20245.63
692.84	20212.87
692.97	20070.09
693.11	20128.61
693.24	20016.26
693.38	19955.41
693.51	19894.55
693.65	20011.58
693.78	19786.89
693.92	19585.60
694.05	19655.82
694.19	19836.04
694.32	19672.20
694.45	19386.66
694.59	19222.82
694.72	19304.74
694.86	19393.68
694.99	18967.70
695.13	19199.41
695.26	18892.80
695.39	18738.33
695.53	19019.19
695.66	18792.16
695.80	18759.39
695.93	18752.37
696.07	18249.16
696.20	18511.30
696.33	18244.48
696.47	18368.52
696.60	18326.39
696.73	18167.24
696.87	18001.06
697.00	17965.95
697.14	18155.54
697.27	17795.09
697.40	17916.80
697.54	17649.98
697.67	17420.61
697.80	17549.34
697.94	17383.16
698.07	17268.47
698.21	17238.05
698.34	17125.70
698.47	16961.86
698.61	17064.85
698.74	16910.37
698.87	16826.11
699.01	16772.28
699.14	16596.74
699.27	16407.16
699.40	16514.82
699.54	16573.33
699.67	16322.90
699.80	16196.51
699.94	16156.72
700.07	16285.45
700.20	16269.06
700.34	15742.44
700.47	16280.77
700.60	16077.14
700.73	16142.67
700.87	16203.53
701.00	15782.23
701.13	15510.73
701.26	15342.21
701.40	15587.97
701.53	15353.91
701.66	15363.28
701.79	15360.94
701.93	14967.73
702.06	15229.87
702.19	15026.24
702.32	15356.25
702.46	15063.69
702.59	15019.22
702.72	15143.27
702.85	14981.77
702.99	14984.11
703.12	14960.70
703.25	14537.07
703.38	14583.88
703.51	14438.76
703.65	14291.31
703.78	14736.01
703.91	14118.11
704.04	14204.71
704.17	14328.76
704.31	14148.54
704.44	14115.77
704.57	13928.53
704.70	14045.55
704.83	13928.53
704.96	14033.85
705.10	13870.01
705.23	13846.61
>>>>>End Processed Spectral Data<<<<<
