SpectraSuite Data File
++++++++++++++++++++++++++++++++++++
Date: Fri Oct 25 10:43:32 EDT 2013
User: price-jones
Dark Spectrum Present: No
Reference Spectrum Present: No
Number of Sampled Component Spectra: 1
Spectrometers: USB2+H05261
Integration Time (usec): 100000 (USB2+H05261)
Spectra Averaged: 1 (USB2+H05261)
Boxcar Smoothing: 0 (USB2+H05261)
Correct for Electrical Dark: No (USB2+H05261)
Strobe/Lamp Enabled: No (USB2+H05261)
Correct for Detector Non-linearity: No (USB2+H05261)
Correct for Stray Light: No (USB2+H05261)
Number of Pixels in Processed Spectrum: 2048
>>>>>Begin Processed Spectral Data<<<<<
365.73	39.79
365.92	39.79
366.12	39.79
366.32	28.09
366.52	9.36
366.72	81.92
366.91	11.70
367.11	0.00
367.31	0.00
367.51	88.94
367.70	0.00
367.90	18.72
368.10	0.00
368.30	65.54
368.49	21.06
368.69	18.72
368.89	0.00
369.09	30.43
369.28	91.28
369.48	11.70
369.68	49.15
369.87	145.11
370.07	65.54
370.27	98.30
370.47	227.03
370.66	379.17
370.86	322.99
371.06	428.32
371.25	430.66
371.45	414.27
371.65	447.04
371.84	428.32
372.04	449.38
372.24	517.26
372.44	454.06
372.63	503.22
372.83	528.96
373.03	437.68
373.22	479.81
373.42	479.81
373.62	543.00
373.81	484.49
374.01	517.26
374.21	622.58
374.40	528.96
374.60	545.34
374.79	493.85
374.99	538.32
375.19	643.65
375.38	578.11
375.58	580.45
375.78	697.48
375.97	589.82
376.17	620.24
376.37	627.26
376.56	575.77
376.76	653.01
376.95	627.26
377.15	643.65
377.35	596.84
377.54	716.20
377.74	599.18
377.93	596.84
378.13	688.12
378.33	634.29
378.52	678.76
378.72	711.52
378.91	681.10
379.11	713.86
379.31	667.05
379.50	660.03
379.70	657.69
379.89	702.16
380.09	695.14
380.28	671.73
380.48	688.12
380.68	681.10
380.87	697.48
381.07	725.57
381.26	657.69
381.46	692.80
381.65	685.78
381.85	697.48
382.04	678.76
382.24	683.44
382.43	674.07
382.63	739.61
382.83	807.48
383.02	648.33
383.22	774.72
383.41	720.88
383.61	720.88
383.80	779.40
384.00	706.84
384.19	755.99
384.39	774.72
384.58	814.51
384.78	828.55
384.97	760.67
385.17	798.12
385.36	760.67
385.56	755.99
385.75	760.67
385.95	748.97
386.14	870.68
386.34	688.12
386.53	819.19
386.72	800.46
386.92	905.79
387.11	940.90
387.31	924.51
387.50	877.70
387.70	880.04
387.89	805.14
388.09	772.38
388.28	880.04
388.48	917.49
388.67	924.51
388.86	915.15
389.06	798.12
389.25	1093.03
389.45	973.66
389.64	947.92
389.84	1025.15
390.03	917.49
390.22	992.39
390.42	1001.75
390.61	947.92
390.81	1025.15
391.00	1043.88
391.19	1039.20
391.39	1041.54
391.58	997.07
391.78	1041.54
391.97	1008.77
392.16	1015.79
392.36	990.05
392.55	968.98
392.75	915.15
392.94	905.79
393.13	931.53
393.33	1034.52
393.52	1018.13
393.71	1149.20
393.91	1104.73
394.10	1078.99
394.29	1165.59
394.49	1200.69
394.68	1160.91
394.88	1212.40
395.07	1226.44
395.26	1282.61
395.46	1205.38
395.65	1200.69
395.84	1200.69
396.04	1282.61
396.23	1160.91
396.42	1097.71
396.62	1200.69
396.81	1188.99
397.00	1188.99
397.19	1277.93
397.39	1291.98
397.58	1336.45
397.77	1437.09
397.97	1467.52
398.16	1345.81
398.35	1425.39
398.55	1394.96
398.74	1446.45
398.93	1479.22
399.12	1481.56
399.32	1416.02
399.51	1488.58
399.70	1537.73
399.90	1556.46
400.09	1547.09
400.28	1533.05
400.47	1643.06
400.67	1668.80
400.86	1556.46
401.05	1696.89
401.24	1710.93
401.44	1619.65
401.63	1640.72
401.82	1668.80
402.01	1633.69
402.21	1710.93
402.40	1673.48
402.59	1664.12
402.78	1743.70
402.97	1774.13
403.17	1853.70
403.36	1727.32
403.55	1781.15
403.74	1818.60
403.93	1736.68
404.13	1888.81
404.32	1849.02
404.51	1879.45
404.70	1900.52
404.89	1909.88
405.09	1970.73
405.28	1977.75
405.47	1881.79
405.66	1998.82
405.85	1963.71
406.05	1935.62
406.24	2003.50
406.43	1996.48
406.62	2094.78
406.81	2157.97
407.00	2101.80
407.20	2001.16
407.39	2062.01
407.58	2195.42
407.77	2202.44
407.96	2172.02
408.15	2188.40
408.34	2214.15
408.54	2174.36
408.73	2188.40
408.92	2354.58
409.11	2356.92
409.30	2310.11
409.49	2150.95
409.68	2324.15
409.87	2256.28
410.07	2284.36
410.26	2368.62
410.45	2317.13
410.64	2490.33
410.83	2422.45
411.02	2485.65
411.21	2626.08
411.40	2569.91
411.59	2424.80
411.78	2546.50
411.98	2562.89
412.17	2583.95
412.36	2691.62
412.55	2766.51
412.74	2658.85
412.93	2846.09
413.12	2708.00
413.31	2757.15
413.50	2785.24
413.69	2764.17
413.88	2818.00
414.07	2946.73
414.26	2916.31
414.45	2916.31
414.64	2967.80
414.83	2930.35
415.02	2946.73
415.22	3066.10
415.41	3045.04
415.60	3162.06
415.79	3208.87
415.98	3169.09
416.17	3204.19
416.36	3281.43
416.55	3187.81
416.74	3267.39
416.93	3351.65
417.12	3211.22
417.31	3302.50
417.50	3363.35
417.69	3372.71
417.88	3356.33
418.07	3377.39
418.26	3466.33
418.45	3496.76
418.64	3543.57
418.83	3499.10
419.02	3410.16
419.21	3506.12
419.39	3623.15
419.58	3632.51
419.77	3475.70
419.96	3550.59
420.15	3679.32
420.34	3634.85
420.53	3758.90
420.72	3758.90
420.91	3695.71
421.10	3789.33
421.29	3981.25
421.48	3786.99
421.67	3847.84
421.86	3901.67
422.05	3630.17
422.24	3726.13
422.43	3779.97
422.61	3922.74
422.80	3796.35
422.99	3899.33
423.18	3861.88
423.37	3936.78
423.56	3744.86
423.75	3866.56
423.94	3864.22
424.13	3721.45
424.32	3686.34
424.50	3943.80
424.69	3925.08
424.88	4032.74
425.07	3824.44
425.26	3817.41
425.45	3878.27
425.64	4018.70
425.83	3971.89
426.01	3913.38
426.20	4016.36
426.39	4021.04
426.58	4023.38
426.77	3906.35
426.96	3901.67
427.15	4018.70
427.33	4051.47
427.52	3978.91
427.71	4102.96
427.90	4133.39
428.09	4086.58
428.28	4147.43
428.46	4046.79
428.65	4105.30
428.84	4203.60
429.03	4203.60
429.22	4112.32
429.40	4145.09
429.59	4065.51
429.78	4067.85
429.97	3906.35
430.16	4039.76
430.34	4044.45
430.53	4119.34
430.72	4128.70
430.91	4231.69
431.10	4278.50
431.28	4507.87
431.47	4613.20
431.66	4741.93
431.85	4507.87
432.03	4447.02
432.22	4748.95
432.41	4620.22
432.60	4744.27
432.79	4720.86
432.97	4723.20
433.16	4650.64
433.35	4550.00
433.54	4781.71
433.72	4727.88
433.91	4692.77
434.10	4767.67
434.28	4812.14
434.47	4894.06
434.66	4926.83
434.85	4938.53
435.03	4999.38
435.22	4990.02
435.41	5034.49
435.59	5102.37
435.78	5273.23
435.97	5191.31
436.16	5015.77
436.34	5151.52
436.53	5039.17
436.72	5315.36
436.90	5048.54
437.09	5219.39
437.28	5135.14
437.46	5289.61
437.65	5032.15
437.84	5121.09
438.02	5076.62
438.21	5076.62
438.40	4994.70
438.58	5352.81
438.77	5434.72
438.96	5490.90
439.14	5598.56
439.33	5448.77
439.52	5696.86
439.70	5593.88
439.89	5617.29
440.08	5673.46
440.26	5621.97
440.45	5760.06
440.63	5708.57
440.82	5870.06
441.01	5771.76
441.19	5863.04
441.38	5994.11
441.57	5949.64
441.75	6160.29
441.94	6282.00
442.12	6253.91
442.31	6204.76
442.50	6303.06
442.68	6171.99
442.87	6073.69
443.05	6333.49
443.24	6612.01
443.43	6445.84
443.61	6239.87
443.80	6499.67
443.98	6303.06
444.17	6274.98
444.35	6380.30
444.54	6743.08
444.73	6560.52
444.91	6298.38
445.10	6377.96
445.28	6399.02
445.47	6342.85
445.65	6452.86
445.84	6530.09
446.02	6583.93
446.21	6616.69
446.39	6483.28
446.58	6579.25
446.77	6689.25
446.95	6471.58
447.14	6775.85
447.32	6761.81
447.51	6703.29
447.69	6497.33
447.88	6693.93
448.06	6635.42
448.25	6628.40
448.43	6703.29
448.62	6733.72
448.80	6635.42
448.99	6771.17
449.17	6548.82
449.36	6630.74
449.54	7009.90
449.73	6911.60
449.91	6967.77
450.10	7140.97
450.28	6946.71
450.46	7166.72
450.65	7124.59
450.83	7307.15
451.02	7119.91
451.20	7297.79
451.39	7218.21
451.57	7124.59
451.76	7258.00
451.94	7150.34
452.13	7358.64
452.31	7129.27
452.49	7143.32
452.68	7243.96
452.86	7047.35
453.05	7265.02
453.23	7389.07
453.42	7356.30
453.60	7417.16
453.78	7314.17
453.97	7405.46
454.15	7307.15
454.34	7185.44
454.52	7314.17
454.70	7384.39
454.89	7426.52
455.07	7470.99
455.26	7723.77
455.44	7651.21
455.62	7756.54
455.81	7747.17
455.99	7761.22
456.17	7754.19
456.36	7707.38
456.54	7850.16
456.73	7997.61
456.91	8065.49
457.09	8105.28
457.28	8191.88
457.46	8021.02
457.64	8163.79
457.83	8168.47
458.01	7911.01
458.19	8156.77
458.38	8142.72
458.56	8109.96
458.74	8116.98
458.93	8341.67
459.11	8224.64
459.29	8222.30
459.48	8353.37
459.66	8063.15
459.84	8372.10
460.03	8505.51
460.21	8435.29
460.39	8526.57
460.57	8381.46
460.76	8498.49
460.94	8762.97
461.12	8458.70
461.31	8582.74
461.49	8503.17
461.67	8568.70
461.85	8814.46
462.04	8723.18
462.22	9158.52
462.40	8940.85
462.59	8769.99
462.77	8709.13
462.95	8835.52
463.13	8879.99
463.32	8898.72
463.50	8840.20
463.68	9123.41
463.86	8915.10
464.05	8765.31
464.23	8786.37
464.41	8793.39
464.59	8823.82
464.78	8971.27
464.96	9095.32
465.14	8950.21
465.32	9020.42
465.50	9458.10
465.69	9132.77
465.87	9029.79
466.05	9193.62
466.23	8926.80
466.41	9097.66
466.60	9202.99
466.78	9067.24
466.96	9050.85
467.14	9224.05
467.32	9345.76
467.51	9329.38
467.69	9085.96
467.87	9336.40
468.05	9474.49
468.23	9104.68
468.41	9376.19
468.60	9507.26
468.78	9458.10
468.96	9296.61
469.14	9661.73
469.32	9659.39
469.50	9296.61
469.69	9619.60
469.87	9846.63
470.05	9853.66
470.23	9806.84
470.41	9708.54
470.59	9940.26
470.77	9706.20
470.95	9753.01
471.14	9998.77
471.32	9846.63
471.50	10174.31
471.68	10204.74
471.86	10286.65
472.04	10319.42
472.22	10420.06
472.40	10150.90
472.58	10305.38
472.77	10314.74
472.95	10333.47
473.13	10782.85
473.31	10422.41
473.49	10548.79
473.67	10377.94
473.85	10759.44
474.03	10743.06
474.21	10972.43
474.39	11068.39
474.57	10888.17
474.75	10977.11
474.93	11239.25
475.12	10916.26
475.30	11030.94
475.48	11007.54
475.66	11080.10
475.84	11283.72
476.02	11396.07
476.20	11510.75
476.38	11499.05
476.56	11564.59
476.74	11756.51
476.92	11702.68
477.10	11639.48
477.28	11894.60
477.46	12196.53
477.64	12283.13
477.82	12388.46
478.00	12257.39
478.18	12203.55
478.36	12631.87
478.54	12908.05
478.72	12603.78
478.90	12781.67
479.08	13022.74
479.26	13067.21
479.44	13193.60
479.62	13069.55
479.80	13252.11
479.98	13373.82
480.16	13266.16
480.34	13654.69
480.52	13549.36
480.70	13659.37
480.88	13631.28
481.06	13816.18
481.24	13790.44
481.41	13968.32
481.59	14225.78
481.77	14403.66
481.95	14132.15
482.13	14288.97
482.31	14394.29
482.49	14750.06
482.67	14689.20
482.85	15323.49
483.03	15066.03
483.21	15201.78
483.39	15049.64
483.57	15419.45
483.74	15302.42
483.92	15447.54
484.10	15272.00
484.28	15733.08
484.46	15903.94
484.64	16332.26
484.82	15957.77
485.00	16198.85
485.18	16531.20
485.35	16510.14
485.53	16042.03
485.71	15843.09
485.89	16531.20
486.07	16514.82
486.25	16695.04
486.43	16746.53
486.61	16959.52
486.78	17177.19
486.96	17427.63
487.14	17530.61
487.32	17528.27
487.50	17928.50
487.68	17806.80
487.85	18281.92
488.03	18480.87
488.21	18518.32
488.39	18410.65
488.57	18345.12
488.75	18398.95
488.92	18789.82
489.10	18960.68
489.28	19316.44
489.46	19398.36
489.64	19381.98
489.81	19995.20
489.99	19791.57
490.17	20276.06
490.35	20184.78
490.53	20393.09
490.70	20180.10
490.88	20379.04
491.06	20723.10
491.24	20568.63
491.41	20601.40
491.59	20814.38
491.77	20704.38
491.95	20849.49
492.13	21331.64
492.30	21273.13
492.48	21308.24
492.66	21277.81
492.84	21687.40
493.01	22127.42
493.19	21752.94
493.37	22045.51
493.54	22305.31
493.72	22260.84
493.90	22419.99
494.08	22679.79
494.25	22979.38
494.43	22892.78
494.61	23459.19
494.79	23431.10
494.96	23241.52
495.14	23073.00
495.32	23665.16
495.49	23672.18
495.67	23190.03
495.85	23756.44
496.02	24060.71
496.20	24070.07
496.38	24369.66
496.55	24154.33
496.73	24608.39
496.91	24926.71
497.09	24872.87
497.26	24854.15
497.44	24795.64
497.62	25263.74
497.79	25160.76
497.97	24973.52
498.14	25247.36
498.32	25781.00
498.50	25460.35
498.67	25979.95
498.85	26160.17
499.03	25970.58
499.20	26293.58
499.38	25965.90
499.56	26218.68
499.73	26324.01
499.91	26476.14
500.08	26464.44
500.26	26197.62
500.44	26249.11
500.61	26480.82
500.79	26625.93
500.97	26766.37
501.14	26761.69
501.32	26658.70
501.49	26670.40
501.67	26810.84
501.84	26948.93
502.02	27206.39
502.20	27159.58
502.37	27494.27
502.55	27358.52
502.72	28072.39
502.90	27927.27
503.07	27503.64
503.25	28215.16
503.43	27859.40
503.60	27592.58
503.78	27903.87
503.95	27765.78
504.13	28343.89
504.30	28510.07
504.48	28580.28
504.65	28552.20
504.83	28821.36
505.01	29071.79
505.18	29071.79
505.36	29385.43
505.53	29252.02
505.71	29589.05
505.88	29149.03
506.06	28994.56
506.23	29223.93
506.41	29301.17
506.58	29876.94
506.76	29488.41
506.93	29893.32
507.11	29752.89
507.28	29804.38
507.46	29825.45
507.63	29902.68
507.81	29937.79
507.98	29605.44
508.16	30487.82
508.33	29874.60
508.50	30764.00
508.68	30675.06
508.85	30810.81
509.03	30534.63
509.20	30967.63
509.38	31126.78
509.55	31133.81
509.73	31360.84
509.90	31234.45
510.08	31178.28
510.25	31519.99
510.42	31477.86
510.60	31377.22
510.77	31538.72
510.95	31901.50
511.12	31948.31
511.30	31995.12
511.47	32086.40
511.64	32238.54
511.82	32027.89
511.99	31885.12
512.17	32077.04
512.34	32011.51
512.51	32173.00
512.69	32591.96
512.86	32414.08
513.04	32690.26
513.21	32165.98
513.38	32545.15
513.56	32570.90
513.73	32376.63
513.90	32793.25
514.08	32676.22
514.25	32999.21
514.43	33156.03
514.60	32987.51
514.77	33378.38
514.95	33401.79
515.12	33336.25
515.29	33317.53
515.47	33628.82
515.64	33596.05
515.81	33511.79
515.99	33722.44
516.16	33614.77
516.33	33064.75
516.51	33240.29
516.68	32896.23
516.85	33324.55
517.03	33429.87
517.20	33804.36
517.37	34078.20
517.54	34209.27
517.72	34139.05
517.89	33598.39
518.06	33785.63
518.24	34075.86
518.41	33862.87
518.58	34080.54
518.75	34384.81
518.93	34478.43
519.10	34529.92
519.27	34969.94
519.45	35035.48
519.62	35487.20
519.79	35063.57
519.96	35159.53
520.14	35079.95
520.31	35014.41
520.48	34862.28
520.65	35103.35
520.83	35578.48
521.00	35503.59
521.17	35274.21
521.34	35847.64
521.52	35889.77
521.69	36027.87
521.86	36376.61
522.03	36070.00
522.20	35653.38
522.38	36231.49
522.55	36165.96
522.72	36137.87
522.89	35971.69
523.07	36456.18
523.24	36243.20
523.41	36657.47
523.58	36624.70
523.75	36844.71
523.92	36711.30
524.10	37294.10
524.27	37160.69
524.44	36954.72
524.61	37083.45
524.78	37385.38
524.96	37242.60
525.13	36907.91
525.30	37778.59
525.47	37317.50
525.64	37305.80
525.81	37125.58
525.98	37366.65
526.16	36699.60
526.33	37317.50
526.50	37324.52
526.67	36795.56
526.84	37017.91
527.01	36935.99
527.18	37738.80
527.36	38120.31
527.53	37972.85
527.70	38443.30
527.87	37944.76
528.04	38036.05
528.21	38274.78
528.38	38316.91
528.55	38719.48
528.72	38450.32
528.89	38672.67
529.07	37799.65
529.24	38272.44
529.41	38628.20
529.58	38862.26
529.75	38848.21
529.92	38768.63
530.09	38667.99
530.26	38742.89
530.43	39047.16
530.60	38794.38
530.77	39199.29
530.94	39278.87
531.11	39124.40
531.28	39409.94
531.46	39548.03
531.63	39473.13
531.80	39271.85
531.97	39061.20
532.14	39019.07
532.31	38698.42
532.48	39393.56
532.65	39779.74
532.82	39054.18
532.99	39421.64
533.16	39236.74
533.33	39648.68
533.50	39793.79
533.67	39763.36
533.84	39739.96
534.01	40027.84
534.18	39896.77
534.35	40039.54
534.52	39915.50
534.69	40566.16
534.86	40383.60
535.03	40329.77
535.20	40715.96
535.37	40268.92
535.54	40629.36
535.71	40531.06
535.88	40800.22
536.05	40547.44
536.22	40774.47
536.38	40477.22
536.55	40390.62
536.72	40147.21
536.89	40350.84
537.06	40458.50
537.23	40769.79
537.40	40779.15
537.57	41188.75
537.74	40851.71
537.91	41418.12
538.08	41130.23
538.25	40924.27
538.42	41031.93
538.59	41111.51
538.75	40519.35
538.92	41048.32
539.09	41083.42
539.26	41258.96
539.43	41177.04
539.60	41113.85
539.77	40954.69
539.94	40542.76
540.11	41165.34
540.28	41092.79
540.44	41378.33
540.61	41691.96
540.78	41076.40
540.95	41258.96
541.12	41174.70
541.29	41446.21
541.46	41862.82
541.62	41696.64
541.79	41708.35
541.96	41556.21
542.13	41645.15
542.30	41626.43
542.47	41886.23
542.63	41706.01
542.80	41801.97
542.97	42490.09
543.14	42440.93
543.31	42417.53
543.48	42281.78
543.64	42422.21
543.81	42466.68
543.98	42597.75
544.15	42272.42
544.32	42717.12
544.48	43033.09
544.65	42820.10
544.82	42522.85
544.99	42546.26
545.16	42431.57
545.32	42340.29
545.49	42593.07
545.66	42693.71
545.83	42967.55
546.00	42796.70
546.16	43133.73
546.33	42815.42
546.50	42454.98
546.67	43236.72
546.83	42988.62
547.00	42850.53
547.17	43215.65
547.34	42508.81
547.50	43325.66
547.67	43068.20
547.84	43342.04
548.00	43407.58
548.17	43442.68
548.34	43786.74
548.51	43988.03
548.67	43580.78
548.84	43524.60
549.01	43423.96
549.18	43049.47
549.34	42979.26
549.51	43187.56
549.68	43351.40
549.84	43555.03
550.01	43510.56
550.18	43243.74
550.34	43592.48
550.51	43903.77
550.68	43927.17
550.84	43646.31
551.01	43753.97
551.18	43931.86
551.34	43580.78
551.51	44011.43
551.68	44009.09
551.84	43927.17
552.01	43746.95
552.18	44037.18
552.34	43662.69
552.51	44172.93
552.68	43803.13
552.84	43758.66
553.01	44154.21
553.18	43999.73
553.34	44217.40
553.51	44114.42
553.67	44325.07
553.84	44701.89
554.01	44425.71
554.17	44584.86
554.34	44631.68
554.51	44406.98
554.67	44678.49
554.84	44137.82
555.00	44009.09
555.17	44439.75
555.33	44299.32
555.50	44397.62
555.67	44460.82
555.83	45010.84
556.00	44542.74
556.16	44575.50
556.33	44486.56
556.50	44353.15
556.66	44715.93
556.83	44130.80
556.99	44776.79
557.16	44729.98
557.32	44830.62
557.49	44584.86
557.65	44783.81
557.82	44629.34
557.98	44746.36
558.15	44947.65
558.32	44886.79
558.48	44498.26
558.65	44168.25
558.81	44453.79
558.98	44493.58
559.14	44650.40
559.31	44814.24
559.47	44914.88
559.64	45177.02
559.80	44769.77
559.97	44884.45
560.13	44432.73
560.30	45057.65
560.46	45184.04
560.63	45006.16
560.79	45654.49
560.96	45542.14
561.12	44935.95
561.29	45095.10
561.45	45003.82
561.61	45212.13
561.78	44954.67
561.94	45118.51
562.11	45134.89
562.27	44666.78
562.44	44753.38
562.60	45378.31
562.77	45151.27
562.93	45305.75
563.10	45209.79
563.26	45326.81
563.42	45556.19
563.59	44996.80
563.75	45462.57
563.92	45731.73
564.08	45202.77
564.24	45537.46
564.41	45280.00
564.57	45677.90
564.74	45504.70
564.90	45343.20
565.07	45301.07
565.23	45574.91
565.39	45361.92
565.56	45504.70
565.72	45022.54
565.88	45139.57
566.05	44739.34
566.21	45296.39
566.38	45343.20
566.54	45160.64
566.70	45890.88
566.87	45600.66
567.03	45705.98
567.19	45968.12
567.36	45474.27
567.52	45729.39
567.68	45834.71
567.85	45272.98
568.01	45591.30
568.17	45577.25
568.34	45600.66
568.50	45502.35
568.66	45170.00
568.83	45116.17
568.99	45738.75
569.15	45343.20
569.32	45453.20
569.48	45766.84
569.64	45647.47
569.81	45642.79
569.97	46021.95
570.13	45514.06
570.30	45366.60
570.46	45251.92
570.62	45055.31
570.78	45535.12
570.95	45385.33
571.11	45350.22
571.27	45563.21
571.43	45640.45
571.60	45275.32
571.76	45574.91
571.92	45565.55
572.09	45757.47
572.25	45385.33
572.41	45837.05
572.57	45677.90
572.74	46237.28
572.90	45497.67
573.06	45834.71
573.22	45675.55
573.38	46038.34
573.55	45525.76
573.71	46293.46
573.87	46312.18
574.03	45240.21
574.20	45764.49
574.36	45956.42
574.52	45574.91
574.68	45464.91
574.84	45839.39
575.01	45329.16
575.17	45720.02
575.33	45265.96
575.49	45715.34
575.65	45925.99
575.82	46059.40
575.98	45436.82
576.14	45940.04
576.30	45867.48
576.46	45773.86
576.62	45916.63
576.79	46204.52
576.95	45528.10
577.11	45406.39
577.27	46232.60
577.43	45446.18
577.59	45820.67
577.75	45518.74
577.92	45698.96
578.08	45528.10
578.24	45769.18
578.40	45832.37
578.56	45710.66
578.72	46080.47
578.88	45949.40
579.04	45750.45
579.21	45387.67
579.37	45652.15
579.53	46038.34
579.69	45600.66
579.85	46220.90
580.01	45837.05
580.17	45874.50
580.33	45764.49
580.49	46092.17
580.65	45689.60
580.82	45830.03
580.98	45160.64
581.14	45387.67
581.30	45986.85
581.46	45668.53
581.62	45883.86
581.78	45900.25
581.94	46216.22
582.10	46146.00
582.26	46106.21
582.42	45595.98
582.58	45729.39
582.74	45897.91
582.90	46211.54
583.06	46429.21
583.22	46513.47
583.38	46040.68
583.54	46190.47
583.70	46110.89
583.86	45982.16
584.02	45834.71
584.18	45827.69
584.34	45975.14
584.50	45614.70
584.66	45673.21
584.82	45530.44
584.98	46174.09
585.14	45895.56
585.30	45736.41
585.46	45900.25
585.62	45390.01
585.78	45839.39
585.94	45736.41
586.10	45455.54
586.26	45762.15
586.42	45860.46
586.58	45961.10
586.74	45982.16
586.90	46232.60
587.06	45570.23
587.22	45862.80
587.38	46014.93
587.54	45909.61
587.70	45827.69
587.86	45958.76
588.02	45612.36
588.18	45925.99
588.34	45762.15
588.49	45572.57
588.65	45205.11
588.81	45153.62
588.97	45682.58
589.13	45759.81
589.29	45373.63
589.45	45429.80
589.61	45485.97
589.77	45963.44
589.93	46019.61
590.08	45869.82
590.24	46148.34
590.40	46080.47
590.56	46298.14
590.72	46033.66
590.88	45839.39
591.04	46195.15
591.20	46469.00
591.35	46153.02
591.51	46178.77
591.67	45708.32
591.83	46024.29
591.99	45954.08
592.15	46129.62
592.31	46216.22
592.46	46017.27
592.62	46153.02
592.78	46216.22
592.94	46302.82
593.10	45888.54
593.26	46164.73
593.41	45949.40
593.57	45937.69
593.73	45432.14
593.89	46066.42
594.05	46150.68
594.20	45947.06
594.36	46195.15
594.52	46253.67
594.68	46171.75
594.84	46103.87
594.99	46040.68
595.15	45879.18
595.31	46181.11
595.47	46045.36
595.62	46117.92
595.78	45881.52
595.94	46305.16
596.10	46309.84
596.25	45872.16
596.41	46073.45
596.57	46141.32
596.73	46190.47
596.88	45865.14
597.04	46305.16
597.20	46124.94
597.36	45539.80
597.51	46368.35
597.67	45764.49
597.83	45736.41
597.99	46124.94
598.14	46019.61
598.30	46127.28
598.46	46333.24
598.61	46600.07
598.77	46213.88
598.93	46047.70
599.09	45806.62
599.24	46391.76
599.40	46450.27
599.56	46232.60
599.71	46122.60
599.87	46265.37
600.03	45860.46
600.18	46171.75
600.34	46045.36
600.50	46267.71
600.65	46059.40
600.81	46160.05
600.97	46527.51
601.12	46520.49
601.28	46127.28
601.44	45766.84
601.59	45860.46
601.75	45542.14
601.91	45668.53
602.06	45820.67
602.22	46061.74
602.37	46031.32
602.53	46326.22
602.69	46604.75
602.84	46232.60
603.00	45986.85
603.16	46174.09
603.31	45808.96
603.47	46218.56
603.62	45703.64
603.78	45961.10
603.94	45965.78
604.09	46366.01
604.25	46073.45
604.40	46040.68
604.56	46211.54
604.71	46277.07
604.87	45925.99
605.03	45942.38
605.18	45823.01
605.34	46129.62
605.49	45656.83
605.65	45975.14
605.80	45464.91
605.96	45963.44
606.12	46401.12
606.27	46426.87
606.43	45368.94
606.58	46256.01
606.74	45670.87
606.89	45378.31
607.05	46155.36
607.20	45710.66
607.36	45844.07
607.51	46050.04
607.67	45724.71
607.82	45490.65
607.98	45860.46
608.13	45839.39
608.29	45766.84
608.44	45476.61
608.60	45254.26
608.75	45640.45
608.91	45954.08
609.06	45226.17
609.22	45677.90
609.37	45263.62
609.53	45354.90
609.68	45549.17
609.84	45441.50
609.99	45289.37
610.15	45787.90
610.30	45317.45
610.46	45380.65
610.61	45326.81
610.76	45638.11
610.92	45595.98
611.07	45186.38
611.23	45408.73
611.38	45542.14
611.54	45570.23
611.69	45078.72
611.84	45036.59
612.00	45397.03
612.15	45078.72
612.31	45329.16
612.46	45205.11
612.62	45291.71
612.77	44933.60
612.92	45198.09
613.08	44760.40
613.23	45083.40
613.39	45003.82
613.54	44989.78
613.69	44978.07
613.85	44643.38
614.00	44781.47
614.15	45212.13
614.31	44725.30
614.46	45162.98
614.62	44872.75
614.77	44856.37
614.92	44807.22
615.08	45034.25
615.23	44605.93
615.38	44734.66
615.54	44629.34
615.69	44727.64
615.84	44467.84
616.00	44858.71
616.15	44615.29
616.30	44566.14
616.46	44641.04
616.61	44598.91
616.76	44538.05
616.92	44095.69
617.07	44406.98
617.22	44495.92
617.37	44416.35
617.53	44781.47
617.68	44615.29
617.83	44126.12
617.99	44418.69
618.14	44423.37
618.29	44584.86
618.45	44142.50
618.60	44182.29
618.75	44123.78
618.90	43922.49
619.06	44428.05
619.21	43880.36
619.36	43924.83
619.51	43861.64
619.67	44006.75
619.82	43945.90
619.97	44364.85
620.12	43775.04
620.28	43702.48
620.43	43938.88
620.58	43824.19
620.73	44025.48
620.89	43412.26
621.04	43983.35
621.19	44215.06
621.34	44215.06
621.49	43943.56
621.65	44144.84
621.80	44002.07
621.95	43725.89
622.10	44315.70
622.25	43772.70
622.41	43674.40
622.56	43571.41
622.71	44135.48
622.86	43550.35
623.01	43597.16
623.16	43632.27
623.32	43512.90
623.47	43323.32
623.62	43475.45
623.77	43210.97
623.92	43232.04
624.07	43269.48
624.23	42951.17
624.38	43545.67
624.53	43159.48
624.68	43267.14
624.83	44095.69
624.98	43194.59
625.13	42813.08
625.29	42918.40
625.44	43239.06
625.59	42724.14
625.74	42712.44
625.89	42670.31
626.04	42913.72
626.19	43026.07
626.34	43264.80
626.49	42951.17
626.65	42646.90
626.80	42754.57
626.95	42597.75
627.10	42749.88
627.25	42658.60
627.40	42497.11
627.55	42574.34
627.70	42696.05
627.85	42127.30
628.00	42656.26
628.15	42754.57
628.30	42014.96
628.45	42689.03
628.60	42319.23
628.76	42160.07
628.91	42419.87
629.06	42375.40
629.21	42436.25
629.36	42171.77
629.51	42078.15
629.66	42164.75
629.81	42124.96
629.96	41991.55
630.11	42359.02
630.26	42593.07
630.41	42604.77
630.56	42209.22
630.71	42092.19
630.86	41813.67
631.01	41731.75
631.16	41839.42
631.31	41474.29
631.46	41237.90
631.61	41708.35
631.76	41869.84
631.91	42057.09
632.06	41998.57
632.21	42085.17
632.36	41893.25
632.51	41603.02
632.66	41677.92
632.81	41179.39
632.96	41752.82
633.10	41287.05
633.25	41511.74
633.40	42143.69
633.55	41537.49
633.70	41596.00
633.85	41092.79
634.00	41689.62
634.15	41366.63
634.30	41474.29
634.45	41043.63
634.60	41134.92
634.75	41415.78
634.90	41074.06
635.05	41649.83
635.19	41525.78
635.34	41024.91
635.49	41500.04
635.64	41153.64
635.79	41060.02
635.94	41003.85
636.09	41209.81
636.24	40975.76
636.39	40825.96
636.53	40790.86
636.68	40982.78
636.83	41219.17
636.98	40797.88
637.13	41153.64
637.28	41347.90
637.43	41067.04
637.57	40559.14
637.72	41099.81
637.87	41134.92
638.02	40591.91
638.17	41205.13
638.32	40301.68
638.46	40292.32
638.61	40479.57
638.76	40453.82
638.91	40477.22
639.06	40535.74
639.20	41027.25
639.35	40914.90
639.50	40311.05
639.65	40858.73
639.80	40027.84
639.94	40053.59
640.09	40470.20
640.24	40549.78
640.39	40130.83
640.54	40236.15
640.68	40142.53
640.83	40285.30
640.98	40025.50
641.13	40004.44
641.27	40336.79
641.42	40383.60
641.57	40100.40
641.72	39810.17
641.86	40411.69
642.01	39728.25
642.16	39978.69
642.31	39353.77
642.45	39821.87
642.60	39526.97
642.75	39746.98
642.90	40107.42
643.04	39770.38
643.19	39613.57
643.34	40055.93
643.48	39775.06
643.63	40039.54
643.78	39667.40
643.93	39536.33
644.07	39365.47
644.22	39225.04
644.37	39648.68
644.51	39332.70
644.66	39529.31
644.81	39732.93
644.95	39711.87
645.10	39494.20
645.25	39227.38
645.39	39438.03
645.54	39365.47
645.69	39082.27
645.83	39115.03
645.98	39112.69
646.13	39227.38
646.27	39344.41
646.42	39016.73
646.57	39234.40
646.71	39210.99
646.86	39210.99
647.00	39407.60
647.15	38918.43
647.30	39260.15
647.44	38967.58
647.59	38967.58
647.74	38363.72
647.88	38658.63
648.03	38817.78
648.17	39068.22
648.32	38941.83
648.47	38492.45
648.61	38525.22
648.76	39002.69
648.90	38754.59
649.05	38913.75
649.20	38768.63
649.34	38759.27
649.49	38480.75
649.63	38682.03
649.78	38445.64
649.92	38813.10
650.07	38483.09
650.21	38553.30
650.36	39037.80
650.51	38515.86
650.65	39367.81
650.80	39014.39
650.94	38471.39
651.09	38602.46
651.23	38169.46
651.38	38169.46
651.52	38253.72
651.67	38038.39
651.81	38478.41
651.96	37949.45
652.10	38733.53
652.25	38265.42
652.39	38333.29
652.54	38436.28
652.68	38368.40
652.83	38525.22
652.97	38410.53
653.12	38710.12
653.26	37570.28
653.41	37834.76
653.55	37881.57
653.70	38267.76
653.84	37635.81
653.99	37734.12
654.13	38141.37
654.27	37785.61
654.42	37600.71
654.56	37691.99
654.71	37912.00
654.85	37806.67
655.00	37750.50
655.14	37717.73
655.29	37345.59
655.43	37708.37
655.57	37020.25
655.72	37223.88
655.86	37254.31
656.01	36877.48
656.15	36767.48
656.30	37392.40
656.44	37390.06
656.58	37268.35
656.73	37013.23
656.87	36847.05
657.01	36723.01
657.16	36917.27
657.30	36608.32
657.45	36921.95
657.59	36933.65
657.73	36540.44
657.88	36821.31
658.02	36989.83
658.16	37186.43
658.31	36896.20
658.45	36636.41
658.60	37001.53
658.74	37053.02
658.88	37195.79
659.03	36807.26
659.17	36943.02
659.31	36671.51
659.46	36528.74
659.60	36306.39
659.74	36360.22
659.89	36404.69
660.03	36369.58
660.17	36847.05
660.32	36561.51
660.46	36601.30
660.60	36465.55
660.74	35864.03
660.89	36353.20
661.03	36112.13
661.17	35906.16
661.32	35782.11
661.46	35988.08
661.60	36135.53
661.74	35882.75
661.89	35934.24
662.03	36126.17
662.17	35835.94
662.31	35772.75
662.46	36051.27
662.60	36278.30
662.74	35754.02
662.88	35573.80
663.03	35653.38
663.17	35737.64
663.31	35309.32
663.45	35679.13
663.60	35730.62
663.74	35117.40
663.88	35129.10
664.02	34981.65
664.17	35250.81
664.31	34738.23
664.45	35051.86
664.59	35189.95
664.73	34754.61
664.88	35187.61
665.02	34618.86
665.16	34930.16
665.30	34092.24
665.44	34616.52
665.59	34052.45
665.73	34958.24
665.87	34338.00
666.01	34501.84
666.15	34541.63
666.29	34862.28
666.44	34405.88
666.58	34295.87
666.72	34644.61
666.86	34080.54
667.00	34164.80
667.14	33907.34
667.28	33991.60
667.43	34162.46
667.57	34370.77
667.71	34024.37
667.85	34132.03
667.99	34019.69
668.13	33844.15
668.27	33886.28
668.41	34071.18
668.56	33663.93
668.70	33394.76
668.84	33132.62
668.98	33076.45
669.12	33773.93
669.26	33308.16
669.40	33441.57
669.54	32781.54
669.68	32980.49
669.82	32985.17
669.96	33078.79
670.10	33081.13
670.25	32943.04
670.39	32671.54
670.53	32723.03
670.67	32772.18
670.81	32818.99
670.95	32823.67
671.09	32629.41
671.23	32346.20
671.37	32533.45
671.51	32011.51
671.65	32201.09
671.79	32444.51
671.93	32121.51
672.07	32201.09
672.21	31995.12
672.35	32063.00
672.49	32271.31
672.63	31718.94
672.77	31786.82
672.91	31466.16
673.05	31599.57
673.19	31756.39
673.33	31344.45
673.47	31697.88
673.61	31463.82
673.75	31831.29
673.89	30948.90
674.03	31346.79
674.17	31405.31
674.31	31044.87
674.45	31112.74
674.59	31466.16
674.73	31325.73
674.87	30993.37
675.01	30717.19
675.15	30513.56
675.29	30740.60
675.43	30735.92
675.56	30565.06
675.70	30946.56
675.84	30307.60
675.98	29706.08
676.12	30094.61
676.26	30249.08
676.40	30551.01
676.54	30143.76
676.68	30162.48
676.82	29493.09
676.96	29958.86
677.10	29713.10
677.23	29888.64
677.37	29649.91
677.51	29806.72
677.65	29235.63
677.79	28706.67
677.93	28858.81
678.07	28858.81
678.21	28606.03
678.34	28503.04
678.48	28680.92
678.62	28439.85
678.76	28580.28
678.90	28444.53
679.04	28329.84
679.18	28472.62
679.31	27920.25
679.45	27669.81
679.59	28098.13
679.73	28250.27
679.87	27639.39
680.00	27821.95
680.14	27716.62
680.28	27503.64
680.42	27613.64
680.56	27360.86
680.70	27159.58
680.83	27026.17
680.97	27213.41
681.11	26986.38
681.25	27323.41
681.39	27084.68
681.52	27152.55
681.66	26654.02
681.80	26656.36
681.94	26717.22
682.07	26162.51
682.21	26368.48
682.35	26033.78
682.49	26251.45
682.62	26312.30
682.76	26174.21
682.90	25881.64
683.04	26068.89
683.17	25909.73
683.31	25659.29
683.45	25483.75
683.59	25502.48
683.72	25823.13
683.86	25694.40
684.00	25312.89
684.13	25179.48
684.27	25254.38
684.41	25132.67
684.55	24875.21
684.68	24833.08
684.82	24926.71
684.96	24833.08
685.09	24414.13
685.23	24547.54
685.37	24496.05
685.50	24563.92
685.64	24395.40
685.78	24194.12
685.91	24486.68
686.05	23873.46
686.19	23859.42
686.32	23690.90
686.46	23571.54
686.60	23150.24
686.73	23386.63
686.87	22984.06
687.01	23124.49
687.14	22888.10
687.28	22810.86
687.42	22799.16
687.55	22752.35
687.69	22977.04
687.82	23274.29
687.96	22815.54
688.10	22881.08
688.23	22632.98
688.37	22436.38
688.50	22534.68
688.64	22363.82
688.78	22527.66
688.91	22001.04
689.05	21827.84
689.18	21696.77
689.32	21645.27
689.46	21848.90
689.59	22230.41
689.73	21865.28
689.86	21799.75
690.00	21469.73
690.13	21568.04
690.27	21193.55
690.41	21223.98
690.54	21048.44
690.68	21392.50
690.81	21404.20
690.95	21151.42
691.08	21233.34
691.22	21001.63
691.35	20865.88
691.49	21074.18
691.62	20648.21
691.76	20650.55
691.89	20697.36
692.03	20388.41
692.16	20507.77
692.30	20264.36
692.43	20034.99
692.57	20360.32
692.70	19922.64
692.84	20023.28
692.97	19885.19
693.11	19513.05
693.24	19468.58
693.38	19569.22
693.51	19548.15
693.65	19377.30
693.78	19424.11
693.92	19800.93
694.05	19286.01
694.19	19084.73
694.32	19098.77
694.45	19316.44
694.59	19241.54
694.72	18794.50
694.86	18691.52
694.99	18654.07
695.13	18429.38
695.26	18445.76
695.39	18497.25
695.53	18455.12
695.66	18537.04
695.80	18284.26
695.93	18445.76
696.07	18302.99
696.20	18195.32
696.33	18317.03
696.47	17752.96
696.60	17919.14
696.73	17884.03
696.87	17720.20
697.00	17832.54
697.14	17296.56
697.27	17563.38
697.40	17418.27
697.54	17179.53
697.67	17207.62
697.80	17142.08
697.94	17060.16
698.07	17097.61
698.21	16863.56
698.34	16903.35
698.47	16868.24
698.61	16821.43
698.74	16830.79
698.87	16695.04
699.01	16350.98
699.14	16271.40
699.27	16107.57
699.40	16306.51
699.54	16325.24
699.67	15960.11
699.80	15950.75
699.94	15983.52
700.07	15889.90
700.20	15995.22
700.34	16180.12
700.47	15817.34
700.60	15630.10
700.73	15548.18
700.87	15824.36
701.00	15424.13
701.13	15382.00
701.26	15218.16
701.40	15316.47
701.53	14897.51
701.66	15157.31
701.79	14876.44
701.93	14911.55
702.06	14836.66
702.19	14698.56
702.32	14532.39
702.46	14761.76
702.59	14918.57
702.72	14782.82
702.85	14740.69
702.99	14553.45
703.12	14607.28
703.25	14614.30
703.38	14363.87
703.51	14216.41
703.65	14527.71
703.78	14012.79
703.91	14022.15
704.04	14031.51
704.17	13790.44
704.31	13984.70
704.44	13551.70
704.57	13855.97
704.70	13626.60
704.83	13715.54
704.96	13432.33
705.10	13535.32
705.23	13532.98
>>>>>End Processed Spectral Data<<<<<
