SpectraSuite Data File
++++++++++++++++++++++++++++++++++++
Date: Fri Oct 25 10:47:08 EDT 2013
User: price-jones
Dark Spectrum Present: No
Reference Spectrum Present: No
Number of Sampled Component Spectra: 1
Spectrometers: USB2+H05261
Integration Time (usec): 100000 (USB2+H05261)
Spectra Averaged: 1 (USB2+H05261)
Boxcar Smoothing: 0 (USB2+H05261)
Correct for Electrical Dark: No (USB2+H05261)
Strobe/Lamp Enabled: No (USB2+H05261)
Correct for Detector Non-linearity: No (USB2+H05261)
Correct for Stray Light: No (USB2+H05261)
Number of Pixels in Processed Spectrum: 2048
>>>>>Begin Processed Spectral Data<<<<<
365.73	152.13
365.92	152.13
366.12	152.13
366.32	112.35
366.52	81.92
366.72	81.92
366.91	11.70
367.11	44.47
367.31	0.00
367.51	32.77
367.70	0.00
367.90	37.45
368.10	0.00
368.30	11.70
368.49	0.00
368.69	35.11
368.89	18.72
369.09	49.15
369.28	86.60
369.48	70.22
369.68	51.49
369.87	147.45
370.07	114.69
370.27	187.24
370.47	215.33
370.66	418.96
370.86	409.59
371.06	491.51
371.25	447.04
371.45	479.81
371.65	479.81
371.84	440.02
372.04	341.72
372.24	451.72
372.44	451.72
372.63	489.17
372.83	461.09
373.03	547.69
373.22	456.40
373.42	486.83
373.62	500.87
373.81	484.49
374.01	540.66
374.21	540.66
374.40	582.79
374.60	500.87
374.79	568.75
374.99	521.94
375.19	608.54
375.38	468.11
375.58	557.05
375.78	662.37
375.97	540.66
376.17	638.97
376.37	634.29
376.56	587.47
376.76	601.52
376.95	571.09
377.15	514.92
377.35	538.32
377.54	550.03
377.74	587.47
377.93	578.11
378.13	599.18
378.33	615.56
378.52	608.54
378.72	629.60
378.91	692.80
379.11	587.47
379.31	660.03
379.50	608.54
379.70	624.92
379.89	674.07
380.09	645.99
380.28	599.18
380.48	582.79
380.68	671.73
380.87	622.58
381.07	629.60
381.26	606.20
381.46	648.33
381.65	695.14
381.85	594.50
382.04	636.63
382.24	678.76
382.43	690.46
382.63	732.59
382.83	664.71
383.02	662.37
383.22	688.12
383.41	631.94
383.61	713.86
383.80	763.01
384.00	683.44
384.19	657.69
384.39	751.31
384.58	713.86
384.78	711.52
384.97	690.46
385.17	748.97
385.36	702.16
385.56	739.61
385.75	854.30
385.95	760.67
386.14	802.80
386.34	798.12
386.53	791.10
386.72	720.88
386.92	713.86
387.11	828.55
387.31	798.12
387.50	861.32
387.70	788.76
387.89	849.61
388.09	840.25
388.28	784.08
388.48	788.76
388.67	819.19
388.86	795.78
389.06	847.27
389.25	912.81
389.45	858.98
389.64	901.11
389.84	926.85
390.03	959.62
390.22	929.19
390.42	957.28
390.61	887.06
390.81	1001.75
391.00	917.49
391.19	1008.77
391.39	966.64
391.58	947.92
391.78	933.87
391.97	999.41
392.16	849.61
392.36	1041.54
392.55	980.68
392.75	945.58
392.94	929.19
393.13	992.39
393.33	957.28
393.52	968.98
393.71	1039.20
393.91	933.87
394.10	1043.88
394.29	1076.65
394.49	985.37
394.68	1109.41
394.88	1088.35
395.07	1144.52
395.26	1121.12
395.46	1109.41
395.65	1149.20
395.84	1097.71
396.04	1207.72
396.23	1153.88
396.42	1158.57
396.62	1144.52
396.81	1170.27
397.00	1083.67
397.19	1132.82
397.39	1198.35
397.58	1217.08
397.77	1163.25
397.97	1263.89
398.16	1259.21
398.35	1259.21
398.55	1254.53
398.74	1249.85
398.93	1357.51
399.12	1313.04
399.32	1273.25
399.51	1212.40
399.70	1390.28
399.90	1306.02
400.09	1383.26
400.28	1465.18
400.47	1313.04
400.67	1390.28
400.86	1446.45
401.05	1350.49
401.24	1502.62
401.44	1451.13
401.63	1352.83
401.82	1516.67
402.01	1444.11
402.21	1458.15
402.40	1390.28
402.59	1469.86
402.78	1577.52
402.97	1593.90
403.17	1495.60
403.36	1516.67
403.55	1521.35
403.74	1621.99
403.93	1565.82
404.13	1706.25
404.32	1591.56
404.51	1556.46
404.70	1755.40
404.89	1661.78
405.09	1783.49
405.28	1640.72
405.47	1790.51
405.66	1703.91
405.85	1724.97
406.05	1715.61
406.24	1722.63
406.43	1659.44
406.62	1865.41
406.81	1755.40
407.00	1827.96
407.20	1785.83
407.39	1788.17
407.58	1858.39
407.77	1872.43
407.96	1811.57
408.15	1919.24
408.34	1944.99
408.54	1937.96
408.73	1982.43
408.92	1973.07
409.11	1963.71
409.30	1944.99
409.49	1984.77
409.68	1937.96
409.87	2099.46
410.07	2003.50
410.26	2083.08
410.45	2141.59
410.64	2141.59
410.83	2132.23
411.02	2022.22
411.21	2251.60
411.40	2134.57
411.59	2235.21
411.78	2239.89
411.98	2258.62
412.17	2399.05
412.36	2359.26
412.55	2450.54
412.74	2368.62
412.93	2300.75
413.12	2415.43
413.31	2415.43
413.50	2417.77
413.69	2640.12
413.88	2705.66
414.07	2612.04
414.26	2516.08
414.45	2480.97
414.64	2600.34
414.83	2597.99
415.02	2621.40
415.22	2768.85
415.41	2724.38
415.60	2693.96
415.79	2857.79
415.98	2796.94
416.17	2832.05
416.36	2818.00
416.55	2810.98
416.74	2883.54
416.93	2803.96
417.12	2787.58
417.31	2857.79
417.50	2834.39
417.69	3000.57
417.88	3030.99
418.07	2836.73
418.26	3112.91
418.45	3012.27
418.64	3194.83
418.83	3049.72
419.02	3096.53
419.21	3171.43
419.39	3148.02
419.58	3178.45
419.77	3253.34
419.96	3138.66
420.15	3255.69
420.34	3131.64
420.53	3164.40
420.72	3400.80
420.91	3286.11
421.10	3393.78
421.29	3396.12
421.48	3307.18
421.67	3342.28
421.86	3353.99
422.05	3321.22
422.24	3473.36
422.43	3339.94
422.61	3328.24
422.80	3349.31
422.99	3456.97
423.18	3513.14
423.37	3489.74
423.56	3510.80
423.75	3574.00
423.94	3365.69
424.13	3255.69
424.32	3300.16
424.50	3468.67
424.69	3684.00
424.88	3679.32
425.07	3375.05
425.26	3492.08
425.45	3496.76
425.64	3527.19
425.83	3410.16
426.01	3672.30
426.20	3442.93
426.39	3620.81
426.58	3510.80
426.77	3368.03
426.96	3543.57
427.15	3674.64
427.33	3552.93
427.52	3578.68
427.71	3686.34
427.90	3611.45
428.09	3648.90
428.28	3613.79
428.46	3716.77
428.65	3625.49
428.84	3794.01
429.03	3796.35
429.22	3702.73
429.40	3726.13
429.59	3779.97
429.78	3644.21
429.97	3510.80
430.16	3740.18
430.34	3871.25
430.53	3857.20
430.72	3801.03
430.91	3772.94
431.10	4042.11
431.28	3997.64
431.47	4051.47
431.66	4140.41
431.85	3990.61
432.03	4070.19
432.22	4177.86
432.41	4105.30
432.60	4250.41
432.79	4138.07
432.97	4067.85
433.16	4191.90
433.35	4128.70
433.54	4236.37
433.72	4250.41
433.91	4128.70
434.10	4252.75
434.28	4318.29
434.47	4353.40
434.66	4266.80
434.85	4381.48
435.03	4395.53
435.22	4416.59
435.41	4386.16
435.59	4458.72
435.78	4461.06
435.97	4519.57
436.16	4409.57
436.34	4496.17
436.53	4627.24
436.72	4585.11
436.90	4458.72
437.09	4564.04
437.28	4559.36
437.46	4456.38
437.65	4650.64
437.84	4617.88
438.02	4662.35
438.21	4437.66
438.40	4655.33
438.58	4774.69
438.77	4676.39
438.96	4947.89
439.14	4992.36
439.33	4882.36
439.52	4973.64
439.70	4985.34
439.89	5020.45
440.08	5050.88
440.26	5160.88
440.45	5132.79
440.63	5205.35
440.82	5294.29
441.01	5357.49
441.19	5284.93
441.38	5434.72
441.57	5383.23
441.75	5364.51
441.94	5556.43
442.12	5535.37
442.31	5659.42
442.50	5610.26
442.68	5518.98
442.87	5666.44
443.05	5544.73
443.24	5753.04
443.43	5696.86
443.61	5713.25
443.80	5600.90
443.98	5462.81
444.17	5472.17
444.35	5757.72
444.54	5823.25
444.73	5865.38
444.91	5884.11
445.10	5853.68
445.28	5790.49
445.47	5533.03
445.65	5666.44
445.84	5706.23
446.02	5834.96
446.21	5666.44
446.39	5823.25
446.58	5853.68
446.77	5863.04
446.95	5614.95
447.14	5778.78
447.32	5856.02
447.51	5778.78
447.69	5755.38
447.88	5851.34
448.06	5748.36
448.25	5935.60
448.43	5879.43
448.62	5881.77
448.80	5909.85
448.99	5879.43
449.17	6061.99
449.36	5998.79
449.54	6141.57
449.73	6127.52
449.91	6204.76
450.10	6366.26
450.28	6263.27
450.46	6328.81
450.65	6296.04
450.83	6190.72
451.02	6139.23
451.20	6471.58
451.39	6375.62
451.57	6207.10
451.76	6375.62
451.94	6246.89
452.13	6377.96
452.31	6429.45
452.49	6375.62
452.68	6532.44
452.86	6324.13
453.05	6420.09
453.23	6541.80
453.42	6420.09
453.60	6375.62
453.78	6651.80
453.97	6427.11
454.15	6693.93
454.34	6483.28
454.52	6635.42
454.70	6593.29
454.89	6670.53
455.07	6792.23
455.26	6679.89
455.44	6806.28
455.62	6698.61
455.81	6773.51
455.99	6890.54
456.17	6792.23
456.36	6974.80
456.54	6970.12
456.73	7108.21
456.91	7194.81
457.09	7398.43
457.28	7124.59
457.46	6958.41
457.64	7105.87
457.83	7136.29
458.01	7211.19
458.19	7265.02
458.38	7101.19
458.56	7492.05
458.74	7384.39
458.93	7162.04
459.11	7283.75
459.29	7445.24
459.48	7382.05
459.66	7459.29
459.84	7569.29
460.03	7688.66
460.21	7466.31
460.39	7482.69
460.57	7552.91
460.76	7681.64
460.94	7688.66
461.12	7700.36
461.31	7637.17
461.49	7618.44
461.67	7611.42
461.85	7714.41
462.04	7669.94
462.22	8191.88
462.40	7889.95
462.59	7660.57
462.77	7782.28
462.95	7786.96
463.13	8042.08
463.32	7852.50
463.50	8016.33
463.68	8044.42
463.86	8163.79
464.05	7915.69
464.23	7995.27
464.41	8025.70
464.59	7920.37
464.78	8257.41
464.96	8079.53
465.14	7957.82
465.32	8388.48
465.50	8215.28
465.69	8121.66
465.87	8095.91
466.05	8121.66
466.23	8250.39
466.41	8140.38
466.60	8479.76
466.78	8458.70
466.96	8245.71
467.14	8236.35
467.32	8306.56
467.51	8283.16
467.69	8187.19
467.87	8264.43
468.05	8627.21
468.23	8428.27
468.41	8430.61
468.60	8547.64
468.78	8594.45
468.96	8538.27
469.14	8580.40
469.32	8772.33
469.50	8496.14
469.69	8802.75
469.87	8837.86
470.05	8879.99
470.23	8706.79
470.41	8791.05
470.59	8854.25
470.77	8762.97
470.95	8730.20
471.14	9137.45
471.32	8837.86
471.50	9231.07
471.68	9249.80
471.86	9177.24
472.04	9357.46
472.22	9399.59
472.40	9001.70
472.58	9373.85
472.77	9439.38
472.95	9437.04
473.13	9809.19
473.31	9511.94
473.49	9469.81
473.67	9369.16
473.85	9432.36
474.03	9652.37
474.21	9776.42
474.39	9858.34
474.57	9827.91
474.75	9984.73
474.93	9987.07
475.12	10012.81
475.30	10211.76
475.48	10218.78
475.66	10324.10
475.84	9944.94
476.02	10382.62
476.20	10427.09
476.38	10338.15
476.56	10714.97
476.74	10775.83
476.92	10663.48
477.10	10501.98
477.28	10899.87
477.46	10661.14
477.64	10745.40
477.82	11138.61
478.00	11384.37
478.18	11330.53
478.36	11145.63
478.54	11548.20
478.72	11384.37
478.90	11557.57
479.08	11845.45
479.26	11859.49
479.44	11789.28
479.62	11723.74
479.80	12114.61
479.98	11936.73
480.16	12269.09
480.34	12060.78
480.52	12215.26
480.70	12465.69
480.88	12229.30
481.06	12276.11
481.24	12297.17
481.41	12737.20
481.59	12842.52
481.77	12999.34
481.95	13039.12
482.13	13048.49
482.31	12917.42
482.49	13455.74
482.67	13605.53
482.85	13294.24
483.03	13504.89
483.21	13862.99
483.39	13895.76
483.57	13659.37
483.74	14214.07
483.92	14235.14
484.10	13951.93
484.28	14457.49
484.46	14614.30
484.64	14712.61
484.82	14511.32
485.00	14712.61
485.18	14897.51
485.35	15180.71
485.53	14878.79
485.71	14892.83
485.89	15410.09
486.07	15035.60
486.25	15096.46
486.43	15496.69
486.61	15318.81
486.78	15538.82
486.96	15702.65
487.14	16049.05
487.32	16042.03
487.50	16135.65
487.68	16531.20
487.85	16386.09
488.03	16936.12
488.21	16685.68
488.39	16908.03
488.57	16971.22
488.75	17158.47
488.92	17200.60
489.10	17692.11
489.28	17598.49
489.46	17558.70
489.64	17823.18
489.81	18352.14
489.99	18094.68
490.17	18071.28
490.35	18328.74
490.53	18567.47
490.70	18504.28
490.88	18314.69
491.06	18995.79
491.24	18590.88
491.41	18827.27
491.59	18979.40
491.77	18986.43
491.95	19199.41
492.13	19407.72
492.30	19564.54
492.48	19697.95
492.66	19761.14
492.84	19756.46
493.01	19974.13
493.19	19899.23
493.37	20315.85
493.54	20383.73
493.72	20430.54
493.90	20409.47
494.08	21085.89
494.25	20943.11
494.43	21057.80
494.61	20994.61
494.79	21413.56
494.96	21422.92
495.14	21392.50
495.32	21546.97
495.49	21542.29
495.67	21652.30
495.85	21671.02
496.02	22171.89
496.20	22059.55
496.38	22408.29
496.55	22387.22
496.73	22733.62
496.91	22216.36
497.09	22331.05
497.26	22506.59
497.44	22469.14
497.62	22960.66
497.79	23452.17
497.97	23220.45
498.14	23381.95
498.32	23281.31
498.50	23353.87
498.67	23604.30
498.85	23653.45
499.03	24175.39
499.20	23854.74
499.38	23901.55
499.56	24030.28
499.73	24147.31
499.91	24304.12
500.08	24364.98
500.26	24041.98
500.44	24217.52
500.61	24477.32
500.79	24397.74
500.97	24926.71
501.14	24772.23
501.32	24975.86
501.49	24477.32
501.67	24926.71
501.84	25362.04
502.02	24961.81
502.20	24926.71
502.37	25633.55
502.55	25593.76
502.72	25514.18
502.90	25312.89
503.07	25743.55
503.25	25876.96
503.43	25834.83
503.60	26096.97
503.78	26302.94
503.95	25940.16
504.13	25865.26
504.30	26534.65
504.48	26396.56
504.65	26015.05
504.83	26719.56
505.01	26717.22
505.18	26490.18
505.36	26930.20
505.53	26658.70
505.71	27068.30
505.88	27246.18
506.06	26780.41
506.23	27426.40
506.41	27157.24
506.58	27704.92
506.76	27190.00
506.93	27358.52
507.11	27197.02
507.28	28006.85
507.46	27571.51
507.63	27648.75
507.81	27557.47
507.98	27559.81
508.16	27711.94
508.33	28009.19
508.50	28477.30
508.68	28149.62
508.85	28608.37
509.03	28371.97
509.20	28535.81
509.38	28811.99
509.55	28631.77
509.73	29244.99
509.90	28903.28
510.08	28734.76
510.25	28957.11
510.42	29046.05
510.60	29305.85
510.77	29413.51
510.95	29460.32
511.12	29067.11
511.30	29619.48
511.47	29490.75
511.64	29425.22
511.82	29883.96
511.99	29699.06
512.17	29851.19
512.34	29670.97
512.51	30010.35
512.69	30206.95
512.86	30391.86
513.04	30232.70
513.21	30031.41
513.38	30422.28
513.56	30394.20
513.73	30256.11
513.90	30443.35
514.08	30562.72
514.25	30366.11
514.43	30771.02
514.60	30436.33
514.77	31061.25
514.95	31070.61
515.12	31197.00
515.29	31014.44
515.47	31171.25
515.64	31246.15
515.81	31325.73
515.99	31578.51
516.16	31435.74
516.33	31318.71
516.51	31835.97
516.68	31124.44
516.85	31143.17
517.03	31615.96
517.20	31709.58
517.37	31833.63
517.54	31740.00
517.72	31901.50
517.89	32161.30
518.06	32238.54
518.24	31840.65
518.41	31714.26
518.58	32142.58
518.75	32175.34
518.93	32374.29
519.10	32168.32
519.27	32788.56
519.45	32538.13
519.62	32580.26
519.79	33095.18
519.96	32823.67
520.14	33074.11
520.31	32943.04
520.48	33074.11
520.65	33132.62
520.83	33205.18
521.00	33439.23
521.17	33156.03
521.34	33219.22
521.52	33476.68
521.69	33303.48
521.86	33729.46
522.03	34057.14
522.20	33986.92
522.38	33940.11
522.55	33708.40
522.72	33956.49
522.89	33923.72
523.07	34164.80
523.24	34012.66
523.41	34000.96
523.58	33869.89
523.75	34738.23
523.92	34394.17
524.10	34298.21
524.27	34656.31
524.44	34766.32
524.61	34831.85
524.78	34717.17
524.96	34920.79
525.13	35316.34
525.30	35414.65
525.47	35227.40
525.64	34878.66
525.81	35152.51
525.98	34958.24
526.16	35292.94
526.33	35398.26
526.50	35803.17
526.67	35105.70
526.84	35098.67
527.01	35028.46
527.18	35447.41
527.36	35468.48
527.53	35901.48
527.70	35857.01
527.87	35852.33
528.04	35550.40
528.21	36060.63
528.38	35662.74
528.55	35952.97
528.72	36039.57
528.89	36238.51
529.07	36259.58
529.24	36084.04
529.41	36226.81
529.58	36231.49
529.75	35948.29
529.92	36308.73
530.09	36360.22
530.26	36730.03
530.43	36559.17
530.60	36376.61
530.77	36304.05
530.94	36767.48
531.11	36669.17
531.28	36891.52
531.46	36751.09
531.63	36943.02
531.80	36882.16
531.97	36950.04
532.14	37013.23
532.31	36542.78
532.48	37186.43
532.65	37326.86
532.82	37326.86
532.99	37357.29
533.16	36783.86
533.33	37181.75
533.50	38047.75
533.67	37455.59
533.84	37469.64
534.01	37682.62
534.18	37603.05
534.35	37949.45
534.52	37596.03
534.69	38080.52
534.86	37890.93
535.03	37673.26
535.20	38153.07
535.37	38396.49
535.54	38017.32
535.71	38316.91
535.88	38150.73
536.05	38188.18
536.22	38422.23
536.38	38356.70
536.55	38321.59
536.72	38106.26
536.89	37869.87
537.06	37900.29
537.23	38789.70
537.40	38511.17
537.57	38251.38
537.74	38560.33
537.91	39023.75
538.08	38646.93
538.25	38401.17
538.42	38766.29
538.59	39264.83
538.75	38660.97
538.92	38691.40
539.09	39152.48
539.26	39119.71
539.43	39278.87
539.60	39000.35
539.77	39117.37
539.94	39421.64
540.11	38883.32
540.28	39445.05
540.44	39360.79
540.61	39290.57
540.78	39110.35
540.95	39407.60
541.12	38897.36
541.29	39295.25
541.46	39651.02
541.62	39164.18
541.79	39903.79
541.96	39384.19
542.13	39377.17
542.30	39765.70
542.47	39660.38
542.63	39377.17
542.80	39526.97
542.97	40266.58
543.14	40301.68
543.31	40650.42
543.48	40196.36
543.64	40722.98
543.81	40203.38
543.98	40320.41
544.15	40650.42
544.32	40664.47
544.48	40615.32
544.65	40776.81
544.82	40517.01
544.99	40414.03
545.16	40652.76
545.32	40336.79
545.49	40676.17
545.66	40566.16
545.83	40739.36
546.00	40598.93
546.16	40641.06
546.33	40414.03
546.50	40648.08
546.67	40608.29
546.83	40517.01
547.00	40727.66
547.17	40861.07
547.34	40938.31
547.50	41195.77
547.67	41193.43
547.84	41198.11
548.00	41563.23
548.17	41148.96
548.34	41418.12
548.51	41364.29
548.67	41593.66
548.84	41666.22
549.01	41343.22
549.18	41139.60
549.34	41715.37
549.51	41818.35
549.68	41717.71
549.84	41528.13
550.01	41371.31
550.18	41207.47
550.34	41633.45
550.51	41764.52
550.68	41708.35
550.84	41230.88
551.01	41823.03
551.18	41909.63
551.34	41741.11
551.51	41738.77
551.68	42052.41
551.84	42073.47
552.01	41902.61
552.18	42045.38
552.34	41736.43
552.51	42237.31
552.68	41890.91
552.84	42164.75
553.01	42344.97
553.18	42529.87
553.34	42157.73
553.51	41628.77
553.67	42089.85
553.84	42286.46
554.01	42852.87
554.17	42225.60
554.34	42588.39
554.51	42618.81
554.67	42838.83
554.84	42553.28
555.00	42003.25
555.17	42155.39
555.33	42478.38
555.50	42602.43
555.67	42464.34
555.83	42553.28
556.00	42335.61
556.16	43220.33
556.33	42843.51
556.50	42293.48
556.66	42763.93
556.83	42513.49
556.99	42579.03
557.16	42616.47
557.32	42754.57
557.49	43157.14
557.65	42398.80
557.82	42862.23
557.98	42323.91
558.15	43283.53
558.32	43297.57
558.48	43124.37
558.65	42937.13
558.81	42829.46
558.98	43302.25
559.14	43168.84
559.31	43302.25
559.47	42937.13
559.64	43522.26
559.80	43730.57
559.97	43494.18
560.13	43079.90
560.30	43377.15
560.46	43264.80
560.63	43400.55
560.79	43082.24
560.96	43236.72
561.12	43288.21
561.29	43236.72
561.45	43452.05
561.61	43346.72
561.78	43627.59
561.94	43311.61
562.11	43538.65
562.27	42899.68
562.44	43349.06
562.60	43686.10
562.77	43585.46
562.93	43445.02
563.10	43789.08
563.26	43290.55
563.42	43643.97
563.59	43618.22
563.75	43536.30
563.92	44055.90
564.08	44147.18
564.24	44025.48
564.41	43950.58
564.57	43854.62
564.74	43587.80
564.90	43772.70
565.07	43737.59
565.23	43522.26
565.39	43889.73
565.56	43632.27
565.72	43559.71
565.88	43564.39
566.05	43484.81
566.21	43943.56
566.38	44006.75
566.54	43686.10
566.70	43983.35
566.87	44435.07
567.03	43807.81
567.19	44175.27
567.36	44154.21
567.52	43964.62
567.68	44135.48
567.85	43957.60
568.01	43826.53
568.17	43906.11
568.34	44158.89
568.50	44072.29
568.66	43721.21
568.83	43990.37
568.99	43676.74
569.15	43566.73
569.32	43945.90
569.48	44069.95
569.64	44182.29
569.81	44137.82
569.97	43625.25
570.13	44360.17
570.30	43768.02
570.46	43782.06
570.62	43746.95
570.78	43742.27
570.95	43555.03
571.11	44179.95
571.27	44016.11
571.43	43966.96
571.60	44102.71
571.76	44086.33
571.92	44156.55
572.09	44083.99
572.25	44332.09
572.41	44418.69
572.57	44186.97
572.74	44697.21
572.90	44318.04
573.06	44474.86
573.22	44329.75
573.38	44182.29
573.55	43934.20
573.71	44332.09
573.87	44261.87
574.03	44098.03
574.20	44123.78
574.36	44311.02
574.52	44215.06
574.68	44184.63
574.84	44582.52
575.01	44205.70
575.17	44240.81
575.33	44004.41
575.49	43901.43
575.65	44477.20
575.82	44715.93
575.98	44292.30
576.14	44353.15
576.30	44135.48
576.46	44074.63
576.62	44320.38
576.79	44362.51
576.95	43632.27
577.11	44184.63
577.27	44594.23
577.43	44477.20
577.59	44292.30
577.75	44149.53
577.92	44142.50
578.08	44488.90
578.24	44294.64
578.40	44549.76
578.56	44179.95
578.72	44254.85
578.88	44563.80
579.04	44004.41
579.21	44444.43
579.37	44439.75
579.53	44360.17
579.69	43969.30
579.85	44505.29
580.01	44332.09
580.17	44011.43
580.33	44474.86
580.49	44491.24
580.65	44470.18
580.82	44306.34
580.98	44479.54
581.14	44311.02
581.30	44673.81
581.46	44783.81
581.62	44488.90
581.78	44374.22
581.94	44416.35
582.10	44734.66
582.26	44184.63
582.42	44514.65
582.58	44348.47
582.74	43945.90
582.90	44507.63
583.06	44741.68
583.22	44589.55
583.38	44978.07
583.54	44673.81
583.70	44641.04
583.86	44624.65
584.02	44147.18
584.18	44339.11
584.34	44500.61
584.50	44418.69
584.66	44296.98
584.82	44208.04
584.98	44528.69
585.14	44603.59
585.30	44336.77
585.46	44421.03
585.62	44208.04
585.78	44287.62
585.94	43920.15
586.10	44528.69
586.26	44158.89
586.42	44669.12
586.58	44470.18
586.74	44474.86
586.90	44444.43
587.06	44425.71
587.22	44570.82
587.38	44023.14
587.54	44680.83
587.70	44673.81
587.86	44594.23
588.02	44666.78
588.18	44870.41
588.34	44765.09
588.49	44194.00
588.65	44238.47
588.81	44673.81
588.97	44451.45
589.13	44311.02
589.29	44931.26
589.45	44776.79
589.61	44814.24
589.77	44870.41
589.93	44629.34
590.08	44886.79
590.24	44554.44
590.40	44849.35
590.56	44753.38
590.72	44612.95
590.88	44776.79
591.04	44907.86
591.20	45050.63
591.35	45029.57
591.51	45036.59
591.67	44772.11
591.83	44708.91
591.99	44547.42
592.15	44919.56
592.31	44870.41
592.46	44828.28
592.62	44467.84
592.78	44741.68
592.94	44751.04
593.10	44512.31
593.26	44872.75
593.41	44802.53
593.57	44858.71
593.73	45130.21
593.89	44992.12
594.05	44645.72
594.20	44282.94
594.36	44797.85
594.52	45003.82
594.68	44715.93
594.84	44858.71
594.99	45186.38
595.15	44994.46
595.31	45062.33
595.47	45034.25
595.62	45111.49
595.78	44516.99
595.94	45188.72
596.10	44809.56
596.25	44720.62
596.41	45139.57
596.57	44975.73
596.73	44947.65
596.88	44465.50
597.04	44713.59
597.20	45099.78
597.36	44673.81
597.51	45132.55
597.67	44699.55
597.83	45095.10
597.99	45514.06
598.14	45261.28
598.30	45186.38
598.46	44877.43
598.61	44968.71
598.77	44612.95
598.93	44734.66
599.09	45141.91
599.24	45289.37
599.40	45151.27
599.56	45579.59
599.71	44989.78
599.87	44896.16
600.03	44933.60
600.18	44992.12
600.34	44823.60
600.50	45001.48
600.65	44872.75
600.81	45537.46
600.97	45287.03
601.12	45741.09
601.28	45244.90
601.44	45167.66
601.59	44760.40
601.75	44619.97
601.91	45373.63
602.06	44928.92
602.22	45160.64
602.37	44701.89
602.53	45158.30
602.69	44746.36
602.84	45160.64
603.00	44776.79
603.16	44900.84
603.31	44971.05
603.47	44662.10
603.62	44498.26
603.78	44830.62
603.94	45006.16
604.09	45310.43
604.25	44858.71
604.40	45415.76
604.56	45385.33
604.71	45125.53
604.87	44671.46
605.03	44945.31
605.18	44655.08
605.34	44837.64
605.49	44460.82
605.65	44802.53
605.80	44746.36
605.96	44758.06
606.12	45031.91
606.27	45076.38
606.43	44561.46
606.58	45315.11
606.74	44547.42
606.89	44863.39
607.05	44584.86
607.20	44428.05
607.36	44772.11
607.51	45205.11
607.67	45127.87
607.82	44652.74
607.98	44428.05
608.13	44746.36
608.29	44521.67
608.44	44388.26
608.60	43899.09
608.75	44341.45
608.91	44322.72
609.06	44362.51
609.22	45284.68
609.37	44247.83
609.53	44133.14
609.68	44804.88
609.84	44470.18
609.99	44329.75
610.15	44353.15
610.30	44406.98
610.46	43995.05
610.61	44194.00
610.76	44619.97
610.92	44212.72
611.07	44641.04
611.23	44081.65
611.38	44844.66
611.54	44025.48
611.69	44095.69
611.84	44247.83
612.00	43964.62
612.15	44044.20
612.31	44292.30
612.46	44442.09
612.62	44322.72
612.77	44453.79
612.92	44219.74
613.08	44186.97
613.23	44133.14
613.39	44147.18
613.54	44098.03
613.69	44414.01
613.85	43875.68
614.00	44126.12
614.15	44378.90
614.31	44224.42
614.46	44364.85
614.62	44030.16
614.77	44114.42
614.92	44076.97
615.08	43934.20
615.23	43920.15
615.38	44186.97
615.54	43386.51
615.69	43697.80
615.84	43693.12
616.00	43908.45
616.15	43962.28
616.30	44161.23
616.46	43861.64
616.61	43503.54
616.76	43445.02
616.92	43363.11
617.07	43470.77
617.22	43159.48
617.37	43739.93
617.53	43714.19
617.68	43550.35
617.83	43812.49
617.99	43608.86
618.14	44114.42
618.29	43587.80
618.45	43393.53
618.60	43449.70
618.75	43328.00
618.90	43618.22
619.06	43400.55
619.21	43601.84
619.36	43250.76
619.51	43421.62
619.67	43215.65
619.82	43725.89
619.97	43323.32
620.12	42485.40
620.28	42892.66
620.43	42862.23
620.58	43229.69
620.73	42859.89
620.89	42937.13
621.04	42925.42
621.19	42866.91
621.34	42909.04
621.49	42862.23
621.65	42682.01
621.80	43086.92
621.95	42831.80
622.10	42885.64
622.25	42806.06
622.41	42614.13
622.56	42616.47
622.71	43002.66
622.86	43082.24
623.01	42885.64
623.16	42740.52
623.32	42895.00
623.47	43159.48
623.62	42761.59
623.77	42827.12
623.92	42672.65
624.07	42600.09
624.23	42471.36
624.38	42342.63
624.53	42218.58
624.68	42431.57
624.83	42305.18
624.98	42469.02
625.13	42113.26
625.29	42199.86
625.44	42553.28
625.59	42232.63
625.74	42183.48
625.89	41930.70
626.04	41628.77
626.19	41900.27
626.34	41890.91
626.49	42340.29
626.65	41895.59
626.80	42190.50
626.95	41605.36
627.10	42045.38
627.25	41698.98
627.40	42185.82
627.55	41839.42
627.70	41722.39
627.85	41074.06
628.00	41799.63
628.15	42241.99
628.30	42029.00
628.45	42029.00
628.60	41684.94
628.76	42057.09
628.91	41860.48
629.06	41921.34
629.21	41743.45
629.36	41015.55
629.51	41460.25
629.66	41633.45
629.81	41153.64
629.96	41680.26
630.11	41523.44
630.26	41294.07
630.41	41296.41
630.56	41055.34
630.71	41865.16
630.86	41287.05
631.01	40886.82
631.16	41827.71
631.31	40961.72
631.46	40814.26
631.61	41394.71
631.76	41200.45
631.91	41488.34
632.06	41041.29
632.21	40980.44
632.36	41354.93
632.51	41177.04
632.66	41205.13
632.81	40744.05
632.96	40928.95
633.10	40472.54
633.25	40669.15
633.40	41067.04
633.55	41041.29
633.70	41291.73
633.85	40987.46
634.00	41155.98
634.15	40580.21
634.30	40849.37
634.45	40023.16
634.60	40994.48
634.75	40727.66
634.90	40685.53
635.05	40718.30
635.19	40313.39
635.34	41333.86
635.49	40589.57
635.64	40495.95
635.79	40376.58
635.94	40575.53
636.09	40580.21
636.24	40271.26
636.39	40479.57
636.53	40086.36
636.68	40182.32
636.83	40179.98
636.98	40664.47
637.13	40076.99
637.28	40086.36
637.43	40568.51
637.57	40367.22
637.72	39999.76
637.87	40570.85
638.02	40271.26
638.17	40149.55
638.32	39847.62
638.46	39732.93
638.61	39955.29
638.76	39875.71
638.91	39992.73
639.06	39875.71
639.20	39838.26
639.35	40287.64
639.50	39903.79
639.65	39763.36
639.80	39915.50
639.94	39466.11
640.09	39580.80
640.24	39838.26
640.39	39580.80
640.54	39416.96
640.68	39454.41
640.83	39716.55
640.98	39576.12
641.13	39344.41
641.27	39681.44
641.42	39629.95
641.57	39763.36
641.72	39573.78
641.86	39613.57
642.01	39210.99
642.16	39419.30
642.31	39140.78
642.45	39447.39
642.60	38651.61
642.75	39016.73
642.90	39370.15
643.04	39253.12
643.19	38934.81
643.34	39461.43
643.48	39522.29
643.63	39023.75
643.78	39290.57
643.93	39047.16
644.07	38813.10
644.22	38724.16
644.37	38895.02
644.51	38951.20
644.66	39136.10
644.81	39103.33
644.95	39480.16
645.10	38930.13
645.25	39377.17
645.39	39096.31
645.54	39086.95
645.69	38562.67
645.83	38565.01
645.98	39044.82
646.13	38857.57
646.27	38824.81
646.42	38763.95
646.57	39267.17
646.71	38635.22
646.86	38878.64
647.00	38733.53
647.15	38733.53
647.30	38375.42
647.44	38742.89
647.59	38663.31
647.74	38251.38
647.88	38230.31
648.03	38541.60
648.17	38302.87
648.32	37907.32
648.47	38183.50
648.61	38066.47
648.76	38670.33
648.90	38106.26
649.05	38272.44
649.20	38096.90
649.34	38307.55
649.49	38169.46
649.63	38382.45
649.78	38124.99
649.92	38361.38
650.07	38621.18
650.21	37666.24
650.36	37979.87
650.51	38050.09
650.65	38330.95
650.80	38789.70
650.94	38469.04
651.09	38263.08
651.23	38345.00
651.38	37909.66
651.52	37654.54
651.67	38115.62
651.81	38075.84
651.96	37488.36
652.10	37687.31
652.25	37579.64
652.39	37661.56
652.54	37553.90
652.68	37996.26
652.83	38134.35
652.97	37736.46
653.12	37673.26
653.26	37895.61
653.41	37869.87
653.55	37106.85
653.70	37855.82
653.84	37741.14
653.99	37626.45
654.13	37755.18
654.27	37874.55
654.42	37275.37
654.56	37521.13
654.71	37448.57
654.85	37530.49
655.00	37427.51
655.14	37237.92
655.29	37081.11
655.43	36793.22
655.57	36512.36
655.72	36788.54
655.86	36788.54
656.01	36847.05
656.15	37139.62
656.30	37048.34
656.44	36584.91
656.58	36823.65
656.73	36830.67
656.87	36631.72
657.01	36678.54
657.16	37338.57
657.30	36666.83
657.45	36821.31
657.59	37027.28
657.73	36699.60
657.88	36875.14
658.02	36730.03
658.16	36931.31
658.31	36769.82
658.45	36823.65
658.60	36458.52
658.74	36582.57
658.88	36479.59
659.03	36680.88
659.17	35950.63
659.31	36402.35
659.46	36180.00
659.60	36137.87
659.74	36285.33
659.89	35585.50
660.03	36058.29
660.17	36357.88
660.32	36257.24
660.46	36788.54
660.60	36084.04
660.74	35929.56
660.89	35676.79
661.03	35747.00
661.17	35653.38
661.32	35337.41
661.46	35658.06
661.60	35026.12
661.74	35512.95
661.89	35707.21
662.03	35112.72
662.17	36084.04
662.31	35466.14
662.46	35351.45
662.60	35688.49
662.74	35566.78
662.88	35330.39
663.03	35435.71
663.17	35814.88
663.31	35068.25
663.45	35304.64
663.60	34902.07
663.74	34689.08
663.88	34696.10
664.02	35051.86
664.17	34815.47
664.31	34829.51
664.45	34731.21
664.59	34359.06
664.73	34836.53
664.88	34918.45
665.02	34403.53
665.16	34206.93
665.30	34419.92
665.44	34506.52
665.59	34031.39
665.73	34326.30
665.87	34066.50
666.01	34277.15
666.15	34029.05
666.29	33766.91
666.44	34455.03
666.58	34068.84
666.72	34057.14
666.86	33965.85
667.00	34270.12
667.14	33694.35
667.28	34087.56
667.43	33518.81
667.57	33684.99
667.71	33170.07
667.85	33830.10
667.99	33577.33
668.13	33687.33
668.27	33060.07
668.41	33401.79
668.56	33036.66
668.70	33249.65
668.84	33181.77
668.98	32760.48
669.12	32914.95
669.26	33099.86
669.40	32903.25
669.54	32886.87
669.68	33230.93
669.82	32947.72
669.96	32957.08
670.10	32425.78
670.25	32554.51
670.39	32531.11
670.53	32606.00
670.67	32493.66
670.81	32540.47
670.95	32493.66
671.09	32470.25
671.23	32360.25
671.37	32479.61
671.51	32238.54
671.65	32025.55
671.79	32105.13
671.93	31922.57
672.07	31850.01
672.21	32208.11
672.35	32016.19
672.49	31985.76
672.63	32275.99
672.77	31440.42
672.91	31847.67
673.05	31409.99
673.19	31117.42
673.33	31388.92
673.47	31192.32
673.61	31229.77
673.75	31058.91
673.89	31250.83
674.03	30829.54
674.17	31019.12
674.31	30885.71
674.45	31304.67
674.59	30866.98
674.73	30857.62
674.87	30670.38
675.01	30920.82
675.15	30497.18
675.29	30536.97
675.43	30728.89
675.56	30752.30
675.70	30263.13
675.84	30377.81
675.98	28943.06
676.12	30618.89
676.26	30209.29
676.40	29457.98
676.54	29380.74
676.68	29764.59
676.82	29364.36
676.96	29563.31
677.10	29549.26
677.23	29792.68
677.37	29282.44
677.51	29127.97
677.65	29305.85
677.79	28980.51
677.93	29015.62
678.07	28987.53
678.21	28627.09
678.34	28807.31
678.48	28514.75
678.62	28486.66
678.76	28463.25
678.90	28489.00
679.04	28231.54
679.18	28615.39
679.31	27793.86
679.45	27630.02
679.59	27555.13
679.73	27269.58
679.87	27349.16
680.00	27599.60
680.14	27225.11
680.28	27653.43
680.42	27534.06
680.56	27253.20
680.70	26925.52
680.83	27150.21
680.97	26979.36
681.11	26934.88
681.25	26728.92
681.39	26810.84
681.52	26735.94
681.66	26731.26
681.80	26321.66
681.94	26532.31
682.07	26246.77
682.21	26455.08
682.35	26122.72
682.49	26054.84
682.62	25930.80
682.76	26064.21
682.90	25898.03
683.04	25949.52
683.17	25975.27
683.31	25628.87
683.45	25872.28
683.59	25668.66
683.72	25348.00
683.86	25390.13
684.00	25041.39
684.13	25069.48
684.27	25418.22
684.41	25233.32
684.55	24929.05
684.68	24765.21
684.82	24716.06
684.96	24737.12
685.09	24692.65
685.23	24109.86
685.37	24116.88
685.50	24095.82
685.64	24416.47
685.78	24053.69
685.91	24381.36
686.05	24194.12
686.19	23648.77
686.32	23737.71
686.46	23365.57
686.60	23026.19
686.73	23667.50
686.87	23204.07
687.01	23440.47
687.14	23250.88
687.28	23054.28
687.42	23021.51
687.55	22768.73
687.69	22658.73
687.82	22993.42
687.96	23000.44
688.10	22850.65
688.23	22637.66
688.37	22204.66
688.50	21876.99
688.64	22441.06
688.78	22036.14
688.91	22085.30
689.05	22300.62
689.18	22005.72
689.32	21839.54
689.46	21834.86
689.59	22192.96
689.73	22073.59
689.86	21738.90
690.00	21390.16
690.13	21748.26
690.27	21443.99
690.41	21523.57
690.54	21242.70
690.68	21341.00
690.81	21261.43
690.95	20950.14
691.08	20596.71
691.22	21165.46
691.35	20751.19
691.49	21001.63
691.62	20891.62
691.76	20879.92
691.89	20657.57
692.03	20343.94
692.16	20294.79
692.30	20318.19
692.43	20128.61
692.57	19983.49
692.70	20114.56
692.84	20203.50
692.97	19992.86
693.11	19814.98
693.24	19737.74
693.38	19585.60
693.51	19594.96
693.65	19260.27
693.78	19484.96
693.92	19480.28
694.05	19447.51
694.19	19183.03
694.32	18937.27
694.45	18897.49
694.59	18857.70
694.72	18731.31
694.86	18754.71
694.99	18614.28
695.13	18569.81
695.26	18394.27
695.39	18279.58
695.53	18331.08
695.66	18155.54
695.80	18429.38
695.93	18235.11
696.07	17841.90
696.20	17968.29
696.33	18136.81
696.47	17951.91
696.60	17703.81
696.73	18043.19
696.87	17769.35
697.00	17799.77
697.14	17600.83
697.27	17305.92
697.40	17418.27
697.54	17422.95
697.67	17144.42
697.80	17125.70
697.94	16807.39
698.07	16929.09
698.21	16807.39
698.34	16910.37
698.47	16994.63
698.61	16783.98
698.74	16566.31
698.87	16758.24
699.01	16449.28
699.14	16290.13
699.27	16355.66
699.40	16538.23
699.54	15932.03
699.67	15983.52
699.80	16166.08
699.94	15529.45
700.07	16079.48
700.20	15969.48
700.34	15449.88
700.47	15716.70
700.60	15838.41
700.73	16205.87
700.87	15882.88
701.00	15686.27
701.13	15358.60
701.26	15147.95
701.40	15389.02
701.53	14972.41
701.66	15084.75
701.79	15159.65
701.93	15019.22
702.06	14934.96
702.19	14939.64
702.32	14960.70
702.46	14747.72
702.59	14590.90
702.72	14305.35
702.85	14565.15
702.99	14736.01
703.12	14485.58
703.25	14298.33
703.38	14537.07
703.51	14319.40
703.65	14141.52
703.78	14003.43
703.91	14019.81
704.04	14108.75
704.17	13893.42
704.31	13809.16
704.44	13745.97
704.57	13834.91
704.70	13540.00
704.83	13535.32
704.96	13678.09
705.10	13811.50
705.23	13893.42
>>>>>End Processed Spectral Data<<<<<
