SpectraSuite Data File
++++++++++++++++++++++++++++++++++++
Date: Fri Oct 25 11:33:51 EDT 2013
User: price-jones
Dark Spectrum Present: No
Reference Spectrum Present: No
Number of Sampled Component Spectra: 1
Spectrometers: USB2+H05261
Integration Time (usec): 100000 (USB2+H05261)
Spectra Averaged: 1 (USB2+H05261)
Boxcar Smoothing: 0 (USB2+H05261)
Correct for Electrical Dark: No (USB2+H05261)
Strobe/Lamp Enabled: No (USB2+H05261)
Correct for Detector Non-linearity: No (USB2+H05261)
Correct for Stray Light: No (USB2+H05261)
Number of Pixels in Processed Spectrum: 2048
>>>>>Begin Processed Spectral Data<<<<<
365.73	330.02
365.92	330.02
366.12	330.02
366.32	259.80
366.52	180.22
366.72	250.44
366.91	166.18
367.11	187.24
367.31	236.39
367.51	222.35
367.70	142.77
367.90	196.60
368.10	212.99
368.30	154.48
368.49	177.88
368.69	238.73
368.89	222.35
369.09	203.63
369.28	203.63
369.48	187.24
369.68	198.95
369.87	245.76
370.07	203.63
370.27	278.52
370.47	297.25
370.66	468.11
370.86	519.60
371.06	554.71
371.25	566.41
371.45	535.98
371.65	468.11
371.84	554.71
372.04	547.69
372.24	587.47
372.44	601.52
372.63	622.58
372.83	653.01
373.03	636.63
373.22	589.82
373.42	634.29
373.62	648.33
373.81	636.63
374.01	641.31
374.21	660.03
374.40	603.86
374.60	692.80
374.79	667.05
374.99	641.31
375.19	622.58
375.38	622.58
375.58	617.90
375.78	653.01
375.97	627.26
376.17	674.07
376.37	669.39
376.56	610.88
376.76	732.59
376.95	709.18
377.15	725.57
377.35	627.26
377.54	685.78
377.74	634.29
377.93	706.84
378.13	798.12
378.33	737.27
378.52	753.65
378.72	744.29
378.91	695.14
379.11	755.99
379.31	702.16
379.50	763.01
379.70	713.86
379.89	774.72
380.09	774.72
380.28	718.54
380.48	748.97
380.68	683.44
380.87	748.97
381.07	685.78
381.26	816.85
381.46	748.97
381.65	718.54
381.85	861.32
382.04	844.93
382.24	779.40
382.43	774.72
382.63	763.01
382.83	809.83
383.02	793.44
383.22	807.48
383.41	770.04
383.61	784.08
383.80	807.48
384.00	828.55
384.19	788.76
384.39	835.57
384.58	802.80
384.78	870.68
384.97	889.40
385.17	751.31
385.36	807.48
385.56	896.43
385.75	837.91
385.95	866.00
386.14	833.23
386.34	821.53
386.53	894.08
386.72	840.25
386.92	952.60
387.11	966.64
387.31	901.11
387.50	851.96
387.70	929.19
387.89	910.47
388.09	905.79
388.28	809.83
388.48	889.40
388.67	976.00
388.86	891.74
389.06	954.94
389.25	1067.28
389.45	999.41
389.64	929.19
389.84	990.05
390.03	1034.52
390.22	1020.47
390.42	966.64
390.61	954.94
390.81	990.05
391.00	1041.54
391.19	1001.75
391.39	952.60
391.58	1060.26
391.78	1025.15
391.97	992.39
392.16	1041.54
392.36	1137.50
392.55	1034.52
392.75	973.66
392.94	1102.39
393.13	1114.10
393.33	1043.88
393.52	1193.67
393.71	1083.67
393.91	1116.44
394.10	1071.97
394.29	1186.65
394.49	1130.48
394.68	1076.65
394.88	1158.57
395.07	1081.33
395.26	1163.25
395.46	1268.57
395.65	1142.18
395.84	1210.06
396.04	1245.16
396.23	1158.57
396.42	1254.53
396.62	1200.69
396.81	1268.57
397.00	1163.25
397.19	1167.93
397.39	1196.01
397.58	1291.98
397.77	1186.65
397.97	1359.85
398.16	1334.11
398.35	1317.72
398.55	1256.87
398.74	1343.47
398.93	1362.19
399.12	1320.06
399.32	1336.45
399.51	1324.74
399.70	1413.68
399.90	1371.55
400.09	1341.13
400.28	1437.09
400.47	1357.51
400.67	1420.71
400.86	1411.34
401.05	1399.64
401.24	1437.09
401.44	1486.24
401.63	1427.73
401.82	1481.56
402.01	1322.40
402.21	1416.02
402.40	1556.46
402.59	1540.07
402.78	1568.16
402.97	1465.18
403.17	1582.20
403.36	1540.07
403.55	1586.88
403.74	1563.48
403.93	1570.50
404.13	1556.46
404.32	1577.52
404.51	1689.87
404.70	1621.99
404.89	1631.35
405.09	1729.66
405.28	1689.87
405.47	1692.21
405.66	1689.87
405.85	1827.96
406.05	1760.08
406.24	1701.57
406.43	1687.53
406.62	1834.98
406.81	1837.32
407.00	1736.68
407.20	1753.06
407.39	1792.85
407.58	1877.11
407.77	1834.98
407.96	1874.77
408.15	1912.22
408.34	1851.36
408.54	1849.02
408.73	1832.64
408.92	1858.39
409.11	1959.03
409.30	1930.94
409.49	1966.05
409.68	2026.90
409.87	1961.37
410.07	2073.71
410.26	2022.22
410.45	2071.37
410.64	2127.55
410.83	2111.16
411.02	2160.31
411.21	2181.38
411.40	2085.42
411.59	2146.27
411.78	2172.02
411.98	2174.36
412.17	2214.15
412.36	2253.94
412.55	2312.45
412.74	2331.17
412.93	2385.01
413.12	2352.24
413.31	2394.37
413.50	2324.15
413.69	2417.77
413.88	2427.14
414.07	2328.83
414.26	2530.12
414.45	2504.37
414.64	2520.76
414.83	2607.36
415.02	2722.04
415.22	2614.38
415.41	2626.08
415.60	2677.57
415.79	2693.96
415.98	2722.04
416.17	2633.10
416.36	2729.06
416.55	2738.43
416.74	2775.88
416.93	2806.30
417.12	2825.03
417.31	2827.37
417.50	2918.65
417.69	2925.67
417.88	2958.44
418.07	2878.86
418.26	2937.37
418.45	3033.33
418.64	3091.85
418.83	3038.02
419.02	3033.33
419.21	2967.80
419.39	3145.68
419.58	3082.49
419.77	3117.59
419.96	3131.64
420.15	3141.00
420.34	3171.43
420.53	3169.09
420.72	3377.39
420.91	3166.74
421.10	3318.88
421.29	3344.63
421.48	3155.04
421.67	3222.92
421.86	3162.06
422.05	3290.79
422.24	3297.81
422.43	3281.43
422.61	3386.76
422.80	3288.45
422.99	3265.05
423.18	3372.71
423.37	3520.17
423.56	3557.61
423.75	3442.93
423.94	3272.07
424.13	3253.34
424.32	3325.90
424.50	3534.21
424.69	3562.30
424.88	3463.99
425.07	3363.35
425.26	3410.16
425.45	3391.44
425.64	3267.39
425.83	3363.35
426.01	3452.29
426.20	3419.52
426.39	3557.61
426.58	3475.70
426.77	3379.73
426.96	3576.34
427.15	3482.72
427.33	3578.68
427.52	3548.25
427.71	3588.04
427.90	3435.91
428.09	3623.15
428.28	3681.66
428.46	3669.96
428.65	3592.72
428.84	3812.73
429.03	3927.42
429.22	3728.47
429.40	3714.43
429.59	3740.18
429.78	3676.98
429.97	3522.51
430.16	3810.39
430.34	3803.37
430.53	3934.44
430.72	3854.86
430.91	3871.25
431.10	3927.42
431.28	4037.42
431.47	4018.70
431.66	4014.02
431.85	3896.99
432.03	4004.66
432.22	4074.87
432.41	4121.68
432.60	4166.15
432.79	4100.62
432.97	4177.86
433.16	4079.55
433.35	4124.02
433.54	4063.17
433.72	4187.22
433.91	4002.32
434.10	4198.92
434.28	4135.73
434.47	4210.62
434.66	4372.12
434.85	4292.54
435.03	4369.78
435.22	4315.95
435.41	4585.11
435.59	4308.93
435.78	4337.01
435.97	4259.78
436.16	4383.82
436.34	4266.80
436.53	4496.17
436.72	4582.77
436.90	4358.08
437.09	4622.56
437.28	4332.33
437.46	4608.51
437.65	4535.96
437.84	4498.51
438.02	4430.63
438.21	4568.73
438.40	4564.04
438.58	4795.76
438.77	4873.00
438.96	4739.58
439.14	4849.59
439.33	4971.30
439.52	4880.02
439.70	4833.21
439.89	4938.53
440.08	5074.28
440.26	5076.62
440.45	5008.75
440.63	5224.08
440.82	5228.76
441.01	5315.36
441.19	5284.93
441.38	5184.29
441.57	5231.10
441.75	5238.12
441.94	5235.78
442.12	5390.25
442.31	5376.21
442.50	5451.11
442.68	5439.40
442.87	5490.90
443.05	5523.66
443.24	5619.63
443.43	5488.56
443.61	5666.44
443.80	5650.05
443.98	5507.28
444.17	5270.89
444.35	5565.79
444.54	5624.31
444.73	5486.22
444.91	5488.56
445.10	5504.94
445.28	5673.46
445.47	5542.39
445.65	5666.44
445.84	5731.97
446.02	5760.06
446.21	5678.14
446.39	5638.35
446.58	5734.31
446.77	5825.59
446.95	5521.32
447.14	5710.91
447.32	5762.40
447.51	5731.97
447.69	5509.62
447.88	5678.14
448.06	5685.16
448.25	5982.41
448.43	5687.50
448.62	5923.90
448.80	5696.86
448.99	5823.25
449.17	5872.40
449.36	5825.59
449.54	5994.11
449.73	5839.64
449.91	5846.66
450.10	6050.28
450.28	6169.65
450.46	6066.67
450.65	6087.73
450.83	6080.71
451.02	6057.31
451.20	6469.24
451.39	6200.08
451.57	6193.06
451.76	6183.70
451.94	6277.32
452.13	6352.21
452.31	6387.32
452.49	6277.32
452.68	6317.11
452.86	6324.13
453.05	6473.92
453.23	6349.87
453.42	6396.68
453.60	6452.86
453.78	6455.20
453.97	6153.27
454.15	6331.15
454.34	6244.55
454.52	6539.46
454.70	6644.78
454.89	6558.18
455.07	6459.88
455.26	6516.05
455.44	6729.04
455.62	6604.99
455.81	6871.81
455.99	6689.25
456.17	6635.42
456.36	6541.80
456.54	6806.28
456.73	6902.24
456.91	7009.90
457.09	6892.88
457.28	7059.06
457.46	6869.47
457.64	6977.14
457.83	7204.17
458.01	7012.24
458.19	7248.64
458.38	7101.19
458.56	7407.80
458.74	7037.99
458.93	7272.04
459.11	7279.07
459.29	7246.30
459.48	7258.00
459.66	7286.09
459.84	7318.86
460.03	7463.97
460.21	7311.83
460.39	7243.96
460.57	7478.01
460.76	7592.70
460.94	7524.82
461.12	7379.71
461.31	7461.63
461.49	7541.21
461.67	7623.12
461.85	7520.14
462.04	7620.78
462.22	8138.04
462.40	7674.62
462.59	7782.28
462.77	7702.70
462.95	8023.36
463.13	7674.62
463.32	7712.07
463.50	7929.74
463.68	7927.39
463.86	7747.17
464.05	7791.64
464.23	7873.56
464.41	7995.27
464.59	7887.61
464.78	8072.51
464.96	8042.08
465.14	7903.99
465.32	7955.48
465.50	8079.53
465.69	8079.53
465.87	8133.36
466.05	8163.79
466.23	8091.23
466.41	8032.72
466.60	8315.92
466.78	8168.47
466.96	8280.82
467.14	8156.77
467.32	8138.04
467.51	8318.26
467.69	8161.45
467.87	8334.65
468.05	8402.52
468.23	8383.80
468.41	8437.63
468.60	8411.89
468.78	8545.30
468.96	8402.52
469.14	8540.61
469.32	8823.82
469.50	8428.27
469.69	8744.24
469.87	8496.14
470.05	8720.84
470.23	8692.75
470.41	8802.75
470.59	8842.54
470.77	8807.44
470.95	8968.93
471.14	9151.49
471.32	8875.31
471.50	8821.48
471.68	8865.95
471.86	9050.85
472.04	9011.06
472.22	9312.99
472.40	8982.98
472.58	9118.73
472.77	9273.20
472.95	9214.69
473.13	9666.41
473.31	9163.20
473.49	9371.50
473.67	9217.03
473.85	9392.57
474.03	9783.44
474.21	9647.69
474.39	9605.56
474.57	9837.27
474.75	9769.40
474.93	9877.06
475.12	9909.83
475.30	10036.22
475.48	10022.17
475.66	10005.79
475.84	9877.06
476.02	10113.45
476.20	9975.36
476.38	10375.59
476.56	10541.77
476.74	10600.29
476.92	10417.72
477.10	10471.56
477.28	10633.05
477.46	10684.55
477.64	10747.74
477.82	11009.88
478.00	11140.95
478.18	11009.88
478.36	11232.23
478.54	11253.30
478.72	11391.39
478.90	11576.29
479.08	11494.37
479.26	11651.19
479.44	11609.06
479.62	11489.69
479.80	12044.40
479.98	12020.99
480.16	12252.70
480.34	11775.24
480.52	12091.21
480.70	12292.49
480.88	11793.96
481.06	12299.52
481.24	12266.75
481.41	12435.27
481.59	12973.59
481.77	12760.60
481.95	12865.92
482.13	12898.69
482.31	12915.08
482.49	13245.09
482.67	13057.85
482.85	13441.70
483.03	13352.76
483.21	13596.17
483.39	13551.70
483.57	13563.40
483.74	13734.26
483.92	13916.83
484.10	13778.73
484.28	14520.68
484.46	14307.69
484.64	14703.25
484.82	14572.18
485.00	14534.73
485.18	14738.35
485.35	14958.36
485.53	14824.95
485.71	14974.75
485.89	15463.92
486.07	15541.16
486.25	15178.37
486.43	15452.22
486.61	15604.35
486.78	15693.29
486.96	15648.82
487.14	16121.61
487.32	16107.57
487.50	16133.31
487.68	16252.68
487.85	16418.86
488.03	16898.67
488.21	16917.39
488.39	17156.13
488.57	17102.29
488.75	17242.73
488.92	17247.41
489.10	17591.47
489.28	17649.98
489.46	17554.02
489.64	17795.09
489.81	18288.95
489.99	18113.41
490.17	18106.38
490.35	18300.65
490.53	18246.82
490.70	18806.20
490.88	18600.24
491.06	19171.33
491.24	19066.00
491.41	18916.21
491.59	19136.22
491.77	18951.32
491.95	19068.34
492.13	19435.81
492.30	19616.03
492.48	19807.95
492.66	19840.72
492.84	19623.05
493.01	19936.68
493.19	20126.27
493.37	19983.49
493.54	20524.16
493.72	20631.82
493.90	20465.64
494.08	20716.08
494.25	20800.34
494.43	20800.34
494.61	21231.00
494.79	21207.59
494.96	21170.15
495.14	21345.69
495.32	21865.28
495.49	21656.98
495.67	21769.32
495.85	21593.78
496.02	22237.43
496.20	22202.32
496.38	22300.62
496.55	22438.72
496.73	22768.73
496.91	22504.25
497.09	22415.31
497.26	22979.38
497.44	22850.65
497.62	23122.15
497.79	23513.02
497.97	23140.88
498.14	23978.79
498.32	23765.80
498.50	23777.50
498.67	23786.86
498.85	23709.63
499.03	23803.25
499.20	24018.58
499.38	24159.01
499.56	24332.21
499.73	24372.00
499.91	24446.90
500.08	24673.93
500.26	24276.04
500.44	24606.05
500.61	24608.39
500.79	24755.85
500.97	24524.13
501.14	25296.51
501.32	25216.93
501.49	25291.83
501.67	24959.47
501.84	25352.68
502.02	25551.63
502.20	25720.15
502.37	25528.22
502.55	25722.49
502.72	25610.14
502.90	25891.01
503.07	25900.37
503.25	26181.23
503.43	25916.75
503.60	26508.91
503.78	26485.50
503.95	26244.43
504.13	26431.67
504.30	26803.82
504.48	26279.54
504.65	26480.82
504.83	26986.38
505.01	27257.88
505.18	27152.55
505.36	27260.22
505.53	27101.06
505.71	27297.67
505.88	27630.02
506.06	27054.25
506.23	27543.42
506.41	27536.40
506.58	27615.98
506.76	27913.23
506.93	27936.63
507.11	28276.01
507.28	27889.82
507.46	27868.76
507.63	28236.22
507.81	28243.24
507.98	28025.57
508.16	28446.87
508.33	28751.14
508.50	28746.46
508.68	28840.08
508.85	28851.78
509.03	29013.28
509.20	28898.59
509.38	29369.04
509.55	29383.09
509.73	29502.45
509.90	29214.57
510.08	29624.16
510.25	29001.58
510.42	29713.10
510.60	29795.02
510.77	29656.93
510.95	30033.75
511.12	29900.34
511.30	29717.78
511.47	30038.44
511.64	29984.60
511.82	29872.26
511.99	30326.32
512.17	30354.41
512.34	30340.36
512.51	30464.41
512.69	30864.64
512.86	30579.10
513.04	30892.73
513.21	30665.70
513.38	31218.07
513.56	30719.53
513.73	31164.23
513.90	30895.07
514.08	31136.15
514.25	31337.43
514.43	31510.63
514.60	31321.05
514.77	30981.67
514.95	31639.36
515.12	31297.64
515.29	31405.31
515.47	31807.88
515.64	31908.52
515.81	32030.23
515.99	32100.45
516.16	32189.39
516.33	32325.14
516.51	32334.50
516.68	32233.86
516.85	31983.42
517.03	32606.00
517.20	32627.07
517.37	32847.08
517.54	32704.31
517.72	32826.01
517.89	32659.84
518.06	32917.29
518.24	32570.90
518.41	32975.81
518.58	32723.03
518.75	32921.98
518.93	33720.10
519.10	33165.39
519.27	33249.65
519.45	33057.73
519.62	33029.64
519.79	33773.93
519.96	33633.50
520.14	33734.14
520.31	33560.94
520.48	33755.21
520.65	33715.42
520.83	34312.25
521.00	34174.16
521.17	34075.86
521.34	34068.84
521.52	34061.82
521.69	34256.08
521.86	34438.64
522.03	34572.05
522.20	34621.20
522.38	35257.83
522.55	35016.75
522.72	34675.04
522.89	34972.28
523.07	35269.53
523.24	35185.27
523.41	35194.64
523.58	35325.71
523.75	35473.16
523.92	35218.04
524.10	35920.20
524.27	35660.40
524.44	35529.33
524.61	35325.71
524.78	35531.67
524.96	35875.73
525.13	36229.15
525.30	35948.29
525.47	36172.98
525.64	36098.08
525.81	36570.87
525.98	36329.80
526.16	36158.94
526.33	35985.74
526.50	36554.49
526.67	36072.34
526.84	36563.85
527.01	36201.07
527.18	36364.90
527.36	36741.73
527.53	36706.62
527.70	37022.59
527.87	36973.44
528.04	36905.57
528.21	36809.61
528.38	37113.87
528.55	37043.66
528.72	37088.13
528.89	37163.03
529.07	37172.39
529.24	36985.15
529.41	37312.82
529.58	37329.20
529.75	37160.69
529.92	37205.16
530.09	37193.45
530.26	37549.21
530.43	37486.02
530.60	37862.85
530.77	37670.92
530.94	37762.20
531.11	37591.34
531.28	38251.38
531.46	37748.16
531.63	38209.25
531.80	38019.66
531.97	38387.13
532.14	38078.18
532.31	37965.83
532.48	38043.07
532.65	38403.51
532.82	38202.22
532.99	38127.33
533.16	38649.27
533.33	38742.89
533.50	38719.48
533.67	38817.78
533.84	38529.90
534.01	38424.57
534.18	38829.49
534.35	39264.83
534.52	38890.34
534.69	39267.17
534.86	39391.22
535.03	39016.73
535.20	39541.01
535.37	39173.55
535.54	39571.44
535.71	39459.09
535.88	39138.44
536.05	39468.45
536.22	39470.79
536.38	39456.75
536.55	39342.06
536.72	39545.69
536.89	39529.31
537.06	39674.42
537.23	39971.67
537.40	38916.09
537.57	39683.78
537.74	39999.76
537.91	40179.98
538.08	39924.86
538.25	39854.64
538.42	40002.10
538.59	40404.67
538.75	39997.41
538.92	40289.98
539.09	40404.67
539.26	40212.74
539.43	40194.02
539.60	40692.55
539.77	40353.18
539.94	40765.11
540.11	40561.48
540.28	40725.32
540.44	40704.26
540.61	40254.87
540.78	40444.46
540.95	40514.67
541.12	40690.21
541.29	40821.28
541.46	41003.85
541.62	40863.41
541.79	41060.02
541.96	40882.14
542.13	40790.86
542.30	40938.31
542.47	41380.67
542.63	41144.28
542.80	41303.43
542.97	42024.32
543.14	41546.85
543.31	41361.95
543.48	41684.94
543.64	42052.41
543.81	41656.85
543.98	42223.26
544.15	42029.00
544.32	42131.98
544.48	42206.88
544.65	41743.45
544.82	42431.57
544.99	42089.85
545.16	41888.57
545.32	41956.44
545.49	42487.74
545.66	42408.17
545.83	42499.45
546.00	42639.88
546.16	42279.44
546.33	42171.77
546.50	42340.29
546.67	42555.62
546.83	42295.82
547.00	42354.33
547.17	42590.73
547.34	42586.05
547.50	43023.73
547.67	43173.52
547.84	43049.47
548.00	43185.22
548.17	43304.59
548.34	43225.01
548.51	43185.22
548.67	43435.66
548.84	42909.04
549.01	43072.88
549.18	43278.85
549.34	43304.59
549.51	43487.15
549.68	43650.99
549.84	43370.13
550.01	43695.46
550.18	43220.33
550.34	43587.80
550.51	43707.16
550.68	43452.05
550.84	43264.80
551.01	43524.60
551.18	43037.77
551.34	43519.92
551.51	43555.03
551.68	43496.52
551.84	43316.29
552.01	43533.96
552.18	43768.02
552.34	43772.70
552.51	43934.20
552.68	43636.95
552.84	43620.56
553.01	44083.99
553.18	43768.02
553.34	44411.67
553.51	43821.85
553.67	43948.24
553.84	44322.72
554.01	43966.96
554.17	44133.14
554.34	44135.48
554.51	44201.02
554.67	44395.28
554.84	44486.56
555.00	44231.44
555.17	44781.47
555.33	44542.74
555.50	44502.95
555.67	44229.10
555.83	44552.10
556.00	44683.17
556.16	45090.42
556.33	44685.51
556.50	44912.54
556.66	44636.36
556.83	44624.65
556.99	44631.68
557.16	44762.75
557.32	44863.39
557.49	44924.24
557.65	44725.30
557.82	44837.64
557.98	45146.59
558.15	44739.34
558.32	45223.83
558.48	44814.24
558.65	44985.10
558.81	45324.47
558.98	44971.05
559.14	45113.83
559.31	45010.84
559.47	45088.08
559.64	45064.67
559.80	45067.02
559.97	45450.86
560.13	45230.85
560.30	44938.29
560.46	45881.52
560.63	45560.87
560.79	45368.94
560.96	45151.27
561.12	45998.55
561.29	45813.65
561.45	45701.30
561.61	45265.96
561.78	45654.49
561.94	45663.85
562.11	45600.66
562.27	45371.28
562.44	45687.26
562.60	45680.24
562.77	45338.52
562.93	45659.17
563.10	45935.35
563.26	45914.29
563.42	45895.56
563.59	45708.32
563.75	45764.49
563.92	45745.77
564.08	45696.62
564.24	45925.99
564.41	45890.88
564.57	46089.83
564.74	45656.83
564.90	45682.58
565.07	45830.03
565.23	45865.14
565.39	45956.42
565.56	46206.86
565.72	46024.29
565.88	45757.47
566.05	46248.99
566.21	45780.88
566.38	46265.37
566.54	45794.92
566.70	46113.23
566.87	46543.89
567.03	46183.45
567.19	46202.18
567.36	46183.45
567.52	46153.02
567.68	46887.95
567.85	46302.82
568.01	46410.48
568.17	46178.77
568.34	46415.16
568.50	46431.55
568.66	45865.14
568.83	46279.41
568.99	46092.17
569.15	46443.25
569.32	45773.86
569.48	46469.00
569.64	46866.89
569.81	46143.66
569.97	46534.53
570.13	46674.96
570.30	46113.23
570.46	46637.51
570.62	46773.27
570.78	46564.96
570.95	46358.99
571.11	46784.97
571.27	46492.40
571.43	46291.12
571.60	46485.38
571.76	46153.02
571.92	46426.87
572.09	46181.11
572.25	46389.42
572.41	46571.98
572.57	46373.03
572.74	46930.08
572.90	46443.25
573.06	46852.84
573.22	46822.42
573.38	47051.79
573.55	46932.42
573.71	46759.22
573.87	46836.46
574.03	46649.22
574.20	47236.69
574.36	46742.84
574.52	47150.09
574.68	46644.54
574.84	46691.35
575.01	46799.01
575.17	46775.61
575.33	46794.33
575.49	47058.81
575.65	46806.03
575.82	46845.82
575.98	46679.64
576.14	47318.61
576.30	46974.55
576.46	46518.15
576.62	46443.25
576.79	47288.18
576.95	46707.73
577.11	46335.59
577.27	46597.73
577.43	46684.33
577.59	46684.33
577.75	46780.29
577.92	46452.61
578.08	47068.17
578.24	46796.67
578.40	47302.23
578.56	47213.29
578.72	46890.29
578.88	47239.03
579.04	47281.16
579.21	46876.25
579.37	46614.11
579.53	47091.58
579.69	46937.10
579.85	46656.24
580.01	46995.62
580.17	47241.37
580.33	47054.13
580.49	47030.72
580.65	47143.07
580.82	47400.53
580.98	46958.17
581.14	46719.43
581.30	47091.58
581.46	46909.02
581.62	46869.23
581.78	47014.34
581.94	47136.05
582.10	46841.14
582.26	47145.41
582.42	46976.89
582.58	47283.50
582.74	46869.23
582.90	46845.82
583.06	47585.43
583.22	47009.66
583.38	47119.66
583.54	47178.18
583.70	47213.29
583.86	47278.82
584.02	47000.30
584.18	47419.25
584.34	47447.34
584.50	47140.73
584.66	47166.48
584.82	47484.79
584.98	47297.55
585.14	47435.64
585.30	46869.23
585.46	47016.68
585.62	47124.35
585.78	47168.82
585.94	46742.84
586.10	47400.53
586.26	47327.97
586.42	47222.65
586.58	47075.19
586.74	47117.32
586.90	46845.82
587.06	47157.11
587.22	47274.14
587.38	47313.93
587.54	47290.52
587.70	47693.10
587.86	47608.84
588.02	47468.40
588.18	47150.09
588.34	47342.02
588.49	47374.78
588.65	47159.45
588.81	47351.38
588.97	47393.51
589.13	47583.09
589.29	47199.24
589.45	47501.17
589.61	47262.44
589.77	47384.15
589.93	47585.43
590.08	47555.00
590.24	47693.10
590.40	48439.73
590.56	47943.53
590.72	47372.44
590.88	47339.68
591.04	47313.93
591.20	47744.59
591.35	48006.73
591.51	48098.01
591.67	47452.02
591.83	47765.65
591.99	47646.29
592.15	47625.22
592.31	47276.48
592.46	47372.44
592.62	47669.69
592.78	47976.30
592.94	47894.38
593.10	48013.75
593.26	48090.99
593.41	48341.42
593.57	47915.45
593.73	47725.86
593.89	48322.70
594.05	48156.52
594.20	47419.25
594.36	47924.81
594.52	48121.41
594.68	47779.70
594.84	47910.77
594.99	48011.41
595.15	48161.20
595.31	47985.66
595.47	48086.31
595.62	48027.79
595.78	47814.80
595.94	47789.06
596.10	47943.53
596.25	47751.61
596.41	47995.03
596.57	47735.23
596.73	47653.31
596.88	47627.56
597.04	48034.81
597.20	48158.86
597.36	48041.84
597.51	47817.14
597.67	47765.65
597.83	47749.27
597.99	48112.05
598.14	47882.68
598.30	47976.30
598.46	47873.32
598.61	48727.61
598.77	47929.49
598.93	48088.65
599.09	48343.77
599.24	48472.49
599.40	48069.92
599.56	48301.64
599.71	48629.31
599.87	48142.48
600.03	48493.56
600.18	47913.11
600.34	47798.42
600.50	48463.13
600.65	47861.61
600.81	48528.67
600.97	48112.05
601.12	48549.73
601.28	48004.39
601.44	47971.62
601.59	48154.18
601.75	48095.67
601.91	48367.17
602.06	48149.50
602.22	48306.32
602.37	48130.78
602.53	48130.78
602.69	48123.75
602.84	47927.15
603.00	48095.67
603.16	48102.69
603.31	47662.67
603.47	48282.91
603.62	48275.89
603.78	48554.41
603.94	48020.77
604.09	48226.74
604.25	47934.17
604.40	47931.83
604.56	48217.38
604.71	48353.13
604.87	47578.41
605.03	48355.47
605.18	48210.35
605.34	48264.19
605.49	47765.65
605.65	47791.40
605.80	48002.05
605.96	47999.71
606.12	47751.61
606.27	47824.17
606.43	47875.66
606.58	48081.63
606.74	47966.94
606.89	47847.57
607.05	48292.27
607.20	47917.79
607.36	47927.15
607.51	48135.46
607.67	47641.60
607.82	47566.71
607.98	47917.79
608.13	47948.21
608.29	47959.92
608.44	47997.37
608.60	47587.77
608.75	47571.39
608.91	48039.50
609.06	47519.90
609.22	48179.93
609.37	47491.81
609.53	47791.40
609.68	47772.67
609.84	47817.14
609.99	47690.76
610.15	47973.96
610.30	48088.65
610.46	47784.38
610.61	48140.14
610.76	47760.97
610.92	47540.96
611.07	47540.96
611.23	47629.90
611.38	47760.97
611.54	47440.32
611.69	47915.45
611.84	47770.33
612.00	47536.28
612.15	47702.46
612.31	47863.96
612.46	47814.80
612.62	47732.89
612.77	47576.07
612.92	47662.67
613.08	47384.15
613.23	47669.69
613.39	47753.95
613.54	47508.19
613.69	47430.96
613.85	47934.17
614.00	47208.61
614.15	47945.87
614.31	47447.34
614.46	47711.82
614.62	47122.01
614.77	47304.57
614.92	47323.29
615.08	47400.53
615.23	46997.96
615.38	47477.77
615.54	47515.22
615.69	47665.01
615.84	47468.40
616.00	47365.42
616.15	46986.25
616.30	47505.85
616.46	47625.22
616.61	47185.20
616.76	47372.44
616.92	47555.00
617.07	47445.00
617.22	47262.44
617.37	46962.85
617.53	47026.04
617.68	46960.51
617.83	47213.29
617.99	47470.75
618.14	47463.72
618.29	47100.94
618.45	46843.48
618.60	46576.66
618.75	46499.42
618.90	46705.39
619.06	47224.99
619.21	47161.79
619.36	47318.61
619.51	46490.06
619.67	46579.00
619.82	46717.09
619.97	46951.15
620.12	47426.28
620.28	46852.84
620.43	46923.06
620.58	46822.42
620.73	46756.88
620.89	46967.53
621.04	47091.58
621.19	46445.59
621.34	46595.38
621.49	46141.32
621.65	46670.28
621.80	46997.96
621.95	46368.35
622.10	46981.57
622.25	46754.54
622.41	46745.18
622.56	46417.50
622.71	46838.80
622.86	46429.21
623.01	46571.98
623.16	46515.81
623.32	46450.27
623.47	46674.96
623.62	46335.59
623.77	46113.23
623.92	47026.04
624.07	46586.02
624.23	46490.06
624.38	46616.45
624.53	46396.44
624.68	45689.60
624.83	46204.52
624.98	46307.50
625.13	45638.11
625.29	46101.53
625.44	46122.60
625.59	46064.08
625.74	46239.62
625.89	45823.01
626.04	45708.32
626.19	46021.95
626.34	45921.31
626.49	45956.42
626.65	45675.55
626.80	45645.13
626.95	45422.78
627.10	45537.46
627.25	46085.15
627.40	45773.86
627.55	45811.31
627.70	45390.01
627.85	46251.33
628.00	45762.15
628.15	45897.91
628.30	45481.29
628.45	45359.58
628.60	44823.60
628.76	45666.19
628.91	45375.97
629.06	45481.29
629.21	45118.51
629.36	45118.51
629.51	45284.68
629.66	45315.11
629.81	45111.49
629.96	45390.01
630.11	45265.96
630.26	45488.31
630.41	45029.57
630.56	45476.61
630.71	44999.14
630.86	44938.29
631.01	44863.39
631.16	44889.13
631.31	44877.43
631.46	45099.78
631.61	45551.51
631.76	44947.65
631.91	44851.69
632.06	45443.84
632.21	44980.42
632.36	45120.85
632.51	44762.75
632.66	45226.17
632.81	44849.35
632.96	45214.47
633.10	44699.55
633.25	44683.17
633.40	44996.80
633.55	44664.44
633.70	44847.00
633.85	44839.98
634.00	44985.10
634.15	44289.96
634.30	44732.32
634.45	44451.45
634.60	44589.55
634.75	44512.31
634.90	44601.25
635.05	44598.91
635.19	44767.43
635.34	44325.07
635.49	44617.63
635.64	44725.30
635.79	44547.42
635.94	44254.85
636.09	44718.28
636.24	44018.46
636.39	44549.76
636.53	44025.48
636.68	43798.44
636.83	44067.61
636.98	44327.41
637.13	44236.12
637.28	43873.34
637.43	43950.58
637.57	44189.31
637.72	43662.69
637.87	43779.72
638.02	44023.14
638.17	43758.66
638.32	43976.33
638.46	43852.28
638.61	43791.42
638.76	43676.74
638.91	43545.67
639.06	43599.50
639.20	43555.03
639.35	43625.25
639.50	43686.10
639.65	43833.55
639.80	43728.23
639.94	44102.71
640.09	44009.09
640.24	43896.75
640.39	43311.61
640.54	42918.40
640.68	43292.89
640.83	43262.46
640.98	43316.29
641.13	43042.45
641.27	43878.02
641.42	43199.27
641.57	43313.95
641.72	43449.70
641.86	43349.06
642.01	43227.35
642.16	43414.60
642.31	42796.70
642.45	43302.25
642.60	42752.23
642.75	43103.31
642.90	43737.59
643.04	43229.69
643.19	43299.91
643.34	42965.21
643.48	42576.69
643.63	43061.18
643.78	43147.78
643.93	43468.43
644.07	43271.82
644.22	43302.25
644.37	42883.30
644.51	43082.24
644.66	43285.87
644.81	42817.76
644.95	43166.50
645.10	42642.22
645.25	42625.84
645.39	42639.88
645.54	42630.52
645.69	42635.20
645.83	42499.45
645.98	42153.05
646.13	42752.23
646.27	42555.62
646.42	42021.98
646.57	42424.55
646.71	42632.86
646.86	42478.38
647.00	42649.24
647.15	42419.87
647.30	42499.45
647.44	42932.45
647.59	42759.25
647.74	42249.01
647.88	42595.41
648.03	42494.77
648.17	42260.71
648.32	42913.72
648.47	42817.76
648.61	42085.17
648.76	42136.66
648.90	41979.85
649.05	42155.39
649.20	41998.57
649.34	42295.82
649.49	41855.80
649.63	42529.87
649.78	42349.65
649.92	42436.25
650.07	42712.44
650.21	42232.63
650.36	42127.30
650.51	42021.98
650.65	42305.18
650.80	42124.96
650.94	42471.36
651.09	42195.18
651.23	41727.07
651.38	41598.34
651.52	41808.99
651.67	41638.13
651.81	41773.88
651.96	41741.11
652.10	41596.00
652.25	41336.20
652.39	41113.85
652.54	41523.44
652.68	41553.87
652.83	41696.64
652.97	41343.22
653.12	41375.99
653.26	41383.01
653.41	41427.48
653.55	41455.57
653.70	41876.86
653.84	41427.48
653.99	41680.26
654.13	41195.77
654.27	41717.71
654.42	41481.31
654.56	41390.03
654.71	41357.27
654.85	41481.31
655.00	41235.56
655.14	41230.88
655.29	41287.05
655.43	41523.44
655.57	40851.71
655.72	40910.22
655.86	40861.07
656.01	40603.61
656.15	40896.18
656.30	41045.97
656.44	41153.64
656.58	41394.71
656.73	40898.52
656.87	40830.65
657.01	40439.78
657.16	41099.81
657.30	40711.28
657.45	41020.23
657.59	40467.86
657.73	40755.75
657.88	40886.82
658.02	40884.48
658.16	41249.60
658.31	40722.98
658.45	40421.05
658.60	40603.61
658.74	40271.26
658.88	40540.42
659.03	40655.11
659.17	40130.83
659.31	39840.60
659.46	40320.41
659.60	40390.62
659.74	40381.26
659.89	40282.96
660.03	39742.30
660.17	39957.63
660.32	39992.73
660.46	40135.51
660.60	39255.46
660.74	39885.07
660.89	39833.58
661.03	39573.78
661.17	39295.25
661.32	39412.28
661.46	39515.26
661.60	39269.51
661.74	39241.42
661.89	39564.42
662.03	39309.30
662.17	39021.41
662.31	39119.71
662.46	39384.19
662.60	39154.82
662.74	38932.47
662.88	39168.87
663.03	38895.02
663.17	38525.22
663.31	38525.22
663.45	38707.78
663.60	38941.83
663.74	39222.70
663.88	38721.82
664.02	38286.48
664.17	39009.71
664.31	38417.55
664.45	38567.35
664.59	38450.32
664.73	38251.38
664.88	38075.84
665.02	37724.75
665.16	38417.55
665.30	38391.81
665.44	38291.16
665.59	37743.48
665.73	38033.71
665.87	37488.36
666.01	38202.22
666.15	38092.22
666.29	37984.55
666.44	37493.04
666.58	37776.25
666.72	37628.79
666.86	37343.25
667.00	37715.39
667.14	37235.58
667.28	37502.40
667.43	37120.90
667.57	37163.03
667.71	37731.78
667.85	37544.53
667.99	37233.24
668.13	37106.85
668.27	36851.73
668.41	36975.78
668.56	36299.37
668.70	36549.81
668.84	36282.98
668.98	36217.45
669.12	36760.45
669.26	36512.36
669.40	36715.98
669.54	36744.07
669.68	36524.06
669.82	36678.54
669.96	36048.93
670.10	35976.37
670.25	35833.60
670.39	35842.96
670.53	36140.21
670.67	35857.01
670.81	36460.87
670.95	36275.96
671.09	35665.08
671.23	35587.85
671.37	35913.18
671.51	36114.47
671.65	35185.27
671.79	35655.72
671.93	35206.34
672.07	35264.85
672.21	35311.66
672.35	34988.67
672.49	35178.25
672.63	35009.73
672.77	34944.20
672.91	34820.15
673.05	34703.12
673.19	34995.69
673.33	34323.96
673.47	34749.93
673.61	34513.54
673.75	34312.25
673.89	34436.30
674.03	34164.80
674.17	34239.70
674.31	34115.65
674.45	33956.49
674.59	33834.78
674.73	33394.76
674.87	33752.87
675.01	33682.65
675.15	33347.95
675.29	33160.71
675.43	33062.41
675.56	33259.01
675.70	33631.16
675.84	33127.94
675.98	32191.73
676.12	32701.96
676.26	33303.48
676.40	32954.74
676.54	32701.96
676.68	32800.27
676.82	32165.98
676.96	32381.31
677.10	32575.58
677.23	31931.93
677.37	32397.70
677.51	32308.76
677.65	32591.96
677.79	31728.30
677.93	31702.56
678.07	32407.06
678.21	31381.90
678.34	31269.56
678.48	31468.50
678.62	31435.74
678.76	30927.84
678.90	30944.22
679.04	30885.71
679.18	31395.95
679.31	30684.42
679.45	30646.97
679.59	30670.38
679.73	30941.88
679.87	30302.92
680.00	30150.78
680.14	30398.88
680.28	30433.99
680.42	29991.62
680.56	30101.63
680.70	29727.14
680.83	29895.66
680.97	29593.73
681.11	29841.83
681.25	29071.79
681.39	29446.28
681.52	29479.05
681.66	28910.30
681.80	28383.68
681.94	28673.90
682.07	28725.39
682.21	28456.23
682.35	28606.03
682.49	28449.21
682.62	28283.03
682.76	28484.32
682.90	28271.33
683.04	28301.76
683.17	28439.85
683.31	27875.78
683.45	27871.10
683.59	27695.56
683.72	27590.24
683.86	27447.46
684.00	27651.09
684.13	27679.18
684.27	26859.99
684.41	27133.83
684.55	27300.01
684.68	27283.62
684.82	26803.82
684.96	26733.60
685.09	27222.77
685.23	26335.71
685.37	27211.07
685.50	27271.92
685.64	26459.76
685.78	26127.40
685.91	26452.73
686.05	26036.12
686.19	26050.16
686.32	26031.44
686.46	25364.39
686.60	25530.56
686.73	25338.64
686.87	25582.06
687.01	25914.41
687.14	25678.02
687.28	25090.54
687.42	25195.87
687.55	24830.74
687.69	24940.75
687.82	25025.01
687.96	24863.51
688.10	24690.31
688.23	24783.93
688.37	24697.33
688.50	24706.70
688.64	24587.33
688.78	24175.39
688.91	24477.32
689.05	24151.99
689.18	23590.26
689.32	23396.00
689.46	23623.03
689.59	23473.23
689.73	23613.66
689.86	24067.73
690.00	23297.69
690.13	23697.92
690.27	23573.88
690.41	23271.95
690.54	22932.57
690.68	22651.70
690.81	22766.39
690.95	22466.80
691.08	22700.86
691.22	22487.87
691.35	22520.63
691.49	22836.61
691.62	22340.41
691.76	22143.81
691.89	22214.02
692.03	21975.29
692.16	21813.79
692.30	21666.34
692.43	21893.37
692.57	21553.99
692.70	21703.79
692.84	21502.50
692.97	21343.35
693.11	21350.37
693.24	21249.72
693.38	20943.11
693.51	20570.97
693.65	20854.17
693.78	20819.07
693.92	20723.10
694.05	20547.56
694.19	20776.94
694.32	20505.43
694.45	20657.57
694.59	20496.07
694.72	20636.50
694.86	20446.92
694.99	20294.79
695.13	20053.71
695.26	19672.20
695.39	19576.24
695.53	19599.65
695.66	19452.19
695.80	19573.90
695.93	19716.67
696.07	19180.69
696.20	18806.20
696.33	18876.42
696.47	18885.78
696.60	19051.96
696.73	18775.78
696.87	18970.04
697.00	18853.02
697.14	18670.45
697.27	18508.96
697.40	18398.95
697.54	18246.82
697.67	18724.29
697.80	18420.02
697.94	18136.81
698.07	17867.65
698.21	18104.04
698.34	17994.04
698.47	18125.11
698.61	17582.10
698.74	17523.59
698.87	17537.63
699.01	17455.72
699.14	17418.27
699.27	17444.01
699.40	17240.39
699.54	16959.52
699.67	17263.79
699.80	17160.81
699.94	17027.40
700.07	16931.44
700.20	16929.09
700.34	16690.36
700.47	16659.93
700.60	16968.88
700.73	16760.58
700.87	16465.67
701.00	15859.47
701.13	16292.47
701.26	16240.98
701.40	15990.54
701.53	15847.77
701.66	16025.65
701.79	16030.33
701.93	15765.85
702.06	15721.38
702.19	15314.13
702.32	15583.29
702.46	15311.78
702.59	15754.15
702.72	15571.58
702.85	15337.53
702.99	15407.75
703.12	15250.93
703.25	15199.44
703.38	15094.11
703.51	15194.76
703.65	14714.95
703.78	14551.11
703.91	14520.68
704.04	14406.00
704.17	14523.02
704.31	14359.19
704.44	14319.40
704.57	14307.69
704.70	14319.40
704.83	14190.67
704.96	14120.45
705.10	13881.72
705.23	13858.31
>>>>>End Processed Spectral Data<<<<<
