SpectraSuite Data File
++++++++++++++++++++++++++++++++++++
Date: Fri Oct 25 11:34:11 EDT 2013
User: price-jones
Dark Spectrum Present: No
Reference Spectrum Present: No
Number of Sampled Component Spectra: 1
Spectrometers: USB2+H05261
Integration Time (usec): 100000 (USB2+H05261)
Spectra Averaged: 1 (USB2+H05261)
Boxcar Smoothing: 0 (USB2+H05261)
Correct for Electrical Dark: No (USB2+H05261)
Strobe/Lamp Enabled: No (USB2+H05261)
Correct for Detector Non-linearity: No (USB2+H05261)
Correct for Stray Light: No (USB2+H05261)
Number of Pixels in Processed Spectrum: 2048
>>>>>Begin Processed Spectral Data<<<<<
365.73	369.80
365.92	369.80
366.12	369.80
366.32	210.65
366.52	170.86
366.72	210.65
366.91	112.35
367.11	203.63
367.31	182.56
367.51	105.32
367.70	194.26
367.90	95.96
368.10	133.41
368.30	220.01
368.49	177.88
368.69	222.35
368.89	194.26
369.09	170.86
369.28	170.86
369.48	205.97
369.68	266.82
369.87	278.52
370.07	194.26
370.27	236.39
370.47	332.36
370.66	496.19
370.86	477.47
371.06	561.73
371.25	503.22
371.45	503.22
371.65	528.96
371.84	594.50
372.04	482.15
372.24	554.71
372.44	543.00
372.63	505.56
372.83	636.63
373.03	603.86
373.22	608.54
373.42	627.26
373.62	561.73
373.81	634.29
374.01	779.40
374.21	608.54
374.40	613.22
374.60	631.94
374.79	634.29
374.99	606.20
375.19	641.31
375.38	615.56
375.58	692.80
375.78	683.44
375.97	669.39
376.17	669.39
376.37	690.46
376.56	695.14
376.76	631.94
376.95	739.61
377.15	634.29
377.35	575.77
377.54	699.82
377.74	631.94
377.93	690.46
378.13	697.48
378.33	753.65
378.52	629.60
378.72	734.93
378.91	676.41
379.11	725.57
379.31	674.07
379.50	650.67
379.70	734.93
379.89	734.93
380.09	753.65
380.28	713.86
380.48	709.18
380.68	758.33
380.87	681.10
381.07	690.46
381.26	814.51
381.46	807.48
381.65	732.59
381.85	667.05
382.04	765.36
382.24	802.80
382.43	791.10
382.63	741.95
382.83	741.95
383.02	828.55
383.22	814.51
383.41	791.10
383.61	774.72
383.80	830.89
384.00	772.38
384.19	772.38
384.39	777.06
384.58	770.04
384.78	812.17
384.97	835.57
385.17	849.61
385.36	842.59
385.56	758.33
385.75	826.21
385.95	798.12
386.14	791.10
386.34	884.72
386.53	880.04
386.72	821.53
386.92	816.85
387.11	887.06
387.31	898.77
387.50	830.89
387.70	833.23
387.89	905.79
388.09	912.81
388.28	873.02
388.48	854.30
388.67	978.34
388.86	940.90
389.06	973.66
389.25	866.00
389.45	924.51
389.64	877.70
389.84	983.02
390.03	1022.81
390.22	919.83
390.42	990.05
390.61	903.45
390.81	912.81
391.00	990.05
391.19	1029.84
391.39	968.98
391.58	915.15
391.78	1041.54
391.97	1069.62
392.16	978.34
392.36	1039.20
392.55	1083.67
392.75	1053.24
392.94	999.41
393.13	1032.18
393.33	1004.09
393.52	1057.92
393.71	1064.94
393.91	1081.33
394.10	1050.90
394.29	1203.04
394.49	1095.37
394.68	1130.48
394.88	1083.67
395.07	1184.31
395.26	1121.12
395.46	1116.44
395.65	1139.84
395.84	1291.98
396.04	1179.63
396.23	1170.27
396.42	1228.78
396.62	1184.31
396.81	1151.54
397.00	1226.44
397.19	1277.93
397.39	1203.04
397.58	1217.08
397.77	1233.46
397.97	1219.42
398.16	1156.22
398.35	1401.98
398.55	1289.64
398.74	1343.47
398.93	1392.62
399.12	1378.58
399.32	1235.80
399.51	1306.02
399.70	1364.53
399.90	1331.76
400.09	1343.47
400.28	1310.70
400.47	1313.04
400.67	1359.85
400.86	1411.34
401.05	1383.26
401.24	1434.75
401.44	1369.21
401.63	1441.77
401.82	1488.58
402.01	1451.13
402.21	1341.13
402.40	1472.20
402.59	1556.46
402.78	1432.41
402.97	1469.86
403.17	1413.68
403.36	1579.86
403.55	1509.65
403.74	1458.15
403.93	1561.14
404.13	1582.20
404.32	1516.67
404.51	1547.09
404.70	1619.65
404.89	1533.05
405.09	1631.35
405.28	1687.53
405.47	1682.85
405.66	1713.27
405.85	1710.93
406.05	1692.21
406.24	1757.74
406.43	1736.68
406.62	1825.62
406.81	1820.94
407.00	1689.87
407.20	1652.42
407.39	1694.55
407.58	1842.00
407.77	1893.49
407.96	1921.58
408.15	1912.22
408.34	1748.38
408.54	1811.57
408.73	1909.88
408.92	1837.32
409.11	1963.71
409.30	1898.17
409.49	1940.30
409.68	1959.03
409.87	1860.73
410.07	1980.09
410.26	1982.43
410.45	2026.90
410.64	2010.52
410.83	2080.74
411.02	2036.27
411.21	2176.70
411.40	2085.42
411.59	2066.69
411.78	2157.97
411.98	2188.40
412.17	2054.99
412.36	2195.42
412.55	2228.19
412.74	2263.30
412.93	2342.88
413.12	2232.87
413.31	2356.92
413.50	2331.17
413.69	2377.98
413.88	2377.98
414.07	2354.58
414.26	2462.24
414.45	2490.33
414.64	2399.05
414.83	2537.14
415.02	2487.99
415.22	2544.16
415.41	2651.83
415.60	2469.27
415.79	2619.06
415.98	2609.70
416.17	2647.15
416.36	2679.91
416.55	2686.94
416.74	2885.88
416.93	2803.96
417.12	2764.17
417.31	2834.39
417.50	2836.73
417.69	2904.60
417.88	2890.56
418.07	2773.53
418.26	2895.24
418.45	2834.39
418.64	3007.59
418.83	2925.67
419.02	2864.82
419.21	3005.25
419.39	2963.12
419.58	3052.06
419.77	2827.37
419.96	3143.34
420.15	3014.61
420.34	3084.83
420.53	3084.83
420.72	3180.79
420.91	3215.90
421.10	3243.98
421.29	3213.56
421.48	3033.33
421.67	3290.79
421.86	3183.13
422.05	3288.45
422.24	3267.39
422.43	3213.56
422.61	3290.79
422.80	3342.28
422.99	3332.92
423.18	3115.25
423.37	3435.91
423.56	3194.83
423.75	3400.80
423.94	3260.37
424.13	3070.78
424.32	3187.81
424.50	3517.83
424.69	3513.14
424.88	3550.59
425.07	3335.26
425.26	3393.78
425.45	3295.47
425.64	3283.77
425.83	3382.07
426.01	3384.41
426.20	3433.57
426.39	3421.86
426.58	3358.67
426.77	3559.95
426.96	3613.79
427.15	3471.01
427.33	3574.00
427.52	3466.33
427.71	3463.99
427.90	3534.21
428.09	3709.75
428.28	3641.87
428.46	3496.76
428.65	3658.26
428.84	3770.60
429.03	3758.90
429.22	3520.17
429.40	3618.47
429.59	3646.55
429.78	3646.55
429.97	3520.17
430.16	3826.78
430.34	3705.07
430.53	3873.59
430.72	3847.84
430.91	3808.05
431.10	3794.01
431.28	3770.60
431.47	3899.33
431.66	3969.55
431.85	3878.27
432.03	3981.25
432.22	3939.12
432.41	4016.36
432.60	4042.11
432.79	4032.74
432.97	3943.80
433.16	4023.38
433.35	3864.22
433.54	3927.42
433.72	3962.53
433.91	4032.74
434.10	4098.28
434.28	4028.06
434.47	3995.29
434.66	4149.77
434.85	4259.78
435.03	4191.90
435.22	4156.79
435.41	4210.62
435.59	4238.71
435.78	4400.21
435.97	4395.53
436.16	4273.82
436.34	4236.37
436.53	4372.12
436.72	4486.81
436.90	4327.65
437.09	4531.28
437.28	4269.14
437.46	4344.03
437.65	4477.44
437.84	4519.57
438.02	4589.79
438.21	4510.21
438.40	4533.62
438.58	4678.73
438.77	4660.01
438.96	4681.07
439.14	4741.93
439.33	4765.33
439.52	4760.65
439.70	4777.03
439.89	4823.84
440.08	4877.68
440.26	4805.12
440.45	4835.55
440.63	5027.47
440.82	4936.19
441.01	5050.88
441.19	5006.41
441.38	5104.71
441.57	5139.82
441.75	5259.18
441.94	5186.63
442.12	5322.38
442.31	5430.04
442.50	5413.66
442.68	5301.31
442.87	5256.84
443.05	5406.64
443.24	5439.40
443.43	5404.30
443.61	5462.81
443.80	5542.39
443.98	5455.79
444.17	5256.84
444.35	5408.98
444.54	5502.60
444.73	5526.00
444.91	5575.16
445.10	5526.00
445.28	5518.98
445.47	5628.99
445.65	5540.05
445.84	5743.67
446.02	5671.12
446.21	5526.00
446.39	5544.73
446.58	5589.20
446.77	5526.00
446.95	5221.74
447.14	5607.92
447.32	5715.59
447.51	5799.85
447.69	5633.67
447.88	5554.09
448.06	5582.18
448.25	5675.80
448.43	5621.97
448.62	5750.70
448.80	5699.20
448.99	5715.59
449.17	5750.70
449.36	5668.78
449.54	5802.19
449.73	5912.19
449.91	5851.34
450.10	5858.36
450.28	5961.34
450.46	6064.33
450.65	5987.09
450.83	6022.20
451.02	5959.00
451.20	6099.44
451.39	6162.63
451.57	6040.92
451.76	6101.78
451.94	5961.34
452.13	6260.93
452.31	6176.67
452.49	6120.50
452.68	6143.91
452.86	6122.84
453.05	6305.40
453.23	6342.85
453.42	6202.42
453.60	6139.23
453.78	6291.36
453.97	6260.93
454.15	6279.66
454.34	6211.78
454.52	6483.28
454.70	6518.39
454.89	6462.22
455.07	6429.45
455.26	6361.58
455.44	6436.47
455.62	6548.82
455.81	6555.84
455.99	6658.82
456.17	6499.67
456.36	6736.06
456.54	6705.63
456.73	6691.59
456.91	6771.17
457.09	6850.75
457.28	6946.71
457.46	6754.79
457.64	6827.34
457.83	6857.77
458.01	6712.66
458.19	7122.25
458.38	7056.72
458.56	7080.12
458.74	7019.27
458.93	7026.29
459.11	7035.65
459.29	7007.56
459.48	6967.77
459.66	7152.68
459.84	7318.86
460.03	7321.20
460.21	7398.43
460.39	7370.35
460.57	7204.17
460.76	7241.62
460.94	7384.39
461.12	7131.61
461.31	7449.93
461.49	7314.17
461.67	7344.60
461.85	7417.16
462.04	7318.86
462.22	7950.80
462.40	7606.74
462.59	7592.70
462.77	7529.50
462.95	7531.84
463.13	7566.95
463.32	7810.37
463.50	7859.52
463.68	7775.26
463.86	7796.32
464.05	7550.57
464.23	7723.77
464.41	7850.16
464.59	7665.25
464.78	7887.61
464.96	7723.77
465.14	7772.92
465.32	7903.99
465.50	7871.22
465.69	7913.35
465.87	7941.44
466.05	7852.50
466.23	7988.25
466.41	8081.87
466.60	8180.17
466.78	8046.76
466.96	8013.99
467.14	7908.67
467.32	7976.55
467.51	7964.84
467.69	7981.23
467.87	8058.46
468.05	8109.96
468.23	8243.37
468.41	8128.68
468.60	8416.57
468.78	8126.34
468.96	8297.20
469.14	8400.18
469.32	8248.05
469.50	8344.01
469.69	8519.55
469.87	8552.32
470.05	8414.23
470.23	8414.23
470.41	8475.08
470.59	8765.31
470.77	8533.59
470.95	8631.90
471.14	8800.41
471.32	8559.34
471.50	8734.88
471.68	8805.10
471.86	8835.52
472.04	9022.77
472.22	9144.47
472.40	8788.71
472.58	9100.00
472.77	9226.39
472.95	9174.90
473.13	9465.13
473.31	9041.49
473.49	9151.49
473.67	9228.73
473.85	9401.93
474.03	9441.72
474.21	9341.08
474.39	9589.17
474.57	9483.85
474.75	9509.60
474.93	9724.93
475.12	9795.14
475.30	9671.09
475.48	9783.44
475.66	9738.97
475.84	9867.70
476.02	9935.57
476.20	9961.32
476.38	10059.62
476.56	10207.08
476.74	10260.91
476.92	10134.52
477.10	10122.82
477.28	10335.81
477.46	10347.51
477.64	10633.05
477.82	10478.58
478.00	10780.51
478.18	10773.49
478.36	11009.88
478.54	11007.54
478.72	11103.50
478.90	11147.97
479.08	11152.65
479.26	11372.66
479.44	11349.26
479.62	11421.81
479.80	11555.22
479.98	11552.88
480.16	11843.11
480.34	11690.98
480.52	11878.22
480.70	12191.85
480.88	11714.38
481.06	11878.22
481.24	11985.88
481.41	12395.48
481.59	12430.59
481.77	12571.02
481.95	12840.18
482.13	12762.94
482.31	12505.48
482.49	13238.07
482.67	12901.03
482.85	13174.88
483.03	13280.20
483.21	13334.03
483.39	13444.04
483.57	13530.64
483.74	13727.24
483.92	13675.75
484.10	13584.47
484.28	13998.74
484.46	14183.65
484.64	14445.79
484.82	13989.38
485.00	14291.31
485.18	14771.12
485.35	14766.44
485.53	14525.36
485.71	14848.36
485.89	14909.21
486.07	15115.18
486.25	15075.39
486.43	15407.75
486.61	15311.78
486.78	15775.21
486.96	15267.31
487.14	15770.53
487.32	15791.59
487.50	16037.35
487.68	16109.91
487.85	16369.71
488.03	16255.02
488.21	16491.41
488.39	16601.42
488.57	16671.64
488.75	16992.29
488.92	16975.91
489.10	16954.84
489.28	17287.20
489.46	17303.58
489.64	17191.23
489.81	17610.19
489.99	17523.59
490.17	17558.70
490.35	17989.36
490.53	18094.68
490.70	18099.36
490.88	18040.85
491.06	18223.41
491.24	18504.28
491.41	18324.05
491.59	18616.62
491.77	18885.78
491.95	19058.98
492.13	18827.27
492.30	19014.51
492.48	19225.16
492.66	19529.43
492.84	19295.38
493.01	19508.37
493.19	19688.59
493.37	20226.91
493.54	19854.76
493.72	20362.66
493.90	19892.21
494.08	20175.42
494.25	20372.02
494.43	20418.83
494.61	20617.78
494.79	20840.13
494.96	21118.65
495.14	20812.04
495.32	21270.79
495.49	21118.65
495.67	21521.23
495.85	21668.68
496.02	21270.79
496.20	21755.28
496.38	22171.89
496.55	21940.18
496.73	22354.46
496.91	21975.29
497.09	22434.03
497.26	22321.69
497.44	22412.97
497.62	22452.76
497.79	22726.60
497.97	22757.03
498.14	23012.15
498.32	22941.93
498.50	22958.31
498.67	23578.56
498.85	23016.83
499.03	23672.18
499.20	23566.85
499.38	23550.47
499.56	23665.16
499.73	23852.40
499.91	23770.48
500.08	24009.22
500.26	23620.69
500.44	24173.05
500.61	24156.67
500.79	24144.97
500.97	24594.35
501.14	24826.06
501.32	24978.20
501.49	24680.95
501.67	24741.80
501.84	25195.87
502.02	24957.13
502.20	24622.44
502.37	24964.15
502.55	24823.72
502.72	24994.58
502.90	25708.44
503.07	25376.09
503.25	25282.47
503.43	25558.65
503.60	25823.13
503.78	25708.44
503.95	25621.84
504.13	26122.72
504.30	25879.30
504.48	25933.14
504.65	25975.27
504.83	26174.21
505.01	26609.55
505.18	26319.32
505.36	26567.42
505.53	26672.74
505.71	26600.19
505.88	26618.91
506.06	26586.15
506.23	27047.23
506.41	26590.83
506.58	26909.14
506.76	27412.35
506.93	27227.45
507.11	27419.38
507.28	27346.82
507.46	27386.61
507.63	27648.75
507.81	27690.88
507.98	27290.65
508.16	27953.02
508.33	28020.89
508.50	27894.50
508.68	28091.11
508.85	27772.80
509.03	28212.82
509.20	28357.93
509.38	28151.96
509.55	28545.17
509.73	28783.91
509.90	28683.27
510.08	28769.86
510.25	28907.96
510.42	28662.20
510.60	29172.44
510.77	28945.41
510.95	29383.09
511.12	28971.15
511.30	29476.71
511.47	29340.96
511.64	29579.69
511.82	29610.12
511.99	29467.34
512.17	29696.72
512.34	29692.04
512.51	30497.18
512.69	29881.62
512.86	29839.49
513.04	30382.49
513.21	30225.68
513.38	30218.66
513.56	30190.57
513.73	30110.99
513.90	30590.80
514.08	29991.62
514.25	30646.97
514.43	30817.83
514.60	30927.84
514.77	30962.95
514.95	31012.10
515.12	31056.57
515.29	31021.46
515.47	31732.98
515.64	31328.07
515.81	31103.38
515.99	30927.84
516.16	31894.48
516.33	31590.21
516.51	31639.36
516.68	31559.78
516.85	31552.76
517.03	31920.23
517.20	31735.32
517.37	31885.12
517.54	32086.40
517.72	32030.23
517.89	32077.04
518.06	32133.21
518.24	32257.26
518.41	32093.43
518.58	32566.21
518.75	32318.12
518.93	32395.35
519.10	32332.16
519.27	32414.08
519.45	32816.65
519.62	32802.61
519.79	32905.59
519.96	32400.04
520.14	33113.90
520.31	32732.39
520.48	33083.47
520.65	33420.51
520.83	33642.86
521.00	33394.76
521.17	33006.23
521.34	33394.76
521.52	33654.56
521.69	33603.07
521.86	33832.44
522.03	34045.43
522.20	34153.10
522.38	34272.46
522.55	34288.85
522.72	34026.71
522.89	34558.01
523.07	34209.27
523.24	34010.32
523.41	34644.61
523.58	34335.66
523.75	34508.86
523.92	34902.07
524.10	34590.78
524.27	34817.81
524.44	34787.38
524.61	35016.75
524.78	34878.66
524.96	35089.31
525.13	35101.01
525.30	35573.80
525.47	35239.11
525.64	34913.77
525.81	35653.38
525.98	35557.42
526.16	35498.91
526.33	35494.22
526.50	35594.87
526.67	35353.79
526.84	35583.16
527.01	35559.76
527.18	36116.81
527.36	35840.62
527.53	35943.61
527.70	36144.89
527.87	36189.36
528.04	36109.78
528.21	35948.29
528.38	36039.57
528.55	36355.54
528.72	36605.98
528.89	36112.13
529.07	36376.61
529.24	36233.83
529.41	36601.30
529.58	36650.45
529.75	36837.69
529.92	36299.37
530.09	36694.92
530.26	36868.12
530.43	36999.19
530.60	36664.49
530.77	36847.05
530.94	36889.18
531.11	36954.72
531.28	37130.26
531.46	36910.25
531.63	37270.69
531.80	37427.51
531.97	37137.28
532.14	37357.29
532.31	37621.77
532.48	37345.59
532.65	37996.26
532.82	37441.55
532.99	37701.35
533.16	37495.38
533.33	37921.36
533.50	37706.03
533.67	37670.92
533.84	37818.38
534.01	37968.17
534.18	38202.22
534.35	38359.04
534.52	38029.02
534.69	38595.43
534.86	38576.71
535.03	38314.57
535.20	38464.36
535.37	38483.09
535.54	38719.48
535.71	38162.43
535.88	38782.68
536.05	38281.80
536.22	38902.04
536.38	38719.48
536.55	38604.80
536.72	38876.30
536.89	38733.53
537.06	38637.56
537.23	39229.72
537.40	38932.47
537.57	38459.68
537.74	38822.47
537.91	39164.18
538.08	39480.16
538.25	39012.05
538.42	39173.55
538.59	39545.69
538.75	39309.30
538.92	39477.82
539.09	39660.38
539.26	39793.79
539.43	39260.15
539.60	39594.84
539.77	39611.23
539.94	39725.91
540.11	39702.51
540.28	39601.86
540.44	39611.23
540.61	39805.49
540.78	39634.63
540.95	39559.73
541.12	39934.22
541.29	39557.39
541.46	40004.44
541.62	39873.37
541.79	40364.88
541.96	39393.56
542.13	40165.93
542.30	39861.66
542.47	40201.04
542.63	40341.47
542.80	40580.21
542.97	40697.24
543.14	40760.43
543.31	40570.85
543.48	40037.20
543.64	41008.53
543.81	41209.81
543.98	40636.38
544.15	41289.39
544.32	41060.02
544.48	41352.58
544.65	41273.01
544.82	41125.55
544.99	40917.25
545.16	41001.50
545.32	41399.40
545.49	41113.85
545.66	41600.68
545.83	41340.88
546.00	41502.38
546.16	41610.04
546.33	41390.03
546.50	41202.79
546.67	41794.95
546.83	41596.00
547.00	41364.29
547.17	41624.09
547.34	41612.38
547.50	42164.75
547.67	41933.04
547.84	41560.89
548.00	42040.70
548.17	42213.90
548.34	42059.43
548.51	42220.92
548.67	42209.22
548.84	42183.48
549.01	42569.66
549.18	42361.36
549.34	42230.29
549.51	42176.45
549.68	42583.71
549.84	42363.70
550.01	42548.60
550.18	42157.73
550.34	42361.36
550.51	42307.52
550.68	43021.39
550.84	42127.30
551.01	43016.71
551.18	42735.84
551.34	42616.47
551.51	42721.80
551.68	43100.97
551.84	42878.61
552.01	42564.98
552.18	42380.08
552.34	42946.49
552.51	42817.76
552.68	43072.88
552.84	43131.39
553.01	43044.79
553.18	43065.86
553.34	43126.71
553.51	43180.54
553.67	43150.12
553.84	43374.81
554.01	43030.75
554.17	43407.58
554.34	43796.10
554.51	43229.69
554.67	43849.94
554.84	43686.10
555.00	43311.61
555.17	42965.21
555.33	43409.92
555.50	43222.67
555.67	43985.69
555.83	43746.95
556.00	43587.80
556.16	44149.53
556.33	43920.15
556.50	43875.68
556.66	43693.12
556.83	43391.19
556.99	43995.05
557.16	44336.77
557.32	43866.32
557.49	44299.32
557.65	43559.71
557.82	44247.83
557.98	44285.28
558.15	43840.57
558.32	44060.58
558.48	44105.06
558.65	44081.65
558.81	44435.07
558.98	44091.01
559.14	43934.20
559.31	44161.23
559.47	44161.23
559.64	44381.24
559.80	43931.86
559.97	44753.38
560.13	44355.49
560.30	44261.87
560.46	44692.53
560.63	44727.64
560.79	44254.85
560.96	44875.09
561.12	44713.59
561.29	44643.38
561.45	44917.22
561.61	44605.93
561.78	44121.44
561.94	44369.54
562.11	44421.03
562.27	44421.03
562.44	44872.75
562.60	45001.48
562.77	44825.94
562.93	44788.49
563.10	45116.17
563.26	44266.55
563.42	45160.64
563.59	44765.09
563.75	44619.97
563.92	44957.01
564.08	44776.79
564.24	44631.68
564.41	44676.15
564.57	44849.35
564.74	44821.26
564.90	44591.89
565.07	44545.08
565.23	45123.19
565.39	44945.31
565.56	45198.09
565.72	45022.54
565.88	44952.33
566.05	45022.54
566.21	44952.33
566.38	44996.80
566.54	45361.92
566.70	45476.61
566.87	45315.11
567.03	45024.89
567.19	45694.28
567.36	45373.63
567.52	45198.09
567.68	45408.73
567.85	45488.31
568.01	45235.53
568.17	45298.73
568.34	45626.40
568.50	45380.65
568.66	45312.77
568.83	45390.01
568.99	45530.44
569.15	45553.85
569.32	45404.05
569.48	45453.20
569.64	45652.15
569.81	45645.13
569.97	45319.79
570.13	45500.01
570.30	45244.90
570.46	45586.61
570.62	45916.63
570.78	45371.28
570.95	45633.42
571.11	46237.28
571.27	45467.25
571.43	45076.38
571.60	46078.13
571.76	45785.56
571.92	45577.25
572.09	45542.14
572.25	45743.43
572.41	45263.62
572.57	45595.98
572.74	45635.77
572.90	45558.53
573.06	46021.95
573.22	45766.84
573.38	46527.51
573.55	45738.75
573.71	46057.06
573.87	45745.77
574.03	45762.15
574.20	46174.09
574.36	45677.90
574.52	45860.46
574.68	45595.98
574.84	46061.74
575.01	46080.47
575.17	46031.32
575.33	45928.33
575.49	45631.08
575.65	46167.07
575.82	46237.28
575.98	46047.70
576.14	46213.88
576.30	46373.03
576.46	46326.22
576.62	45610.02
576.79	46300.48
576.95	45755.13
577.11	45530.44
577.27	46026.63
577.43	45907.27
577.59	45776.20
577.75	46274.73
577.92	45682.58
578.08	45951.74
578.24	45792.58
578.40	46293.46
578.56	46124.94
578.72	45813.65
578.88	46234.94
579.04	46012.59
579.21	45610.02
579.37	45928.33
579.53	46052.38
579.69	46138.98
579.85	46176.43
580.01	46476.02
580.17	45958.76
580.33	46351.97
580.49	45792.58
580.65	45865.14
580.82	45792.58
580.98	46181.11
581.14	45996.21
581.30	45937.69
581.46	46328.56
581.62	45993.87
581.78	45666.19
581.94	46232.60
582.10	46314.52
582.26	46408.14
582.42	46398.78
582.58	46153.02
582.74	46501.76
582.90	46239.62
583.06	46543.89
583.22	46181.11
583.38	46326.22
583.54	46220.90
583.70	46429.21
583.86	46719.43
584.02	45720.02
584.18	46684.33
584.34	46513.47
584.50	46391.76
584.66	46768.58
584.82	46281.75
584.98	46569.64
585.14	46696.03
585.30	46330.90
585.46	46335.59
585.62	46618.79
585.78	46801.35
585.94	46101.53
586.10	46553.26
586.26	46134.30
586.42	46005.57
586.58	46508.79
586.74	46277.07
586.90	46251.33
587.06	46024.29
587.22	46305.16
587.38	46061.74
587.54	46363.67
587.70	46728.80
587.86	46344.95
588.02	46417.50
588.18	46344.95
588.34	46642.20
588.49	46293.46
588.65	46351.97
588.81	46342.61
588.97	46560.28
589.13	46202.18
589.29	46363.67
589.45	46742.84
589.61	46686.67
589.77	46443.25
589.93	46679.64
590.08	46202.18
590.24	47164.14
590.40	46941.78
590.56	47253.08
590.72	46632.83
590.88	46775.61
591.04	46623.47
591.20	46749.86
591.35	46876.25
591.51	47260.10
591.67	47007.32
591.83	46855.18
591.99	47072.85
592.15	46862.21
592.31	46630.49
592.46	46323.88
592.62	46710.07
592.78	47136.05
592.94	47016.68
593.10	46714.75
593.26	47243.71
593.41	47393.51
593.57	47114.98
593.73	46906.68
593.89	46983.91
594.05	47196.90
594.20	46845.82
594.36	47058.81
594.52	47049.45
594.68	46770.93
594.84	47112.64
594.99	47089.24
595.15	46883.27
595.31	47154.77
595.47	47103.28
595.62	46749.86
595.78	46457.29
595.94	47152.43
596.10	46834.12
596.25	47234.35
596.41	47079.88
596.57	46759.22
596.73	47236.69
596.88	47360.74
597.04	47126.69
597.20	47208.61
597.36	46927.74
597.51	47168.82
597.67	46925.40
597.83	47122.01
597.99	47049.45
598.14	47185.20
598.30	47316.27
598.46	47229.67
598.61	47054.13
598.77	47250.74
598.93	47276.48
599.09	47430.96
599.24	47494.15
599.40	47049.45
599.56	47622.88
599.71	47264.78
599.87	47386.49
600.03	47290.52
600.18	47358.40
600.34	47180.52
600.50	47260.10
600.65	47578.41
600.81	47199.24
600.97	47508.19
601.12	47372.44
601.28	47278.82
601.44	47147.75
601.59	47009.66
601.75	47636.92
601.91	47327.97
602.06	47058.81
602.22	47168.82
602.37	47344.36
602.53	47440.32
602.69	47601.82
602.84	47241.37
603.00	47171.16
603.16	47295.21
603.31	46904.34
603.47	47192.22
603.62	47068.17
603.78	47751.61
603.94	47400.53
604.09	47178.18
604.25	47243.71
604.40	46969.87
604.56	47381.80
604.71	47377.12
604.87	47157.11
605.03	47061.15
605.18	47255.42
605.34	47107.96
605.49	47435.64
605.65	46983.91
605.80	47276.48
605.96	46916.04
606.12	47016.68
606.27	47412.23
606.43	47278.82
606.58	46951.15
606.74	47306.91
606.89	47026.04
607.05	47143.07
607.20	47105.62
607.36	46960.51
607.51	47290.52
607.67	47063.49
607.82	46810.71
607.98	46663.26
608.13	46808.37
608.29	46902.00
608.44	47033.07
608.60	46520.49
608.75	47175.84
608.91	46979.23
609.06	46499.42
609.22	46904.34
609.37	47058.81
609.53	47145.41
609.68	46672.62
609.84	47131.37
609.99	46777.95
610.15	46731.14
610.30	47040.09
610.46	47000.30
610.61	47224.99
610.76	46864.55
610.92	46777.95
611.07	46834.12
611.23	46588.36
611.38	46501.76
611.54	46583.68
611.69	46763.90
611.84	46986.25
612.00	46719.43
612.15	46653.90
612.31	46703.05
612.46	46454.95
612.62	46745.18
612.77	46513.47
612.92	46665.60
613.08	47019.02
613.23	46887.95
613.39	46286.43
613.54	46174.09
613.69	46831.78
613.85	46733.48
614.00	46515.81
614.15	46726.46
614.31	46447.93
614.46	46511.13
614.62	46295.80
614.77	46340.27
614.92	46405.80
615.08	46351.97
615.23	46469.00
615.38	46873.91
615.54	46384.74
615.69	46674.96
615.84	46539.21
616.00	46784.97
616.15	46527.51
616.30	46473.68
616.46	46326.22
616.61	46492.40
616.76	46459.63
616.92	46536.87
617.07	46366.01
617.22	46330.90
617.37	46054.72
617.53	46354.31
617.68	45904.93
617.83	45872.16
617.99	46471.34
618.14	46195.15
618.29	46031.32
618.45	46092.17
618.60	46066.42
618.75	45799.60
618.90	46036.00
619.06	46288.77
619.21	46211.54
619.36	46253.67
619.51	45722.37
619.67	45502.35
619.82	45846.41
619.97	46103.87
620.12	45883.86
620.28	45691.94
620.43	46075.79
620.58	45827.69
620.73	45738.75
620.89	46300.48
621.04	45879.18
621.19	45766.84
621.34	46014.93
621.49	45593.64
621.65	45853.44
621.80	46286.43
621.95	45605.34
622.10	46335.59
622.25	45570.23
622.41	45436.82
622.56	45558.53
622.71	45855.78
622.86	45766.84
623.01	46089.83
623.16	45354.90
623.32	46019.61
623.47	45439.16
623.62	45490.65
623.77	45677.90
623.92	45317.45
624.07	45226.17
624.23	45366.60
624.38	45731.73
624.53	45305.75
624.68	45162.98
624.83	45490.65
624.98	45359.58
625.13	44804.88
625.29	45277.66
625.44	45214.47
625.59	45291.71
625.74	45116.17
625.89	44924.24
626.04	45020.20
626.19	45542.14
626.34	44694.87
626.49	44619.97
626.65	44624.65
626.80	44811.90
626.95	44439.75
627.10	44587.21
627.25	44694.87
627.40	44715.93
627.55	44795.51
627.70	44629.34
627.85	44566.14
628.00	45008.50
628.15	44825.94
628.30	44554.44
628.45	44376.56
628.60	44289.96
628.76	44259.53
628.91	44535.71
629.06	44430.39
629.21	43995.05
629.36	44137.82
629.51	44320.38
629.66	44612.95
629.81	44676.15
629.96	44538.05
630.11	44306.34
630.26	44369.54
630.41	44196.34
630.56	44027.82
630.71	44301.66
630.86	43856.96
631.01	43849.94
631.16	44179.95
631.31	44098.03
631.46	44133.14
631.61	44119.10
631.76	43952.92
631.91	44137.82
632.06	44411.67
632.21	44037.18
632.36	44041.86
632.51	44020.80
632.66	43863.98
632.81	43669.72
632.96	44067.61
633.10	43770.36
633.25	43988.03
633.40	43941.22
633.55	43929.51
633.70	43962.28
633.85	42995.64
634.00	43838.23
634.15	43578.43
634.30	43555.03
634.45	43601.84
634.60	43838.23
634.75	43849.94
634.90	43749.29
635.05	43540.99
635.19	43136.07
635.34	43594.82
635.49	43234.38
635.64	43353.74
635.79	43992.71
635.94	43700.14
636.09	43608.86
636.24	43328.00
636.39	43505.88
636.53	43381.83
636.68	43098.62
636.83	42911.38
636.98	43065.86
637.13	43077.56
637.28	43196.93
637.43	43143.09
637.57	43302.25
637.72	42836.48
637.87	42932.45
638.02	42892.66
638.17	43159.48
638.32	42609.45
638.46	42543.92
638.61	42454.98
638.76	42656.26
638.91	42717.12
639.06	42602.43
639.20	42562.64
639.35	43049.47
639.50	42625.84
639.65	43082.24
639.80	43220.33
639.94	43063.52
640.09	42859.89
640.24	42480.72
640.39	42616.47
640.54	42410.51
640.68	42623.50
640.83	43271.82
640.98	42518.17
641.13	42384.76
641.27	43033.09
641.42	42525.19
641.57	42337.95
641.72	42700.73
641.86	42071.13
642.01	42307.52
642.16	41663.88
642.31	42190.50
642.45	42714.78
642.60	41886.23
642.75	42457.32
642.90	42670.31
643.04	42424.55
643.19	41951.76
643.34	42040.70
643.48	42052.41
643.63	42213.90
643.78	42185.82
643.93	42382.42
644.07	42337.95
644.22	42092.19
644.37	42050.06
644.51	42101.56
644.66	42389.44
644.81	42064.11
644.95	42108.58
645.10	41823.03
645.25	41471.95
645.39	41469.61
645.54	41867.50
645.69	41638.13
645.83	41303.43
645.98	41642.81
646.13	41680.26
646.27	41486.00
646.42	41397.06
646.57	41483.66
646.71	41633.45
646.86	41797.29
647.00	41867.50
647.15	42209.22
647.30	41336.20
647.44	41181.73
647.59	41441.53
647.74	41422.80
647.88	41350.24
648.03	41603.02
648.17	41874.52
648.32	41668.56
648.47	41565.57
648.61	40980.44
648.76	41493.02
648.90	41209.81
649.05	41280.03
649.20	41708.35
649.34	41343.22
649.49	41308.11
649.63	41170.02
649.78	41415.78
649.92	41151.30
650.07	41591.32
650.21	41502.38
650.36	41074.06
650.51	41411.10
650.65	41160.66
650.80	41034.27
650.94	40947.67
651.09	40767.45
651.23	40243.17
651.38	40488.93
651.52	40540.42
651.67	40996.82
651.81	40905.54
651.96	40428.07
652.10	40605.95
652.25	40458.50
652.39	41095.13
652.54	40966.40
652.68	40289.98
652.83	41015.55
652.97	40877.46
653.12	40804.90
653.26	40430.41
653.41	40198.70
653.55	40608.29
653.70	40769.79
653.84	41060.02
653.99	40669.15
654.13	40664.47
654.27	40205.72
654.42	40559.14
654.56	40341.47
654.71	40573.19
654.85	40676.17
655.00	40568.51
655.14	40280.62
655.29	40517.01
655.43	40451.48
655.57	40329.77
655.72	39894.43
655.86	40423.39
656.01	39845.28
656.15	39618.25
656.30	39966.99
656.44	40074.65
656.58	40215.08
656.73	40233.81
656.87	39651.02
657.01	39498.88
657.16	40039.54
657.30	40411.69
657.45	39779.74
657.59	39632.29
657.73	39716.55
657.88	39686.12
658.02	39941.24
658.16	40240.83
658.31	39873.37
658.45	39681.44
658.60	39395.90
658.74	40062.95
658.88	39353.77
659.03	39641.65
659.17	39248.44
659.31	39335.04
659.46	39262.49
659.60	39723.57
659.74	39100.99
659.89	38621.18
660.03	38356.70
660.17	38890.34
660.32	39023.75
660.46	39126.74
660.60	38712.46
660.74	38871.62
660.89	39007.37
661.03	38675.01
661.17	38396.49
661.32	38368.40
661.46	38778.00
661.60	38511.17
661.74	38899.70
661.89	38576.71
662.03	38494.79
662.17	38705.44
662.31	38319.25
662.46	38600.12
662.60	38607.14
662.74	38415.21
662.88	37944.76
663.03	37577.30
663.17	37912.00
663.31	37556.24
663.45	38096.90
663.60	37956.47
663.74	38244.35
663.88	37729.44
664.02	37530.49
664.17	37991.58
664.31	37792.63
664.45	37916.68
664.59	37401.76
664.73	37610.07
664.88	37954.13
665.02	37191.11
665.16	37401.76
665.30	37488.36
665.44	37464.96
665.59	36947.70
665.73	37095.15
665.87	36566.19
666.01	36774.50
666.15	36816.63
666.29	36760.45
666.44	37106.85
666.58	37233.24
666.72	36570.87
666.86	36573.21
667.00	36521.72
667.14	36493.63
667.28	36463.21
667.43	36765.14
667.57	36329.80
667.71	36521.72
667.85	36720.66
667.99	36589.59
668.13	36346.18
668.27	35959.99
668.41	35730.62
668.56	35683.81
668.70	35826.58
668.84	35360.81
668.98	35360.81
669.12	36123.83
669.26	35634.66
669.40	35597.21
669.54	35424.01
669.68	35569.12
669.82	35452.09
669.96	35019.10
670.10	35140.80
670.25	35323.36
670.39	35555.08
670.53	35215.70
670.67	35005.05
670.81	35037.82
670.95	35185.27
671.09	35098.67
671.23	35075.27
671.37	35129.10
671.51	34162.46
671.65	34986.33
671.79	34845.90
671.93	34885.68
672.07	34974.63
672.21	34859.94
672.35	34099.26
672.49	34796.74
672.63	34422.26
672.77	34354.38
672.91	34368.43
673.05	33453.28
673.19	34150.76
673.33	33825.42
673.47	33961.17
673.61	33567.96
673.75	33832.44
673.89	33495.41
674.03	33507.11
674.17	33261.35
674.31	33158.37
674.45	33008.58
674.59	33486.04
674.73	33113.90
674.87	32765.16
675.01	32849.42
675.15	32238.54
675.29	32308.76
675.43	32362.59
675.56	32830.69
675.70	32636.43
675.84	32245.56
675.98	31569.15
676.12	32208.11
676.26	32334.50
676.40	32065.34
676.54	31646.38
676.68	32016.19
676.82	31417.01
676.96	31964.70
677.10	31936.61
677.23	31414.67
677.37	31637.02
677.51	31522.34
677.65	31129.12
677.79	30904.43
677.93	31253.17
678.07	30948.90
678.21	30717.19
678.34	30984.01
678.48	30749.96
678.62	30150.78
678.76	30298.23
678.90	30658.68
679.04	30462.07
679.18	30410.58
679.31	30050.14
679.45	30036.09
679.59	29937.79
679.73	29762.25
679.87	29701.40
680.00	29738.85
680.14	29450.96
680.28	29830.13
680.42	29577.35
680.56	29060.09
680.70	28996.90
680.83	28748.80
680.97	29315.21
681.11	28917.32
681.25	28701.99
681.39	28364.95
681.52	28783.91
681.66	28549.85
681.80	27953.02
681.94	28212.82
682.07	28315.80
682.21	28004.51
682.35	27667.47
682.49	27569.17
682.62	27814.93
682.76	27992.81
682.90	27426.40
683.04	27655.77
683.17	27510.66
683.31	27342.14
683.45	27131.49
683.59	26906.80
683.72	26892.76
683.86	27068.30
684.00	27026.17
684.13	27068.30
684.27	26394.22
684.41	26658.70
684.55	26373.16
684.68	26080.59
684.82	26223.36
684.96	26478.48
685.09	26314.64
685.23	26321.66
685.37	26174.21
685.50	26459.76
685.64	25919.09
685.78	25535.24
685.91	25820.79
686.05	25584.40
686.19	25376.09
686.32	25132.67
686.46	25266.08
686.60	25090.54
686.73	25174.80
686.87	24905.64
687.01	24905.64
687.14	24854.15
687.28	24826.06
687.42	24725.42
687.55	24526.47
687.69	24554.56
687.82	24196.46
687.96	24425.83
688.10	23969.43
688.23	24224.54
688.37	24320.51
688.50	24058.37
688.64	23791.55
688.78	23634.73
688.91	23695.58
689.05	23578.56
689.18	23351.52
689.32	23058.96
689.46	23014.49
689.59	23197.05
689.73	23468.55
689.86	23051.94
690.00	23037.89
690.13	23161.94
690.27	22946.61
690.41	22923.21
690.54	22485.53
690.68	22398.93
690.81	22246.79
690.95	22129.77
691.08	22078.27
691.22	21841.88
691.35	22176.58
691.49	21986.99
691.62	21675.70
691.76	21692.08
691.89	21568.04
692.03	21291.85
692.16	21420.58
692.30	21235.68
692.43	21263.77
692.57	21095.25
692.70	21078.86
692.84	20938.43
692.97	20577.99
693.11	20830.77
693.24	20512.46
693.38	20622.46
693.51	20404.79
693.65	20610.76
693.78	19896.89
693.92	20081.80
694.05	20013.92
694.19	20049.03
694.32	20292.44
694.45	20081.80
694.59	20262.02
694.72	19997.54
694.86	19587.94
694.99	19454.53
695.13	19271.97
695.26	19300.06
695.39	19257.93
695.53	19140.90
695.66	19381.98
695.80	19073.03
695.93	18853.02
696.07	19005.15
696.20	18576.83
696.33	18511.30
696.47	18441.08
696.60	18235.11
696.73	18494.91
696.87	18773.44
697.00	18448.10
697.14	18178.94
697.27	18010.42
697.40	17673.39
697.54	18031.49
697.67	18157.88
697.80	18066.60
697.94	17748.28
698.07	17694.45
698.21	17486.14
698.34	17598.49
698.47	17355.07
698.61	16966.54
698.74	17493.16
698.87	17184.21
699.01	16805.05
699.14	16893.99
699.27	17013.35
699.40	16781.64
699.54	16652.91
699.67	16683.34
699.80	16774.62
699.94	16334.60
700.07	16683.34
700.20	16365.03
700.34	16137.99
700.47	16248.00
700.60	16346.30
700.73	16259.70
700.87	15957.77
701.00	15955.43
701.13	15913.30
701.26	15765.85
701.40	15700.31
701.53	15426.47
701.66	15447.54
701.79	15445.20
701.93	15309.44
702.06	15286.04
702.19	14920.92
702.32	15227.53
702.46	15082.41
702.59	15349.23
702.72	15370.30
702.85	15197.10
702.99	15026.24
703.12	14691.54
703.25	14565.15
703.38	14459.83
703.51	14569.83
703.65	14345.14
703.78	14155.56
703.91	13956.61
704.04	14204.71
704.17	13933.21
704.31	14094.71
704.44	13935.55
704.57	14129.81
704.70	14101.73
704.83	13689.79
704.96	13792.78
705.10	13612.56
705.23	13364.46
>>>>>End Processed Spectral Data<<<<<
