SpectraSuite Data File
++++++++++++++++++++++++++++++++++++
Date: Fri Oct 25 10:43:21 EDT 2013
User: price-jones
Dark Spectrum Present: No
Reference Spectrum Present: No
Number of Sampled Component Spectra: 1
Spectrometers: USB2+H05261
Integration Time (usec): 100000 (USB2+H05261)
Spectra Averaged: 1 (USB2+H05261)
Boxcar Smoothing: 0 (USB2+H05261)
Correct for Electrical Dark: No (USB2+H05261)
Strobe/Lamp Enabled: No (USB2+H05261)
Correct for Detector Non-linearity: No (USB2+H05261)
Correct for Stray Light: No (USB2+H05261)
Number of Pixels in Processed Spectrum: 2048
>>>>>Begin Processed Spectral Data<<<<<
365.73	119.37
365.92	119.37
366.12	119.37
366.32	95.96
366.52	0.00
366.72	74.90
366.91	0.00
367.11	0.00
367.31	46.81
367.51	0.00
367.70	67.88
367.90	35.11
368.10	0.00
368.30	0.00
368.49	32.77
368.69	70.22
368.89	11.70
369.09	0.00
369.28	11.70
369.48	39.79
369.68	21.06
369.87	74.90
370.07	42.13
370.27	81.92
370.47	271.50
370.66	372.15
370.86	416.62
371.06	533.64
371.25	533.64
371.45	479.81
371.65	444.70
371.84	484.49
372.04	388.53
372.24	435.34
372.44	458.74
372.63	461.09
372.83	500.87
373.03	468.11
373.22	517.26
373.42	571.09
373.62	510.24
373.81	454.06
374.01	543.00
374.21	603.86
374.40	535.98
374.60	510.24
374.79	634.29
374.99	575.77
375.19	634.29
375.38	631.94
375.58	653.01
375.78	582.79
375.97	608.54
376.17	695.14
376.37	573.43
376.56	589.82
376.76	671.73
376.95	653.01
377.15	589.82
377.35	641.31
377.54	643.65
377.74	596.84
377.93	688.12
378.13	660.03
378.33	678.76
378.52	645.99
378.72	585.13
378.91	636.63
379.11	737.27
379.31	706.84
379.50	545.34
379.70	699.82
379.89	688.12
380.09	683.44
380.28	678.76
380.48	627.26
380.68	674.07
380.87	676.41
381.07	669.39
381.26	706.84
381.46	664.71
381.65	725.57
381.85	706.84
382.04	786.42
382.24	678.76
382.43	739.61
382.63	704.50
382.83	732.59
383.02	793.44
383.22	688.12
383.41	645.99
383.61	734.93
383.80	770.04
384.00	788.76
384.19	734.93
384.39	784.08
384.58	828.55
384.78	727.91
384.97	791.10
385.17	837.91
385.36	793.44
385.56	741.95
385.75	835.57
385.95	809.83
386.14	842.59
386.34	842.59
386.53	880.04
386.72	847.27
386.92	873.02
387.11	823.87
387.31	882.38
387.50	791.10
387.70	898.77
387.89	826.21
388.09	866.00
388.28	763.01
388.48	856.64
388.67	915.15
388.86	931.53
389.06	973.66
389.25	1067.28
389.45	985.37
389.64	994.73
389.84	1015.79
390.03	1027.50
390.22	987.71
390.42	964.30
390.61	1090.69
390.81	1022.81
391.00	1029.84
391.19	952.60
391.39	1076.65
391.58	1069.62
391.78	1006.43
391.97	1060.26
392.16	1008.77
392.36	1081.33
392.55	1095.37
392.75	1121.12
392.94	973.66
393.13	924.51
393.33	987.71
393.52	1125.80
393.71	1078.99
393.91	1118.78
394.10	1118.78
394.29	1149.20
394.49	1196.01
394.68	1128.14
394.88	1338.79
395.07	1174.95
395.26	1198.35
395.46	1256.87
395.65	1284.95
395.84	1263.89
396.04	1242.82
396.23	1196.01
396.42	1109.41
396.62	1259.21
396.81	1163.25
397.00	1167.93
397.19	1284.95
397.39	1357.51
397.58	1458.15
397.77	1493.26
397.97	1315.38
398.16	1418.36
398.35	1453.47
398.55	1416.02
398.74	1488.58
398.93	1467.52
399.12	1511.99
399.32	1561.14
399.51	1561.14
399.70	1535.39
399.90	1554.12
400.09	1629.01
400.28	1633.69
400.47	1682.85
400.67	1614.97
400.86	1715.61
401.05	1713.27
401.24	1734.34
401.44	1666.46
401.63	1767.10
401.82	1717.95
402.01	1734.34
402.21	1750.72
402.40	1764.76
402.59	1792.85
402.78	1769.44
402.97	1842.00
403.17	1870.09
403.36	1790.51
403.55	1907.54
403.74	1858.39
403.93	1792.85
404.13	1846.68
404.32	1839.66
404.51	1874.77
404.70	1973.07
404.89	1898.17
405.09	2045.63
405.28	1984.77
405.47	1942.64
405.66	1961.37
405.85	2059.67
406.05	1998.82
406.24	1928.60
406.43	2073.71
406.62	2012.86
406.81	2148.61
407.00	2012.86
407.20	2099.46
407.39	2120.53
407.58	2132.23
407.77	2148.61
407.96	2256.28
408.15	2188.40
408.34	2200.10
408.54	2319.47
408.73	2277.34
408.92	2286.70
409.11	2214.15
409.30	2291.38
409.49	2314.79
409.68	2162.66
409.87	2172.02
410.07	2319.47
410.26	2373.30
410.45	2422.45
410.64	2347.56
410.83	2403.73
411.02	2537.14
411.21	2583.95
411.40	2691.62
411.59	2700.98
411.78	2656.51
411.98	2555.86
412.17	2530.12
412.36	2644.81
412.55	2640.12
412.74	2630.76
412.93	2803.96
413.12	2745.45
413.31	2860.13
413.50	2918.65
413.69	2923.33
413.88	2944.39
414.07	2822.69
414.26	2895.24
414.45	3005.25
414.64	2876.52
414.83	3026.31
415.02	2979.50
415.22	2935.03
415.41	3056.74
415.60	3115.25
415.79	3054.40
415.98	3262.71
416.17	3159.72
416.36	3335.26
416.55	3187.81
416.74	3309.52
416.93	3206.53
417.12	3255.69
417.31	3302.50
417.50	3482.72
417.69	3419.52
417.88	3468.67
418.07	3576.34
418.26	3419.52
418.45	3480.38
418.64	3609.11
418.83	3646.55
419.02	3583.36
419.21	3548.25
419.39	3618.47
419.58	3604.42
419.77	3604.42
419.96	3644.21
420.15	3557.61
420.34	3691.02
420.53	3740.18
420.72	3786.99
420.91	3913.38
421.10	3768.26
421.29	3971.89
421.48	3880.61
421.67	3871.25
421.86	3716.77
422.05	3859.54
422.24	3721.45
422.43	3761.24
422.61	3899.33
422.80	3925.08
422.99	3904.01
423.18	3875.93
423.37	3969.55
423.56	3908.69
423.75	4016.36
423.94	3786.99
424.13	3768.26
424.32	3719.11
424.50	3948.48
424.69	4032.74
424.88	3922.74
425.07	3974.23
425.26	3794.01
425.45	3894.65
425.64	3953.16
425.83	4032.74
426.01	4060.83
426.20	4046.79
426.39	3927.42
426.58	3925.08
426.77	3899.33
426.96	4009.34
427.15	3936.78
427.33	4088.92
427.52	3960.19
427.71	4109.98
427.90	4058.49
428.09	4215.30
428.28	4011.68
428.46	4280.84
428.65	4182.54
428.84	4112.32
429.03	4203.60
429.22	3948.48
429.40	4032.74
429.59	4198.92
429.78	4023.38
429.97	3992.95
430.16	4007.00
430.34	4084.23
430.53	4084.23
430.72	4262.12
430.91	4037.42
431.10	4440.00
431.28	4561.70
431.47	4582.77
431.66	4713.84
431.85	4603.83
432.03	4603.83
432.22	4650.64
432.41	4580.43
432.60	4664.69
432.79	4786.40
432.97	4919.81
433.16	4858.95
433.35	4498.51
433.54	4482.13
433.72	4774.69
433.91	4636.60
434.10	4746.61
434.28	4805.12
434.47	4926.83
434.66	4842.57
434.85	5008.75
435.03	4983.00
435.22	5132.79
435.41	4915.12
435.59	4882.36
435.78	4997.04
435.97	5125.77
436.16	5334.08
436.34	5153.86
436.53	5142.16
436.72	5252.16
436.90	5268.55
437.09	5291.95
437.28	5055.56
437.46	5100.03
437.65	5193.65
437.84	5071.94
438.02	5118.75
438.21	5165.56
438.40	5013.43
438.58	5355.15
438.77	5387.91
438.96	5397.28
439.14	5528.35
439.33	5621.97
439.52	5659.42
439.70	5561.11
439.89	5500.26
440.08	5612.60
440.26	5645.37
440.45	5621.97
440.63	5893.47
440.82	5888.79
441.01	5944.96
441.19	5984.75
441.38	6136.88
441.57	6237.53
441.75	6239.87
441.94	6270.30
442.12	6314.77
442.31	6490.31
442.50	6258.59
442.68	6310.08
442.87	6487.96
443.05	6410.73
443.24	6445.84
443.43	6373.28
443.61	6242.21
443.80	6558.18
443.98	6342.85
444.17	6059.65
444.35	6583.93
444.54	6541.80
444.73	6509.03
444.91	6476.26
445.10	6558.18
445.28	6656.48
445.47	6342.85
445.65	6487.96
445.84	6665.85
446.02	6665.85
446.21	6370.94
446.39	6621.38
446.58	6663.51
446.77	6593.29
446.95	6567.54
447.14	6595.63
447.32	6839.05
447.51	6621.38
447.69	6644.78
447.88	6661.16
448.06	6707.98
448.25	6710.32
448.43	6546.48
448.62	6841.39
448.80	6661.16
448.99	6836.70
449.17	6761.81
449.36	6539.46
449.54	6953.73
449.73	6960.75
449.91	7176.08
450.10	7070.76
450.28	7262.68
450.46	7323.54
450.65	7199.49
450.83	7227.57
451.02	7047.35
451.20	7288.43
451.39	7143.32
451.57	7148.00
451.76	7056.72
451.94	7213.53
452.13	7346.94
452.31	7248.64
452.49	7049.69
452.68	7037.99
452.86	7199.49
453.05	7185.44
453.23	7162.04
453.42	7286.09
453.60	7356.30
453.78	7466.31
453.97	7248.64
454.15	7428.86
454.34	7325.88
454.52	7609.08
454.70	7445.24
454.89	7461.63
455.07	7662.91
455.26	7616.10
455.44	7843.14
455.62	7665.25
455.81	7730.79
455.99	7953.14
456.17	7808.03
456.36	7705.04
456.54	7765.90
456.73	7803.35
456.91	8147.40
457.09	8241.03
457.28	8210.60
457.46	8018.68
457.64	8203.58
457.83	8175.49
458.01	8121.66
458.19	8315.92
458.38	8152.09
458.56	8372.10
458.74	8245.71
458.93	8334.65
459.11	8318.26
459.29	8329.97
459.48	8320.60
459.66	8147.40
459.84	8388.48
460.03	8573.38
460.21	8538.27
460.39	8564.02
460.57	8524.23
460.76	8678.71
460.94	8627.21
461.12	8554.66
461.31	8753.60
461.49	8643.60
461.67	8659.98
461.85	8617.85
462.04	8823.82
462.22	9287.25
462.40	8957.23
462.59	8671.68
462.77	8812.12
462.95	9069.58
463.13	8912.76
463.32	9193.62
463.50	8959.57
463.68	9125.75
463.86	9153.84
464.05	8779.35
464.23	8816.80
464.41	9177.24
464.59	8854.25
464.78	9029.79
464.96	9078.94
465.14	9184.26
465.32	9174.90
465.50	9329.38
465.69	9254.48
465.87	9076.60
466.05	9111.71
466.23	9315.33
466.41	9217.03
466.60	9380.87
466.78	9245.12
466.96	9455.76
467.14	9184.26
467.32	9320.01
467.51	9476.83
467.69	8957.23
467.87	9511.94
468.05	9451.08
468.23	9385.55
468.41	9647.69
468.60	9579.81
468.78	9469.81
468.96	9331.72
469.14	9727.27
469.32	9778.76
469.50	9760.03
469.69	9703.86
469.87	9881.74
470.05	9928.55
470.23	9713.22
470.41	9834.93
470.59	10017.49
470.77	9797.48
470.95	9949.62
471.14	10188.35
471.32	9933.23
471.50	10441.13
471.68	10188.35
471.86	10289.00
472.04	10225.80
472.22	10483.26
472.40	10270.27
472.58	10457.51
472.77	10403.68
472.95	10707.95
473.13	10829.66
473.31	10516.03
473.49	10789.87
473.67	10745.40
473.85	10661.14
474.03	10817.96
474.21	11033.29
474.39	11147.97
474.57	11089.46
474.75	11040.31
474.93	11250.96
475.12	10911.58
475.30	11297.77
475.48	11316.49
475.66	11398.41
475.84	11342.24
476.02	11295.43
476.20	11339.90
476.38	11644.17
476.56	11728.42
476.74	11758.85
476.92	11620.76
477.10	11845.45
477.28	11899.28
477.46	12074.82
477.64	12205.89
477.82	12238.66
478.00	12531.23
478.18	12355.69
478.36	12376.75
478.54	12545.27
478.72	12540.59
478.90	12875.29
479.08	13317.65
479.26	12980.61
479.44	13090.62
479.62	13062.53
479.80	13099.98
479.98	13312.97
480.16	13453.40
480.34	13235.73
480.52	13661.71
480.70	13930.87
480.88	13603.19
481.06	13841.93
481.24	14052.58
481.41	14029.17
481.59	14305.35
481.77	14429.40
481.95	14401.32
482.13	14417.70
482.31	14658.78
482.49	14888.15
482.67	14801.55
482.85	14925.60
483.03	14963.04
483.21	15393.70
483.39	15328.17
483.57	15501.37
483.74	15625.42
483.92	15452.22
484.10	15466.26
484.28	15721.38
484.46	16098.20
484.64	16386.09
484.82	16231.62
485.00	16184.80
485.18	16425.88
485.35	16313.53
485.53	16042.03
485.71	16327.58
485.89	16240.98
486.07	16294.81
486.25	16365.03
486.43	16840.15
486.61	17188.89
486.78	17341.03
486.96	17219.32
487.14	17715.51
487.32	17853.61
487.50	17916.80
487.68	18120.43
487.85	18279.58
488.03	18487.89
488.21	18394.27
488.39	18551.09
488.57	18501.93
488.75	18850.67
488.92	19005.15
489.10	19332.82
489.28	19300.06
489.46	19861.79
489.64	19627.73
489.81	20065.41
489.99	20383.73
490.17	20088.82
490.35	20486.71
490.53	20524.16
490.70	20737.15
490.88	20318.19
491.06	20886.94
491.24	20697.36
491.41	21036.74
491.59	20826.09
491.77	20449.26
491.95	21149.08
492.13	21118.65
492.30	21500.16
492.48	21694.43
492.66	21722.51
492.84	21830.18
493.01	22162.53
493.19	22118.06
493.37	22331.05
493.54	22382.54
493.72	22520.63
493.90	22307.65
494.08	22972.36
494.25	23115.13
494.43	23192.37
494.61	23435.78
494.79	23321.10
494.96	23447.49
495.14	23543.45
495.32	23718.99
495.49	23480.25
495.67	23843.04
495.85	23941.34
496.02	24116.88
496.20	24563.92
496.38	24313.48
496.55	24353.27
496.73	25022.67
496.91	24793.29
497.09	24896.28
497.26	25106.93
497.44	24697.33
497.62	25319.92
497.79	25507.16
497.97	25226.29
498.14	25357.36
498.32	25654.61
498.50	25408.86
498.67	26057.18
498.85	25876.96
499.03	26471.46
499.20	26295.92
499.38	26380.18
499.56	26312.30
499.73	26431.67
499.91	26661.04
500.08	26560.40
500.26	26494.86
500.44	26792.11
500.61	26782.75
500.79	26518.27
500.97	26738.28
501.14	27201.71
501.32	27096.38
501.49	27276.60
501.67	27274.26
501.84	27615.98
502.02	27330.44
502.20	27639.39
502.37	27608.96
502.55	27714.28
502.72	28292.40
502.90	27714.28
503.07	27934.29
503.25	27967.06
503.43	27866.42
503.60	28100.47
503.78	27730.67
503.95	28203.46
504.13	28332.18
504.30	28360.27
504.48	28847.10
504.65	28701.99
504.83	28690.29
505.01	28802.63
505.18	28727.74
505.36	29357.34
505.53	29188.82
505.71	29457.98
505.88	29947.15
506.06	29301.17
506.23	29823.11
506.41	29469.69
506.58	29853.53
506.76	29661.61
506.93	29876.94
507.11	29645.23
507.28	30033.75
507.46	29741.19
507.63	30094.61
507.81	30057.16
507.98	30199.93
508.16	29907.37
508.33	30749.96
508.50	30951.24
508.68	31005.08
508.85	31094.02
509.03	31077.63
509.20	31182.96
509.38	31384.24
509.55	31243.81
509.73	31299.98
509.90	31772.77
510.08	31180.62
510.25	31548.08
510.42	31527.02
510.60	31772.77
510.77	31842.99
510.95	31660.43
511.12	32158.96
511.30	32369.61
511.47	32409.40
511.64	32299.39
511.82	32587.28
511.99	32245.56
512.17	32371.95
512.34	32182.37
512.51	32224.50
512.69	32538.13
512.86	32704.31
513.04	32765.16
513.21	32746.44
513.38	32734.73
513.56	32687.92
513.73	32826.01
513.90	32987.51
514.08	32971.13
514.25	33003.89
514.43	32975.81
514.60	33488.38
514.77	33074.11
514.95	33600.73
515.12	33736.48
515.29	33228.59
515.47	34068.84
515.64	33900.32
515.81	33600.73
515.99	34155.44
516.16	33605.41
516.33	33188.80
516.51	33546.90
516.68	32891.55
516.85	33123.26
517.03	33390.08
517.20	33795.00
517.37	34143.74
517.54	34398.85
517.72	34045.43
517.89	34068.84
518.06	34267.78
518.24	34160.12
518.41	34141.39
518.58	34700.78
518.75	34696.10
518.93	34731.21
519.10	34527.58
519.27	34693.76
519.45	34806.11
519.62	35229.74
519.79	35175.91
519.96	35398.26
520.14	35690.83
520.31	35112.72
520.48	35473.16
520.65	35442.73
520.83	35639.34
521.00	35786.79
521.17	35901.48
521.34	35768.07
521.52	36212.77
521.69	35964.67
521.86	36048.93
522.03	36062.97
522.20	35782.11
522.38	36350.86
522.55	36231.49
522.72	36002.12
522.89	36100.42
523.07	36540.44
523.24	36596.62
523.41	36875.14
523.58	36818.97
523.75	37509.43
523.92	36992.17
524.10	36921.95
524.27	37310.48
524.44	37081.11
524.61	37357.29
524.78	37357.29
524.96	37530.49
525.13	37420.48
525.30	37916.68
525.47	37371.33
525.64	37546.87
525.81	37467.30
525.98	37453.25
526.16	36950.04
526.33	37247.29
526.50	37291.76
526.67	36877.48
526.84	37085.79
527.01	37141.96
527.18	37544.53
527.36	38155.41
527.53	38352.02
527.70	38270.10
527.87	38014.98
528.04	38469.04
528.21	38319.25
528.38	37947.11
528.55	38501.81
528.72	38675.01
528.89	38843.53
529.07	38684.37
529.24	38096.90
529.41	38792.04
529.58	38761.61
529.75	38831.83
529.92	39264.83
530.09	38958.22
530.26	38918.43
530.43	39442.71
530.60	38756.93
530.77	39086.95
530.94	39353.77
531.11	39182.91
531.28	39325.68
531.46	39054.18
531.63	39707.19
531.80	39321.00
531.97	39271.85
532.14	39409.94
532.31	39136.10
532.48	39133.76
532.65	39236.74
532.82	39622.93
532.99	39388.88
533.16	39325.68
533.33	39548.03
533.50	39737.62
533.67	39892.09
533.84	39639.31
534.01	39627.61
534.18	39393.56
534.35	40016.14
534.52	40217.43
534.69	40121.46
534.86	40306.37
535.03	40121.46
535.20	40818.94
535.37	40858.73
535.54	41123.21
535.71	40318.07
535.88	40598.93
536.05	40552.12
536.22	40524.04
536.38	40627.02
536.55	40304.02
536.72	40797.88
536.89	40570.85
537.06	40502.97
537.23	41062.36
537.40	40957.03
537.57	40655.11
537.74	40947.67
537.91	41450.89
538.08	41432.16
538.25	40898.52
538.42	41233.22
538.59	41247.26
538.75	40739.36
538.92	41455.57
539.09	41282.37
539.26	41432.16
539.43	41195.77
539.60	41198.11
539.77	41013.21
539.94	41118.53
540.11	41233.22
540.28	41179.39
540.44	41593.66
540.61	41385.35
540.78	41078.74
540.95	41078.74
541.12	41436.84
541.29	41574.94
541.46	41998.57
541.62	41848.78
541.79	42497.11
541.96	41322.16
542.13	41600.68
542.30	41897.93
542.47	42073.47
542.63	41876.86
542.80	42146.03
542.97	42319.23
543.14	42752.23
543.31	42349.65
543.48	42396.46
543.64	42815.42
543.81	42951.17
543.98	42810.74
544.15	43040.11
544.32	42883.30
544.48	42855.21
544.65	42698.39
544.82	42831.80
544.99	42403.49
545.16	43035.43
545.32	42787.33
545.49	42906.70
545.66	43323.32
545.83	43086.92
546.00	43005.00
546.16	43063.52
546.33	42916.06
546.50	42731.16
546.67	42667.97
546.83	42780.31
547.00	42974.58
547.17	43021.39
547.34	43161.82
547.50	42857.55
547.67	43040.11
547.84	43700.14
548.00	43257.78
548.17	42995.64
548.34	43536.30
548.51	43662.69
548.67	43892.07
548.84	43632.27
549.01	43620.56
549.18	43264.80
549.34	43587.80
549.51	43512.90
549.68	43761.00
549.84	43906.11
550.01	44013.77
550.18	43646.31
550.34	43817.17
550.51	43676.74
550.68	43842.92
550.84	43592.48
551.01	44109.74
551.18	43768.02
551.34	44058.24
551.51	44158.89
551.68	44158.89
551.84	43805.47
552.01	43838.23
552.18	44067.61
552.34	43571.41
552.51	44198.68
552.68	43683.76
552.84	44109.74
553.01	44561.46
553.18	44044.20
553.34	44011.43
553.51	44294.64
553.67	44463.16
553.84	44776.79
554.01	44734.66
554.17	44453.79
554.34	44498.26
554.51	44762.75
554.67	44545.08
554.84	44229.10
555.00	44285.28
555.17	44383.58
555.33	44879.77
555.50	44758.06
555.67	44526.35
555.83	44554.44
556.00	44884.45
556.16	45310.43
556.33	44662.10
556.50	44706.57
556.66	44711.25
556.83	44402.30
556.99	44959.35
557.16	44626.99
557.32	44793.17
557.49	44919.56
557.65	44343.79
557.82	44919.56
557.98	44741.68
558.15	44945.31
558.32	44722.96
558.48	44495.92
558.65	44786.15
558.81	44411.67
558.98	44701.89
559.14	45052.97
559.31	44758.06
559.47	44830.62
559.64	45069.36
559.80	44987.44
559.97	45202.77
560.13	44975.73
560.30	45050.63
560.46	44975.73
560.63	45322.13
560.79	45764.49
560.96	45631.08
561.12	44758.06
561.29	44919.56
561.45	45170.00
561.61	45020.20
561.78	44907.86
561.94	45219.15
562.11	45275.32
562.27	45390.01
562.44	45193.40
562.60	45443.84
562.77	45436.82
562.93	45497.67
563.10	45462.57
563.26	45392.35
563.42	45640.45
563.59	45453.20
563.75	45436.82
563.92	45815.99
564.08	45490.65
564.24	45556.19
564.41	45317.45
564.57	45502.35
564.74	45546.82
564.90	45289.37
565.07	45584.27
565.23	45727.05
565.39	45284.68
565.56	45516.40
565.72	44931.26
565.88	45509.38
566.05	45340.86
566.21	45202.77
566.38	45750.45
566.54	45553.85
566.70	45492.99
566.87	46185.79
567.03	45776.20
567.19	46047.70
567.36	45830.03
567.52	45876.84
567.68	45942.38
567.85	45235.53
568.01	46014.93
568.17	45478.95
568.34	45528.10
568.50	45701.30
568.66	45500.01
568.83	45741.09
568.99	45549.17
569.15	45553.85
569.32	45610.02
569.48	45811.31
569.64	45823.01
569.81	46026.63
569.97	45558.53
570.13	45762.15
570.30	45212.13
570.46	45308.09
570.62	45528.10
570.78	45221.49
570.95	45340.86
571.11	45914.29
571.27	45415.76
571.43	45301.07
571.60	46066.42
571.76	45549.17
571.92	45392.35
572.09	45813.65
572.25	46059.40
572.41	45551.51
572.57	45720.02
572.74	46506.44
572.90	45661.51
573.06	46396.44
573.22	46087.49
573.38	45993.87
573.55	45368.94
573.71	46050.04
573.87	45984.51
574.03	45514.06
574.20	45890.88
574.36	45619.38
574.52	45970.46
574.68	45888.54
574.84	45806.62
575.01	45727.05
575.17	45893.22
575.33	45556.19
575.49	45691.94
575.65	46021.95
575.82	45729.39
575.98	45464.91
576.14	46024.29
576.30	45942.38
576.46	45888.54
576.62	45617.04
576.79	45521.08
576.95	45703.64
577.11	45886.20
577.27	45708.32
577.43	45895.56
577.59	45626.40
577.75	45813.65
577.92	45509.38
578.08	45406.39
578.24	45628.74
578.40	45776.20
578.56	45902.59
578.72	45677.90
578.88	46384.74
579.04	45495.33
579.21	45687.26
579.37	45823.01
579.53	46251.33
579.69	45382.99
579.85	45549.17
580.01	45874.50
580.17	45820.67
580.33	45804.28
580.49	46328.56
580.65	46066.42
580.82	45462.57
580.98	45722.37
581.14	45427.46
581.30	46071.10
581.46	46028.98
581.62	46150.68
581.78	45647.47
581.94	46504.10
582.10	46199.83
582.26	46021.95
582.42	46085.15
582.58	45701.30
582.74	45869.82
582.90	46061.74
583.06	46293.46
583.22	45886.20
583.38	46171.75
583.54	46656.24
583.70	46108.55
583.86	46234.94
584.02	45703.64
584.18	46174.09
584.34	46043.02
584.50	45855.78
584.66	45890.88
584.82	45738.75
584.98	45942.38
585.14	46019.61
585.30	45743.43
585.46	46106.21
585.62	45490.65
585.78	46005.57
585.94	45808.96
586.10	45911.95
586.26	45647.47
586.42	45832.37
586.58	46127.28
586.74	45764.49
586.90	45794.92
587.06	45794.92
587.22	46028.98
587.38	46101.53
587.54	46080.47
587.70	46124.94
587.86	46281.75
588.02	45979.82
588.18	45944.72
588.34	46045.36
588.49	45378.31
588.65	45312.77
588.81	45516.40
588.97	45593.64
589.13	45701.30
589.29	45074.04
589.45	45673.21
589.61	45715.34
589.77	46146.00
589.93	46040.68
590.08	45956.42
590.24	46071.10
590.40	46169.41
590.56	46302.82
590.72	46244.30
590.88	45977.48
591.04	45954.08
591.20	46536.87
591.35	46583.68
591.51	46405.80
591.67	46000.89
591.83	45815.99
591.99	46050.04
592.15	45968.12
592.31	46059.40
592.46	46202.18
592.62	46024.29
592.78	45935.35
592.94	46064.08
593.10	46361.33
593.26	46499.42
593.41	46504.10
593.57	45867.48
593.73	45923.65
593.89	46263.03
594.05	46052.38
594.20	46480.70
594.36	45958.76
594.52	46316.86
594.68	46117.92
594.84	45818.33
594.99	46096.85
595.15	46288.77
595.31	46466.66
595.47	46108.55
595.62	46071.10
595.78	46227.92
595.94	46293.46
596.10	46099.19
596.25	46209.20
596.41	45930.67
596.57	46190.47
596.73	46036.00
596.88	45825.35
597.04	46202.18
597.20	46146.00
597.36	46239.62
597.51	45961.10
597.67	46363.67
597.83	45986.85
597.99	46380.06
598.14	46094.51
598.30	46478.36
598.46	45883.86
598.61	46564.96
598.77	45811.31
598.93	46457.29
599.09	45757.47
599.24	46445.59
599.40	46335.59
599.56	46494.74
599.71	46171.75
599.87	46024.29
600.03	45956.42
600.18	46103.87
600.34	46183.45
600.50	46281.75
600.65	45921.31
600.81	46122.60
600.97	46335.59
601.12	46656.24
601.28	46244.30
601.44	46211.54
601.59	46291.12
601.75	45844.07
601.91	46000.89
602.06	46562.62
602.22	46038.34
602.37	46361.33
602.53	45921.31
602.69	46597.73
602.84	45715.34
603.00	46124.94
603.16	45876.84
603.31	46026.63
603.47	45759.81
603.62	45708.32
603.78	46256.01
603.94	46248.99
604.09	46391.76
604.25	45986.85
604.40	46316.86
604.56	45874.50
604.71	46260.69
604.87	46005.57
605.03	46078.13
605.18	46024.29
605.34	46061.74
605.49	45689.60
605.65	46167.07
605.80	45696.62
605.96	45811.31
606.12	45764.49
606.27	45876.84
606.43	45638.11
606.58	46108.55
606.74	46361.33
606.89	45790.24
607.05	46096.85
607.20	46136.64
607.36	46387.08
607.51	46185.79
607.67	45799.60
607.82	45511.72
607.98	46045.36
608.13	45837.05
608.29	45710.66
608.44	45315.11
608.60	45357.24
608.75	45628.74
608.91	45752.79
609.06	45574.91
609.22	45680.24
609.37	45701.30
609.53	45390.01
609.68	46040.68
609.84	45619.38
609.99	45865.14
610.15	45291.71
610.30	45539.80
610.46	45305.75
610.61	45385.33
610.76	45675.55
610.92	45881.52
611.07	45823.01
611.23	45584.27
611.38	45867.48
611.54	45153.62
611.69	45235.53
611.84	45586.61
612.00	45214.47
612.15	44935.95
612.31	45640.45
612.46	45635.77
612.62	45668.53
612.77	45027.23
612.92	45528.10
613.08	45448.52
613.23	44893.82
613.39	44594.23
613.54	44463.16
613.69	45144.25
613.85	44825.94
614.00	45251.92
614.15	44638.70
614.31	44856.37
614.46	45390.01
614.62	45280.00
614.77	44825.94
614.92	44744.02
615.08	44954.67
615.23	44626.99
615.38	45074.04
615.54	44465.50
615.69	44758.06
615.84	44463.16
616.00	44685.51
616.15	44715.93
616.30	44685.51
616.46	44334.43
616.61	44212.72
616.76	44107.40
616.92	44381.24
617.07	44765.09
617.22	44353.15
617.37	44727.64
617.53	44884.45
617.68	44744.02
617.83	44589.55
617.99	44301.66
618.14	44648.06
618.29	44582.52
618.45	44189.31
618.60	44004.41
618.75	43540.99
618.90	44275.91
619.06	44156.55
619.21	44449.11
619.36	44381.24
619.51	43629.93
619.67	44329.75
619.82	44023.14
619.97	44177.61
620.12	43674.40
620.28	43665.03
620.43	44039.52
620.58	44002.07
620.73	43887.39
620.89	43915.47
621.04	44184.63
621.19	44147.18
621.34	43807.81
621.49	43213.31
621.65	43676.74
621.80	44266.55
621.95	44065.27
622.10	44280.60
622.25	44039.52
622.41	43915.47
622.56	43723.55
622.71	43941.22
622.86	43634.61
623.01	43372.47
623.16	43758.66
623.32	43435.66
623.47	43370.13
623.62	43812.49
623.77	43248.42
623.92	43208.63
624.07	43033.09
624.23	42810.74
624.38	43180.54
624.53	43079.90
624.68	43622.90
624.83	43487.15
624.98	43157.14
625.13	42740.52
625.29	43349.06
625.44	43091.60
625.59	42539.24
625.74	43051.81
625.89	42609.45
626.04	42712.44
626.19	42859.89
626.34	42880.95
626.49	42815.42
626.65	42733.50
626.80	43012.02
626.95	42408.17
627.10	42651.58
627.25	42986.28
627.40	42146.03
627.55	42368.38
627.70	42213.90
627.85	42550.94
628.00	42593.07
628.15	42801.38
628.30	42197.52
628.45	42637.54
628.60	42274.76
628.76	42717.12
628.91	42237.31
629.06	42267.73
629.21	42377.74
629.36	42359.02
629.51	42370.72
629.66	42471.36
629.81	42340.29
629.96	42213.90
630.11	42232.63
630.26	42096.88
630.41	42279.44
630.56	42071.13
630.71	41965.81
630.86	42223.26
631.01	41832.39
631.16	41727.07
631.31	41933.04
631.46	41675.58
631.61	41329.18
631.76	41804.31
631.91	41921.34
632.06	42019.64
632.21	42148.37
632.36	42117.94
632.51	42005.59
632.66	41876.86
632.81	41535.15
632.96	41923.68
633.10	41261.30
633.25	41464.93
633.40	41890.91
633.55	41684.94
633.70	41560.89
633.85	41588.98
634.00	41523.44
634.15	41773.88
634.30	41331.52
634.45	41373.65
634.60	41364.29
634.75	41013.21
634.90	41134.92
635.05	41668.56
635.19	41123.21
635.34	41600.68
635.49	41275.35
635.64	41247.26
635.79	41067.04
635.94	40891.50
636.09	41043.63
636.24	41179.39
636.39	40715.96
636.53	41097.47
636.68	40999.16
636.83	40704.26
636.98	40816.60
637.13	40982.78
637.28	40840.01
637.43	41258.96
637.57	41350.24
637.72	40737.02
637.87	40870.43
638.02	40690.21
638.17	40832.99
638.32	40931.29
638.46	40896.18
638.61	40411.69
638.76	41015.55
638.91	40484.25
639.06	41008.53
639.20	41338.54
639.35	40650.42
639.50	40601.27
639.65	40360.20
639.80	40556.80
639.94	40381.26
640.09	40404.67
640.24	40416.37
640.39	40556.80
640.54	40362.54
640.68	40142.53
640.83	40449.14
640.98	40086.36
641.13	39784.43
641.27	40549.78
641.42	40062.95
641.57	40112.10
641.72	40210.40
641.86	40032.52
642.01	39536.33
642.16	39889.75
642.31	39590.16
642.45	40280.62
642.60	39295.25
642.75	39711.87
642.90	39812.51
643.04	39992.73
643.19	40135.51
643.34	40226.79
643.48	39826.56
643.63	39573.78
643.78	39592.50
643.93	39789.11
644.07	39489.52
644.22	39732.93
644.37	39807.83
644.51	39501.22
644.66	39283.55
644.81	39761.02
644.95	39988.05
645.10	39772.72
645.25	39990.39
645.39	39182.91
645.54	39629.95
645.69	39501.22
645.83	39463.77
645.98	39030.77
646.13	39402.92
646.27	39016.73
646.42	39290.57
646.57	39023.75
646.71	38960.56
646.86	39828.90
647.00	39229.72
647.15	39065.88
647.30	39325.68
647.44	38958.22
647.59	39203.97
647.74	38892.68
647.88	39051.84
648.03	38983.96
648.17	38506.49
648.32	38635.22
648.47	38719.48
648.61	38635.22
648.76	39271.85
648.90	38906.73
649.05	38684.37
649.20	39007.37
649.34	39065.88
649.49	38520.54
649.63	38710.12
649.78	38993.32
649.92	38440.96
650.07	39168.87
650.21	38642.24
650.36	38438.62
650.51	38518.20
650.65	38689.06
650.80	39164.18
650.94	38775.66
651.09	38410.53
651.23	38333.29
651.38	38167.12
651.52	38068.81
651.67	38211.59
651.81	38213.93
651.96	38146.05
652.10	38274.78
652.25	38237.33
652.39	38602.46
652.54	38536.92
652.68	37963.49
652.83	38534.58
652.97	38787.36
653.12	38176.48
653.26	37818.38
653.41	38265.42
653.55	38103.92
653.70	38082.86
653.84	37968.17
653.99	38113.28
654.13	37570.28
654.27	37968.17
654.42	38202.22
654.56	38157.75
654.71	37869.87
654.85	37460.27
655.00	38005.62
655.14	37298.78
655.29	37469.64
655.43	37404.10
655.57	37120.90
655.72	37116.22
655.86	36999.19
656.01	36591.94
656.15	36786.20
656.30	36814.29
656.44	37317.50
656.58	37366.65
656.73	37497.72
656.87	37486.02
657.01	37170.05
657.16	37090.47
657.30	36453.84
657.45	37038.98
657.59	37275.37
657.73	37078.77
657.88	37006.21
658.02	37006.21
658.16	37095.15
658.31	37158.34
658.45	36952.38
658.60	36739.39
658.74	37031.96
658.88	36886.84
659.03	37081.11
659.17	36795.56
659.31	36652.79
659.46	36411.71
659.60	36720.66
659.74	36659.81
659.89	36313.41
660.03	36240.86
660.17	36755.77
660.32	36229.15
660.46	36835.35
660.60	36547.47
660.74	36158.94
660.89	36432.78
661.03	36208.09
661.17	35988.08
661.32	36147.23
661.46	36275.96
661.60	35873.39
661.74	35873.39
661.89	35782.11
662.03	35938.93
662.17	35849.99
662.31	35819.56
662.46	36112.13
662.60	36088.72
662.74	35922.54
662.88	35653.38
663.03	35393.58
663.17	35250.81
663.31	35421.67
663.45	35468.48
663.60	35517.63
663.74	35206.34
663.88	35597.21
664.02	35068.25
664.17	35199.32
664.31	35131.44
664.45	35112.72
664.59	35208.68
664.73	35105.70
664.88	35178.25
665.02	34562.69
665.16	34824.83
665.30	34653.97
665.44	34541.63
665.59	34731.21
665.73	34611.84
665.87	34642.27
666.01	34878.66
666.15	34586.10
666.29	34590.78
666.44	34471.41
666.58	34604.82
666.72	34307.57
666.86	34300.55
667.00	34787.38
667.14	34220.97
667.28	34356.72
667.43	34281.83
667.57	34300.55
667.71	33682.65
667.85	33715.42
667.99	34501.84
668.13	34038.41
668.27	33970.54
668.41	33692.01
668.56	33479.02
668.70	33497.75
668.84	33153.69
668.98	33511.79
669.12	33415.83
669.26	33383.06
669.40	32676.22
669.54	33207.52
669.68	33069.43
669.82	32985.17
669.96	32943.04
670.10	32830.69
670.25	32716.01
670.39	33029.64
670.53	32769.84
670.67	32683.24
670.81	32746.44
670.95	32538.13
671.09	32488.98
671.23	32594.30
671.37	32498.34
671.51	32222.16
671.65	32320.46
671.79	31990.44
671.93	31908.52
672.07	32196.41
672.21	32135.56
672.35	31861.71
672.49	31798.52
672.63	31990.44
672.77	31770.43
672.91	31964.70
673.05	31716.60
673.19	31304.67
673.33	31599.57
673.47	31501.27
673.61	31318.71
673.75	31225.09
673.89	31353.82
674.03	31180.62
674.17	31150.19
674.31	30939.54
674.45	30981.67
674.59	30822.51
674.73	31061.25
674.87	31140.83
675.01	30721.87
675.15	31016.78
675.29	30747.62
675.43	30855.28
675.56	30595.48
675.70	30754.64
675.84	30529.95
675.98	29280.10
676.12	30368.45
676.26	30199.93
676.40	30738.26
676.54	30026.73
676.68	29614.80
676.82	29465.00
676.96	29816.08
677.10	29734.17
677.23	29488.41
677.37	29640.54
677.51	29483.73
677.65	29097.54
677.79	28919.66
677.93	29043.71
678.07	28884.55
678.21	28294.74
678.34	28657.52
678.48	28531.13
678.62	28273.67
678.76	28184.73
678.90	28297.08
679.04	28308.78
679.18	28327.50
679.31	28224.52
679.45	27976.42
679.59	27758.75
679.73	28027.92
679.87	27772.80
680.00	27810.25
680.14	27793.86
680.28	27784.50
680.42	27777.48
680.56	27541.08
680.70	27449.80
680.83	27360.86
680.97	27115.11
681.11	27213.41
681.25	26909.14
681.39	27072.98
681.52	27295.33
681.66	26630.62
681.80	26508.91
681.94	26398.90
682.07	25982.29
682.21	26410.60
682.35	26078.25
682.49	26045.48
682.62	25837.17
682.76	26024.42
682.90	25649.93
683.04	25848.88
683.17	25544.61
683.31	25537.59
683.45	25348.00
683.59	25748.23
683.72	25785.68
683.86	25523.54
684.00	25350.34
684.13	25331.62
684.27	25137.35
684.41	24835.42
684.55	24879.89
684.68	24819.04
684.82	24746.48
684.96	24552.22
685.09	24655.20
685.23	24552.22
685.37	24620.10
685.50	24196.46
685.64	24858.83
685.78	24517.11
685.91	24252.63
686.05	23936.66
686.19	23653.45
686.32	23796.23
686.46	23300.03
686.60	23358.55
686.73	23105.77
686.87	23096.41
687.01	23243.86
687.14	23108.11
687.28	22897.46
687.42	23122.15
687.55	22810.86
687.69	22885.76
687.82	22977.04
687.96	22759.37
688.10	22478.50
688.23	22600.21
688.37	22396.59
688.50	22504.25
688.64	22097.00
688.78	22324.03
688.91	22111.04
689.05	21841.88
689.18	21666.34
689.32	21481.44
689.46	21986.99
689.59	22050.19
689.73	21680.38
689.86	21755.28
690.00	21589.10
690.13	21579.74
690.27	21270.79
690.41	21488.46
690.54	21165.46
690.68	21029.71
690.81	21317.60
690.95	21015.67
691.08	20805.02
691.22	21043.76
691.35	20999.29
691.49	20987.58
691.62	20769.91
691.76	20776.94
691.89	20556.93
692.03	20570.97
692.16	20442.24
692.30	20460.96
692.43	20011.58
692.57	20177.76
692.70	19967.11
692.84	19861.79
692.97	19690.93
693.11	19424.11
693.24	19515.39
693.38	19536.45
693.51	19548.15
693.65	19389.00
693.78	19414.74
693.92	19564.54
694.05	19405.38
694.19	19147.92
694.32	19068.34
694.45	19248.57
694.59	18934.93
694.72	19213.46
694.86	18728.97
694.99	18780.46
695.13	18494.91
695.26	18513.64
695.39	18560.45
695.53	18745.35
695.66	18761.73
695.80	18354.48
695.93	18230.43
696.07	18097.02
696.20	17881.69
696.33	18118.09
696.47	18097.02
696.60	17942.55
696.73	17736.58
696.87	17621.89
697.00	17624.23
697.14	17462.74
697.27	17345.71
697.40	17226.34
697.54	17200.60
697.67	17216.98
697.80	17448.69
697.94	17319.96
698.07	17097.61
698.21	17069.53
698.34	17013.35
698.47	16971.22
698.61	16645.89
698.74	16741.85
698.87	16805.05
699.01	16423.54
699.14	16259.70
699.27	16332.26
699.40	16423.54
699.54	16194.17
699.67	16067.78
699.80	15826.70
699.94	15742.44
700.07	16133.31
700.20	15843.09
700.34	15925.00
700.47	15843.09
700.60	15896.92
700.73	15850.11
700.87	15459.24
701.00	15613.71
701.13	15756.49
701.26	15218.16
701.40	15267.31
701.53	15183.06
701.66	15279.02
701.79	15119.86
701.93	14792.19
702.06	14941.98
702.19	14846.02
702.32	14794.53
702.46	14998.15
702.59	14640.05
702.72	14853.04
702.85	14473.87
702.99	14546.43
703.12	14424.72
703.25	14148.54
703.38	14235.14
703.51	14417.70
703.65	14277.27
703.78	13802.14
703.91	14059.60
704.04	13954.27
704.17	13886.40
704.31	13750.65
704.44	13898.10
704.57	13867.67
704.70	13532.98
704.83	13547.02
704.96	13664.05
705.10	13757.67
705.23	13378.50
>>>>>End Processed Spectral Data<<<<<
