SpectraSuite Data File
++++++++++++++++++++++++++++++++++++
Date: Fri Oct 25 10:48:20 EDT 2013
User: price-jones
Dark Spectrum Present: No
Reference Spectrum Present: No
Number of Sampled Component Spectra: 1
Spectrometers: USB2+H05261
Integration Time (usec): 100000 (USB2+H05261)
Spectra Averaged: 1 (USB2+H05261)
Boxcar Smoothing: 0 (USB2+H05261)
Correct for Electrical Dark: No (USB2+H05261)
Strobe/Lamp Enabled: No (USB2+H05261)
Correct for Detector Non-linearity: No (USB2+H05261)
Correct for Stray Light: No (USB2+H05261)
Number of Pixels in Processed Spectrum: 2048
>>>>>Begin Processed Spectral Data<<<<<
365.73	159.16
365.92	159.16
366.12	159.16
366.32	32.77
366.52	42.13
366.72	77.24
366.91	14.04
367.11	49.15
367.31	60.85
367.51	44.47
367.70	0.00
367.90	37.45
368.10	93.62
368.30	51.49
368.49	81.92
368.69	124.05
368.89	140.43
369.09	88.94
369.28	110.01
369.48	63.19
369.68	37.45
369.87	119.37
370.07	159.16
370.27	170.86
370.47	243.42
370.66	425.98
370.86	409.59
371.06	479.81
371.25	517.26
371.45	482.15
371.65	543.00
371.84	470.45
372.04	559.39
372.24	503.22
372.44	484.49
372.63	526.62
372.83	533.64
373.03	524.28
373.22	559.39
373.42	585.13
373.62	540.66
373.81	582.79
374.01	601.52
374.21	629.60
374.40	575.77
374.60	601.52
374.79	528.96
374.99	641.31
375.19	554.71
375.38	578.11
375.58	624.92
375.78	627.26
375.97	660.03
376.17	704.50
376.37	573.43
376.56	662.37
376.76	641.31
376.95	629.60
377.15	671.73
377.35	615.56
377.54	678.76
377.74	643.65
377.93	720.88
378.13	709.18
378.33	601.52
378.52	645.99
378.72	695.14
378.91	723.23
379.11	631.94
379.31	664.71
379.50	692.80
379.70	706.84
379.89	753.65
380.09	709.18
380.28	741.95
380.48	730.25
380.68	732.59
380.87	730.25
381.07	734.93
381.26	723.23
381.46	748.97
381.65	683.44
381.85	793.44
382.04	821.53
382.24	671.73
382.43	767.70
382.63	753.65
382.83	727.91
383.02	777.06
383.22	823.87
383.41	713.86
383.61	854.30
383.80	819.19
384.00	807.48
384.19	875.36
384.39	830.89
384.58	763.01
384.78	837.91
384.97	849.61
385.17	830.89
385.36	880.04
385.56	718.54
385.75	812.17
385.95	858.98
386.14	849.61
386.34	971.32
386.53	823.87
386.72	940.90
386.92	936.21
387.11	915.15
387.31	884.72
387.50	938.55
387.70	968.98
387.89	912.81
388.09	901.11
388.28	922.17
388.48	950.26
388.67	957.28
388.86	1011.11
389.06	1034.52
389.25	1008.77
389.45	1095.37
389.64	999.41
389.84	1081.33
390.03	1050.90
390.22	1039.20
390.42	1076.65
390.61	1128.14
390.81	1104.73
391.00	1174.95
391.19	1116.44
391.39	1156.22
391.58	1181.97
391.78	1055.58
391.97	1097.71
392.16	1144.52
392.36	1109.41
392.55	1078.99
392.75	1128.14
392.94	943.24
393.13	1100.05
393.33	1109.41
393.52	1163.25
393.71	1146.86
393.91	1165.59
394.10	1149.20
394.29	1219.42
394.49	1207.72
394.68	1308.36
394.88	1352.83
395.07	1387.94
395.26	1294.32
395.46	1277.93
395.65	1334.11
395.84	1277.93
396.04	1203.04
396.23	1259.21
396.42	1137.50
396.62	1252.19
396.81	1270.91
397.00	1334.11
397.19	1359.85
397.39	1327.08
397.58	1420.71
397.77	1401.98
397.97	1497.94
398.16	1441.77
398.35	1495.60
398.55	1486.24
398.74	1619.65
398.93	1605.61
399.12	1631.35
399.32	1631.35
399.51	1542.41
399.70	1577.52
399.90	1610.29
400.09	1586.88
400.28	1722.63
400.47	1654.76
400.67	1710.93
400.86	1743.70
401.05	1748.38
401.24	1767.10
401.44	1722.63
401.63	1858.39
401.82	1703.91
402.01	1881.79
402.21	1717.95
402.40	1792.85
402.59	1832.64
402.78	1846.68
402.97	1879.45
403.17	1788.17
403.36	1966.05
403.55	1926.26
403.74	1975.41
403.93	2017.54
404.13	1881.79
404.32	1940.30
404.51	1837.32
404.70	2073.71
404.89	2083.08
405.09	2062.01
405.28	1935.62
405.47	1916.90
405.66	2062.01
405.85	2019.88
406.05	2136.91
406.24	2223.51
406.43	2078.40
406.62	2204.78
406.81	2134.57
407.00	2129.89
407.20	2150.95
407.39	2132.23
407.58	2356.92
407.77	2289.04
407.96	2223.51
408.15	2228.19
408.34	2363.94
408.54	2366.28
408.73	2307.77
408.92	2459.90
409.11	2452.88
409.30	2455.22
409.49	2366.28
409.68	2450.54
409.87	2394.37
410.07	2527.78
410.26	2431.82
410.45	2445.86
410.64	2518.42
410.83	2597.99
411.02	2693.96
411.21	2754.81
411.40	2544.16
411.59	2729.06
411.78	2881.20
411.98	2668.21
412.17	2801.62
412.36	2754.81
412.55	2771.19
412.74	2822.69
412.93	2738.43
413.12	2789.92
413.31	2958.44
413.50	3049.72
413.69	3059.08
413.88	3178.45
414.07	3052.06
414.26	3112.91
414.45	3061.42
414.64	3124.62
414.83	3049.72
415.02	3208.87
415.22	3293.13
415.41	3339.94
415.60	3215.90
415.79	3283.77
415.98	3431.23
416.17	3304.84
416.36	3438.25
416.55	3382.07
416.74	3412.50
416.93	3449.95
417.12	3499.10
417.31	3543.57
417.50	3386.76
417.69	3555.27
417.88	3648.90
418.07	3557.61
418.26	3428.88
418.45	3646.55
418.64	3838.48
418.83	3665.28
419.02	3705.07
419.21	3768.26
419.39	3742.52
419.58	3702.73
419.77	3719.11
419.96	3810.39
420.15	3836.14
420.34	3906.35
420.53	3967.21
420.72	4016.36
420.91	3899.33
421.10	3817.41
421.29	3934.44
421.48	3953.16
421.67	3999.98
421.86	3913.38
422.05	3901.67
422.24	3932.10
422.43	3974.23
422.61	3992.95
422.80	4002.32
422.99	4117.00
423.18	3997.64
423.37	4119.34
423.56	4219.99
423.75	4086.58
423.94	4105.30
424.13	4035.08
424.32	4053.81
424.50	4095.94
424.69	4320.63
424.88	4170.83
425.07	4131.05
425.26	4046.79
425.45	4086.58
425.64	3967.21
425.83	4025.72
426.01	4114.66
426.20	4081.89
426.39	4241.05
426.58	4149.77
426.77	3971.89
426.96	4053.81
427.15	4124.02
427.33	4231.69
427.52	4269.14
427.71	4327.65
427.90	4290.20
428.09	4203.60
428.28	4320.63
428.46	4449.36
428.65	4355.74
428.84	4526.60
429.03	4388.50
429.22	4187.22
429.40	4346.37
429.59	4201.26
429.78	4133.39
429.97	4011.68
430.16	4395.53
430.34	4311.27
430.53	4440.00
430.72	4329.99
430.91	4416.59
431.10	4428.29
431.28	4557.02
431.47	4828.53
431.66	4833.21
431.85	4662.35
432.03	4678.73
432.22	4898.74
432.41	4847.25
432.60	4844.91
432.79	5001.72
432.97	4915.12
433.16	4910.44
433.35	4809.80
433.54	4915.12
433.72	4732.56
433.91	4856.61
434.10	4952.57
434.28	4959.60
434.47	5081.30
434.66	4950.23
434.85	5118.75
435.03	5064.92
435.22	5149.18
435.41	5533.03
435.59	5240.46
435.78	5341.10
435.97	5263.86
436.16	5334.08
436.34	5268.55
436.53	5432.38
436.72	5558.77
436.90	5233.44
437.09	5394.93
437.28	5284.93
437.46	5479.19
437.65	5439.40
437.84	5451.11
438.02	5394.93
438.21	5453.45
438.40	5268.55
438.58	5610.26
438.77	5748.36
438.96	5682.82
439.14	5863.04
439.33	5823.25
439.52	5841.98
439.70	5755.38
439.89	6085.39
440.08	5961.34
440.26	5832.62
440.45	6015.18
440.63	6232.85
440.82	6284.34
441.01	6195.40
441.19	6270.30
441.38	6509.03
441.57	6331.15
441.75	6459.88
441.94	6633.08
442.12	6633.08
442.31	6626.06
442.50	6569.88
442.68	6579.25
442.87	6726.70
443.05	6738.40
443.24	6686.91
443.43	6736.06
443.61	6768.83
443.80	6871.81
443.98	6691.59
444.17	6520.73
444.35	6736.06
444.54	6965.43
444.73	6902.24
444.91	6637.76
445.10	6700.95
445.28	6703.29
445.47	6628.40
445.65	6759.47
445.84	6787.55
446.02	6878.83
446.21	6773.51
446.39	6846.07
446.58	7080.12
446.77	6836.70
446.95	6841.39
447.14	6939.69
447.32	7339.92
447.51	6960.75
447.69	6883.52
447.88	6979.48
448.06	7052.03
448.25	6974.80
448.43	7115.23
448.62	6817.98
448.80	6918.62
448.99	7098.84
449.17	7239.28
449.36	7122.25
449.54	7405.46
449.73	7227.57
449.91	7407.80
450.10	7286.09
450.28	7492.05
450.46	7407.80
450.65	7489.71
450.83	7461.63
451.02	7552.91
451.20	7604.40
451.39	7489.71
451.57	7468.65
451.76	7316.51
451.94	7590.36
452.13	7864.20
452.31	7613.76
452.49	7379.71
452.68	7520.14
452.86	7534.18
453.05	7564.61
453.23	7735.47
453.42	7564.61
453.60	7548.23
453.78	7988.25
453.97	7541.21
454.15	7751.85
454.34	7646.53
454.52	7854.84
454.70	7953.14
454.89	7777.60
455.07	7922.71
455.26	7831.43
455.44	8152.09
455.62	8046.76
455.81	8287.84
455.99	7985.91
456.17	8241.03
456.36	8212.94
456.54	8273.79
456.73	8336.99
456.91	8437.63
457.09	8379.12
457.28	8564.02
457.46	8107.62
457.64	8423.59
457.83	8365.07
458.01	8428.27
458.19	8479.76
458.38	8465.72
458.56	8669.34
458.74	8451.67
458.93	8540.61
459.11	8676.37
459.29	8781.69
459.48	8627.21
459.66	8486.78
459.84	8727.86
460.03	8828.50
460.21	8730.20
460.39	8798.07
460.57	8844.88
460.76	8858.93
460.94	8964.25
461.12	9130.43
461.31	9177.24
461.49	8980.64
461.67	9090.64
461.85	9228.73
462.04	9221.71
462.22	9458.10
462.40	9270.86
462.59	9165.54
462.77	9160.86
462.95	9156.18
463.13	9132.77
463.32	9090.64
463.50	9355.12
463.68	9331.72
463.86	9404.27
464.05	9317.67
464.23	9076.60
464.41	9502.58
464.59	9174.90
464.78	9591.52
464.96	9425.34
465.14	9465.13
465.32	9717.90
465.50	9401.93
465.69	9551.73
465.87	9781.10
466.05	9432.36
466.23	9530.66
466.41	9708.54
466.60	9701.52
466.78	9657.05
466.96	9530.66
467.14	9778.76
467.32	9579.81
467.51	9797.48
467.69	9497.89
467.87	9851.31
468.05	9881.74
468.23	9788.12
468.41	9556.41
468.60	9961.32
468.78	10019.83
468.96	10076.01
469.14	9966.00
469.32	10127.50
469.50	9659.39
469.69	10277.29
469.87	10080.69
470.05	10342.83
470.23	10122.82
470.41	10312.40
470.59	10256.23
470.77	10490.28
470.95	10274.95
471.14	10611.99
471.32	10338.15
471.50	10588.58
471.68	10532.41
471.86	10841.36
472.04	10684.55
472.22	10967.75
472.40	10785.19
472.58	10874.13
472.77	10869.45
472.95	10963.07
473.13	11187.76
473.31	10939.66
473.49	11005.20
473.67	11286.06
473.85	10972.43
474.03	11108.18
474.21	11332.87
474.39	11655.87
474.57	11576.29
474.75	11641.82
474.93	11662.89
475.12	11667.57
475.30	11527.14
475.48	11597.35
475.66	11836.09
475.84	11779.92
476.02	11747.15
476.20	11866.52
476.38	11969.50
476.56	12229.30
476.74	12313.56
476.92	11929.71
477.10	12233.98
477.28	12601.44
477.46	12643.57
477.64	12561.66
477.82	12938.48
478.00	13247.43
478.18	12959.55
478.36	13102.32
478.54	13373.82
478.72	13357.44
478.90	13310.63
479.08	13582.13
479.26	13692.13
479.44	13827.88
479.62	13848.95
479.80	13771.71
479.98	13909.80
480.16	14291.31
480.34	14171.94
480.52	14537.07
480.70	14157.90
480.88	14115.77
481.06	14501.96
481.24	14731.33
481.41	14927.94
481.59	14771.12
481.77	15356.25
481.95	15161.99
482.13	15264.97
482.31	15213.48
482.49	15428.81
482.67	15571.58
482.85	15623.08
483.03	15763.51
483.21	15819.68
483.39	15716.70
483.57	15939.05
483.74	16037.35
483.92	16084.16
484.10	16056.08
484.28	16456.31
484.46	16460.99
484.64	17235.70
484.82	16776.96
485.00	16779.30
485.18	16982.93
485.35	16830.79
485.53	16748.87
485.71	16713.77
485.89	17109.32
486.07	16917.39
486.25	17420.61
486.43	17429.97
486.61	17657.00
486.78	17600.83
486.96	18001.06
487.14	18279.58
487.32	18214.05
487.50	18735.99
487.68	18890.46
487.85	19176.01
488.03	19267.29
488.21	19536.45
488.39	19080.05
488.57	19262.61
488.75	19227.50
488.92	19765.82
489.10	19861.79
489.28	20283.08
489.46	20372.02
489.64	20479.69
489.81	20318.19
489.99	20865.88
490.17	21001.63
490.35	21135.04
490.53	21120.99
490.70	21357.39
490.88	21074.18
491.06	22078.27
491.24	21350.37
491.41	21376.11
491.59	21516.54
491.77	21673.36
491.95	22115.72
492.13	21965.93
492.30	22293.60
492.48	22625.96
492.66	22632.98
492.84	22663.41
493.01	22780.43
493.19	23040.23
493.37	22972.36
493.54	22979.38
493.72	23440.47
493.90	23686.22
494.08	23761.12
494.25	23936.66
494.43	24254.97
494.61	24301.78
494.79	24259.65
494.96	24151.99
495.14	24233.91
495.32	24615.41
495.49	24456.26
495.67	24629.46
495.85	24489.03
496.02	25319.92
496.20	25333.96
496.38	25144.38
496.55	25645.25
496.73	26307.62
496.91	25551.63
497.09	25624.18
497.26	25841.85
497.44	25933.14
497.62	26253.79
497.79	25935.48
497.97	26087.61
498.14	26424.65
498.32	26773.39
498.50	26494.86
498.67	26855.31
498.85	27101.06
499.03	27379.59
499.20	27274.26
499.38	27262.56
499.56	27152.55
499.73	27232.13
499.91	27414.69
500.08	27466.19
500.26	27243.84
500.44	27630.02
500.61	27489.59
500.79	27578.53
500.97	27847.69
501.14	28409.42
501.32	28130.90
501.49	28013.87
501.67	27957.70
501.84	28259.63
502.02	28418.78
502.20	28755.82
502.37	28989.88
502.55	28631.77
502.72	28992.22
502.90	29046.05
503.07	29149.03
503.25	28814.34
503.43	29010.94
503.60	29109.24
503.78	29406.49
503.95	29092.86
504.13	29706.08
504.30	29635.86
504.48	29481.39
504.65	29778.64
504.83	29921.41
505.01	30492.50
505.18	30157.80
505.36	30199.93
505.53	30445.69
505.71	30735.92
505.88	30719.53
506.06	30438.67
506.23	30724.21
506.41	30829.54
506.58	30834.22
506.76	30881.03
506.93	31536.38
507.11	30869.33
507.28	31222.75
507.46	31234.45
507.63	31094.02
507.81	31480.21
507.98	31201.68
508.16	31962.36
508.33	31496.59
508.50	31805.54
508.68	31702.56
508.85	32229.18
509.03	32252.58
509.20	32168.32
509.38	32395.35
509.55	32219.81
509.73	32411.74
509.90	32528.77
510.08	32385.99
510.25	32800.27
510.42	32781.54
510.60	32652.81
510.77	33322.21
510.95	33343.27
511.12	32886.87
511.30	33448.60
511.47	33603.07
511.64	33694.35
511.82	33659.24
511.99	33251.99
512.17	33532.86
512.34	33441.57
512.51	33418.17
512.69	33844.15
512.86	34066.50
513.04	34321.62
513.21	33816.06
513.38	33755.21
513.56	33951.81
513.73	33902.66
513.90	34103.95
514.08	33982.24
514.25	34410.56
514.43	34197.57
514.60	33876.91
514.77	34511.20
514.95	34691.42
515.12	34796.74
515.29	34951.22
515.47	35407.62
515.64	35098.67
515.81	34778.02
515.99	34895.05
516.16	34682.06
516.33	34560.35
516.51	34974.63
516.68	33930.75
516.85	34375.45
517.03	34773.34
517.20	35002.71
517.37	35002.71
517.54	35477.84
517.72	35515.29
517.89	35192.30
518.06	35393.58
518.24	35206.34
518.41	35402.94
518.58	36044.25
518.75	35405.28
518.93	35803.17
519.10	35866.37
519.27	36341.50
519.45	36278.30
519.62	36577.89
519.79	36294.69
519.96	36903.23
520.14	36802.58
520.31	36479.59
520.48	36940.68
520.65	36566.19
520.83	36849.39
521.00	37277.71
521.17	37015.57
521.34	37179.41
521.52	37710.71
521.69	37350.27
521.86	37284.73
522.03	37607.73
522.20	37560.92
522.38	37876.89
522.55	37427.51
522.72	37390.06
522.89	37532.83
523.07	37209.84
523.24	37745.82
523.41	38101.58
523.58	37687.31
523.75	38391.81
523.92	38326.27
524.10	38787.36
524.27	38277.12
524.44	38541.60
524.61	38391.81
524.78	38773.31
524.96	39086.95
525.13	38820.13
525.30	39328.02
525.47	39054.18
525.64	38930.13
525.81	38845.87
525.98	38909.07
526.16	38759.27
526.33	38401.17
526.50	38775.66
526.67	38876.30
526.84	39105.67
527.01	38663.31
527.18	39026.09
527.36	39173.55
527.53	39438.03
527.70	39330.36
527.87	39459.09
528.04	39470.79
528.21	39585.48
528.38	39569.10
528.55	40369.56
528.72	40289.98
528.89	40266.58
529.07	40142.53
529.24	39718.89
529.41	40123.80
529.58	39784.43
529.75	40074.65
529.92	40112.10
530.09	40376.58
530.26	40645.74
530.43	40776.81
530.60	40182.32
530.77	40629.36
530.94	40978.10
531.11	40793.20
531.28	40856.39
531.46	41045.97
531.63	40673.83
531.80	40517.01
531.97	40851.71
532.14	40521.69
532.31	40435.10
532.48	40699.58
532.65	41233.22
532.82	40299.34
532.99	40978.10
533.16	41078.74
533.33	41521.10
533.50	41776.22
533.67	41530.47
533.84	40938.31
534.01	41418.12
534.18	41689.62
534.35	41808.99
534.52	41418.12
534.69	41701.32
534.86	41743.45
535.03	41614.72
535.20	41848.78
535.37	42153.05
535.54	42153.05
535.71	41823.03
535.88	41942.40
536.05	41963.46
536.22	41858.14
536.38	42014.96
536.55	41909.63
536.72	42141.35
536.89	42206.88
537.06	41909.63
537.23	42293.48
537.40	42225.60
537.57	42349.65
537.74	42412.85
537.91	43030.75
538.08	42595.41
538.25	41865.16
538.42	42515.83
538.59	42539.24
538.75	42288.80
538.92	42670.31
539.09	42777.97
539.26	42419.87
539.43	42731.16
539.60	42916.06
539.77	42445.62
539.94	42319.23
540.11	42270.08
540.28	42838.83
540.44	42209.22
540.61	42747.54
540.78	42511.15
540.95	42359.02
541.12	42745.20
541.29	42951.17
541.46	42990.96
541.62	43070.54
541.79	42909.04
541.96	43199.27
542.13	43283.53
542.30	43084.58
542.47	43054.15
542.63	43438.00
542.80	43515.24
542.97	43606.52
543.14	43728.23
543.31	43632.27
543.48	43789.08
543.64	44266.55
543.81	43976.33
543.98	44360.17
544.15	44177.61
544.32	44383.58
544.48	44650.40
544.65	44477.20
544.82	44406.98
544.99	43594.82
545.16	44430.39
545.32	44135.48
545.49	45123.19
545.66	44605.93
545.83	44568.48
546.00	44622.31
546.16	44568.48
546.33	44561.46
546.50	44098.03
546.67	44737.00
546.83	44376.56
547.00	44376.56
547.17	44545.08
547.34	44460.82
547.50	44638.70
547.67	45207.45
547.84	44692.53
548.00	44332.09
548.17	45186.38
548.34	44816.58
548.51	45027.23
548.67	45141.91
548.84	44814.24
549.01	45137.23
549.18	44891.48
549.34	45223.83
549.51	45322.13
549.68	44863.39
549.84	45354.90
550.01	45310.43
550.18	45303.41
550.34	45404.05
550.51	45521.08
550.68	45172.34
550.84	44783.81
551.01	45502.35
551.18	45734.07
551.34	45322.13
551.51	45265.96
551.68	45722.37
551.84	45595.98
552.01	45071.70
552.18	45511.72
552.34	45649.81
552.51	45301.07
552.68	45361.92
552.84	45848.75
553.01	45867.48
553.18	45553.85
553.34	46092.17
553.51	45715.34
553.67	45968.12
553.84	46136.64
554.01	46052.38
554.17	46204.52
554.34	46277.07
554.51	46066.42
554.67	46447.93
554.84	46117.92
555.00	46131.96
555.17	45542.14
555.33	46270.05
555.50	46127.28
555.67	46192.81
555.83	46305.16
556.00	45858.12
556.16	46506.44
556.33	46131.96
556.50	46487.72
556.66	46150.68
556.83	45977.48
556.99	46429.21
557.16	46101.53
557.32	46419.84
557.49	46806.03
557.65	46319.20
557.82	46447.93
557.98	46279.41
558.15	46246.65
558.32	46316.86
558.48	46443.25
558.65	46227.92
558.81	46454.95
558.98	46237.28
559.14	46293.46
559.31	46124.94
559.47	46553.26
559.64	46504.10
559.80	46639.86
559.97	46373.03
560.13	46581.34
560.30	46309.84
560.46	46541.55
560.63	46410.48
560.79	46759.22
560.96	47309.25
561.12	46782.63
561.29	46696.03
561.45	47089.24
561.61	47086.90
561.78	46464.32
561.94	46394.10
562.11	46539.21
562.27	46803.69
562.44	46703.05
562.60	47035.41
562.77	46726.46
562.93	46799.01
563.10	46937.10
563.26	46873.91
563.42	47145.41
563.59	46653.90
563.75	46667.94
563.92	46976.89
564.08	46923.06
564.24	47140.73
564.41	46932.42
564.57	46876.25
564.74	47044.77
564.90	47049.45
565.07	47016.68
565.23	46733.48
565.39	46841.14
565.56	47044.77
565.72	47096.26
565.88	47007.32
566.05	46927.74
566.21	47215.63
566.38	46864.55
566.54	46848.16
566.70	47351.38
566.87	47622.88
567.03	47157.11
567.19	47767.99
567.36	47353.72
567.52	47189.88
567.68	47100.94
567.85	46827.10
568.01	47161.79
568.17	46965.19
568.34	47000.30
568.50	46925.40
568.66	47526.92
568.83	47250.74
568.99	46761.56
569.15	47068.17
569.32	46913.70
569.48	47117.32
569.64	47456.70
569.81	47346.70
569.97	46829.44
570.13	47253.08
570.30	46953.49
570.46	46902.00
570.62	47026.04
570.78	46909.02
570.95	47075.19
571.11	47344.36
571.27	47117.32
571.43	47077.54
571.60	47269.46
571.76	47349.04
571.92	47206.26
572.09	47288.18
572.25	46632.83
572.41	46782.63
572.57	47395.85
572.74	47412.23
572.90	47573.73
573.06	47739.91
573.22	47442.66
573.38	47290.52
573.55	46892.63
573.71	47503.51
573.87	47618.20
574.03	47051.79
574.20	47192.22
574.36	47019.02
574.52	47138.39
574.68	47217.97
574.84	47435.64
575.01	47304.57
575.17	47089.24
575.33	47433.30
575.49	47171.16
575.65	47686.07
575.82	47660.33
575.98	47302.23
576.14	47800.76
576.30	47377.12
576.46	47243.71
576.62	46880.93
576.79	47264.78
576.95	47232.01
577.11	46986.25
577.27	46967.53
577.43	47096.26
577.59	47072.85
577.75	47318.61
577.92	46621.13
578.08	46564.96
578.24	47033.07
578.40	46974.55
578.56	47578.41
578.72	47522.24
578.88	47437.98
579.04	47189.88
579.21	46916.04
579.37	47302.23
579.53	47330.31
579.69	47290.52
579.85	47449.68
580.01	47402.87
580.17	47412.23
580.33	47688.42
580.49	47253.08
580.65	47489.47
580.82	47695.44
580.98	47304.57
581.14	47547.98
581.30	47772.67
581.46	47047.11
581.62	47587.77
581.78	47187.54
581.94	48023.11
582.10	47262.44
582.26	47318.61
582.42	47718.84
582.58	47365.42
582.74	47147.75
582.90	47180.52
583.06	47496.49
583.22	47547.98
583.38	47622.88
583.54	47150.09
583.70	47763.31
583.86	47454.36
584.02	47269.46
584.18	47510.53
584.34	47798.42
584.50	47456.70
584.66	47531.60
584.82	47349.04
584.98	47627.56
585.14	47452.02
585.30	47433.30
585.46	47203.92
585.62	47222.65
585.78	47482.45
585.94	46810.71
586.10	47257.76
586.26	47103.28
586.42	47313.93
586.58	47505.85
586.74	47103.28
586.90	47578.41
587.06	47377.12
587.22	47522.24
587.38	47281.16
587.54	47470.75
587.70	47772.67
587.86	47318.61
588.02	47737.57
588.18	47622.88
588.34	47058.81
588.49	47009.66
588.65	47028.38
588.81	46710.07
588.97	46834.12
589.13	47140.73
589.29	47126.69
589.45	47363.08
589.61	47129.03
589.77	47501.17
589.93	47089.24
590.08	47662.67
590.24	47566.71
590.40	47491.81
590.56	47838.21
590.72	47496.49
590.88	47292.86
591.04	47342.02
591.20	47732.89
591.35	47887.36
591.51	47545.64
591.67	47515.22
591.83	47255.42
591.99	47311.59
592.15	47435.64
592.31	47416.91
592.46	47744.59
592.62	47384.15
592.78	47779.70
592.94	47657.99
593.10	47470.75
593.26	47566.71
593.41	47697.78
593.57	47557.35
593.73	47742.25
593.89	47473.09
594.05	47213.29
594.20	47650.97
594.36	47690.76
594.52	47583.09
594.68	47543.30
594.84	47711.82
594.99	47784.38
595.15	47751.61
595.31	47681.39
595.47	47505.85
595.62	47744.59
595.78	47288.18
595.94	47924.81
596.10	47955.24
596.25	47620.54
596.41	47660.33
596.57	47379.46
596.73	47812.46
596.88	47290.52
597.04	47576.07
597.20	47770.33
597.36	47606.50
597.51	47758.63
597.67	47384.15
597.83	47791.40
597.99	47775.02
598.14	47805.44
598.30	47662.67
598.46	47782.04
598.61	47955.24
598.77	47475.43
598.93	47351.38
599.09	47587.77
599.24	47688.42
599.40	48011.41
599.56	47634.58
599.71	47571.39
599.87	47798.42
600.03	47489.47
600.18	47735.23
600.34	47220.31
600.50	47702.46
600.65	47662.67
600.81	47779.70
600.97	48025.45
601.12	48191.63
601.28	47547.98
601.44	47739.91
601.59	47756.29
601.75	47288.18
601.91	47356.06
602.06	47938.85
602.22	47976.30
602.37	47679.05
602.53	47695.44
602.69	47887.36
602.84	47639.26
603.00	47545.64
603.16	47899.06
603.31	47873.32
603.47	47524.58
603.62	47657.99
603.78	47618.20
603.94	47922.47
604.09	47718.84
604.25	47931.83
604.40	47503.51
604.56	47641.60
604.71	47660.33
604.87	47466.06
605.03	48046.52
605.18	47262.44
605.34	47370.10
605.49	47365.42
605.65	47213.29
605.80	47344.36
605.96	47814.80
606.12	47501.17
606.27	47564.37
606.43	47423.93
606.58	47498.83
606.74	46932.42
606.89	47122.01
607.05	47171.16
607.20	47531.60
607.36	47241.37
607.51	47505.85
607.67	47309.25
607.82	47555.00
607.98	47290.52
608.13	47210.95
608.29	47672.03
608.44	47119.66
608.60	46993.28
608.75	47016.68
608.91	46623.47
609.06	46717.09
609.22	47526.92
609.37	47096.26
609.53	47466.06
609.68	47138.39
609.84	46932.42
609.99	46944.12
610.15	47267.12
610.30	47194.56
610.46	46857.52
610.61	46815.40
610.76	47023.70
610.92	46817.74
611.07	46719.43
611.23	47047.11
611.38	46932.42
611.54	46714.75
611.69	46520.49
611.84	46377.72
612.00	46464.32
612.15	46443.25
612.31	46564.96
612.46	46892.63
612.62	46763.90
612.77	46703.05
612.92	46803.69
613.08	46593.04
613.23	46618.79
613.39	46717.09
613.54	46108.55
613.69	46045.36
613.85	46415.16
614.00	46366.01
614.15	46810.71
614.31	46452.61
614.46	46759.22
614.62	46579.00
614.77	46492.40
614.92	46483.04
615.08	46857.52
615.23	46176.43
615.38	46330.90
615.54	45801.94
615.69	46017.27
615.84	46026.63
616.00	46321.54
616.15	46305.16
616.30	46337.93
616.46	46047.70
616.61	45757.47
616.76	46148.34
616.92	45680.24
617.07	46033.66
617.22	45897.91
617.37	46007.91
617.53	46787.31
617.68	46284.09
617.83	45890.88
617.99	46026.63
618.14	46169.41
618.29	45839.39
618.45	45579.59
618.60	45570.23
618.75	45785.56
618.90	45996.21
619.06	46078.13
619.21	45698.96
619.36	46003.23
619.51	45500.01
619.67	45237.87
619.82	45724.71
619.97	45865.14
620.12	45460.23
620.28	45165.32
620.43	45457.88
620.58	45825.35
620.73	45382.99
620.89	45495.33
621.04	45364.26
621.19	45340.86
621.34	45617.04
621.49	44896.16
621.65	45209.79
621.80	46000.89
621.95	45240.21
622.10	45247.24
622.25	45228.51
622.41	45146.59
622.56	45151.27
622.71	45258.94
622.86	45282.34
623.01	44734.66
623.16	45628.74
623.32	45457.88
623.47	45352.56
623.62	44966.37
623.77	45137.23
623.92	44940.63
624.07	44804.88
624.23	45085.74
624.38	44643.38
624.53	44919.56
624.68	44832.96
624.83	45006.16
624.98	44720.62
625.13	44509.97
625.29	44645.72
625.44	44938.29
625.59	44498.26
625.74	44924.24
625.89	43887.39
626.04	44425.71
626.19	44701.89
626.34	44229.10
626.49	44060.58
626.65	44732.32
626.80	44315.70
626.95	44282.94
627.10	44156.55
627.25	44240.81
627.40	44191.65
627.55	43538.65
627.70	43590.14
627.85	43667.37
628.00	44058.24
628.15	44273.57
628.30	43749.29
628.45	43983.35
628.60	43847.60
628.76	44034.84
628.91	44006.75
629.06	43971.64
629.21	43313.95
629.36	43522.26
629.51	43550.35
629.66	43281.19
629.81	43749.29
629.96	43716.53
630.11	43763.34
630.26	43482.47
630.41	43620.56
630.56	43597.16
630.71	43201.61
630.86	43601.84
631.01	43423.96
631.16	43405.23
631.31	43047.13
631.46	43255.44
631.61	43480.13
631.76	43061.18
631.91	43323.32
632.06	43487.15
632.21	43552.69
632.36	43395.87
632.51	43232.04
632.66	42897.34
632.81	43098.62
632.96	42967.55
633.10	43037.77
633.25	42438.59
633.40	43217.99
633.55	43456.73
633.70	43035.43
633.85	42752.23
634.00	42866.91
634.15	43454.39
634.30	42520.51
634.45	42508.81
634.60	42930.11
634.75	42866.91
634.90	42597.75
635.05	42916.06
635.19	42689.03
635.34	43196.93
635.49	42801.38
635.64	42539.24
635.79	42504.13
635.94	42557.96
636.09	42553.28
636.24	42616.47
636.39	42249.01
636.53	42438.59
636.68	42471.36
636.83	41975.17
636.98	42492.43
637.13	41881.55
637.28	42885.64
637.43	42454.98
637.57	42836.48
637.72	42490.09
637.87	42476.04
638.02	42518.17
638.17	42127.30
638.32	41909.63
638.46	42398.80
638.61	42436.25
638.76	41766.86
638.91	42199.86
639.06	42265.39
639.20	42237.31
639.35	42373.06
639.50	42298.16
639.65	41916.65
639.80	42316.89
639.94	41783.24
640.09	41867.50
640.24	41586.64
640.39	41783.24
640.54	41890.91
640.68	41935.38
640.83	41853.46
640.98	41715.37
641.13	41694.30
641.27	41909.63
641.42	41441.53
641.57	41544.51
641.72	41647.49
641.86	41366.63
642.01	41354.93
642.16	41450.89
642.31	41200.45
642.45	41495.36
642.60	41064.70
642.75	41256.62
642.90	41120.87
643.04	41322.16
643.19	41457.91
643.34	41244.92
643.48	41118.53
643.63	40942.99
643.78	40996.82
643.93	41064.70
644.07	40589.57
644.22	41118.53
644.37	40580.21
644.51	41015.55
644.66	41277.69
644.81	41148.96
644.95	41284.71
645.10	40985.12
645.25	41029.59
645.39	41045.97
645.54	40912.56
645.69	40996.82
645.83	40809.58
645.98	41053.00
646.13	41228.54
646.27	40751.07
646.42	40730.00
646.57	40732.34
646.71	40421.05
646.86	40425.73
647.00	40533.40
647.15	40765.11
647.30	40376.58
647.44	40935.97
647.59	40470.20
647.74	40509.99
647.88	40112.10
648.03	39854.64
648.17	40297.00
648.32	40102.74
648.47	40123.80
648.61	40006.78
648.76	40514.67
648.90	40172.96
649.05	40182.32
649.20	40339.13
649.34	40463.18
649.49	40383.60
649.63	40158.91
649.78	40107.42
649.92	40194.02
650.07	40154.23
650.21	39643.99
650.36	40006.78
650.51	40247.85
650.65	40282.96
650.80	40219.77
650.94	40240.83
651.09	39882.73
651.23	39885.07
651.38	39578.46
651.52	39931.88
651.67	40004.44
651.81	39896.77
651.96	39756.34
652.10	39697.83
652.25	39421.64
652.39	39697.83
652.54	39529.31
652.68	39903.79
652.83	39988.05
652.97	39999.76
653.12	39335.04
653.26	39494.20
653.41	39290.57
653.55	39161.84
653.70	39655.70
653.84	39267.17
653.99	39660.38
654.13	39267.17
654.27	39021.41
654.42	39147.80
654.56	39105.67
654.71	39178.23
654.85	39168.87
655.00	38990.98
655.14	38637.56
655.29	39035.45
655.43	38691.40
655.57	38841.19
655.72	38579.05
655.86	38415.21
656.01	38291.16
656.15	38323.93
656.30	38204.56
656.44	38609.48
656.58	38756.93
656.73	38391.81
656.87	38553.30
657.01	38398.83
657.16	38794.38
657.30	37956.47
657.45	38232.65
657.59	38316.91
657.73	38511.17
657.88	38445.64
658.02	38560.33
658.16	38773.31
658.31	38597.77
658.45	38436.28
658.60	38529.90
658.74	38419.89
658.88	38431.60
659.03	37928.38
659.17	37837.10
659.31	38220.95
659.46	37914.34
659.60	37668.58
659.74	37940.08
659.89	37546.87
660.03	37687.31
660.17	38148.39
660.32	38033.71
660.46	38335.63
660.60	37535.17
660.74	37752.84
660.89	37598.37
661.03	37242.60
661.17	37500.06
661.32	36776.84
661.46	37752.84
661.60	37333.89
661.74	37092.81
661.89	37244.94
662.03	37024.93
662.17	36814.29
662.31	37081.11
662.46	37352.61
662.60	37258.99
662.74	37336.23
662.88	37277.71
663.03	37151.32
663.17	37038.98
663.31	36624.70
663.45	36666.83
663.60	36638.75
663.74	36355.54
663.88	36535.76
664.02	36594.28
664.17	36662.15
664.31	36079.36
664.45	36535.76
664.59	36460.87
664.73	37022.59
664.88	36828.33
665.02	35969.35
665.16	36491.29
665.30	36601.30
665.44	36285.33
665.59	36002.12
665.73	36343.84
665.87	35751.68
666.01	35959.99
666.15	35920.20
666.29	35807.86
666.44	35950.63
666.58	35732.96
666.72	35651.04
666.86	35817.22
667.00	35922.54
667.14	35405.28
667.28	35269.53
667.43	35189.95
667.57	35086.97
667.71	35182.93
667.85	35634.66
667.99	34864.62
668.13	34927.81
668.27	35161.87
668.41	35213.36
668.56	35047.18
668.70	34862.28
668.84	35133.78
668.98	34295.87
669.12	34483.11
669.26	34646.95
669.40	34546.31
669.54	34354.38
669.68	34450.35
669.82	34162.46
669.96	34314.59
670.10	34052.45
670.25	34017.35
670.39	34342.68
670.53	34457.37
670.67	33860.53
670.81	34366.09
670.95	34190.55
671.09	34061.82
671.23	33876.91
671.37	33511.79
671.51	33673.29
671.65	33457.96
671.79	33551.58
671.93	33324.55
672.07	33535.20
672.21	33464.98
672.35	33177.09
672.49	33050.70
672.63	33216.88
672.77	33151.35
672.91	33046.02
673.05	32917.29
673.19	32746.44
673.33	32954.74
673.47	32528.77
673.61	32652.81
673.75	32535.79
673.89	32683.24
674.03	32460.89
674.17	31955.33
674.31	32280.67
674.45	32170.66
674.59	32133.21
674.73	32589.62
674.87	31992.78
675.01	31929.59
675.15	32238.54
675.29	32109.81
675.43	31835.97
675.56	31660.43
675.70	31543.40
675.84	31204.02
675.98	30862.30
676.12	31498.93
676.26	31161.89
676.40	31529.36
676.54	31269.56
676.68	31421.69
676.82	30382.49
676.96	31012.10
677.10	30569.74
677.23	30920.82
677.37	30490.16
677.51	30258.45
677.65	30691.44
677.79	30022.05
677.93	30209.29
678.07	30251.42
678.21	29511.81
678.34	29738.85
678.48	29876.94
678.62	29301.17
678.76	29537.56
678.90	29465.00
679.04	29816.08
679.18	29837.15
679.31	29249.67
679.45	28898.59
679.59	28809.65
679.73	29198.18
679.87	28959.45
680.00	28938.38
680.14	28697.31
680.28	28711.35
680.42	28589.64
680.56	28573.26
680.70	28325.16
680.83	28271.33
680.97	28027.92
681.11	28119.20
681.25	27910.89
681.39	28156.64
681.52	28053.66
681.66	28397.72
681.80	28112.17
681.94	27552.79
682.07	27690.88
682.21	27522.36
682.35	27384.27
682.49	27470.87
682.62	27192.34
682.76	27115.11
682.90	27061.27
683.04	27250.86
683.17	27122.13
683.31	26897.44
683.45	26946.59
683.59	26796.79
683.72	26354.43
683.86	26270.17
684.00	26548.70
684.13	26618.91
684.27	26078.25
684.41	26054.84
684.55	26141.44
684.68	26120.38
684.82	25736.53
684.96	25811.43
685.09	25706.10
685.23	25352.68
685.37	25406.52
685.50	25479.07
685.64	25640.57
685.78	25443.96
685.91	25273.10
686.05	25165.44
686.19	25048.41
686.32	25036.71
686.46	24833.08
686.60	24320.51
686.73	24130.92
686.87	24271.36
687.01	23995.17
687.14	23648.77
687.28	23892.19
687.42	23943.68
687.55	23386.63
687.69	23487.28
687.82	23410.04
687.96	23807.93
688.10	23903.89
688.23	23194.71
688.37	23377.27
688.50	23222.80
688.64	23349.18
688.78	22850.65
688.91	22778.09
689.05	22649.36
689.18	22597.87
689.32	22527.66
689.46	22878.74
689.59	22855.33
689.73	22349.78
689.86	22565.10
690.00	22628.30
690.13	22747.67
690.27	22288.92
690.41	22375.52
690.54	21970.61
690.68	22099.34
690.81	21921.46
690.95	21699.11
691.08	21965.93
691.22	21504.84
691.35	21731.87
691.49	21797.41
691.62	21802.09
691.76	21626.55
691.89	21565.70
692.03	21231.00
692.16	21345.69
692.30	21015.67
692.43	21399.52
692.57	20833.11
692.70	20807.36
692.84	20790.98
692.97	20702.04
693.11	20634.16
693.24	20577.99
693.38	20517.14
693.51	20154.35
693.65	20559.27
693.78	20196.48
693.92	20180.10
694.05	20489.05
694.19	19756.46
694.32	20063.07
694.45	19932.00
694.59	19836.04
694.72	19690.93
694.86	19601.99
694.99	18991.11
695.13	19185.37
695.26	19351.55
695.39	19073.03
695.53	19075.37
695.66	19391.34
695.80	19098.77
695.93	18806.20
696.07	18977.06
696.20	18820.25
696.33	18869.40
696.47	18675.13
696.60	18700.88
696.73	18642.37
696.87	18661.09
697.00	18476.19
697.14	18438.74
697.27	18279.58
697.40	17954.25
697.54	17916.80
697.67	17682.75
697.80	18197.67
697.94	18015.10
698.07	17689.77
698.21	17422.95
698.34	17678.07
698.47	17544.66
698.61	17205.28
698.74	17446.35
698.87	17334.01
699.01	16980.59
699.14	16830.79
699.27	17254.43
699.40	16805.05
699.54	16725.47
699.67	16755.90
699.80	16802.71
699.94	16744.19
700.07	16542.91
700.20	16695.04
700.34	16341.62
700.47	16856.54
700.60	16287.79
700.73	16348.64
700.87	16320.56
701.00	16107.57
701.13	16123.95
701.26	16079.48
701.40	16018.63
701.53	15768.19
701.66	15953.09
701.79	15428.81
701.93	15384.34
702.06	15194.76
702.19	15660.52
702.32	15613.71
702.46	15318.81
702.59	15311.78
702.72	15452.22
702.85	15372.64
702.99	15442.85
703.12	15332.85
703.25	14869.42
703.38	14808.57
703.51	14958.36
703.65	14813.25
703.78	14871.76
703.91	14537.07
704.04	14459.83
704.17	14490.26
704.31	14506.64
704.44	14394.29
704.57	14087.68
704.70	14092.37
704.83	14125.13
704.96	14200.03
705.10	14022.15
705.23	14534.73
>>>>>End Processed Spectral Data<<<<<
