SpectraSuite Data File
++++++++++++++++++++++++++++++++++++
Date: Fri Oct 25 10:47:49 EDT 2013
User: price-jones
Dark Spectrum Present: No
Reference Spectrum Present: No
Number of Sampled Component Spectra: 1
Spectrometers: USB2+H05261
Integration Time (usec): 100000 (USB2+H05261)
Spectra Averaged: 1 (USB2+H05261)
Boxcar Smoothing: 0 (USB2+H05261)
Correct for Electrical Dark: No (USB2+H05261)
Strobe/Lamp Enabled: No (USB2+H05261)
Correct for Detector Non-linearity: No (USB2+H05261)
Correct for Stray Light: No (USB2+H05261)
Number of Pixels in Processed Spectrum: 2048
>>>>>Begin Processed Spectral Data<<<<<
365.73	100.64
365.92	100.64
366.12	100.64
366.32	53.83
366.52	4.68
366.72	32.77
366.91	51.49
367.11	21.06
367.31	7.02
367.51	86.60
367.70	39.79
367.90	0.00
368.10	44.47
368.30	88.94
368.49	77.24
368.69	86.60
368.89	98.30
369.09	88.94
369.28	114.69
369.48	107.66
369.68	79.58
369.87	91.28
370.07	135.75
370.27	119.37
370.47	191.92
370.66	418.96
370.86	407.25
371.06	416.62
371.25	451.72
371.45	381.51
371.65	540.66
371.84	465.77
372.04	440.02
372.24	472.79
372.44	505.56
372.63	580.45
372.83	512.58
373.03	601.52
373.22	543.00
373.42	505.56
373.62	472.79
373.81	461.09
374.01	601.52
374.21	557.05
374.40	482.15
374.60	585.13
374.79	524.28
374.99	517.26
375.19	575.77
375.38	557.05
375.58	491.51
375.78	603.86
375.97	627.26
376.17	627.26
376.37	641.31
376.56	592.16
376.76	634.29
376.95	622.58
377.15	613.22
377.35	592.16
377.54	690.46
377.74	552.37
377.93	627.26
378.13	648.33
378.33	587.47
378.52	592.16
378.72	716.20
378.91	526.62
379.11	503.22
379.31	564.07
379.50	667.05
379.70	725.57
379.89	636.63
380.09	683.44
380.28	606.20
380.48	636.63
380.68	629.60
380.87	690.46
381.07	681.10
381.26	727.91
381.46	683.44
381.65	620.24
381.85	688.12
382.04	678.76
382.24	645.99
382.43	671.73
382.63	688.12
382.83	681.10
383.02	774.72
383.22	777.06
383.41	692.80
383.61	753.65
383.80	746.63
384.00	739.61
384.19	716.20
384.39	746.63
384.58	767.70
384.78	730.25
384.97	746.63
385.17	737.27
385.36	755.99
385.56	763.01
385.75	737.27
385.95	772.38
386.14	805.14
386.34	770.04
386.53	835.57
386.72	751.31
386.92	870.68
387.11	830.89
387.31	781.74
387.50	795.78
387.70	870.68
387.89	842.59
388.09	847.27
388.28	809.83
388.48	805.14
388.67	840.25
388.86	870.68
389.06	952.60
389.25	887.06
389.45	854.30
389.64	798.12
389.84	901.11
390.03	849.61
390.22	922.17
390.42	931.53
390.61	940.90
390.81	889.40
391.00	990.05
391.19	924.51
391.39	976.00
391.58	985.37
391.78	910.47
391.97	954.94
392.16	905.79
392.36	990.05
392.55	983.02
392.75	947.92
392.94	912.81
393.13	957.28
393.33	931.53
393.52	1074.31
393.71	1022.81
393.91	1011.11
394.10	1055.58
394.29	1048.56
394.49	1022.81
394.68	1090.69
394.88	1060.26
395.07	1151.54
395.26	1076.65
395.46	1088.35
395.65	1107.07
395.84	1086.01
396.04	1188.99
396.23	1093.03
396.42	1076.65
396.62	1177.29
396.81	1196.01
397.00	1179.63
397.19	1179.63
397.39	1205.38
397.58	1261.55
397.77	1193.67
397.97	1228.78
398.16	1275.59
398.35	1338.79
398.55	1198.35
398.74	1240.48
398.93	1301.34
399.12	1366.87
399.32	1280.27
399.51	1411.34
399.70	1345.81
399.90	1441.77
400.09	1511.99
400.28	1399.64
400.47	1387.94
400.67	1437.09
400.86	1483.90
401.05	1451.13
401.24	1397.30
401.44	1504.96
401.63	1600.93
401.82	1579.86
402.01	1497.94
402.21	1554.12
402.40	1523.69
402.59	1624.33
402.78	1626.67
402.97	1596.25
403.17	1647.74
403.36	1624.33
403.55	1647.74
403.74	1720.29
403.93	1650.08
404.13	1682.85
404.32	1760.08
404.51	1654.76
404.70	1605.61
404.89	1729.66
405.09	1776.47
405.28	1769.44
405.47	1799.87
405.66	1689.87
405.85	1732.00
406.05	1750.72
406.24	1710.93
406.43	1888.81
406.62	1816.26
406.81	1781.15
407.00	1809.23
407.20	1799.87
407.39	1823.28
407.58	1842.00
407.77	1926.26
407.96	1944.99
408.15	2015.20
408.34	1980.09
408.54	1947.33
408.73	2031.58
408.92	2076.06
409.11	2118.18
409.30	1973.07
409.49	1963.71
409.68	2022.22
409.87	2069.03
410.07	2057.33
410.26	2148.61
410.45	2026.90
410.64	2169.68
410.83	2267.98
411.02	2183.72
411.21	2256.28
411.40	2188.40
411.59	2377.98
411.78	2314.79
411.98	2293.72
412.17	2356.92
412.36	2356.92
412.55	2473.95
412.74	2490.33
412.93	2375.64
413.12	2471.61
413.31	2504.37
413.50	2434.16
413.69	2567.57
413.88	2513.74
414.07	2677.57
414.26	2539.48
414.45	2511.39
414.64	2537.14
414.83	2691.62
415.02	2876.52
415.22	2717.36
415.41	2803.96
415.60	2750.13
415.79	2939.71
415.98	2906.95
416.17	2951.42
416.36	2888.22
416.55	2970.14
416.74	2902.26
416.93	2949.08
417.12	3005.25
417.31	2923.33
417.50	2799.28
417.69	3061.42
417.88	3070.78
418.07	3042.70
418.26	3115.25
418.45	3110.57
418.64	3281.43
418.83	3194.83
419.02	3112.91
419.21	3152.70
419.39	3227.60
419.58	3096.53
419.77	3159.72
419.96	3236.96
420.15	3286.11
420.34	3309.52
420.53	3379.73
420.72	3403.14
420.91	3452.29
421.10	3258.03
421.29	3442.93
421.48	3382.07
421.67	3527.19
421.86	3368.03
422.05	3503.78
422.24	3463.99
422.43	3384.41
422.61	3466.33
422.80	3478.04
422.99	3578.68
423.18	3574.00
423.37	3513.14
423.56	3613.79
423.75	3653.58
423.94	3454.63
424.13	3328.24
424.32	3396.12
424.50	3688.68
424.69	3592.72
424.88	3599.74
425.07	3485.06
425.26	3482.72
425.45	3548.25
425.64	3559.95
425.83	3543.57
426.01	3618.47
426.20	3681.66
426.39	3602.08
426.58	3564.64
426.77	3456.97
426.96	3641.87
427.15	3529.53
427.33	3634.85
427.52	3548.25
427.71	3674.64
427.90	3662.94
428.09	3798.69
428.28	3684.00
428.46	3805.71
428.65	3721.45
428.84	3920.40
429.03	3864.22
429.22	3698.05
429.40	3721.45
429.59	3822.09
429.78	3606.77
429.97	3555.27
430.16	3831.46
430.34	3894.65
430.53	3847.84
430.72	3936.78
430.91	3896.99
431.10	3868.91
431.28	4166.15
431.47	4058.49
431.66	4231.69
431.85	3971.89
432.03	4262.12
432.22	4334.67
432.41	4182.54
432.60	4180.20
432.79	4114.66
432.97	4344.03
433.16	4205.94
433.35	4283.18
433.54	4313.61
433.72	4205.94
433.91	4355.74
434.10	4348.72
434.28	4255.09
434.47	4306.59
434.66	4498.51
434.85	4463.40
435.03	4561.70
435.22	4477.44
435.41	4610.86
435.59	4603.83
435.78	4496.17
435.97	4692.77
436.16	4596.81
436.34	4519.57
436.53	4557.02
436.72	4678.73
436.90	4486.81
437.09	4734.90
437.28	4641.28
437.46	4587.45
437.65	4650.64
437.84	4770.01
438.02	4688.09
438.21	4723.20
438.40	4706.82
438.58	4854.27
438.77	4868.31
438.96	4828.53
439.14	4999.38
439.33	4978.32
439.52	5006.41
439.70	5008.75
439.89	4968.96
440.08	5074.28
440.26	5135.14
440.45	5270.89
440.63	5366.85
440.82	5432.38
441.01	5305.99
441.19	5313.02
441.38	5598.56
441.57	5432.38
441.75	5462.81
441.94	5579.84
442.12	5643.03
442.31	5631.33
442.50	5626.65
442.68	5680.48
442.87	5636.01
443.05	5654.73
443.24	5781.12
443.43	5727.29
443.61	5767.08
443.80	5874.74
443.98	5799.85
444.17	5605.58
444.35	5980.07
444.54	5909.85
444.73	5933.26
444.91	5802.19
445.10	5879.43
445.28	5886.45
445.47	5767.08
445.65	5816.23
445.84	5830.27
446.02	6157.95
446.21	5886.45
446.39	5839.64
446.58	5825.59
446.77	6026.88
446.95	5916.87
447.14	5914.53
447.32	5928.58
447.51	6099.44
447.69	5893.47
447.88	6113.48
448.06	5996.45
448.25	6085.39
448.43	6017.52
448.62	5781.12
448.80	6033.90
448.99	6104.12
449.17	5989.43
449.36	6134.54
449.54	6139.23
449.73	6256.25
449.91	6375.62
450.10	6356.90
450.28	6480.94
450.46	6483.28
450.65	6509.03
450.83	6502.01
451.02	6342.85
451.20	6504.35
451.39	6396.68
451.57	6331.15
451.76	6356.90
451.94	6593.29
452.13	6607.33
452.31	6392.00
452.49	6506.69
452.68	6443.49
452.86	6438.81
453.05	6595.63
453.23	6640.10
453.42	6733.72
453.60	6679.89
453.78	6640.10
453.97	6626.06
454.15	6696.27
454.34	6541.80
454.52	6757.13
454.70	6841.39
454.89	6832.02
455.07	6890.54
455.26	6787.55
455.44	6988.84
455.62	6932.67
455.81	6825.00
455.99	7049.69
456.17	7129.27
456.36	6944.37
456.54	7155.02
456.73	7194.81
456.91	7351.62
457.09	7393.75
457.28	7445.24
457.46	7155.02
457.64	7492.05
457.83	7269.70
458.01	7248.64
458.19	7468.65
458.38	7290.77
458.56	7370.35
458.74	7382.05
458.93	7241.62
459.11	7606.74
459.29	7384.39
459.48	7630.15
459.66	7541.21
459.84	7646.53
460.03	7791.64
460.21	7585.68
460.39	7691.00
460.57	7695.68
460.76	7756.54
460.94	7782.28
461.12	7810.37
461.31	7824.41
461.49	7995.27
461.67	7999.95
461.85	7988.25
462.04	7754.19
462.22	8358.05
462.40	8161.45
462.59	7943.78
462.77	8278.47
462.95	8231.66
463.13	8065.49
463.32	8163.79
463.50	8100.59
463.68	8241.03
463.86	7903.99
464.05	8063.15
464.23	8025.70
464.41	8077.19
464.59	8088.89
464.78	8372.10
464.96	8140.38
465.14	8133.36
465.32	8446.99
465.50	8194.22
465.69	8372.10
465.87	8491.46
466.05	8540.61
466.23	8470.40
466.41	8283.16
466.60	8521.89
466.78	8390.82
466.96	8292.52
467.14	8451.67
467.32	8475.08
467.51	8699.77
467.69	8285.50
467.87	8624.87
468.05	8638.92
468.23	8575.72
468.41	8608.49
468.60	8486.78
468.78	8903.40
468.96	8465.72
469.14	8592.11
469.32	8800.41
469.50	8699.77
469.69	8788.71
469.87	8702.11
470.05	8931.48
470.23	8830.84
470.41	9029.79
470.59	9048.51
470.77	9060.21
470.95	9186.60
471.14	9301.29
471.32	8966.59
471.50	9303.63
471.68	9329.38
471.86	9390.23
472.04	9502.58
472.22	9387.89
472.40	9247.46
472.58	9205.33
472.77	9537.68
472.95	9657.05
473.13	9860.68
473.31	9729.61
473.49	9399.59
473.67	9600.88
473.85	9628.96
474.03	10040.90
474.21	9951.96
474.39	9844.29
474.57	10008.13
474.75	10197.71
474.93	10228.14
475.12	10076.01
475.30	10291.34
475.48	10136.86
475.66	10183.67
475.84	10384.96
476.02	10431.77
476.20	10422.41
476.38	10523.05
476.56	10923.28
476.74	10633.05
476.92	10633.05
477.10	10829.66
477.28	11054.35
477.46	10860.09
477.64	10986.47
477.82	11176.06
478.00	11410.11
478.18	11351.60
478.36	11447.56
478.54	11534.16
478.72	11307.13
478.90	11475.65
479.08	11843.11
479.26	12084.19
479.44	11843.11
479.62	12060.78
479.80	12112.27
479.98	12067.80
480.16	12329.94
480.34	12301.86
480.52	12360.37
480.70	12573.36
480.88	12313.56
481.06	12531.23
481.24	12830.82
481.41	12952.52
481.59	13139.77
481.77	13085.94
481.95	13146.79
482.13	13383.18
482.31	13128.06
482.49	13535.32
482.67	13554.04
482.85	13816.18
483.03	13701.50
483.21	14200.03
483.39	14022.15
483.57	13923.85
483.74	14270.25
483.92	14295.99
484.10	14490.26
484.28	14354.51
484.46	14721.97
484.64	14855.38
484.82	14579.20
485.00	14892.83
485.18	15044.96
485.35	15122.20
485.53	14946.66
485.71	15164.33
485.89	15435.83
486.07	15431.15
486.25	15452.22
486.43	15396.04
486.61	15744.78
486.78	15871.17
486.96	16332.26
487.14	16112.25
487.32	16013.95
487.50	16566.31
487.68	16416.52
487.85	16746.53
488.03	16954.84
488.21	17167.83
488.39	17191.23
488.57	17214.64
488.75	17390.18
488.92	17390.18
489.10	17790.41
489.28	17659.34
489.46	18008.08
489.64	18553.43
489.81	18719.60
489.99	18508.96
490.17	18473.85
490.35	18649.39
490.53	18948.98
490.70	18740.67
490.88	18937.27
491.06	19047.28
491.24	18780.46
491.41	19412.40
491.59	19164.31
491.77	19180.69
491.95	19314.10
492.13	19700.29
492.30	19639.44
492.48	20009.24
492.66	19913.28
492.84	19915.62
493.01	20285.42
493.19	20294.79
493.37	20269.04
493.54	20294.79
493.72	20638.84
493.90	20947.79
494.08	21233.34
494.25	21202.91
494.43	21411.22
494.61	21422.92
494.79	21837.20
494.96	21333.98
495.14	21664.00
495.32	21806.77
495.49	22141.47
495.67	22017.42
495.85	22443.40
496.02	22457.44
496.20	22614.26
496.38	22492.55
496.55	22508.93
496.73	23161.94
496.91	23115.13
497.09	22991.08
497.26	23049.60
497.44	22944.27
497.62	22934.91
497.79	23592.60
497.97	23508.34
498.14	23658.14
498.32	23922.62
498.50	23667.50
498.67	24058.37
498.85	24032.62
499.03	24257.31
499.20	23974.11
499.38	24360.30
499.56	24561.58
499.73	24762.87
499.91	24580.31
500.08	24570.94
500.26	24535.84
500.44	24744.14
500.61	24641.16
500.79	24809.68
500.97	24966.49
501.14	25130.33
501.32	25259.06
501.49	25392.47
501.67	25193.53
501.84	25525.88
502.02	25701.42
502.20	25441.62
502.37	26146.12
502.55	25696.74
502.72	25998.67
502.90	25818.45
503.07	26092.29
503.25	26293.58
503.43	25802.07
503.60	26167.19
503.78	26253.79
503.95	26235.06
504.13	26150.81
504.30	26335.71
504.48	26780.41
504.65	26920.84
504.83	26946.59
505.01	27035.53
505.18	27028.51
505.36	27414.69
505.53	27138.51
505.71	27126.81
505.88	27456.82
506.06	27243.84
506.23	27379.59
506.41	27309.37
506.58	27653.43
506.76	27655.77
506.93	27658.11
507.11	27821.95
507.28	28393.04
507.46	27669.81
507.63	28329.84
507.81	28596.67
507.98	28182.39
508.16	28119.20
508.33	28547.51
508.50	28929.02
508.68	28699.65
508.85	29216.91
509.03	28851.78
509.20	28811.99
509.38	29043.71
509.55	29352.66
509.73	29193.50
509.90	29235.63
510.08	29125.63
510.25	29390.11
510.42	29500.11
510.60	29661.61
510.77	29762.25
510.95	29785.66
511.12	29626.50
511.30	29713.10
511.47	29809.06
511.64	30256.11
511.82	29902.68
511.99	30129.72
512.17	30284.19
512.34	30188.23
512.51	30529.95
512.69	30639.95
512.86	30866.98
513.04	30848.26
513.21	30649.32
513.38	31056.57
513.56	30932.52
513.73	30457.39
513.90	30817.83
514.08	30834.22
514.25	31065.93
514.43	30925.50
514.60	31314.03
514.77	30960.61
514.95	31611.28
515.12	31248.49
515.29	31222.75
515.47	31782.13
515.64	31845.33
515.81	31630.00
515.99	31480.21
516.16	31826.60
516.33	31463.82
516.51	31978.74
516.68	31807.88
516.85	31431.05
517.03	31873.42
517.20	31833.63
517.37	32053.64
517.54	32416.42
517.72	32643.45
517.89	32313.44
518.06	32528.77
518.24	32011.51
518.41	32039.59
518.58	32243.22
518.75	32620.05
518.93	32818.99
519.10	32793.25
519.27	33479.02
519.45	32793.25
519.62	33132.62
519.79	32999.21
519.96	32938.36
520.14	33565.62
520.31	33200.50
520.48	33680.31
520.65	33528.17
520.83	33546.90
521.00	33738.82
521.17	33832.44
521.34	33645.20
521.52	34082.88
521.69	34089.90
521.86	34199.91
522.03	33703.71
522.20	34101.61
522.38	34110.97
522.55	34099.26
522.72	34075.86
522.89	34309.91
523.07	34756.96
523.24	34012.66
523.41	34590.78
523.58	34450.35
523.75	35147.82
523.92	34857.60
524.10	35044.84
524.27	34913.77
524.44	34810.79
524.61	34986.33
524.78	35424.01
524.96	35278.89
525.13	35768.07
525.30	36002.12
525.47	35416.99
525.64	35505.93
525.81	35206.34
525.98	35409.96
526.16	35337.41
526.33	35335.07
526.50	35576.14
526.67	35204.00
526.84	35196.98
527.01	35594.87
527.18	35803.17
527.36	35744.66
527.53	36077.02
527.70	36135.53
527.87	36554.49
528.04	36009.14
528.21	36308.73
528.38	36776.84
528.55	36561.51
528.72	36392.99
528.89	36713.64
529.07	36081.70
529.24	36362.56
529.41	36779.18
529.58	36573.21
529.75	36673.85
529.92	37031.96
530.09	36524.06
530.26	36697.26
530.43	37113.87
530.60	36891.52
530.77	36858.76
530.94	37156.00
531.11	37099.83
531.28	37010.89
531.46	37200.47
531.63	37991.58
531.80	37399.42
531.97	37621.77
532.14	37596.03
532.31	37427.51
532.48	37539.85
532.65	37237.92
532.82	37713.05
532.99	37647.52
533.16	37542.19
533.33	37083.45
533.50	38059.45
533.67	37832.42
533.84	37614.75
534.01	37977.53
534.18	37986.89
534.35	38190.52
534.52	37979.87
534.69	38073.49
534.86	38265.42
535.03	38010.30
535.20	38656.29
535.37	38588.41
535.54	38794.38
535.71	38136.69
535.88	38274.78
536.05	38761.61
536.22	38822.47
536.38	38532.24
536.55	38625.86
536.72	38150.73
536.89	38504.15
537.06	38267.76
537.23	39297.59
537.40	38377.76
537.57	38799.06
537.74	38951.20
537.91	39267.17
538.08	39299.94
538.25	39358.45
538.42	39316.32
538.59	39391.22
538.75	38859.91
538.92	39459.09
539.09	39241.42
539.26	39770.38
539.43	39405.26
539.60	39264.83
539.77	39292.91
539.94	39344.41
540.11	39402.92
540.28	39335.04
540.44	39555.05
540.61	39566.76
540.78	39784.43
540.95	39620.59
541.12	39498.88
541.29	39749.32
541.46	39557.39
541.62	40076.99
541.79	40224.45
541.96	39533.99
542.13	40385.94
542.30	40067.63
542.47	40046.57
542.63	39995.07
542.80	40507.65
542.97	40051.25
543.14	40854.05
543.31	40732.34
543.48	40718.30
543.64	41095.13
543.81	40840.01
543.98	40807.24
544.15	40638.72
544.32	40713.62
544.48	41490.68
544.65	40746.39
544.82	40940.65
544.99	40783.83
545.16	41275.35
545.32	41141.94
545.49	41141.94
545.66	40926.61
545.83	41490.68
546.00	41542.17
546.16	41237.90
546.33	41383.01
546.50	40704.26
546.67	41329.18
546.83	40711.28
547.00	41015.55
547.17	41436.84
547.34	41174.70
547.50	41331.52
547.67	42321.57
547.84	41532.81
548.00	41591.32
548.17	41996.23
548.34	41125.55
548.51	41911.97
548.67	41467.27
548.84	41848.78
549.01	41572.60
549.18	41918.99
549.34	41790.27
549.51	41923.68
549.68	41816.01
549.84	42073.47
550.01	42038.36
550.18	41844.10
550.34	42291.14
550.51	41839.42
550.68	42314.55
550.84	42045.38
551.01	41947.08
551.18	42057.09
551.34	42141.35
551.51	42756.91
551.68	42059.43
551.84	42181.13
552.01	42054.75
552.18	42012.62
552.34	42382.42
552.51	42312.20
552.68	42359.02
552.84	42773.29
553.01	42625.84
553.18	42738.18
553.34	42333.27
553.51	42473.70
553.67	42382.42
553.84	43199.27
554.01	43037.77
554.17	43037.77
554.34	43175.86
554.51	42747.54
554.67	43126.71
554.84	42564.98
555.00	42990.96
555.17	42410.51
555.33	42880.95
555.50	42721.80
555.67	43152.46
555.83	42656.26
556.00	43147.78
556.16	43295.23
556.33	43075.22
556.50	43012.02
556.66	42948.83
556.83	42925.42
556.99	43445.02
557.16	43622.90
557.32	42969.90
557.49	43079.90
557.65	42880.95
557.82	43278.85
557.98	43040.11
558.15	43503.54
558.32	43409.92
558.48	43119.69
558.65	43533.96
558.81	43604.18
558.98	43438.00
559.14	43110.33
559.31	43480.13
559.47	43337.36
559.64	43704.82
559.80	43634.61
559.97	43782.06
560.13	43440.34
560.30	43419.28
560.46	43725.89
560.63	43665.03
560.79	43583.12
560.96	43976.33
561.12	44025.48
561.29	43711.84
561.45	43721.21
561.61	43419.28
561.78	43566.73
561.94	43540.99
562.11	43800.79
562.27	43508.22
562.44	43922.49
562.60	43688.44
562.77	44198.68
562.93	43887.39
563.10	43976.33
563.26	43709.50
563.42	43831.21
563.59	43782.06
563.75	43842.92
563.92	44123.78
564.08	44114.42
564.24	43863.98
564.41	43950.58
564.57	43964.62
564.74	43831.21
564.90	44325.07
565.07	44184.63
565.23	43985.69
565.39	43627.59
565.56	44460.82
565.72	43875.68
565.88	43735.25
566.05	44023.14
566.21	43798.44
566.38	44191.65
566.54	43896.75
566.70	44299.32
566.87	44971.05
567.03	44341.45
567.19	44734.66
567.36	44575.50
567.52	44451.45
567.68	44528.69
567.85	43985.69
568.01	44119.10
568.17	44311.02
568.34	44669.12
568.50	44289.96
568.66	43852.28
568.83	44903.18
568.99	43901.43
569.15	44549.76
569.32	44428.05
569.48	44083.99
569.64	44722.96
569.81	44465.50
569.97	44528.69
570.13	44273.57
570.30	43992.71
570.46	44355.49
570.62	43995.05
570.78	44313.36
570.95	44720.62
571.11	44320.38
571.27	44453.79
571.43	44170.59
571.60	44535.71
571.76	44062.93
571.92	44556.78
572.09	44444.43
572.25	44430.39
572.41	44568.48
572.57	44446.77
572.74	45282.34
572.90	44729.98
573.06	44753.38
573.22	44474.86
573.38	44737.00
573.55	43917.81
573.71	44584.86
573.87	44575.50
574.03	44027.82
574.20	44744.02
574.36	44549.76
574.52	44697.21
574.68	44189.31
574.84	44762.75
575.01	44641.04
575.17	44891.48
575.33	44044.20
575.49	44318.04
575.65	44720.62
575.82	45038.93
575.98	44687.85
576.14	45067.02
576.30	45106.80
576.46	44479.54
576.62	44634.02
576.79	44353.15
576.95	44149.53
577.11	44708.91
577.27	44484.22
577.43	44751.04
577.59	44676.15
577.75	44552.10
577.92	44839.98
578.08	44088.67
578.24	44306.34
578.40	44212.72
578.56	44729.98
578.72	44793.17
578.88	44758.06
579.04	44746.36
579.21	44744.02
579.37	44444.43
579.53	44196.34
579.69	44093.35
579.85	44870.41
580.01	44875.09
580.17	44629.34
580.33	45563.21
580.49	45109.14
580.65	44861.05
580.82	45160.64
580.98	44940.63
581.14	44589.55
581.30	45045.95
581.46	44619.97
581.62	44933.60
581.78	44865.73
581.94	45155.96
582.10	44500.61
582.26	44832.96
582.42	44809.56
582.58	44966.37
582.74	44542.74
582.90	44985.10
583.06	44868.07
583.22	44973.39
583.38	45382.99
583.54	44926.58
583.70	44940.63
583.86	44629.34
584.02	44409.32
584.18	44786.15
584.34	44786.15
584.50	44669.12
584.66	44397.62
584.82	44704.23
584.98	45205.11
585.14	44514.65
585.30	44971.05
585.46	44650.40
585.62	44652.74
585.78	44575.50
585.94	44301.66
586.10	44823.60
586.26	44519.33
586.42	44818.92
586.58	44545.08
586.74	44765.09
586.90	44591.89
587.06	44591.89
587.22	44774.45
587.38	45067.02
587.54	45116.17
587.70	45111.49
587.86	44809.56
588.02	44924.24
588.18	44989.78
588.34	44605.93
588.49	44268.89
588.65	44540.39
588.81	44362.51
588.97	44767.43
589.13	44573.16
589.29	44772.11
589.45	44879.77
589.61	45230.85
589.77	44863.39
589.93	45076.38
590.08	45017.86
590.24	45081.06
590.40	44985.10
590.56	45144.25
590.72	44907.86
590.88	45038.93
591.04	44835.30
591.20	44985.10
591.35	45296.39
591.51	45148.93
591.67	45268.30
591.83	44769.77
591.99	44701.89
592.15	44933.60
592.31	44882.11
592.46	45322.13
592.62	44905.52
592.78	45148.93
592.94	45570.23
593.10	45181.70
593.26	45219.15
593.41	45425.12
593.57	44870.41
593.73	45036.59
593.89	44744.02
594.05	45067.02
594.20	45272.98
594.36	44980.42
594.52	45020.20
594.68	45184.04
594.84	45188.72
594.99	45418.10
595.15	45202.77
595.31	45261.28
595.47	45111.49
595.62	44727.64
595.78	45734.07
595.94	44889.13
596.10	45303.41
596.25	45607.68
596.41	45673.21
596.57	45027.23
596.73	45186.38
596.88	44940.63
597.04	45240.21
597.20	45181.70
597.36	45174.68
597.51	45422.78
597.67	45406.39
597.83	45055.31
597.99	45811.31
598.14	45228.51
598.30	45467.25
598.46	44825.94
598.61	45301.07
598.77	44758.06
598.93	45006.16
599.09	44896.16
599.24	45549.17
599.40	45076.38
599.56	45563.21
599.71	45347.88
599.87	45373.63
600.03	45577.25
600.18	45287.03
600.34	45713.00
600.50	45352.56
600.65	45095.10
600.81	45071.70
600.97	45207.45
601.12	45940.04
601.28	45413.41
601.44	45397.03
601.59	45015.52
601.75	45024.89
601.91	45443.84
602.06	45191.06
602.22	45226.17
602.37	45525.76
602.53	44921.90
602.69	45595.98
602.84	45354.90
603.00	45230.85
603.16	45343.20
603.31	45036.59
603.47	45287.03
603.62	44839.98
603.78	45090.42
603.94	45287.03
604.09	45502.35
604.25	45375.97
604.40	44708.91
604.56	45392.35
604.71	45439.16
604.87	44861.05
605.03	45076.38
605.18	45261.28
605.34	45172.34
605.49	44975.73
605.65	44858.71
605.80	45034.25
605.96	45504.70
606.12	45083.40
606.27	45633.42
606.43	44783.81
606.58	45212.13
606.74	44776.79
606.89	45127.87
607.05	45123.19
607.20	45088.08
607.36	45090.42
607.51	45537.46
607.67	44790.83
607.82	45118.51
607.98	45038.93
608.13	45020.20
608.29	44905.52
608.44	44589.55
608.60	44460.82
608.75	45020.20
608.91	44657.42
609.06	44435.07
609.22	45116.17
609.37	44587.21
609.53	44657.42
609.68	44720.62
609.84	44493.58
609.99	45120.85
610.15	44793.17
610.30	44844.66
610.46	44680.83
610.61	44545.08
610.76	45057.65
610.92	44624.65
611.07	44591.89
611.23	44516.99
611.38	44383.58
611.54	44718.28
611.69	44083.99
611.84	44872.75
612.00	44594.23
612.15	44910.20
612.31	44531.03
612.46	44343.79
612.62	45057.65
612.77	44509.97
612.92	44608.27
613.08	44516.99
613.23	44512.31
613.39	44289.96
613.54	43840.57
613.69	44119.10
613.85	44350.81
614.00	44619.97
614.15	44861.05
614.31	44353.15
614.46	44507.63
614.62	43948.24
614.77	44229.10
614.92	44306.34
615.08	43945.90
615.23	44374.22
615.38	43765.68
615.54	43711.84
615.69	44189.31
615.84	43613.54
616.00	44444.43
616.15	44184.63
616.30	44236.12
616.46	43929.51
616.61	43484.81
616.76	44100.37
616.92	43920.15
617.07	43826.53
617.22	43896.75
617.37	43533.96
617.53	43978.67
617.68	44016.11
617.83	44168.25
617.99	43924.83
618.14	43468.43
618.29	43845.26
618.45	43604.18
618.60	44018.46
618.75	43955.26
618.90	43768.02
619.06	43381.83
619.21	43894.41
619.36	43648.65
619.51	43775.04
619.67	43573.75
619.82	43672.06
619.97	43814.83
620.12	43723.55
620.28	43297.57
620.43	43430.98
620.58	43835.89
620.73	43419.28
620.89	43365.45
621.04	43798.44
621.19	43201.61
621.34	43461.41
621.49	43363.11
621.65	43552.69
621.80	43236.72
621.95	42848.19
622.10	43042.45
622.25	42260.71
622.41	43363.11
622.56	42649.24
622.71	43269.48
622.86	43229.69
623.01	42616.47
623.16	42913.72
623.32	42944.15
623.47	43313.95
623.62	42756.91
623.77	43166.50
623.92	42923.08
624.07	43056.50
624.23	42677.33
624.38	42586.05
624.53	42679.67
624.68	42892.66
624.83	42581.37
624.98	42672.65
625.13	42204.54
625.29	43098.62
625.44	42424.55
625.59	42726.48
625.74	42536.90
625.89	42136.66
626.04	42359.02
626.19	42342.63
626.34	42618.81
626.49	42471.36
626.65	42286.46
626.80	42862.23
626.95	42176.45
627.10	42183.48
627.25	42099.22
627.40	42017.30
627.55	42183.48
627.70	41752.82
627.85	41741.11
628.00	42078.15
628.15	42092.19
628.30	42241.99
628.45	42012.62
628.60	41710.69
628.76	41787.92
628.91	42050.06
629.06	41944.74
629.21	42148.37
629.36	41996.23
629.51	42124.96
629.66	41738.77
629.81	41432.16
629.96	41694.30
630.11	42038.36
630.26	41982.19
630.41	42169.43
630.56	41652.17
630.71	41663.88
630.86	41511.74
631.01	41280.03
631.16	41654.51
631.31	41053.00
631.46	41104.49
631.61	41448.55
631.76	41734.09
631.91	41462.59
632.06	41380.67
632.21	41818.35
632.36	41553.87
632.51	41443.87
632.66	41394.71
632.81	40905.54
632.96	41116.19
633.10	40854.05
633.25	40893.84
633.40	41596.00
633.55	41567.91
633.70	41139.60
633.85	41111.51
634.00	40973.42
634.15	41415.78
634.30	40964.06
634.45	41001.50
634.60	40891.50
634.75	41289.39
634.90	40996.82
635.05	40730.00
635.19	40809.58
635.34	41125.55
635.49	41254.28
635.64	41127.89
635.79	40369.56
635.94	40708.94
636.09	40739.36
636.24	40727.66
636.39	40350.84
636.53	40428.07
636.68	40526.38
636.83	40390.62
636.98	40624.68
637.13	40273.60
637.28	40451.48
637.43	40627.02
637.57	40982.78
637.72	40713.62
637.87	40744.05
638.02	40187.00
638.17	40418.71
638.32	40006.78
638.46	40189.34
638.61	39934.22
638.76	40093.38
638.91	40238.49
639.06	40418.71
639.20	40655.11
639.35	40418.71
639.50	40467.86
639.65	40535.74
639.80	40701.92
639.94	40264.24
640.09	39639.31
640.24	40184.66
640.39	39346.75
640.54	39728.25
640.68	40177.64
640.83	39866.34
640.98	39878.05
641.13	39653.36
641.27	40201.04
641.42	39667.40
641.57	39826.56
641.72	39739.96
641.86	39503.56
642.01	39370.15
642.16	39510.58
642.31	39187.59
642.45	39480.16
642.60	39047.16
642.75	39321.00
642.90	39391.22
643.04	39885.07
643.19	39192.27
643.34	39735.27
643.48	39140.78
643.63	39730.59
643.78	39033.11
643.93	39353.77
644.07	38902.04
644.22	39159.50
644.37	39019.07
644.51	39309.30
644.66	39398.24
644.81	39524.63
644.95	39196.95
645.10	39576.12
645.25	39592.50
645.39	39330.36
645.54	39391.22
645.69	38876.30
645.83	38873.96
645.98	39166.52
646.13	39192.27
646.27	39035.45
646.42	38808.42
646.57	39023.75
646.71	38878.64
646.86	38995.67
647.00	39213.34
647.15	39122.05
647.30	39405.26
647.44	38707.78
647.59	38494.79
647.74	38464.36
647.88	39178.23
648.03	38377.76
648.17	38572.03
648.32	38485.43
648.47	38707.78
648.61	38696.08
648.76	38782.68
648.90	38632.88
649.05	38595.43
649.20	38665.65
649.34	38658.63
649.49	38160.09
649.63	38443.30
649.78	38356.70
649.92	38429.26
650.07	38653.95
650.21	38410.53
650.36	38667.99
650.51	38469.04
650.65	38375.42
650.80	38410.53
650.94	38976.94
651.09	38478.41
651.23	38359.04
651.38	38323.93
651.52	37991.58
651.67	38319.25
651.81	38298.19
651.96	38089.88
652.10	37776.25
652.25	37844.12
652.39	38139.03
652.54	38204.56
652.68	38328.61
652.83	38127.33
652.97	37937.74
653.12	37708.37
653.26	37715.39
653.41	37890.93
653.55	37773.91
653.70	37315.16
653.84	37666.24
653.99	37652.20
654.13	37823.06
654.27	37853.48
654.42	37745.82
654.56	37469.64
654.71	37998.60
654.85	37450.91
655.00	37179.41
655.14	37298.78
655.29	37067.06
655.43	37324.52
655.57	37123.24
655.72	37233.24
655.86	37060.04
656.01	36739.39
656.15	37120.90
656.30	36973.44
656.44	36835.35
656.58	37076.43
656.73	36568.53
656.87	36912.59
657.01	36823.65
657.16	36460.87
657.30	36598.96
657.45	36673.85
657.59	36844.71
657.73	36596.62
657.88	36989.83
658.02	36964.08
658.16	36982.80
658.31	37090.47
658.45	37284.73
658.60	36648.11
658.74	36545.12
658.88	36755.77
659.03	36259.58
659.17	36325.11
659.31	36196.38
659.46	36385.97
659.60	36486.61
659.74	36212.77
659.89	36334.48
660.03	36240.86
660.17	36521.72
660.32	36437.46
660.46	36456.18
660.60	36407.03
660.74	36435.12
660.89	36257.24
661.03	36095.74
661.17	35950.63
661.32	35583.16
661.46	35725.94
661.60	35519.97
661.74	35882.75
661.89	35849.99
662.03	35814.88
662.17	35639.34
662.31	35314.00
662.46	35590.19
662.60	35548.06
662.74	35370.18
662.88	35124.42
663.03	35391.24
663.17	35655.72
663.31	35246.13
663.45	35709.55
663.60	35447.41
663.74	34965.26
663.88	35089.31
664.02	35152.51
664.17	34892.71
664.31	34859.94
664.45	34831.85
664.59	35035.48
664.73	34754.61
664.88	35285.92
665.02	34607.16
665.16	34574.39
665.30	34668.02
665.44	34707.80
665.59	34300.55
665.73	34649.29
665.87	33975.22
666.01	34377.79
666.15	34426.94
666.29	34115.65
666.44	34237.36
666.58	34370.77
666.72	34017.35
666.86	34206.93
667.00	34387.15
667.14	33919.04
667.28	33577.33
667.43	33645.20
667.57	33933.09
667.71	33844.15
667.85	33743.50
667.99	33736.48
668.13	33261.35
668.27	33399.44
668.41	33750.52
668.56	33406.47
668.70	33539.88
668.84	33347.95
668.98	33067.09
669.12	32961.76
669.26	33214.54
669.40	33151.35
669.54	33027.30
669.68	33053.05
669.82	33067.09
669.96	33006.23
670.10	32622.39
670.25	32957.08
670.39	32982.83
670.53	32751.12
670.67	32414.08
670.81	32730.05
670.95	32762.82
671.09	32833.04
671.23	32587.28
671.37	32861.12
671.51	32091.09
671.65	32467.91
671.79	32493.66
671.93	31913.20
672.07	32395.35
672.21	32177.68
672.35	31775.11
672.49	31894.48
672.63	32093.43
672.77	31875.76
672.91	32095.77
673.05	31807.88
673.19	31758.73
673.33	31311.69
673.47	31480.21
673.61	31545.74
673.75	30951.24
673.89	30979.33
674.03	30539.31
674.17	30902.09
674.31	31098.70
674.45	31510.63
674.59	30464.41
674.73	30958.27
674.87	30993.37
675.01	30637.61
675.15	30979.33
675.29	30852.94
675.43	31084.65
675.56	30637.61
675.70	30586.12
675.84	30389.52
675.98	29413.51
676.12	30302.92
676.26	30033.75
676.40	30043.12
676.54	29848.85
676.68	30256.11
676.82	29670.97
676.96	29729.48
677.10	29488.41
677.23	29479.05
677.37	29748.21
677.51	29352.66
677.65	29373.72
677.79	29008.60
677.93	29191.16
678.07	28833.06
678.21	28751.14
678.34	28692.63
678.48	28718.37
678.62	28699.65
678.76	28168.35
678.90	28402.40
679.04	28243.24
679.18	28154.30
679.31	28264.31
679.45	28364.95
679.59	28140.26
679.73	27735.35
679.87	28102.81
680.00	27859.40
680.14	28002.17
680.28	27758.75
680.42	27449.80
680.56	27311.71
680.70	27379.59
680.83	27108.08
680.97	27234.47
681.11	27009.78
681.25	26394.22
681.39	27037.87
681.52	27168.94
681.66	27091.70
681.80	26677.43
681.94	26637.64
682.07	27033.19
682.21	26403.58
682.35	26281.88
682.49	26045.48
682.62	26735.94
682.76	26429.33
682.90	25823.13
683.04	26019.74
683.17	25935.48
683.31	25818.45
683.45	26331.03
683.59	25685.04
683.72	25263.74
683.86	25263.74
684.00	25312.89
684.13	25642.91
684.27	25539.93
684.41	25305.87
684.55	24779.25
684.68	25064.80
684.82	24659.88
684.96	24744.14
685.09	24863.51
685.23	24577.97
685.37	24615.41
685.50	24652.86
685.64	24573.28
685.78	24367.32
685.91	24273.70
686.05	23754.10
686.19	24107.52
686.32	24159.01
686.46	23922.62
686.60	23744.73
686.73	23585.58
686.87	23232.16
687.01	23695.58
687.14	23344.50
687.28	23180.67
687.42	23204.07
687.55	22951.29
687.69	23449.83
687.82	22574.47
687.96	23080.02
688.10	22576.81
688.23	22321.69
688.37	22682.13
688.50	22192.96
688.64	22211.68
688.78	22525.32
688.91	22017.42
689.05	22401.27
689.18	22026.78
689.32	21900.39
689.46	22216.36
689.59	21951.88
689.73	21909.75
689.86	21823.16
690.00	21443.99
690.13	22040.82
690.27	21177.17
690.41	21408.88
690.54	21432.29
690.68	21074.18
690.81	21212.28
690.95	21198.23
691.08	21083.55
691.22	21099.93
691.35	20938.43
691.49	20975.88
691.62	21149.08
691.76	20814.38
691.89	20673.95
692.03	20444.58
692.16	20355.64
692.30	20554.58
692.43	20308.83
692.57	20332.23
692.70	20271.38
692.84	20423.51
692.97	19880.51
693.11	19899.23
693.24	19644.12
693.38	19449.85
693.51	19400.70
693.65	19616.03
693.78	19215.80
693.92	19555.18
694.05	19522.41
694.19	19157.28
694.32	18850.67
694.45	19222.82
694.59	19143.24
694.72	18958.34
694.86	19068.34
694.99	18909.19
695.13	18513.64
695.26	18478.53
695.39	18394.27
695.53	18452.78
695.66	18410.65
695.80	18352.14
695.93	18504.28
696.07	18134.47
696.20	18099.36
696.33	17926.16
696.47	18010.42
696.60	17930.84
696.73	17706.15
696.87	17813.82
697.00	17987.02
697.14	17692.11
697.27	17209.96
697.40	17701.47
697.54	17118.68
697.67	17092.93
697.80	17156.13
697.94	17057.82
698.07	17132.72
698.21	16734.83
698.34	17102.29
698.47	16863.56
698.61	16842.50
698.74	16692.70
698.87	16692.70
699.01	16566.31
699.14	16280.77
699.27	16393.11
699.40	16145.02
699.54	16250.34
699.67	16140.33
699.80	16100.55
699.94	15894.58
700.07	16006.92
700.20	16086.50
700.34	15812.66
700.47	15674.57
700.60	15784.57
700.73	15824.36
700.87	15606.69
701.00	15604.35
701.13	15386.68
701.26	15487.32
701.40	15646.48
701.53	15386.68
701.66	15314.13
701.79	15066.03
701.93	15115.18
702.06	14712.61
702.19	14752.40
702.32	14960.70
702.46	14780.48
702.59	14815.59
702.72	14796.87
702.85	14452.81
702.99	14565.15
703.12	14796.87
703.25	14434.08
703.38	14544.09
703.51	14291.31
703.65	14260.88
703.78	14307.69
703.91	14398.98
704.04	14260.88
704.17	14054.92
704.31	14115.77
704.44	13413.61
704.57	13453.40
704.70	13575.11
704.83	13418.29
704.96	13900.44
705.10	13680.43
705.23	13678.09
>>>>>End Processed Spectral Data<<<<<
