SpectraSuite Data File
++++++++++++++++++++++++++++++++++++
Date: Fri Oct 25 11:34:27 EDT 2013
User: price-jones
Dark Spectrum Present: No
Reference Spectrum Present: No
Number of Sampled Component Spectra: 1
Spectrometers: USB2+H05261
Integration Time (usec): 100000 (USB2+H05261)
Spectra Averaged: 1 (USB2+H05261)
Boxcar Smoothing: 0 (USB2+H05261)
Correct for Electrical Dark: No (USB2+H05261)
Strobe/Lamp Enabled: No (USB2+H05261)
Correct for Detector Non-linearity: No (USB2+H05261)
Correct for Stray Light: No (USB2+H05261)
Number of Pixels in Processed Spectrum: 2048
>>>>>Begin Processed Spectral Data<<<<<
365.73	259.80
365.92	259.80
366.12	259.80
366.32	198.95
366.52	124.05
366.72	142.77
366.91	124.05
367.11	220.01
367.31	138.09
367.51	156.82
367.70	191.92
367.90	95.96
368.10	231.71
368.30	236.39
368.49	194.26
368.69	266.82
368.89	301.93
369.09	212.99
369.28	252.78
369.48	217.67
369.68	168.52
369.87	215.33
370.07	227.03
370.27	234.05
370.47	344.06
370.66	496.19
370.86	526.62
371.06	594.50
371.25	568.75
371.45	507.90
371.65	493.85
371.84	580.45
372.04	524.28
372.24	582.79
372.44	585.13
372.63	573.43
372.83	510.24
373.03	521.94
373.22	634.29
373.42	657.69
373.62	631.94
373.81	706.84
374.01	580.45
374.21	638.97
374.40	585.13
374.60	706.84
374.79	613.22
374.99	678.76
375.19	617.90
375.38	660.03
375.58	650.67
375.78	636.63
375.97	657.69
376.17	650.67
376.37	660.03
376.56	648.33
376.76	634.29
376.95	613.22
377.15	744.29
377.35	697.48
377.54	692.80
377.74	631.94
377.93	622.58
378.13	685.78
378.33	730.25
378.52	636.63
378.72	730.25
378.91	737.27
379.11	706.84
379.31	667.05
379.50	688.12
379.70	664.71
379.89	655.35
380.09	746.63
380.28	641.31
380.48	763.01
380.68	699.82
380.87	809.83
381.07	779.40
381.26	763.01
381.46	734.93
381.65	739.61
381.85	678.76
382.04	697.48
382.24	744.29
382.43	737.27
382.63	744.29
382.83	777.06
383.02	821.53
383.22	718.54
383.41	716.20
383.61	760.67
383.80	807.48
384.00	840.25
384.19	819.19
384.39	830.89
384.58	795.78
384.78	777.06
384.97	795.78
385.17	774.72
385.36	788.76
385.56	847.27
385.75	777.06
385.95	880.04
386.14	807.48
386.34	898.77
386.53	795.78
386.72	805.14
386.92	826.21
387.11	884.72
387.31	868.34
387.50	791.10
387.70	964.30
387.89	1011.11
388.09	889.40
388.28	763.01
388.48	943.24
388.67	915.15
388.86	908.13
389.06	954.94
389.25	917.49
389.45	957.28
389.64	922.17
389.84	978.34
390.03	976.00
390.22	943.24
390.42	983.02
390.61	856.64
390.81	968.98
391.00	933.87
391.19	950.26
391.39	959.62
391.58	938.55
391.78	936.21
391.97	947.92
392.16	950.26
392.36	1086.01
392.55	1057.92
392.75	987.71
392.94	983.02
393.13	1097.71
393.33	1008.77
393.52	987.71
393.71	1048.56
393.91	1039.20
394.10	1057.92
394.29	1057.92
394.49	1083.67
394.68	1109.41
394.88	1144.52
395.07	1102.39
395.26	1097.71
395.46	1181.97
395.65	1135.16
395.84	1165.59
396.04	1163.25
396.23	1160.91
396.42	1156.22
396.62	1062.60
396.81	1167.93
397.00	1179.63
397.19	1142.18
397.39	1163.25
397.58	1233.46
397.77	1191.33
397.97	1231.12
398.16	1177.29
398.35	1256.87
398.55	1247.51
398.74	1214.74
398.93	1299.00
399.12	1238.14
399.32	1177.29
399.51	1259.21
399.70	1275.59
399.90	1308.36
400.09	1301.34
400.28	1380.92
400.47	1287.29
400.67	1315.38
400.86	1399.64
401.05	1310.70
401.24	1294.32
401.44	1331.76
401.63	1373.89
401.82	1411.34
402.01	1390.28
402.21	1359.85
402.40	1446.45
402.59	1399.64
402.78	1437.09
402.97	1434.75
403.17	1526.03
403.36	1514.33
403.55	1551.78
403.74	1488.58
403.93	1448.79
404.13	1554.12
404.32	1540.07
404.51	1664.12
404.70	1509.65
404.89	1544.75
405.09	1687.53
405.28	1708.59
405.47	1612.63
405.66	1607.95
405.85	1645.40
406.05	1657.10
406.24	1675.82
406.43	1699.23
406.62	1675.82
406.81	1776.47
407.00	1753.06
407.20	1703.91
407.39	1849.02
407.58	1926.26
407.77	1884.13
407.96	1844.34
408.15	1797.53
408.34	1757.74
408.54	1916.90
408.73	1888.81
408.92	1825.62
409.11	1748.38
409.30	1879.45
409.49	1935.62
409.68	1940.30
409.87	1863.07
410.07	1870.09
410.26	1959.03
410.45	1998.82
410.64	1937.96
410.83	2106.48
411.02	2118.18
411.21	2136.91
411.40	2062.01
411.59	2108.82
411.78	2179.04
411.98	2162.66
412.17	2249.25
412.36	2132.23
412.55	2155.63
412.74	2279.68
412.93	2223.51
413.12	2221.17
413.31	2246.91
413.50	2342.88
413.69	2286.70
413.88	2373.30
414.07	2326.49
414.26	2410.75
414.45	2410.75
414.64	2408.41
414.83	2422.45
415.02	2422.45
415.22	2581.61
415.41	2562.89
415.60	2490.33
415.79	2583.95
415.98	2630.76
416.17	2609.70
416.36	2595.65
416.55	2626.08
416.74	2595.65
416.93	2630.76
417.12	2595.65
417.31	2782.90
417.50	2775.88
417.69	2803.96
417.88	2806.30
418.07	2799.28
418.26	2785.24
418.45	2885.88
418.64	3073.12
418.83	2909.29
419.02	2935.03
419.21	3063.76
419.39	3028.65
419.58	3077.80
419.77	2988.86
419.96	2995.89
420.15	3005.25
420.34	3211.22
420.53	3066.10
420.72	3009.93
420.91	3129.30
421.10	3035.67
421.29	3220.58
421.48	3225.26
421.67	3197.17
421.86	3251.00
422.05	3159.72
422.24	3190.15
422.43	3215.90
422.61	3286.11
422.80	3356.33
422.99	3173.77
423.18	3229.94
423.37	3393.78
423.56	3220.58
423.75	3346.97
423.94	3187.81
424.13	3014.61
424.32	3183.13
424.50	3243.98
424.69	3435.91
424.88	3321.22
425.07	3227.60
425.26	3281.43
425.45	3260.37
425.64	3391.44
425.83	3353.99
426.01	3386.76
426.20	3447.61
426.39	3353.99
426.58	3391.44
426.77	3496.76
426.96	3494.42
427.15	3412.50
427.33	3431.23
427.52	3372.71
427.71	3459.31
427.90	3421.86
428.09	3522.51
428.28	3461.65
428.46	3370.37
428.65	3368.03
428.84	3606.77
429.03	3693.37
429.22	3445.27
429.40	3681.66
429.59	3726.13
429.78	3538.89
429.97	3545.91
430.16	3590.38
430.34	3786.99
430.53	3742.52
430.72	3798.69
430.91	3648.90
431.10	3632.51
431.28	3772.94
431.47	3791.67
431.66	3889.97
431.85	3786.99
432.03	3882.95
432.22	3922.74
432.41	3941.46
432.60	3906.35
432.79	3868.91
432.97	3880.61
433.16	3866.56
433.35	3995.29
433.54	4018.70
433.72	4002.32
433.91	3976.57
434.10	3997.64
434.28	3854.86
434.47	4014.02
434.66	4021.04
434.85	4145.09
435.03	4278.50
435.22	4168.49
435.41	4339.35
435.59	4194.24
435.78	4067.85
435.97	4269.14
436.16	4154.45
436.34	4344.03
436.53	4257.43
436.72	4395.53
436.90	4278.50
437.09	4358.08
437.28	4210.62
437.46	4395.53
437.65	4411.91
437.84	4355.74
438.02	4416.59
438.21	4566.39
438.40	4423.61
438.58	4657.67
438.77	4627.24
438.96	4496.17
439.14	4770.01
439.33	4683.41
439.52	4741.93
439.70	4798.10
439.89	4875.34
440.08	4854.27
440.26	4767.67
440.45	4870.65
440.63	4898.74
440.82	4865.97
441.01	4858.95
441.19	5095.35
441.38	5095.35
441.57	5048.54
441.75	4985.34
441.94	5142.16
442.12	5100.03
442.31	5181.95
442.50	5268.55
442.68	5179.61
442.87	5317.70
443.05	5310.68
443.24	5254.50
443.43	5296.63
443.61	5231.10
443.80	5619.63
443.98	5200.67
444.17	5085.98
444.35	5413.66
444.54	5418.34
444.73	5238.12
444.91	5413.66
445.10	5313.02
445.28	5472.17
445.47	5406.64
445.65	5530.69
445.84	5441.75
446.02	5528.35
446.21	5453.45
446.39	5474.51
446.58	5530.69
446.77	5577.50
446.95	5591.54
447.14	5423.02
447.32	5547.07
447.51	5526.00
447.69	5303.65
447.88	5469.83
448.06	5521.32
448.25	5612.60
448.43	5603.24
448.62	5526.00
448.80	5668.78
448.99	5778.78
449.17	5738.99
449.36	5523.66
449.54	5661.76
449.73	5778.78
449.91	5874.74
450.10	5921.56
450.28	5781.12
450.46	5858.36
450.65	5827.93
450.83	6003.47
451.02	5776.44
451.20	5944.96
451.39	5841.98
451.57	5708.57
451.76	5921.56
451.94	6022.20
452.13	6036.24
452.31	6008.16
452.49	5982.41
452.68	6008.16
452.86	6176.67
453.05	6099.44
453.23	6080.71
453.42	6026.88
453.60	6134.54
453.78	6246.89
453.97	6162.63
454.15	5989.43
454.34	6197.74
454.52	6373.28
454.70	6218.80
454.89	6310.08
455.07	6436.47
455.26	6340.51
455.44	6420.09
455.62	6396.68
455.81	6291.36
455.99	6314.77
456.17	6429.45
456.36	6417.75
456.54	6466.90
456.73	6612.01
456.91	6792.23
457.09	6626.06
457.28	6796.92
457.46	6803.94
457.64	6890.54
457.83	6733.72
458.01	6803.94
458.19	6995.86
458.38	6754.79
458.56	6960.75
458.74	6979.48
458.93	6860.11
459.11	6892.88
459.29	6792.23
459.48	6909.26
459.66	7148.00
459.84	7084.80
460.03	7171.40
460.21	7155.02
460.39	7162.04
460.57	7103.53
460.76	7258.00
460.94	7239.28
461.12	7178.42
461.31	7229.91
461.49	7164.38
461.67	7084.80
461.85	7248.64
462.04	7199.49
462.22	7733.13
462.40	7487.37
462.59	7485.03
462.77	7311.83
462.95	7487.37
463.13	7559.93
463.32	7517.80
463.50	7726.11
463.68	7515.46
463.86	7719.09
464.05	7389.07
464.23	7421.84
464.41	7805.69
464.59	7379.71
464.78	7669.94
464.96	7662.91
465.14	7559.93
465.32	7672.28
465.50	7707.38
465.69	7866.54
465.87	7723.77
466.05	7793.98
466.23	7721.43
466.41	7810.37
466.60	8133.36
466.78	7857.18
466.96	7747.17
467.14	7957.82
467.32	7969.52
467.51	7953.14
467.69	7698.02
467.87	7939.10
468.05	7978.89
468.23	8114.64
468.41	7943.78
468.60	8393.16
468.78	8224.64
468.96	8112.30
469.14	8271.45
469.32	8259.75
469.50	7962.50
469.69	8381.46
469.87	8278.47
470.05	8308.90
470.23	8362.73
470.41	8477.42
470.59	8430.61
470.77	8334.65
470.95	8664.66
471.14	8741.90
471.32	8245.71
471.50	8533.59
471.68	8594.45
471.86	8652.96
472.04	8800.41
472.22	9114.05
472.40	8819.14
472.58	8791.05
472.77	8840.20
472.95	9121.07
473.13	9343.42
473.31	8879.99
473.49	8978.30
473.67	8926.80
473.85	8975.95
474.03	9130.43
474.21	9392.57
474.39	9338.74
474.57	9252.14
474.75	9373.85
474.93	9565.77
475.12	9530.66
475.30	9575.13
475.48	9631.30
475.66	9811.53
475.84	9610.24
476.02	9771.74
476.20	10076.01
476.38	10045.58
476.56	9980.04
476.74	10253.89
476.92	10054.94
477.10	10106.43
477.28	10143.88
477.46	10057.28
477.64	10406.02
477.82	10593.26
478.00	10778.17
478.18	10623.69
478.36	10684.55
478.54	10883.49
478.72	10930.30
478.90	11014.56
479.08	11059.03
479.26	11295.43
479.44	11126.91
479.62	11419.47
479.80	11377.34
479.98	11358.62
480.16	11899.28
480.34	11501.39
480.52	11894.60
480.70	11611.40
480.88	11644.17
481.06	11719.06
481.24	11791.62
481.41	11925.03
481.59	12131.00
481.77	12306.54
481.95	12456.33
482.13	12365.05
482.31	12318.24
482.49	12692.73
482.67	12840.18
482.85	12793.37
483.03	12915.08
483.21	13013.38
483.39	13282.54
483.57	13081.25
483.74	13284.88
483.92	13165.51
484.10	13406.59
484.28	13621.92
484.46	14059.60
484.64	14136.84
484.82	14031.51
485.00	14195.35
485.18	14174.28
485.35	14274.93
485.53	14345.14
485.71	14544.09
485.89	14583.88
486.07	14663.46
486.25	14768.78
486.43	14927.94
486.61	14927.94
486.78	15059.01
486.96	15012.20
487.14	15295.40
487.32	15426.47
487.50	15489.67
487.68	15669.89
487.85	15712.02
488.03	16243.32
488.21	16039.69
488.39	15843.09
488.57	16402.47
488.75	16343.96
488.92	16737.17
489.10	16901.01
489.28	16570.99
489.46	16964.20
489.64	16798.02
489.81	17078.89
489.99	17575.08
490.17	17469.76
490.35	17481.46
490.53	17434.65
490.70	17806.80
490.88	17671.04
491.06	18113.41
491.24	18092.34
491.41	18073.62
491.59	18312.35
491.77	18602.58
491.95	18286.61
492.13	18768.76
492.30	19002.81
492.48	18663.43
492.66	19000.47
492.84	19164.31
493.01	19592.62
493.19	19314.10
493.37	19571.56
493.54	19414.74
493.72	19508.37
493.90	19744.76
494.08	19758.80
494.25	20095.84
494.43	20039.67
494.61	20311.17
494.79	20339.26
494.96	20397.77
495.14	20540.54
495.32	20685.65
495.49	20645.87
495.67	20769.91
495.85	20739.49
496.02	21149.08
496.20	21310.58
496.38	21514.20
496.55	21776.34
496.73	21715.49
496.91	21785.71
497.09	22066.57
497.26	21970.61
497.44	21956.57
497.62	22089.98
497.79	22204.66
497.97	22237.43
498.14	22338.07
498.32	23087.04
498.50	22670.43
498.67	22712.56
498.85	22860.01
499.03	23070.66
499.20	23180.67
499.38	23161.94
499.56	23417.06
499.73	23386.63
499.91	23637.07
500.08	23484.94
500.26	23379.61
500.44	23786.86
500.61	23522.38
500.79	23761.12
500.97	23749.42
501.14	24477.32
501.32	24091.13
501.49	24393.06
501.67	24133.26
501.84	24566.26
502.02	24336.89
502.20	24123.90
502.37	24608.39
502.55	24713.72
502.72	24971.18
502.90	24610.73
503.07	24709.04
503.25	24542.86
503.43	24746.48
503.60	24975.86
503.78	25331.62
503.95	25233.32
504.13	25380.77
504.30	25486.09
504.48	25312.89
504.65	25568.01
504.83	26010.37
505.01	25928.45
505.18	25804.41
505.36	26064.21
505.53	25891.01
505.71	26270.17
505.88	26352.09
506.06	26235.06
506.23	26490.18
506.41	26132.08
506.58	26349.75
506.76	26471.46
506.93	26590.83
507.11	26735.94
507.28	27204.05
507.46	27098.72
507.63	26871.69
507.81	27047.23
507.98	26714.87
508.16	27103.40
508.33	27445.12
508.50	27316.39
508.68	27440.44
508.85	28034.94
509.03	28002.17
509.20	27679.18
509.38	28027.92
509.55	27791.52
509.73	28161.33
509.90	28177.71
510.08	27999.83
510.25	27789.18
510.42	28519.43
510.60	28285.37
510.77	28451.55
510.95	28910.30
511.12	28388.36
511.30	28477.30
511.47	28833.06
511.64	28819.02
511.82	29057.75
511.99	28907.96
512.17	29160.73
512.34	28987.53
512.51	29675.65
512.69	29596.07
512.86	29350.32
513.04	29535.22
513.21	29612.46
513.38	29869.92
513.56	29708.42
513.73	29745.87
513.90	29743.53
514.08	29972.90
514.25	30106.31
514.43	29958.86
514.60	30487.82
514.77	30284.19
514.95	30272.49
515.12	30017.37
515.29	30333.34
515.47	30857.62
515.64	30888.05
515.81	30457.39
515.99	30726.55
516.16	31000.40
516.33	30974.65
516.51	30939.54
516.68	30916.14
516.85	30670.38
517.03	31346.79
517.20	31082.31
517.37	31089.34
517.54	31274.24
517.72	31646.38
517.89	31175.94
518.06	31398.29
518.24	31817.24
518.41	31438.08
518.58	31477.86
518.75	31187.64
518.93	32016.19
519.10	31803.20
519.27	32055.98
519.45	31470.84
519.62	32385.99
519.79	31892.14
519.96	32123.85
520.14	32231.52
520.31	32016.19
520.48	33029.64
520.65	32737.07
520.83	32877.51
521.00	32753.46
521.17	32741.75
521.34	32877.51
521.52	33099.86
521.69	32926.66
521.86	33205.18
522.03	33137.30
522.20	33354.97
522.38	33282.42
522.55	33481.36
522.72	33928.41
522.89	33553.92
523.07	34113.31
523.24	33628.82
523.41	33954.15
523.58	33539.88
523.75	33886.28
523.92	33780.95
524.10	34160.12
524.27	33666.27
524.44	33940.11
524.61	34328.64
524.78	34438.64
524.96	34389.49
525.13	34724.19
525.30	34597.80
525.47	34387.15
525.64	34752.27
525.81	34270.12
525.98	34572.05
526.16	34707.80
526.33	34293.53
526.50	34831.85
526.67	34794.40
526.84	34574.39
527.01	34763.98
527.18	34937.18
527.36	35271.87
527.53	35374.86
527.70	35826.58
527.87	35580.82
528.04	35248.47
528.21	35639.34
528.38	35526.99
528.55	35597.21
528.72	35704.87
528.89	35276.55
529.07	35744.66
529.24	35901.48
529.41	35571.46
529.58	35517.63
529.75	35744.66
529.92	36062.97
530.09	35941.27
530.26	36095.74
530.43	35852.33
530.60	35646.36
530.77	35943.61
530.94	35952.97
531.11	35992.76
531.28	36587.25
531.46	36208.09
531.63	36495.97
531.80	36170.64
531.97	36584.91
532.14	36407.03
532.31	36804.92
532.48	36713.64
532.65	37141.96
532.82	37109.19
532.99	36823.65
533.16	36690.24
533.33	36989.83
533.50	36903.23
533.67	37083.45
533.84	37368.99
534.01	37008.55
534.18	36999.19
534.35	37633.47
534.52	37371.33
534.69	37839.44
534.86	37577.30
535.03	37949.45
535.20	37794.97
535.37	37748.16
535.54	37612.41
535.71	37958.81
535.88	38213.93
536.05	37305.80
536.22	38157.75
536.38	37743.48
536.55	37801.99
536.72	38043.07
536.89	37907.32
537.06	38059.45
537.23	38162.43
537.40	38192.86
537.57	38059.45
537.74	37916.68
537.91	38333.29
538.08	38464.36
538.25	38185.84
538.42	38078.18
538.59	38710.12
538.75	38518.20
538.92	38675.01
539.09	39030.77
539.26	38618.84
539.43	38618.84
539.60	38572.03
539.77	38440.96
539.94	39035.45
540.11	39049.50
540.28	38766.29
540.44	39194.61
540.61	38990.98
540.78	39372.49
540.95	39372.49
541.12	38878.64
541.29	38789.70
541.46	39023.75
541.62	39281.21
541.79	39370.15
541.96	39019.07
542.13	38937.15
542.30	39475.48
542.47	39445.05
542.63	39718.89
542.80	39608.89
542.97	39920.18
543.14	40306.37
543.31	39688.46
543.48	39910.82
543.64	40561.48
543.81	40388.28
543.98	40318.07
544.15	40339.13
544.32	40189.34
544.48	40526.38
544.65	40392.97
544.82	40587.23
544.99	40596.59
545.16	40369.56
545.32	40123.80
545.49	40479.57
545.66	41085.76
545.83	40648.08
546.00	40910.22
546.16	40795.54
546.33	40545.10
546.50	40554.46
546.67	40683.19
546.83	41050.66
547.00	40987.46
547.17	40580.21
547.34	40980.44
547.50	41148.96
547.67	41462.59
547.84	41490.68
548.00	40933.63
548.17	41418.12
548.34	41591.32
548.51	41549.19
548.67	41331.52
548.84	40989.80
549.01	41095.13
549.18	41670.90
549.34	41715.37
549.51	41448.55
549.68	41563.23
549.84	41593.66
550.01	41823.03
550.18	41184.07
550.34	41560.89
550.51	41951.76
550.68	41993.89
550.84	41745.80
551.01	41879.21
551.18	41488.34
551.34	41928.36
551.51	41572.60
551.68	41827.71
551.84	41867.50
552.01	42036.02
552.18	42085.17
552.34	42295.82
552.51	42312.20
552.68	42092.19
552.84	42075.81
553.01	43021.39
553.18	42183.48
553.34	42476.04
553.51	42377.74
553.67	42454.98
553.84	42562.64
554.01	42305.18
554.17	42384.76
554.34	42693.71
554.51	42625.84
554.67	43016.71
554.84	42473.70
555.00	42780.31
555.17	42761.59
555.33	42712.44
555.50	42450.30
555.67	42593.07
555.83	42710.10
556.00	42768.61
556.16	43374.81
556.33	43442.68
556.50	43000.32
556.66	42897.34
556.83	42714.78
556.99	43405.23
557.16	43510.56
557.32	43161.82
557.49	42775.63
557.65	43236.72
557.82	42909.04
557.98	43622.90
558.15	42916.06
558.32	43157.14
558.48	43079.90
558.65	43058.84
558.81	43393.53
558.98	43388.85
559.14	43250.76
559.31	42953.51
559.47	43281.19
559.64	43283.53
559.80	43597.16
559.97	43800.79
560.13	43459.07
560.30	43372.47
560.46	43634.61
560.63	43538.65
560.79	43655.67
560.96	43508.22
561.12	43791.42
561.29	43922.49
561.45	43728.23
561.61	43540.99
561.78	43501.20
561.94	43243.74
562.11	43838.23
562.27	43835.89
562.44	43875.68
562.60	44086.33
562.77	44205.70
562.93	44215.06
563.10	43704.82
563.26	44079.31
563.42	44322.72
563.59	43943.56
563.75	44034.84
563.92	44004.41
564.08	44165.91
564.24	44184.63
564.41	44016.11
564.57	43910.79
564.74	44156.55
564.90	44154.21
565.07	43770.36
565.23	44109.74
565.39	44299.32
565.56	44205.70
565.72	43995.05
565.88	44402.30
566.05	43772.70
566.21	44062.93
566.38	44238.47
566.54	44357.83
566.70	44477.20
566.87	44488.90
567.03	44278.25
567.19	44776.79
567.36	44666.78
567.52	44076.97
567.68	45123.19
567.85	44610.61
568.01	44505.29
568.17	44355.49
568.34	44608.27
568.50	44655.08
568.66	44123.78
568.83	44718.28
568.99	44545.08
569.15	44453.79
569.32	44437.41
569.48	44617.63
569.64	45151.27
569.81	44987.44
569.97	44790.83
570.13	44816.58
570.30	44491.24
570.46	44851.69
570.62	44814.24
570.78	44369.54
570.95	44446.77
571.11	45104.46
571.27	44540.39
571.43	45083.40
571.60	44516.99
571.76	44395.28
571.92	44741.68
572.09	44755.72
572.25	44973.39
572.41	44664.44
572.57	44788.49
572.74	45064.67
572.90	44781.47
573.06	45139.57
573.22	44753.38
573.38	44940.63
573.55	45001.48
573.71	45696.62
573.87	45146.59
574.03	44964.03
574.20	45303.41
574.36	45062.33
574.52	45160.64
574.68	45022.54
574.84	45280.00
575.01	45272.98
575.17	44823.60
575.33	45029.57
575.49	45071.70
575.65	45394.69
575.82	45109.14
575.98	44746.36
576.14	45319.79
576.30	45380.65
576.46	45303.41
576.62	44699.55
576.79	45113.83
576.95	44694.87
577.11	44816.58
577.27	44804.88
577.43	44933.60
577.59	45130.21
577.75	45263.62
577.92	45191.06
578.08	45214.47
578.24	45495.33
578.40	45287.03
578.56	45076.38
578.72	45296.39
578.88	45308.09
579.04	45371.28
579.21	45165.32
579.37	45783.22
579.53	45202.77
579.69	44657.42
579.85	44992.12
580.01	45464.91
580.17	45104.46
580.33	45633.42
580.49	45020.20
580.65	45240.21
580.82	45062.33
580.98	45399.37
581.14	44802.53
581.30	45492.99
581.46	44921.90
581.62	45102.12
581.78	45125.53
581.94	45514.06
582.10	45450.86
582.26	45696.62
582.42	45008.50
582.58	45422.78
582.74	45041.27
582.90	45354.90
583.06	45287.03
583.22	44919.56
583.38	45326.81
583.54	45598.32
583.70	45518.74
583.86	45617.04
584.02	45181.70
584.18	45851.09
584.34	45343.20
584.50	45500.01
584.66	45638.11
584.82	45392.35
584.98	45977.48
585.14	45722.37
585.30	45062.33
585.46	45764.49
585.62	45294.05
585.78	45504.70
585.94	45085.74
586.10	45387.67
586.26	45265.96
586.42	45408.73
586.58	45544.48
586.74	45443.84
586.90	45340.86
587.06	45443.84
587.22	45654.49
587.38	45230.85
587.54	45958.76
587.70	45799.60
587.86	45731.73
588.02	45610.02
588.18	45811.31
588.34	45563.21
588.49	45729.39
588.65	45736.41
588.81	45895.56
588.97	45413.41
589.13	45436.82
589.29	45345.54
589.45	45963.44
589.61	45696.62
589.77	45741.09
589.93	46010.25
590.08	45394.69
590.24	45923.65
590.40	45588.95
590.56	46101.53
590.72	45923.65
590.88	45933.01
591.04	45656.83
591.20	46054.72
591.35	45832.37
591.51	45869.82
591.67	45841.73
591.83	45876.84
591.99	45958.76
592.15	45584.27
592.31	45813.65
592.46	45551.51
592.62	46094.51
592.78	46375.37
592.94	46550.91
593.10	45954.08
593.26	46555.60
593.41	46373.03
593.57	46038.34
593.73	46223.24
593.89	46529.85
594.05	46375.37
594.20	46038.34
594.36	46630.49
594.52	46110.89
594.68	46143.66
594.84	46064.08
594.99	46396.44
595.15	46155.36
595.31	46017.27
595.47	46337.93
595.62	46239.62
595.78	45855.78
595.94	46148.34
596.10	46408.14
596.25	46031.32
596.41	46005.57
596.57	45794.92
596.73	46586.02
596.88	46637.51
597.04	46209.20
597.20	46791.99
597.36	46314.52
597.51	46588.36
597.67	45893.22
597.83	46003.23
597.99	46522.83
598.14	46021.95
598.30	46728.80
598.46	45766.84
598.61	46642.20
598.77	46153.02
598.93	46777.95
599.09	46499.42
599.24	46887.95
599.40	46354.31
599.56	46232.60
599.71	46344.95
599.87	46815.40
600.03	46564.96
600.18	46169.41
600.34	46382.40
600.50	46202.18
600.65	46216.22
600.81	46347.29
600.97	46817.74
601.12	46476.02
601.28	46312.18
601.44	46188.13
601.59	46581.34
601.75	46326.22
601.91	46361.33
602.06	46447.93
602.22	46822.42
602.37	46384.74
602.53	46525.17
602.69	46253.67
602.84	46270.05
603.00	46160.05
603.16	46321.54
603.31	46103.87
603.47	46642.20
603.62	46277.07
603.78	46422.19
603.94	46923.06
604.09	46038.34
604.25	46473.68
604.40	46220.90
604.56	46476.02
604.71	46541.55
604.87	46157.70
605.03	46003.23
605.18	46258.35
605.34	46403.46
605.49	46092.17
605.65	46569.64
605.80	46314.52
605.96	45860.46
606.12	45867.48
606.27	46796.67
606.43	46506.44
606.58	46183.45
606.74	46197.49
606.89	46127.28
607.05	46527.51
607.20	46188.13
607.36	46267.71
607.51	46356.65
607.67	45914.29
607.82	45893.22
607.98	46085.15
608.13	46349.63
608.29	46136.64
608.44	46141.32
608.60	45799.60
608.75	46113.23
608.91	45914.29
609.06	45729.39
609.22	46160.05
609.37	46033.66
609.53	46415.16
609.68	45947.06
609.84	45701.30
609.99	46309.84
610.15	46337.93
610.30	46337.93
610.46	46197.49
610.61	46314.52
610.76	46216.22
610.92	46117.92
611.07	45752.79
611.23	45970.46
611.38	45935.35
611.54	45982.16
611.69	45996.21
611.84	45970.46
612.00	46148.34
612.15	45762.15
612.31	45603.00
612.46	45439.16
612.62	46014.93
612.77	45839.39
612.92	46155.36
613.08	45581.93
613.23	45956.42
613.39	45947.06
613.54	45558.53
613.69	45830.03
613.85	45565.55
614.00	45457.88
614.15	45773.86
614.31	45645.13
614.46	45584.27
614.62	45172.34
614.77	45347.88
614.92	45694.28
615.08	45940.04
615.23	46043.02
615.38	45771.52
615.54	46036.00
615.69	45586.61
615.84	45776.20
616.00	45874.50
616.15	45680.24
616.30	45546.82
616.46	45624.06
616.61	45139.57
616.76	45631.08
616.92	45003.82
617.07	45326.81
617.22	45474.27
617.37	45254.26
617.53	45471.93
617.68	44971.05
617.83	45179.36
617.99	45734.07
618.14	45429.80
618.29	44886.79
618.45	44957.01
618.60	44697.21
618.75	45102.12
618.90	45090.42
619.06	45247.24
619.21	44811.90
619.36	45275.32
619.51	45041.27
619.67	45109.14
619.82	45083.40
619.97	45233.19
620.12	45165.32
620.28	45263.62
620.43	45310.43
620.58	45352.56
620.73	45069.36
620.89	45343.20
621.04	45188.72
621.19	44547.42
621.34	44570.82
621.49	44975.73
621.65	44837.64
621.80	44683.17
621.95	44957.01
622.10	44935.95
622.25	44879.77
622.41	44531.03
622.56	44641.04
622.71	44790.83
622.86	44769.77
623.01	44713.59
623.16	44751.04
623.32	44495.92
623.47	44559.12
623.62	44870.41
623.77	44598.91
623.92	44456.14
624.07	44451.45
624.23	44341.45
624.38	44605.93
624.53	44591.89
624.68	44215.06
624.83	44154.21
624.98	44477.20
625.13	44091.01
625.29	43826.53
625.44	44250.17
625.59	44065.27
625.74	44339.11
625.89	44016.11
626.04	44245.49
626.19	43988.03
626.34	44292.30
626.49	44053.56
626.65	44004.41
626.80	44011.43
626.95	43842.92
627.10	43976.33
627.25	43957.60
627.40	43697.80
627.55	43763.34
627.70	43973.98
627.85	44172.93
628.00	44116.76
628.15	43826.53
628.30	43512.90
628.45	43508.22
628.60	43580.78
628.76	43494.18
628.91	43817.17
629.06	43318.64
629.21	43515.24
629.36	43477.79
629.51	43260.12
629.66	43639.29
629.81	43632.27
629.96	43473.11
630.11	43765.68
630.26	43009.68
630.41	43576.09
630.56	43030.75
630.71	43849.94
630.86	43239.06
631.01	42890.32
631.16	43068.20
631.31	43117.35
631.46	43044.79
631.61	43264.80
631.76	43274.16
631.91	42932.45
632.06	43639.29
632.21	43323.32
632.36	43615.88
632.51	43133.73
632.66	43061.18
632.81	43124.37
632.96	43356.08
633.10	42927.77
633.25	43089.26
633.40	43328.00
633.55	43086.92
633.70	43182.88
633.85	43028.41
634.00	42756.91
634.15	42656.26
634.30	42639.88
634.45	42632.86
634.60	42862.23
634.75	42969.90
634.90	42609.45
635.05	42829.46
635.19	42679.67
635.34	42911.38
635.49	42340.29
635.64	42939.47
635.79	43236.72
635.94	42504.13
636.09	42642.22
636.24	42541.58
636.39	42698.39
636.53	42665.63
636.68	42307.52
636.83	42417.53
636.98	42492.43
637.13	42532.22
637.28	42719.46
637.43	41874.52
637.57	42232.63
637.72	41776.22
637.87	41897.93
638.02	42396.46
638.17	42253.69
638.32	41970.49
638.46	42124.96
638.61	41893.25
638.76	42288.80
638.91	41841.76
639.06	42122.62
639.20	41820.69
639.35	41750.48
639.50	41933.04
639.65	42064.11
639.80	42183.48
639.94	42422.21
640.09	42288.80
640.24	42087.51
640.39	41268.33
640.54	41450.89
640.68	42024.32
640.83	42012.62
640.98	41897.93
641.13	41706.01
641.27	42110.92
641.42	41593.66
641.57	41713.03
641.72	41319.82
641.86	41785.58
642.01	41371.31
642.16	41336.20
642.31	41471.95
642.45	41689.62
642.60	40982.78
642.75	41455.57
642.90	41450.89
643.04	41212.15
643.19	41144.28
643.34	41020.23
643.48	41207.47
643.63	41471.95
643.78	41230.88
643.93	41083.42
644.07	41450.89
644.22	41359.61
644.37	41191.09
644.51	41029.59
644.66	41280.03
644.81	41069.38
644.95	41242.58
645.10	41050.66
645.25	40772.13
645.39	41338.54
645.54	40844.69
645.69	40678.51
645.83	40935.97
645.98	40961.72
646.13	41099.81
646.27	40938.31
646.42	41003.85
646.57	40772.13
646.71	41265.99
646.86	41132.57
647.00	40870.43
647.15	40973.42
647.30	41090.44
647.44	40828.30
647.59	40533.40
647.74	40573.19
647.88	40652.76
648.03	40472.54
648.17	40617.66
648.32	40458.50
648.47	40907.88
648.61	40596.59
648.76	40568.51
648.90	40381.26
649.05	40435.10
649.20	40563.82
649.34	40481.91
649.49	40463.18
649.63	40605.95
649.78	40479.57
649.92	40636.38
650.07	40987.46
650.21	40430.41
650.36	40196.36
650.51	40151.89
650.65	40655.11
650.80	40500.63
650.94	40685.53
651.09	40392.97
651.23	40060.61
651.38	40067.63
651.52	39725.91
651.67	39873.37
651.81	40292.32
651.96	40079.33
652.10	39894.43
652.25	39515.26
652.39	39988.05
652.54	39906.13
652.68	39833.58
652.83	39428.66
652.97	39812.51
653.12	39643.99
653.26	39538.67
653.41	39739.96
653.55	39681.44
653.70	40362.54
653.84	40027.84
653.99	40030.18
654.13	39880.39
654.27	39096.31
654.42	39648.68
654.56	39379.51
654.71	39796.13
654.85	39412.28
655.00	39580.80
655.14	39725.91
655.29	39749.32
655.43	39868.69
655.57	39571.44
655.72	39241.42
655.86	39145.46
656.01	39194.61
656.15	38848.21
656.30	39089.29
656.44	39709.53
656.58	38934.81
656.73	39000.35
656.87	38820.13
657.01	38728.84
657.16	39026.09
657.30	39283.55
657.45	39360.79
657.59	38534.58
657.73	38492.45
657.88	39110.35
658.02	39318.66
658.16	39035.45
658.31	38529.90
658.45	38906.73
658.60	38749.91
658.74	39082.27
658.88	39297.59
659.03	38593.09
659.17	38995.67
659.31	38003.28
659.46	38230.31
659.60	38768.63
659.74	38227.97
659.89	38106.26
660.03	37883.91
660.17	38181.16
660.32	38302.87
660.46	38380.10
660.60	37977.53
660.74	38087.54
660.89	38525.22
661.03	37558.58
661.17	37876.89
661.32	37900.29
661.46	37607.73
661.60	37832.42
661.74	37706.03
661.89	37497.72
662.03	37687.31
662.17	37645.18
662.31	37624.11
662.46	38005.62
662.60	37397.08
662.74	37525.81
662.88	37029.62
663.03	36994.51
663.17	36900.89
663.31	36999.19
663.45	37038.98
663.60	37237.92
663.74	36982.80
663.88	37263.67
664.02	36514.70
664.17	37284.73
664.31	36992.17
664.45	37118.56
664.59	36664.49
664.73	36577.89
664.88	36720.66
665.02	36622.36
665.16	36774.50
665.30	36325.11
665.44	36416.40
665.59	36044.25
665.73	35962.33
665.87	35988.08
666.01	36343.84
666.15	36191.70
666.29	36034.89
666.44	36308.73
666.58	36271.28
666.72	35625.29
666.86	35859.35
667.00	35629.98
667.14	35992.76
667.28	35840.62
667.43	35604.23
667.57	36205.75
667.71	36062.97
667.85	36336.82
667.99	35253.15
668.13	35496.56
668.27	35255.49
668.41	35239.11
668.56	34897.39
668.70	34993.35
668.84	34773.34
668.98	34923.13
669.12	35117.40
669.26	35213.36
669.40	34703.12
669.54	34888.03
669.68	34904.41
669.82	34836.53
669.96	34679.72
670.10	34412.90
670.25	34330.98
670.39	34419.92
670.53	34368.43
670.67	34361.40
670.81	34312.25
670.95	34361.40
671.09	34213.95
671.23	33935.43
671.37	34103.95
671.51	34384.81
671.65	33844.15
671.79	34059.48
671.93	34281.83
672.07	33940.11
672.21	34092.24
672.35	33434.55
672.49	33479.02
672.63	33687.33
672.77	33167.73
672.91	33708.40
673.05	32889.21
673.19	33415.83
673.33	32924.32
673.47	33177.09
673.61	32936.02
673.75	32823.67
673.89	32697.28
674.03	32313.44
674.17	32280.67
674.31	32407.06
674.45	32751.12
674.59	32591.96
674.73	32287.69
674.87	32231.52
675.01	32112.15
675.15	32133.21
675.29	31826.60
675.43	31725.96
675.56	31702.56
675.70	31721.28
675.84	31604.25
675.98	30747.62
676.12	31882.78
676.26	31817.24
676.40	31332.75
676.54	31208.70
676.68	30892.73
676.82	30359.09
676.96	31239.13
677.10	31054.23
677.23	31152.53
677.37	30953.58
677.51	30972.31
677.65	30567.40
677.79	30735.92
677.93	30644.63
678.07	30412.92
678.21	30272.49
678.34	29825.45
678.48	29944.81
678.62	29928.43
678.76	29661.61
678.90	29813.74
679.04	29926.09
679.18	29773.95
679.31	29319.89
679.45	29352.66
679.59	29460.32
679.73	29610.12
679.87	28753.48
680.00	29226.27
680.14	28737.10
680.28	28793.27
680.42	28423.47
680.56	28886.89
680.70	28638.80
680.83	28517.09
680.97	28563.90
681.11	28360.27
681.25	28238.56
681.39	28247.93
681.52	28034.94
681.66	27913.23
681.80	27117.45
681.94	27309.37
682.07	27318.73
682.21	27370.22
682.35	27328.10
682.49	27337.46
682.62	27019.14
682.76	27363.20
682.90	27222.77
683.04	27056.59
683.17	26953.61
683.31	27150.21
683.45	26387.20
683.59	26473.80
683.72	26249.11
683.86	26366.13
684.00	26450.39
684.13	26228.04
684.27	26134.42
684.41	25891.01
684.55	26106.34
684.68	26075.91
684.82	25619.50
684.96	25703.76
685.09	25715.47
685.23	25364.39
685.37	25944.84
685.50	25736.53
685.64	25565.67
685.78	25415.88
685.91	24732.44
686.05	24975.86
686.19	24451.58
686.32	24828.40
686.46	24580.31
686.60	24154.33
686.73	24896.28
686.87	24252.63
687.01	24372.00
687.14	24482.00
687.28	24215.18
687.42	24046.66
687.55	23981.13
687.69	23721.33
687.82	23836.02
687.96	23213.43
688.10	23683.88
688.23	23424.08
688.37	23585.58
688.50	23667.50
688.64	23337.48
688.78	23309.40
688.91	23077.68
689.05	23293.01
689.18	22527.66
689.32	22649.36
689.46	22434.03
689.59	22670.43
689.73	22668.09
689.86	22801.50
690.00	22464.46
690.13	22321.69
690.27	22192.96
690.41	22518.29
690.54	21947.20
690.68	21790.39
690.81	21701.45
690.95	21472.07
691.08	21537.61
691.22	21553.99
691.35	21558.67
691.49	21647.61
691.62	21483.78
691.76	21130.36
691.89	21060.14
692.03	20940.77
692.16	20865.88
692.30	20807.36
692.43	20737.15
692.57	20610.76
692.70	20376.70
692.84	20568.63
692.97	20210.53
693.11	20168.40
693.24	20182.44
693.38	19829.02
693.51	19796.25
693.65	19878.17
693.78	19922.64
693.92	19784.55
694.05	19929.66
694.19	19564.54
694.32	19548.15
694.45	19700.29
694.59	19620.71
694.72	19676.88
694.86	19407.72
694.99	18986.43
695.13	19281.33
695.26	18609.60
695.39	18731.31
695.53	18806.20
695.66	18822.59
695.80	18368.52
695.93	18801.52
696.07	18429.38
696.20	18160.22
696.33	17991.70
696.47	18059.57
696.60	18214.05
696.73	18286.61
696.87	17891.06
697.00	17811.48
697.14	17638.28
697.27	17841.90
697.40	17741.26
697.54	17462.74
697.67	17284.86
697.80	17640.62
697.94	17645.30
698.07	17493.16
698.21	17125.70
698.34	17277.83
698.47	16706.74
698.61	16739.51
698.74	16877.60
698.87	16809.73
699.01	16769.94
699.14	16641.21
699.27	16767.60
699.40	16444.60
699.54	16315.87
699.67	16353.32
699.80	16435.24
699.94	16203.53
700.07	16130.97
700.20	16067.78
700.34	16100.55
700.47	15892.24
700.60	15976.50
700.73	15894.58
700.87	15669.89
701.00	15473.28
701.13	15492.01
701.26	15363.28
701.40	15424.13
701.53	14949.00
701.66	15159.65
701.79	15070.71
701.93	14644.73
702.06	14780.48
702.19	14930.28
702.32	15002.83
702.46	14897.51
702.59	15059.01
702.72	14944.32
702.85	14885.81
702.99	14951.34
703.12	14286.63
703.25	14450.47
703.38	14382.59
703.51	14235.14
703.65	14090.02
703.78	13874.70
703.91	13851.29
704.04	13912.14
704.17	13565.74
704.31	13961.30
704.44	13650.00
704.57	13628.94
704.70	13650.00
704.83	13453.40
704.96	13451.06
705.10	13500.21
705.23	13284.88
>>>>>End Processed Spectral Data<<<<<
