SpectraSuite Data File
++++++++++++++++++++++++++++++++++++
Date: Fri Oct 25 11:34:14 EDT 2013
User: price-jones
Dark Spectrum Present: No
Reference Spectrum Present: No
Number of Sampled Component Spectra: 1
Spectrometers: USB2+H05261
Integration Time (usec): 100000 (USB2+H05261)
Spectra Averaged: 1 (USB2+H05261)
Boxcar Smoothing: 0 (USB2+H05261)
Correct for Electrical Dark: No (USB2+H05261)
Strobe/Lamp Enabled: No (USB2+H05261)
Correct for Detector Non-linearity: No (USB2+H05261)
Correct for Stray Light: No (USB2+H05261)
Number of Pixels in Processed Spectrum: 2048
>>>>>Begin Processed Spectral Data<<<<<
365.73	297.25
365.92	297.25
366.12	297.25
366.32	238.73
366.52	126.39
366.72	196.60
366.91	119.37
367.11	180.22
367.31	224.69
367.51	131.07
367.70	177.88
367.90	114.69
368.10	191.92
368.30	187.24
368.49	203.63
368.69	145.11
368.89	182.56
369.09	224.69
369.28	205.97
369.48	220.01
369.68	243.42
369.87	290.23
370.07	220.01
370.27	315.97
370.47	278.52
370.66	365.12
370.86	379.17
371.06	552.37
371.25	601.52
371.45	510.24
371.65	580.45
371.84	608.54
372.04	575.77
372.24	575.77
372.44	552.37
372.63	566.41
372.83	580.45
373.03	594.50
373.22	543.00
373.42	589.82
373.62	575.77
373.81	547.69
374.01	662.37
374.21	578.11
374.40	592.16
374.60	638.97
374.79	699.82
374.99	599.18
375.19	641.31
375.38	599.18
375.58	650.67
375.78	737.27
375.97	674.07
376.17	655.35
376.37	648.33
376.56	662.37
376.76	638.97
376.95	702.16
377.15	730.25
377.35	697.48
377.54	702.16
377.74	727.91
377.93	706.84
378.13	704.50
378.33	629.60
378.52	660.03
378.72	730.25
378.91	718.54
379.11	678.76
379.31	709.18
379.50	631.94
379.70	755.99
379.89	690.46
380.09	704.50
380.28	723.23
380.48	711.52
380.68	786.42
380.87	802.80
381.07	833.23
381.26	802.80
381.46	753.65
381.65	699.82
381.85	716.20
382.04	744.29
382.24	854.30
382.43	685.78
382.63	758.33
382.83	814.51
383.02	816.85
383.22	849.61
383.41	744.29
383.61	847.27
383.80	821.53
384.00	795.78
384.19	793.44
384.39	781.74
384.58	849.61
384.78	791.10
384.97	812.17
385.17	821.53
385.36	791.10
385.56	758.33
385.75	837.91
385.95	746.63
386.14	880.04
386.34	837.91
386.53	851.96
386.72	828.55
386.92	866.00
387.11	901.11
387.31	903.45
387.50	924.51
387.70	873.02
387.89	868.34
388.09	896.43
388.28	931.53
388.48	875.36
388.67	926.85
388.86	840.25
389.06	938.55
389.25	863.66
389.45	938.55
389.64	952.60
389.84	994.73
390.03	1048.56
390.22	985.37
390.42	858.98
390.61	1015.79
390.81	968.98
391.00	931.53
391.19	1048.56
391.39	999.41
391.58	1029.84
391.78	924.51
391.97	950.26
392.16	1008.77
392.36	994.73
392.55	1055.58
392.75	1160.91
392.94	1050.90
393.13	999.41
393.33	1041.54
393.52	1078.99
393.71	1074.31
393.91	1097.71
394.10	992.39
394.29	1055.58
394.49	994.73
394.68	1050.90
394.88	1004.09
395.07	1172.61
395.26	1135.16
395.46	1118.78
395.65	1217.08
395.84	1203.04
396.04	1280.27
396.23	1118.78
396.42	1174.95
396.62	1184.31
396.81	1210.06
397.00	1153.88
397.19	1198.35
397.39	1214.74
397.58	1282.61
397.77	1221.76
397.97	1235.80
398.16	1240.48
398.35	1235.80
398.55	1247.51
398.74	1406.66
398.93	1364.53
399.12	1268.57
399.32	1390.28
399.51	1291.98
399.70	1329.42
399.90	1261.55
400.09	1348.15
400.28	1352.83
400.47	1317.72
400.67	1413.68
400.86	1343.47
401.05	1385.60
401.24	1383.26
401.44	1453.47
401.63	1511.99
401.82	1411.34
402.01	1448.79
402.21	1362.19
402.40	1409.00
402.59	1451.13
402.78	1549.43
402.97	1624.33
403.17	1516.67
403.36	1507.30
403.55	1514.33
403.74	1561.14
403.93	1551.78
404.13	1610.29
404.32	1610.29
404.51	1497.94
404.70	1565.82
404.89	1509.65
405.09	1743.70
405.28	1619.65
405.47	1661.78
405.66	1687.53
405.85	1734.34
406.05	1750.72
406.24	1703.91
406.43	1739.02
406.62	1842.00
406.81	1811.57
407.00	1727.32
407.20	1710.93
407.39	1757.74
407.58	1774.13
407.77	1872.43
407.96	1818.60
408.15	1799.87
408.34	1820.94
408.54	1851.36
408.73	1942.64
408.92	1839.66
409.11	1898.17
409.30	2001.16
409.49	1994.14
409.68	2010.52
409.87	1912.22
410.07	1975.41
410.26	2050.31
410.45	2001.16
410.64	1994.14
410.83	2090.10
411.02	2059.67
411.21	2179.04
411.40	2122.87
411.59	2172.02
411.78	2090.10
411.98	2176.70
412.17	2265.64
412.36	2244.57
412.55	2270.32
412.74	2307.77
412.93	2275.00
413.12	2209.47
413.31	2331.17
413.50	2338.20
413.69	2359.26
413.88	2516.08
414.07	2370.96
414.26	2417.77
414.45	2441.18
414.64	2420.11
414.83	2553.52
415.02	2637.78
415.22	2576.93
415.41	2560.55
415.60	2656.51
415.79	2705.66
415.98	2698.64
416.17	2693.96
416.36	2642.46
416.55	2661.19
416.74	2789.92
416.93	2705.66
417.12	2668.21
417.31	2710.34
417.50	2895.24
417.69	2888.22
417.88	2913.97
418.07	2930.35
418.26	2953.76
418.45	2862.48
418.64	2953.76
418.83	3061.42
419.02	2904.60
419.21	3014.61
419.39	2920.99
419.58	2949.08
419.77	3028.65
419.96	3117.59
420.15	3274.41
420.34	3073.12
420.53	3110.57
420.72	3126.96
420.91	3194.83
421.10	3290.79
421.29	3314.20
421.48	3136.32
421.67	3162.06
421.86	3169.09
422.05	3323.56
422.24	3260.37
422.43	3246.32
422.61	3328.24
422.80	3307.18
422.99	3403.14
423.18	3325.90
423.37	3417.18
423.56	3227.60
423.75	3260.37
423.94	3159.72
424.13	3169.09
424.32	3229.94
424.50	3328.24
424.69	3372.71
424.88	3527.19
425.07	3403.14
425.26	3227.60
425.45	3433.57
425.64	3295.47
425.83	3382.07
426.01	3424.20
426.20	3304.84
426.39	3412.50
426.58	3372.71
426.77	3363.35
426.96	3442.93
427.15	3339.94
427.33	3435.91
427.52	3426.54
427.71	3496.76
427.90	3517.83
428.09	3389.10
428.28	3574.00
428.46	3627.83
428.65	3719.11
428.84	3627.83
429.03	3705.07
429.22	3611.45
429.40	3630.17
429.59	3613.79
429.78	3684.00
429.97	3501.44
430.16	3763.58
430.34	3833.80
430.53	3843.16
430.72	3817.41
430.91	3723.79
431.10	3691.02
431.28	3852.52
431.47	3854.86
431.66	3864.22
431.85	3740.18
432.03	3997.64
432.22	3955.51
432.41	3985.93
432.60	3878.27
432.79	4086.58
432.97	4077.21
433.16	3960.19
433.35	4042.11
433.54	4060.83
433.72	4063.17
433.91	4070.19
434.10	4142.75
434.28	4056.15
434.47	4070.19
434.66	4030.40
434.85	4180.20
435.03	4278.50
435.22	4262.12
435.41	4344.03
435.59	4341.69
435.78	4156.79
435.97	4308.93
436.16	4444.68
436.34	4217.65
436.53	4320.63
436.72	4507.87
436.90	4259.78
437.09	4496.17
437.28	4402.55
437.46	4472.76
437.65	4519.57
437.84	4571.07
438.02	4442.34
438.21	4620.22
438.40	4599.15
438.58	4596.81
438.77	4737.24
438.96	4692.77
439.14	4802.78
439.33	4819.16
439.52	4786.40
439.70	4807.46
439.89	4985.34
440.08	4873.00
440.26	4877.68
440.45	4880.02
440.63	4891.72
440.82	5128.11
441.01	4861.29
441.19	5093.01
441.38	5048.54
441.57	5104.71
441.75	5181.95
441.94	5170.24
442.12	5334.08
442.31	5334.08
442.50	5219.39
442.68	5249.82
442.87	5327.06
443.05	5334.08
443.24	5308.34
443.43	5345.78
443.61	5355.15
443.80	5596.22
443.98	5336.42
444.17	5242.80
444.35	5533.03
444.54	5526.00
444.73	5537.71
444.91	5439.40
445.10	5437.06
445.28	5385.57
445.47	5526.00
445.65	5495.58
445.84	5530.69
446.02	5827.93
446.21	5628.99
446.39	5486.22
446.58	5579.84
446.77	5710.91
446.95	5488.56
447.14	5621.97
447.32	5666.44
447.51	5420.68
447.69	5713.25
447.88	5746.02
448.06	5692.18
448.25	5631.33
448.43	5579.84
448.62	5706.23
448.80	5558.77
448.99	5659.42
449.17	5778.78
449.36	5809.21
449.54	5968.37
449.73	5846.66
449.91	5982.41
450.10	5973.05
450.28	5870.06
450.46	5980.07
450.65	5970.71
450.83	6008.16
451.02	5879.43
451.20	6045.60
451.39	6069.01
451.57	6019.86
451.76	6017.52
451.94	6040.92
452.13	6235.19
452.31	6017.52
452.49	5994.11
452.68	6054.97
452.86	6118.16
453.05	6087.73
453.23	6181.35
453.42	6291.36
453.60	6036.24
453.78	6176.67
453.97	6164.97
454.15	6485.62
454.34	6333.49
454.52	6246.89
454.70	6420.09
454.89	6389.66
455.07	6399.02
455.26	6408.39
455.44	6581.59
455.62	6476.26
455.81	6476.26
455.99	6562.86
456.17	6490.31
456.36	6445.84
456.54	6600.31
456.73	6820.32
456.91	6951.39
457.09	6752.45
457.28	6836.70
457.46	6850.75
457.64	7040.33
457.83	6993.52
458.01	6855.43
458.19	7162.04
458.38	6876.49
458.56	6927.99
458.74	7061.40
458.93	6911.60
459.11	7035.65
459.29	7260.34
459.48	7162.04
459.66	7012.24
459.84	6885.86
460.03	7138.63
460.21	7119.91
460.39	7274.38
460.57	7084.80
460.76	7248.64
460.94	7337.58
461.12	7126.93
461.31	7501.42
461.49	7335.24
461.67	7363.33
461.85	7372.69
462.04	7344.60
462.22	7922.71
462.40	7634.83
462.59	7297.79
462.77	7456.95
462.95	7578.65
463.13	7599.72
463.32	7665.25
463.50	7662.91
463.68	7829.09
463.86	7786.96
464.05	7756.54
464.23	7672.28
464.41	7857.18
464.59	7583.34
464.78	7901.65
464.96	7859.52
465.14	7770.58
465.32	7913.35
465.50	7999.95
465.69	8058.46
465.87	7925.05
466.05	8112.30
466.23	7714.41
466.41	8006.97
466.60	8042.08
466.78	7779.94
466.96	7908.67
467.14	7967.18
467.32	8084.21
467.51	8329.97
467.69	7875.90
467.87	8042.08
468.05	8177.83
468.23	8210.60
468.41	8046.76
468.60	8042.08
468.78	8245.71
468.96	8229.32
469.14	8231.66
469.32	8358.05
469.50	8215.28
469.69	8407.20
469.87	8451.67
470.05	8650.62
470.23	8662.32
470.41	8482.10
470.59	8585.08
470.77	8746.58
470.95	8643.60
471.14	8751.26
471.32	8510.19
471.50	8868.29
471.68	8964.25
471.86	9041.49
472.04	8908.08
472.22	9165.54
472.40	8915.10
472.58	8865.95
472.77	8999.36
472.95	9020.42
473.13	9516.62
473.31	9071.92
473.49	9252.14
473.67	9135.11
473.85	9312.99
474.03	9589.17
474.21	9406.61
474.39	9621.94
474.57	9511.94
474.75	9827.91
474.93	9692.16
475.12	9659.39
475.30	9827.91
475.48	9935.57
475.66	9933.23
475.84	9710.88
476.02	9827.91
476.20	9755.35
476.38	10146.22
476.56	10326.44
476.74	10476.24
476.92	10214.10
477.10	10195.37
477.28	10370.91
477.46	10403.68
477.64	10530.07
477.82	10759.44
478.00	10923.28
478.18	10705.61
478.36	10747.74
478.54	11176.06
478.72	10963.07
478.90	11147.97
479.08	11257.98
479.26	11187.76
479.44	11323.51
479.62	11131.59
479.80	11641.82
479.98	11714.38
480.16	11990.56
480.34	11583.31
480.52	11789.28
480.70	12002.27
480.88	12002.27
481.06	12145.04
481.24	12156.74
481.41	12308.88
481.59	12381.43
481.77	12407.18
481.95	12498.46
482.13	12903.37
482.31	12711.45
482.49	12950.18
482.67	12791.03
482.85	13057.85
483.03	13156.15
483.21	13245.09
483.39	13350.42
483.57	13298.92
483.74	13373.82
483.92	13565.74
484.10	13378.50
484.28	13879.38
484.46	13954.27
484.64	14260.88
484.82	14097.05
485.00	14490.26
485.18	14518.34
485.35	14623.67
485.53	14434.08
485.71	14661.12
485.89	15110.50
486.07	14977.09
486.25	14911.55
486.43	14822.61
486.61	15410.09
486.78	15297.74
486.96	15634.78
487.14	15716.70
487.32	15667.55
487.50	15789.25
487.68	15955.43
487.85	15969.48
488.03	16446.94
488.21	16599.08
488.39	16187.14
488.57	16760.58
488.75	16769.94
488.92	16847.18
489.10	17186.55
489.28	17097.61
489.46	17287.20
489.64	17053.14
489.81	17640.62
489.99	17715.51
490.17	17577.42
490.35	17848.93
490.53	18008.08
490.70	17921.48
490.88	18321.71
491.06	18192.98
491.24	18583.85
491.41	18382.57
491.59	18611.94
491.77	18771.10
491.95	18864.72
492.13	18946.64
492.30	19325.80
492.48	19330.48
492.66	19119.84
492.84	19377.30
493.01	19910.94
493.19	19733.06
493.37	19716.67
493.54	19719.01
493.72	20063.07
493.90	19859.45
494.08	20144.99
494.25	20610.76
494.43	20451.60
494.61	20512.46
494.79	21083.55
494.96	20699.70
495.14	21081.21
495.32	21095.25
495.49	21214.62
495.67	21303.56
495.85	21500.16
496.02	21500.16
496.20	21556.33
496.38	21790.39
496.55	21647.61
496.73	22473.82
496.91	22352.12
497.09	22394.25
497.26	22239.77
497.44	22157.85
497.62	22595.53
497.79	22672.77
497.97	22614.26
498.14	22885.76
498.32	23054.28
498.50	23328.12
498.67	23435.78
498.85	23400.68
499.03	23606.64
499.20	23330.46
499.38	23330.46
499.56	23761.12
499.73	23931.98
499.91	24009.22
500.08	24163.69
500.26	24027.94
500.44	24283.06
500.61	24095.82
500.79	24254.97
500.97	24631.80
501.14	24727.76
501.32	24343.91
501.49	24463.28
501.67	24725.42
501.84	24741.80
502.02	24479.66
502.20	25106.93
502.37	24968.84
502.55	24849.47
502.72	25230.98
502.90	25404.17
503.07	25502.48
503.25	25413.54
503.43	25254.38
503.60	25591.42
503.78	25860.58
503.95	25773.98
504.13	25963.56
504.30	26167.19
504.48	26221.02
504.65	26190.59
504.83	25888.67
505.01	26251.45
505.18	26419.97
505.36	26448.05
505.53	26656.36
505.71	26656.36
505.88	26551.04
506.06	26536.99
506.23	26831.90
506.41	26476.14
506.58	27150.21
506.76	27201.71
506.93	26806.16
507.11	27028.51
507.28	27072.98
507.46	27056.59
507.63	27597.26
507.81	27662.79
507.98	27360.86
508.16	27634.71
508.33	27697.90
508.50	27859.40
508.68	27835.99
508.85	28346.23
509.03	28161.33
509.20	28114.52
509.38	28554.54
509.55	28271.33
509.73	28599.01
509.90	28584.96
510.08	28402.40
510.25	28470.28
510.42	28886.89
510.60	28999.24
510.77	29001.58
510.95	29120.95
511.12	28985.19
511.30	29134.99
511.47	29577.35
511.64	29125.63
511.82	29331.59
511.99	29516.50
512.17	29687.36
512.34	29326.91
512.51	29898.00
512.69	30045.46
512.86	29865.24
513.04	29790.34
513.21	30251.42
513.38	30462.07
513.56	29982.26
513.73	30309.94
513.90	30466.75
514.08	30663.36
514.25	30611.87
514.43	30752.30
514.60	30745.28
514.77	30885.71
514.95	30764.00
515.12	30796.77
515.29	30630.59
515.47	30951.24
515.64	31363.18
515.81	31133.81
515.99	31168.91
516.16	31601.91
516.33	31145.51
516.51	31477.86
516.68	31613.62
516.85	31864.05
517.03	31363.18
517.20	31927.25
517.37	31625.32
517.54	32086.40
517.72	31798.52
517.89	32414.08
518.06	32437.48
518.24	32180.03
518.41	32275.99
518.58	32039.59
518.75	32002.14
518.93	32254.92
519.10	32463.23
519.27	32570.90
519.45	32732.39
519.62	32926.66
519.79	32809.63
519.96	32690.26
520.14	32938.36
520.31	33027.30
520.48	33179.43
520.65	32968.79
520.83	33057.73
521.00	33371.36
521.17	33230.93
521.34	33188.80
521.52	33404.13
521.69	33748.18
521.86	33888.62
522.03	33956.49
522.20	33998.62
522.38	33921.38
522.55	34167.14
522.72	34333.32
522.89	34270.12
523.07	34431.62
523.24	34401.19
523.41	34258.42
523.58	34408.22
523.75	34361.40
523.92	34246.72
524.10	34689.08
524.27	35037.82
524.44	34630.57
524.61	34756.96
524.78	34609.50
524.96	35117.40
525.13	35267.19
525.30	34920.79
525.47	35239.11
525.64	35187.61
525.81	35515.29
525.98	34876.32
526.16	35625.29
526.33	35449.75
526.50	35358.47
526.67	35189.95
526.84	35576.14
527.01	35264.85
527.18	35861.69
527.36	35950.63
527.53	35854.67
527.70	36301.71
527.87	35786.79
528.04	35828.92
528.21	35910.84
528.38	36051.27
528.55	36273.62
528.72	35964.67
528.89	36334.48
529.07	36432.78
529.24	36297.03
529.41	36613.00
529.58	36030.21
529.75	36751.09
529.92	36699.60
530.09	36547.47
530.26	37017.91
530.43	36369.58
530.60	36507.68
530.77	36617.68
530.94	37361.97
531.11	36776.84
531.28	36828.33
531.46	36975.78
531.63	37062.38
531.80	37151.32
531.97	37226.22
532.14	37200.47
532.31	37116.22
532.48	37736.46
532.65	37287.07
532.82	37446.23
532.99	37237.92
533.16	37331.54
533.33	37940.08
533.50	37600.71
533.67	37773.91
533.84	37553.90
534.01	37689.65
534.18	37715.39
534.35	38047.75
534.52	37961.15
534.69	37691.99
534.86	37977.53
535.03	38059.45
535.20	38033.71
535.37	38199.88
535.54	38459.68
535.71	38337.98
535.88	38440.96
536.05	38754.59
536.22	38476.07
536.38	38693.74
536.55	38703.10
536.72	38859.91
536.89	38714.80
537.06	39140.78
537.23	39089.29
537.40	38394.15
537.57	38565.01
537.74	38714.80
537.91	38864.60
538.08	38845.87
538.25	38911.41
538.42	38499.47
538.59	39203.97
538.75	39243.76
538.92	39360.79
539.09	39445.05
539.26	39021.41
539.43	39283.55
539.60	39232.06
539.77	39379.51
539.94	39210.99
540.11	39302.28
540.28	39765.70
540.44	39875.71
540.61	39543.35
540.78	39679.10
540.95	40112.10
541.12	39559.73
541.29	40119.12
541.46	40259.55
541.62	39894.43
541.79	40271.26
541.96	39838.26
542.13	39945.92
542.30	39896.77
542.47	40421.05
542.63	40322.75
542.80	40446.80
542.97	40580.21
543.14	40634.04
543.31	40320.41
543.48	40821.28
543.64	40851.71
543.81	41083.42
543.98	41003.85
544.15	40587.23
544.32	40830.65
544.48	41298.75
544.65	40650.42
544.82	40968.74
544.99	40760.43
545.16	41277.69
545.32	41038.95
545.49	41301.09
545.66	41542.17
545.83	41488.34
546.00	41422.80
546.16	41125.55
546.33	41483.66
546.50	40786.18
546.67	41619.41
546.83	41296.41
547.00	41603.02
547.17	41284.71
547.34	41598.34
547.50	42106.24
547.67	41680.26
547.84	41722.39
548.00	41982.19
548.17	42164.75
548.34	42061.77
548.51	42380.08
548.67	42017.30
548.84	41954.10
549.01	41933.04
549.18	42038.36
549.34	42192.84
549.51	42351.99
549.68	42483.06
549.84	42000.91
550.01	42277.10
550.18	42141.35
550.34	42602.43
550.51	42728.82
550.68	42380.08
550.84	42380.08
551.01	42630.52
551.18	42508.81
551.34	42651.58
551.51	42663.28
551.68	42370.72
551.84	42440.93
552.01	42515.83
552.18	43040.11
552.34	43044.79
552.51	42733.50
552.68	42848.19
552.84	42487.74
553.01	43042.45
553.18	42539.24
553.34	42960.53
553.51	43086.92
553.67	43215.65
553.84	43725.89
554.01	43634.61
554.17	42890.32
554.34	43562.05
554.51	43276.51
554.67	42997.98
554.84	43122.03
555.00	43407.58
555.17	43072.88
555.33	43749.29
555.50	43576.09
555.67	43672.06
555.83	43339.70
556.00	43676.74
556.16	44320.38
556.33	43847.60
556.50	43622.90
556.66	43768.02
556.83	43672.06
556.99	43641.63
557.16	44177.61
557.32	44259.53
557.49	43536.30
557.65	44037.18
557.82	43929.51
557.98	44119.10
558.15	43868.66
558.32	44203.36
558.48	44091.01
558.65	44037.18
558.81	44245.49
558.98	44006.75
559.14	44184.63
559.31	44013.77
559.47	44210.38
559.64	43690.78
559.80	44091.01
559.97	44697.21
560.13	44165.91
560.30	44360.17
560.46	44715.93
560.63	44610.61
560.79	44481.88
560.96	44732.32
561.12	44421.03
561.29	44472.52
561.45	44727.64
561.61	44619.97
561.78	44446.77
561.94	44362.51
562.11	44610.61
562.27	44491.24
562.44	44329.75
562.60	44732.32
562.77	44561.46
562.93	44308.68
563.10	44545.08
563.26	44542.74
563.42	45132.55
563.59	44816.58
563.75	44811.90
563.92	44725.30
564.08	44940.63
564.24	44769.77
564.41	44643.38
564.57	45099.78
564.74	45137.23
564.90	44465.50
565.07	44720.62
565.23	44699.55
565.39	44758.06
565.56	44961.69
565.72	44886.79
565.88	44821.26
566.05	45071.70
566.21	44790.83
566.38	45123.19
566.54	45219.15
566.70	45230.85
566.87	44823.60
567.03	44835.30
567.19	45296.39
567.36	45242.56
567.52	44938.29
567.68	45542.14
567.85	45272.98
568.01	45509.38
568.17	45223.83
568.34	45434.48
568.50	45230.85
568.66	45148.93
568.83	44924.24
568.99	45226.17
569.15	45282.34
569.32	44942.97
569.48	45104.46
569.64	45490.65
569.81	45394.69
569.97	45544.48
570.13	45490.65
570.30	45305.75
570.46	45139.57
570.62	45347.88
570.78	45167.66
570.95	45593.64
571.11	45759.81
571.27	45453.20
571.43	45860.46
571.60	45284.68
571.76	45191.06
571.92	45460.23
572.09	45336.18
572.25	45373.63
572.41	45249.58
572.57	45401.71
572.74	45603.00
572.90	45593.64
573.06	45649.81
573.22	45603.00
573.38	45837.05
573.55	45738.75
573.71	46103.87
573.87	46115.58
574.03	45474.27
574.20	45677.90
574.36	45661.51
574.52	45888.54
574.68	46117.92
574.84	45935.35
575.01	46054.72
575.17	45715.34
575.33	45682.58
575.49	45965.78
575.65	45783.22
575.82	45804.28
575.98	45448.52
576.14	46146.00
576.30	46146.00
576.46	45823.01
576.62	45720.02
576.79	45565.55
576.95	45251.92
577.11	45308.09
577.27	45734.07
577.43	45783.22
577.59	45720.02
577.75	45860.46
577.92	45399.37
578.08	45614.70
578.24	45851.09
578.40	45698.96
578.56	45993.87
578.72	46248.99
578.88	45888.54
579.04	46307.50
579.21	45736.41
579.37	45825.35
579.53	45961.10
579.69	45715.34
579.85	45619.38
580.01	45710.66
580.17	45780.88
580.33	46153.02
580.49	45804.28
580.65	45921.31
580.82	45996.21
580.98	45918.97
581.14	45656.83
581.30	45745.77
581.46	45731.73
581.62	46157.70
581.78	45553.85
581.94	45837.05
582.10	46232.60
582.26	46143.66
582.42	46188.13
582.58	46204.52
582.74	46256.01
582.90	45949.40
583.06	46323.88
583.22	45727.05
583.38	46342.61
583.54	45921.31
583.70	46138.98
583.86	46003.23
584.02	46087.49
584.18	46567.30
584.34	46064.08
584.50	46422.19
584.66	46234.94
584.82	46028.98
584.98	46291.12
585.14	46225.58
585.30	46351.97
585.46	46274.73
585.62	46012.59
585.78	46351.97
585.94	45769.18
586.10	45900.25
586.26	46021.95
586.42	46586.02
586.58	46431.55
586.74	46040.68
586.90	46370.69
587.06	45928.33
587.22	46162.39
587.38	46096.85
587.54	46684.33
587.70	46696.03
587.86	46293.46
588.02	46337.93
588.18	46061.74
588.34	46106.21
588.49	46700.71
588.65	45881.52
588.81	46504.10
588.97	46588.36
589.13	46190.47
589.29	46373.03
589.45	46508.79
589.61	46639.86
589.77	46333.24
589.93	46623.47
590.08	46672.62
590.24	46740.50
590.40	46646.88
590.56	46918.38
590.72	46571.98
590.88	46445.59
591.04	46450.27
591.20	46806.03
591.35	46717.09
591.51	47000.30
591.67	46728.80
591.83	46878.59
591.99	46464.32
592.15	46766.24
592.31	46705.39
592.46	46721.77
592.62	46693.69
592.78	46873.91
592.94	47026.04
593.10	46766.24
593.26	46855.18
593.41	47014.34
593.57	46689.01
593.73	46560.28
593.89	46820.08
594.05	46986.25
594.20	46775.61
594.36	46934.76
594.52	47126.69
594.68	46681.98
594.84	47105.62
594.99	47096.26
595.15	46972.21
595.31	47075.19
595.47	46885.61
595.62	46728.80
595.78	46639.86
595.94	46894.97
596.10	46679.64
596.25	46784.97
596.41	47051.79
596.57	46579.00
596.73	46932.42
596.88	46705.39
597.04	46665.60
597.20	47196.90
597.36	46459.63
597.51	47077.54
597.67	46806.03
597.83	46520.49
597.99	47236.69
598.14	47044.77
598.30	46988.60
598.46	47033.07
598.61	46855.18
598.77	46586.02
598.93	47157.11
599.09	47173.50
599.24	47641.60
599.40	46878.59
599.56	47079.88
599.71	47309.25
599.87	47838.21
600.03	47182.86
600.18	47201.58
600.34	47009.66
600.50	46965.19
600.65	47049.45
600.81	47285.84
600.97	46843.48
601.12	46972.21
601.28	47157.11
601.44	46691.35
601.59	47360.74
601.75	46810.71
601.91	47164.14
602.06	47276.48
602.22	46979.23
602.37	46962.85
602.53	47269.46
602.69	47117.32
602.84	46763.90
603.00	47297.55
603.16	47049.45
603.31	47014.34
603.47	47154.77
603.62	47192.22
603.78	47351.38
603.94	47164.14
604.09	47260.10
604.25	47098.60
604.40	46911.36
604.56	47332.65
604.71	46995.62
604.87	47054.13
605.03	47168.82
605.18	47009.66
605.34	47129.03
605.49	46799.01
605.65	47543.30
605.80	46911.36
605.96	47023.70
606.12	47224.99
606.27	47035.41
606.43	46864.55
606.58	47203.92
606.74	46930.08
606.89	46836.46
607.05	47201.58
607.20	47306.91
607.36	46728.80
607.51	46883.27
607.67	46600.07
607.82	46747.52
607.98	47040.09
608.13	46883.27
608.29	46923.06
608.44	46775.61
608.60	46724.11
608.75	46770.93
608.91	47042.43
609.06	46911.36
609.22	46789.65
609.37	46279.41
609.53	46958.17
609.68	46733.48
609.84	46581.34
609.99	46707.73
610.15	47232.01
610.30	46602.41
610.46	46674.96
610.61	46745.18
610.76	47145.41
610.92	46593.04
611.07	46356.65
611.23	46520.49
611.38	46726.46
611.54	46689.01
611.69	47185.20
611.84	46820.08
612.00	46782.63
612.15	46251.33
612.31	46623.47
612.46	46485.38
612.62	46312.18
612.77	46384.74
612.92	46766.24
613.08	46328.56
613.23	46579.00
613.39	46553.26
613.54	46066.42
613.69	46206.86
613.85	46735.82
614.00	46443.25
614.15	46864.55
614.31	46106.21
614.46	45942.38
614.62	46223.24
614.77	46396.44
614.92	46321.54
615.08	46417.50
615.23	46368.35
615.38	46602.41
615.54	46321.54
615.69	46363.67
615.84	46347.29
616.00	46389.42
616.15	46309.84
616.30	46600.07
616.46	45841.73
616.61	46040.68
616.76	46136.64
616.92	45876.84
617.07	46021.95
617.22	45682.58
617.37	45757.47
617.53	45956.42
617.68	45867.48
617.83	45799.60
617.99	46398.78
618.14	46298.14
618.29	46024.29
618.45	46164.73
618.60	45801.94
618.75	45752.79
618.90	45872.16
619.06	45834.71
619.21	46267.71
619.36	45940.04
619.51	45518.74
619.67	45518.74
619.82	45883.86
619.97	46312.18
620.12	45848.75
620.28	45591.30
620.43	46085.15
620.58	45474.27
620.73	45743.43
620.89	45951.74
621.04	46295.80
621.19	45500.01
621.34	45673.21
621.49	45631.08
621.65	45642.79
621.80	45904.93
621.95	45516.40
622.10	45373.63
622.25	45446.18
622.41	45310.43
622.56	45467.25
622.71	45617.04
622.86	45280.00
623.01	45184.04
623.16	45453.20
623.32	45485.97
623.47	45364.26
623.62	45387.67
623.77	45528.10
623.92	45460.23
624.07	45382.99
624.23	45642.79
624.38	45317.45
624.53	45116.17
624.68	44968.71
624.83	44912.54
624.98	45254.26
625.13	45139.57
625.29	45219.15
625.44	45123.19
625.59	45017.86
625.74	44802.53
625.89	44980.42
626.04	44680.83
626.19	44701.89
626.34	45167.66
626.49	44680.83
626.65	44444.43
626.80	45219.15
626.95	44685.51
627.10	44126.12
627.25	44900.84
627.40	44744.02
627.55	44556.78
627.70	44767.43
627.85	44477.20
628.00	44797.85
628.15	44493.58
628.30	44158.89
628.45	44222.08
628.60	44058.24
628.76	44046.54
628.91	44514.65
629.06	44236.12
629.21	44261.87
629.36	44004.41
629.51	44133.14
629.66	44788.49
629.81	44332.09
629.96	44385.92
630.11	43863.98
630.26	44451.45
630.41	44210.38
630.56	44383.58
630.71	44339.11
630.86	43945.90
631.01	43859.30
631.16	44018.46
631.31	43920.15
631.46	43648.65
631.61	44493.58
631.76	44271.23
631.91	44362.51
632.06	44594.23
632.21	44156.55
632.36	43885.04
632.51	43798.44
632.66	43973.98
632.81	44072.29
632.96	43746.95
633.10	43580.78
633.25	44130.80
633.40	43997.39
633.55	44128.46
633.70	43517.58
633.85	43590.14
634.00	43435.66
634.15	43313.95
634.30	43658.01
634.45	43606.52
634.60	43370.13
634.75	43328.00
634.90	43672.06
635.05	43529.28
635.19	43562.05
635.34	43349.06
635.49	43206.29
635.64	43639.29
635.79	43335.02
635.94	43253.10
636.09	43100.97
636.24	43391.19
636.39	43115.01
636.53	43372.47
636.68	42960.53
636.83	42916.06
636.98	43192.25
637.13	42656.26
637.28	43246.08
637.43	43077.56
637.57	43124.37
637.72	42635.20
637.87	42801.38
638.02	43225.01
638.17	43206.29
638.32	43021.39
638.46	42927.77
638.61	42572.00
638.76	42866.91
638.91	42923.08
639.06	42684.35
639.20	42342.63
639.35	42485.40
639.50	42333.27
639.65	42911.38
639.80	42806.06
639.94	42476.04
640.09	42864.57
640.24	42770.95
640.39	42506.47
640.54	42101.56
640.68	42623.50
640.83	42293.48
640.98	42139.00
641.13	41956.44
641.27	43122.03
641.42	42511.15
641.57	42040.70
641.72	42178.79
641.86	42136.66
642.01	42183.48
642.16	41937.72
642.31	41668.56
642.45	42387.10
642.60	41942.40
642.75	42031.34
642.90	42560.30
643.04	42209.22
643.19	41813.67
643.34	41787.92
643.48	41268.33
643.63	41762.18
643.78	41881.55
643.93	42073.47
644.07	41909.63
644.22	42085.17
644.37	42155.39
644.51	41895.59
644.66	42359.02
644.81	41909.63
644.95	42267.73
645.10	41853.46
645.25	41542.17
645.39	41722.39
645.54	41469.61
645.69	40994.48
645.83	41155.98
645.98	41373.65
646.13	41542.17
646.27	41209.81
646.42	41605.36
646.57	41432.16
646.71	41331.52
646.86	41832.39
647.00	41722.39
647.15	41357.27
647.30	41525.78
647.44	41333.86
647.59	41581.96
647.74	41343.22
647.88	41167.68
648.03	41745.80
648.17	41544.51
648.32	41493.02
648.47	41879.21
648.61	41043.63
648.76	41060.02
648.90	40683.19
649.05	41191.09
649.20	41139.60
649.34	41326.84
649.49	40985.12
649.63	41439.18
649.78	41200.45
649.92	41106.83
650.07	41546.85
650.21	41031.93
650.36	41397.06
650.51	41071.72
650.65	41137.26
650.80	40624.68
650.94	41191.09
651.09	40854.05
651.23	40470.20
651.38	40509.99
651.52	40591.91
651.67	40769.79
651.81	40783.83
651.96	40985.12
652.10	40563.82
652.25	40547.44
652.39	40517.01
652.54	40783.83
652.68	40542.76
652.83	40294.66
652.97	40931.29
653.12	40538.08
653.26	40524.04
653.41	40533.40
653.55	40261.90
653.70	40879.80
653.84	40582.55
653.99	40449.14
654.13	40154.23
654.27	39957.63
654.42	40521.69
654.56	39981.03
654.71	40212.74
654.85	40486.59
655.00	40463.18
655.14	40182.32
655.29	40399.99
655.43	40414.03
655.57	39859.32
655.72	39885.07
655.86	40011.46
656.01	39681.44
656.15	39770.38
656.30	39800.81
656.44	39896.77
656.58	39936.56
656.73	40149.55
656.87	39482.50
657.01	39655.70
657.16	39999.76
657.30	39974.01
657.45	39908.47
657.59	39325.68
657.73	39316.32
657.88	39391.22
658.02	39716.55
658.16	40137.85
658.31	39302.28
658.45	39709.53
658.60	39196.95
658.74	39566.76
658.88	39716.55
659.03	39395.90
659.17	39220.36
659.31	38916.09
659.46	39152.48
659.60	39470.79
659.74	38972.26
659.89	38569.69
660.03	38440.96
660.17	38990.98
660.32	38885.66
660.46	38794.38
660.60	38321.59
660.74	38719.48
660.89	39175.89
661.03	38450.32
661.17	38127.33
661.32	38478.41
661.46	38845.87
661.60	38721.82
661.74	38361.38
661.89	38323.93
662.03	38733.53
662.17	38426.92
662.31	38178.82
662.46	37921.36
662.60	38080.52
662.74	37619.43
662.88	38052.43
663.03	37537.51
663.17	37682.62
663.31	37525.81
663.45	37965.83
663.60	38024.34
663.74	37914.34
663.88	37745.82
664.02	37584.32
664.17	38417.55
664.31	37490.70
664.45	37055.36
664.59	37792.63
664.73	37141.96
664.88	37350.27
665.02	37361.97
665.16	37223.88
665.30	37448.57
665.44	37081.11
665.59	36879.82
665.73	37156.00
665.87	36477.25
666.01	36872.80
666.15	36952.38
666.29	36549.81
666.44	37177.07
666.58	36587.25
666.72	36776.84
666.86	37125.58
667.00	36711.30
667.14	36121.49
667.28	36503.00
667.43	36252.56
667.57	36346.18
667.71	36086.38
667.85	36514.70
667.99	36032.55
668.13	35873.39
668.27	35765.73
668.41	35438.05
668.56	35400.60
668.70	35597.21
668.84	35459.12
668.98	35321.02
669.12	35583.16
669.26	35985.74
669.40	35676.79
669.54	35669.76
669.68	35697.85
669.82	35644.02
669.96	34932.50
670.10	35227.40
670.25	35068.25
670.39	35262.51
670.53	35454.44
670.67	35185.27
670.81	35365.49
670.95	35030.80
671.09	35037.82
671.23	34237.36
671.37	35227.40
671.51	34677.38
671.65	34836.53
671.79	34616.52
671.93	34771.00
672.07	34728.87
672.21	34457.37
672.35	34108.63
672.49	33837.12
672.63	34181.18
672.77	34141.39
672.91	34284.17
673.05	34132.03
673.19	33692.01
673.33	33916.70
673.47	33404.13
673.61	33301.14
673.75	33184.12
673.89	33111.56
674.03	33062.41
674.17	32779.20
674.31	33053.05
674.45	33060.07
674.59	33134.96
674.73	33029.64
674.87	33041.34
675.01	32514.72
675.15	32624.73
675.29	32381.31
675.43	32547.49
675.56	32861.12
675.70	32016.19
675.84	32535.79
675.98	31503.61
676.12	32224.50
676.26	31786.82
676.40	32006.83
676.54	31475.52
676.68	31725.96
676.82	31168.91
676.96	31854.69
677.10	31604.25
677.23	31363.18
677.37	31372.54
677.51	31363.18
677.65	31405.31
677.79	31077.63
677.93	31463.82
678.07	31302.32
678.21	30738.26
678.34	30988.69
678.48	30331.00
678.62	30529.95
678.76	30162.48
678.90	30293.55
679.04	30246.74
679.18	30267.81
679.31	30033.75
679.45	29921.41
679.59	29734.17
679.73	29993.97
679.87	29560.97
680.00	29689.70
680.14	29134.99
680.28	29628.84
680.42	29474.37
680.56	29284.78
680.70	28919.66
680.83	28865.83
680.97	28959.45
681.11	28758.16
681.25	28547.51
681.39	28287.71
681.52	28570.92
681.66	28477.30
681.80	28041.96
681.94	27901.53
682.07	27969.40
682.21	28018.55
682.35	27978.76
682.49	28018.55
682.62	27716.62
682.76	27896.85
682.90	27681.52
683.04	27337.46
683.17	27297.67
683.31	27323.41
683.45	27122.13
683.59	26984.04
683.72	26771.05
683.86	26972.33
684.00	26923.18
684.13	27005.10
684.27	26707.85
684.41	26515.93
684.55	26726.58
684.68	26431.67
684.82	26146.12
684.96	26092.29
685.09	25970.58
685.23	26260.81
685.37	25961.22
685.50	26094.63
685.64	26113.36
685.78	25614.82
685.91	25830.15
686.05	25085.86
686.19	24971.18
686.32	25081.18
686.46	24795.64
686.60	24678.61
686.73	24973.52
686.87	24615.41
687.01	24926.71
687.14	24896.28
687.28	24388.38
687.42	24556.90
687.55	24533.50
687.69	24734.78
687.82	23939.00
687.96	24276.04
688.10	24180.07
688.23	23997.51
688.37	24187.10
688.50	24247.95
688.64	23608.98
688.78	23885.17
688.91	23831.33
689.05	23728.35
689.18	23201.73
689.32	22974.70
689.46	23035.55
689.59	23208.75
689.73	23274.29
689.86	23269.61
690.00	23044.91
690.13	22895.12
690.27	22593.19
690.41	22977.04
690.54	22181.26
690.68	22342.75
690.81	22249.13
690.95	22221.05
691.08	22317.01
691.22	21874.65
691.35	21872.31
691.49	22050.19
691.62	21970.61
691.76	21626.55
691.89	21682.72
692.03	21369.09
692.16	21053.12
692.30	21099.93
692.43	21095.25
692.57	21053.12
692.70	20924.39
692.84	20697.36
692.97	20556.93
693.11	20821.41
693.24	20636.50
693.38	20355.64
693.51	20271.38
693.65	20189.46
693.78	20074.77
693.92	20042.01
694.05	20095.84
694.19	19803.27
694.32	20189.46
694.45	20105.20
694.59	19985.83
694.72	19840.72
694.86	19623.05
694.99	19503.68
695.13	19400.70
695.26	18944.30
695.39	19105.79
695.53	19035.58
695.66	19201.76
695.80	18993.45
695.93	19232.18
696.07	18651.73
696.20	18728.97
696.33	18523.00
696.47	18286.61
696.60	18565.13
696.73	18373.21
696.87	18345.12
697.00	18412.99
697.14	18230.43
697.27	17954.25
697.40	18045.53
697.54	17893.40
697.67	17755.30
697.80	17699.13
697.94	17867.65
698.07	17446.35
698.21	17394.86
698.34	17638.28
698.47	17268.47
698.61	16863.56
698.74	16985.27
698.87	17114.00
699.01	16889.31
699.14	16798.02
699.27	17104.64
699.40	16912.71
699.54	16643.55
699.67	16844.84
699.80	16638.87
699.94	16315.87
700.07	16538.23
700.20	16177.78
700.34	16393.11
700.47	16196.51
700.60	16198.85
700.73	16154.38
700.87	16135.65
701.00	15604.35
701.13	15793.94
701.26	15843.09
701.40	15351.57
701.53	15527.11
701.66	15520.09
701.79	15414.77
701.93	15229.87
702.06	15110.50
702.19	15115.18
702.32	15161.99
702.46	15246.25
702.59	15311.78
702.72	15386.68
702.85	14949.00
702.99	14759.42
703.12	14476.21
703.25	14754.74
703.38	14705.59
703.51	14246.84
703.65	14286.63
703.78	14317.06
703.91	14232.80
704.04	14155.56
704.17	13729.58
704.31	14181.31
704.44	13785.76
704.57	14003.43
704.70	13909.80
704.83	13692.13
704.96	13591.49
705.10	13685.11
705.23	13525.96
>>>>>End Processed Spectral Data<<<<<
