SpectraSuite Data File
++++++++++++++++++++++++++++++++++++
Date: Fri Oct 25 11:33:31 EDT 2013
User: price-jones
Dark Spectrum Present: No
Reference Spectrum Present: No
Number of Sampled Component Spectra: 1
Spectrometers: USB2+H05261
Integration Time (usec): 100000 (USB2+H05261)
Spectra Averaged: 1 (USB2+H05261)
Boxcar Smoothing: 0 (USB2+H05261)
Correct for Electrical Dark: No (USB2+H05261)
Strobe/Lamp Enabled: No (USB2+H05261)
Correct for Detector Non-linearity: No (USB2+H05261)
Correct for Stray Light: No (USB2+H05261)
Number of Pixels in Processed Spectrum: 2048
>>>>>Begin Processed Spectral Data<<<<<
365.73	205.97
365.92	205.97
366.12	205.97
366.32	187.24
366.52	177.88
366.72	224.69
366.91	145.11
367.11	154.48
367.31	114.69
367.51	177.88
367.70	98.30
367.90	245.76
368.10	184.90
368.30	135.75
368.49	175.54
368.69	201.29
368.89	156.82
369.09	135.75
369.28	184.90
369.48	194.26
369.68	229.37
369.87	173.20
370.07	201.29
370.27	269.16
370.47	390.87
370.66	498.53
370.86	458.74
371.06	545.34
371.25	528.96
371.45	557.05
371.65	601.52
371.84	568.75
372.04	561.73
372.24	554.71
372.44	592.16
372.63	552.37
372.83	573.43
373.03	613.22
373.22	587.47
373.42	533.64
373.62	608.54
373.81	564.07
374.01	650.67
374.21	615.56
374.40	603.86
374.60	650.67
374.79	631.94
374.99	660.03
375.19	634.29
375.38	662.37
375.58	629.60
375.78	631.94
375.97	664.71
376.17	660.03
376.37	671.73
376.56	671.73
376.76	662.37
376.95	704.50
377.15	727.91
377.35	683.44
377.54	669.39
377.74	678.76
377.93	702.16
378.13	709.18
378.33	763.01
378.52	669.39
378.72	704.50
378.91	690.46
379.11	706.84
379.31	720.88
379.50	760.67
379.70	772.38
379.89	727.91
380.09	784.08
380.28	760.67
380.48	683.44
380.68	725.57
380.87	739.61
381.07	760.67
381.26	777.06
381.46	779.40
381.65	807.48
381.85	798.12
382.04	711.52
382.24	777.06
382.43	786.42
382.63	704.50
382.83	781.74
383.02	812.17
383.22	894.08
383.41	793.44
383.61	819.19
383.80	842.59
384.00	854.30
384.19	798.12
384.39	814.51
384.58	798.12
384.78	854.30
384.97	875.36
385.17	767.70
385.36	901.11
385.56	821.53
385.75	833.23
385.95	788.76
386.14	889.40
386.34	861.32
386.53	837.91
386.72	866.00
386.92	875.36
387.11	884.72
387.31	936.21
387.50	947.92
387.70	847.27
387.89	833.23
388.09	828.55
388.28	903.45
388.48	961.96
388.67	954.94
388.86	947.92
389.06	898.77
389.25	992.39
389.45	912.81
389.64	933.87
389.84	985.37
390.03	1004.09
390.22	976.00
390.42	922.17
390.61	947.92
390.81	931.53
391.00	943.24
391.19	1062.60
391.39	983.02
391.58	968.98
391.78	1020.47
391.97	1036.86
392.16	1013.45
392.36	1013.45
392.55	1046.22
392.75	1109.41
392.94	1062.60
393.13	1036.86
393.33	1086.01
393.52	1095.37
393.71	1001.75
393.91	1053.24
394.10	1048.56
394.29	1128.14
394.49	1158.57
394.68	1114.10
394.88	1022.81
395.07	1137.50
395.26	1149.20
395.46	1156.22
395.65	1144.52
395.84	1240.48
396.04	1203.04
396.23	1158.57
396.42	1231.12
396.62	1275.59
396.81	1170.27
397.00	1142.18
397.19	1214.74
397.39	1123.46
397.58	1327.08
397.77	1217.08
397.97	1313.04
398.16	1219.42
398.35	1287.29
398.55	1282.61
398.74	1320.06
398.93	1331.76
399.12	1336.45
399.32	1254.53
399.51	1366.87
399.70	1299.00
399.90	1425.39
400.09	1359.85
400.28	1282.61
400.47	1394.96
400.67	1404.32
400.86	1331.76
401.05	1315.38
401.24	1423.05
401.44	1401.98
401.63	1425.39
401.82	1437.09
402.01	1399.64
402.21	1448.79
402.40	1554.12
402.59	1570.50
402.78	1514.33
402.97	1516.67
403.17	1439.43
403.36	1516.67
403.55	1516.67
403.74	1626.67
403.93	1554.12
404.13	1650.08
404.32	1671.14
404.51	1645.40
404.70	1692.21
404.89	1551.78
405.09	1699.23
405.28	1638.38
405.47	1717.95
405.66	1774.13
405.85	1727.32
406.05	1722.63
406.24	1629.01
406.43	1629.01
406.62	1748.38
406.81	1832.64
407.00	1760.08
407.20	1762.42
407.39	1743.70
407.58	1942.64
407.77	1830.30
407.96	1844.34
408.15	1755.40
408.34	1762.42
408.54	1849.02
408.73	1891.15
408.92	1947.33
409.11	1874.77
409.30	1959.03
409.49	1902.86
409.68	1968.39
409.87	2106.48
410.07	2146.27
410.26	2073.71
410.45	2045.63
410.64	2122.87
410.83	2024.56
411.02	2169.68
411.21	2148.61
411.40	2169.68
411.59	2258.62
411.78	2277.34
411.98	2202.44
412.17	2193.08
412.36	2235.21
412.55	2223.51
412.74	2352.24
412.93	2305.43
413.12	2270.32
413.31	2359.26
413.50	2275.00
413.69	2349.90
413.88	2502.03
414.07	2436.50
414.26	2586.29
414.45	2473.95
414.64	2527.78
414.83	2675.23
415.02	2672.89
415.22	2607.36
415.41	2572.25
415.60	2686.94
415.79	2616.72
415.98	2750.13
416.17	2712.68
416.36	2684.59
416.55	2808.64
416.74	2782.90
416.93	2733.75
417.12	2693.96
417.31	2846.09
417.50	2864.82
417.69	3073.12
417.88	2899.92
418.07	2949.08
418.26	2967.80
418.45	3030.99
418.64	3171.43
418.83	3052.06
419.02	3052.06
419.21	3178.45
419.39	3197.17
419.58	3075.46
419.77	3009.93
419.96	3145.68
420.15	3159.72
420.34	3201.85
420.53	3112.91
420.72	3328.24
420.91	3201.85
421.10	3279.09
421.29	3349.31
421.48	3218.24
421.67	3332.92
421.86	3363.35
422.05	3152.70
422.24	3307.18
422.43	3363.35
422.61	3321.22
422.80	3473.36
422.99	3454.63
423.18	3379.73
423.37	3361.01
423.56	3456.97
423.75	3363.35
423.94	3389.10
424.13	3183.13
424.32	3293.13
424.50	3447.61
424.69	3468.67
424.88	3529.53
425.07	3391.44
425.26	3489.74
425.45	3414.84
425.64	3496.76
425.83	3524.85
426.01	3463.99
426.20	3363.35
426.39	3431.23
426.58	3403.14
426.77	3393.78
426.96	3590.38
427.15	3597.40
427.33	3618.47
427.52	3566.98
427.71	3590.38
427.90	3674.64
428.09	3716.77
428.28	3705.07
428.46	3461.65
428.65	3803.37
428.84	3817.41
429.03	3794.01
429.22	3641.87
429.40	3847.84
429.59	3836.14
429.78	3672.30
429.97	3735.50
430.16	3723.79
430.34	3929.76
430.53	3817.41
430.72	3925.08
430.91	3833.80
431.10	3810.39
431.28	3988.27
431.47	4007.00
431.66	3911.04
431.85	4028.06
432.03	4086.58
432.22	4210.62
432.41	4124.02
432.60	4014.02
432.79	4060.83
432.97	4084.23
433.16	4133.39
433.35	4056.15
433.54	4145.09
433.72	4166.15
433.91	4170.83
434.10	4119.34
434.28	4117.00
434.47	4114.66
434.66	4306.59
434.85	4227.01
435.03	4212.96
435.22	4334.67
435.41	4449.36
435.59	4285.52
435.78	4353.40
435.97	4386.16
436.16	4421.27
436.34	4367.44
436.53	4451.70
436.72	4514.89
436.90	4393.19
437.09	4484.47
437.28	4346.37
437.46	4465.74
437.65	4510.21
437.84	4643.62
438.02	4528.94
438.21	4734.90
438.40	4660.01
438.58	4791.08
438.77	4873.00
438.96	4727.88
439.14	4814.48
439.33	4924.49
439.52	4851.93
439.70	4870.65
439.89	5046.20
440.08	5067.26
440.26	5011.09
440.45	4959.60
440.63	5083.64
440.82	5078.96
441.01	5338.76
441.19	5174.92
441.38	5219.39
441.57	5277.91
441.75	5294.29
441.94	5439.40
442.12	5301.31
442.31	5369.19
442.50	5411.32
442.68	5404.30
442.87	5362.17
443.05	5509.62
443.24	5645.37
443.43	5547.07
443.61	5493.24
443.80	5582.18
443.98	5432.38
444.17	5277.91
444.35	5549.41
444.54	5607.92
444.73	5638.35
444.91	5636.01
445.10	5514.30
445.28	5654.73
445.47	5621.97
445.65	5708.57
445.84	5710.91
446.02	5905.17
446.21	5619.63
446.39	5692.18
446.58	5806.87
446.77	5650.05
446.95	5654.73
447.14	5795.17
447.32	5834.96
447.51	5776.44
447.69	5710.91
447.88	5788.14
448.06	5804.53
448.25	5881.77
448.43	5708.57
448.62	5863.04
448.80	5788.14
448.99	5893.47
449.17	5959.00
449.36	5781.12
449.54	6092.41
449.73	6050.28
449.91	6033.90
450.10	5928.58
450.28	5977.73
450.46	6073.69
450.65	6122.84
450.83	6033.90
451.02	6104.12
451.20	6279.66
451.39	6176.67
451.57	6225.82
451.76	6164.97
451.94	6279.66
452.13	6352.21
452.31	6207.10
452.49	6249.23
452.68	6286.68
452.86	6274.98
453.05	6333.49
453.23	6377.96
453.42	6321.79
453.60	6197.74
453.78	6338.17
453.97	6263.27
454.15	6480.94
454.34	6424.77
454.52	6707.98
454.70	6466.90
454.89	6450.52
455.07	6696.27
455.26	6712.66
455.44	6691.59
455.62	6675.21
455.81	6628.40
455.99	6459.88
456.17	6595.63
456.36	6803.94
456.54	6913.94
456.73	6881.18
456.91	7133.95
457.09	7075.44
457.28	7239.28
457.46	6979.48
457.64	7005.22
457.83	6972.46
458.01	6827.34
458.19	7145.66
458.38	7019.27
458.56	7295.45
458.74	7171.40
458.93	7274.38
459.11	7208.85
459.29	7204.17
459.48	7265.02
459.66	7155.02
459.84	7419.50
460.03	7698.02
460.21	7426.52
460.39	7405.46
460.57	7419.50
460.76	7461.63
460.94	7234.60
461.12	7318.86
461.31	7489.71
461.49	7480.35
461.67	7463.97
461.85	7634.83
462.04	7618.44
462.22	8105.28
462.40	7808.03
462.59	7758.88
462.77	7801.01
462.95	7925.05
463.13	7693.34
463.32	7761.22
463.50	7995.27
463.68	7845.48
463.86	8100.59
464.05	7623.12
464.23	7880.58
464.41	8114.64
464.59	7691.00
464.78	8079.53
464.96	7995.27
465.14	8065.49
465.32	8121.66
465.50	8116.98
465.69	8035.06
465.87	7992.93
466.05	8067.83
466.23	8219.96
466.41	8084.21
466.60	8299.54
466.78	8159.11
466.96	8381.46
467.14	8149.75
467.32	8358.05
467.51	8414.23
467.69	8159.11
467.87	8376.78
468.05	8554.66
468.23	8355.71
468.41	8362.73
468.60	8589.77
468.78	8557.00
468.96	8191.88
469.14	8428.27
469.32	8620.19
469.50	8645.94
469.69	8610.83
469.87	8833.18
470.05	8748.92
470.23	8634.24
470.41	8802.75
470.59	8842.54
470.77	8692.75
470.95	8685.73
471.14	9111.71
471.32	8875.31
471.50	9027.45
471.68	8856.59
471.86	8903.40
472.04	9095.32
472.22	9439.38
472.40	9013.40
472.58	9205.33
472.77	9305.97
472.95	9444.06
473.13	9870.04
473.31	9301.29
473.49	9628.96
473.67	9345.76
473.85	9486.19
474.03	9783.44
474.21	9675.77
474.39	9579.81
474.57	9741.31
474.75	9973.02
474.93	10024.51
475.12	9968.34
475.30	10190.69
475.48	9935.57
475.66	10066.64
475.84	9881.74
476.02	10043.24
476.20	10408.36
476.38	10413.04
476.56	10560.50
476.74	10499.64
476.92	10511.35
477.10	10457.51
477.28	10539.43
477.46	10817.96
477.64	10956.05
477.82	11016.90
478.00	11215.85
478.18	11265.00
478.36	11286.06
478.54	11412.45
478.72	11314.15
478.90	11513.10
479.08	11548.20
479.26	11534.16
479.44	12042.06
479.62	11733.11
479.80	11824.39
479.98	12215.26
480.16	12386.12
480.34	11983.54
480.52	12479.74
480.70	12304.20
480.88	12131.00
481.06	12369.73
481.24	12645.91
481.41	12461.01
481.59	12578.04
481.77	12877.63
481.95	12814.43
482.13	13294.24
482.31	12929.12
482.49	13291.90
482.67	13221.69
482.85	13579.79
483.03	13923.85
483.21	13797.46
483.39	13949.59
483.57	13795.12
483.74	13909.80
483.92	13841.93
484.10	13984.70
484.28	14083.00
484.46	14530.05
484.64	14780.48
484.82	14516.00
485.00	14569.83
485.18	14794.53
485.35	15115.18
485.53	15044.96
485.71	15056.67
485.89	15468.60
486.07	15042.62
486.25	15494.35
486.43	15475.62
486.61	16020.97
486.78	15861.81
486.96	15737.76
487.14	15812.66
487.32	16133.31
487.50	16592.06
487.68	16620.14
487.85	16397.79
488.03	16596.74
488.21	16879.94
488.39	16924.41
488.57	17114.00
488.75	17254.43
488.92	17528.27
489.10	17289.54
489.28	17781.05
489.46	17813.82
489.64	17657.00
489.81	17923.82
489.99	17982.34
490.17	18230.43
490.35	18590.88
490.53	18263.20
490.70	18738.33
490.88	18672.79
491.06	18963.02
491.24	18782.80
491.41	19026.21
491.59	19183.03
491.77	19344.53
491.95	19475.60
492.13	19623.05
492.30	19683.91
492.48	19634.75
492.66	19896.89
492.84	19913.28
493.01	19950.73
493.19	19889.87
493.37	20505.43
493.54	20467.98
493.72	20652.89
493.90	20835.45
494.08	20470.33
494.25	20917.37
494.43	21270.79
494.61	20959.50
494.79	21364.41
494.96	21427.60
495.14	21848.90
495.32	21752.94
495.49	21867.63
495.67	21994.01
495.85	21841.88
496.02	21942.52
496.20	22295.94
496.38	22401.27
496.55	22504.25
496.73	22958.31
496.91	22740.64
497.09	23009.81
497.26	23021.51
497.44	22927.89
497.62	23133.86
497.79	23510.68
497.97	22881.08
498.14	23566.85
498.32	23772.82
498.50	23733.03
498.67	23658.14
498.85	23997.51
499.03	24137.94
499.20	24257.31
499.38	24306.46
499.56	24187.10
499.73	24311.14
499.91	24540.52
500.08	24697.33
500.26	24470.30
500.44	24432.85
500.61	24842.45
500.79	24774.57
500.97	25179.48
501.14	25425.24
501.32	25324.60
501.49	25310.55
501.67	25165.44
501.84	25771.64
502.02	25663.97
502.20	25500.14
502.37	25860.58
502.55	25502.48
502.72	25874.62
502.90	26001.01
503.07	26277.19
503.25	26239.75
503.43	25851.22
503.60	26251.45
503.78	26759.34
503.95	26419.97
504.13	26639.98
504.30	26749.98
504.48	26356.77
504.65	26874.03
504.83	27049.57
505.01	27253.20
505.18	27089.36
505.36	27218.09
505.53	27239.15
505.71	27428.74
505.88	27447.46
506.06	27632.36
506.23	27725.99
506.41	27498.95
506.58	28065.36
506.76	27833.65
506.93	27840.67
507.11	28102.81
507.28	28484.32
507.46	28336.87
507.63	28591.98
507.81	28510.07
507.98	28222.18
508.16	28547.51
508.33	28737.10
508.50	28898.59
508.68	28699.65
508.85	28940.72
509.03	29266.06
509.20	29069.45
509.38	29659.27
509.55	29401.81
509.73	29670.97
509.90	29783.32
510.08	29516.50
510.25	29535.22
510.42	29851.19
510.60	29818.42
510.77	30000.99
510.95	30539.31
511.12	29954.18
511.30	30209.29
511.47	29935.45
511.64	30118.01
511.82	30525.27
511.99	30185.89
512.17	30696.13
512.34	30576.76
512.51	30487.82
512.69	30932.52
512.86	30630.59
513.04	30986.35
513.21	31014.44
513.38	31307.01
513.56	31475.52
513.73	31271.90
513.90	31262.54
514.08	30979.33
514.25	31498.93
514.43	31229.77
514.60	31601.91
514.77	31730.64
514.95	32037.25
515.12	31681.49
515.29	31831.29
515.47	32023.21
515.64	32297.05
515.81	31831.29
515.99	32147.26
516.16	32779.20
516.33	32194.07
516.51	32964.10
516.68	32615.37
516.85	32648.13
517.03	32297.05
517.20	32861.12
517.37	32615.37
517.54	32790.91
517.72	33233.27
517.89	32882.19
518.06	33163.05
518.24	33132.62
518.41	33116.24
518.58	32732.39
518.75	32730.05
518.93	33692.01
519.10	33219.22
519.27	33558.60
519.45	33603.07
519.62	33731.80
519.79	33635.84
519.96	33795.00
520.14	33902.66
520.31	33776.27
520.48	34024.37
520.65	34010.32
520.83	34284.17
521.00	34658.65
521.17	34588.44
521.34	34731.21
521.52	34759.30
521.69	34558.01
521.86	34965.26
522.03	34539.29
522.20	34939.52
522.38	35330.39
522.55	35065.91
522.72	35161.87
522.89	35510.61
523.07	35314.00
523.24	34756.96
523.41	35768.07
523.58	35157.19
523.75	35576.14
523.92	35234.42
524.10	35641.68
524.27	36102.76
524.44	35948.29
524.61	36133.19
524.78	36072.34
524.96	36430.44
525.13	35864.03
525.30	36093.40
525.47	36215.11
525.64	36098.08
525.81	36294.69
525.98	36540.44
526.16	36526.40
526.33	36287.67
526.50	36308.73
526.67	36652.79
526.84	36804.92
527.01	36547.47
527.18	36870.46
527.36	37046.00
527.53	37223.88
527.70	37310.48
527.87	37097.49
528.04	36943.02
528.21	37127.92
528.38	37170.05
528.55	37661.56
528.72	37198.13
528.89	37450.91
529.07	37266.01
529.24	37141.96
529.41	37677.94
529.58	37659.22
529.75	37663.90
529.92	37860.51
530.09	37984.55
530.26	37853.48
530.43	37759.86
530.60	37544.53
530.77	38258.40
530.94	37986.89
531.11	38057.11
531.28	38115.62
531.46	38075.84
531.63	38433.94
531.80	38534.58
531.97	38555.64
532.14	38667.99
532.31	38010.30
532.48	38408.19
532.65	38532.24
532.82	38382.45
532.99	38958.22
533.16	38890.34
533.33	38810.76
533.50	38731.18
533.67	38742.89
533.84	38576.71
534.01	38866.94
534.18	39103.33
534.35	39309.30
534.52	39370.15
534.69	39206.31
534.86	39299.94
535.03	38998.01
535.20	39108.01
535.37	39517.60
535.54	39648.68
535.71	39180.57
535.88	39770.38
536.05	39833.58
536.22	39828.90
536.38	40044.23
536.55	39952.94
536.72	40236.15
536.89	39597.18
537.06	40004.44
537.23	40493.61
537.40	40074.65
537.57	39648.68
537.74	40168.27
537.91	40271.26
538.08	40102.74
538.25	40130.83
538.42	40329.77
538.59	40304.02
538.75	40313.39
538.92	40545.10
539.09	40638.72
539.26	40605.95
539.43	40502.97
539.60	40545.10
539.77	40058.27
539.94	40783.83
540.11	40772.13
540.28	40954.69
540.44	40854.05
540.61	40549.78
540.78	40287.64
540.95	40732.34
541.12	40966.40
541.29	40673.83
541.46	40987.46
541.62	41340.88
541.79	41179.39
541.96	40573.19
542.13	40994.48
542.30	40933.63
542.47	41223.86
542.63	41383.01
542.80	41734.09
542.97	41558.55
543.14	42029.00
543.31	42092.19
543.48	42157.73
543.64	42260.71
543.81	42356.67
543.98	41909.63
544.15	41844.10
544.32	42445.62
544.48	42721.80
544.65	42604.77
544.82	42232.63
544.99	41860.48
545.16	41977.51
545.32	42010.28
545.49	42817.76
545.66	42747.54
545.83	42302.84
546.00	42281.78
546.16	42593.07
546.33	42270.08
546.50	42536.90
546.67	43262.46
546.83	42424.55
547.00	42576.69
547.17	42848.19
547.34	43077.56
547.50	43358.42
547.67	43400.55
547.84	43210.97
548.00	42960.53
548.17	43580.78
548.34	43278.85
548.51	43353.74
548.67	43248.42
548.84	43325.66
549.01	43206.29
549.18	43056.50
549.34	43674.40
549.51	43447.36
549.68	43456.73
549.84	43613.54
550.01	43798.44
550.18	43243.74
550.34	43866.32
550.51	43854.62
550.68	44062.93
550.84	43236.72
551.01	44130.80
551.18	43604.18
551.34	43585.46
551.51	44198.68
551.68	44154.21
551.84	44058.24
552.01	43849.94
552.18	43931.86
552.34	44205.70
552.51	44210.38
552.68	43962.28
552.84	44156.55
553.01	44208.04
553.18	44210.38
553.34	43910.79
553.51	43948.24
553.67	44477.20
553.84	44247.83
554.01	44198.68
554.17	44186.97
554.34	44629.34
554.51	44835.30
554.67	44727.64
554.84	44821.26
555.00	44559.12
555.17	44753.38
555.33	44514.65
555.50	44727.64
555.67	44453.79
555.83	44814.24
556.00	45109.14
556.16	45315.11
556.33	45099.78
556.50	45067.02
556.66	44985.10
556.83	44793.17
556.99	45160.64
557.16	45392.35
557.32	45059.99
557.49	45469.59
557.65	44959.35
557.82	45118.51
557.98	45411.07
558.15	45312.77
558.32	45109.14
558.48	45280.00
558.65	45631.08
558.81	45102.12
558.98	44949.99
559.14	45354.90
559.31	45045.95
559.47	45036.59
559.64	45390.01
559.80	45497.67
559.97	45701.30
560.13	45380.65
560.30	45443.84
560.46	45598.32
560.63	46309.84
560.79	45544.48
560.96	45509.38
561.12	45471.93
561.29	45656.83
561.45	45731.73
561.61	45469.59
561.78	45738.75
561.94	45642.79
562.11	45755.13
562.27	45507.04
562.44	45474.27
562.60	46054.72
562.77	45783.22
562.93	45872.16
563.10	45956.42
563.26	46033.66
563.42	46258.35
563.59	46031.32
563.75	45703.64
563.92	46064.08
564.08	46270.05
564.24	46234.94
564.41	46190.47
564.57	45865.14
564.74	46398.78
564.90	46241.96
565.07	45687.26
565.23	46370.69
565.39	46239.62
565.56	46506.44
565.72	46050.04
565.88	46146.00
566.05	45883.86
566.21	46131.96
566.38	46150.68
566.54	46487.72
566.70	46803.69
566.87	46581.34
567.03	46480.70
567.19	46693.69
567.36	46286.43
567.52	46445.59
567.68	46586.02
567.85	46665.60
568.01	46387.08
568.17	46429.21
568.34	46431.55
568.50	46665.60
568.66	46476.02
568.83	46520.49
568.99	46534.53
569.15	46419.84
569.32	46529.85
569.48	46358.99
569.64	46948.81
569.81	46560.28
569.97	46918.38
570.13	46703.05
570.30	46902.00
570.46	46707.73
570.62	46742.84
570.78	46586.02
570.95	46700.71
571.11	46979.23
571.27	46712.41
571.43	46848.16
571.60	46852.84
571.76	46667.94
571.92	46705.39
572.09	46632.83
572.25	46623.47
572.41	46630.49
572.57	47004.98
572.74	46759.22
572.90	47012.00
573.06	47072.85
573.22	46761.56
573.38	46677.30
573.55	47220.31
573.71	47058.81
573.87	47236.69
574.03	46312.18
574.20	47154.77
574.36	46918.38
574.52	47377.12
574.68	47571.39
574.84	47288.18
575.01	47349.04
575.17	47021.36
575.33	47068.17
575.49	46878.59
575.65	46791.99
575.82	47192.22
575.98	47054.13
576.14	47152.43
576.30	47370.10
576.46	47306.91
576.62	46909.02
576.79	47168.82
576.95	46691.35
577.11	46791.99
577.27	47061.15
577.43	47208.61
577.59	47302.23
577.75	47356.06
577.92	47311.59
578.08	47227.33
578.24	47061.15
578.40	47459.04
578.56	47290.52
578.72	47136.05
578.88	47452.02
579.04	47311.59
579.21	47316.27
579.37	47229.67
579.53	47217.97
579.69	47068.17
579.85	46981.57
580.01	47105.62
580.17	47009.66
580.33	47339.68
580.49	47388.83
580.65	47363.08
580.82	47482.45
580.98	47009.66
581.14	46897.31
581.30	47667.35
581.46	47136.05
581.62	46932.42
581.78	47349.04
581.94	47147.75
582.10	47136.05
582.26	47072.85
582.42	47129.03
582.58	47578.41
582.74	47290.52
582.90	47512.88
583.06	47391.17
583.22	47367.76
583.38	47505.85
583.54	47344.36
583.70	47594.79
583.86	47721.18
584.02	47014.34
584.18	47503.51
584.34	47498.83
584.50	47875.66
584.66	47302.23
584.82	47660.33
584.98	47515.22
585.14	47311.59
585.30	47437.98
585.46	47529.26
585.62	47440.32
585.78	47466.06
585.94	47126.69
586.10	47533.94
586.26	47283.50
586.42	47173.50
586.58	47267.12
586.74	47374.78
586.90	47580.75
587.06	47344.36
587.22	47889.70
587.38	47629.90
587.54	47482.45
587.70	47667.35
587.86	47756.29
588.02	47267.12
588.18	47913.11
588.34	47559.69
588.49	47536.28
588.65	47693.10
588.81	47358.40
588.97	47622.88
589.13	47824.17
589.29	47381.80
589.45	47775.02
589.61	47606.50
589.77	47627.56
589.93	47327.97
590.08	47838.21
590.24	48259.51
590.40	48002.05
590.56	48116.73
590.72	48165.88
590.88	47185.20
591.04	47800.76
591.20	47978.64
591.35	47662.67
591.51	48189.29
591.67	48200.99
591.83	48196.31
591.99	47625.22
592.15	47917.79
592.31	47753.95
592.46	47653.31
592.62	48128.44
592.78	48186.95
592.94	48257.17
593.10	48428.02
593.26	48231.42
593.41	48388.24
593.57	48170.57
593.73	47955.24
593.89	47924.81
594.05	48147.16
594.20	48051.20
594.36	48528.67
594.52	48233.76
594.68	48280.57
594.84	48037.16
594.99	48385.89
595.15	47931.83
595.31	48376.53
595.47	48320.36
595.62	48044.18
595.78	48098.01
595.94	48282.91
596.10	48311.00
596.25	48233.76
596.41	48467.81
596.57	48013.75
596.73	48383.55
596.88	48514.62
597.04	48179.93
597.20	48346.11
597.36	48385.89
597.51	48215.04
597.67	48144.82
597.83	47980.98
597.99	48474.84
598.14	47964.60
598.30	48486.54
598.46	48203.33
598.61	48236.10
598.77	48142.48
598.93	48107.37
599.09	48149.50
599.24	48673.78
599.40	47973.96
599.56	48619.95
599.71	48650.38
599.87	48491.22
600.03	48423.34
600.18	48151.84
600.34	48563.78
600.50	48741.66
600.65	48041.84
600.81	48472.49
600.97	48430.36
601.12	48666.76
601.28	48633.99
601.44	48065.24
601.59	48076.94
601.75	48411.64
601.91	48545.05
602.06	48589.52
602.22	48495.90
602.37	48484.20
602.53	48418.66
602.69	48594.20
602.84	48259.51
603.00	47777.36
603.16	48327.38
603.31	48437.39
603.47	48334.40
603.62	48233.76
603.78	48547.39
603.94	48589.52
604.09	48128.44
604.25	48247.80
604.40	48261.85
604.56	48458.45
604.71	48748.68
604.87	48245.46
605.03	48179.93
605.18	48491.22
605.34	48360.15
605.49	48184.61
605.65	48275.89
605.80	48612.93
605.96	48327.38
606.12	48271.21
606.27	48421.00
606.43	47878.00
606.58	48605.91
606.74	48395.26
606.89	48168.22
607.05	48629.31
607.20	48282.91
607.36	48292.27
607.51	48098.01
607.67	48058.22
607.82	48090.99
607.98	48488.88
608.13	47971.62
608.29	48044.18
608.44	48179.93
608.60	48114.39
608.75	48053.54
608.91	48404.62
609.06	48011.41
609.22	48320.36
609.37	48081.63
609.53	48240.78
609.68	48336.74
609.84	48341.42
609.99	47763.31
610.15	48189.29
610.30	48025.45
610.46	47929.49
610.61	48179.93
610.76	47945.87
610.92	47789.06
611.07	48198.65
611.23	47959.92
611.38	48186.95
611.54	48058.22
611.69	48055.88
611.84	48156.52
612.00	47966.94
612.15	47655.65
612.31	48074.60
612.46	47313.93
612.62	48060.56
612.77	47988.00
612.92	47964.60
613.08	47767.99
613.23	48219.72
613.39	48095.67
613.54	47510.53
613.69	47791.40
613.85	47777.36
614.00	47978.64
614.15	48219.72
614.31	47447.34
614.46	47363.08
614.62	47349.04
614.77	47412.23
614.92	48076.94
615.08	47419.25
615.23	47550.32
615.38	47915.45
615.54	47227.33
615.69	47632.24
615.84	47430.96
616.00	47824.17
616.15	47632.24
616.30	47681.39
616.46	47435.64
616.61	47503.51
616.76	47758.63
616.92	47360.74
617.07	47824.17
617.22	47524.58
617.37	47222.65
617.53	47227.33
617.68	47318.61
617.83	47262.44
617.99	47468.40
618.14	48011.41
618.29	47007.32
618.45	47550.32
618.60	47349.04
618.75	47009.66
618.90	47475.43
619.06	47442.66
619.21	47147.75
619.36	47437.98
619.51	47093.92
619.67	46660.92
619.82	46930.08
619.97	47342.02
620.12	47384.15
620.28	47100.94
620.43	47012.00
620.58	47327.97
620.73	47213.29
620.89	47199.24
621.04	47395.85
621.19	46710.07
621.34	47180.52
621.49	46674.96
621.65	46728.80
621.80	47241.37
621.95	47054.13
622.10	47058.81
622.25	46831.78
622.41	46906.68
622.56	46667.94
622.71	46967.53
622.86	46948.81
623.01	46686.67
623.16	46890.29
623.32	46885.61
623.47	46234.94
623.62	46642.20
623.77	47030.72
623.92	46564.96
624.07	46726.46
624.23	47150.09
624.38	46927.74
624.53	46384.74
624.68	46220.90
624.83	46754.54
624.98	46415.16
625.13	46078.13
625.29	46686.67
625.44	46471.34
625.59	46277.07
625.74	46244.30
625.89	46188.13
626.04	46361.33
626.19	46054.72
626.34	46064.08
626.49	46028.98
626.65	45766.84
626.80	45954.08
626.95	45961.10
627.10	45705.98
627.25	45963.44
627.40	46024.29
627.55	46354.31
627.70	45666.19
627.85	46113.23
628.00	45825.35
628.15	45930.67
628.30	45832.37
628.45	45801.94
628.60	45422.78
628.76	45708.32
628.91	45982.16
629.06	45689.60
629.21	45558.53
629.36	45509.38
629.51	45525.76
629.66	45993.87
629.81	45574.91
629.96	45750.45
630.11	45364.26
630.26	45364.26
630.41	45656.83
630.56	45942.38
630.71	45453.20
630.86	45457.88
631.01	44762.75
631.16	45132.55
631.31	45586.61
631.46	45256.60
631.61	45392.35
631.76	45167.66
631.91	45244.90
632.06	45565.55
632.21	45808.96
632.36	45464.91
632.51	44910.20
632.66	45333.84
632.81	45130.21
632.96	45485.97
633.10	45270.64
633.25	45251.92
633.40	45584.27
633.55	45029.57
633.70	45144.25
633.85	45287.03
634.00	44301.66
634.15	44488.90
634.30	44774.45
634.45	44659.76
634.60	45247.24
634.75	45373.63
634.90	44975.73
635.05	45366.60
635.19	44861.05
635.34	44685.51
635.49	44786.15
635.64	44882.11
635.79	44896.16
635.94	45057.65
636.09	44708.91
636.24	44215.06
636.39	44924.24
636.53	44596.57
636.68	44694.87
636.83	44224.42
636.98	44512.31
637.13	44245.49
637.28	44170.59
637.43	44692.53
637.57	44509.97
637.72	44257.19
637.87	44250.17
638.02	44643.38
638.17	43929.51
638.32	44163.57
638.46	44114.42
638.61	43845.26
638.76	43903.77
638.91	44278.25
639.06	44189.31
639.20	44013.77
639.35	43981.01
639.50	43608.86
639.65	44156.55
639.80	44311.02
639.94	44069.95
640.09	44437.41
640.24	43861.64
640.39	44025.48
640.54	43185.22
640.68	43779.72
640.83	44025.48
640.98	43899.09
641.13	43840.57
641.27	43927.17
641.42	43973.98
641.57	43648.65
641.72	43526.94
641.86	44222.08
642.01	43538.65
642.16	43503.54
642.31	43180.54
642.45	43559.71
642.60	43182.88
642.75	43391.19
642.90	43538.65
643.04	43524.60
643.19	43388.85
643.34	43203.95
643.48	42969.90
643.63	43281.19
643.78	43524.60
643.93	42969.90
644.07	43033.09
644.22	43402.89
644.37	42939.47
644.51	43564.39
644.66	42885.64
644.81	43243.74
644.95	43283.53
645.10	43257.78
645.25	42944.15
645.39	42920.74
645.54	42960.53
645.69	42761.59
645.83	42555.62
645.98	42855.21
646.13	42969.90
646.27	42550.94
646.42	42499.45
646.57	42768.61
646.71	43515.24
646.86	42976.92
647.00	42897.34
647.15	42871.59
647.30	43178.20
647.44	42820.10
647.59	42319.23
647.74	42878.61
647.88	42895.00
648.03	42951.17
648.17	42848.19
648.32	42820.10
648.47	42602.43
648.61	42682.01
648.76	42820.10
648.90	42733.50
649.05	42689.03
649.20	42394.12
649.34	42546.26
649.49	42281.78
649.63	42258.37
649.78	42525.19
649.92	42546.26
650.07	43133.73
650.21	42600.09
650.36	42703.07
650.51	42057.09
650.65	42768.61
650.80	42717.12
650.94	42036.02
651.09	42576.69
651.23	42033.68
651.38	42267.73
651.52	41640.47
651.67	42225.60
651.81	42010.28
651.96	41766.86
652.10	41715.37
652.25	41698.98
652.39	41902.61
652.54	42239.65
652.68	41816.01
652.83	41790.27
652.97	42103.90
653.12	42209.22
653.26	41724.73
653.41	41827.71
653.55	41867.50
653.70	41834.74
653.84	42134.32
653.99	41897.93
654.13	42291.14
654.27	41710.69
654.42	42061.77
654.56	41467.27
654.71	41757.50
654.85	42010.28
655.00	41340.88
655.14	41640.47
655.29	41661.54
655.43	42094.53
655.57	41455.57
655.72	41368.97
655.86	41745.80
656.01	41148.96
656.15	40980.44
656.30	41097.47
656.44	41394.71
656.58	41425.14
656.73	41558.55
656.87	41151.30
657.01	40975.76
657.16	41535.15
657.30	41057.68
657.45	41167.68
657.59	40905.54
657.73	40790.86
657.88	40704.26
658.02	40816.60
658.16	40814.26
658.31	40938.31
658.45	41078.74
658.60	40587.23
658.74	41015.55
658.88	40582.55
659.03	40680.85
659.17	40659.79
659.31	40329.77
659.46	39997.41
659.60	40357.86
659.74	40357.86
659.89	40395.31
660.03	40137.85
660.17	39948.26
660.32	40093.38
660.46	40598.93
660.60	39386.54
660.74	40093.38
660.89	39999.76
661.03	39974.01
661.17	39613.57
661.32	39557.39
661.46	40149.55
661.60	39789.11
661.74	39943.58
661.89	40109.76
662.03	39601.86
662.17	39402.92
662.31	39433.35
662.46	39564.42
662.60	39365.47
662.74	39344.41
662.88	39339.72
663.03	38904.38
663.17	39337.38
663.31	38658.63
663.45	39171.21
663.60	39559.73
663.74	39014.39
663.88	38913.75
664.02	38719.48
664.17	38972.26
664.31	38590.75
664.45	38499.47
664.59	38693.74
664.73	38717.14
664.88	39105.67
665.02	38499.47
665.16	38656.29
665.30	38550.96
665.44	38532.24
665.59	38183.50
665.73	38274.78
665.87	37762.20
666.01	37975.19
666.15	38857.57
666.29	38277.12
666.44	38274.78
666.58	38047.75
666.72	37844.12
666.86	37656.88
667.00	37890.93
667.14	37640.50
667.28	37914.34
667.43	37439.21
667.57	37794.97
667.71	38087.54
667.85	37710.71
667.99	37130.26
668.13	37378.36
668.27	37345.59
668.41	37460.27
668.56	36624.70
668.70	37200.47
668.84	36708.96
668.98	36676.19
669.12	36835.35
669.26	37071.75
669.40	36809.61
669.54	37137.28
669.68	36978.12
669.82	36423.42
669.96	36194.04
670.10	36095.74
670.25	36297.03
670.39	36362.56
670.53	36519.38
670.67	36294.69
670.81	36205.75
670.95	36687.90
671.09	36009.14
671.23	35828.92
671.37	36395.33
671.51	35681.47
671.65	35728.28
671.79	35370.18
671.93	35793.81
672.07	35906.16
672.21	35564.44
672.35	35065.91
672.49	35562.10
672.63	35449.75
672.77	35330.39
672.91	35056.54
673.05	35070.59
673.19	34831.85
673.33	34705.46
673.47	35283.58
673.61	34677.38
673.75	34583.76
673.89	34567.37
674.03	34192.89
674.17	34103.95
674.31	33916.70
674.45	34073.52
674.59	34338.00
674.73	33773.93
674.87	34068.84
675.01	33694.35
675.15	33612.43
675.29	33357.32
675.43	33727.12
675.56	33799.68
675.70	33626.48
675.84	33097.52
675.98	32498.34
676.12	33422.85
676.26	33333.91
676.40	33039.00
676.54	32856.44
676.68	32751.12
676.82	32493.66
676.96	32606.00
677.10	33177.09
677.23	32304.07
677.37	32432.80
677.51	32414.08
677.65	32133.21
677.79	31896.82
677.93	32273.65
678.07	32102.79
678.21	31630.00
678.34	31344.45
678.48	31335.09
678.62	31723.62
678.76	31321.05
678.90	31559.78
679.04	31159.55
679.18	31585.53
679.31	31016.78
679.45	31136.15
679.59	30803.79
679.73	30780.39
679.87	30670.38
680.00	30862.30
680.14	30930.18
680.28	30642.29
680.42	30609.53
680.56	30038.44
680.70	30260.79
680.83	30136.74
680.97	29710.76
681.11	30169.51
681.25	29827.79
681.39	29504.79
681.52	29947.15
681.66	29322.23
681.80	29010.94
681.94	28594.32
682.07	28713.69
682.21	28891.57
682.35	28575.60
682.49	28783.91
682.62	28877.53
682.76	28992.22
682.90	28524.11
683.04	28498.36
683.17	28489.00
683.31	28280.69
683.45	28325.16
683.59	27960.04
683.72	27850.03
683.86	27920.25
684.00	27632.36
684.13	27662.79
684.27	27126.81
684.41	27407.67
684.55	27569.17
684.68	27096.38
684.82	27213.41
684.96	27218.09
685.09	27271.92
685.23	26958.29
685.37	27665.13
685.50	27285.97
685.64	27009.78
685.78	26485.50
685.91	26272.51
686.05	25986.97
686.19	25820.79
686.32	26061.87
686.46	25659.29
686.60	25926.11
686.73	26024.42
686.87	25965.90
687.01	25963.56
687.14	25703.76
687.28	25823.13
687.42	25764.62
687.55	24830.74
687.69	25619.50
687.82	25247.36
687.96	24788.61
688.10	25181.82
688.23	24980.54
688.37	24802.66
688.50	25149.06
688.64	24706.70
688.78	24435.19
688.91	24592.01
689.05	24519.45
689.18	23971.77
689.32	23608.98
689.46	23618.35
689.59	23950.70
689.73	23859.42
689.86	24156.67
690.00	24025.60
690.13	23880.49
690.27	23468.55
690.41	23339.82
690.54	22953.63
690.68	23484.94
690.81	23030.87
690.95	22757.03
691.08	23187.69
691.22	22761.71
691.35	22696.17
691.49	23040.23
691.62	22527.66
691.76	22347.44
691.89	22249.13
692.03	22223.39
692.16	21949.54
692.30	22232.75
692.43	22078.27
692.57	22054.87
692.70	21411.22
692.84	21851.24
692.97	21549.31
693.11	21572.72
693.24	21198.23
693.38	21324.62
693.51	20982.90
693.65	21043.76
693.78	20723.10
693.92	20746.51
694.05	20807.36
694.19	20294.79
694.32	20837.79
694.45	20872.90
694.59	20898.64
694.72	20776.94
694.86	20435.22
694.99	20243.29
695.13	20137.97
695.26	19807.95
695.39	19913.28
695.53	19786.89
695.66	19814.98
695.80	19772.85
695.93	19613.69
696.07	19328.14
696.20	19016.85
696.33	19000.47
696.47	18831.95
696.60	19136.22
696.73	19389.00
696.87	19115.16
697.00	18920.89
697.14	18668.11
697.27	18609.60
697.40	18586.19
697.54	18635.35
697.67	18420.02
697.80	18555.77
697.94	18279.58
698.07	18260.86
698.21	17977.65
698.34	18010.42
698.47	17956.59
698.61	17474.44
698.74	17649.98
698.87	17762.33
699.01	17591.47
699.14	17764.67
699.27	17390.18
699.40	17422.95
699.54	17216.98
699.67	17420.61
699.80	17121.02
699.94	16931.44
700.07	17216.98
700.20	16769.94
700.34	16748.87
700.47	17018.04
700.60	16800.37
700.73	16631.85
700.87	16315.87
701.00	16397.79
701.13	16273.74
701.26	16594.40
701.40	16212.89
701.53	15962.45
701.66	16329.92
701.79	16173.10
701.93	15819.68
702.06	15681.59
702.19	15632.44
702.32	15852.45
702.46	15660.52
702.59	15723.72
702.72	15676.91
702.85	15536.48
702.99	15604.35
703.12	15122.20
703.25	15185.40
703.38	15374.98
703.51	14965.39
703.65	14773.46
703.78	14728.99
703.91	14700.90
704.04	14637.71
704.17	14597.92
704.31	14455.15
704.44	14609.62
704.57	14370.89
704.70	14281.95
704.83	14230.46
704.96	13975.34
705.10	14181.31
705.23	14083.00
>>>>>End Processed Spectral Data<<<<<
