SpectraSuite Data File
++++++++++++++++++++++++++++++++++++
Date: Fri Oct 25 11:33:51 EDT 2013
User: price-jones
Dark Spectrum Present: No
Reference Spectrum Present: No
Number of Sampled Component Spectra: 1
Spectrometers: USB2+H05261
Integration Time (usec): 100000 (USB2+H05261)
Spectra Averaged: 1 (USB2+H05261)
Boxcar Smoothing: 0 (USB2+H05261)
Correct for Electrical Dark: No (USB2+H05261)
Strobe/Lamp Enabled: No (USB2+H05261)
Correct for Detector Non-linearity: No (USB2+H05261)
Correct for Stray Light: No (USB2+H05261)
Number of Pixels in Processed Spectrum: 2048
>>>>>Begin Processed Spectral Data<<<<<
365.73	262.14
365.92	262.14
366.12	262.14
366.32	140.43
366.52	184.90
366.72	159.16
366.91	168.52
367.11	208.31
367.31	175.54
367.51	229.37
367.70	170.86
367.90	126.39
368.10	142.77
368.30	224.69
368.49	187.24
368.69	191.92
368.89	198.95
369.09	255.12
369.28	187.24
369.48	210.65
369.68	191.92
369.87	198.95
370.07	238.73
370.27	271.50
370.47	322.99
370.66	540.66
370.86	507.90
371.06	472.79
371.25	568.75
371.45	463.43
371.65	571.09
371.84	505.56
372.04	589.82
372.24	608.54
372.44	575.77
372.63	533.64
372.83	592.16
373.03	620.24
373.22	622.58
373.42	697.48
373.62	601.52
373.81	636.63
374.01	667.05
374.21	702.16
374.40	662.37
374.60	596.84
374.79	627.26
374.99	650.67
375.19	669.39
375.38	643.65
375.58	573.43
375.78	643.65
375.97	610.88
376.17	674.07
376.37	634.29
376.56	667.05
376.76	678.76
376.95	664.71
377.15	645.99
377.35	650.67
377.54	669.39
377.74	711.52
377.93	676.41
378.13	725.57
378.33	730.25
378.52	727.91
378.72	734.93
378.91	732.59
379.11	702.16
379.31	683.44
379.50	737.27
379.70	739.61
379.89	716.20
380.09	697.48
380.28	725.57
380.48	709.18
380.68	706.84
380.87	795.78
381.07	741.95
381.26	716.20
381.46	727.91
381.65	732.59
381.85	720.88
382.04	763.01
382.24	837.91
382.43	863.66
382.63	774.72
382.83	777.06
383.02	753.65
383.22	851.96
383.41	770.04
383.61	866.00
383.80	898.77
384.00	786.42
384.19	779.40
384.39	887.06
384.58	805.14
384.78	889.40
384.97	805.14
385.17	767.70
385.36	805.14
385.56	774.72
385.75	816.85
385.95	800.46
386.14	898.77
386.34	814.51
386.53	889.40
386.72	856.64
386.92	950.26
387.11	926.85
387.31	910.47
387.50	917.49
387.70	842.59
387.89	971.32
388.09	884.72
388.28	875.36
388.48	917.49
388.67	985.37
388.86	966.64
389.06	903.45
389.25	994.73
389.45	929.19
389.64	898.77
389.84	908.13
390.03	929.19
390.22	987.71
390.42	915.15
390.61	875.36
390.81	891.74
391.00	947.92
391.19	1081.33
391.39	1008.77
391.58	980.68
391.78	1015.79
391.97	1048.56
392.16	1006.43
392.36	1083.67
392.55	1064.94
392.75	1050.90
392.94	1090.69
393.13	990.05
393.33	1083.67
393.52	1034.52
393.71	1057.92
393.91	1160.91
394.10	1046.22
394.29	1081.33
394.49	1090.69
394.68	1118.78
394.88	1029.84
395.07	1090.69
395.26	1093.03
395.46	1102.39
395.65	1032.18
395.84	1177.29
396.04	1158.57
396.23	1160.91
396.42	1132.82
396.62	1214.74
396.81	1231.12
397.00	1198.35
397.19	1144.52
397.39	1217.08
397.58	1181.97
397.77	1203.04
397.97	1282.61
398.16	1242.82
398.35	1254.53
398.55	1322.40
398.74	1317.72
398.93	1282.61
399.12	1247.51
399.32	1329.42
399.51	1355.17
399.70	1322.40
399.90	1364.53
400.09	1308.36
400.28	1373.89
400.47	1418.36
400.67	1448.79
400.86	1406.66
401.05	1387.94
401.24	1406.66
401.44	1483.90
401.63	1533.05
401.82	1432.41
402.01	1315.38
402.21	1455.81
402.40	1509.65
402.59	1474.54
402.78	1500.28
402.97	1596.25
403.17	1535.39
403.36	1526.03
403.55	1605.61
403.74	1579.86
403.93	1572.84
404.13	1565.82
404.32	1659.44
404.51	1575.18
404.70	1687.53
404.89	1638.38
405.09	1724.97
405.28	1659.44
405.47	1720.29
405.66	1699.23
405.85	1809.23
406.05	1708.59
406.24	1710.93
406.43	1668.80
406.62	1792.85
406.81	1699.23
407.00	1743.70
407.20	1699.23
407.39	1673.48
407.58	1778.81
407.77	1870.09
407.96	1879.45
408.15	1842.00
408.34	1874.77
408.54	1956.69
408.73	1928.60
408.92	1874.77
409.11	1898.17
409.30	1900.52
409.49	2040.95
409.68	1970.73
409.87	2064.35
410.07	1944.99
410.26	2031.58
410.45	2031.58
410.64	2157.97
410.83	2129.89
411.02	2050.31
411.21	2118.18
411.40	2052.65
411.59	2249.25
411.78	2207.13
411.98	2186.06
412.17	2188.40
412.36	2284.36
412.55	2291.38
412.74	2289.04
412.93	2373.30
413.12	2284.36
413.31	2363.94
413.50	2359.26
413.69	2389.69
413.88	2480.97
414.07	2415.43
414.26	2609.70
414.45	2588.63
414.64	2497.35
414.83	2534.80
415.02	2745.45
415.22	2576.93
415.41	2532.46
415.60	2513.74
415.79	2628.42
415.98	2736.09
416.17	2782.90
416.36	2696.30
416.55	2752.47
416.74	2829.71
416.93	2871.84
417.12	2841.41
417.31	2909.29
417.50	2906.95
417.69	2970.14
417.88	2925.67
418.07	2953.76
418.26	3045.04
418.45	3045.04
418.64	3150.36
418.83	2963.12
419.02	2974.82
419.21	3124.62
419.39	3105.89
419.58	3073.12
419.77	2960.78
419.96	3059.08
420.15	3201.85
420.34	3204.19
420.53	3248.66
420.72	3300.16
420.91	3225.26
421.10	3213.56
421.29	3356.33
421.48	3265.05
421.67	3349.31
421.86	3258.03
422.05	3318.88
422.24	3255.69
422.43	3391.44
422.61	3349.31
422.80	3365.69
422.99	3349.31
423.18	3421.86
423.37	3375.05
423.56	3428.88
423.75	3372.71
423.94	3353.99
424.13	3178.45
424.32	3442.93
424.50	3552.93
424.69	3473.36
424.88	3485.06
425.07	3466.33
425.26	3389.10
425.45	3590.38
425.64	3368.03
425.83	3499.10
426.01	3480.38
426.20	3424.20
426.39	3389.10
426.58	3424.20
426.77	3426.54
426.96	3419.52
427.15	3433.57
427.33	3618.47
427.52	3618.47
427.71	3571.66
427.90	3520.17
428.09	3653.58
428.28	3681.66
428.46	3693.37
428.65	3585.70
428.84	3691.02
429.03	3744.86
429.22	3728.47
429.40	3831.46
429.59	3698.05
429.78	3801.03
429.97	3609.11
430.16	3688.68
430.34	3873.59
430.53	3946.14
430.72	3861.88
430.91	3782.31
431.10	3826.78
431.28	3873.59
431.47	4002.32
431.66	3985.93
431.85	3955.51
432.03	3929.76
432.22	4018.70
432.41	4175.52
432.60	4030.40
432.79	4011.68
432.97	4142.75
433.16	4255.09
433.35	4058.49
433.54	4173.18
433.72	4208.28
433.91	4184.88
434.10	4154.45
434.28	4149.77
434.47	4208.28
434.66	4154.45
434.85	4306.59
435.03	4215.30
435.22	4149.77
435.41	4339.35
435.59	4451.70
435.78	4395.53
435.97	4308.93
436.16	4449.36
436.34	4306.59
436.53	4374.46
436.72	4500.85
436.90	4250.41
437.09	4564.04
437.28	4503.19
437.46	4526.60
437.65	4535.96
437.84	4573.41
438.02	4404.89
438.21	4638.94
438.40	4542.98
438.58	4517.23
438.77	4711.50
438.96	4592.13
439.14	4716.18
439.33	4959.60
439.52	4821.50
439.70	4997.04
439.89	4903.42
440.08	5027.47
440.26	5036.83
440.45	4980.66
440.63	5067.26
440.82	5048.54
441.01	5076.62
441.19	5268.55
441.38	5275.57
441.57	5238.12
441.75	5219.39
441.94	5387.91
442.12	5359.83
442.31	5423.02
442.50	5277.91
442.68	5451.11
442.87	5509.62
443.05	5486.22
443.24	5680.48
443.43	5460.47
443.61	5544.73
443.80	5715.59
443.98	5324.72
444.17	5366.85
444.35	5523.66
444.54	5717.93
444.73	5696.86
444.91	5493.24
445.10	5624.31
445.28	5596.22
445.47	5521.32
445.65	5617.29
445.84	5680.48
446.02	5849.00
446.21	5717.93
446.39	5652.39
446.58	5657.07
446.77	5689.84
446.95	5636.01
447.14	5769.42
447.32	5678.14
447.51	5743.67
447.69	5703.89
447.88	5795.17
448.06	5628.99
448.25	5692.18
448.43	5692.18
448.62	5734.31
448.80	5750.70
448.99	6010.50
449.17	5825.59
449.36	5830.27
449.54	5991.77
449.73	6043.26
449.91	5942.62
450.10	5998.79
450.28	6090.07
450.46	6108.80
450.65	6097.10
450.83	6118.16
451.02	6101.78
451.20	6258.59
451.39	6242.21
451.57	6113.48
451.76	6057.31
451.94	6225.82
452.13	6153.27
452.31	6127.52
452.49	6176.67
452.68	6155.61
452.86	6221.14
453.05	6363.92
453.23	6356.90
453.42	6415.41
453.60	6265.61
453.78	6490.31
453.97	6380.30
454.15	6256.25
454.34	6314.77
454.52	6490.31
454.70	6572.22
454.89	6647.12
455.07	6527.75
455.26	6658.82
455.44	6679.89
455.62	6670.53
455.81	6523.07
455.99	6764.15
456.17	6686.91
456.36	6633.08
456.54	6722.02
456.73	6967.77
456.91	6939.69
457.09	7080.12
457.28	7112.89
457.46	7009.90
457.64	7096.50
457.83	6878.83
458.01	6775.85
458.19	7229.91
458.38	7082.46
458.56	7272.04
458.74	7300.13
458.93	7096.50
459.11	7250.98
459.29	7150.34
459.48	7194.81
459.66	7358.64
459.84	7267.36
460.03	7503.76
460.21	7391.41
460.39	7206.51
460.57	7201.83
460.76	7513.12
460.94	7478.01
461.12	7449.93
461.31	7332.90
461.49	7421.84
461.67	7660.57
461.85	7765.90
462.04	7456.95
462.22	8168.47
462.40	7782.28
462.59	7674.62
462.77	7709.72
462.95	7889.95
463.13	7796.32
463.32	7679.30
463.50	7740.15
463.68	7866.54
463.86	7964.84
464.05	7784.62
464.23	7836.11
464.41	7845.48
464.59	7911.01
464.78	8028.04
464.96	8102.93
465.14	7950.80
465.32	7934.42
465.50	8121.66
465.69	8056.12
465.87	8116.98
466.05	8131.02
466.23	8161.45
466.41	8135.70
466.60	8308.90
466.78	8184.85
466.96	8131.02
467.14	8189.53
467.32	8128.68
467.51	8451.67
467.69	8189.53
467.87	8496.14
468.05	8437.63
468.23	8304.22
468.41	8121.66
468.60	8449.33
468.78	8390.82
468.96	8259.75
469.14	8592.11
469.32	8669.34
469.50	8468.06
469.69	8575.72
469.87	8720.84
470.05	8748.92
470.23	8641.26
470.41	8802.75
470.59	8765.31
470.77	8688.07
470.95	8933.82
471.14	9135.11
471.32	8697.43
471.50	8821.48
471.68	9050.85
471.86	9315.33
472.04	9226.39
472.22	9303.63
472.40	9226.39
472.58	9357.46
472.77	9348.10
472.95	9383.21
473.13	9458.10
473.31	9434.70
473.49	9504.92
473.67	9500.23
473.85	9404.27
474.03	9680.46
474.21	9689.82
474.39	9774.08
474.57	9673.43
474.75	9750.67
474.93	9984.73
475.12	9722.59
475.30	10024.51
475.48	9762.37
475.66	10068.98
475.84	10029.20
476.02	10272.61
476.20	10090.05
476.38	10466.88
476.56	10415.38
476.74	10366.23
476.92	10387.30
477.10	10513.69
477.28	10712.63
477.46	10668.16
477.64	10719.65
477.82	10808.59
478.00	11014.56
478.18	11342.24
478.36	11037.97
478.54	11349.26
478.72	11447.56
478.90	11545.86
479.08	11707.36
479.26	11520.12
479.44	11688.64
479.62	11702.68
479.80	11852.47
479.98	12131.00
480.16	12145.04
480.34	11934.39
480.52	12166.10
480.70	12224.62
480.88	12154.40
481.06	12343.99
481.24	12297.17
481.41	12322.92
481.59	12613.15
481.77	12877.63
481.95	12800.39
482.13	13118.70
482.31	12716.13
482.49	13235.73
482.67	13170.19
482.85	13256.79
483.03	13769.37
483.21	13605.53
483.39	13549.36
483.57	13741.29
483.74	13605.53
483.92	14043.21
484.10	13823.20
484.28	14237.48
484.46	14326.42
484.64	14541.75
484.82	14333.44
485.00	14766.44
485.18	14824.95
485.35	14953.68
485.53	14977.09
485.71	14988.79
485.89	15272.00
486.07	15180.71
486.25	15307.10
486.43	15566.90
486.61	15749.46
486.78	15840.75
486.96	15585.63
487.14	16102.89
487.32	16231.62
487.50	16355.66
487.68	16250.34
487.85	16210.55
488.03	16751.21
488.21	16563.97
488.39	16964.20
488.57	17116.34
488.75	16856.54
488.92	17284.86
489.10	17516.57
489.28	17387.84
489.46	17568.06
489.64	17647.64
489.81	18153.20
489.99	18174.26
490.17	18160.22
490.35	18260.86
490.53	18356.82
490.70	18457.46
490.88	18497.25
491.06	18824.93
491.24	18913.87
491.41	18970.04
491.59	19353.89
491.77	19091.75
491.95	19110.47
492.13	19405.38
492.30	19552.84
492.48	19587.94
492.66	19627.73
492.84	19955.41
493.01	20180.10
493.19	20203.50
493.37	19946.05
493.54	20203.50
493.72	20730.12
493.90	20732.47
494.08	20652.89
494.25	20896.30
494.43	20903.32
494.61	21146.74
494.79	21277.81
494.96	21118.65
495.14	21179.51
495.32	21654.64
495.49	21579.74
495.67	21467.39
495.85	21879.33
496.02	21965.93
496.20	22328.71
496.38	22611.92
496.55	22410.63
496.73	22621.28
496.91	22485.53
497.09	22796.82
497.26	22661.07
497.44	22909.16
497.62	22974.70
497.79	23152.58
497.97	23138.54
498.14	23159.60
498.32	23718.99
498.50	23482.59
498.67	23740.05
498.85	23761.12
499.03	23976.45
499.20	24058.37
499.38	24025.60
499.56	24063.05
499.73	24084.11
499.91	24648.18
500.08	24570.94
500.26	24418.81
500.44	24503.07
500.61	24922.02
500.79	24414.13
500.97	24835.42
501.14	24872.87
501.32	25401.83
501.49	25017.99
501.67	25427.58
501.84	25610.14
502.02	25179.48
502.20	25490.77
502.37	25525.88
502.55	25539.93
502.72	25675.68
502.90	25963.56
503.07	25612.48
503.25	25844.20
503.43	25748.23
503.60	26459.76
503.78	26412.95
503.95	26478.48
504.13	26228.04
504.30	26792.11
504.48	26654.02
504.65	26799.13
504.83	26719.56
505.01	27243.84
505.18	26913.82
505.36	27428.74
505.53	27080.00
505.71	27133.83
505.88	27314.05
506.06	26981.70
506.23	27819.61
506.41	27634.71
506.58	27566.83
506.76	27627.68
506.93	27929.61
507.11	28240.90
507.28	27962.38
507.46	28250.27
507.63	28011.53
507.81	28109.83
507.98	28128.56
508.16	28346.23
508.33	28559.22
508.50	28720.71
508.68	28540.49
508.85	28917.32
509.03	28727.74
509.20	29055.41
509.38	28936.04
509.55	28926.68
509.73	29041.37
509.90	29099.88
510.08	29069.45
510.25	29336.27
510.42	29352.66
510.60	29525.86
510.77	29563.31
510.95	29848.85
511.12	29766.93
511.30	29811.40
511.47	30059.50
511.64	29914.39
511.82	30256.11
511.99	30082.91
512.17	30441.01
512.34	30029.07
512.51	30618.89
512.69	31002.74
512.86	30422.28
513.04	30909.11
513.21	30775.70
513.38	30663.36
513.56	30979.33
513.73	30773.36
513.90	30866.98
514.08	30969.97
514.25	31269.56
514.43	31473.18
514.60	31648.72
514.77	31409.99
514.95	31330.41
515.12	31412.33
515.29	31299.98
515.47	31913.20
515.64	31840.65
515.81	32084.06
515.99	32046.62
516.16	32367.27
516.33	32304.07
516.51	32481.95
516.68	31866.39
516.85	32320.46
517.03	32683.24
517.20	32610.68
517.37	32769.84
517.54	32540.47
517.72	32650.47
517.89	32559.19
518.06	33053.05
518.24	32776.86
518.41	33111.56
518.58	32638.77
518.75	32891.55
518.93	33160.71
519.10	32748.78
519.27	33415.83
519.45	33483.70
519.62	33230.93
519.79	33605.41
519.96	33230.93
520.14	33872.23
520.31	33418.17
520.48	33668.61
520.65	33785.63
520.83	34319.28
521.00	33757.55
521.17	33977.56
521.34	34576.73
521.52	34274.80
521.69	34572.05
521.86	34455.03
522.03	34820.15
522.20	34583.76
522.38	34850.58
522.55	34546.31
522.72	34843.56
522.89	34850.58
523.07	35262.51
523.24	35054.20
523.41	35124.42
523.58	35077.61
523.75	35473.16
523.92	35201.66
524.10	35344.43
524.27	35267.19
524.44	35246.13
524.61	35611.25
524.78	35416.99
524.96	36018.50
525.13	36151.91
525.30	35805.52
525.47	36217.45
525.64	35871.05
525.81	36215.11
525.98	36165.96
526.16	35782.11
526.33	36011.48
526.50	36591.94
526.67	36222.13
526.84	36556.83
527.01	36369.58
527.18	36102.76
527.36	36524.06
527.53	37027.28
527.70	37258.99
527.87	37113.87
528.04	36711.30
528.21	36617.68
528.38	36767.48
528.55	37055.36
528.72	37113.87
528.89	36774.50
529.07	36734.71
529.24	37048.34
529.41	37352.61
529.58	37146.64
529.75	36898.55
529.92	37228.56
530.09	37340.91
530.26	37385.38
530.43	37305.80
530.60	37614.75
530.77	37502.40
530.94	37347.93
531.11	37493.04
531.28	37415.80
531.46	37275.37
531.63	37607.73
531.80	37727.10
531.97	38286.48
532.14	38424.57
532.31	37839.44
532.48	38309.89
532.65	38497.13
532.82	38094.56
532.99	38504.15
533.16	38227.97
533.33	38621.18
533.50	38759.27
533.67	38590.75
533.84	38562.67
534.01	39098.65
534.18	38803.74
534.35	39115.03
534.52	38897.36
534.69	39147.80
534.86	39503.56
535.03	38808.42
535.20	39391.22
535.37	38948.85
535.54	39651.02
535.71	39250.78
535.88	39206.31
536.05	39227.38
536.22	39580.80
536.38	39599.52
536.55	39356.11
536.72	39576.12
536.89	39468.45
537.06	39714.21
537.23	39990.39
537.40	40055.93
537.57	39431.01
537.74	39793.79
537.91	39840.60
538.08	40149.55
538.25	39508.24
538.42	40194.02
538.59	40088.70
538.75	40044.23
538.92	40151.89
539.09	40257.21
539.26	39995.07
539.43	40156.57
539.60	40472.54
539.77	40264.24
539.94	40832.99
540.11	40641.06
540.28	40587.23
540.44	40301.68
540.61	40247.85
540.78	40601.27
540.95	40528.72
541.12	40715.96
541.29	40479.57
541.46	40708.94
541.62	40919.59
541.79	40975.76
541.96	40715.96
542.13	40849.37
542.30	40800.22
542.47	41287.05
542.63	41078.74
542.80	41352.58
542.97	41439.18
543.14	41694.30
543.31	41504.72
543.48	41031.93
543.64	41956.44
543.81	41706.01
543.98	41799.63
544.15	41766.86
544.32	41944.74
544.48	42099.22
544.65	42160.07
544.82	42284.12
544.99	41429.82
545.16	42206.88
545.32	42272.42
545.49	42522.85
545.66	42117.94
545.83	42497.11
546.00	42553.28
546.16	42216.24
546.33	42174.11
546.50	42101.56
546.67	42389.44
546.83	42457.32
547.00	42618.81
547.17	42520.51
547.34	42581.37
547.50	42862.23
547.67	42873.93
547.84	43164.16
548.00	42431.57
548.17	43147.78
548.34	42997.98
548.51	43002.66
548.67	43054.15
548.84	43030.75
549.01	42958.19
549.18	43110.33
549.34	43285.87
549.51	43634.61
549.68	43192.25
549.84	43100.97
550.01	43199.27
550.18	43030.75
550.34	43168.84
550.51	43461.41
550.68	43374.81
550.84	43227.35
551.01	43784.40
551.18	43735.25
551.34	43278.85
551.51	43543.33
551.68	43784.40
551.84	43545.67
552.01	43622.90
552.18	43576.09
552.34	43335.02
552.51	43894.41
552.68	43407.58
552.84	43772.70
553.01	43959.94
553.18	43793.76
553.34	43627.59
553.51	43416.94
553.67	43728.23
553.84	44126.12
554.01	43770.36
554.17	43824.19
554.34	44362.51
554.51	44107.40
554.67	44355.49
554.84	43959.94
555.00	44406.98
555.17	44315.70
555.33	44282.94
555.50	44236.12
555.67	44491.24
555.83	44783.81
556.00	44760.40
556.16	44968.71
556.33	44713.59
556.50	44446.77
556.66	44561.46
556.83	44409.32
556.99	44854.03
557.16	45134.89
557.32	44861.05
557.49	45052.97
557.65	44769.77
557.82	44657.42
557.98	44629.34
558.15	45298.73
558.32	44830.62
558.48	44734.66
558.65	45034.25
558.81	44727.64
558.98	44800.19
559.14	44980.42
559.31	44701.89
559.47	45008.50
559.64	45338.52
559.80	45202.77
559.97	45158.30
560.13	44790.83
560.30	45291.71
560.46	45715.34
560.63	45418.10
560.79	45617.04
560.96	45272.98
561.12	45511.72
561.29	45516.40
561.45	45193.40
561.61	45759.81
561.78	45371.28
561.94	45507.04
562.11	45352.56
562.27	45610.02
562.44	45560.87
562.60	45539.80
562.77	45591.30
562.93	45549.17
563.10	45567.89
563.26	45050.63
563.42	45970.46
563.59	45661.51
563.75	45762.15
563.92	45556.19
564.08	45698.96
564.24	45815.99
564.41	45750.45
564.57	45354.90
564.74	45762.15
564.90	45736.41
565.07	45631.08
565.23	45600.66
565.39	45935.35
565.56	46120.26
565.72	45862.80
565.88	45663.85
566.05	45970.46
566.21	45998.55
566.38	46237.28
566.54	46263.03
566.70	46120.26
566.87	46274.73
567.03	45647.47
567.19	46270.05
567.36	46099.19
567.52	46080.47
567.68	46405.80
567.85	46274.73
568.01	46384.74
568.17	46019.61
568.34	46244.30
568.50	46309.84
568.66	45773.86
568.83	46150.68
568.99	46464.32
569.15	46143.66
569.32	46110.89
569.48	46220.90
569.64	46803.69
569.81	46211.54
569.97	46539.21
570.13	46522.83
570.30	45907.27
570.46	46342.61
570.62	46557.94
570.78	46574.32
570.95	46454.95
571.11	46628.15
571.27	46384.74
571.43	46356.65
571.60	46607.09
571.76	45951.74
571.92	46169.41
572.09	45801.94
572.25	46614.11
572.41	46532.19
572.57	46782.63
572.74	46815.40
572.90	46019.61
573.06	46574.32
573.22	46876.25
573.38	47136.05
573.55	46705.39
573.71	46948.81
573.87	46803.69
574.03	46768.58
574.20	46831.78
574.36	46487.72
574.52	46579.00
574.68	46817.74
574.84	46932.42
575.01	47103.28
575.17	46660.92
575.33	46583.68
575.49	46298.14
575.65	47168.82
575.82	46876.25
575.98	46808.37
576.14	47316.27
576.30	46958.17
576.46	47241.37
576.62	46733.48
576.79	46696.03
576.95	46412.82
577.11	46976.89
577.27	46698.37
577.43	46665.60
577.59	46894.97
577.75	46827.10
577.92	46529.85
578.08	46791.99
578.24	47086.90
578.40	47267.12
578.56	46906.68
578.72	46951.15
578.88	47180.52
579.04	47000.30
579.21	46525.17
579.37	46733.48
579.53	47416.91
579.69	47098.60
579.85	46693.69
580.01	46899.65
580.17	46522.83
580.33	47047.11
580.49	47147.75
580.65	46625.81
580.82	46698.37
580.98	47019.02
581.14	47147.75
581.30	47107.96
581.46	46499.42
581.62	46782.63
581.78	46614.11
581.94	46988.60
582.10	47004.98
582.26	46932.42
582.42	47304.57
582.58	47030.72
582.74	47267.12
582.90	46913.70
583.06	47154.77
583.22	46958.17
583.38	47033.07
583.54	47379.46
583.70	46979.23
583.86	47019.02
584.02	46838.80
584.18	47349.04
584.34	47283.50
584.50	47199.24
584.66	46918.38
584.82	47597.13
584.98	47470.75
585.14	47283.50
585.30	46820.08
585.46	47056.47
585.62	47278.82
585.78	46944.12
585.94	46597.73
586.10	46972.21
586.26	46960.51
586.42	47077.54
586.58	46953.49
586.74	46677.30
586.90	47239.03
587.06	47079.88
587.22	47351.38
587.38	46883.27
587.54	47290.52
587.70	47002.64
587.86	47297.55
588.02	47145.41
588.18	47433.30
588.34	47290.52
588.49	47416.91
588.65	47201.58
588.81	47100.94
588.97	46972.21
589.13	47435.64
589.29	47475.43
589.45	47573.73
589.61	47278.82
589.77	47817.14
589.93	47318.61
590.08	47718.84
590.24	47812.46
590.40	47770.33
590.56	47805.44
590.72	47882.68
590.88	47150.09
591.04	47342.02
591.20	47742.25
591.35	47327.97
591.51	48268.87
591.67	47388.83
591.83	47765.65
591.99	47880.34
592.15	47384.15
592.31	47423.93
592.46	46997.96
592.62	47519.90
592.78	47765.65
592.94	47847.57
593.10	47973.96
593.26	47899.06
593.41	47824.17
593.57	47892.04
593.73	47803.10
593.89	48357.81
594.05	48226.74
594.20	47601.82
594.36	48404.62
594.52	48320.36
594.68	47807.78
594.84	47510.53
594.99	48034.81
595.15	47826.51
595.31	47779.70
595.47	47206.26
595.62	48156.52
595.78	47730.54
595.94	47840.55
596.10	47924.81
596.25	48144.82
596.41	47679.05
596.57	47613.52
596.73	48203.33
596.88	48140.14
597.04	48074.60
597.20	48147.16
597.36	48170.57
597.51	48027.79
597.67	47512.88
597.83	47948.21
597.99	47910.77
598.14	47810.12
598.30	48236.10
598.46	47870.98
598.61	48016.09
598.77	47758.63
598.93	47744.59
599.09	47873.32
599.24	48086.31
599.40	48079.28
599.56	48233.76
599.71	48615.27
599.87	48587.18
600.03	47931.83
600.18	48203.33
600.34	47751.61
600.50	48055.88
600.65	47789.06
600.81	48112.05
600.97	47885.02
601.12	48013.75
601.28	47824.17
601.44	47725.86
601.59	48133.12
601.75	48184.61
601.91	48566.12
602.06	48219.72
602.22	48498.24
602.37	48107.37
602.53	47943.53
602.69	48025.45
602.84	48154.18
603.00	48250.14
603.16	48133.12
603.31	47672.03
603.47	48210.35
603.62	47821.83
603.78	48336.74
603.94	48086.31
604.09	48102.69
604.25	47889.70
604.40	48105.03
604.56	47999.71
604.71	48428.02
604.87	48112.05
605.03	47655.65
605.18	47866.30
605.34	48528.67
605.49	47950.56
605.65	47943.53
605.80	47875.66
605.96	47889.70
606.12	48142.48
606.27	48037.16
606.43	47721.18
606.58	47924.81
606.74	48013.75
606.89	47779.70
607.05	48266.53
607.20	48165.88
607.36	47810.12
607.51	47992.68
607.67	47842.89
607.82	47634.58
607.98	47440.32
608.13	47966.94
608.29	47681.39
608.44	47667.35
608.60	47723.52
608.75	48058.22
608.91	47854.59
609.06	47690.76
609.22	47990.34
609.37	47803.10
609.53	48114.39
609.68	47672.03
609.84	47803.10
609.99	48018.43
610.15	47800.76
610.30	48032.47
610.46	47515.22
610.61	47856.93
610.76	47711.82
610.92	47498.83
611.07	47585.43
611.23	47615.86
611.38	47423.93
611.54	47318.61
611.69	47931.83
611.84	47643.94
612.00	47955.24
612.15	47365.42
612.31	47791.40
612.46	47583.09
612.62	47407.55
612.77	47381.80
612.92	48025.45
613.08	47093.92
613.23	47576.07
613.39	47421.59
613.54	47267.12
613.69	47805.44
613.85	47269.46
614.00	47061.15
614.15	47604.16
614.31	47229.67
614.46	47063.49
614.62	47136.05
614.77	47356.06
614.92	47138.39
615.08	47281.16
615.23	47203.92
615.38	47592.45
615.54	47779.70
615.69	47290.52
615.84	47370.10
616.00	47107.96
616.15	47175.84
616.30	47274.14
616.46	47201.58
616.61	46965.19
616.76	46916.04
616.92	46911.36
617.07	47065.83
617.22	47026.04
617.37	46831.78
617.53	46976.89
617.68	46705.39
617.83	47229.67
617.99	47360.74
618.14	47267.12
618.29	46953.49
618.45	46358.99
618.60	46745.18
618.75	46696.03
618.90	46621.13
619.06	46651.56
619.21	46555.60
619.36	47395.85
619.51	46586.02
619.67	46782.63
619.82	46714.75
619.97	46761.56
620.12	46691.35
620.28	46529.85
620.43	46934.76
620.58	46784.97
620.73	46576.66
620.89	46590.70
621.04	46834.12
621.19	46768.58
621.34	46691.35
621.49	46618.79
621.65	46728.80
621.80	46955.83
621.95	46548.57
622.10	46293.46
622.25	46223.24
622.41	46270.05
622.56	46469.00
622.71	46707.73
622.86	46480.70
623.01	46623.47
623.16	46476.02
623.32	46527.51
623.47	46281.75
623.62	46019.61
623.77	46791.99
623.92	46363.67
624.07	46513.47
624.23	46733.48
624.38	46274.73
624.53	46136.64
624.68	46092.17
624.83	45958.76
624.98	46681.98
625.13	45783.22
625.29	46089.83
625.44	46476.02
625.59	46122.60
625.74	45659.17
625.89	45928.33
626.04	45989.19
626.19	45944.72
626.34	45841.73
626.49	45710.66
626.65	45284.68
626.80	45397.03
626.95	45729.39
627.10	45471.93
627.25	45827.69
627.40	45542.14
627.55	45198.09
627.70	45659.17
627.85	45944.72
628.00	45832.37
628.15	45724.71
628.30	45666.19
628.45	44886.79
628.60	45083.40
628.76	45242.56
628.91	45453.20
629.06	44905.52
629.21	45371.28
629.36	45455.54
629.51	45305.75
629.66	45067.02
629.81	45193.40
629.96	45439.16
630.11	45212.13
630.26	45212.13
630.41	45024.89
630.56	44666.78
630.71	45282.34
630.86	45170.00
631.01	44722.96
631.16	44638.70
631.31	45357.24
631.46	44797.85
631.61	45563.21
631.76	44945.31
631.91	45109.14
632.06	45228.51
632.21	45144.25
632.36	44935.95
632.51	44680.83
632.66	44945.31
632.81	44769.77
632.96	45331.50
633.10	44928.92
633.25	44779.13
633.40	45219.15
633.55	45364.26
633.70	44753.38
633.85	44900.84
634.00	44877.43
634.15	44254.85
634.30	44561.46
634.45	44507.63
634.60	44289.96
634.75	44657.42
634.90	44315.70
635.05	44477.20
635.19	44669.12
635.34	44486.56
635.49	44488.90
635.64	44739.34
635.79	44467.84
635.94	44318.04
636.09	44460.82
636.24	44339.11
636.39	44538.05
636.53	44472.52
636.68	43969.30
636.83	44072.29
636.98	44481.88
637.13	43892.07
637.28	44186.97
637.43	43985.69
637.57	44423.37
637.72	43817.17
637.87	43887.39
638.02	44243.15
638.17	43924.83
638.32	44013.77
638.46	43208.63
638.61	43487.15
638.76	43386.51
638.91	43658.01
639.06	43337.36
639.20	43604.18
639.35	43337.36
639.50	43374.81
639.65	43665.03
639.80	44163.57
639.94	43791.42
640.09	43564.39
640.24	43665.03
640.39	43569.07
640.54	43253.10
640.68	43545.67
640.83	43524.60
640.98	43124.37
641.13	43295.23
641.27	43880.36
641.42	43379.49
641.57	43082.24
641.72	43304.59
641.86	43065.86
642.01	43089.26
642.16	43239.06
642.31	43168.84
642.45	43484.81
642.60	42937.13
642.75	43168.84
642.90	42808.40
643.04	43246.08
643.19	42897.34
643.34	43241.40
643.48	42602.43
643.63	42976.92
643.78	42923.08
643.93	43468.43
644.07	42588.39
644.22	42976.92
644.37	42981.60
644.51	42822.44
644.66	43072.88
644.81	42993.30
644.95	42630.52
645.10	43086.92
645.25	42574.34
645.39	42913.72
645.54	42995.64
645.69	42642.22
645.83	42433.91
645.98	42623.50
646.13	42513.49
646.27	42712.44
646.42	42534.56
646.57	42925.42
646.71	42309.86
646.86	42810.74
647.00	42518.17
647.15	42834.14
647.30	42504.13
647.44	42579.03
647.59	42014.96
647.74	41918.99
647.88	42071.13
648.03	42342.63
648.17	42429.23
648.32	42595.41
648.47	42520.51
648.61	42260.71
648.76	42150.71
648.90	42169.43
649.05	42068.79
649.20	41961.12
649.34	42148.37
649.49	42040.70
649.63	41897.93
649.78	42347.31
649.92	42422.21
650.07	42714.78
650.21	42078.15
650.36	42548.60
650.51	42141.35
650.65	42096.88
650.80	42192.84
650.94	42361.36
651.09	42071.13
651.23	41610.04
651.38	41792.61
651.52	41574.94
651.67	41624.09
651.81	41535.15
651.96	41422.80
652.10	41521.10
652.25	41249.60
652.39	41610.04
652.54	41427.48
652.68	41495.36
652.83	41504.72
652.97	41755.16
653.12	41677.92
653.26	41474.29
653.41	41237.90
653.55	41446.21
653.70	41579.62
653.84	41394.71
653.99	41581.96
654.13	41591.32
654.27	41006.19
654.42	41296.41
654.56	41415.78
654.71	41310.46
654.85	41352.58
655.00	41516.42
655.14	41474.29
655.29	41715.37
655.43	41628.77
655.57	40952.35
655.72	41055.34
655.86	40748.73
656.01	40650.42
656.15	40919.59
656.30	40753.41
656.44	40957.03
656.58	41139.60
656.73	40863.41
656.87	40725.32
657.01	40549.78
657.16	40924.27
657.30	41020.23
657.45	40882.14
657.59	40638.72
657.73	40477.22
657.88	40854.05
658.02	41076.40
658.16	40987.46
658.31	40463.18
658.45	40870.43
658.60	40399.99
658.74	40428.07
658.88	40364.88
659.03	40453.82
659.17	40086.36
659.31	40046.57
659.46	39915.50
659.60	40088.70
659.74	39962.31
659.89	39660.38
660.03	39599.52
660.17	39906.13
660.32	39662.72
660.46	39526.97
660.60	39700.17
660.74	39995.07
660.89	39789.11
661.03	39594.84
661.17	39227.38
661.32	39133.76
661.46	39601.86
661.60	39552.71
661.74	39187.59
661.89	39325.68
662.03	39440.37
662.17	39058.86
662.31	39330.36
662.46	39536.33
662.60	38691.40
662.74	38824.81
662.88	38532.24
663.03	38483.09
663.17	38567.35
663.31	39033.11
663.45	38988.64
663.60	39203.97
663.74	38630.54
663.88	38616.50
664.02	38340.32
664.17	39002.69
664.31	38536.92
664.45	38064.13
664.59	38246.69
664.73	38185.84
664.88	38361.38
665.02	37928.38
665.16	38253.72
665.30	37989.24
665.44	37773.91
665.59	37991.58
665.73	37937.74
665.87	37390.06
666.01	37823.06
666.15	37893.27
666.29	37467.30
666.44	37991.58
666.58	37614.75
666.72	37799.65
666.86	37502.40
667.00	37411.12
667.14	37221.54
667.28	37832.42
667.43	37123.24
667.57	37813.70
667.71	37579.64
667.85	37181.75
667.99	37013.23
668.13	37167.71
668.27	37134.94
668.41	36788.54
668.56	36655.13
668.70	36348.52
668.84	36526.40
668.98	36442.14
669.12	36718.32
669.26	36432.78
669.40	36304.05
669.54	36671.51
669.68	36498.31
669.82	36615.34
669.96	36177.66
670.10	35906.16
670.25	36002.12
670.39	36098.08
670.53	36198.73
670.67	35859.35
670.81	36397.67
670.95	35674.45
671.09	35878.07
671.23	35529.33
671.37	35955.31
671.51	35487.20
671.65	35625.29
671.79	35173.57
671.93	35690.83
672.07	35370.18
672.21	35344.43
672.35	34925.47
672.49	34759.30
672.63	34902.07
672.77	35140.80
672.91	34766.32
673.05	34904.41
673.19	34838.87
673.33	34525.24
673.47	34178.84
673.61	34338.00
673.75	34223.31
673.89	34436.30
674.03	34216.29
674.17	34054.79
674.31	34012.66
674.45	34272.46
674.59	34181.18
674.73	33972.88
674.87	33425.19
675.01	33284.76
675.15	33062.41
675.29	33003.89
675.43	33610.09
675.56	33434.55
675.70	33071.77
675.84	32929.00
675.98	32308.76
676.12	32877.51
676.26	33130.28
676.40	32837.72
676.54	32545.15
676.68	32348.54
676.82	31957.67
676.96	32254.92
677.10	32657.49
677.23	32275.99
677.37	32327.48
677.51	31964.70
677.65	31955.33
677.79	32201.09
677.93	31545.74
678.07	31735.32
678.21	31655.75
678.34	31374.88
678.48	31297.64
678.62	31138.49
678.76	31122.10
678.90	30707.83
679.04	31101.04
679.18	31541.06
679.31	30794.43
679.45	30785.07
679.59	30366.11
679.73	30766.34
679.87	30366.11
680.00	30206.95
680.14	30120.35
680.28	30274.83
680.42	30464.41
680.56	29881.62
680.70	29778.64
680.83	29401.81
680.97	29612.46
681.11	29628.84
681.25	29378.40
681.39	29214.57
681.52	29137.33
681.66	28648.16
681.80	28603.69
681.94	28999.24
682.07	28709.01
682.21	28636.45
682.35	28477.30
682.49	28629.43
682.62	28552.20
682.76	28650.50
682.90	28261.97
683.04	28353.25
683.17	28306.44
683.31	28095.79
683.45	27896.85
683.59	27255.54
683.72	27648.75
683.86	27440.44
684.00	27709.60
684.13	27583.21
684.27	27517.68
684.41	26967.65
684.55	27133.83
684.68	26874.03
684.82	26520.61
684.96	26878.71
685.09	26874.03
685.23	27033.19
685.37	26675.09
685.50	26843.60
685.64	26380.18
685.78	26228.04
685.91	26490.18
686.05	25675.68
686.19	25678.02
686.32	25495.46
686.46	25308.21
686.60	25511.84
686.73	25479.07
686.87	25642.91
687.01	25879.30
687.14	25092.88
687.28	24964.15
687.42	25352.68
687.55	24907.98
687.69	25135.01
687.82	24912.66
687.96	24912.66
688.10	24709.04
688.23	24608.39
688.37	24870.53
688.50	24795.64
688.64	24425.83
688.78	24208.16
688.91	24170.71
689.05	23955.38
689.18	23922.62
689.32	23552.81
689.46	23419.40
689.59	23578.56
689.73	23868.78
689.86	23857.08
690.00	23337.48
690.13	23447.49
690.27	23047.26
690.41	23487.28
690.54	23276.63
690.68	22787.46
690.81	23061.30
690.95	22923.21
691.08	22759.37
691.22	22707.88
691.35	22211.68
691.49	22534.68
691.62	22515.95
691.76	22314.67
691.89	22022.10
692.03	21509.52
692.16	21671.02
692.30	21656.98
692.43	21972.95
692.57	21472.07
692.70	21654.64
692.84	21551.65
692.97	20954.82
693.11	21530.59
693.24	21041.42
693.38	21317.60
693.51	20786.30
693.65	20945.45
693.78	20851.83
693.92	20798.00
694.05	20617.78
694.19	20379.04
694.32	20891.62
694.45	20599.05
694.59	20538.20
694.72	20540.54
694.86	20545.22
694.99	20119.24
695.13	19927.32
695.26	19765.82
695.39	19709.65
695.53	19681.56
695.66	19648.80
695.80	19459.21
695.93	19360.91
696.07	18934.93
696.20	19112.81
696.33	19199.41
696.47	18808.54
696.60	18878.76
696.73	19023.87
696.87	19007.49
697.00	18785.14
697.14	18593.22
697.27	18274.90
697.40	18452.78
697.54	18625.98
697.67	18221.07
697.80	18420.02
697.94	18281.92
698.07	17872.33
698.21	18295.97
698.34	17923.82
698.47	18005.74
698.61	17488.48
698.74	17465.08
698.87	17715.51
699.01	17277.83
699.14	17345.71
699.27	17167.83
699.40	17404.22
699.54	16994.63
699.67	17149.11
699.80	17156.13
699.94	16798.02
700.07	17146.76
700.20	16868.24
700.34	16699.72
700.47	16809.73
700.60	16835.47
700.73	16685.68
700.87	16393.11
701.00	16257.36
701.13	16205.87
701.26	16032.67
701.40	15950.75
701.53	16030.33
701.66	16013.95
701.79	15613.71
701.93	15431.15
702.06	15503.71
702.19	15585.63
702.32	15620.74
702.46	15527.11
702.59	15332.85
702.72	15475.62
702.85	15463.92
702.99	15513.07
703.12	15433.49
703.25	15096.46
703.38	15009.86
703.51	14831.97
703.65	14780.48
703.78	14415.36
703.91	14595.58
704.04	14469.19
704.17	14387.27
704.31	14492.60
704.44	14265.57
704.57	14232.80
704.70	14396.64
704.83	14026.83
704.96	14001.08
705.10	13940.23
705.23	13963.64
>>>>>End Processed Spectral Data<<<<<
