SpectraSuite Data File
++++++++++++++++++++++++++++++++++++
Date: Fri Oct 25 10:44:18 EDT 2013
User: price-jones
Dark Spectrum Present: No
Reference Spectrum Present: No
Number of Sampled Component Spectra: 1
Spectrometers: USB2+H05261
Integration Time (usec): 100000 (USB2+H05261)
Spectra Averaged: 1 (USB2+H05261)
Boxcar Smoothing: 0 (USB2+H05261)
Correct for Electrical Dark: No (USB2+H05261)
Strobe/Lamp Enabled: No (USB2+H05261)
Correct for Detector Non-linearity: No (USB2+H05261)
Correct for Stray Light: No (USB2+H05261)
Number of Pixels in Processed Spectrum: 2048
>>>>>Begin Processed Spectral Data<<<<<
365.73	161.50
365.92	161.50
366.12	161.50
366.32	102.98
366.52	0.00
366.72	60.85
366.91	0.00
367.11	44.47
367.31	4.68
367.51	0.00
367.70	49.15
367.90	28.09
368.10	86.60
368.30	18.72
368.49	37.45
368.69	72.56
368.89	37.45
369.09	11.70
369.28	67.88
369.48	0.00
369.68	30.43
369.87	86.60
370.07	100.64
370.27	135.75
370.47	266.82
370.66	407.25
370.86	510.24
371.06	514.92
371.25	500.87
371.45	519.60
371.65	461.09
371.84	470.45
372.04	545.34
372.24	557.05
372.44	557.05
372.63	545.34
372.83	578.11
373.03	451.72
373.22	512.58
373.42	540.66
373.62	458.74
373.81	540.66
374.01	540.66
374.21	578.11
374.40	585.13
374.60	582.79
374.79	524.28
374.99	657.69
375.19	681.10
375.38	657.69
375.58	608.54
375.78	580.45
375.97	561.73
376.17	664.71
376.37	561.73
376.56	599.18
376.76	582.79
376.95	533.64
377.15	655.35
377.35	629.60
377.54	681.10
377.74	664.71
377.93	620.24
378.13	610.88
378.33	676.41
378.52	683.44
378.72	627.26
378.91	662.37
379.11	660.03
379.31	678.76
379.50	573.43
379.70	664.71
379.89	734.93
380.09	662.37
380.28	667.05
380.48	786.42
380.68	781.74
380.87	805.14
381.07	744.29
381.26	681.10
381.46	760.67
381.65	730.25
381.85	753.65
382.04	741.95
382.24	734.93
382.43	772.38
382.63	725.57
382.83	718.54
383.02	798.12
383.22	741.95
383.41	753.65
383.61	695.14
383.80	781.74
384.00	861.32
384.19	805.14
384.39	784.08
384.58	866.00
384.78	922.17
384.97	737.27
385.17	723.23
385.36	777.06
385.56	774.72
385.75	842.59
385.95	828.55
386.14	828.55
386.34	777.06
386.53	917.49
386.72	826.21
386.92	854.30
387.11	922.17
387.31	959.62
387.50	889.40
387.70	854.30
387.89	807.48
388.09	931.53
388.28	873.02
388.48	905.79
388.67	959.62
388.86	976.00
389.06	919.83
389.25	985.37
389.45	994.73
389.64	947.92
389.84	1015.79
390.03	997.07
390.22	1086.01
390.42	978.34
390.61	1025.15
390.81	1069.62
391.00	1064.94
391.19	1116.44
391.39	1109.41
391.58	1090.69
391.78	1029.84
391.97	1076.65
392.16	1027.50
392.36	1088.35
392.55	1036.86
392.75	1083.67
392.94	992.39
393.13	1034.52
393.33	1046.22
393.52	1043.88
393.71	1188.99
393.91	1067.28
394.10	1193.67
394.29	1128.14
394.49	1174.95
394.68	1153.88
394.88	1207.72
395.07	1268.57
395.26	1334.11
395.46	1238.14
395.65	1287.29
395.84	1256.87
396.04	1380.92
396.23	1200.69
396.42	1165.59
396.62	1228.78
396.81	1259.21
397.00	1310.70
397.19	1343.47
397.39	1348.15
397.58	1362.19
397.77	1401.98
397.97	1453.47
398.16	1593.90
398.35	1507.30
398.55	1411.34
398.74	1507.30
398.93	1626.67
399.12	1497.94
399.32	1570.50
399.51	1572.84
399.70	1584.54
399.90	1607.95
400.09	1598.59
400.28	1643.06
400.47	1600.93
400.67	1661.78
400.86	1706.25
401.05	1736.68
401.24	1708.59
401.44	1912.22
401.63	1771.79
401.82	1755.40
402.01	1724.97
402.21	1823.28
402.40	1797.53
402.59	1776.47
402.78	1729.66
402.97	1830.30
403.17	1820.94
403.36	1940.30
403.55	1830.30
403.74	2024.56
403.93	1970.73
404.13	1935.62
404.32	1898.17
404.51	1846.68
404.70	1912.22
404.89	1909.88
405.09	2069.03
405.28	1935.62
405.47	2113.50
405.66	1952.01
405.85	1977.75
406.05	2024.56
406.24	1963.71
406.43	2078.40
406.62	2132.23
406.81	2183.72
407.00	2104.14
407.20	2085.42
407.39	2054.99
407.58	2176.70
407.77	2211.81
407.96	2385.01
408.15	2272.66
408.34	2267.98
408.54	2307.77
408.73	2368.62
408.92	2387.35
409.11	2279.68
409.30	2239.89
409.49	2399.05
409.68	2342.88
409.87	2424.80
410.07	2438.84
410.26	2310.11
410.45	2436.50
410.64	2476.29
410.83	2527.78
411.02	2583.95
411.21	2729.06
411.40	2658.85
411.59	2626.08
411.78	2665.87
411.98	2764.17
412.17	2733.75
412.36	2794.60
412.55	2738.43
412.74	2771.19
412.93	2787.58
413.12	2778.22
413.31	2902.26
413.50	2871.84
413.69	2850.77
413.88	2967.80
414.07	2890.56
414.26	3021.63
414.45	3063.76
414.64	2984.18
414.83	3108.23
415.02	3094.19
415.22	3246.32
415.41	3157.38
415.60	3073.12
415.79	3323.56
415.98	3414.84
416.17	3330.58
416.36	3253.34
416.55	3349.31
416.74	3412.50
416.93	3246.32
417.12	3405.48
417.31	3386.76
417.50	3515.48
417.69	3527.19
417.88	3564.64
418.07	3534.21
418.26	3538.89
418.45	3520.17
418.64	3772.94
418.83	3712.09
419.02	3684.00
419.21	3674.64
419.39	3658.26
419.58	3609.11
419.77	3630.17
419.96	3632.51
420.15	3684.00
420.34	3719.11
420.53	3845.50
420.72	3829.12
420.91	3934.44
421.10	3819.75
421.29	3882.95
421.48	3817.41
421.67	3847.84
421.86	3885.29
422.05	3892.31
422.24	3873.59
422.43	3882.95
422.61	3885.29
422.80	4002.32
422.99	4126.36
423.18	4018.70
423.37	4217.65
423.56	4016.36
423.75	3955.51
423.94	3943.80
424.13	3822.09
424.32	3765.92
424.50	4100.62
424.69	4039.76
424.88	4011.68
425.07	3852.52
425.26	3997.64
425.45	4044.45
425.64	3983.59
425.83	4042.11
426.01	4107.64
426.20	3992.95
426.39	4067.85
426.58	4051.47
426.77	3925.08
426.96	4042.11
427.15	4051.47
427.33	4182.54
427.52	4163.81
427.71	4273.82
427.90	4243.39
428.09	4276.16
428.28	4292.54
428.46	4332.33
428.65	4219.99
428.84	4196.58
429.03	4365.10
429.22	4124.02
429.40	4243.39
429.59	4088.92
429.78	4173.18
429.97	4140.41
430.16	4032.74
430.34	4231.69
430.53	4266.80
430.72	4269.14
430.91	4182.54
431.10	4423.61
431.28	4657.67
431.47	4723.20
431.66	4716.18
431.85	4566.39
432.03	4652.98
432.22	4720.86
432.41	4662.35
432.60	4882.36
432.79	4767.67
432.97	4868.31
433.16	4713.84
433.35	4629.58
433.54	4784.06
433.72	4734.90
433.91	4858.95
434.10	4730.22
434.28	4821.50
434.47	5027.47
434.66	4945.55
434.85	5011.09
435.03	4926.83
435.22	5029.81
435.41	5287.27
435.59	5076.62
435.78	5188.97
435.97	5254.50
436.16	5280.25
436.34	5259.18
436.53	5156.20
436.72	5479.19
436.90	5146.84
437.09	5338.76
437.28	5249.82
437.46	5301.31
437.65	5420.68
437.84	5165.56
438.02	5193.65
438.21	5294.29
438.40	5252.16
438.58	5472.17
438.77	5556.43
438.96	5467.49
439.14	5729.63
439.33	5849.00
439.52	5671.12
439.70	5928.58
439.89	5858.36
440.08	5757.72
440.26	5839.64
440.45	5731.97
440.63	6092.41
440.82	6277.32
441.01	5942.62
441.19	6272.64
441.38	6214.12
441.57	6314.77
441.75	6202.42
441.94	6457.54
442.12	6434.13
442.31	6445.84
442.50	6497.33
442.68	6565.20
442.87	6443.49
443.05	6733.72
443.24	6602.65
443.43	6497.33
443.61	6672.87
443.80	6612.01
443.98	6565.20
444.17	6494.99
444.35	6813.30
444.54	6722.02
444.73	6642.44
444.91	6693.93
445.10	6527.75
445.28	6546.48
445.47	6380.30
445.65	6424.77
445.84	6696.27
446.02	6815.64
446.21	6738.40
446.39	6684.57
446.58	6827.34
446.77	6832.02
446.95	6738.40
447.14	6796.92
447.32	6927.99
447.51	6586.27
447.69	6782.87
447.88	6745.42
448.06	6895.22
448.25	6719.68
448.43	6832.02
448.62	7054.37
448.80	6780.53
448.99	7002.88
449.17	7012.24
449.36	6970.12
449.54	7183.10
449.73	6909.26
449.91	7124.59
450.10	7363.33
450.28	7337.58
450.46	7302.47
450.65	7393.75
450.83	7325.88
451.02	7405.46
451.20	7321.20
451.39	7407.80
451.57	7246.30
451.76	7180.76
451.94	7386.73
452.13	7492.05
452.31	7229.91
452.49	7435.88
452.68	7272.04
452.86	7330.56
453.05	7379.71
453.23	7541.21
453.42	7669.94
453.60	7726.11
453.78	7513.12
453.97	7431.20
454.15	7555.25
454.34	7527.16
454.52	7735.47
454.70	7592.70
454.89	7768.24
455.07	7662.91
455.26	7651.21
455.44	8009.31
455.62	7843.14
455.81	7894.63
455.99	7939.10
456.17	7960.16
456.36	7971.86
456.54	8147.40
456.73	7997.61
456.91	8280.82
457.09	8138.04
457.28	8325.29
457.46	8341.67
457.64	8379.12
457.83	8229.32
458.01	8306.56
458.19	8437.63
458.38	8332.31
458.56	8362.73
458.74	8308.90
458.93	8234.00
459.11	8432.95
459.29	8372.10
459.48	8699.77
459.66	8418.91
459.84	8561.68
460.03	8748.92
460.21	8718.50
460.39	8762.97
460.57	8559.34
460.76	8835.52
460.94	8936.17
461.12	8795.73
461.31	8842.54
461.49	8875.31
461.67	8779.35
461.85	8856.59
462.04	8779.35
462.22	9107.02
462.40	9055.53
462.59	8854.25
462.77	9062.55
462.95	9001.70
463.13	9128.09
463.32	8973.61
463.50	9188.94
463.68	9071.92
463.86	9142.13
464.05	9142.13
464.23	9060.21
464.41	9245.12
464.59	9039.15
464.78	9151.49
464.96	9228.73
465.14	9212.35
465.32	9397.25
465.50	9376.19
465.69	9509.60
465.87	9469.81
466.05	9511.94
466.23	9247.46
466.41	9453.42
466.60	9769.40
466.78	9280.22
466.96	9266.18
467.14	9542.36
467.32	9638.33
467.51	9551.73
467.69	9397.25
467.87	9570.45
468.05	9757.69
468.23	9668.75
468.41	9612.58
468.60	9818.55
468.78	9813.87
468.96	9664.07
469.14	9865.36
469.32	9923.87
469.50	9626.62
469.69	10115.80
469.87	9816.21
470.05	10031.54
470.23	10012.81
470.41	10022.17
470.59	10083.03
470.77	9935.57
470.95	10202.40
471.14	10207.08
471.32	10284.31
471.50	10471.56
471.68	10457.51
471.86	10740.72
472.04	10925.62
472.22	10670.50
472.40	10319.42
472.58	10588.58
472.77	10530.07
472.95	10817.96
473.13	10993.50
473.31	10733.70
473.49	10871.79
473.67	10743.06
473.85	10810.93
474.03	11150.31
474.21	11250.96
474.39	11201.80
474.57	11091.80
474.75	11314.15
474.93	11470.97
475.12	11286.06
475.30	11396.07
475.48	11393.73
475.66	11592.67
475.84	11393.73
476.02	11707.36
476.20	11733.11
476.38	11990.56
476.56	12091.21
476.74	12037.38
476.92	12091.21
477.10	11943.75
477.28	12318.24
477.46	12322.92
477.64	12404.84
477.82	12629.53
478.00	12760.60
478.18	12793.37
478.36	12741.88
478.54	12828.48
478.72	13029.76
478.90	13025.08
479.08	13277.86
479.26	13355.10
479.44	13334.03
479.62	13584.47
479.80	13600.85
479.98	13577.45
480.16	13823.20
480.34	13811.50
480.52	13973.00
480.70	14008.11
480.88	13961.30
481.06	14150.88
481.24	14118.11
481.41	14656.43
481.59	14567.49
481.77	14682.18
481.95	15000.49
482.13	14780.48
482.31	15026.24
482.49	14937.30
482.67	15119.86
482.85	15288.38
483.03	15445.20
483.21	15728.40
483.39	15637.12
483.57	15527.11
483.74	15896.92
483.92	16023.31
484.10	15887.56
484.28	16166.08
484.46	16699.72
484.64	16681.00
484.82	16311.19
485.00	16465.67
485.18	16475.03
485.35	16556.95
485.53	16486.73
485.71	16479.71
485.89	16624.83
486.07	16816.75
486.25	16901.01
486.43	16910.37
486.61	17378.48
486.78	17678.07
486.96	17605.51
487.14	18230.43
487.32	17916.80
487.50	18469.17
487.68	18515.98
487.85	18712.58
488.03	18633.00
488.21	18991.11
488.39	18843.65
488.57	19047.28
488.75	19360.91
488.92	19513.05
489.10	19520.07
489.28	19639.44
489.46	20173.08
489.64	20180.10
489.81	20386.07
489.99	20273.72
490.17	20514.80
490.35	20561.61
490.53	20545.22
490.70	21242.70
490.88	20737.15
491.06	21193.55
491.24	20994.61
491.41	21317.60
491.59	21174.83
491.77	21331.64
491.95	21125.68
492.13	21914.44
492.30	21972.95
492.48	22033.80
492.66	21759.96
492.84	22106.36
493.01	22293.60
493.19	22211.68
493.37	22434.03
493.54	22946.61
493.72	23316.42
493.90	23087.04
494.08	23262.58
494.25	23410.04
494.43	23765.80
494.61	23924.96
494.79	23871.12
494.96	23793.89
495.14	23819.63
495.32	24168.37
495.49	24016.24
495.67	24180.07
495.85	24606.05
496.02	24542.86
496.20	24755.85
496.38	24987.56
496.55	25027.35
496.73	25710.78
496.91	25420.56
497.09	25345.66
497.26	25572.69
497.44	25734.19
497.62	25479.07
497.79	25671.00
497.97	25472.05
498.14	25818.45
498.32	25867.60
498.50	25986.97
498.67	26721.90
498.85	26544.02
499.03	27037.87
499.20	26658.70
499.38	26618.91
499.56	26843.60
499.73	26761.69
499.91	26792.11
500.08	27129.15
500.26	26941.91
500.44	27023.83
500.61	27094.04
500.79	27253.20
500.97	27119.79
501.14	27878.12
501.32	27569.17
501.49	27779.82
501.67	27960.04
501.84	28060.68
502.02	28154.30
502.20	28198.77
502.37	28187.07
502.55	28407.08
502.72	28638.80
502.90	28510.07
503.07	28346.23
503.25	28617.73
503.43	28662.20
503.60	28720.71
503.78	28500.70
503.95	28519.43
504.13	28875.19
504.30	28985.19
504.48	29315.21
504.65	29357.34
504.83	29413.51
505.01	29792.68
505.18	29811.40
505.36	30150.78
505.53	30110.99
505.71	30312.28
505.88	30015.03
506.06	29855.87
506.23	30136.74
506.41	30438.67
506.58	30438.67
506.76	30338.02
506.93	30515.90
507.11	30190.57
507.28	30771.02
507.46	30490.16
507.63	30572.08
507.81	30841.24
507.98	30543.99
508.16	30857.62
508.33	31307.01
508.50	31236.79
508.68	31498.93
508.85	32030.23
509.03	31817.24
509.20	31583.19
509.38	31749.37
509.55	31927.25
509.73	31845.33
509.90	31985.76
510.08	31758.73
510.25	32004.49
510.42	32194.07
510.60	32271.31
510.77	32275.99
510.95	32367.27
511.12	32402.38
511.30	33046.02
511.47	32982.83
511.64	32631.75
511.82	33310.50
511.99	32470.25
512.17	33146.67
512.34	32875.16
512.51	32865.80
512.69	33111.56
512.86	33141.99
513.04	33537.54
513.21	33310.50
513.38	33207.52
513.56	33219.22
513.73	33287.10
513.90	33605.41
514.08	33460.30
514.25	33614.77
514.43	33883.94
514.60	33778.61
514.77	33720.10
514.95	34256.08
515.12	34094.58
515.29	33816.06
515.47	34735.89
515.64	34754.61
515.81	34274.80
515.99	33706.05
516.16	34073.52
516.33	33715.42
516.51	34267.78
516.68	33855.85
516.85	33816.06
517.03	34052.45
517.20	34169.48
517.37	34653.97
517.54	35005.05
517.72	34455.03
517.89	34361.40
518.06	34824.83
518.24	34377.79
518.41	34780.36
518.58	35072.93
518.75	35175.91
518.93	35433.37
519.10	35318.68
519.27	35178.25
519.45	35189.95
519.62	35821.90
519.79	36011.48
519.96	35503.59
520.14	35943.61
520.31	35952.97
520.48	36460.87
520.65	36011.48
520.83	36435.12
521.00	36547.47
521.17	36526.40
521.34	36629.38
521.52	36584.91
521.69	36811.95
521.86	36825.99
522.03	36783.86
522.20	36910.25
522.38	36690.24
522.55	36886.84
522.72	37050.68
522.89	36889.18
523.07	37691.99
523.24	37205.16
523.41	37668.58
523.58	37549.21
523.75	37708.37
523.92	37794.97
524.10	37881.57
524.27	37935.40
524.44	37560.92
524.61	37794.97
524.78	37886.25
524.96	37869.87
525.13	37961.15
525.30	38326.27
525.47	38473.73
525.64	38045.41
525.81	38436.28
525.98	37883.91
526.16	38218.61
526.33	38022.00
526.50	38143.71
526.67	37659.22
526.84	38026.68
527.01	38321.59
527.18	38408.19
527.36	38876.30
527.53	38588.41
527.70	39335.04
527.87	39173.55
528.04	38801.40
528.21	39253.12
528.38	39138.44
528.55	39875.71
528.72	39454.41
528.89	39847.62
529.07	39363.13
529.24	39026.09
529.41	39196.95
529.58	39435.69
529.75	39274.19
529.92	39775.06
530.09	39721.23
530.26	40098.06
530.43	39601.86
530.60	39739.96
530.77	39606.55
530.94	40327.43
531.11	40350.84
531.28	40032.52
531.46	40163.59
531.63	40261.90
531.80	40009.12
531.97	39796.13
532.14	40069.97
532.31	39821.87
532.48	40222.11
532.65	40472.54
532.82	40198.70
532.99	40322.75
533.16	39842.94
533.33	40311.05
533.50	40823.62
533.67	40381.26
533.84	40388.28
534.01	40524.04
534.18	40744.05
534.35	40942.99
534.52	40739.36
534.69	40891.50
534.86	40968.74
535.03	40699.58
535.20	41406.42
535.37	41504.72
535.54	41993.89
535.71	41593.66
535.88	41312.80
536.05	40931.29
536.22	41216.83
536.38	40921.93
536.55	41560.89
536.72	41048.32
536.89	40924.27
537.06	41792.61
537.23	41708.35
537.40	41682.60
537.57	41476.63
537.74	41668.56
537.91	42087.51
538.08	42012.62
538.25	41642.81
538.42	41710.69
538.59	42071.13
538.75	41542.17
538.92	41766.86
539.09	42438.59
539.26	41986.87
539.43	41862.82
539.60	41982.19
539.77	41816.01
539.94	42080.49
540.11	42155.39
540.28	41844.10
540.44	42059.43
540.61	42134.32
540.78	41930.70
540.95	41986.87
541.12	41977.51
541.29	42403.49
541.46	42171.77
541.62	42506.47
541.79	43040.11
541.96	42017.30
542.13	42497.11
542.30	42586.05
542.47	42780.31
542.63	42925.42
542.80	42698.39
542.97	43152.46
543.14	43405.23
543.31	43225.01
543.48	43421.62
543.64	43746.95
543.81	43409.92
543.98	43618.22
544.15	43381.83
544.32	43723.55
544.48	43669.72
544.65	43346.72
544.82	43042.45
544.99	42878.61
545.16	43899.09
545.32	42995.64
545.49	44179.95
545.66	43913.13
545.83	43648.65
546.00	43934.20
546.16	43817.17
546.33	43901.43
546.50	43564.39
546.67	43611.20
546.83	43784.40
547.00	43723.55
547.17	43742.27
547.34	43491.83
547.50	44046.54
547.67	44374.22
547.84	44264.21
548.00	44430.39
548.17	44404.64
548.34	44196.34
548.51	44577.84
548.67	44437.41
548.84	44531.03
549.01	44519.33
549.18	44219.74
549.34	44147.18
549.51	44748.70
549.68	44617.63
549.84	44538.05
550.01	44451.45
550.18	44343.79
550.34	44240.81
550.51	44292.30
550.68	44243.15
550.84	44067.61
551.01	44882.11
551.18	44924.24
551.34	44706.57
551.51	44685.51
551.68	44683.17
551.84	44924.24
552.01	44889.13
552.18	44722.96
552.34	44596.57
552.51	44664.44
552.68	44935.95
552.84	45453.20
553.01	44985.10
553.18	45146.59
553.34	44685.51
553.51	44554.44
553.67	45141.91
553.84	45329.16
554.01	45095.10
554.17	45860.46
554.34	45373.63
554.51	45198.09
554.67	45572.57
554.84	45354.90
555.00	45219.15
555.17	45425.12
555.33	45570.23
555.50	45502.35
555.67	45134.89
555.83	45141.91
556.00	45525.76
556.16	45645.13
556.33	45595.98
556.50	45682.58
556.66	45598.32
556.83	45544.48
556.99	45883.86
557.16	45649.81
557.32	45736.41
557.49	45584.27
557.65	45844.07
557.82	45521.08
557.98	45684.92
558.15	46085.15
558.32	45640.45
558.48	45535.12
558.65	45429.80
558.81	45851.09
558.98	45855.78
559.14	45591.30
559.31	45612.36
559.47	45677.90
559.64	46082.81
559.80	46052.38
559.97	45925.99
560.13	45755.13
560.30	45579.59
560.46	46181.11
560.63	46267.71
560.79	45902.59
560.96	46513.47
561.12	46031.32
561.29	45806.62
561.45	46012.59
561.61	46153.02
561.78	45780.88
561.94	45886.20
562.11	46146.00
562.27	45923.65
562.44	45860.46
562.60	46007.91
562.77	46188.13
562.93	45902.59
563.10	46089.83
563.26	46272.39
563.42	46108.55
563.59	45773.86
563.75	45759.81
563.92	46012.59
564.08	46466.66
564.24	46267.71
564.41	46415.16
564.57	46621.13
564.74	45914.29
564.90	46040.68
565.07	46522.83
565.23	46518.15
565.39	46216.22
565.56	46117.92
565.72	46108.55
565.88	46305.16
566.05	46286.43
566.21	46492.40
566.38	46368.35
566.54	46382.40
566.70	46639.86
566.87	46918.38
567.03	46756.88
567.19	46742.84
567.36	46539.21
567.52	46567.30
567.68	46560.28
567.85	46410.48
568.01	46625.81
568.17	46153.02
568.34	46314.52
568.50	46335.59
568.66	46391.76
568.83	46494.74
568.99	45890.88
569.15	46103.87
569.32	46176.43
569.48	46424.53
569.64	46590.70
569.81	46108.55
569.97	46515.81
570.13	46005.57
570.30	46138.98
570.46	46028.98
570.62	46288.77
570.78	46330.90
570.95	46307.50
571.11	46684.33
571.27	46164.73
571.43	46763.90
571.60	46274.73
571.76	46138.98
571.92	46536.87
572.09	46438.57
572.25	46382.40
572.41	46504.10
572.57	46623.47
572.74	46878.59
572.90	46983.91
573.06	46990.94
573.22	46679.64
573.38	46391.76
573.55	46518.15
573.71	46632.83
573.87	46801.35
574.03	46302.82
574.20	46567.30
574.36	46506.44
574.52	46492.40
574.68	46405.80
574.84	46724.11
575.01	46494.74
575.17	47089.24
575.33	46424.53
575.49	46564.96
575.65	46878.59
575.82	46876.25
575.98	46527.51
576.14	46815.40
576.30	46920.72
576.46	46703.05
576.62	46745.18
576.79	46478.36
576.95	46403.46
577.11	46387.08
577.27	46810.71
577.43	46330.90
577.59	46604.75
577.75	46417.50
577.92	46064.08
578.08	46033.66
578.24	46553.26
578.40	46557.94
578.56	46148.34
578.72	46457.29
578.88	46972.21
579.04	46670.28
579.21	46663.26
579.37	46918.38
579.53	47009.66
579.69	46206.86
579.85	46621.13
580.01	46983.91
580.17	46515.81
580.33	46674.96
580.49	46539.21
580.65	46728.80
580.82	46979.23
580.98	46513.47
581.14	46028.98
581.30	47033.07
581.46	46726.46
581.62	46909.02
581.78	46693.69
581.94	46817.74
582.10	46838.80
582.26	46539.21
582.42	46368.35
582.58	46824.76
582.74	46822.42
582.90	46862.21
583.06	46897.31
583.22	46813.05
583.38	47292.86
583.54	46686.67
583.70	46899.65
583.86	46529.85
584.02	46595.38
584.18	46508.79
584.34	46494.74
584.50	47157.11
584.66	46611.77
584.82	46366.01
584.98	47255.42
585.14	46817.74
585.30	46749.86
585.46	47143.07
585.62	46469.00
585.78	46969.87
585.94	46497.08
586.10	46501.76
586.26	46403.46
586.42	46803.69
586.58	46810.71
586.74	46857.52
586.90	46471.34
587.06	46981.57
587.22	46979.23
587.38	46852.84
587.54	46656.24
587.70	46754.54
587.86	46499.42
588.02	46916.04
588.18	46869.23
588.34	46616.45
588.49	46040.68
588.65	45998.55
588.81	45813.65
588.97	46344.95
589.13	45890.88
589.29	46351.97
589.45	46534.53
589.61	46323.88
589.77	46845.82
589.93	47089.24
590.08	46880.93
590.24	47068.17
590.40	46822.42
590.56	47042.43
590.72	46700.71
590.88	46681.98
591.04	46983.91
591.20	47182.86
591.35	47182.86
591.51	47061.15
591.67	46955.83
591.83	47079.88
591.99	46918.38
592.15	47000.30
592.31	47103.28
592.46	46871.57
592.62	46773.27
592.78	46761.56
592.94	47185.20
593.10	46745.18
593.26	47012.00
593.41	46681.98
593.57	46869.23
593.73	46897.31
593.89	47049.45
594.05	47044.77
594.20	47079.88
594.36	46997.96
594.52	46595.38
594.68	46836.46
594.84	46721.77
594.99	46904.34
595.15	46759.22
595.31	47009.66
595.47	47107.96
595.62	46862.21
595.78	47147.75
595.94	47047.11
596.10	47166.48
596.25	47276.48
596.41	47248.39
596.57	46789.65
596.73	47044.77
596.88	46176.43
597.04	47016.68
597.20	47037.75
597.36	46595.38
597.51	46911.36
597.67	46983.91
597.83	47157.11
597.99	47065.83
598.14	46873.91
598.30	47030.72
598.46	46623.47
598.61	46813.05
598.77	46426.87
598.93	46745.18
599.09	46988.60
599.24	47597.13
599.40	47077.54
599.56	46600.07
599.71	47000.30
599.87	47068.17
600.03	47054.13
600.18	47033.07
600.34	46925.40
600.50	47332.65
600.65	46789.65
600.81	47271.80
600.97	47229.67
601.12	46738.16
601.28	47114.98
601.44	46937.10
601.59	46890.29
601.75	46588.36
601.91	46714.75
602.06	46625.81
602.22	47000.30
602.37	46944.12
602.53	47409.89
602.69	47234.35
602.84	46483.04
603.00	46993.28
603.16	46852.84
603.31	46951.15
603.47	47079.88
603.62	46813.05
603.78	46937.10
603.94	46749.86
604.09	47161.79
604.25	46873.91
604.40	46710.07
604.56	46890.29
604.71	47246.05
604.87	46885.61
605.03	46754.54
605.18	46728.80
605.34	46930.08
605.49	46646.88
605.65	46756.88
605.80	46326.22
605.96	46962.85
606.12	46749.86
606.27	47030.72
606.43	46724.11
606.58	46988.60
606.74	46202.18
606.89	46871.57
607.05	46576.66
607.20	46246.65
607.36	46789.65
607.51	46756.88
607.67	46515.81
607.82	46478.36
607.98	46614.11
608.13	46536.87
608.29	46667.94
608.44	46398.78
608.60	46763.90
608.75	46494.74
608.91	46167.07
609.06	46436.23
609.22	46604.75
609.37	46127.28
609.53	46258.35
609.68	46752.20
609.84	46138.98
609.99	46342.61
610.15	45900.25
610.30	46284.09
610.46	45738.75
610.61	45928.33
610.76	46246.65
610.92	46216.22
611.07	46141.32
611.23	45909.61
611.38	46223.24
611.54	46085.15
611.69	45944.72
611.84	45839.39
612.00	45996.21
612.15	45542.14
612.31	46155.36
612.46	45666.19
612.62	46136.64
612.77	45986.85
612.92	46382.40
613.08	46272.39
613.23	46134.30
613.39	45968.12
613.54	45652.15
613.69	46064.08
613.85	45610.02
614.00	45717.68
614.15	45844.07
614.31	46117.92
614.46	46138.98
614.62	45872.16
614.77	45607.68
614.92	46012.59
615.08	45521.08
615.23	45270.64
615.38	45518.74
615.54	45380.65
615.69	45483.63
615.84	45530.44
616.00	45689.60
616.15	45055.31
616.30	45478.95
616.46	45495.33
616.61	45233.19
616.76	45406.39
616.92	44811.90
617.07	45380.65
617.22	45099.78
617.37	45099.78
617.53	45317.45
617.68	45570.23
617.83	45411.07
617.99	45368.94
618.14	45052.97
618.29	45347.88
618.45	44807.22
618.60	44589.55
618.75	45422.78
618.90	44781.47
619.06	44886.79
619.21	45069.36
619.36	45420.44
619.51	45340.86
619.67	44816.58
619.82	45268.30
619.97	45127.87
620.12	44886.79
620.28	44318.04
620.43	44645.72
620.58	44804.88
620.73	44678.49
620.89	44945.31
621.04	44367.20
621.19	45055.31
621.34	44900.84
621.49	44697.21
621.65	44638.70
621.80	44814.24
621.95	44465.50
622.10	44364.85
622.25	44168.25
622.41	44669.12
622.56	44048.88
622.71	44718.28
622.86	44636.36
623.01	44208.04
623.16	44538.05
623.32	44002.07
623.47	44201.02
623.62	44289.96
623.77	44376.56
623.92	44165.91
624.07	44395.28
624.23	43606.52
624.38	44006.75
624.53	43679.08
624.68	43704.82
624.83	44013.77
624.98	43674.40
625.13	43421.62
625.29	43683.76
625.44	43782.06
625.59	43351.40
625.74	43302.25
625.89	43592.48
626.04	43643.97
626.19	43405.23
626.34	43641.63
626.49	43863.98
626.65	43695.46
626.80	43817.17
626.95	43601.84
627.10	43725.89
627.25	43690.78
627.40	42916.06
627.55	42911.38
627.70	43164.16
627.85	43292.89
628.00	43360.76
628.15	43180.54
628.30	42677.33
628.45	43304.59
628.60	43281.19
628.76	42958.19
628.91	43627.59
629.06	43271.82
629.21	42756.91
629.36	43007.34
629.51	43157.14
629.66	42677.33
629.81	42672.65
629.96	42820.10
630.11	42700.73
630.26	43192.25
630.41	43194.59
630.56	42948.83
630.71	42946.49
630.86	42693.71
631.01	42763.93
631.16	42485.40
631.31	42740.52
631.46	42660.94
631.61	42548.60
631.76	42773.29
631.91	42412.85
632.06	42920.74
632.21	42752.23
632.36	42817.76
632.51	42728.82
632.66	42333.27
632.81	42349.65
632.96	42103.90
633.10	42384.76
633.25	42323.91
633.40	42319.23
633.55	42784.99
633.70	42225.60
633.85	41851.12
634.00	42581.37
634.15	42394.12
634.30	42471.36
634.45	41998.57
634.60	42099.22
634.75	41645.15
634.90	42384.76
635.05	41787.92
635.19	41368.97
635.34	41818.35
635.49	41825.37
635.64	42141.35
635.79	42139.00
635.94	42082.83
636.09	41516.42
636.24	41883.89
636.39	41490.68
636.53	41455.57
636.68	41816.01
636.83	41467.27
636.98	41792.61
637.13	41296.41
637.28	42120.28
637.43	42003.25
637.57	41937.72
637.72	41729.41
637.87	41500.04
638.02	41785.58
638.17	41680.26
638.32	41612.38
638.46	41390.03
638.61	41532.81
638.76	41139.60
638.91	41303.43
639.06	41139.60
639.20	41380.67
639.35	41647.49
639.50	41385.35
639.65	41698.98
639.80	41371.31
639.94	40921.93
640.09	41137.26
640.24	41060.02
640.39	40758.09
640.54	40964.06
640.68	41015.55
640.83	40982.78
640.98	40999.16
641.13	40690.21
641.27	41368.97
641.42	40788.52
641.57	40690.21
641.72	40636.38
641.86	40315.73
642.01	40554.46
642.16	40650.42
642.31	40395.31
642.45	40650.42
642.60	40460.84
642.75	40727.66
642.90	40446.80
643.04	40629.36
643.19	40271.26
643.34	40222.11
643.48	40044.23
643.63	40547.44
643.78	40357.86
643.93	40175.30
644.07	40142.53
644.22	40418.71
644.37	40062.95
644.51	40243.17
644.66	40444.46
644.81	40437.44
644.95	40112.10
645.10	40442.12
645.25	40254.87
645.39	40259.55
645.54	40477.22
645.69	40411.69
645.83	39929.54
645.98	39943.58
646.13	40137.85
646.27	40165.93
646.42	40161.25
646.57	40187.00
646.71	40318.07
646.86	39866.34
647.00	39835.92
647.15	40067.63
647.30	39548.03
647.44	39470.79
647.59	39414.62
647.74	39318.66
647.88	39819.53
648.03	40023.16
648.17	39124.40
648.32	39625.27
648.47	39400.58
648.61	39555.05
648.76	39922.52
648.90	39718.89
649.05	39545.69
649.20	39178.23
649.34	39246.10
649.49	39000.35
649.63	39138.44
649.78	39037.80
649.92	39377.17
650.07	39611.23
650.21	39318.66
650.36	39548.03
650.51	39131.42
650.65	39835.92
650.80	39824.22
650.94	39468.45
651.09	39414.62
651.23	39225.04
651.38	39089.29
651.52	38890.34
651.67	38810.76
651.81	38880.98
651.96	38972.26
652.10	39473.13
652.25	39215.68
652.39	38490.11
652.54	38969.92
652.68	38897.36
652.83	39360.79
652.97	39110.35
653.12	38630.54
653.26	38337.98
653.41	38780.34
653.55	38880.98
653.70	38714.80
653.84	38766.29
653.99	38602.46
654.13	38185.84
654.27	38288.82
654.42	38333.29
654.56	38536.92
654.71	38520.54
654.85	38656.29
655.00	38197.54
655.14	38333.29
655.29	38340.32
655.43	38387.13
655.57	38333.29
655.72	37404.10
655.86	37607.73
656.01	37682.62
656.15	37848.80
656.30	37785.61
656.44	37926.04
656.58	38038.39
656.73	37488.36
656.87	37792.63
657.01	37972.85
657.16	37921.36
657.30	37614.75
657.45	37518.79
657.59	37710.71
657.73	37397.08
657.88	37993.92
658.02	37766.88
658.16	38045.41
658.31	38270.10
658.45	37780.93
658.60	37570.28
658.74	37806.67
658.88	37567.94
659.03	37181.75
659.17	37380.70
659.31	37422.83
659.46	36825.99
659.60	37401.76
659.74	37160.69
659.89	37408.78
660.03	36737.05
660.17	37806.67
660.32	36940.68
660.46	37441.55
660.60	37134.94
660.74	37046.00
660.89	37043.66
661.03	36863.44
661.17	36671.51
661.32	36627.04
661.46	36664.49
661.60	36561.51
661.74	36613.00
661.89	36423.42
662.03	36629.38
662.17	36282.98
662.31	36325.11
662.46	36767.48
662.60	36437.46
662.74	36290.01
662.88	36512.36
663.03	35997.44
663.17	35747.00
663.31	35952.97
663.45	36133.19
663.60	36151.91
663.74	36210.43
663.88	35835.94
664.02	35672.10
664.17	35920.20
664.31	35728.28
664.45	35718.92
664.59	35732.96
664.73	35718.92
664.88	35742.32
665.02	35098.67
665.16	35377.20
665.30	35426.35
665.44	35339.75
665.59	35274.21
665.73	35164.21
665.87	34808.45
666.01	35091.65
666.15	35206.34
666.29	35117.40
666.44	35236.77
666.58	34944.20
666.72	35131.44
666.86	35084.63
667.00	34869.30
667.14	34682.06
667.28	34476.09
667.43	34684.40
667.57	34778.02
667.71	34349.70
667.85	34787.38
667.99	34834.19
668.13	34401.19
668.27	34370.77
668.41	34314.59
668.56	33954.15
668.70	34560.35
668.84	34242.04
668.98	33804.36
669.12	33802.02
669.26	33689.67
669.40	33778.61
669.54	33357.32
669.68	33624.14
669.82	33886.28
669.96	33254.33
670.10	33209.86
670.25	33464.98
670.39	33542.22
670.53	32959.42
670.67	33127.94
670.81	34061.82
670.95	33434.55
671.09	33027.30
671.23	33170.07
671.37	33151.35
671.51	32781.54
671.65	32921.98
671.79	32584.94
671.93	32732.39
672.07	32816.65
672.21	32896.23
672.35	32563.87
672.49	32409.40
672.63	32708.99
672.77	32397.70
672.91	32594.30
673.05	32325.14
673.19	32463.23
673.33	32065.34
673.47	32034.91
673.61	32006.83
673.75	31952.99
673.89	31655.75
674.03	31428.71
674.17	31929.59
674.31	31417.01
674.45	31536.38
674.59	31365.52
674.73	32063.00
674.87	31592.55
675.01	31168.91
675.15	31218.07
675.29	31292.96
675.43	31197.00
675.56	31288.28
675.70	30864.64
675.84	30988.69
675.98	30012.69
676.12	30932.52
676.26	30473.78
676.40	30733.57
676.54	31098.70
676.68	30768.68
676.82	30143.76
676.96	30679.74
677.10	30630.59
677.23	30211.64
677.37	30059.50
677.51	29851.19
677.65	29771.61
677.79	29640.54
677.93	29378.40
678.07	29343.30
678.21	28875.19
678.34	29376.06
678.48	29303.51
678.62	29357.34
678.76	28526.45
678.90	28575.60
679.04	28849.44
679.18	28479.64
679.31	28350.91
679.45	28283.03
679.59	28484.32
679.73	28369.63
679.87	28418.78
680.00	28400.06
680.14	28133.24
680.28	28542.83
680.42	28453.89
680.56	27908.55
680.70	27978.76
680.83	28002.17
680.97	27667.47
681.11	27793.86
681.25	27365.54
681.39	27311.71
681.52	27847.69
681.66	27452.14
681.80	27292.99
681.94	27222.77
682.07	27297.67
682.21	27058.93
682.35	26827.22
682.49	27267.24
682.62	26841.26
682.76	26747.64
682.90	26771.05
683.04	26232.72
683.17	26232.72
683.31	26019.74
683.45	26223.36
683.59	25970.58
683.72	25853.56
683.86	26031.44
684.00	26038.46
684.13	26099.31
684.27	25666.31
684.41	25736.53
684.55	25439.28
684.68	25336.30
684.82	25139.69
684.96	25369.07
685.09	25413.54
685.23	24755.85
685.37	25006.28
685.50	24905.64
685.64	24762.87
685.78	24716.06
685.91	24655.20
686.05	24662.22
686.19	24257.31
686.32	24123.90
686.46	23754.10
686.60	23431.10
686.73	23805.59
686.87	23695.58
687.01	23276.63
687.14	23688.56
687.28	23110.45
687.42	23239.18
687.55	23311.74
687.69	23601.96
687.82	23269.61
687.96	23391.31
688.10	22951.29
688.23	22927.89
688.37	22796.82
688.50	22965.34
688.64	22515.95
688.78	22602.55
688.91	22593.19
689.05	22609.58
689.18	22642.34
689.32	22249.13
689.46	22445.74
689.59	22305.31
689.73	22281.90
689.86	22366.16
690.00	22136.79
690.13	22202.32
690.27	21963.59
690.41	22003.38
690.54	21523.57
690.68	21387.82
690.81	21509.52
690.95	21270.79
691.08	21563.36
691.22	21032.05
691.35	21465.05
691.49	21556.33
691.62	21135.04
691.76	21408.88
691.89	20936.09
692.03	20912.69
692.16	20985.24
692.30	20643.52
692.43	20503.09
692.57	20163.72
692.70	20472.67
692.84	20112.22
692.97	19796.25
693.11	20381.38
693.24	20236.27
693.38	19906.26
693.51	19924.98
693.65	19833.70
693.78	19894.55
693.92	19702.63
694.05	19508.37
694.19	19866.47
694.32	19573.90
694.45	19304.74
694.59	19098.77
694.72	19143.24
694.86	19318.78
694.99	18958.34
695.13	18635.35
695.26	18981.74
695.39	18810.89
695.53	18939.62
695.66	18998.13
695.80	18878.76
695.93	18654.07
696.07	18562.79
696.20	18160.22
696.33	18251.50
696.47	18363.84
696.60	18703.22
696.73	18080.64
696.87	17968.29
697.00	18293.63
697.14	18101.70
697.27	17834.88
697.40	18113.41
697.54	17591.47
697.67	17467.42
697.80	17380.82
697.94	17535.29
698.07	17053.14
698.21	16877.60
698.34	17256.77
698.47	17226.34
698.61	16926.75
698.74	16531.20
698.87	16868.24
699.01	16554.61
699.14	16769.94
699.27	16718.45
699.40	16425.88
699.54	16407.16
699.67	16479.71
699.80	16294.81
699.94	16229.27
700.07	16404.81
700.20	16093.52
700.34	16180.12
700.47	16236.30
700.60	16404.81
700.73	16437.58
700.87	16084.16
701.00	15756.49
701.13	15697.97
701.26	15712.02
701.40	15407.75
701.53	15510.73
701.66	15452.22
701.79	15386.68
701.93	15026.24
702.06	15178.37
702.19	15431.15
702.32	15222.84
702.46	15119.86
702.59	14881.13
702.72	15150.29
702.85	14977.09
702.99	15096.46
703.12	14871.76
703.25	14759.42
703.38	14771.12
703.51	14242.16
703.65	14342.80
703.78	14478.55
703.91	14618.99
704.04	14284.29
704.17	14335.78
704.31	14314.72
704.44	14162.58
704.57	14185.99
704.70	13970.66
704.83	13916.83
704.96	14122.79
705.10	13926.19
705.23	13900.44
>>>>>End Processed Spectral Data<<<<<
