SpectraSuite Data File
++++++++++++++++++++++++++++++++++++
Date: Fri Oct 25 10:43:23 EDT 2013
User: price-jones
Dark Spectrum Present: No
Reference Spectrum Present: No
Number of Sampled Component Spectra: 1
Spectrometers: USB2+H05261
Integration Time (usec): 100000 (USB2+H05261)
Spectra Averaged: 1 (USB2+H05261)
Boxcar Smoothing: 0 (USB2+H05261)
Correct for Electrical Dark: No (USB2+H05261)
Strobe/Lamp Enabled: No (USB2+H05261)
Correct for Detector Non-linearity: No (USB2+H05261)
Correct for Stray Light: No (USB2+H05261)
Number of Pixels in Processed Spectrum: 2048
>>>>>Begin Processed Spectral Data<<<<<
365.73	126.39
365.92	126.39
366.12	126.39
366.32	93.62
366.52	7.02
366.72	0.00
366.91	18.72
367.11	4.68
367.31	7.02
367.51	0.00
367.70	14.04
367.90	53.83
368.10	9.36
368.30	65.54
368.49	0.00
368.69	44.47
368.89	84.26
369.09	28.09
369.28	18.72
369.48	30.43
369.68	44.47
369.87	70.22
370.07	88.94
370.27	67.88
370.47	196.60
370.66	390.87
370.86	409.59
371.06	444.70
371.25	461.09
371.45	496.19
371.65	526.62
371.84	491.51
372.04	484.49
372.24	479.81
372.44	458.74
372.63	526.62
372.83	503.22
373.03	538.32
373.22	554.71
373.42	442.36
373.62	449.38
373.81	526.62
374.01	655.35
374.21	582.79
374.40	512.58
374.60	510.24
374.79	557.05
374.99	587.47
375.19	631.94
375.38	580.45
375.58	578.11
375.78	575.77
375.97	594.50
376.17	688.12
376.37	592.16
376.56	587.47
376.76	610.88
376.95	610.88
377.15	592.16
377.35	624.92
377.54	664.71
377.74	580.45
377.93	608.54
378.13	723.23
378.33	664.71
378.52	608.54
378.72	667.05
378.91	608.54
379.11	727.91
379.31	638.97
379.50	741.95
379.70	732.59
379.89	645.99
380.09	641.31
380.28	662.37
380.48	643.65
380.68	709.18
380.87	727.91
381.07	767.70
381.26	732.59
381.46	678.76
381.65	802.80
381.85	795.78
382.04	662.37
382.24	683.44
382.43	739.61
382.63	697.48
382.83	805.14
383.02	739.61
383.22	681.10
383.41	706.84
383.61	727.91
383.80	779.40
384.00	807.48
384.19	748.97
384.39	786.42
384.58	772.38
384.78	851.96
384.97	812.17
385.17	791.10
385.36	816.85
385.56	858.98
385.75	791.10
385.95	741.95
386.14	786.42
386.34	779.40
386.53	870.68
386.72	809.83
386.92	891.74
387.11	814.51
387.31	922.17
387.50	875.36
387.70	887.06
387.89	950.26
388.09	922.17
388.28	819.19
388.48	875.36
388.67	915.15
388.86	929.19
389.06	936.21
389.25	936.21
389.45	945.58
389.64	1046.22
389.84	1022.81
390.03	954.94
390.22	966.64
390.42	978.34
390.61	959.62
390.81	1076.65
391.00	1090.69
391.19	1062.60
391.39	1057.92
391.58	1006.43
391.78	1032.18
391.97	1043.88
392.16	1064.94
392.36	987.71
392.55	994.73
392.75	999.41
392.94	924.51
393.13	936.21
393.33	1060.26
393.52	1048.56
393.71	1118.78
393.91	1086.01
394.10	1022.81
394.29	1111.75
394.49	1163.25
394.68	1193.67
394.88	1203.04
395.07	1231.12
395.26	1242.82
395.46	1268.57
395.65	1277.93
395.84	1345.81
396.04	1221.76
396.23	1191.33
396.42	1224.10
396.62	1217.08
396.81	1231.12
397.00	1160.91
397.19	1256.87
397.39	1235.80
397.58	1385.60
397.77	1341.13
397.97	1383.26
398.16	1376.24
398.35	1451.13
398.55	1338.79
398.74	1399.64
398.93	1547.09
399.12	1549.43
399.32	1472.20
399.51	1568.16
399.70	1500.28
399.90	1504.96
400.09	1507.30
400.28	1682.85
400.47	1600.93
400.67	1586.88
400.86	1717.95
401.05	1701.57
401.24	1816.26
401.44	1685.19
401.63	1624.33
401.82	1715.61
402.01	1760.08
402.21	1687.53
402.40	1792.85
402.59	1771.79
402.78	1802.21
402.97	1771.79
403.17	1820.94
403.36	1874.77
403.55	1783.49
403.74	1872.43
403.93	1905.20
404.13	2022.22
404.32	1851.36
404.51	1980.09
404.70	1940.30
404.89	1966.05
405.09	2010.52
405.28	1928.60
405.47	1994.14
405.66	2012.86
405.85	1980.09
406.05	1996.48
406.24	1956.69
406.43	1968.39
406.62	2073.71
406.81	2139.25
407.00	2062.01
407.20	1954.35
407.39	2045.63
407.58	2066.69
407.77	2160.31
407.96	2179.04
408.15	2275.00
408.34	2115.84
408.54	2300.75
408.73	2293.72
408.92	2321.81
409.11	2377.98
409.30	2300.75
409.49	2284.36
409.68	2244.57
409.87	2298.41
410.07	2354.58
410.26	2275.00
410.45	2495.01
410.64	2483.31
410.83	2420.11
411.02	2495.01
411.21	2530.12
411.40	2544.16
411.59	2647.15
411.78	2682.25
411.98	2640.12
412.17	2705.66
412.36	2649.49
412.55	2740.77
412.74	2649.49
412.93	2682.25
413.12	2778.22
413.31	2843.75
413.50	2836.73
413.69	2820.35
413.88	2923.33
414.07	2883.54
414.26	3061.42
414.45	2993.55
414.64	3040.36
414.83	3159.72
415.02	3115.25
415.22	3166.74
415.41	3157.38
415.60	3138.66
415.79	3248.66
415.98	3269.73
416.17	3185.47
416.36	3332.92
416.55	3222.92
416.74	3260.37
416.93	3148.02
417.12	3246.32
417.31	3363.35
417.50	3307.18
417.69	3438.25
417.88	3536.55
418.07	3440.59
418.26	3468.67
418.45	3557.61
418.64	3747.20
418.83	3618.47
419.02	3569.32
419.21	3667.62
419.39	3576.34
419.58	3613.79
419.77	3421.86
419.96	3763.58
420.15	3623.15
420.34	3623.15
420.53	3721.45
420.72	3875.93
420.91	3873.59
421.10	3861.88
421.29	3868.91
421.48	3899.33
421.67	3866.56
421.86	3854.86
422.05	3702.73
422.24	3808.05
422.43	3744.86
422.61	3857.20
422.80	3927.42
422.99	3906.35
423.18	3861.88
423.37	4037.42
423.56	3873.59
423.75	3997.64
423.94	3946.14
424.13	3566.98
424.32	3779.97
424.50	4079.55
424.69	3852.52
424.88	4028.06
425.07	3981.25
425.26	4023.38
425.45	3925.08
425.64	3969.55
425.83	3964.87
426.01	3946.14
426.20	4119.34
426.39	3969.55
426.58	3904.01
426.77	3831.46
426.96	3932.10
427.15	3971.89
427.33	4042.11
427.52	4091.26
427.71	4175.52
427.90	3920.40
428.09	4105.30
428.28	4152.11
428.46	4131.05
428.65	4259.78
428.84	4189.56
429.03	4325.31
429.22	4077.21
429.40	4315.95
429.59	4161.47
429.78	3899.33
429.97	3974.23
430.16	3971.89
430.34	4035.08
430.53	4266.80
430.72	4205.94
430.91	4210.62
431.10	4219.99
431.28	4440.00
431.47	4575.75
431.66	4704.48
431.85	4465.74
432.03	4561.70
432.22	4699.80
432.41	4573.41
432.60	4779.37
432.79	4737.24
432.97	4882.36
433.16	4723.20
433.35	4531.28
433.54	4629.58
433.72	4622.56
433.91	4711.50
434.10	4695.11
434.28	4648.30
434.47	4795.76
434.66	4954.91
434.85	4954.91
435.03	4924.49
435.22	4961.94
435.41	5081.30
435.59	5158.54
435.78	5240.46
435.97	5006.41
436.16	5177.26
436.34	5078.96
436.53	5090.67
436.72	5029.81
436.90	5100.03
437.09	5207.69
437.28	5191.31
437.46	5275.57
437.65	5231.10
437.84	5338.76
438.02	5163.22
438.21	5195.99
438.40	5083.64
438.58	5350.46
438.77	5383.23
438.96	5296.63
439.14	5633.67
439.33	5605.58
439.52	5731.97
439.70	5748.36
439.89	5540.05
440.08	5598.56
440.26	5526.00
440.45	5621.97
440.63	5682.82
440.82	6150.93
441.01	5968.37
441.19	5987.09
441.38	6080.71
441.57	6052.63
441.75	6171.99
441.94	6237.53
442.12	6296.04
442.31	6256.25
442.50	6171.99
442.68	6310.08
442.87	6237.53
443.05	6361.58
443.24	6534.78
443.43	6303.06
443.61	6384.98
443.80	6516.05
443.98	6349.87
444.17	6221.14
444.35	6612.01
444.54	6597.97
444.73	6438.81
444.91	6548.82
445.10	6572.22
445.28	6380.30
445.47	6436.47
445.65	6230.51
445.84	6525.41
446.02	6729.04
446.21	6494.99
446.39	6658.82
446.58	6623.72
446.77	6640.10
446.95	6705.63
447.14	6602.65
447.32	6799.26
447.51	6560.52
447.69	6703.29
447.88	6731.38
448.06	6654.14
448.25	6738.40
448.43	6810.96
448.62	6696.27
448.80	6733.72
448.99	6775.85
449.17	6813.30
449.36	6853.09
449.54	6946.71
449.73	7225.23
449.91	7185.44
450.10	6899.90
450.28	7178.42
450.46	7286.09
450.65	7143.32
450.83	7199.49
451.02	7094.16
451.20	7281.41
451.39	7255.66
451.57	7143.32
451.76	7183.10
451.94	7232.26
452.13	7222.89
452.31	7232.26
452.49	7019.27
452.68	7239.28
452.86	7091.82
453.05	7171.40
453.23	7410.14
453.42	7314.17
453.60	7316.51
453.78	7588.02
453.97	7426.52
454.15	7246.30
454.34	7328.22
454.52	7564.61
454.70	7438.22
454.89	7588.02
455.07	7475.67
455.26	7627.81
455.44	7660.57
455.62	7665.25
455.81	7728.45
455.99	7709.72
456.17	7829.09
456.36	7810.37
456.54	7871.22
456.73	8009.31
456.91	8257.41
457.09	8091.23
457.28	8428.27
457.46	8091.23
457.64	8189.53
457.83	8161.45
458.01	7925.05
458.19	8133.36
458.38	8086.55
458.56	8409.54
458.74	8119.32
458.93	8198.90
459.11	8353.37
459.29	8039.74
459.48	8311.24
459.66	8535.93
459.84	8444.65
460.03	8489.12
460.21	8512.53
460.39	8547.64
460.57	8512.53
460.76	8461.04
460.94	8566.36
461.12	8575.72
461.31	8744.24
461.49	8720.84
461.67	8636.58
461.85	8887.01
462.04	8748.92
462.22	9338.74
462.40	8849.57
462.59	8887.01
462.77	8802.75
462.95	8978.30
463.13	8905.74
463.32	8725.52
463.50	9090.64
463.68	8973.61
463.86	9057.87
464.05	8933.82
464.23	8814.46
464.41	8901.06
464.59	8781.69
464.78	9167.88
464.96	9081.28
465.14	9135.11
465.32	9109.36
465.50	9263.84
465.69	9376.19
465.87	9268.52
466.05	9261.50
466.23	9275.54
466.41	9116.39
466.60	9497.89
466.78	9184.26
466.96	9186.60
467.14	9151.49
467.32	9205.33
467.51	9369.16
467.69	9205.33
467.87	9446.40
468.05	9563.43
468.23	9434.70
468.41	9516.62
468.60	9273.20
468.78	9673.43
468.96	9563.43
469.14	9624.28
469.32	9678.12
469.50	9579.81
469.69	9804.50
469.87	9877.06
470.05	9692.16
470.23	9748.33
470.41	9610.24
470.59	10054.94
470.77	9760.03
470.95	9947.28
471.14	10178.99
471.32	9970.68
471.50	10211.76
471.68	10209.42
471.86	10277.29
472.04	10579.22
472.22	10579.22
472.40	9923.87
472.58	10478.58
472.77	10377.94
472.95	10597.95
473.13	10824.98
473.31	10291.34
473.49	10537.09
473.67	10815.62
473.85	10738.38
474.03	10832.00
474.21	10801.57
474.39	10993.50
474.57	10993.50
474.75	11152.65
474.93	11323.51
475.12	11208.83
475.30	11007.54
475.48	11346.92
475.66	11323.51
475.84	11225.21
476.02	11571.61
476.20	11339.90
476.38	11679.27
476.56	11716.72
476.74	11854.81
476.92	12009.29
477.10	11903.96
477.28	11847.79
477.46	12095.89
477.64	12217.60
477.82	12299.52
478.00	12753.58
478.18	12329.94
478.36	12613.15
478.54	12489.10
478.72	12816.77
478.90	13046.15
479.08	13125.72
479.26	13107.00
479.44	13116.36
479.62	13214.66
479.80	13142.11
479.98	13401.91
480.16	13310.63
480.34	13455.74
480.52	13944.91
480.70	13795.12
480.88	13832.57
481.06	13914.48
481.24	13958.96
481.41	14193.01
481.59	14193.01
481.77	14483.24
481.95	14530.05
482.13	14841.34
482.31	14562.81
482.49	14991.13
482.67	14808.57
482.85	15056.67
483.03	14977.09
483.21	15222.84
483.39	15506.05
483.57	15297.74
483.74	15295.40
483.92	15609.03
484.10	15499.03
484.28	15807.98
484.46	16175.44
484.64	16135.65
484.82	16100.55
485.00	16353.32
485.18	16421.20
485.35	16446.94
485.53	15927.35
485.71	16166.08
485.89	16313.53
486.07	16116.93
486.25	16669.30
486.43	16744.19
486.61	16760.58
486.78	17116.34
486.96	17390.18
487.14	17713.17
487.32	17930.84
487.50	17745.94
487.68	18101.70
487.85	17989.36
488.03	18363.84
488.21	18223.41
488.39	18202.35
488.57	18691.52
488.75	18792.16
488.92	19147.92
489.10	19314.10
489.28	19208.78
489.46	19501.34
489.64	19697.95
489.81	20095.84
489.99	20037.33
490.17	20386.07
490.35	20231.59
490.53	20264.36
490.70	20507.77
490.88	20617.78
491.06	20587.35
491.24	20552.24
491.41	20325.21
491.59	20540.54
491.77	20882.26
491.95	20840.13
492.13	21034.39
492.30	21341.00
492.48	21319.94
492.66	21624.21
492.84	21654.64
493.01	22031.46
493.19	22185.94
493.37	22328.71
493.54	22010.40
493.72	22813.20
493.90	22347.44
494.08	23197.05
494.25	23145.56
494.43	22991.08
494.61	23129.17
494.79	23384.29
494.96	23578.56
495.14	23246.20
495.32	23796.23
495.49	23503.66
495.67	23908.57
495.85	23903.89
496.02	24259.65
496.20	24226.89
496.38	24652.86
496.55	24643.50
496.73	25069.48
496.91	24891.60
497.09	25095.22
497.26	25172.46
497.44	24889.26
497.62	24861.17
497.79	25607.80
497.97	25387.79
498.14	25296.51
498.32	25558.65
498.50	25390.13
498.67	25869.94
498.85	25806.75
499.03	26157.83
499.20	26204.64
499.38	26394.22
499.56	26434.01
499.73	26595.51
499.91	26647.00
500.08	26581.46
500.26	26382.52
500.44	26874.03
500.61	26682.11
500.79	26366.13
500.97	26698.49
501.14	27054.25
501.32	27112.77
501.49	27063.61
501.67	27386.61
501.84	27115.11
502.02	27531.72
502.20	27393.63
502.37	27597.26
502.55	27938.97
502.72	27791.52
502.90	28091.11
503.07	27807.90
503.25	28109.83
503.43	27948.34
503.60	28245.58
503.78	27917.91
503.95	28191.75
504.13	28407.08
504.30	28690.29
504.48	28489.00
504.65	28673.90
504.83	29060.09
505.01	28856.46
505.18	29212.23
505.36	28973.49
505.53	29497.77
505.71	29109.24
505.88	29406.49
506.06	29153.71
506.23	29677.99
506.41	29373.72
506.58	29961.20
506.76	30134.40
506.93	29689.70
507.11	29696.72
507.28	29799.70
507.46	30293.55
507.63	30092.27
507.81	30092.27
507.98	30464.41
508.16	30405.90
508.33	30560.37
508.50	30661.02
508.68	30604.84
508.85	31049.55
509.03	30991.03
509.20	31138.49
509.38	31157.21
509.55	31304.67
509.73	31627.66
509.90	31552.76
510.08	31119.76
510.25	31260.20
510.42	31016.78
510.60	32018.53
510.77	31711.92
510.95	32194.07
511.12	32032.57
511.30	31878.10
511.47	32315.78
511.64	32329.82
511.82	32257.26
511.99	32053.64
512.17	32402.38
512.34	31775.11
512.51	32411.74
512.69	32671.54
512.86	32758.14
513.04	32748.78
513.21	32727.71
513.38	32327.48
513.56	32877.51
513.73	32879.85
513.90	32893.89
514.08	33006.23
514.25	33207.52
514.43	33221.56
514.60	33006.23
514.77	32921.98
514.95	33582.01
515.12	33324.55
515.29	33759.89
515.47	34031.39
515.64	34078.20
515.81	33362.00
515.99	33841.81
516.16	33762.23
516.33	33251.99
516.51	33741.16
516.68	33467.32
516.85	33462.64
517.03	33464.98
517.20	33816.06
517.37	34096.92
517.54	34260.76
517.72	34113.31
517.89	33715.42
518.06	33853.51
518.24	34136.71
518.41	33937.77
518.58	34457.37
518.75	34431.62
518.93	34558.01
519.10	34815.47
519.27	35016.75
519.45	34658.65
519.62	35225.06
519.79	35222.72
519.96	35545.72
520.14	35491.88
520.31	35189.95
520.48	35328.05
520.65	35133.78
520.83	36100.42
521.00	35913.18
521.17	35859.35
521.34	35744.66
521.52	36198.73
521.69	36233.83
521.86	36004.46
522.03	36023.19
522.20	36032.55
522.38	36463.21
522.55	36610.66
522.72	36313.41
522.89	36046.59
523.07	36297.03
523.24	36381.29
523.41	36938.33
523.58	36559.17
523.75	37097.49
523.92	36744.07
524.10	37036.64
524.27	37207.50
524.44	36711.30
524.61	37544.53
524.78	37289.42
524.96	37167.71
525.13	37914.34
525.30	37731.78
525.47	37476.66
525.64	37556.24
525.81	37427.51
525.98	37556.24
526.16	37532.83
526.33	37165.37
526.50	37378.36
526.67	37228.56
526.84	37074.09
527.01	37584.32
527.18	37846.46
527.36	38178.82
527.53	38073.49
527.70	38508.83
527.87	38213.93
528.04	38258.40
528.21	38298.19
528.38	38286.48
528.55	38768.63
528.72	38625.86
528.89	38958.22
529.07	38312.23
529.24	38490.11
529.41	38885.66
529.58	38553.30
529.75	38892.68
529.92	39131.42
530.09	39077.58
530.26	39208.65
530.43	39077.58
530.60	38946.51
530.77	39576.12
530.94	39229.72
531.11	39402.92
531.28	39328.02
531.46	39789.11
531.63	39508.24
531.80	39564.42
531.97	39274.19
532.14	39222.70
532.31	39269.51
532.48	39533.99
532.65	39239.08
532.82	38976.94
532.99	39578.46
533.16	39889.75
533.33	40013.80
533.50	39714.21
533.67	39665.06
533.84	39597.18
534.01	40128.48
534.18	39484.84
534.35	40301.68
534.52	40292.32
534.69	39988.05
534.86	40603.61
535.03	40294.66
535.20	40453.82
535.37	40584.89
535.54	40783.83
535.71	40678.51
535.88	40797.88
536.05	40748.73
536.22	40760.43
536.38	40704.26
536.55	40460.84
536.72	40299.34
536.89	40128.48
537.06	40517.01
537.23	40797.88
537.40	40870.43
537.57	40687.87
537.74	40774.47
537.91	41106.83
538.08	41371.31
538.25	40828.30
538.42	41598.34
538.59	41439.18
538.75	40933.63
538.92	41584.30
539.09	41375.99
539.26	41277.69
539.43	41249.60
539.60	41312.80
539.77	41270.67
539.94	41127.89
540.11	41221.52
540.28	41591.32
540.44	41640.47
540.61	41214.49
540.78	41336.20
540.95	41212.15
541.12	41745.80
541.29	41687.28
541.46	42185.82
541.62	41516.42
541.79	41769.20
541.96	41514.08
542.13	41785.58
542.30	42010.28
542.47	41907.29
542.63	42043.04
542.80	42131.98
542.97	42307.52
543.14	42515.83
543.31	42480.72
543.48	42302.84
543.64	42394.12
543.81	42965.21
543.98	42459.66
544.15	42967.55
544.32	42419.87
544.48	43655.67
544.65	42518.17
544.82	42466.68
544.99	42323.91
545.16	42525.19
545.32	42600.09
545.49	42656.26
545.66	43084.58
545.83	42843.51
546.00	42955.85
546.16	42555.62
546.33	42902.02
546.50	42726.48
546.67	42986.28
546.83	42471.36
547.00	43372.47
547.17	42986.28
547.34	42883.30
547.50	42988.62
547.67	43372.47
547.84	43597.16
548.00	43688.44
548.17	43707.16
548.34	43414.60
548.51	43629.93
548.67	43863.98
548.84	43573.75
549.01	43206.29
549.18	43189.91
549.34	43763.34
549.51	43468.43
549.68	43358.42
549.84	43330.34
550.01	43887.39
550.18	43412.26
550.34	43758.66
550.51	44144.84
550.68	44020.80
550.84	43253.10
551.01	43812.49
551.18	43796.10
551.34	43552.69
551.51	44074.63
551.68	44041.86
551.84	43852.28
552.01	44133.14
552.18	43908.45
552.34	43800.79
552.51	44133.14
552.68	44037.18
552.84	44308.68
553.01	44741.68
553.18	44257.19
553.34	44636.36
553.51	44339.11
553.67	44495.92
553.84	44509.97
554.01	45045.95
554.17	44561.46
554.34	44479.54
554.51	44612.95
554.67	44605.93
554.84	45052.97
555.00	44119.10
555.17	44428.05
555.33	43920.15
555.50	44666.78
555.67	44594.23
555.83	44617.63
556.00	44610.61
556.16	44987.44
556.33	44657.42
556.50	44526.35
556.66	45141.91
556.83	44172.93
556.99	44645.72
557.16	44947.65
557.32	44786.15
557.49	44694.87
557.65	44587.21
557.82	45048.29
557.98	44961.69
558.15	44626.99
558.32	44879.77
558.48	45088.08
558.65	44715.93
558.81	44856.37
558.98	44809.56
559.14	44814.24
559.31	44641.04
559.47	45020.20
559.64	45193.40
559.80	44818.92
559.97	45155.96
560.13	44397.62
560.30	45067.02
560.46	45610.02
560.63	45277.66
560.79	45354.90
560.96	45462.57
561.12	45146.59
561.29	44818.92
561.45	45006.16
561.61	45223.83
561.78	45261.28
561.94	45141.91
562.11	45006.16
562.27	45411.07
562.44	45043.61
562.60	45247.24
562.77	45628.74
562.93	45284.68
563.10	45684.92
563.26	45191.06
563.42	45425.12
563.59	45457.88
563.75	45282.34
563.92	45514.06
564.08	45495.33
564.24	45518.74
564.41	45453.20
564.57	45448.52
564.74	45261.28
564.90	45523.42
565.07	45261.28
565.23	45989.19
565.39	45656.83
565.56	45635.77
565.72	44753.38
565.88	45015.52
566.05	45195.74
566.21	45071.70
566.38	45565.55
566.54	45521.08
566.70	45839.39
566.87	45553.85
567.03	45748.11
567.19	46052.38
567.36	45769.18
567.52	45731.73
567.68	45830.03
567.85	45701.30
568.01	45970.46
568.17	45382.99
568.34	46181.11
568.50	45832.37
568.66	45242.56
568.83	45626.40
568.99	45067.02
569.15	45914.29
569.32	45518.74
569.48	45488.31
569.64	46003.23
569.81	46202.18
569.97	45603.00
570.13	45308.09
570.30	45464.91
570.46	45530.44
570.62	45439.16
570.78	45577.25
570.95	45467.25
571.11	45881.52
571.27	45481.29
571.43	45294.05
571.60	45872.16
571.76	45528.10
571.92	45677.90
572.09	45895.56
572.25	45696.62
572.41	46021.95
572.57	46429.21
572.74	46363.67
572.90	46059.40
573.06	45544.48
573.22	46040.68
573.38	45872.16
573.55	45785.56
573.71	45947.06
573.87	46246.65
574.03	45553.85
574.20	45563.21
574.36	45713.00
574.52	45897.91
574.68	45935.35
574.84	46012.59
575.01	46047.70
575.17	45570.23
575.33	45406.39
575.49	45741.09
575.65	46103.87
575.82	45769.18
575.98	45776.20
576.14	45757.47
576.30	45886.20
576.46	45911.95
576.62	46103.87
576.79	45839.39
576.95	45848.75
577.11	45418.10
577.27	45790.24
577.43	45673.21
577.59	45930.67
577.75	45612.36
577.92	45333.84
578.08	45474.27
578.24	45420.44
578.40	45525.76
578.56	45888.54
578.72	45759.81
578.88	46244.30
579.04	45933.01
579.21	45521.08
579.37	45940.04
579.53	46167.07
579.69	45390.01
579.85	45708.32
580.01	45827.69
580.17	45792.58
580.33	45619.38
580.49	46162.39
580.65	46232.60
580.82	46047.70
580.98	45944.72
581.14	45698.96
581.30	45918.97
581.46	46146.00
581.62	46131.96
581.78	45893.22
581.94	46206.86
582.10	45867.48
582.26	46028.98
582.42	45998.55
582.58	45904.93
582.74	46312.18
582.90	46218.56
583.06	45750.45
583.22	46106.21
583.38	46525.17
583.54	45947.06
583.70	46209.20
583.86	45986.85
584.02	45818.33
584.18	45769.18
584.34	46007.91
584.50	45991.53
584.66	46043.02
584.82	45734.07
584.98	46445.59
585.14	45911.95
585.30	46183.45
585.46	45581.93
585.62	45291.71
585.78	45832.37
585.94	45492.99
586.10	45340.86
586.26	45530.44
586.42	45743.43
586.58	46302.82
586.74	46450.27
586.90	45755.13
587.06	46019.61
587.22	46244.30
587.38	45778.54
587.54	46160.05
587.70	45762.15
587.86	46033.66
588.02	45652.15
588.18	46005.57
588.34	45570.23
588.49	45404.05
588.65	45696.62
588.81	45670.87
588.97	45825.35
589.13	45542.14
589.29	45497.67
589.45	45453.20
589.61	46124.94
589.77	46223.24
589.93	46164.73
590.08	45839.39
590.24	45633.42
590.40	46124.94
590.56	46550.91
590.72	46403.46
590.88	45820.67
591.04	46136.64
591.20	46635.17
591.35	46429.21
591.51	46471.34
591.67	45708.32
591.83	46082.81
591.99	45764.49
592.15	46059.40
592.31	46693.69
592.46	46274.73
592.62	46492.40
592.78	45900.25
592.94	46307.50
593.10	46085.15
593.26	46445.59
593.41	46234.94
593.57	45996.21
593.73	46007.91
593.89	46529.85
594.05	46473.68
594.20	46623.47
594.36	46291.12
594.52	46281.75
594.68	45991.53
594.84	46068.76
594.99	46351.97
595.15	46321.54
595.31	46012.59
595.47	46218.56
595.62	46309.84
595.78	45991.53
595.94	46536.87
596.10	46216.22
596.25	46396.44
596.41	46256.01
596.57	46007.91
596.73	46241.96
596.88	45907.27
597.04	46115.58
597.20	45888.54
597.36	45965.78
597.51	46511.13
597.67	45879.18
597.83	46050.04
597.99	46550.91
598.14	46284.09
598.30	46286.43
598.46	46117.92
598.61	46169.41
598.77	45785.56
598.93	45989.19
599.09	46473.68
599.24	46515.81
599.40	46415.16
599.56	46681.98
599.71	46394.10
599.87	46588.36
600.03	46483.04
600.18	46000.89
600.34	46333.24
600.50	46000.89
600.65	45783.22
600.81	46298.14
600.97	46321.54
601.12	46422.19
601.28	46181.11
601.44	45998.55
601.59	46101.53
601.75	46064.08
601.91	45507.04
602.06	46464.32
602.22	46246.65
602.37	45869.82
602.53	46452.61
602.69	46511.13
602.84	46307.50
603.00	45535.12
603.16	46466.66
603.31	45874.50
603.47	45930.67
603.62	46099.19
603.78	46340.27
603.94	46258.35
604.09	46185.79
604.25	46071.10
604.40	46258.35
604.56	45975.14
604.71	46031.32
604.87	45937.69
605.03	46321.54
605.18	46024.29
605.34	46171.75
605.49	45869.82
605.65	46010.25
605.80	45731.73
605.96	45787.90
606.12	45804.28
606.27	46131.96
606.43	45792.58
606.58	46096.85
606.74	46576.66
606.89	46092.17
607.05	45944.72
607.20	45909.61
607.36	45872.16
607.51	46174.09
607.67	45961.10
607.82	45558.53
607.98	45963.44
608.13	45542.14
608.29	45811.31
608.44	45518.74
608.60	45708.32
608.75	45745.77
608.91	45668.53
609.06	45579.59
609.22	45876.84
609.37	45436.82
609.53	45986.85
609.68	45715.34
609.84	45673.21
609.99	45603.00
610.15	45841.73
610.30	45167.66
610.46	45443.84
610.61	45808.96
610.76	45888.54
610.92	45797.26
611.07	45354.90
611.23	45446.18
611.38	45249.58
611.54	44879.77
611.69	45483.63
611.84	45382.99
612.00	45284.68
612.15	45251.92
612.31	45272.98
612.46	45446.18
612.62	45535.12
612.77	45682.58
612.92	45287.03
613.08	45535.12
613.23	45111.49
613.39	44725.30
613.54	44470.18
613.69	44828.28
613.85	44678.49
614.00	44994.46
614.15	45254.26
614.31	45013.18
614.46	45137.23
614.62	45071.70
614.77	44999.14
614.92	45074.04
615.08	44722.96
615.23	44816.58
615.38	44982.76
615.54	44680.83
615.69	44603.59
615.84	44957.01
616.00	44844.66
616.15	44519.33
616.30	44397.62
616.46	45038.93
616.61	44357.83
616.76	44435.07
616.92	44481.88
617.07	44444.43
617.22	44385.92
617.37	44638.70
617.53	44601.25
617.68	44949.99
617.83	44348.47
617.99	44678.49
618.14	44701.89
618.29	44367.20
618.45	44271.23
618.60	43969.30
618.75	44076.97
618.90	44280.60
619.06	44449.11
619.21	44301.66
619.36	44151.87
619.51	44102.71
619.67	43985.69
619.82	44165.91
619.97	44341.45
620.12	43510.56
620.28	43428.64
620.43	43573.75
620.58	44076.97
620.73	43948.24
620.89	43934.20
621.04	44023.14
621.19	44516.99
621.34	43779.72
621.49	43938.88
621.65	43861.64
621.80	43800.79
621.95	44013.77
622.10	44102.71
622.25	43828.87
622.41	43910.79
622.56	43498.86
622.71	43650.99
622.86	43681.42
623.01	43468.43
623.16	43662.69
623.32	43358.42
623.47	43697.80
623.62	43812.49
623.77	43466.09
623.92	43487.15
624.07	43192.25
624.23	43115.01
624.38	43185.22
624.53	43377.15
624.68	43723.55
624.83	43597.16
624.98	43208.63
625.13	43012.02
625.29	43243.74
625.44	43072.88
625.59	42766.27
625.74	42923.08
625.89	42885.64
626.04	42621.16
626.19	42703.07
626.34	42581.37
626.49	43117.35
626.65	42572.00
626.80	42955.85
626.95	42784.99
627.10	42747.54
627.25	42775.63
627.40	42646.90
627.55	42543.92
627.70	41961.12
627.85	42834.14
628.00	42380.08
628.15	42473.70
628.30	42436.25
628.45	42684.35
628.60	42969.90
628.76	42532.22
628.91	42553.28
629.06	42604.77
629.21	42263.05
629.36	41989.21
629.51	42183.48
629.66	42286.46
629.81	42696.05
629.96	42057.09
630.11	42363.70
630.26	42518.17
630.41	42232.63
630.56	42440.93
630.71	42087.51
630.86	41940.06
631.01	42213.90
631.16	41799.63
631.31	41642.81
631.46	41701.32
631.61	42092.19
631.76	41876.86
631.91	42115.60
632.06	42607.11
632.21	41820.69
632.36	41792.61
632.51	41928.36
632.66	41853.46
632.81	41462.59
632.96	41893.25
633.10	41865.16
633.25	41736.43
633.40	41605.36
633.55	41867.50
633.70	41436.84
633.85	41617.07
634.00	41591.32
634.15	41525.78
634.30	41354.93
634.45	41476.63
634.60	41036.61
634.75	41251.94
634.90	40926.61
635.05	41640.47
635.19	41123.21
635.34	41600.68
635.49	41326.84
635.64	41109.17
635.79	41081.08
635.94	40875.12
636.09	40982.78
636.24	40912.56
636.39	41106.83
636.53	41017.89
636.68	40954.69
636.83	41041.29
636.98	40774.47
637.13	41085.76
637.28	41151.30
637.43	41240.24
637.57	41251.94
637.72	40760.43
637.87	41214.49
638.02	40952.35
638.17	41298.75
638.32	41013.21
638.46	40509.99
638.61	40470.20
638.76	40701.92
638.91	40730.00
639.06	40648.08
639.20	41024.91
639.35	41031.93
639.50	40383.60
639.65	40439.78
639.80	40556.80
639.94	40858.73
640.09	40289.98
640.24	40493.61
640.39	40198.70
640.54	39948.26
640.68	39840.60
640.83	39985.71
640.98	40432.75
641.13	39583.14
641.27	40346.15
641.42	40257.21
641.57	40142.53
641.72	40051.25
641.86	40367.22
642.01	39962.31
642.16	39941.24
642.31	39917.84
642.45	39777.40
642.60	39655.70
642.75	39952.94
642.90	39983.37
643.04	39833.58
643.19	39929.54
643.34	39868.69
643.48	39723.57
643.63	40123.80
643.78	39571.44
643.93	40053.59
644.07	39594.84
644.22	39728.25
644.37	39564.42
644.51	39342.06
644.66	39906.13
644.81	39889.75
644.95	39648.68
645.10	39405.26
645.25	39543.35
645.39	39739.96
645.54	39505.90
645.69	39049.50
645.83	39812.51
645.98	38995.67
646.13	39501.22
646.27	39992.73
646.42	39524.63
646.57	39100.99
646.71	39269.51
646.86	39552.71
647.00	39091.63
647.15	39393.56
647.30	39379.51
647.44	38829.49
647.59	39030.77
647.74	38972.26
647.88	38972.26
648.03	39009.71
648.17	38696.08
648.32	38857.57
648.47	39002.69
648.61	38862.26
648.76	39126.74
648.90	38904.38
649.05	38836.51
649.20	38810.76
649.34	39075.24
649.49	38466.70
649.63	38892.68
649.78	39063.54
649.92	38728.84
650.07	38714.80
650.21	38335.63
650.36	38834.17
650.51	39037.80
650.65	38967.58
650.80	39089.29
650.94	38583.73
651.09	38286.48
651.23	38047.75
651.38	37778.59
651.52	38216.27
651.67	38129.67
651.81	38195.20
651.96	38171.80
652.10	38485.43
652.25	38183.50
652.39	38150.73
652.54	38431.60
652.68	38089.88
652.83	38314.57
652.97	38363.72
653.12	38471.39
653.26	37926.04
653.41	38230.31
653.55	37769.22
653.70	38211.59
653.84	38089.88
653.99	38085.20
654.13	37792.63
654.27	38199.88
654.42	38246.69
654.56	38148.39
654.71	37876.89
654.85	37846.46
655.00	37764.54
655.14	37839.44
655.29	37453.25
655.43	37179.41
655.57	37581.98
655.72	37333.89
655.86	37235.58
656.01	37031.96
656.15	36645.77
656.30	37097.49
656.44	37127.92
656.58	37219.20
656.73	37347.93
656.87	37317.50
657.01	37064.72
657.16	36720.66
657.30	36556.83
657.45	36669.17
657.59	36898.55
657.73	37137.28
657.88	37071.75
658.02	37434.53
658.16	37184.09
658.31	36964.08
658.45	37329.20
658.60	37443.89
658.74	36898.55
658.88	37212.18
659.03	36823.65
659.17	37020.25
659.31	36535.76
659.46	36795.56
659.60	36510.02
659.74	36559.17
659.89	36507.68
660.03	36243.20
660.17	36648.11
660.32	36613.00
660.46	36500.65
660.60	36175.32
660.74	36505.34
660.89	36154.26
661.03	36472.57
661.17	36261.92
661.32	35941.27
661.46	36055.95
661.60	35868.71
661.74	35723.60
661.89	36105.10
662.03	36058.29
662.17	35669.76
662.31	36184.68
662.46	36343.84
662.60	35896.80
662.74	35644.02
662.88	35798.49
663.03	35370.18
663.17	35388.90
663.31	35115.06
663.45	35754.02
663.60	35674.45
663.74	35545.72
663.88	35103.35
664.02	35098.67
664.17	35208.68
664.31	34881.00
664.45	34927.81
664.59	35477.84
664.73	35416.99
664.88	34969.94
665.02	34415.24
665.16	34742.91
665.30	34923.13
665.44	34614.18
665.59	34515.88
665.73	34581.42
665.87	34455.03
666.01	34227.99
666.15	34565.03
666.29	34139.05
666.44	34574.39
666.58	34295.87
666.72	34153.10
666.86	34363.75
667.00	34621.20
667.14	34213.95
667.28	34305.23
667.43	33680.31
667.57	33869.89
667.71	33752.87
667.85	33872.23
667.99	34499.50
668.13	33706.05
668.27	34220.97
668.41	33895.64
668.56	33191.14
668.70	33745.84
668.84	33097.52
668.98	33333.91
669.12	33371.36
669.26	33755.21
669.40	32999.21
669.54	33429.87
669.68	33244.97
669.82	33062.41
669.96	33050.70
670.10	33015.60
670.25	32875.16
670.39	33006.23
670.53	32842.40
670.67	32453.87
670.81	32666.86
670.95	32854.10
671.09	32701.96
671.23	32374.29
671.37	32589.62
671.51	32519.40
671.65	32566.21
671.79	32018.53
671.93	32020.87
672.07	32158.96
672.21	32048.96
672.35	31779.79
672.49	31777.45
672.63	32297.05
672.77	31920.23
672.91	31538.72
673.05	31665.11
673.19	31662.77
673.33	31517.65
673.47	31264.88
673.61	31524.68
673.75	31255.51
673.89	31461.48
674.03	31271.90
674.17	30904.43
674.31	31047.21
674.45	31154.87
674.59	30831.88
674.73	31346.79
674.87	30639.95
675.01	30611.87
675.15	30876.35
675.29	30724.21
675.43	30759.32
675.56	30691.44
675.70	30457.39
675.84	30529.95
675.98	29975.24
676.12	30761.66
676.26	30787.41
676.40	30176.53
676.54	30354.41
676.68	29984.60
676.82	29338.62
676.96	29586.71
677.10	29720.12
677.23	29436.92
677.37	29219.25
677.51	29556.28
677.65	28985.19
677.79	29008.60
677.93	29181.80
678.07	28863.49
678.21	28493.68
678.34	28456.23
678.48	28584.96
678.62	28416.44
678.76	28212.82
678.90	28039.62
679.04	28198.77
679.18	28369.63
679.31	27550.45
679.45	27632.36
679.59	27868.76
679.73	27953.02
679.87	27585.55
680.00	28060.68
680.14	27913.23
680.28	27660.45
680.42	27253.20
680.56	27440.44
680.70	27248.52
680.83	27220.43
680.97	27056.59
681.11	26986.38
681.25	27157.24
681.39	26883.39
681.52	27204.05
681.66	27019.14
681.80	26609.55
681.94	26815.52
682.07	26384.86
682.21	26684.45
682.35	26150.81
682.49	26696.15
682.62	25958.88
682.76	25610.14
682.90	26082.93
683.04	25888.67
683.17	25745.89
683.31	25750.57
683.45	25572.69
683.59	25591.42
683.72	25741.21
683.86	25422.90
684.00	25212.25
684.13	25170.12
684.27	24975.86
684.41	24950.11
684.55	24779.25
684.68	25057.78
684.82	24622.44
684.96	24837.76
685.09	24561.58
685.23	24603.71
685.37	24762.87
685.50	24285.40
685.64	24266.67
685.78	24114.54
685.91	24292.42
686.05	24032.62
686.19	23735.37
686.32	23915.59
686.46	23702.61
686.60	22958.31
686.73	23168.96
686.87	23346.84
687.01	23337.48
687.14	22946.61
687.28	23105.77
687.42	23147.90
687.55	22906.82
687.69	22974.70
687.82	23211.09
687.96	22726.60
688.10	22691.49
688.23	22384.88
688.37	22761.71
688.50	22422.33
688.64	22120.40
688.78	22209.34
688.91	21783.37
689.05	21647.61
689.18	21806.77
689.32	21755.28
689.46	21820.81
689.59	21972.95
689.73	22024.44
689.86	21544.63
690.00	21860.60
690.13	21848.90
690.27	21067.16
690.41	21291.85
690.54	21219.30
690.68	21228.66
690.81	21102.27
690.95	21125.68
691.08	21081.21
691.22	21425.26
691.35	20783.96
691.49	21057.80
691.62	20973.54
691.76	20648.21
691.89	20650.55
692.03	20369.68
692.16	20467.98
692.30	20472.67
692.43	20030.30
692.57	20112.22
692.70	19833.70
692.84	20011.58
692.97	19672.20
693.11	19604.33
693.24	19611.35
693.38	19571.56
693.51	19639.44
693.65	19349.21
693.78	19180.69
693.92	19257.93
694.05	19351.55
694.19	19332.82
694.32	19037.92
694.45	19033.24
694.59	19396.02
694.72	19033.24
694.86	18829.61
694.99	18693.86
695.13	18373.21
695.26	18480.87
695.39	18501.93
695.53	18525.34
695.66	18560.45
695.80	18394.27
695.93	18228.09
696.07	18321.71
696.20	18092.34
696.33	18167.24
696.47	18094.68
696.60	18092.34
696.73	17891.06
696.87	17525.93
697.00	17619.55
697.14	17455.72
697.27	17261.45
697.40	17144.42
697.54	17387.84
697.67	17334.01
697.80	17114.00
697.94	17109.32
698.07	16929.09
698.21	16936.12
698.34	17142.08
698.47	17156.13
698.61	16695.04
698.74	16643.55
698.87	16596.74
699.01	16512.48
699.14	16519.50
699.27	16205.87
699.40	16397.79
699.54	16262.04
699.67	15988.20
699.80	15976.50
699.94	16060.76
700.07	16121.61
700.20	16149.70
700.34	15861.81
700.47	15925.00
700.60	15618.39
700.73	15922.66
700.87	15576.27
701.00	15566.90
701.13	15272.00
701.26	15405.41
701.40	15169.01
701.53	15152.63
701.66	14967.73
701.79	15021.56
701.93	15283.70
702.06	14944.32
702.19	14888.15
702.32	15054.33
702.46	15044.96
702.59	14689.20
702.72	14789.85
702.85	14616.65
702.99	14588.56
703.12	14347.48
703.25	14492.60
703.38	14228.12
703.51	14548.77
703.65	13879.38
703.78	13870.01
703.91	13975.34
704.04	13811.50
704.17	13734.26
704.31	13752.99
704.44	13841.93
704.57	13518.93
704.70	13757.67
704.83	13708.52
704.96	13563.40
705.10	13535.32
705.23	13563.40
>>>>>End Processed Spectral Data<<<<<
