SpectraSuite Data File
++++++++++++++++++++++++++++++++++++
Date: Fri Oct 25 10:47:05 EDT 2013
User: price-jones
Dark Spectrum Present: No
Reference Spectrum Present: No
Number of Sampled Component Spectra: 1
Spectrometers: USB2+H05261
Integration Time (usec): 100000 (USB2+H05261)
Spectra Averaged: 1 (USB2+H05261)
Boxcar Smoothing: 0 (USB2+H05261)
Correct for Electrical Dark: No (USB2+H05261)
Strobe/Lamp Enabled: No (USB2+H05261)
Correct for Detector Non-linearity: No (USB2+H05261)
Correct for Stray Light: No (USB2+H05261)
Number of Pixels in Processed Spectrum: 2048
>>>>>Begin Processed Spectral Data<<<<<
365.73	168.52
365.92	168.52
366.12	168.52
366.32	18.72
366.52	4.68
366.72	60.85
366.91	51.49
367.11	102.98
367.31	0.00
367.51	0.00
367.70	79.58
367.90	18.72
368.10	0.00
368.30	0.00
368.49	88.94
368.69	30.43
368.89	0.00
369.09	35.11
369.28	102.98
369.48	102.98
369.68	98.30
369.87	161.50
370.07	53.83
370.27	180.22
370.47	198.95
370.66	355.76
370.86	360.44
371.06	435.34
371.25	484.49
371.45	484.49
371.65	503.22
371.84	365.12
372.04	416.62
372.24	491.51
372.44	470.45
372.63	524.28
372.83	573.43
373.03	503.22
373.22	517.26
373.42	517.26
373.62	514.92
373.81	484.49
374.01	526.62
374.21	587.47
374.40	610.88
374.60	578.11
374.79	535.98
374.99	561.73
375.19	564.07
375.38	578.11
375.58	533.64
375.78	643.65
375.97	592.16
376.17	624.92
376.37	559.39
376.56	547.69
376.76	596.84
376.95	667.05
377.15	559.39
377.35	580.45
377.54	683.44
377.74	496.19
377.93	521.94
378.13	631.94
378.33	676.41
378.52	641.31
378.72	582.79
378.91	671.73
379.11	645.99
379.31	589.82
379.50	575.77
379.70	664.71
379.89	664.71
380.09	636.63
380.28	681.10
380.48	664.71
380.68	667.05
380.87	641.31
381.07	657.69
381.26	690.46
381.46	716.20
381.65	688.12
381.85	692.80
382.04	606.20
382.24	767.70
382.43	697.48
382.63	594.50
382.83	704.50
383.02	753.65
383.22	727.91
383.41	645.99
383.61	702.16
383.80	730.25
384.00	702.16
384.19	744.29
384.39	720.88
384.58	774.72
384.78	760.67
384.97	744.29
385.17	727.91
385.36	744.29
385.56	767.70
385.75	741.95
385.95	746.63
386.14	798.12
386.34	746.63
386.53	833.23
386.72	868.34
386.92	746.63
387.11	807.48
387.31	819.19
387.50	793.44
387.70	763.01
387.89	877.70
388.09	823.87
388.28	854.30
388.48	877.70
388.67	863.66
388.86	908.13
389.06	873.02
389.25	847.27
389.45	929.19
389.64	837.91
389.84	924.51
390.03	976.00
390.22	966.64
390.42	915.15
390.61	919.83
390.81	957.28
391.00	985.37
391.19	931.53
391.39	929.19
391.58	1041.54
391.78	990.05
391.97	968.98
392.16	936.21
392.36	980.68
392.55	973.66
392.75	1001.75
392.94	866.00
393.13	1032.18
393.33	929.19
393.52	1071.97
393.71	1067.28
393.91	985.37
394.10	976.00
394.29	1121.12
394.49	1109.41
394.68	1116.44
394.88	1071.97
395.07	1130.48
395.26	1118.78
395.46	1104.73
395.65	1181.97
395.84	1174.95
396.04	1074.31
396.23	1116.44
396.42	1093.03
396.62	1163.25
396.81	1114.10
397.00	1158.57
397.19	1149.20
397.39	1135.16
397.58	1291.98
397.77	1172.61
397.97	1263.89
398.16	1210.06
398.35	1306.02
398.55	1247.51
398.74	1315.38
398.93	1331.76
399.12	1387.94
399.32	1277.93
399.51	1299.00
399.70	1430.07
399.90	1329.42
400.09	1355.17
400.28	1451.13
400.47	1317.72
400.67	1474.54
400.86	1451.13
401.05	1430.07
401.24	1472.20
401.44	1462.83
401.63	1479.22
401.82	1558.80
402.01	1472.20
402.21	1479.22
402.40	1598.59
402.59	1600.93
402.78	1542.41
402.97	1509.65
403.17	1591.56
403.36	1540.07
403.55	1568.16
403.74	1659.44
403.93	1607.95
404.13	1533.05
404.32	1664.12
404.51	1694.55
404.70	1715.61
404.89	1760.08
405.09	1783.49
405.28	1743.70
405.47	1603.27
405.66	1795.19
405.85	1825.62
406.05	1778.81
406.24	1790.51
406.43	1797.53
406.62	1956.69
406.81	1900.52
407.00	1811.57
407.20	1884.13
407.39	1802.21
407.58	1863.07
407.77	1923.92
407.96	1916.90
408.15	2026.90
408.34	1991.80
408.54	2024.56
408.73	2040.95
408.92	1991.80
409.11	2127.55
409.30	2029.24
409.49	1977.75
409.68	2064.35
409.87	2036.27
410.07	1977.75
410.26	2125.21
410.45	2143.93
410.64	2094.78
410.83	2270.32
411.02	2181.38
411.21	2286.70
411.40	2183.72
411.59	2394.37
411.78	2260.96
411.98	2263.30
412.17	2483.31
412.36	2537.14
412.55	2385.01
412.74	2417.77
412.93	2487.99
413.12	2499.69
413.31	2574.59
413.50	2410.75
413.69	2455.22
413.88	2473.95
414.07	2476.29
414.26	2698.64
414.45	2658.85
414.64	2647.15
414.83	2710.34
415.02	2696.30
415.22	2768.85
415.41	2813.32
415.60	2899.92
415.79	2951.42
415.98	2869.50
416.17	2829.71
416.36	2813.32
416.55	2867.16
416.74	2972.48
416.93	2867.16
417.12	2939.71
417.31	2920.99
417.50	3038.02
417.69	2979.50
417.88	3009.93
418.07	3077.80
418.26	3052.06
418.45	3007.59
418.64	3208.87
418.83	3171.43
419.02	3110.57
419.21	3169.09
419.39	3183.13
419.58	3117.59
419.77	3222.92
419.96	3248.66
420.15	3309.52
420.34	3206.53
420.53	3255.69
420.72	3351.65
420.91	3351.65
421.10	3431.23
421.29	3410.16
421.48	3314.20
421.67	3574.00
421.86	3351.65
422.05	3386.76
422.24	3412.50
422.43	3510.80
422.61	3361.01
422.80	3536.55
422.99	3545.91
423.18	3447.61
423.37	3613.79
423.56	3499.10
423.75	3583.36
423.94	3471.01
424.13	3246.32
424.32	3482.72
424.50	3489.74
424.69	3681.66
424.88	3520.17
425.07	3449.95
425.26	3503.78
425.45	3414.84
425.64	3616.13
425.83	3611.45
426.01	3618.47
426.20	3592.72
426.39	3676.98
426.58	3749.54
426.77	3513.14
426.96	3506.12
427.15	3653.58
427.33	3639.53
427.52	3768.26
427.71	3660.60
427.90	3709.75
428.09	3747.20
428.28	3688.68
428.46	3754.22
428.65	3709.75
428.84	3784.65
429.03	3911.04
429.22	3627.83
429.40	3873.59
429.59	3894.65
429.78	3597.40
429.97	3588.04
430.16	3751.88
430.34	3833.80
430.53	3932.10
430.72	3885.29
430.91	3925.08
431.10	4014.02
431.28	4241.05
431.47	4070.19
431.66	4227.01
431.85	4107.64
432.03	4149.77
432.22	4217.65
432.41	4341.69
432.60	4259.78
432.79	4142.75
432.97	4182.54
433.16	4301.90
433.35	4203.60
433.54	4379.14
433.72	4414.25
433.91	4301.90
434.10	4311.27
434.28	4362.76
434.47	4299.56
434.66	4521.92
434.85	4346.37
435.03	4493.83
435.22	4383.82
435.41	4594.47
435.59	4552.34
435.78	4704.48
435.97	4613.20
436.16	4585.11
436.34	4554.68
436.53	4606.17
436.72	4709.16
436.90	4648.30
437.09	4793.42
437.28	4720.86
437.46	4615.54
437.65	4594.47
437.84	4636.60
438.02	4615.54
438.21	4657.67
438.40	4746.61
438.58	4716.18
438.77	4903.42
438.96	4837.89
439.14	5109.39
439.33	5018.11
439.52	4987.68
439.70	5060.24
439.89	5114.07
440.08	5142.16
440.26	5011.09
440.45	5259.18
440.63	5270.89
440.82	5355.15
441.01	5380.89
441.19	5331.74
441.38	5472.17
441.57	5397.28
441.75	5582.18
441.94	5605.58
442.12	5547.07
442.31	5671.12
442.50	5813.89
442.68	5523.66
442.87	5638.35
443.05	5900.49
443.24	5980.07
443.43	5696.86
443.61	5764.74
443.80	5841.98
443.98	5636.01
444.17	5551.75
444.35	5708.57
444.54	6097.10
444.73	5909.85
444.91	5966.03
445.10	5809.21
445.28	5844.32
445.47	5987.09
445.65	5797.51
445.84	5877.09
446.02	6045.60
446.21	5825.59
446.39	5818.57
446.58	5987.09
446.77	6061.99
446.95	5891.13
447.14	5970.71
447.32	6050.28
447.51	5914.53
447.69	5823.25
447.88	6064.33
448.06	6054.97
448.25	6040.92
448.43	6054.97
448.62	6029.22
448.80	6188.38
448.99	6024.54
449.17	6076.03
449.36	6127.52
449.54	6164.97
449.73	6389.66
449.91	6349.87
450.10	6305.40
450.28	6422.43
450.46	6420.09
450.65	6450.52
450.83	6413.07
451.02	6506.69
451.20	6532.44
451.39	6375.62
451.57	6333.49
451.76	6455.20
451.94	6628.40
452.13	6686.91
452.31	6490.31
452.49	6380.30
452.68	6443.49
452.86	6663.51
453.05	6562.86
453.23	6623.72
453.42	6562.86
453.60	6551.16
453.78	6780.53
453.97	6445.84
454.15	6686.91
454.34	6612.01
454.52	6537.12
454.70	6881.18
454.89	6759.47
455.07	6663.51
455.26	6874.15
455.44	6927.99
455.62	6993.52
455.81	6876.49
455.99	6953.73
456.17	6972.46
456.36	6986.50
456.54	7143.32
456.73	7180.76
456.91	7375.03
457.09	7321.20
457.28	7400.77
457.46	7318.86
457.64	7248.64
457.83	7281.41
458.01	7265.02
458.19	7522.48
458.38	7222.89
458.56	7592.70
458.74	7344.60
458.93	7515.46
459.11	7480.35
459.29	7557.59
459.48	7531.84
459.66	7578.65
459.84	7454.61
460.03	7768.24
460.21	7653.55
460.39	7801.01
460.57	7723.77
460.76	7721.43
460.94	7918.03
461.12	7665.25
461.31	7756.54
461.49	7801.01
461.67	7768.24
461.85	8023.36
462.04	7908.67
462.22	8311.24
462.40	8046.76
462.59	7915.69
462.77	8037.40
462.95	8166.13
463.13	7978.89
463.32	8250.39
463.50	8152.09
463.68	8231.66
463.86	8018.68
464.05	8004.63
464.23	8016.33
464.41	8341.67
464.59	8093.57
464.78	8505.51
464.96	8205.92
465.14	8156.77
465.32	8182.51
465.50	8304.22
465.69	8507.85
465.87	8465.72
466.05	8517.21
466.23	8273.79
466.41	8491.46
466.60	8659.98
466.78	8341.67
466.96	8489.12
467.14	8407.20
467.32	8496.14
467.51	8472.74
467.69	8271.45
467.87	8533.59
468.05	8741.90
468.23	8540.61
468.41	8624.87
468.60	8613.17
468.78	8774.67
468.96	8716.16
469.14	8671.68
469.32	9053.19
469.50	8596.79
469.69	8720.84
469.87	8793.39
470.05	8842.54
470.23	9029.79
470.41	9015.74
470.59	8961.91
470.77	8971.27
470.95	9074.26
471.14	9121.07
471.32	8896.38
471.50	9254.48
471.68	9207.67
471.86	9390.23
472.04	9315.33
472.22	9481.51
472.40	9352.78
472.58	9540.02
472.77	9561.09
472.95	9507.26
473.13	10026.86
473.31	9441.72
473.49	9502.58
473.67	9713.22
473.85	9863.02
474.03	9788.12
474.21	9963.66
474.39	9839.61
474.57	10015.15
474.75	10052.60
474.93	10068.98
475.12	10085.37
475.30	10258.57
475.48	10195.37
475.66	10511.35
475.84	10396.66
476.02	10630.71
476.20	10403.68
476.38	10696.25
476.56	10775.83
476.74	10766.46
476.92	10750.08
477.10	10668.16
477.28	11019.24
477.46	11005.20
477.64	11044.99
477.82	11262.66
478.00	11185.42
478.18	11466.28
478.36	11604.38
478.54	11616.08
478.72	11550.54
478.90	11812.68
479.08	11953.12
479.26	12245.68
479.44	11976.52
479.62	11978.86
479.80	12217.60
479.98	12070.14
480.16	12397.82
480.34	12397.82
480.52	12477.40
480.70	12482.08
480.88	12561.66
481.06	12624.85
481.24	12842.52
481.41	13039.12
481.59	13156.15
481.77	13385.52
481.95	13181.90
482.13	13275.52
482.31	13348.08
482.49	13586.81
482.67	13694.47
482.85	13919.17
483.03	13862.99
483.21	13879.38
483.39	13996.40
483.57	14143.86
483.74	14333.44
483.92	14108.75
484.10	14340.46
484.28	14583.88
484.46	14719.63
484.64	15016.88
484.82	14888.15
485.00	14691.54
485.18	14895.17
485.35	15463.92
485.53	15044.96
485.71	15171.35
485.89	15346.89
486.07	15257.95
486.25	15751.81
486.43	15740.10
486.61	15536.48
486.78	16018.63
486.96	16093.52
487.14	16446.94
487.32	16404.81
487.50	16367.37
487.68	16943.14
487.85	16690.36
488.03	17078.89
488.21	17142.08
488.39	17205.28
488.57	17256.77
488.75	17364.43
488.92	17476.78
489.10	17841.90
489.28	17720.20
489.46	18338.10
489.64	17893.40
489.81	18497.25
489.99	18307.67
490.17	18572.15
490.35	18827.27
490.53	18735.99
490.70	18892.80
490.88	18808.54
491.06	19112.81
491.24	19091.75
491.41	18834.29
491.59	19225.16
491.77	19398.36
491.95	19543.47
492.13	19550.49
492.30	20123.93
492.48	19857.10
492.66	20107.54
492.84	20009.24
493.01	20332.23
493.19	20315.85
493.37	20568.63
493.54	20648.21
493.72	20900.98
493.90	20842.47
494.08	20957.16
494.25	21373.77
494.43	21165.46
494.61	21404.20
494.79	21537.61
494.96	21528.25
495.14	21827.84
495.32	21898.05
495.49	21862.94
495.67	22071.25
495.85	22270.20
496.02	22127.42
496.20	22452.76
496.38	22604.89
496.55	22300.62
496.73	23091.73
496.91	22560.42
497.09	22948.95
497.26	23033.21
497.44	23021.51
497.62	23386.63
497.79	23562.17
497.97	23489.62
498.14	23784.52
498.32	23632.39
498.50	23920.28
498.67	24269.01
498.85	24151.99
499.03	24088.79
499.20	23939.00
499.38	24074.75
499.56	24589.67
499.73	24409.45
499.91	24313.48
500.08	24826.06
500.26	24350.93
500.44	24671.59
500.61	24816.70
500.79	24889.26
500.97	25097.56
501.14	25125.65
501.32	25420.56
501.49	25333.96
501.67	25394.81
501.84	25481.41
502.02	25593.76
502.20	25874.62
502.37	25383.11
502.55	25830.15
502.72	25757.60
502.90	25795.04
503.07	25844.20
503.25	26298.26
503.43	25996.33
503.60	26356.77
503.78	26263.15
503.95	26087.61
504.13	26668.06
504.30	26876.37
504.48	26759.34
504.65	26792.11
504.83	27054.25
505.01	27208.73
505.18	26843.60
505.36	27323.41
505.53	27311.71
505.71	27601.94
505.88	27573.85
506.06	27101.06
506.23	27590.24
506.41	27395.97
506.58	27824.29
506.76	27784.50
506.93	27997.49
507.11	28025.57
507.28	28257.29
507.46	27885.14
507.63	28114.52
507.81	28341.55
507.98	27786.84
508.16	28301.76
508.33	28245.58
508.50	28685.61
508.68	28783.91
508.85	29165.42
509.03	28905.62
509.20	29003.92
509.38	28999.24
509.55	29078.82
509.73	29280.10
509.90	29331.59
510.08	29099.88
510.25	29682.67
510.42	29502.45
510.60	29792.68
510.77	29928.43
510.95	30080.56
511.12	29539.90
511.30	30057.16
511.47	30068.86
511.64	30113.33
511.82	30185.89
511.99	30029.07
512.17	30115.67
512.34	29996.31
512.51	30532.29
512.69	30623.57
512.86	30536.97
513.04	31005.08
513.21	30536.97
513.38	30347.39
513.56	30546.33
513.73	30251.42
513.90	30705.49
514.08	30696.13
514.25	31192.32
514.43	31014.44
514.60	30984.01
514.77	31498.93
514.95	31559.78
515.12	31129.12
515.29	31632.34
515.47	31775.11
515.64	31496.59
515.81	31573.83
515.99	31892.14
516.16	32020.87
516.33	31854.69
516.51	31639.36
516.68	31761.07
516.85	31402.97
517.03	31744.69
517.20	32065.34
517.37	32126.19
517.54	32425.78
517.72	32271.31
517.89	32107.47
518.06	32245.56
518.24	32315.78
518.41	32266.63
518.58	32636.43
518.75	32524.08
518.93	32879.85
519.10	32521.74
519.27	32912.61
519.45	32989.85
519.62	33352.63
519.79	32795.59
519.96	32968.79
520.14	33188.80
520.31	33193.48
520.48	33446.26
520.65	33380.72
520.83	34024.37
521.00	34103.95
521.17	33635.84
521.34	33965.85
521.52	34012.66
521.69	34064.16
521.86	34440.98
522.03	34284.17
522.20	34038.41
522.38	34356.72
522.55	34450.35
522.72	34085.22
522.89	34148.42
523.07	34391.83
523.24	34628.23
523.41	34728.87
523.58	34646.95
523.75	34913.77
523.92	35026.12
524.10	35412.31
524.27	35175.91
524.44	35147.82
524.61	34909.09
524.78	35309.32
524.96	35489.54
525.13	35484.86
525.30	35906.16
525.47	35571.46
525.64	35798.49
525.81	35969.35
525.98	35688.49
526.16	35438.05
526.33	35119.74
526.50	35896.80
526.67	35578.48
526.84	35580.82
527.01	35367.84
527.18	36180.00
527.36	35992.76
527.53	36140.21
527.70	36666.83
527.87	36149.57
528.04	35924.88
528.21	36336.82
528.38	36067.66
528.55	36360.22
528.72	36486.61
528.89	36238.51
529.07	36339.16
529.24	36802.58
529.41	36788.54
529.58	36423.42
529.75	36467.89
529.92	36730.03
530.09	37151.32
530.26	36715.98
530.43	36788.54
530.60	37167.71
530.77	37151.32
530.94	37188.77
531.11	37340.91
531.28	37504.74
531.46	37368.99
531.63	37132.60
531.80	37083.45
531.97	37811.35
532.14	37097.49
532.31	37479.00
532.48	37581.98
532.65	37495.38
532.82	37223.88
532.99	37687.31
533.16	37614.75
533.33	37553.90
533.50	37979.87
533.67	37734.12
533.84	37776.25
534.01	38052.43
534.18	37977.53
534.35	38602.46
534.52	38256.06
534.69	38342.66
534.86	38391.81
535.03	37986.89
535.20	38429.26
535.37	38569.69
535.54	38799.06
535.71	38197.54
535.88	38337.98
536.05	38848.21
536.22	38801.40
536.38	38698.42
536.55	38773.31
536.72	39040.14
536.89	38335.63
537.06	38511.17
537.23	38754.59
537.40	38904.38
537.57	38810.76
537.74	38955.88
537.91	39374.83
538.08	38953.54
538.25	39028.43
538.42	39257.81
538.59	38925.45
538.75	39468.45
538.92	39391.22
539.09	39210.99
539.26	39559.73
539.43	39342.06
539.60	39152.48
539.77	39257.81
539.94	39658.04
540.11	40009.12
540.28	39613.57
540.44	39529.31
540.61	39550.37
540.78	39798.47
540.95	39541.01
541.12	39283.55
541.29	39292.91
541.46	39608.89
541.62	39585.48
541.79	40268.92
541.96	39517.60
542.13	40126.14
542.30	39873.37
542.47	40051.25
542.63	39969.33
542.80	40418.71
542.97	40299.34
543.14	40474.88
543.31	40495.95
543.48	40844.69
543.64	40751.07
543.81	40732.34
543.98	40835.33
544.15	40378.92
544.32	40830.65
544.48	41500.04
544.65	40678.51
544.82	41069.38
544.99	40877.46
545.16	40868.09
545.32	41013.21
545.49	41366.63
545.66	41095.13
545.83	41280.03
546.00	41219.17
546.16	41418.12
546.33	41226.20
546.50	40561.48
546.67	41095.13
546.83	40730.00
547.00	41394.71
547.17	41043.63
547.34	41628.77
547.50	41432.16
547.67	41666.22
547.84	41446.21
548.00	41720.05
548.17	42010.28
548.34	41581.96
548.51	41581.96
548.67	42129.64
548.84	42110.92
549.01	41411.10
549.18	41797.29
549.34	41757.50
549.51	41902.61
549.68	42342.63
549.84	41738.77
550.01	42005.59
550.18	41467.27
550.34	42117.94
550.51	41715.37
550.68	42115.60
550.84	41635.79
551.01	42340.29
551.18	41923.68
551.34	41883.89
551.51	41942.40
551.68	42230.29
551.84	42679.67
552.01	42103.90
552.18	42396.46
552.34	41951.76
552.51	42487.74
552.68	42609.45
552.84	42553.28
553.01	42579.03
553.18	42485.40
553.34	42473.70
553.51	42316.89
553.67	42845.85
553.84	42951.17
554.01	43012.02
554.17	42925.42
554.34	43021.39
554.51	43122.03
554.67	42609.45
554.84	42883.30
555.00	42916.06
555.17	42600.09
555.33	42997.98
555.50	42986.28
555.67	43030.75
555.83	43178.20
556.00	42951.17
556.16	43117.35
556.33	43386.51
556.50	43461.41
556.66	43442.68
556.83	43007.34
556.99	43173.52
557.16	43599.50
557.32	43051.81
557.49	43056.50
557.65	42862.23
557.82	43374.81
557.98	43037.77
558.15	43543.33
558.32	43564.39
558.48	43512.90
558.65	43222.67
558.81	43110.33
558.98	43702.48
559.14	43220.33
559.31	43346.72
559.47	43522.26
559.64	43931.86
559.80	43807.81
559.97	43746.95
560.13	43445.02
560.30	43524.60
560.46	43386.51
560.63	43789.08
560.79	43798.44
560.96	44032.50
561.12	43405.23
561.29	43810.15
561.45	43342.04
561.61	43517.58
561.78	43915.47
561.94	44076.97
562.11	44060.58
562.27	43407.58
562.44	43845.26
562.60	43885.04
562.77	43861.64
562.93	43697.80
563.10	44154.21
563.26	43793.76
563.42	43782.06
563.59	44079.31
563.75	43679.08
563.92	44142.50
564.08	44074.63
564.24	44360.17
564.41	43945.90
564.57	43868.66
564.74	44273.57
564.90	44311.02
565.07	44013.77
565.23	43957.60
565.39	44053.56
565.56	44095.69
565.72	43758.66
565.88	43840.57
566.05	43608.86
566.21	44397.62
566.38	43885.04
566.54	44191.65
566.70	44374.22
566.87	44493.58
567.03	44292.30
567.19	44336.77
567.36	44278.25
567.52	43988.03
567.68	44428.05
567.85	44500.61
568.01	44224.42
568.17	44254.85
568.34	44573.16
568.50	44259.53
568.66	44615.29
568.83	43896.75
568.99	44137.82
569.15	44149.53
569.32	44210.38
569.48	44163.57
569.64	44231.44
569.81	44397.62
569.97	44470.18
570.13	44591.89
570.30	44285.28
570.46	43854.62
570.62	44156.55
570.78	44072.29
570.95	44062.93
571.11	44423.37
571.27	44428.05
571.43	44257.19
571.60	44261.87
571.76	44102.71
571.92	44392.94
572.09	44596.57
572.25	44201.02
572.41	44238.47
572.57	44486.56
572.74	45109.14
572.90	44610.61
573.06	44409.32
573.22	45003.82
573.38	44477.20
573.55	44121.44
573.71	44776.79
573.87	44788.49
574.03	44123.78
574.20	44615.29
574.36	44037.18
574.52	44870.41
574.68	44261.87
574.84	44765.09
575.01	44568.48
575.17	44545.08
575.33	44402.30
575.49	44598.91
575.65	44978.07
575.82	44683.17
575.98	44641.04
576.14	44985.10
576.30	44975.73
576.46	44336.77
576.62	44570.82
576.79	44140.16
576.95	44217.40
577.11	44502.95
577.27	44802.53
577.43	44744.02
577.59	44882.11
577.75	44308.68
577.92	44357.83
578.08	44631.68
578.24	44465.50
578.40	44725.30
578.56	44706.57
578.72	44788.49
578.88	44945.31
579.04	45162.98
579.21	44626.99
579.37	44296.98
579.53	44793.17
579.69	44598.91
579.85	44568.48
580.01	44758.06
580.17	44797.85
580.33	45024.89
580.49	44664.44
580.65	44898.50
580.82	44999.14
580.98	44657.42
581.14	44493.58
581.30	44968.71
581.46	44938.29
581.62	44830.62
581.78	44762.75
581.94	45343.20
582.10	44994.46
582.26	44980.42
582.42	44971.05
582.58	44912.54
582.74	44753.38
582.90	44575.50
583.06	44753.38
583.22	44828.28
583.38	44893.82
583.54	44816.58
583.70	44526.35
583.86	44978.07
584.02	44500.61
584.18	44753.38
584.34	44573.16
584.50	44975.73
584.66	44596.57
584.82	44790.83
584.98	45069.36
585.14	44814.24
585.30	44624.65
585.46	44816.58
585.62	44439.75
585.78	44439.75
585.94	44268.89
586.10	44685.51
586.26	44488.90
586.42	44624.65
586.58	45324.47
586.74	44954.67
586.90	44809.56
587.06	44648.06
587.22	44573.16
587.38	44463.16
587.54	44839.98
587.70	44839.98
587.86	44905.52
588.02	44886.79
588.18	45074.04
588.34	45230.85
588.49	44907.86
588.65	44516.99
588.81	44928.92
588.97	44697.21
589.13	44486.56
589.29	44715.93
589.45	45057.65
589.61	44678.49
589.77	45247.24
589.93	44903.18
590.08	45291.71
590.24	45329.16
590.40	45132.55
590.56	44938.29
590.72	44912.54
590.88	44999.14
591.04	45219.15
591.20	45542.14
591.35	45235.53
591.51	45223.83
591.67	44989.78
591.83	45116.17
591.99	45198.09
592.15	45001.48
592.31	44980.42
592.46	45081.06
592.62	44804.88
592.78	45301.07
592.94	45165.32
593.10	45249.58
593.26	45174.68
593.41	44865.73
593.57	44650.40
593.73	45031.91
593.89	45261.28
594.05	45015.52
594.20	44893.82
594.36	44959.35
594.52	45158.30
594.68	45612.36
594.84	45331.50
594.99	45256.60
595.15	45249.58
595.31	45177.02
595.47	45104.46
595.62	45212.13
595.78	45621.72
595.94	45401.71
596.10	45483.63
596.25	45240.21
596.41	45701.30
596.57	44999.14
596.73	45146.59
596.88	44825.94
597.04	44940.63
597.20	45350.22
597.36	45151.27
597.51	45483.63
597.67	45240.21
597.83	45294.05
597.99	45249.58
598.14	45516.40
598.30	45605.34
598.46	45240.21
598.61	44917.22
598.77	45162.98
598.93	45247.24
599.09	45338.52
599.24	45619.38
599.40	45263.62
599.56	45441.50
599.71	45511.72
599.87	45598.32
600.03	45509.38
600.18	45172.34
600.34	45464.91
600.50	45525.76
600.65	45343.20
600.81	45319.79
600.97	45579.59
601.12	45748.11
601.28	45610.02
601.44	45537.46
601.59	45153.62
601.75	45521.08
601.91	45261.28
602.06	45099.78
602.22	45118.51
602.37	45212.13
602.53	44741.68
602.69	45397.03
602.84	45057.65
603.00	45188.72
603.16	45097.44
603.31	44802.53
603.47	45235.53
603.62	44839.98
603.78	45088.08
603.94	45331.50
604.09	45961.10
604.25	45371.28
604.40	45167.66
604.56	45495.33
604.71	45270.64
604.87	45549.17
605.03	45158.30
605.18	45013.18
605.34	45198.09
605.49	44807.22
605.65	44856.37
605.80	45488.31
605.96	44961.69
606.12	45177.02
606.27	45380.65
606.43	45265.96
606.58	45050.63
606.74	45038.93
606.89	44903.18
607.05	45399.37
607.20	45050.63
607.36	45275.32
607.51	45551.51
607.67	45193.40
607.82	45446.18
607.98	45228.51
608.13	44914.88
608.29	44823.60
608.44	44467.84
608.60	44655.08
608.75	44392.94
608.91	44893.82
609.06	44844.66
609.22	44945.31
609.37	44603.59
609.53	44975.73
609.68	44779.13
609.84	45221.49
609.99	44481.88
610.15	44580.18
610.30	44390.60
610.46	44055.90
610.61	44823.60
610.76	45109.14
610.92	44598.91
611.07	44533.37
611.23	44694.87
611.38	44877.43
611.54	44491.24
611.69	44205.70
611.84	44215.06
612.00	44669.12
612.15	44289.96
612.31	44655.08
612.46	44425.71
612.62	44566.14
612.77	44280.60
612.92	44765.09
613.08	44664.44
613.23	44669.12
613.39	44250.17
613.54	44072.29
613.69	44179.95
613.85	44123.78
614.00	44179.95
614.15	44559.12
614.31	44685.51
614.46	44732.32
614.62	44346.13
614.77	44601.25
614.92	44343.79
615.08	44055.90
615.23	44243.15
615.38	44102.71
615.54	43824.19
615.69	44158.89
615.84	43709.50
616.00	44542.74
616.15	44137.82
616.30	44226.76
616.46	43510.56
616.61	43658.01
616.76	43866.32
616.92	43840.57
617.07	43473.11
617.22	43454.39
617.37	43749.29
617.53	43887.39
617.68	43973.98
617.83	43966.96
617.99	43988.03
618.14	44062.93
618.29	43758.66
618.45	43583.12
618.60	43590.14
618.75	43763.34
618.90	43707.16
619.06	44102.71
619.21	43580.78
619.36	43749.29
619.51	43414.60
619.67	43283.53
619.82	43618.22
619.97	43999.73
620.12	43290.55
620.28	42976.92
620.43	43393.53
620.58	43648.65
620.73	43519.92
620.89	43260.12
621.04	43463.75
621.19	42883.30
621.34	43250.76
621.49	43225.01
621.65	42974.58
621.80	43297.57
621.95	43208.63
622.10	43131.39
622.25	42880.95
622.41	43107.99
622.56	43016.71
622.71	43288.21
622.86	43044.79
623.01	43229.69
623.16	43051.81
623.32	43037.77
623.47	42864.57
623.62	43061.18
623.77	42616.47
623.92	42932.45
624.07	42171.77
624.23	42639.88
624.38	42440.93
624.53	42295.82
624.68	42506.47
624.83	42810.74
624.98	42504.13
625.13	42469.02
625.29	42454.98
625.44	42618.81
625.59	42756.91
625.74	42026.66
625.89	42054.75
626.04	42368.38
626.19	42344.97
626.34	42513.49
626.49	42429.23
626.65	42291.14
626.80	42492.43
626.95	42096.88
627.10	42387.10
627.25	42124.96
627.40	42131.98
627.55	41734.09
627.70	41645.15
627.85	41544.51
628.00	42071.13
628.15	42225.60
628.30	41933.04
628.45	41998.57
628.60	42085.17
628.76	42433.91
628.91	41914.31
629.06	42227.95
629.21	42117.94
629.36	41757.50
629.51	40994.48
629.66	41682.60
629.81	41565.57
629.96	41963.46
630.11	41867.50
630.26	41734.09
630.41	42316.89
630.56	41930.70
630.71	41797.29
630.86	41684.94
631.01	41923.68
631.16	41265.99
631.31	41174.70
631.46	41345.56
631.61	41378.33
631.76	41460.25
631.91	41280.03
632.06	41177.04
632.21	41144.28
632.36	41038.95
632.51	41305.77
632.66	41731.75
632.81	41034.27
632.96	41701.32
633.10	40793.20
633.25	41092.79
633.40	40942.99
633.55	41319.82
633.70	41050.66
633.85	41045.97
634.00	41715.37
634.15	40973.42
634.30	40999.16
634.45	40528.72
634.60	41069.38
634.75	41373.65
634.90	40662.13
635.05	41254.28
635.19	40847.03
635.34	41621.75
635.49	41095.13
635.64	40746.39
635.79	40678.51
635.94	40549.78
636.09	41055.34
636.24	40463.18
636.39	40608.29
636.53	40643.40
636.68	40236.15
636.83	40315.73
636.98	40706.60
637.13	40088.70
637.28	40610.64
637.43	40374.24
637.57	40341.47
637.72	40783.83
637.87	40737.02
638.02	40409.35
638.17	40041.88
638.32	39831.24
638.46	39917.84
638.61	40002.10
638.76	40065.29
638.91	39910.82
639.06	40362.54
639.20	40278.28
639.35	40229.13
639.50	39899.11
639.65	40477.22
639.80	40091.04
639.94	40133.17
640.09	40030.18
640.24	39526.97
640.39	39882.73
640.54	39655.70
640.68	39964.65
640.83	39934.22
640.98	39571.44
641.13	39704.85
641.27	40313.39
641.42	39864.00
641.57	39789.11
641.72	40107.42
641.86	39653.36
642.01	39297.59
642.16	39833.58
642.31	39569.10
642.45	39601.86
642.60	39548.03
642.75	38871.62
642.90	39257.81
643.04	39344.41
643.19	39122.05
643.34	39386.54
643.48	39482.50
643.63	39227.38
643.78	38944.17
643.93	38815.44
644.07	38897.36
644.22	39000.35
644.37	38703.10
644.51	39412.28
644.66	39082.27
644.81	39220.36
644.95	39019.07
645.10	39447.39
645.25	39583.14
645.39	39449.73
645.54	39412.28
645.69	39079.92
645.83	39178.23
645.98	39007.37
646.13	39194.61
646.27	38962.90
646.42	38939.49
646.57	38426.92
646.71	38871.62
646.86	38953.54
647.00	38965.24
647.15	39206.31
647.30	39168.87
647.44	38731.18
647.59	38653.95
647.74	38766.29
647.88	38178.82
648.03	38508.83
648.17	38787.36
648.32	38103.92
648.47	38920.77
648.61	38335.63
648.76	38717.14
648.90	38569.69
649.05	38693.74
649.20	38305.21
649.34	38696.08
649.49	37998.60
649.63	38829.49
649.78	38447.98
649.92	38349.68
650.07	38724.16
650.21	38183.50
650.36	38361.38
650.51	38146.05
650.65	38209.25
650.80	38515.86
650.94	38581.39
651.09	38455.00
651.23	38000.94
651.38	37799.65
651.52	37954.13
651.67	38202.22
651.81	38127.33
651.96	37996.26
652.10	38024.34
652.25	37832.42
652.39	38438.62
652.54	37944.76
652.68	37661.56
652.83	38293.50
652.97	37816.04
653.12	37928.38
653.26	37780.93
653.41	38380.10
653.55	37930.72
653.70	37743.48
653.84	37764.54
653.99	37759.86
654.13	37961.15
654.27	38050.09
654.42	37773.91
654.56	37523.47
654.71	37743.48
654.85	37359.63
655.00	37432.19
655.14	37591.34
655.29	37352.61
655.43	37268.35
655.57	37151.32
655.72	37296.44
655.86	36968.76
656.01	36994.51
656.15	37205.16
656.30	36933.65
656.44	36814.29
656.58	37017.91
656.73	36783.86
656.87	37303.46
657.01	36835.35
657.16	36914.93
657.30	37020.25
657.45	36809.61
657.59	36634.06
657.73	36573.21
657.88	36931.31
658.02	36797.90
658.16	37120.90
658.31	36891.52
658.45	37202.82
658.60	36601.30
658.74	36605.98
658.88	36238.51
659.03	36521.72
659.17	36470.23
659.31	36613.00
659.46	36196.38
659.60	36624.70
659.74	36641.09
659.89	35730.62
660.03	35807.86
660.17	36395.33
660.32	36219.79
660.46	36648.11
660.60	35892.12
660.74	36013.82
660.89	36121.49
661.03	35777.43
661.17	36074.68
661.32	35665.08
661.46	35377.20
661.60	35632.32
661.74	35732.96
661.89	35896.80
662.03	35962.33
662.17	35637.00
662.31	35990.42
662.46	35583.16
662.60	35707.21
662.74	35704.87
662.88	35583.16
663.03	35573.80
663.17	35585.50
663.31	35021.44
663.45	35339.75
663.60	35302.30
663.74	34684.40
663.88	35002.71
664.02	34972.28
664.17	34883.34
664.31	34546.31
664.45	34855.26
664.59	34979.31
664.73	34909.09
664.88	34881.00
665.02	34740.57
665.16	34520.56
665.30	34356.72
665.44	34433.96
665.59	34478.43
665.73	34293.53
665.87	34029.05
666.01	34567.37
666.15	34506.52
666.29	33867.55
666.44	34398.85
666.58	33975.22
666.72	34244.38
666.86	34202.25
667.00	34274.80
667.14	34293.53
667.28	34141.39
667.43	33937.77
667.57	33530.51
667.71	33500.09
667.85	33773.93
667.99	33647.54
668.13	33315.19
668.27	33596.05
668.41	33675.63
668.56	33516.47
668.70	33968.19
668.84	33357.32
668.98	32973.47
669.12	33450.94
669.26	33104.54
669.40	33600.73
669.54	33036.66
669.68	33251.99
669.82	33034.32
669.96	32952.40
670.10	32893.89
670.25	32603.66
670.39	32912.61
670.53	32959.42
670.67	32598.98
670.81	32636.43
670.95	32566.21
671.09	32779.20
671.23	32664.52
671.37	32708.99
671.51	32510.04
671.65	32133.21
671.79	32140.24
671.93	32128.53
672.07	32360.25
672.21	31716.60
672.35	31777.45
672.49	31810.22
672.63	32254.92
672.77	32201.09
672.91	31812.56
673.05	31461.48
673.19	31072.95
673.33	31356.16
673.47	31274.24
673.61	31105.72
673.75	31199.34
673.89	31342.11
674.03	30866.98
674.17	30820.17
674.31	30916.14
674.45	31019.12
674.59	31325.73
674.73	30988.69
674.87	31103.38
675.01	30862.30
675.15	31103.38
675.29	30712.51
675.43	30883.37
675.56	30448.03
675.70	30551.01
675.84	30202.27
675.98	29312.87
676.12	30096.95
676.26	30225.68
676.40	29986.94
676.54	30178.87
676.68	29848.85
676.82	29259.04
676.96	29792.68
677.10	29572.67
677.23	29553.94
677.37	29296.49
677.51	29158.39
677.65	29340.96
677.79	28762.84
677.93	28922.00
678.07	28680.92
678.21	28833.06
678.34	28847.10
678.48	28723.05
678.62	28697.31
678.76	28547.51
678.90	28531.13
679.04	28348.57
679.18	28720.71
679.31	27931.95
679.45	27721.30
679.59	27981.10
679.73	27536.40
679.87	28201.11
680.00	27964.72
680.14	27562.15
680.28	27747.05
680.42	27042.55
680.56	27491.93
680.70	27393.63
680.83	27236.81
680.97	27269.58
681.11	27028.51
681.25	26843.60
681.39	26794.45
681.52	27278.94
681.66	26881.05
681.80	26759.34
681.94	26525.29
682.07	26293.58
682.21	26579.12
682.35	26115.70
682.49	26286.56
682.62	26387.20
682.76	25937.82
682.90	25743.55
683.04	25923.77
683.17	26045.48
683.31	25678.02
683.45	25795.04
683.59	25532.90
683.72	25427.58
683.86	25399.49
684.00	25336.30
684.13	25352.68
684.27	25352.68
684.41	25296.51
684.55	25085.86
684.68	24634.14
684.82	25245.02
684.96	24779.25
685.09	24973.52
685.23	24360.30
685.37	24582.65
685.50	24589.67
685.64	24212.84
685.78	24184.76
685.91	24257.31
686.05	24217.52
686.19	23892.19
686.32	24414.13
686.46	23672.18
686.60	23690.90
686.73	23349.18
686.87	23555.15
687.01	23241.52
687.14	23417.06
687.28	23206.41
687.42	23136.20
687.55	22972.36
687.69	22918.53
687.82	23030.87
687.96	23168.96
688.10	22597.87
688.23	22649.36
688.37	22230.41
688.50	22052.53
688.64	22162.53
688.78	22410.63
688.91	22008.06
689.05	22640.00
689.18	22122.74
689.32	21708.47
689.46	21867.63
689.59	22185.94
689.73	22251.47
689.86	21792.73
690.00	21692.08
690.13	21837.20
690.27	21495.48
690.41	21537.61
690.54	21270.79
690.68	21275.47
690.81	21193.55
690.95	21537.61
691.08	21111.63
691.22	20781.62
691.35	21067.16
691.49	20912.69
691.62	20943.11
691.76	20758.21
691.89	20568.63
692.03	20423.51
692.16	20233.93
692.30	19873.49
692.43	20163.72
692.57	19623.05
692.70	20027.96
692.84	20130.95
692.97	19749.44
693.11	19531.77
693.24	19541.13
693.38	19531.77
693.51	19489.64
693.65	19508.37
693.78	19400.70
693.92	19564.54
694.05	19489.64
694.19	19218.14
694.32	19094.09
694.45	19073.03
694.59	18806.20
694.72	19035.58
694.86	18663.43
694.99	18590.88
695.13	18668.11
695.26	18333.42
695.39	18319.37
695.53	18576.83
695.66	18001.06
695.80	18183.62
695.93	18277.24
696.07	18087.66
696.20	17916.80
696.33	17738.92
696.47	17855.95
696.60	17722.54
696.73	17806.80
696.87	17642.96
697.00	17668.70
697.14	17642.96
697.27	17874.67
697.40	17830.20
697.54	17481.46
697.67	17137.40
697.80	17252.09
697.94	17406.56
698.07	16730.15
698.21	17163.15
698.34	16856.54
698.47	16891.65
698.61	16528.86
698.74	16521.84
698.87	16383.75
699.01	16341.62
699.14	16414.18
699.27	16088.84
699.40	16297.15
699.54	16011.60
699.67	15873.51
699.80	16011.60
699.94	16093.52
700.07	16109.91
700.20	15992.88
700.34	15826.70
700.47	15922.66
700.60	15990.54
700.73	15868.83
700.87	15562.22
701.00	15676.91
701.13	15784.57
701.26	15475.62
701.40	15267.31
701.53	15014.54
701.66	15339.87
701.79	14988.79
701.93	15035.60
702.06	14810.91
702.19	14892.83
702.32	14806.23
702.46	15145.61
702.59	14827.29
702.72	14642.39
702.85	14560.47
702.99	14682.18
703.12	14506.64
703.25	14586.22
703.38	14534.73
703.51	14335.78
703.65	14043.21
703.78	14321.74
703.91	14164.92
704.04	14157.90
704.17	13954.27
704.31	13799.80
704.44	13862.99
704.57	13748.31
704.70	13760.01
704.83	13434.68
704.96	13699.16
705.10	13317.65
705.23	13762.35
>>>>>End Processed Spectral Data<<<<<
