SpectraSuite Data File
++++++++++++++++++++++++++++++++++++
Date: Fri Oct 25 10:43:17 EDT 2013
User: price-jones
Dark Spectrum Present: No
Reference Spectrum Present: No
Number of Sampled Component Spectra: 1
Spectrometers: USB2+H05261
Integration Time (usec): 100000 (USB2+H05261)
Spectra Averaged: 1 (USB2+H05261)
Boxcar Smoothing: 0 (USB2+H05261)
Correct for Electrical Dark: No (USB2+H05261)
Strobe/Lamp Enabled: No (USB2+H05261)
Correct for Detector Non-linearity: No (USB2+H05261)
Correct for Stray Light: No (USB2+H05261)
Number of Pixels in Processed Spectrum: 2048
>>>>>Begin Processed Spectral Data<<<<<
365.73	133.41
365.92	133.41
366.12	133.41
366.32	58.51
366.52	86.60
366.72	14.04
366.91	0.00
367.11	49.15
367.31	49.15
367.51	44.47
367.70	0.00
367.90	9.36
368.10	2.34
368.30	42.13
368.49	72.56
368.69	88.94
368.89	11.70
369.09	84.26
369.28	124.05
369.48	60.85
369.68	35.11
369.87	56.17
370.07	67.88
370.27	98.30
370.47	168.52
370.66	337.04
370.86	461.09
371.06	491.51
371.25	554.71
371.45	447.04
371.65	454.06
371.84	489.17
372.04	479.81
372.24	479.81
372.44	451.72
372.63	538.32
372.83	449.38
373.03	442.36
373.22	512.58
373.42	559.39
373.62	545.34
373.81	543.00
374.01	564.07
374.21	622.58
374.40	531.30
374.60	545.34
374.79	596.84
374.99	568.75
375.19	608.54
375.38	521.94
375.58	538.32
375.78	657.69
375.97	620.24
376.17	645.99
376.37	531.30
376.56	683.44
376.76	545.34
376.95	615.56
377.15	613.22
377.35	613.22
377.54	540.66
377.74	664.71
377.93	685.78
378.13	671.73
378.33	685.78
378.52	564.07
378.72	664.71
378.91	655.35
379.11	592.16
379.31	631.94
379.50	552.37
379.70	718.54
379.89	697.48
380.09	685.78
380.28	667.05
380.48	657.69
380.68	739.61
380.87	636.63
381.07	746.63
381.26	706.84
381.46	692.80
381.65	720.88
381.85	718.54
382.04	641.31
382.24	711.52
382.43	683.44
382.63	631.94
382.83	683.44
383.02	744.29
383.22	713.86
383.41	674.07
383.61	709.18
383.80	816.85
384.00	695.14
384.19	709.18
384.39	772.38
384.58	763.01
384.78	805.14
384.97	830.89
385.17	816.85
385.36	805.14
385.56	812.17
385.75	875.36
385.95	800.46
386.14	826.21
386.34	807.48
386.53	833.23
386.72	781.74
386.92	842.59
387.11	856.64
387.31	800.46
387.50	912.81
387.70	854.30
387.89	894.08
388.09	889.40
388.28	856.64
388.48	849.61
388.67	924.51
388.86	917.49
389.06	931.53
389.25	908.13
389.45	959.62
389.64	985.37
389.84	1001.75
390.03	1011.11
390.22	1071.97
390.42	936.21
390.61	992.39
390.81	994.73
391.00	1036.86
391.19	1153.88
391.39	1053.24
391.58	1018.13
391.78	1107.07
391.97	1093.03
392.16	959.62
392.36	1081.33
392.55	994.73
392.75	961.96
392.94	1032.18
393.13	1013.45
393.33	950.26
393.52	1078.99
393.71	1074.31
393.91	1125.80
394.10	1139.84
394.29	1188.99
394.49	1174.95
394.68	1184.31
394.88	1219.42
395.07	1104.73
395.26	1104.73
395.46	1163.25
395.65	1188.99
395.84	1167.93
396.04	1282.61
396.23	1083.67
396.42	1137.50
396.62	1165.59
396.81	1083.67
397.00	1275.59
397.19	1299.00
397.39	1352.83
397.58	1336.45
397.77	1446.45
397.97	1364.53
398.16	1376.24
398.35	1397.30
398.55	1383.26
398.74	1472.20
398.93	1556.46
399.12	1526.03
399.32	1418.36
399.51	1589.22
399.70	1502.62
399.90	1572.84
400.09	1504.96
400.28	1483.90
400.47	1640.72
400.67	1589.22
400.86	1575.18
401.05	1680.50
401.24	1549.43
401.44	1708.59
401.63	1699.23
401.82	1732.00
402.01	1703.91
402.21	1732.00
402.40	1720.29
402.59	1736.68
402.78	1771.79
402.97	1675.82
403.17	1813.92
403.36	1839.66
403.55	1685.19
403.74	1785.83
403.93	1863.07
404.13	1863.07
404.32	1853.70
404.51	1881.79
404.70	1898.17
404.89	1849.02
405.09	2003.50
405.28	2001.16
405.47	1987.11
405.66	1851.36
405.85	2064.35
406.05	1858.39
406.24	1975.41
406.43	2054.99
406.62	2062.01
406.81	2122.87
407.00	2106.48
407.20	2012.86
407.39	2115.84
407.58	2057.33
407.77	2239.89
407.96	2209.47
408.15	2232.87
408.34	2200.10
408.54	2202.44
408.73	2307.77
408.92	2167.34
409.11	2349.90
409.30	2244.57
409.49	2275.00
409.68	2209.47
409.87	2232.87
410.07	2338.20
410.26	2282.02
410.45	2291.38
410.64	2450.54
410.83	2457.56
411.02	2525.44
411.21	2635.44
411.40	2525.44
411.59	2668.21
411.78	2600.34
411.98	2668.21
412.17	2729.06
412.36	2855.45
412.55	2693.96
412.74	2621.40
412.93	2605.02
413.12	2738.43
413.31	2785.24
413.50	2883.54
413.69	2712.68
413.88	2953.76
414.07	2874.18
414.26	2862.48
414.45	3026.31
414.64	2963.12
414.83	2963.12
415.02	3098.87
415.22	3073.12
415.41	3169.09
415.60	3075.46
415.79	3077.80
415.98	3197.17
416.17	3173.77
416.36	3148.02
416.55	3232.28
416.74	3358.67
416.93	3183.13
417.12	3370.37
417.31	3349.31
417.50	3368.03
417.69	3456.97
417.88	3421.86
418.07	3379.73
418.26	3276.75
418.45	3557.61
418.64	3463.99
418.83	3522.51
419.02	3592.72
419.21	3471.01
419.39	3588.04
419.58	3566.98
419.77	3583.36
419.96	3620.81
420.15	3545.91
420.34	3688.68
420.53	3627.83
420.72	3751.88
420.91	3662.94
421.10	3761.24
421.29	4004.66
421.48	3681.66
421.67	3777.62
421.86	3791.67
422.05	3808.05
422.24	3723.79
422.43	3784.65
422.61	3758.90
422.80	3840.82
422.99	3960.19
423.18	3922.74
423.37	3971.89
423.56	3836.14
423.75	3927.42
423.94	3922.74
424.13	3695.71
424.32	3709.75
424.50	3899.33
424.69	3922.74
424.88	4086.58
425.07	4004.66
425.26	3866.56
425.45	3719.11
425.64	3974.23
425.83	3957.85
426.01	3978.91
426.20	3936.78
426.39	3941.46
426.58	3995.29
426.77	3871.25
426.96	3941.46
427.15	4016.36
427.33	4196.58
427.52	4037.42
427.71	4170.83
427.90	4177.86
428.09	4128.70
428.28	4124.02
428.46	4135.73
428.65	4170.83
428.84	4308.93
429.03	4236.37
429.22	4030.40
429.40	4093.60
429.59	4234.03
429.78	3950.82
429.97	3906.35
430.16	4056.15
430.34	4112.32
430.53	4159.13
430.72	4191.90
430.91	4121.68
431.10	4346.37
431.28	4421.27
431.47	4678.73
431.66	4564.04
431.85	4409.57
432.03	4582.77
432.22	4608.51
432.41	4521.92
432.60	4657.67
432.79	4510.21
432.97	4760.65
433.16	4807.46
433.35	4559.36
433.54	4608.51
433.72	4718.52
433.91	4564.04
434.10	4629.58
434.28	4737.24
434.47	4819.16
434.66	4945.55
434.85	4896.40
435.03	4873.00
435.22	4926.83
435.41	5090.67
435.59	4990.02
435.78	4980.66
435.97	5240.46
436.16	5067.26
436.34	5188.97
436.53	5167.90
436.72	5345.78
436.90	5081.30
437.09	5090.67
437.28	5123.43
437.46	5130.45
437.65	5156.20
437.84	5170.24
438.02	5118.75
438.21	5242.80
438.40	4926.83
438.58	5214.71
438.77	5338.76
438.96	5420.68
439.14	5692.18
439.33	5605.58
439.52	5638.35
439.70	5849.00
439.89	5579.84
440.08	5696.86
440.26	5575.16
440.45	5706.23
440.63	5741.33
440.82	5949.64
441.01	5928.58
441.19	5900.49
441.38	5994.11
441.57	6022.20
441.75	6174.33
441.94	6101.78
442.12	6258.59
442.31	6406.05
442.50	6331.15
442.68	6277.32
442.87	6169.65
443.05	6253.91
443.24	6361.58
443.43	6459.88
443.61	6370.94
443.80	6574.56
443.98	6265.61
444.17	6216.46
444.35	6434.13
444.54	6693.93
444.73	6492.65
444.91	6361.58
445.10	6504.35
445.28	6408.39
445.47	6354.55
445.65	6232.85
445.84	6450.52
446.02	6434.13
446.21	6544.14
446.39	6675.21
446.58	6565.20
446.77	6525.41
446.95	6459.88
447.14	6644.78
447.32	6696.27
447.51	6602.65
447.69	6642.44
447.88	6607.33
448.06	6679.89
448.25	6719.68
448.43	6689.25
448.62	6715.00
448.80	6715.00
448.99	6733.72
449.17	6892.88
449.36	6686.91
449.54	6869.47
449.73	7009.90
449.91	7028.63
450.10	7145.66
450.28	7222.89
450.46	7370.35
450.65	7201.83
450.83	7162.04
451.02	7222.89
451.20	7368.01
451.39	7248.64
451.57	7023.95
451.76	7250.98
451.94	7124.59
452.13	7293.11
452.31	7302.47
452.49	7082.46
452.68	7190.13
452.86	6925.65
453.05	7169.06
453.23	7309.49
453.42	7262.68
453.60	7206.51
453.78	7316.51
453.97	7307.15
454.15	7400.77
454.34	7452.27
454.52	7578.65
454.70	7431.20
454.89	7522.48
455.07	7302.47
455.26	7583.34
455.44	7482.69
455.62	7630.15
455.81	7639.51
455.99	7798.66
456.17	7702.70
456.36	7779.94
456.54	8018.68
456.73	7920.37
456.91	7981.23
457.09	8105.28
457.28	8128.68
457.46	7887.61
457.64	8095.91
457.83	8084.21
458.01	7971.86
458.19	8009.31
458.38	8205.92
458.56	8278.47
458.74	8304.22
458.93	7941.44
459.11	8205.92
459.29	8273.79
459.48	8241.03
459.66	8236.35
459.84	8306.56
460.03	8634.24
460.21	8388.48
460.39	8446.99
460.57	8559.34
460.76	8430.61
460.94	8589.77
461.12	8477.42
461.31	8545.30
461.49	8428.27
461.67	8545.30
461.85	8819.14
462.04	8767.65
462.22	9085.96
462.40	8840.20
462.59	8762.97
462.77	8748.92
462.95	9001.70
463.13	8833.18
463.32	8950.21
463.50	8774.67
463.68	9085.96
463.86	9032.13
464.05	8903.40
464.23	8868.29
464.41	9060.21
464.59	8877.65
464.78	9270.86
464.96	9071.92
465.14	9069.58
465.32	8975.95
465.50	9270.86
465.69	9191.28
465.87	9060.21
466.05	9322.35
466.23	9296.61
466.41	9130.43
466.60	9291.93
466.78	9029.79
466.96	9287.25
467.14	9308.31
467.32	9305.97
467.51	9528.32
467.69	9315.33
467.87	9298.95
468.05	9483.85
468.23	9444.06
468.41	9408.95
468.60	9390.23
468.78	9458.10
468.96	9469.81
469.14	9699.18
469.32	9645.35
469.50	9465.13
469.69	9755.35
469.87	9736.63
470.05	9776.42
470.23	9724.93
470.41	9916.85
470.59	9755.35
470.77	9600.88
470.95	9792.80
471.14	9926.21
471.32	9970.68
471.50	10232.82
471.68	10340.49
471.86	10394.32
472.04	10160.27
472.22	10630.71
472.40	10181.33
472.58	10406.02
472.77	10658.80
472.95	10644.76
473.13	10869.45
473.31	10431.77
473.49	10635.39
473.67	10534.75
473.85	10586.24
474.03	10862.43
474.21	10761.78
474.39	11007.54
474.57	10785.19
474.75	10909.24
474.93	11309.47
475.12	11082.44
475.30	11265.00
475.48	11330.53
475.66	11080.10
475.84	11227.55
476.02	10977.11
476.20	11119.89
476.38	11543.52
476.56	11819.71
476.74	11655.87
476.92	11887.58
477.10	11744.81
477.28	11950.78
477.46	12013.97
477.64	12032.69
477.82	12393.14
478.00	12482.08
478.18	12313.56
478.36	12730.17
478.54	12517.18
478.72	12629.53
478.90	12659.96
479.08	13121.04
479.26	12865.92
479.44	13392.55
479.62	13029.76
479.80	13198.28
479.98	13429.99
480.16	13371.48
480.34	13561.06
480.52	13568.09
480.70	13783.41
480.88	13495.53
481.06	13893.42
481.24	13825.54
481.41	14211.73
481.59	14370.89
481.77	14403.66
481.95	14398.98
482.13	14546.43
482.31	14328.76
482.49	14782.82
482.67	14780.48
482.85	14979.43
483.03	15059.01
483.21	15281.36
483.39	15426.47
483.57	15105.82
483.74	15281.36
483.92	15342.21
484.10	15264.97
484.28	15648.82
484.46	15815.00
484.64	16025.65
484.82	15990.54
485.00	16032.67
485.18	16123.95
485.35	16299.49
485.53	16245.66
485.71	15882.88
485.89	16526.52
486.07	16257.36
486.25	16383.75
486.43	16753.55
486.61	16931.44
486.78	17053.14
486.96	17298.90
487.14	17607.85
487.32	17827.86
487.50	17774.03
487.68	18024.47
487.85	18396.61
488.03	18155.54
488.21	18499.59
488.39	18391.93
488.57	18422.36
488.75	18696.20
488.92	19030.90
489.10	19016.85
489.28	19211.12
489.46	19627.73
489.64	19470.92
489.81	20056.05
489.99	20276.06
490.17	19948.39
490.35	20037.33
490.53	20257.34
490.70	20379.04
490.88	20255.00
491.06	20552.24
491.24	20444.58
491.41	20624.80
491.59	20517.14
491.77	20547.56
491.95	20800.34
492.13	21291.85
492.30	21060.14
492.48	21390.16
492.66	21596.12
492.84	21830.18
493.01	21825.50
493.19	21729.53
493.37	22106.36
493.54	22171.89
493.72	22508.93
493.90	22541.70
494.08	22490.21
494.25	23026.19
494.43	22869.37
494.61	23101.09
494.79	23175.98
494.96	23084.70
495.14	23417.06
495.32	23608.98
495.49	23288.33
495.67	23665.16
495.85	23875.80
496.02	24093.47
496.20	24205.82
496.38	24203.48
496.55	24318.17
496.73	25041.39
496.91	24491.37
497.09	24732.44
497.26	24772.23
497.44	24910.32
497.62	25116.29
497.79	25254.38
497.97	25186.50
498.14	25441.62
498.32	25710.78
498.50	25394.81
498.67	25785.68
498.85	25535.24
499.03	25823.13
499.20	26146.12
499.38	26279.54
499.56	26036.12
499.73	26529.97
499.91	26288.90
500.08	26485.50
500.26	26394.22
500.44	26595.51
500.61	26920.84
500.79	26742.96
500.97	26759.34
501.14	26642.32
501.32	27037.87
501.49	26759.34
501.67	26548.70
501.84	27023.83
502.02	27316.39
502.20	27377.25
502.37	27349.16
502.55	27955.36
502.72	27707.26
502.90	28086.43
503.07	27686.20
503.25	27957.70
503.43	27758.75
503.60	28297.08
503.78	28034.94
503.95	28163.67
504.13	28212.82
504.30	28500.70
504.48	28446.87
504.65	28573.26
504.83	28758.16
505.01	29191.16
505.18	28788.59
505.36	29376.06
505.53	29127.97
505.71	29078.82
505.88	29979.92
506.06	29261.38
506.23	29780.98
506.41	29575.01
506.58	29727.14
506.76	29799.70
506.93	29886.30
507.11	29680.33
507.28	29888.64
507.46	29685.01
507.63	30022.05
507.81	30429.30
507.98	30064.18
508.16	30171.85
508.33	30118.01
508.50	30532.29
508.68	30384.83
508.85	31000.40
509.03	30897.41
509.20	30679.74
509.38	31175.94
509.55	31255.51
509.73	30937.20
509.90	31075.29
510.08	31442.76
510.25	31412.33
510.42	31459.14
510.60	31288.28
510.77	31445.10
510.95	31894.48
511.12	31999.80
511.30	31538.72
511.47	32011.51
511.64	32165.98
511.82	32278.33
511.99	31798.52
512.17	31957.67
512.34	32072.36
512.51	32402.38
512.69	32460.89
512.86	32257.26
513.04	33053.05
513.21	32706.65
513.38	32521.74
513.56	33076.45
513.73	32184.71
513.90	32631.75
514.08	32680.90
514.25	32826.01
514.43	33102.20
514.60	32910.27
514.77	33249.65
514.95	33251.99
515.12	32772.18
515.29	33317.53
515.47	33897.98
515.64	33844.15
515.81	33467.32
515.99	33425.19
516.16	33319.87
516.33	33266.03
516.51	33640.52
516.68	33097.52
516.85	33251.99
517.03	33160.71
517.20	33596.05
517.37	33837.12
517.54	34370.77
517.72	33832.44
517.89	33605.41
518.06	33876.91
518.24	33579.67
518.41	33984.58
518.58	34403.53
518.75	33963.51
518.93	34356.72
519.10	34466.73
519.27	34878.66
519.45	34733.55
519.62	35297.62
519.79	34944.20
519.96	35044.84
520.14	35267.19
520.31	34714.83
520.48	35117.40
520.65	34916.11
520.83	35363.15
521.00	35456.78
521.17	35285.92
521.34	35536.35
521.52	35995.10
521.69	35959.99
521.86	35892.12
522.03	36109.78
522.20	36385.97
522.38	36332.14
522.55	36072.34
522.72	35716.58
522.89	36311.07
523.07	36435.12
523.24	36430.44
523.41	36591.94
523.58	36435.12
523.75	37102.17
523.92	36589.59
524.10	37216.86
524.27	37226.22
524.44	37160.69
524.61	37273.03
524.78	37165.37
524.96	37120.90
525.13	37305.80
525.30	37504.74
525.47	37390.06
525.64	37322.18
525.81	37275.37
525.98	37240.26
526.16	37504.74
526.33	37036.64
526.50	37434.53
526.67	36804.92
526.84	37504.74
527.01	37132.60
527.18	37474.32
527.36	37844.12
527.53	37729.44
527.70	38412.87
527.87	37832.42
528.04	37970.51
528.21	38272.44
528.38	38576.71
528.55	38691.40
528.72	38796.72
528.89	38553.30
529.07	38609.48
529.24	38529.90
529.41	38445.64
529.58	38588.41
529.75	38155.41
529.92	38988.64
530.09	38670.33
530.26	38693.74
530.43	39145.46
530.60	38724.16
530.77	38951.20
530.94	39119.71
531.11	39178.23
531.28	39646.33
531.46	39541.01
531.63	39739.96
531.80	38962.90
531.97	39009.71
532.14	38983.96
532.31	39005.03
532.48	38763.95
532.65	39248.44
532.82	39461.43
532.99	39122.05
533.16	39431.01
533.33	39761.02
533.50	39861.66
533.67	39779.74
533.84	39260.15
534.01	39763.36
534.18	39791.45
534.35	39842.94
534.52	40341.47
534.69	40170.61
534.86	40257.21
535.03	39868.69
535.20	40287.64
535.37	40378.92
535.54	40439.78
535.71	40194.02
535.88	40598.93
536.05	40343.81
536.22	40533.40
536.38	40559.14
536.55	40514.67
536.72	40465.52
536.89	40212.74
537.06	40395.31
537.23	41139.60
537.40	40985.12
537.57	40500.63
537.74	40814.26
537.91	41305.77
538.08	41057.68
538.25	41053.00
538.42	40556.80
538.59	41413.44
538.75	40854.05
538.92	41221.52
539.09	40961.72
539.26	41167.68
539.43	40924.27
539.60	40851.71
539.77	41202.79
539.94	40985.12
540.11	41240.24
540.28	40854.05
540.44	41614.72
540.61	40844.69
540.78	40914.90
540.95	41230.88
541.12	41184.07
541.29	41294.07
541.46	41432.16
541.62	41701.32
541.79	41603.02
541.96	41474.29
542.13	41406.42
542.30	41504.72
542.47	41972.83
542.63	41448.55
542.80	42101.56
542.97	42326.25
543.14	42099.22
543.31	42572.00
543.48	42117.94
543.64	42319.23
543.81	42789.67
543.98	42267.73
544.15	42408.17
544.32	42749.88
544.48	43096.28
544.65	42707.76
544.82	42487.74
544.99	42033.68
545.16	42349.65
545.32	42244.33
545.49	42831.80
545.66	43079.90
545.83	43110.33
546.00	42827.12
546.16	42560.30
546.33	43037.77
546.50	42672.65
546.67	43405.23
546.83	42445.62
547.00	42855.21
547.17	42799.04
547.34	42880.95
547.50	42792.01
547.67	43395.87
547.84	43189.91
548.00	43070.54
548.17	43405.23
548.34	43309.27
548.51	43849.94
548.67	43330.34
548.84	43332.68
549.01	43351.40
549.18	43016.71
549.34	43292.89
549.51	43548.01
549.68	43337.36
549.84	43548.01
550.01	43545.67
550.18	43234.38
550.34	43395.87
550.51	43445.02
550.68	43845.26
550.84	42857.55
551.01	43934.20
551.18	43697.80
551.34	43709.50
551.51	43438.00
551.68	43924.83
551.84	43924.83
552.01	43103.31
552.18	43798.44
552.34	43817.17
552.51	44313.36
552.68	44006.75
552.84	44051.22
553.01	44163.57
553.18	43957.60
553.34	44498.26
553.51	44184.63
553.67	43973.98
553.84	44886.79
554.01	44669.12
554.17	44526.35
554.34	44451.45
554.51	44217.40
554.67	44830.62
554.84	44320.38
555.00	43948.24
555.17	44168.25
555.33	44657.42
555.50	44339.11
555.67	44629.34
555.83	44706.57
556.00	44411.67
556.16	44849.35
556.33	44605.93
556.50	44095.69
556.66	44605.93
556.83	44151.87
556.99	44601.25
557.16	44392.94
557.32	44371.88
557.49	44713.59
557.65	44360.17
557.82	44905.52
557.98	44725.30
558.15	44856.37
558.32	44645.72
558.48	44406.98
558.65	44851.69
558.81	44348.47
558.98	44694.87
559.14	44315.70
559.31	44657.42
559.47	44748.70
559.64	44603.59
559.80	44699.55
559.97	44729.98
560.13	44626.99
560.30	44828.28
560.46	45015.52
560.63	45219.15
560.79	45361.92
560.96	45209.79
561.12	44680.83
561.29	44942.97
561.45	44980.42
561.61	45202.77
561.78	45085.74
561.94	45104.46
562.11	45170.00
562.27	44870.41
562.44	45067.02
562.60	45462.57
562.77	45483.63
562.93	45052.97
563.10	45404.05
563.26	44994.46
563.42	45336.18
563.59	45249.58
563.75	45272.98
563.92	45778.54
564.08	45556.19
564.24	45757.47
564.41	45492.99
564.57	45352.56
564.74	45371.28
564.90	45181.70
565.07	45862.80
565.23	45469.59
565.39	45280.00
565.56	45427.46
565.72	44664.44
565.88	45553.85
566.05	45008.50
566.21	45116.17
566.38	45106.80
566.54	45694.28
566.70	45654.49
566.87	45890.88
567.03	45567.89
567.19	45823.01
567.36	45888.54
567.52	45394.69
567.68	45462.57
567.85	45272.98
568.01	45523.42
568.17	45687.26
568.34	45443.84
568.50	45333.84
568.66	45062.33
568.83	45350.22
568.99	45062.33
569.15	45333.84
569.32	45373.63
569.48	45301.07
569.64	45411.07
569.81	45677.90
569.97	45549.17
570.13	45764.49
570.30	45052.97
570.46	45268.30
570.62	45069.36
570.78	44816.58
570.95	45141.91
571.11	45448.52
571.27	45483.63
571.43	44935.95
571.60	45467.25
571.76	45556.19
571.92	45799.60
572.09	45565.55
572.25	45792.58
572.41	45621.72
572.57	45790.24
572.74	45738.75
572.90	45539.80
573.06	46113.23
573.22	45904.93
573.38	45710.66
573.55	45698.96
573.71	45626.40
573.87	45720.02
574.03	45413.41
574.20	45502.35
574.36	45720.02
574.52	45741.09
574.68	45902.59
574.84	45729.39
575.01	45886.20
575.17	45965.78
575.33	45525.76
575.49	45441.50
575.65	46075.79
575.82	45701.30
575.98	45925.99
576.14	45890.88
576.30	45511.72
576.46	45434.48
576.62	45514.06
576.79	45289.37
576.95	45455.54
577.11	45911.95
577.27	45294.05
577.43	45457.88
577.59	45565.55
577.75	45518.74
577.92	45207.45
578.08	45233.19
578.24	45024.89
578.40	45546.82
578.56	45525.76
578.72	45752.79
578.88	46492.40
579.04	45956.42
579.21	45516.40
579.37	45511.72
579.53	46047.70
579.69	45670.87
579.85	45670.87
580.01	45401.71
580.17	45698.96
580.33	45734.07
580.49	46045.36
580.65	45942.38
580.82	45813.65
580.98	46012.59
581.14	45333.84
581.30	45865.14
581.46	45780.88
581.62	45780.88
581.78	45633.42
581.94	46099.19
582.10	46129.62
582.26	46043.02
582.42	45865.14
582.58	46279.41
582.74	45315.11
582.90	45947.06
583.06	45581.93
583.22	46085.15
583.38	46153.02
583.54	46204.52
583.70	45855.78
583.86	45886.20
584.02	45851.09
584.18	45893.22
584.34	45780.88
584.50	45595.98
584.66	46113.23
584.82	45900.25
584.98	45743.43
585.14	46124.94
585.30	45752.79
585.46	45397.03
585.62	45331.50
585.78	45404.05
585.94	45687.26
586.10	45874.50
586.26	45432.14
586.42	46101.53
586.58	45963.44
586.74	45787.90
586.90	45429.80
587.06	46047.70
587.22	45851.09
587.38	45603.00
587.54	45813.65
587.70	46267.71
587.86	45764.49
588.02	45982.16
588.18	45640.45
588.34	45626.40
588.49	45429.80
588.65	45525.76
588.81	45118.51
588.97	45422.78
589.13	45553.85
589.29	45441.50
589.45	45455.54
589.61	45837.05
589.77	46089.83
589.93	46174.09
590.08	45713.00
590.24	46267.71
590.40	46085.15
590.56	45954.08
590.72	46188.13
590.88	45750.45
591.04	46305.16
591.20	46323.88
591.35	46316.86
591.51	46270.05
591.67	45958.76
591.83	45942.38
591.99	45834.71
592.15	45914.29
592.31	46155.36
592.46	45708.32
592.62	45614.70
592.78	45624.06
592.94	46047.70
593.10	45855.78
593.26	46330.90
593.41	46302.82
593.57	46150.68
593.73	45731.73
593.89	45858.12
594.05	46040.68
594.20	45755.13
594.36	45874.50
594.52	45947.06
594.68	45851.09
594.84	45862.80
594.99	45975.14
595.15	46218.56
595.31	46160.05
595.47	46094.51
595.62	45745.77
595.78	45764.49
595.94	46124.94
596.10	46483.04
596.25	46129.62
596.41	45933.01
596.57	45537.46
596.73	45464.91
596.88	45745.77
597.04	45984.51
597.20	46054.72
597.36	45797.26
597.51	46075.79
597.67	46167.07
597.83	45858.12
597.99	46174.09
598.14	45844.07
598.30	45925.99
598.46	45687.26
598.61	46185.79
598.77	45977.48
598.93	46017.27
599.09	45832.37
599.24	46635.17
599.40	46389.42
599.56	45900.25
599.71	45982.16
599.87	46281.75
600.03	45986.85
600.18	45713.00
600.34	46064.08
600.50	46012.59
600.65	46000.89
600.81	45844.07
600.97	46234.94
601.12	46199.83
601.28	46225.58
601.44	45715.34
601.59	46146.00
601.75	45647.47
601.91	45897.91
602.06	46047.70
602.22	46452.61
602.37	46054.72
602.53	46443.25
602.69	46522.83
602.84	46225.58
603.00	45811.31
603.16	45895.56
603.31	45928.33
603.47	45876.84
603.62	45565.55
603.78	46043.02
603.94	46026.63
604.09	46106.21
604.25	46103.87
604.40	45846.41
604.56	45961.10
604.71	46169.41
604.87	45745.77
605.03	45457.88
605.18	45525.76
605.34	46047.70
605.49	45500.01
605.65	45844.07
605.80	45804.28
605.96	45626.40
606.12	45748.11
606.27	45839.39
606.43	45413.41
606.58	46061.74
606.74	46106.21
606.89	45614.70
607.05	45745.77
607.20	45762.15
607.36	45937.69
607.51	45991.53
607.67	45710.66
607.82	45656.83
607.98	45511.72
608.13	45832.37
608.29	45106.80
608.44	45670.87
608.60	44961.69
608.75	45436.82
608.91	45544.48
609.06	45303.41
609.22	45628.74
609.37	45432.14
609.53	45666.19
609.68	45715.34
609.84	45275.32
609.99	45247.24
610.15	45516.40
610.30	45085.74
610.46	45303.41
610.61	45291.71
610.76	45469.59
610.92	45453.20
611.07	45141.91
611.23	45633.42
611.38	45207.45
611.54	45048.29
611.69	44903.18
611.84	45179.36
612.00	44987.44
612.15	45523.42
612.31	45535.12
612.46	45027.23
612.62	45532.78
612.77	44886.79
612.92	45329.16
613.08	44765.09
613.23	45102.12
613.39	44442.09
613.54	44760.40
613.69	45170.00
613.85	44753.38
614.00	44992.12
614.15	45092.76
614.31	45104.46
614.46	45202.77
614.62	44989.78
614.77	44402.30
614.92	44898.50
615.08	44744.02
615.23	44699.55
615.38	44926.58
615.54	44414.01
615.69	44158.89
615.84	44294.64
616.00	44631.68
616.15	44247.83
616.30	44729.98
616.46	44516.99
616.61	44397.62
616.76	44486.56
616.92	44058.24
617.07	44212.72
617.22	44116.76
617.37	44549.76
617.53	44783.81
617.68	44392.94
617.83	44318.04
617.99	44364.85
618.14	44156.55
618.29	44100.37
618.45	44205.70
618.60	44147.18
618.75	43992.71
618.90	43915.47
619.06	44498.26
619.21	43992.71
619.36	44254.85
619.51	44065.27
619.67	43913.13
619.82	44016.11
619.97	43950.58
620.12	43599.50
620.28	43332.68
620.43	43959.94
620.58	43983.35
620.73	43475.45
620.89	43629.93
621.04	44074.63
621.19	44098.03
621.34	43632.27
621.49	43934.20
621.65	43875.68
621.80	44060.58
621.95	43636.95
622.10	43716.53
622.25	43416.94
622.41	43880.36
622.56	43835.89
622.71	43564.39
622.86	43217.99
623.01	43606.52
623.16	43840.57
623.32	43047.13
623.47	43129.05
623.62	43136.07
623.77	43332.68
623.92	43356.08
624.07	42682.01
624.23	42916.06
624.38	43196.93
624.53	43496.52
624.68	42995.64
624.83	43318.64
624.98	43269.48
625.13	43306.93
625.29	42824.78
625.44	43166.50
625.59	43061.18
625.74	42773.29
625.89	42787.33
626.04	42822.44
626.19	42321.57
626.34	42827.12
626.49	43103.31
626.65	43145.44
626.80	42960.53
626.95	42415.19
627.10	42225.60
627.25	42801.38
627.40	42249.01
627.55	42171.77
627.70	41996.23
627.85	41874.52
628.00	42286.46
628.15	42534.56
628.30	42483.06
628.45	42682.01
628.60	42227.95
628.76	42190.50
628.91	42555.62
629.06	42211.56
629.21	42410.51
629.36	41853.46
629.51	41940.06
629.66	42211.56
629.81	42181.13
629.96	42047.72
630.11	42178.79
630.26	41741.11
630.41	42621.16
630.56	42101.56
630.71	42169.43
630.86	41944.74
631.01	41666.22
631.16	41729.41
631.31	41488.34
631.46	41523.44
631.61	41717.71
631.76	41551.53
631.91	42096.88
632.06	42052.41
632.21	41801.97
632.36	41965.81
632.51	41411.10
632.66	41275.35
632.81	41170.02
632.96	41729.41
633.10	41350.24
633.25	41717.71
633.40	41418.12
633.55	41656.85
633.70	41359.61
633.85	41713.03
634.00	41441.53
634.15	41345.56
634.30	41357.27
634.45	41097.47
634.60	41191.09
634.75	41015.55
634.90	40952.35
635.05	41153.64
635.19	41275.35
635.34	41516.42
635.49	41237.90
635.64	40830.65
635.79	40891.50
635.94	40704.26
636.09	40624.68
636.24	41055.34
636.39	40753.41
636.53	40950.01
636.68	40659.79
636.83	40615.32
636.98	40924.27
637.13	40835.33
637.28	40844.69
637.43	40807.24
637.57	41062.36
637.72	40919.59
637.87	40907.88
638.02	40622.34
638.17	40282.96
638.32	40830.65
638.46	40421.05
638.61	39910.82
638.76	40463.18
638.91	40233.81
639.06	40580.21
639.20	40554.46
639.35	40694.89
639.50	40210.40
639.65	40292.32
639.80	40079.33
639.94	40493.61
640.09	40407.01
640.24	40048.91
640.39	40009.12
640.54	39934.22
640.68	39494.20
640.83	40074.65
640.98	39643.99
641.13	39653.36
641.27	40074.65
641.42	39758.68
641.57	39978.69
641.72	40154.23
641.86	39995.07
642.01	39770.38
642.16	39562.08
642.31	39714.21
642.45	40079.33
642.60	39412.28
642.75	39629.95
642.90	40116.78
643.04	39641.65
643.19	39480.16
643.34	39590.16
643.48	39391.22
643.63	39737.62
643.78	39742.30
643.93	39856.98
644.07	39185.25
644.22	39435.69
644.37	39328.02
644.51	39283.55
644.66	39548.03
644.81	39807.83
644.95	39391.22
645.10	39936.56
645.25	39487.18
645.39	39639.31
645.54	39524.63
645.69	38976.94
645.83	38948.85
645.98	38953.54
646.13	38969.92
646.27	39082.27
646.42	39021.41
646.57	39339.72
646.71	39150.14
646.86	39096.31
647.00	39037.80
647.15	39246.10
647.30	39082.27
647.44	39463.77
647.59	39098.65
647.74	38703.10
647.88	38604.80
648.03	38536.92
648.17	38834.17
648.32	38583.73
648.47	38607.14
648.61	38394.15
648.76	38686.71
648.90	38780.34
649.05	38452.66
649.20	38572.03
649.34	38424.57
649.49	38747.57
649.63	38323.93
649.78	38810.76
649.92	38649.27
650.07	38480.75
650.21	38103.92
650.36	38621.18
650.51	38754.59
650.65	39086.95
650.80	38642.24
650.94	38356.70
651.09	38820.13
651.23	37879.23
651.38	38096.90
651.52	37989.24
651.67	37928.38
651.81	38068.81
651.96	37951.79
652.10	38314.57
652.25	38410.53
652.39	38162.43
652.54	38382.45
652.68	37919.02
652.83	38471.39
652.97	38057.11
653.12	37914.34
653.26	37883.91
653.41	37830.08
653.55	37893.27
653.70	37996.26
653.84	37942.42
653.99	38019.66
654.13	37656.88
654.27	37324.52
654.42	37565.60
654.56	37888.59
654.71	37640.50
654.85	37633.47
655.00	37813.70
655.14	37816.04
655.29	37181.75
655.43	37504.74
655.57	36657.47
655.72	37296.44
655.86	37202.82
656.01	36442.14
656.15	36708.96
656.30	36746.41
656.44	36797.90
656.58	37350.27
656.73	37060.04
656.87	36903.23
657.01	36715.98
657.16	36725.35
657.30	36762.79
657.45	36442.14
657.59	36807.26
657.73	36720.66
657.88	36912.59
658.02	37244.94
658.16	37422.83
658.31	37266.01
658.45	37048.34
658.60	36999.19
658.74	37352.61
658.88	36868.12
659.03	36657.47
659.17	36692.58
659.31	36484.27
659.46	36266.60
659.60	36470.23
659.74	36786.20
659.89	36018.50
660.03	36348.52
660.17	36711.30
660.32	36456.18
660.46	36196.38
660.60	36222.13
660.74	36233.83
660.89	36077.02
661.03	36102.76
661.17	35952.97
661.32	35552.74
661.46	35938.93
661.60	35765.73
661.74	36032.55
661.89	35466.14
662.03	35744.66
662.17	35388.90
662.31	36011.48
662.46	36037.23
662.60	35779.77
662.74	35889.77
662.88	35529.33
663.03	35438.05
663.17	35398.26
663.31	35339.75
663.45	35416.99
663.60	35281.24
663.74	35330.39
663.88	35068.25
664.02	34948.88
664.17	35129.10
664.31	34869.30
664.45	34689.08
664.59	34698.44
664.73	34773.34
664.88	34550.99
665.02	34078.20
665.16	34670.36
665.30	34335.66
665.44	34574.39
665.59	34677.38
665.73	34338.00
665.87	34309.91
666.01	34237.36
666.15	34218.63
666.29	34366.09
666.44	34209.27
666.58	33806.70
666.72	34155.44
666.86	34555.67
667.00	34136.71
667.14	33762.23
667.28	33970.54
667.43	33954.15
667.57	34092.24
667.71	33883.94
667.85	34260.76
667.99	33745.84
668.13	33670.95
668.27	33713.08
668.41	33816.06
668.56	33628.82
668.70	33773.93
668.84	33046.02
668.98	33383.06
669.12	33322.21
669.26	33448.60
669.40	32809.63
669.54	33333.91
669.68	33172.41
669.82	32636.43
669.96	32493.66
670.10	32793.25
670.25	33060.07
670.39	32882.19
670.53	32645.79
670.67	32708.99
670.81	32598.98
670.95	32388.33
671.09	32290.03
671.23	32467.91
671.37	32533.45
671.51	32474.93
671.65	32563.87
671.79	31999.80
671.93	31489.57
672.07	32006.83
672.21	32081.72
672.35	32070.02
672.49	31709.58
672.63	31658.09
672.77	31805.54
672.91	31929.59
673.05	31763.41
673.19	31555.10
673.33	31431.05
673.47	31590.21
673.61	30817.83
673.75	31318.71
673.89	31138.49
674.03	30874.01
674.17	31028.48
674.31	31023.80
674.45	31009.76
674.59	31178.28
674.73	31157.21
674.87	31061.25
675.01	30710.17
675.15	30263.13
675.29	30859.96
675.43	30476.12
675.56	30415.26
675.70	30101.63
675.84	30705.49
675.98	29329.25
676.12	30188.23
676.26	30188.23
676.40	29883.96
676.54	30005.67
676.68	29984.60
676.82	29308.19
676.96	29799.70
677.10	29762.25
677.23	29137.33
677.37	29457.98
677.51	29355.00
677.65	29139.67
677.79	28727.74
677.93	28713.69
678.07	28662.20
678.21	28517.09
678.34	28914.98
678.48	28400.06
678.62	28058.34
678.76	27765.78
678.90	28044.30
679.04	28510.07
679.18	28332.18
679.31	27442.78
679.45	27859.40
679.59	27917.91
679.73	27936.63
679.87	27615.98
680.00	27585.55
680.14	27571.51
680.28	27150.21
680.42	27185.32
680.56	27344.48
680.70	27496.61
680.83	27133.83
680.97	27082.34
681.11	26953.61
681.25	27234.47
681.39	26642.32
681.52	26981.70
681.66	26820.20
681.80	26696.15
681.94	26246.77
682.07	26113.36
682.21	26181.23
682.35	26281.88
682.49	26419.97
682.62	25961.22
682.76	26265.49
682.90	25762.28
683.04	26068.89
683.17	25556.31
683.31	25282.47
683.45	25483.75
683.59	25511.84
683.72	25324.60
683.86	25640.57
684.00	25160.76
684.13	25008.62
684.27	24819.04
684.41	24884.58
684.55	24868.19
684.68	24812.02
684.82	25006.28
684.96	24933.73
685.09	24643.50
685.23	24538.18
685.37	24627.12
685.50	24123.90
685.64	24582.65
685.78	23985.81
685.91	23934.32
686.05	23798.57
686.19	23534.09
686.32	23587.92
686.46	23470.89
686.60	23065.98
686.73	22829.59
686.87	23037.89
687.01	22979.38
687.14	22576.81
687.28	22544.04
687.42	22852.99
687.55	22544.04
687.69	23051.94
687.82	22675.11
687.96	22796.82
688.10	22384.88
688.23	22541.70
688.37	22387.22
688.50	22434.03
688.64	22089.98
688.78	22202.32
688.91	21757.62
689.05	22052.53
689.18	21666.34
689.32	21551.65
689.46	22066.57
689.59	21825.50
689.73	21745.92
689.86	21549.31
690.00	21188.87
690.13	21509.52
690.27	21146.74
690.41	21322.28
690.54	21123.33
690.68	21228.66
690.81	21111.63
690.95	20922.05
691.08	20968.86
691.22	20870.56
691.35	20718.42
691.49	21076.52
691.62	20858.85
691.76	20624.80
691.89	20690.34
692.03	20369.68
692.16	20334.57
692.30	20240.95
692.43	20292.44
692.57	19899.23
692.70	19716.67
692.84	19702.63
692.97	19681.56
693.11	19559.86
693.24	19522.41
693.38	19255.59
693.51	19213.46
693.65	19314.10
693.78	19300.06
693.92	19302.40
694.05	19274.31
694.19	19281.33
694.32	18878.76
694.45	18927.91
694.59	19068.34
694.72	18890.46
694.86	18724.29
694.99	18530.02
695.13	18782.80
695.26	18553.43
695.39	18476.19
695.53	18611.94
695.66	18050.21
695.80	18525.34
695.93	18333.42
696.07	18097.02
696.20	18059.57
696.33	18104.04
696.47	17832.54
696.60	18040.85
696.73	17783.39
696.87	17731.90
697.00	17282.52
697.14	17530.61
697.27	17291.88
697.40	17191.23
697.54	17216.98
697.67	17331.67
697.80	17053.14
697.94	17034.42
698.07	17071.87
698.21	16931.44
698.34	17011.01
698.47	17083.57
698.61	16741.85
698.74	16720.79
698.87	16706.74
699.01	16339.28
699.14	16236.30
699.27	16395.45
699.40	16191.83
699.54	16308.85
699.67	16053.73
699.80	15679.25
699.94	15920.32
700.07	15843.09
700.20	16238.64
700.34	15903.94
700.47	15838.41
700.60	15662.86
700.73	15646.48
700.87	15747.12
701.00	15400.72
701.13	15314.13
701.26	15019.22
701.40	15218.16
701.53	15215.82
701.66	15103.48
701.79	14925.60
701.93	14712.61
702.06	15084.75
702.19	14890.49
702.32	14808.57
702.46	14736.01
702.59	14857.72
702.72	14874.10
702.85	14555.79
702.99	14644.73
703.12	14452.81
703.25	14403.66
703.38	14295.99
703.51	14162.58
703.65	14193.01
703.78	14022.15
703.91	13872.36
704.04	14029.17
704.17	13902.78
704.31	13502.55
704.44	13661.71
704.57	13547.02
704.70	13568.09
704.83	13642.98
704.96	13380.84
705.10	13497.87
705.23	13556.38
>>>>>End Processed Spectral Data<<<<<
