SpectraSuite Data File
++++++++++++++++++++++++++++++++++++
Date: Fri Oct 25 11:34:35 EDT 2013
User: price-jones
Dark Spectrum Present: No
Reference Spectrum Present: No
Number of Sampled Component Spectra: 1
Spectrometers: USB2+H05261
Integration Time (usec): 100000 (USB2+H05261)
Spectra Averaged: 1 (USB2+H05261)
Boxcar Smoothing: 0 (USB2+H05261)
Correct for Electrical Dark: No (USB2+H05261)
Strobe/Lamp Enabled: No (USB2+H05261)
Correct for Detector Non-linearity: No (USB2+H05261)
Correct for Stray Light: No (USB2+H05261)
Number of Pixels in Processed Spectrum: 2048
>>>>>Begin Processed Spectral Data<<<<<
365.73	313.63
365.92	313.63
366.12	313.63
366.32	208.31
366.52	170.86
366.72	156.82
366.91	135.75
367.11	217.67
367.31	119.37
367.51	166.18
367.70	163.84
367.90	170.86
368.10	201.29
368.30	138.09
368.49	135.75
368.69	236.39
368.89	203.63
369.09	318.31
369.28	227.03
369.48	133.41
369.68	255.12
369.87	208.31
370.07	252.78
370.27	278.52
370.47	252.78
370.66	493.85
370.86	489.17
371.06	571.09
371.25	552.37
371.45	608.54
371.65	547.69
371.84	554.71
372.04	557.05
372.24	601.52
372.44	648.33
372.63	667.05
372.83	594.50
373.03	631.94
373.22	650.67
373.42	561.73
373.62	620.24
373.81	669.39
374.01	603.86
374.21	662.37
374.40	634.29
374.60	634.29
374.79	601.52
374.99	575.77
375.19	744.29
375.38	610.88
375.58	638.97
375.78	681.10
375.97	697.48
376.17	660.03
376.37	638.97
376.56	608.54
376.76	692.80
376.95	587.47
377.15	678.76
377.35	681.10
377.54	671.73
377.74	587.47
377.93	753.65
378.13	634.29
378.33	629.60
378.52	725.57
378.72	741.95
378.91	683.44
379.11	692.80
379.31	755.99
379.50	664.71
379.70	793.44
379.89	725.57
380.09	662.37
380.28	746.63
380.48	709.18
380.68	706.84
380.87	774.72
381.07	760.67
381.26	802.80
381.46	739.61
381.65	730.25
381.85	751.31
382.04	683.44
382.24	798.12
382.43	802.80
382.63	786.42
382.83	814.51
383.02	812.17
383.22	802.80
383.41	746.63
383.61	814.51
383.80	842.59
384.00	760.67
384.19	763.01
384.39	812.17
384.58	678.76
384.78	798.12
384.97	748.97
385.17	835.57
385.36	908.13
385.56	819.19
385.75	812.17
385.95	699.82
386.14	819.19
386.34	870.68
386.53	830.89
386.72	809.83
386.92	849.61
387.11	866.00
387.31	983.02
387.50	884.72
387.70	828.55
387.89	929.19
388.09	870.68
388.28	807.48
388.48	880.04
388.67	945.58
388.86	908.13
389.06	854.30
389.25	924.51
389.45	922.17
389.64	898.77
389.84	887.06
390.03	938.55
390.22	987.71
390.42	891.74
390.61	889.40
390.81	915.15
391.00	945.58
391.19	964.30
391.39	1008.77
391.58	947.92
391.78	976.00
391.97	964.30
392.16	954.94
392.36	1025.15
392.55	997.07
392.75	1088.35
392.94	905.79
393.13	961.96
393.33	1001.75
393.52	1048.56
393.71	1100.05
393.91	1107.07
394.10	1027.50
394.29	1116.44
394.49	999.41
394.68	1116.44
394.88	1041.54
395.07	1041.54
395.26	1125.80
395.46	1097.71
395.65	1170.27
395.84	1071.97
396.04	1193.67
396.23	1184.31
396.42	1174.95
396.62	1277.93
396.81	1214.74
397.00	1188.99
397.19	1191.33
397.39	1228.78
397.58	1177.29
397.77	1214.74
397.97	1217.08
398.16	1207.72
398.35	1259.21
398.55	1275.59
398.74	1268.57
398.93	1254.53
399.12	1224.10
399.32	1289.64
399.51	1181.97
399.70	1303.68
399.90	1266.23
400.09	1446.45
400.28	1348.15
400.47	1268.57
400.67	1350.49
400.86	1284.95
401.05	1366.87
401.24	1331.76
401.44	1301.34
401.63	1362.19
401.82	1296.66
402.01	1376.24
402.21	1392.62
402.40	1420.71
402.59	1495.60
402.78	1497.94
402.97	1474.54
403.17	1432.41
403.36	1483.90
403.55	1441.77
403.74	1619.65
403.93	1589.22
404.13	1549.43
404.32	1584.54
404.51	1507.30
404.70	1565.82
404.89	1551.78
405.09	1598.59
405.28	1570.50
405.47	1572.84
405.66	1575.18
405.85	1699.23
406.05	1724.97
406.24	1689.87
406.43	1776.47
406.62	1661.78
406.81	1764.76
407.00	1647.74
407.20	1661.78
407.39	1767.10
407.58	1776.47
407.77	1664.12
407.96	1865.41
408.15	1851.36
408.34	1865.41
408.54	1834.98
408.73	1853.70
408.92	1905.20
409.11	1933.28
409.30	1980.09
409.49	1898.17
409.68	1898.17
409.87	1949.67
410.07	1935.62
410.26	1961.37
410.45	2104.14
410.64	1984.77
410.83	1996.48
411.02	2029.24
411.21	2022.22
411.40	2024.56
411.59	2132.23
411.78	2078.40
411.98	2101.80
412.17	2101.80
412.36	2132.23
412.55	2143.93
412.74	2251.60
412.93	2209.47
413.12	2176.70
413.31	2399.05
413.50	2331.17
413.69	2324.15
413.88	2473.95
414.07	2363.94
414.26	2504.37
414.45	2326.49
414.64	2487.99
414.83	2487.99
415.02	2333.51
415.22	2628.42
415.41	2504.37
415.60	2614.38
415.79	2670.55
415.98	2633.10
416.17	2698.64
416.36	2630.76
416.55	2565.23
416.74	2672.89
416.93	2586.29
417.12	2658.85
417.31	2750.13
417.50	2710.34
417.69	2782.90
417.88	2874.18
418.07	2836.73
418.26	2810.98
418.45	2906.95
418.64	2890.56
418.83	2789.92
419.02	2883.54
419.21	2892.90
419.39	2871.84
419.58	3061.42
419.77	2813.32
419.96	3068.44
420.15	2993.55
420.34	3052.06
420.53	3035.67
420.72	3105.89
420.91	3122.27
421.10	3131.64
421.29	3150.36
421.48	3180.79
421.67	3094.19
421.86	3103.55
422.05	3166.74
422.24	3192.49
422.43	3201.85
422.61	3272.07
422.80	3304.84
422.99	3243.98
423.18	3213.56
423.37	3281.43
423.56	3152.70
423.75	3192.49
423.94	3124.62
424.13	3005.25
424.32	3290.79
424.50	3365.69
424.69	3407.82
424.88	3204.19
425.07	3157.38
425.26	3089.51
425.45	3253.34
425.64	3311.86
425.83	3323.56
426.01	3232.28
426.20	3417.18
426.39	3325.90
426.58	3232.28
426.77	3253.34
426.96	3295.47
427.15	3321.22
427.33	3414.84
427.52	3471.01
427.71	3321.22
427.90	3548.25
428.09	3506.12
428.28	3445.27
428.46	3552.93
428.65	3396.12
428.84	3555.27
429.03	3620.81
429.22	3662.94
429.40	3674.64
429.59	3684.00
429.78	3510.80
429.97	3485.06
430.16	3510.80
430.34	3599.74
430.53	3648.90
430.72	3646.55
430.91	3583.36
431.10	3777.62
431.28	3824.44
431.47	3763.58
431.66	3794.01
431.85	3726.13
432.03	3761.24
432.22	3859.54
432.41	3826.78
432.60	3878.27
432.79	3892.31
432.97	4007.00
433.16	3836.14
433.35	4032.74
433.54	4028.06
433.72	3967.21
433.91	3999.98
434.10	4100.62
434.28	4112.32
434.47	4032.74
434.66	4250.41
434.85	4049.13
435.03	4124.02
435.22	4105.30
435.41	4285.52
435.59	4264.46
435.78	4238.71
435.97	4107.64
436.16	4191.90
436.34	4215.30
436.53	4102.96
436.72	4376.80
436.90	4163.81
437.09	4250.41
437.28	4245.73
437.46	4238.71
437.65	4283.18
437.84	4432.97
438.02	4318.29
438.21	4409.57
438.40	4519.57
438.58	4505.53
438.77	4652.98
438.96	4437.66
439.14	4507.87
439.33	4645.96
439.52	4636.60
439.70	4685.75
439.89	4580.43
440.08	4844.91
440.26	4851.93
440.45	4669.37
440.63	4889.38
440.82	4922.15
441.01	4835.55
441.19	4863.63
441.38	4940.87
441.57	5139.82
441.75	4929.17
441.94	5203.01
442.12	5144.50
442.31	5238.12
442.50	5238.12
442.68	5242.80
442.87	5203.01
443.05	5261.52
443.24	5263.86
443.43	5137.48
443.61	5451.11
443.80	5579.84
443.98	5135.14
444.17	5090.67
444.35	5294.29
444.54	5474.51
444.73	5240.46
444.91	5427.70
445.10	5336.42
445.28	5327.06
445.47	5441.75
445.65	5305.99
445.84	5472.17
446.02	5385.57
446.21	5366.85
446.39	5369.19
446.58	5488.56
446.77	5448.77
446.95	5252.16
447.14	5483.88
447.32	5446.43
447.51	5394.93
447.69	5621.97
447.88	5490.90
448.06	5441.75
448.25	5511.96
448.43	5408.98
448.62	5434.72
448.80	5432.38
448.99	5650.05
449.17	5572.82
449.36	5750.70
449.54	5724.95
449.73	5645.37
449.91	5832.62
450.10	5692.18
450.28	5926.24
450.46	5818.57
450.65	5811.55
450.83	5640.69
451.02	5853.68
451.20	6005.81
451.39	5783.46
451.57	5849.00
451.76	5884.11
451.94	6031.56
452.13	5994.11
452.31	6024.54
452.49	6033.90
452.68	5940.28
452.86	5987.09
453.05	6179.01
453.23	6052.63
453.42	6012.84
453.60	5951.98
453.78	6139.23
453.97	6202.42
454.15	6090.07
454.34	6099.44
454.52	6225.82
454.70	6195.40
454.89	6160.29
455.07	6267.95
455.26	6377.96
455.44	6541.80
455.62	6502.01
455.81	6436.47
455.99	6590.95
456.17	6406.05
456.36	6296.04
456.54	6384.98
456.73	6504.35
456.91	6588.61
457.09	6724.36
457.28	6607.33
457.46	6546.48
457.64	6794.58
457.83	6745.42
458.01	6722.02
458.19	6785.21
458.38	6726.70
458.56	6906.92
458.74	6902.24
458.93	6820.32
459.11	6834.36
459.29	6932.67
459.48	6998.20
459.66	6953.73
459.84	6995.86
460.03	7208.85
460.21	7030.97
460.39	7014.59
460.57	7258.00
460.76	7197.15
460.94	7190.13
461.12	7222.89
461.31	7096.50
461.49	7021.61
461.67	7265.02
461.85	7403.11
462.04	7157.36
462.22	7489.71
462.40	7360.98
462.59	7527.16
462.77	7400.77
462.95	7426.52
463.13	7358.64
463.32	7417.16
463.50	7433.54
463.68	7559.93
463.86	7552.91
464.05	7389.07
464.23	7487.37
464.41	7475.67
464.59	7274.38
464.78	7700.36
464.96	7555.25
465.14	7536.52
465.32	7723.77
465.50	7779.94
465.69	7801.01
465.87	7801.01
466.05	7662.91
466.23	7646.53
466.41	7756.54
466.60	7920.37
466.78	7557.59
466.96	7726.11
467.14	7812.71
467.32	8002.29
467.51	7901.65
467.69	7602.06
467.87	7990.59
468.05	8098.25
468.23	7971.86
468.41	7995.27
468.60	8009.31
468.78	7922.71
468.96	8030.38
469.14	8180.17
469.32	8329.97
469.50	8037.40
469.69	8348.69
469.87	8491.46
470.05	8264.43
470.23	8365.07
470.41	8304.22
470.59	8397.84
470.77	8423.59
470.95	8346.35
471.14	8587.43
471.32	8514.87
471.50	8617.85
471.68	8760.63
471.86	8699.77
472.04	8713.81
472.22	8821.48
472.40	8613.17
472.58	8681.05
472.77	9027.45
472.95	9048.51
473.13	9298.95
473.31	8894.04
473.49	8716.16
473.67	8990.00
473.85	9055.53
474.03	9273.20
474.21	9137.45
474.39	9172.56
474.57	9329.38
474.75	9572.79
474.93	9500.23
475.12	9535.34
475.30	9525.98
475.48	9458.10
475.66	9610.24
475.84	9687.48
476.02	9853.66
476.20	9738.97
476.38	9923.87
476.56	10022.17
476.74	10045.58
476.92	9998.77
477.10	9958.98
477.28	9909.83
477.46	10167.29
477.64	10335.81
477.82	10370.91
478.00	10551.14
478.18	10656.46
478.36	10600.29
478.54	10995.84
478.72	10864.77
478.90	10787.53
479.08	10925.62
479.26	11112.86
479.44	10904.56
479.62	11201.80
479.80	11274.36
479.98	11529.48
480.16	11641.82
480.34	11477.99
480.52	11728.42
480.70	11595.01
480.88	11365.64
481.06	11859.49
481.24	11800.98
481.41	11934.39
481.59	12142.70
481.77	12210.57
481.95	12463.35
482.13	12091.21
482.31	12255.04
482.49	12638.89
482.67	12425.90
482.85	12858.90
483.03	12765.28
483.21	12933.80
483.39	13146.79
483.57	12917.42
483.74	13212.32
483.92	13504.89
484.10	13366.80
484.28	13626.60
484.46	13827.88
484.64	13837.25
484.82	13547.02
485.00	13870.01
485.18	14075.98
485.35	14190.67
485.53	14237.48
485.71	14340.46
485.89	14853.04
486.07	14686.86
486.25	14878.79
486.43	14714.95
486.61	14904.53
486.78	15185.40
486.96	14920.92
487.14	15370.30
487.32	15424.13
487.50	15712.02
487.68	15428.81
487.85	15681.59
488.03	15932.03
488.21	15789.25
488.39	16086.50
488.57	16301.83
488.75	16386.09
488.92	16535.88
489.10	16482.05
489.28	16835.47
489.46	17025.06
489.64	16863.56
489.81	16903.35
489.99	17252.09
490.17	17329.33
490.35	17369.12
490.53	17413.59
490.70	17642.96
490.88	17486.14
491.06	17919.14
491.24	18214.05
491.41	18160.22
491.59	18092.34
491.77	18310.01
491.95	18494.91
492.13	18576.83
492.30	18377.89
492.48	19197.07
492.66	18562.79
492.84	19220.48
493.01	19080.05
493.19	19176.01
493.37	19356.23
493.54	19110.47
493.72	19632.41
493.90	19337.51
494.08	19665.18
494.25	19679.22
494.43	19803.27
494.61	20023.28
494.79	20470.33
494.96	20236.27
495.14	20489.05
495.32	20671.61
495.49	20477.35
495.67	20926.73
495.85	20821.41
496.02	21146.74
496.20	21053.12
496.38	20896.30
496.55	21123.33
496.73	21834.86
496.91	21598.46
497.09	21600.80
497.26	21799.75
497.44	21949.54
497.62	21816.13
497.79	22195.30
497.97	21783.37
498.14	22492.55
498.32	22867.03
498.50	22487.87
498.67	22834.27
498.85	22733.62
499.03	23021.51
499.20	22944.27
499.38	22855.33
499.56	23248.54
499.73	22951.29
499.91	23297.69
500.08	23508.34
500.26	23508.34
500.44	23367.91
500.61	23683.88
500.79	23225.14
500.97	23861.76
501.14	24109.86
501.32	23976.45
501.49	24020.92
501.67	24151.99
501.84	24112.20
502.02	23807.93
502.20	24599.03
502.37	24222.20
502.55	24369.66
502.72	24608.39
502.90	24542.86
503.07	25029.69
503.25	24379.02
503.43	24751.17
503.60	25181.82
503.78	25177.14
503.95	25022.67
504.13	25266.08
504.30	25266.08
504.48	25259.06
504.65	25502.48
504.83	25848.88
505.01	25593.76
505.18	25656.95
505.36	26073.57
505.53	25928.45
505.71	26012.71
505.88	26040.80
506.06	25769.30
506.23	26338.05
506.41	26195.28
506.58	26600.19
506.76	26501.89
506.93	26593.17
507.11	26422.31
507.28	26408.26
507.46	27138.51
507.63	26810.84
507.81	26998.08
507.98	26799.13
508.16	27124.47
508.33	26986.38
508.50	27445.12
508.68	27384.27
508.85	27363.20
509.03	27166.60
509.20	27892.16
509.38	27903.87
509.55	27578.53
509.73	28128.56
509.90	27711.94
510.08	28158.99
510.25	27988.13
510.42	27810.25
510.60	28252.61
510.77	28175.37
510.95	28505.38
511.12	28147.28
511.30	28215.16
511.47	28659.86
511.64	28425.81
511.82	28671.56
511.99	28790.93
512.17	28739.44
512.34	28957.11
512.51	29142.01
512.69	29247.33
512.86	29237.97
513.04	29434.58
513.21	29193.50
513.38	29553.94
513.56	29586.71
513.73	29338.62
513.90	29282.44
514.08	29404.15
514.25	30115.67
514.43	30078.22
514.60	30120.35
514.77	30146.10
514.95	30267.81
515.12	30132.06
515.29	30094.61
515.47	30410.58
515.64	30506.54
515.81	30534.63
515.99	30525.27
516.16	30536.97
516.33	30719.53
516.51	30618.89
516.68	30574.42
516.85	30649.32
517.03	31056.57
517.20	31187.64
517.37	31206.36
517.54	31082.31
517.72	31255.51
517.89	31412.33
518.06	31442.76
518.24	31302.32
518.41	31290.62
518.58	31442.76
518.75	31395.95
518.93	31484.89
519.10	31754.05
519.27	31768.09
519.45	31744.69
519.62	32084.06
519.79	31915.54
519.96	32109.81
520.14	32306.41
520.31	32002.14
520.48	32388.33
520.65	32261.94
520.83	32486.64
521.00	32713.67
521.17	32540.47
521.34	32542.81
521.52	32596.64
521.69	33226.24
521.86	33090.49
522.03	32966.45
522.20	33160.71
522.38	33305.82
522.55	33486.04
522.72	33207.52
522.89	33411.15
523.07	33518.81
523.24	33537.54
523.41	33656.90
523.58	33256.67
523.75	33687.33
523.92	33249.65
524.10	33518.81
524.27	34012.66
524.44	33729.46
524.61	34096.92
524.78	33888.62
524.96	34054.79
525.13	34490.13
525.30	34410.56
525.47	34518.22
525.64	33930.75
525.81	34321.62
525.98	34450.35
526.16	34265.44
526.33	34576.73
526.50	34604.82
526.67	34490.13
526.84	34698.44
527.01	34525.24
527.18	34782.70
527.36	34759.30
527.53	35250.81
527.70	35278.89
527.87	35421.67
528.04	34801.43
528.21	35164.21
528.38	35557.42
528.55	35519.97
528.72	35370.18
528.89	35117.40
529.07	35213.36
529.24	34878.66
529.41	35871.05
529.58	35763.39
529.75	35637.00
529.92	35442.73
530.09	35709.55
530.26	35381.88
530.43	35910.84
530.60	35711.89
530.77	35569.12
530.94	35997.44
531.11	36470.23
531.28	35908.50
531.46	36072.34
531.63	36055.95
531.80	36250.22
531.97	36570.87
532.14	36252.56
532.31	36397.67
532.48	36634.06
532.65	36683.22
532.82	35941.27
532.99	36273.62
533.16	36137.87
533.33	36718.32
533.50	36849.39
533.67	36971.10
533.84	37003.87
534.01	36671.51
534.18	36744.07
534.35	37305.80
534.52	37376.01
534.69	36854.08
534.86	37303.46
535.03	37233.24
535.20	37481.34
535.37	37628.79
535.54	37347.93
535.71	36985.15
535.88	37886.25
536.05	36933.65
536.22	37558.58
536.38	37680.28
536.55	37691.99
536.72	37745.82
536.89	37429.85
537.06	37708.37
537.23	38010.30
537.40	38061.79
537.57	37352.61
537.74	38050.09
537.91	37923.70
538.08	37862.85
538.25	37364.31
538.42	37890.93
538.59	38405.85
538.75	38213.93
538.92	38291.16
539.09	38660.97
539.26	38469.04
539.43	38157.75
539.60	38780.34
539.77	38649.27
539.94	38618.84
540.11	38686.71
540.28	38873.96
540.44	38536.92
540.61	38202.22
540.78	38359.04
540.95	38534.58
541.12	38494.79
541.29	38426.92
541.46	39426.32
541.62	38799.06
541.79	39393.56
541.96	38628.20
542.13	39012.05
542.30	39030.77
542.47	39592.50
542.63	39545.69
542.80	39737.62
542.97	39632.29
543.14	40177.64
543.31	39196.95
543.48	39810.17
543.64	39910.82
543.81	39845.28
543.98	39856.98
544.15	39351.43
544.32	40081.67
544.48	40205.72
544.65	39704.85
544.82	40432.75
544.99	39840.60
545.16	40236.15
545.32	40210.40
545.49	40500.63
545.66	40582.55
545.83	40828.30
546.00	40479.57
546.16	40402.33
546.33	40067.63
546.50	40072.31
546.67	40577.87
546.83	40545.10
547.00	40615.32
547.17	40144.87
547.34	40722.98
547.50	40818.94
547.67	41111.51
547.84	40725.32
548.00	41312.80
548.17	40935.97
548.34	41045.97
548.51	41092.79
548.67	41401.74
548.84	41202.79
549.01	41141.94
549.18	41060.02
549.34	41291.73
549.51	41514.08
549.68	40945.33
549.84	41113.85
550.01	41624.09
550.18	41319.82
550.34	41759.84
550.51	41340.88
550.68	41284.71
550.84	41282.37
551.01	41326.84
551.18	41642.81
551.34	41383.01
551.51	41703.67
551.68	41715.37
551.84	41322.16
552.01	41900.27
552.18	41579.62
552.34	41706.01
552.51	42010.28
552.68	41563.23
552.84	41982.19
553.01	42047.72
553.18	42007.94
553.34	42209.22
553.51	41673.24
553.67	42080.49
553.84	42253.69
554.01	42253.69
554.17	42368.38
554.34	42483.06
554.51	41998.57
554.67	42527.53
554.84	43009.68
555.00	42391.78
555.17	42223.26
555.33	42726.48
555.50	42735.84
555.67	42370.72
555.83	42660.94
556.00	42759.25
556.16	42820.10
556.33	42588.39
556.50	42810.74
556.66	42698.39
556.83	42513.49
556.99	43318.64
557.16	42890.32
557.32	42885.64
557.49	43117.35
557.65	42962.87
557.82	42714.78
557.98	42660.94
558.15	43199.27
558.32	42995.64
558.48	43098.62
558.65	42937.13
558.81	43014.37
558.98	43028.41
559.14	43007.34
559.31	43358.42
559.47	43091.60
559.64	43002.66
559.80	43122.03
559.97	43557.37
560.13	43152.46
560.30	43072.88
560.46	43761.00
560.63	43744.61
560.79	43688.44
560.96	43498.86
561.12	43260.12
561.29	43250.76
561.45	43753.97
561.61	43515.24
561.78	43250.76
561.94	43583.12
562.11	43545.67
562.27	43531.62
562.44	43421.62
562.60	43576.09
562.77	43648.65
562.93	43529.28
563.10	43964.62
563.26	43555.03
563.42	44615.29
563.59	43313.95
563.75	43648.65
563.92	43892.07
564.08	43491.83
564.24	43629.93
564.41	43491.83
564.57	43454.39
564.74	44252.51
564.90	43606.52
565.07	43810.15
565.23	43826.53
565.39	43782.06
565.56	43686.10
565.72	43936.54
565.88	43978.67
566.05	44109.74
566.21	43681.42
566.38	43892.07
566.54	43913.13
566.70	43885.04
566.87	44006.75
567.03	44027.82
567.19	44411.67
567.36	44236.12
567.52	44069.95
567.68	44257.19
567.85	44243.15
568.01	44601.25
568.17	44236.12
568.34	43866.32
568.50	44832.96
568.66	44055.90
568.83	44224.42
568.99	44165.91
569.15	44491.24
569.32	43667.37
569.48	44205.70
569.64	44240.81
569.81	44676.15
569.97	44680.83
570.13	44559.12
570.30	44088.67
570.46	44273.57
570.62	44563.80
570.78	44194.00
570.95	44119.10
571.11	44605.93
571.27	43711.84
571.43	44165.91
571.60	44069.95
571.76	44535.71
571.92	44362.51
572.09	44533.37
572.25	43847.60
572.41	44332.09
572.57	44435.07
572.74	45010.84
572.90	44304.00
573.06	44704.23
573.22	44921.90
573.38	44891.48
573.55	44861.05
573.71	45069.36
573.87	44832.96
574.03	44655.08
574.20	45041.27
574.36	44470.18
574.52	44694.87
574.68	44891.48
574.84	44795.51
575.01	44643.38
575.17	44790.83
575.33	44673.81
575.49	44729.98
575.65	44814.24
575.82	44570.82
575.98	44708.91
576.14	45095.10
576.30	45062.33
576.46	44947.65
576.62	44727.64
576.79	44748.70
576.95	44531.03
577.11	44631.68
577.27	44973.39
577.43	44626.99
577.59	44605.93
577.75	44823.60
577.92	44547.42
578.08	44631.68
578.24	44896.16
578.40	44910.20
578.56	45191.06
578.72	45099.78
578.88	44947.65
579.04	44641.04
579.21	44680.83
579.37	44947.65
579.53	45062.33
579.69	44816.58
579.85	44854.03
580.01	44769.77
580.17	44708.91
580.33	45144.25
580.49	45237.87
580.65	44788.49
580.82	44692.53
580.98	44882.11
581.14	44392.94
581.30	44809.56
581.46	44818.92
581.62	44591.89
581.78	45177.02
581.94	44809.56
582.10	45027.23
582.26	45301.07
582.42	45144.25
582.58	44942.97
582.74	45006.16
582.90	45088.08
583.06	45322.13
583.22	44755.72
583.38	45254.26
583.54	44626.99
583.70	44596.57
583.86	44907.86
584.02	45265.96
584.18	45195.74
584.34	45226.17
584.50	45352.56
584.66	44978.07
584.82	45127.87
584.98	45605.34
585.14	45027.23
585.30	44863.39
585.46	45244.90
585.62	44949.99
585.78	45137.23
585.94	44907.86
586.10	44657.42
586.26	45036.59
586.42	45031.91
586.58	45305.75
586.74	45090.42
586.90	44870.41
587.06	45123.19
587.22	45492.99
587.38	45380.65
587.54	45338.52
587.70	45333.84
587.86	45092.76
588.02	45118.51
588.18	45296.39
588.34	45256.60
588.49	45308.09
588.65	45127.87
588.81	45439.16
588.97	45399.37
589.13	45368.94
589.29	45172.34
589.45	45617.04
589.61	45731.73
589.77	45654.49
589.93	45436.82
590.08	45614.70
590.24	45895.56
590.40	45734.07
590.56	46045.36
590.72	45720.02
590.88	45504.70
591.04	45516.40
591.20	45375.97
591.35	45411.07
591.51	45951.74
591.67	45626.40
591.83	45860.46
591.99	45560.87
592.15	45862.80
592.31	45563.21
592.46	45446.18
592.62	45794.92
592.78	46234.94
592.94	46298.14
593.10	45595.98
593.26	46213.88
593.41	46298.14
593.57	45696.62
593.73	46230.26
593.89	45801.94
594.05	45982.16
594.20	45872.16
594.36	45780.88
594.52	46089.83
594.68	46010.25
594.84	45631.08
594.99	46511.13
595.15	45549.17
595.31	45523.42
595.47	45830.03
595.62	46274.73
595.78	45329.16
595.94	46267.71
596.10	45961.10
596.25	45862.80
596.41	46010.25
596.57	45640.45
596.73	45958.76
596.88	46043.02
597.04	45563.21
597.20	46312.18
597.36	45834.71
597.51	45815.99
597.67	45853.44
597.83	45778.54
597.99	46270.05
598.14	45441.50
598.30	46199.83
598.46	45961.10
598.61	46071.10
598.77	45649.81
598.93	45940.04
599.09	45860.46
599.24	46377.72
599.40	46096.85
599.56	46150.68
599.71	46052.38
599.87	46543.89
600.03	46630.49
600.18	45851.09
600.34	45628.74
600.50	45975.14
600.65	46043.02
600.81	46209.20
600.97	45401.71
601.12	46314.52
601.28	46157.70
601.44	45755.13
601.59	46328.56
601.75	45713.00
601.91	46150.68
602.06	45954.08
602.22	46319.20
602.37	46066.42
602.53	46295.80
602.69	45923.65
602.84	45787.90
603.00	45715.34
603.16	46075.79
603.31	46000.89
603.47	46131.96
603.62	45790.24
603.78	46405.80
603.94	45998.55
604.09	46007.91
604.25	45729.39
604.40	45535.12
604.56	45923.65
604.71	46146.00
604.87	45467.25
605.03	45839.39
605.18	45930.67
605.34	46529.85
605.49	45827.69
605.65	45968.12
605.80	46361.33
605.96	45911.95
606.12	45713.00
606.27	45961.10
606.43	45530.44
606.58	46211.54
606.74	45684.92
606.89	45734.07
607.05	46082.81
607.20	46110.89
607.36	45343.20
607.51	45780.88
607.67	45518.74
607.82	45848.75
607.98	45546.82
608.13	45907.27
608.29	45745.77
608.44	45591.30
608.60	45221.49
608.75	45766.84
608.91	45972.80
609.06	45476.61
609.22	45961.10
609.37	45366.60
609.53	46024.29
609.68	45778.54
609.84	45502.35
609.99	45759.81
610.15	45614.70
610.30	46047.70
610.46	45696.62
610.61	45837.05
610.76	46014.93
610.92	45762.15
611.07	45584.27
611.23	45443.84
611.38	45467.25
611.54	45881.52
611.69	45680.24
611.84	45640.45
612.00	45495.33
612.15	45624.06
612.31	45762.15
612.46	45247.24
612.62	45364.26
612.77	45691.94
612.92	45883.86
613.08	45497.67
613.23	45523.42
613.39	45551.51
613.54	44968.71
613.69	45404.05
613.85	45272.98
614.00	45361.92
614.15	45371.28
614.31	44931.26
614.46	45481.29
614.62	45275.32
614.77	45427.46
614.92	45448.52
615.08	45207.45
615.23	45010.84
615.38	45361.92
615.54	44816.58
615.69	45474.27
615.84	45202.77
616.00	45633.42
616.15	45382.99
616.30	45254.26
616.46	45345.54
616.61	45095.10
616.76	45425.12
616.92	45085.74
617.07	45319.79
617.22	44973.39
617.37	44790.83
617.53	45092.76
617.68	45022.54
617.83	45202.77
617.99	45272.98
618.14	45312.77
618.29	44184.63
618.45	44535.71
618.60	44226.76
618.75	44596.57
618.90	44699.55
619.06	44971.05
619.21	45146.59
619.36	45090.42
619.51	44542.74
619.67	44570.82
619.82	44306.34
619.97	45120.85
620.12	44226.76
620.28	44507.63
620.43	44746.36
620.58	44472.52
620.73	44711.25
620.89	44748.70
621.04	44718.28
621.19	44737.00
621.34	44554.44
621.49	44301.66
621.65	44507.63
621.80	44952.33
621.95	44191.65
622.10	44594.23
622.25	44364.85
622.41	44273.57
622.56	43913.13
622.71	44240.81
622.86	44547.42
623.01	44563.80
623.16	44189.31
623.32	44273.57
623.47	44542.74
623.62	44399.96
623.77	44615.29
623.92	43955.26
624.07	44313.36
624.23	44486.56
624.38	44158.89
624.53	43952.92
624.68	43779.72
624.83	43964.62
624.98	44226.76
625.13	43716.53
625.29	43777.38
625.44	44186.97
625.59	43824.19
625.74	44320.38
625.89	43555.03
626.04	43749.29
626.19	44093.35
626.34	43529.28
626.49	43536.30
626.65	43248.42
626.80	43686.10
626.95	43674.40
627.10	43438.00
627.25	43395.87
627.40	43353.74
627.55	43154.80
627.70	43711.84
627.85	43569.07
628.00	43255.44
628.15	43674.40
628.30	42852.87
628.45	42831.80
628.60	43154.80
628.76	43304.59
628.91	43225.01
629.06	43318.64
629.21	43140.75
629.36	43320.98
629.51	43328.00
629.66	43072.88
629.81	43304.59
629.96	43232.04
630.11	43182.88
630.26	42960.53
630.41	43199.27
630.56	43225.01
630.71	43115.01
630.86	43037.77
631.01	42703.07
631.16	43260.12
631.31	42745.20
631.46	42962.87
631.61	42691.37
631.76	42792.01
631.91	43124.37
632.06	43166.50
632.21	43292.89
632.36	43316.29
632.51	42787.33
632.66	43098.62
632.81	42483.06
632.96	43126.71
633.10	42752.23
633.25	42829.46
633.40	42527.53
633.55	42850.53
633.70	42469.02
633.85	42506.47
634.00	41970.49
634.15	42087.51
634.30	42288.80
634.45	42756.91
634.60	42422.21
634.75	42813.08
634.90	42319.23
635.05	42169.43
635.19	42206.88
635.34	42408.17
635.49	42513.49
635.64	42438.59
635.79	42110.92
635.94	42286.46
636.09	42511.15
636.24	42033.68
636.39	42284.12
636.53	42321.57
636.68	41825.37
636.83	42459.66
636.98	42438.59
637.13	41757.50
637.28	41823.03
637.43	41860.48
637.57	42146.03
637.72	41853.46
637.87	42284.12
638.02	42356.67
638.17	41883.89
638.32	41593.66
638.46	41867.50
638.61	41453.23
638.76	41839.42
638.91	41783.24
639.06	41464.93
639.20	41876.86
639.35	41748.14
639.50	41352.58
639.65	41689.62
639.80	41855.80
639.94	41865.16
640.09	41940.06
640.24	41720.05
640.39	40655.11
640.54	41256.62
640.68	41532.81
640.83	41645.15
640.98	41359.61
641.13	41240.24
641.27	41514.08
641.42	41425.14
641.57	41010.87
641.72	41432.16
641.86	41116.19
642.01	40840.01
642.16	41223.86
642.31	40605.95
642.45	41265.99
642.60	40641.06
642.75	41050.66
642.90	41469.61
643.04	41432.16
643.19	40612.98
643.34	40999.16
643.48	40605.95
643.63	40884.48
643.78	40844.69
643.93	40973.42
644.07	40828.30
644.22	40804.90
644.37	40657.45
644.51	41017.89
644.66	40477.22
644.81	40835.33
644.95	40790.86
645.10	41045.97
645.25	40662.13
645.39	40596.59
645.54	40369.56
645.69	40474.88
645.83	40112.10
645.98	40449.14
646.13	40182.32
646.27	40446.80
646.42	39826.56
646.57	40474.88
646.71	40692.55
646.86	40985.12
647.00	40507.65
647.15	40552.12
647.30	40484.25
647.44	40559.14
647.59	40133.17
647.74	40488.93
647.88	40240.83
648.03	40884.48
648.17	40481.91
648.32	40472.54
648.47	40634.04
648.61	40479.57
648.76	40364.88
648.90	40060.61
649.05	40018.48
649.20	39978.69
649.34	39730.59
649.49	40238.49
649.63	39959.97
649.78	40175.30
649.92	39786.77
650.07	40414.03
650.21	39983.37
650.36	40762.77
650.51	40268.92
650.65	40053.59
650.80	40311.05
650.94	39899.11
651.09	39695.49
651.23	39491.86
651.38	39704.85
651.52	39510.58
651.67	39959.97
651.81	39772.72
651.96	39526.97
652.10	39512.92
652.25	39126.74
652.39	39744.64
652.54	39299.94
652.68	39255.46
652.83	39395.90
652.97	39405.26
653.12	39707.19
653.26	39583.14
653.41	39400.58
653.55	39157.16
653.70	40016.14
653.84	39533.99
653.99	39613.57
654.13	39093.97
654.27	39349.09
654.42	39302.28
654.56	39442.71
654.71	39199.29
654.85	39054.18
655.00	39627.61
655.14	39702.51
655.29	39271.85
655.43	39388.88
655.57	39360.79
655.72	38934.81
655.86	38778.00
656.01	38494.79
656.15	38733.53
656.30	38939.49
656.44	39136.10
656.58	39136.10
656.73	38792.04
656.87	38162.43
657.01	38272.44
657.16	38782.68
657.30	38829.49
657.45	38876.30
657.59	38817.78
657.73	38588.41
657.88	38939.49
658.02	38930.13
658.16	38993.32
658.31	38866.94
658.45	38778.00
658.60	38216.27
658.74	38649.27
658.88	38717.14
659.03	38405.85
659.17	38337.98
659.31	38359.04
659.46	38139.03
659.60	38249.03
659.74	38148.39
659.89	38096.90
660.03	37165.37
660.17	38106.26
660.32	37888.59
660.46	38286.48
660.60	37780.93
660.74	38000.94
660.89	38408.19
661.03	37104.51
661.17	37263.67
661.32	37354.95
661.46	37434.53
661.60	37406.44
661.74	37305.80
661.89	37420.48
662.03	37383.04
662.17	37652.20
662.31	37177.07
662.46	37450.91
662.60	36938.33
662.74	37027.28
662.88	36741.73
663.03	36549.81
663.17	36573.21
663.31	36486.61
663.45	37305.80
663.60	37261.33
663.74	37146.64
663.88	36470.23
664.02	36954.72
664.17	36825.99
664.31	36243.20
664.45	36004.46
664.59	36032.55
664.73	36191.70
664.88	36191.70
665.02	35866.37
665.16	36088.72
665.30	36266.60
665.44	36369.58
665.59	35847.64
665.73	36203.41
665.87	35592.53
666.01	35901.48
666.15	35789.13
666.29	36070.00
666.44	35985.74
666.58	35772.75
666.72	35576.14
666.86	35601.89
667.00	35737.64
667.14	35601.89
667.28	35372.52
667.43	35201.66
667.57	35306.98
667.71	35721.26
667.85	35557.42
667.99	35234.42
668.13	35274.21
668.27	34878.66
668.41	35173.57
668.56	34763.98
668.70	34522.90
668.84	34513.54
668.98	34993.35
669.12	34635.25
669.26	34930.16
669.40	34668.02
669.54	34660.99
669.68	34761.64
669.82	34223.31
669.96	34733.55
670.10	34394.17
670.25	34483.11
670.39	33930.75
670.53	34101.61
670.67	34279.49
670.81	34422.26
670.95	34082.88
671.09	33890.96
671.23	33549.24
671.37	33860.53
671.51	33692.01
671.65	33610.09
671.79	33144.33
671.93	33773.93
672.07	33748.18
672.21	33675.63
672.35	33261.35
672.49	33256.67
672.63	33406.47
672.77	33081.13
672.91	33347.95
673.05	33212.20
673.19	33106.88
673.33	32762.82
673.47	32919.63
673.61	32299.39
673.75	32870.48
673.89	32275.99
674.03	32245.56
674.17	32362.59
674.31	32105.13
674.45	32212.79
674.59	32266.63
674.73	32161.30
674.87	31917.89
675.01	31475.52
675.15	31592.55
675.29	31927.25
675.43	31845.33
675.56	31772.77
675.70	31859.37
675.84	31447.44
675.98	30876.35
676.12	31290.62
676.26	31480.21
676.40	31023.80
676.54	31077.63
676.68	30923.16
676.82	30345.05
676.96	30747.62
677.10	30859.96
677.23	30408.24
677.37	30361.43
677.51	30356.75
677.65	30632.93
677.79	30569.74
677.93	30120.35
678.07	29947.15
678.21	29820.77
678.34	29874.60
678.48	29907.37
678.62	29528.20
678.76	29603.10
678.90	29668.63
679.04	29802.04
679.18	29509.47
679.31	29153.71
679.45	29289.46
679.59	28521.77
679.73	29469.69
679.87	28570.92
680.00	28826.04
680.14	28865.83
680.28	28952.43
680.42	28709.01
680.56	28093.45
680.70	28126.22
680.83	27903.87
680.97	27948.34
681.11	28348.57
681.25	27688.54
681.39	27735.35
681.52	27798.54
681.66	27384.27
681.80	27108.08
681.94	27484.91
682.07	27463.85
682.21	27351.50
682.35	26827.22
682.49	26925.52
682.62	26661.04
682.76	26899.78
682.90	26754.66
683.04	27075.32
683.17	26808.50
683.31	26911.48
683.45	26597.85
683.59	26202.30
683.72	25685.04
683.86	26235.06
684.00	25678.02
684.13	26094.63
684.27	25504.82
684.41	25673.34
684.55	25546.95
684.68	25614.82
684.82	24964.15
684.96	25195.87
685.09	25329.28
685.23	25404.17
685.37	25458.01
685.50	25216.93
685.64	25102.25
685.78	25177.14
685.91	24924.36
686.05	24400.08
686.19	24030.28
686.32	24491.37
686.46	24173.05
686.60	24430.51
686.73	24264.33
686.87	24222.20
687.01	24594.35
687.14	24446.90
687.28	24257.31
687.42	23997.51
687.55	23737.71
687.69	23854.74
687.82	23784.52
687.96	23391.31
688.10	23826.65
688.23	23363.23
688.37	23548.13
688.50	23424.08
688.64	23314.08
688.78	23058.96
688.91	23049.60
689.05	23157.26
689.18	22558.08
689.32	22370.84
689.46	22312.33
689.59	22202.32
689.73	22506.59
689.86	22869.37
690.00	22618.94
690.13	22295.94
690.27	22134.45
690.41	21895.71
690.54	22143.81
690.68	21727.19
690.81	21397.18
690.95	21605.49
691.08	21474.42
691.22	21254.40
691.35	21090.57
691.49	21385.47
691.62	21170.15
691.76	20798.00
691.89	21027.37
692.03	20486.71
692.16	20875.24
692.30	20851.83
692.43	20659.91
692.57	20362.66
692.70	20170.74
692.84	20266.70
692.97	20135.63
693.11	20128.61
693.24	19871.15
693.38	19950.73
693.51	19847.74
693.65	19639.44
693.78	19562.20
693.92	19527.09
694.05	19433.47
694.19	19267.29
694.32	19587.94
694.45	19751.78
694.59	19367.93
694.72	19613.69
694.86	19241.54
694.99	19075.37
695.13	18944.30
695.26	18576.83
695.39	18387.25
695.53	18604.92
695.66	18663.43
695.80	18530.02
695.93	18438.74
696.07	18225.75
696.20	17802.11
696.33	17994.04
696.47	17961.27
696.60	17923.82
696.73	17900.42
696.87	17680.41
697.00	17921.48
697.14	17666.36
697.27	17238.05
697.40	17427.63
697.54	17326.99
697.67	17301.24
697.80	17462.74
697.94	16968.88
698.07	17128.04
698.21	17181.87
698.34	17106.98
698.47	16798.02
698.61	16706.74
698.74	16514.82
698.87	16456.31
699.01	16360.34
699.14	16570.99
699.27	16439.92
699.40	16182.46
699.54	16030.33
699.67	16262.04
699.80	16212.89
699.94	15925.00
700.07	15985.86
700.20	15983.52
700.34	15910.96
700.47	15655.84
700.60	15906.28
700.73	15747.12
700.87	15454.56
701.00	15468.60
701.13	15342.21
701.26	15124.54
701.40	15400.72
701.53	15152.63
701.66	15084.75
701.79	14998.15
701.93	14703.25
702.06	14703.25
702.19	15147.95
702.32	14670.48
702.46	14801.55
702.59	14721.97
702.72	14761.76
702.85	14476.21
702.99	14567.49
703.12	14335.78
703.25	14235.14
703.38	13923.85
703.51	14331.10
703.65	13811.50
703.78	13675.75
703.91	13947.25
704.04	13699.16
704.17	13624.26
704.31	13722.56
704.44	13659.37
704.57	13441.70
704.70	13521.27
704.83	13472.12
704.96	13266.16
705.10	13174.88
705.23	12999.34
>>>>>End Processed Spectral Data<<<<<
