SpectraSuite Data File
++++++++++++++++++++++++++++++++++++
Date: Fri Oct 25 11:34:16 EDT 2013
User: price-jones
Dark Spectrum Present: No
Reference Spectrum Present: No
Number of Sampled Component Spectra: 1
Spectrometers: USB2+H05261
Integration Time (usec): 100000 (USB2+H05261)
Spectra Averaged: 1 (USB2+H05261)
Boxcar Smoothing: 0 (USB2+H05261)
Correct for Electrical Dark: No (USB2+H05261)
Strobe/Lamp Enabled: No (USB2+H05261)
Correct for Detector Non-linearity: No (USB2+H05261)
Correct for Stray Light: No (USB2+H05261)
Number of Pixels in Processed Spectrum: 2048
>>>>>Begin Processed Spectral Data<<<<<
365.73	255.12
365.92	255.12
366.12	255.12
366.32	234.05
366.52	208.31
366.72	189.58
366.91	163.84
367.11	180.22
367.31	175.54
367.51	201.29
367.70	149.79
367.90	220.01
368.10	154.48
368.30	196.60
368.49	229.37
368.69	227.03
368.89	266.82
369.09	201.29
369.28	121.71
369.48	222.35
369.68	255.12
369.87	243.42
370.07	215.33
370.27	280.86
370.47	348.74
370.66	454.06
370.86	543.00
371.06	585.13
371.25	599.18
371.45	533.64
371.65	620.24
371.84	498.53
372.04	578.11
372.24	517.26
372.44	552.37
372.63	545.34
372.83	627.26
373.03	645.99
373.22	601.52
373.42	578.11
373.62	629.60
373.81	624.92
374.01	636.63
374.21	641.31
374.40	690.46
374.60	674.07
374.79	685.78
374.99	671.73
375.19	746.63
375.38	716.20
375.58	585.13
375.78	596.84
375.97	683.44
376.17	671.73
376.37	683.44
376.56	613.22
376.76	608.54
376.95	617.90
377.15	627.26
377.35	753.65
377.54	599.18
377.74	643.65
377.93	622.58
378.13	706.84
378.33	685.78
378.52	667.05
378.72	753.65
378.91	669.39
379.11	697.48
379.31	671.73
379.50	702.16
379.70	744.29
379.89	748.97
380.09	748.97
380.28	685.78
380.48	716.20
380.68	615.56
380.87	655.35
381.07	688.12
381.26	767.70
381.46	713.86
381.65	734.93
381.85	779.40
382.04	681.10
382.24	737.27
382.43	826.21
382.63	767.70
382.83	781.74
383.02	854.30
383.22	791.10
383.41	751.31
383.61	746.63
383.80	816.85
384.00	770.04
384.19	763.01
384.39	755.99
384.58	781.74
384.78	873.02
384.97	856.64
385.17	798.12
385.36	814.51
385.56	877.70
385.75	847.27
385.95	868.34
386.14	940.90
386.34	849.61
386.53	812.17
386.72	830.89
386.92	912.81
387.11	866.00
387.31	884.72
387.50	800.46
387.70	837.91
387.89	889.40
388.09	849.61
388.28	844.93
388.48	894.08
388.67	933.87
388.86	922.17
389.06	887.06
389.25	887.06
389.45	940.90
389.64	985.37
389.84	994.73
390.03	947.92
390.22	922.17
390.42	936.21
390.61	901.11
390.81	933.87
391.00	1020.47
391.19	1025.15
391.39	954.94
391.58	959.62
391.78	940.90
391.97	1011.11
392.16	973.66
392.36	1050.90
392.55	1013.45
392.75	950.26
392.94	983.02
393.13	1071.97
393.33	1043.88
393.52	1125.80
393.71	1074.31
393.91	1074.31
394.10	1055.58
394.29	1011.11
394.49	1100.05
394.68	1032.18
394.88	1123.46
395.07	1071.97
395.26	1086.01
395.46	1158.57
395.65	1174.95
395.84	1181.97
396.04	1146.86
396.23	1163.25
396.42	1214.74
396.62	1200.69
396.81	1149.20
397.00	1207.72
397.19	1170.27
397.39	1144.52
397.58	1224.10
397.77	1158.57
397.97	1308.36
398.16	1252.19
398.35	1273.25
398.55	1186.65
398.74	1273.25
398.93	1315.38
399.12	1249.85
399.32	1231.12
399.51	1294.32
399.70	1254.53
399.90	1270.91
400.09	1287.29
400.28	1348.15
400.47	1350.49
400.67	1416.02
400.86	1411.34
401.05	1411.34
401.24	1357.51
401.44	1427.73
401.63	1476.88
401.82	1446.45
402.01	1411.34
402.21	1411.34
402.40	1387.94
402.59	1387.94
402.78	1467.52
402.97	1511.99
403.17	1572.84
403.36	1584.54
403.55	1411.34
403.74	1493.26
403.93	1509.65
404.13	1565.82
404.32	1526.03
404.51	1612.63
404.70	1507.30
404.89	1643.06
405.09	1657.10
405.28	1570.50
405.47	1621.99
405.66	1561.14
405.85	1664.12
406.05	1708.59
406.24	1673.48
406.43	1687.53
406.62	1797.53
406.81	1764.76
407.00	1678.16
407.20	1708.59
407.39	1748.38
407.58	1820.94
407.77	1797.53
407.96	1762.42
408.15	1870.09
408.34	1710.93
408.54	1867.75
408.73	1884.13
408.92	1834.98
409.11	1870.09
409.30	1954.35
409.49	2026.90
409.68	1994.14
409.87	2012.86
410.07	1930.94
410.26	1977.75
410.45	2040.95
410.64	2078.40
410.83	2054.99
411.02	2059.67
411.21	2099.46
411.40	2097.12
411.59	2094.78
411.78	2176.70
411.98	2111.16
412.17	2335.85
412.36	2200.10
412.55	2202.44
412.74	2317.13
412.93	2237.55
413.12	2228.19
413.31	2377.98
413.50	2312.45
413.69	2277.34
413.88	2581.61
414.07	2506.71
414.26	2359.26
414.45	2448.20
414.64	2541.82
414.83	2485.65
415.02	2452.88
415.22	2628.42
415.41	2633.10
415.60	2672.89
415.79	2586.29
415.98	2597.99
416.17	2649.49
416.36	2569.91
416.55	2801.62
416.74	2628.42
416.93	2722.04
417.12	2663.53
417.31	2892.90
417.50	2832.05
417.69	2909.29
417.88	2935.03
418.07	2841.41
418.26	2925.67
418.45	2855.45
418.64	2888.22
418.83	3012.27
419.02	2904.60
419.21	3066.10
419.39	3112.91
419.58	2984.18
419.77	2869.50
419.96	3009.93
420.15	3126.96
420.34	3089.51
420.53	3155.04
420.72	3110.57
420.91	3108.23
421.10	3126.96
421.29	3246.32
421.48	3272.07
421.67	3173.77
421.86	3213.56
422.05	3194.83
422.24	3328.24
422.43	3293.13
422.61	3162.06
422.80	3267.39
422.99	3117.59
423.18	3290.79
423.37	3410.16
423.56	3260.37
423.75	3215.90
423.94	3283.77
424.13	3023.97
424.32	3215.90
424.50	3218.24
424.69	3456.97
424.88	3314.20
425.07	3339.94
425.26	3208.87
425.45	3297.81
425.64	3318.88
425.83	3412.50
426.01	3307.18
426.20	3377.39
426.39	3379.73
426.58	3417.18
426.77	3346.97
426.96	3417.18
427.15	3428.88
427.33	3496.76
427.52	3517.83
427.71	3529.53
427.90	3440.59
428.09	3494.42
428.28	3609.11
428.46	3583.36
428.65	3602.08
428.84	3651.24
429.03	3574.00
429.22	3482.72
429.40	3616.13
429.59	3658.26
429.78	3571.66
429.97	3510.80
430.16	3630.17
430.34	3604.42
430.53	3812.73
430.72	3808.05
430.91	3707.41
431.10	3688.68
431.28	3812.73
431.47	3831.46
431.66	3805.71
431.85	3922.74
432.03	3866.56
432.22	3845.50
432.41	3999.98
432.60	3885.29
432.79	3941.46
432.97	4032.74
433.16	3967.21
433.35	3901.67
433.54	4004.66
433.72	4065.51
433.91	4046.79
434.10	4208.28
434.28	4112.32
434.47	4184.88
434.66	4271.48
434.85	4208.28
435.03	4217.65
435.22	4135.73
435.41	4308.93
435.59	4388.50
435.78	4236.37
435.97	4374.46
436.16	4248.07
436.34	4311.27
436.53	4262.12
436.72	4393.19
436.90	4372.12
437.09	4423.61
437.28	4315.95
437.46	4395.53
437.65	4437.66
437.84	4329.99
438.02	4456.38
438.21	4610.86
438.40	4402.55
438.58	4631.92
438.77	4631.92
438.96	4667.03
439.14	4561.70
439.33	4770.01
439.52	4819.16
439.70	4734.90
439.89	4802.78
440.08	4779.37
440.26	4945.55
440.45	4910.44
440.63	4961.94
440.82	4994.70
441.01	4933.85
441.19	4964.28
441.38	4971.30
441.57	4978.32
441.75	5015.77
441.94	5352.81
442.12	5219.39
442.31	5324.72
442.50	5411.32
442.68	5359.83
442.87	5310.68
443.05	5284.93
443.24	5369.19
443.43	5359.83
443.61	5366.85
443.80	5455.79
443.98	5280.25
444.17	5205.35
444.35	5350.46
444.54	5568.13
444.73	5514.30
444.91	5427.70
445.10	5441.75
445.28	5500.26
445.47	5504.94
445.65	5373.87
445.84	5404.30
446.02	5509.62
446.21	5563.45
446.39	5542.39
446.58	5570.48
446.77	5483.88
446.95	5488.56
447.14	5671.12
447.32	5523.66
447.51	5628.99
447.69	5633.67
447.88	5664.10
448.06	5575.16
448.25	5577.50
448.43	5558.77
448.62	5561.11
448.80	5612.60
448.99	5636.01
449.17	5706.23
449.36	5785.80
449.54	5694.52
449.73	5942.62
449.91	5853.68
450.10	5919.21
450.28	6003.47
450.46	5844.32
450.65	5865.38
450.83	6012.84
451.02	6001.13
451.20	6120.50
451.39	5954.32
451.57	6015.18
451.76	5984.75
451.94	6073.69
452.13	6134.54
452.31	6218.80
452.49	5959.00
452.68	6148.59
452.86	6047.94
453.05	6059.65
453.23	6239.87
453.42	6097.10
453.60	6242.21
453.78	6274.98
453.97	6150.93
454.15	6033.90
454.34	6265.61
454.52	6342.85
454.70	6129.86
454.89	6396.68
455.07	6333.49
455.26	6464.56
455.44	6607.33
455.62	6532.44
455.81	6480.94
455.99	6462.22
456.17	6628.40
456.36	6635.42
456.54	6567.54
456.73	6712.66
456.91	6712.66
457.09	6731.38
457.28	6850.75
457.46	6813.30
457.64	6825.00
457.83	6825.00
458.01	6808.62
458.19	7007.56
458.38	6792.23
458.56	6993.52
458.74	7110.55
458.93	6888.20
459.11	6944.37
459.29	7052.03
459.48	7089.48
459.66	7122.25
459.84	7176.08
460.03	7157.36
460.21	7077.78
460.39	7075.44
460.57	7169.06
460.76	7325.88
460.94	7185.44
461.12	7222.89
461.31	7199.49
461.49	7337.58
461.67	7286.09
461.85	7487.37
462.04	7286.09
462.22	7772.92
462.40	7639.51
462.59	7492.05
462.77	7398.43
462.95	7405.46
463.13	7604.40
463.32	7550.57
463.50	7714.41
463.68	7955.48
463.86	7644.19
464.05	7499.08
464.23	7545.89
464.41	7651.21
464.59	7447.58
464.78	7962.50
464.96	7803.35
465.14	7698.02
465.32	7681.64
465.50	7875.90
465.69	7976.55
465.87	7817.39
466.05	7913.35
466.23	8056.12
466.41	7903.99
466.60	8203.58
466.78	8002.29
466.96	7763.56
467.14	7950.80
467.32	7871.22
467.51	8067.83
467.69	8060.80
467.87	8145.06
468.05	8175.49
468.23	7990.59
468.41	8072.51
468.60	8159.11
468.78	8208.26
468.96	8037.40
469.14	8407.20
469.32	8423.59
469.50	8250.39
469.69	8383.80
469.87	8404.86
470.05	8468.06
470.23	8603.81
470.41	8449.33
470.59	8365.07
470.77	8512.53
470.95	8608.49
471.14	8702.11
471.32	8622.53
471.50	8636.58
471.68	8835.52
471.86	8807.44
472.04	8830.84
472.22	9053.19
472.40	8564.02
472.58	9057.87
472.77	9057.87
472.95	9029.79
473.13	9423.00
473.31	9095.32
473.49	9245.12
473.67	9034.47
473.85	9317.67
474.03	9427.68
474.21	9247.46
474.39	9366.82
474.57	9708.54
474.75	9423.00
474.93	9516.62
475.12	9523.64
475.30	9570.45
475.48	9715.56
475.66	9675.77
475.84	9785.78
476.02	9846.63
476.20	9891.10
476.38	9909.83
476.56	10464.54
476.74	10003.45
476.92	10256.23
477.10	9989.41
477.28	10310.06
477.46	10436.45
477.64	10452.83
477.82	10686.89
478.00	10827.32
478.18	10700.93
478.36	10714.97
478.54	11082.44
478.72	10972.43
478.90	11150.31
479.08	11204.14
479.26	11190.10
479.44	11485.01
479.62	11323.51
479.80	11449.90
479.98	11459.26
480.16	11829.07
480.34	11407.77
480.52	12039.72
480.70	11896.94
480.88	11765.87
481.06	12056.10
481.24	12222.28
481.41	12383.77
481.59	12229.30
481.77	12498.46
481.95	12362.71
482.13	12432.93
482.31	12723.15
482.49	12931.46
482.67	12821.45
482.85	12975.93
483.03	13149.13
483.21	12938.48
483.39	13146.79
483.57	13121.04
483.74	13427.65
483.92	13607.87
484.10	13561.06
484.28	13715.54
484.46	13994.06
484.64	14104.07
484.82	13958.96
485.00	14101.73
485.18	14354.51
485.35	14553.45
485.53	14417.70
485.71	14354.51
485.89	15206.46
486.07	14836.66
486.25	14862.40
486.43	14855.38
486.61	15105.82
486.78	15213.48
486.96	15452.22
487.14	15503.71
487.32	15653.50
487.50	15887.56
487.68	15747.12
487.85	16112.25
488.03	16102.89
488.21	16439.92
488.39	16329.92
488.57	16556.95
488.75	16456.31
488.92	16688.02
489.10	16844.84
489.28	17011.01
489.46	17249.75
489.64	16973.56
489.81	17617.21
489.99	17476.78
490.17	17589.13
490.35	17757.64
490.53	18003.40
490.70	18218.73
490.88	17860.63
491.06	18225.75
491.24	18061.91
491.41	18457.46
491.59	18576.83
491.77	18443.42
491.95	18628.32
492.13	18925.57
492.30	18946.64
492.48	19096.43
492.66	19178.35
492.84	19131.54
493.01	19665.18
493.19	19463.90
493.37	19466.24
493.54	19543.47
493.72	19992.86
493.90	19819.66
494.08	19885.19
494.25	20390.75
494.43	20264.36
494.61	20376.70
494.79	20655.23
494.96	20517.14
495.14	20720.76
495.32	20851.83
495.49	20643.52
495.67	20957.16
495.85	21425.26
496.02	21406.54
496.20	21462.71
496.38	21802.09
496.55	21809.11
496.73	22146.15
496.91	21804.43
497.09	22192.96
497.26	21970.61
497.44	22199.98
497.62	22209.34
497.79	22780.43
497.97	22616.60
498.14	23105.77
498.32	22888.10
498.50	23000.44
498.67	23075.34
498.85	23033.21
499.03	23094.07
499.20	23508.34
499.38	23150.24
499.56	23513.02
499.73	23543.45
499.91	23924.96
500.08	23819.63
500.26	23871.12
500.44	23786.86
500.61	23896.87
500.79	24114.54
500.97	24130.92
501.14	24542.86
501.32	24694.99
501.49	24400.08
501.67	24713.72
501.84	24957.13
502.02	24697.33
502.20	24907.98
502.37	24687.97
502.55	24922.02
502.72	25008.62
502.90	25071.82
503.07	24896.28
503.25	25511.84
503.43	25160.76
503.60	25394.81
503.78	25462.69
503.95	25242.68
504.13	25558.65
504.30	25865.26
504.48	26008.03
504.65	26005.69
504.83	26122.72
505.01	26536.99
505.18	26174.21
505.36	26169.53
505.53	26536.99
505.71	26146.12
505.88	26492.52
506.06	26670.40
506.23	26923.18
506.41	26920.84
506.58	26962.97
506.76	26693.81
506.93	26920.84
507.11	26955.95
507.28	26981.70
507.46	27285.97
507.63	27594.92
507.81	27260.22
507.98	27449.80
508.16	27421.72
508.33	27505.98
508.50	27969.40
508.68	28205.80
508.85	28079.41
509.03	27896.85
509.20	27910.89
509.38	28100.47
509.55	28470.28
509.73	28521.77
509.90	28367.29
510.08	28587.30
510.25	28753.48
510.42	28615.39
510.60	28498.36
510.77	28900.94
510.95	29076.48
511.12	28987.53
511.30	29057.75
511.47	28922.00
511.64	29139.67
511.82	29177.12
511.99	29291.80
512.17	29612.46
512.34	29528.20
512.51	29589.05
512.69	29935.45
512.86	29858.21
513.04	30148.44
513.21	29993.97
513.38	30143.76
513.56	30136.74
513.73	29853.53
513.90	30218.66
514.08	30216.32
514.25	30253.76
514.43	30866.98
514.60	30506.54
514.77	30668.04
514.95	30649.32
515.12	30616.55
515.29	30883.37
515.47	30668.04
515.64	30974.65
515.81	30618.89
515.99	31215.72
516.16	31695.53
516.33	31393.61
516.51	31447.44
516.68	31239.13
516.85	31255.51
517.03	31709.58
517.20	31445.10
517.37	31456.80
517.54	32226.84
517.72	31992.78
517.89	32219.81
518.06	31950.65
518.24	31615.96
518.41	31915.54
518.58	32030.23
518.75	32093.43
518.93	31978.74
519.10	32313.44
519.27	32051.30
519.45	32704.31
519.62	32720.69
519.79	32748.78
519.96	32795.59
520.14	32811.97
520.31	32570.90
520.48	32648.13
520.65	32996.87
520.83	33383.06
521.00	32973.47
521.17	33046.02
521.34	33202.84
521.52	33408.81
521.69	33462.64
521.86	33188.80
522.03	33621.80
522.20	33787.97
522.38	33827.76
522.55	33947.13
522.72	33958.83
522.89	33961.17
523.07	34235.02
523.24	34106.29
523.41	34270.12
523.58	34024.37
523.75	34471.41
523.92	34160.12
524.10	34464.39
524.27	34553.33
524.44	34579.07
524.61	34967.60
524.78	34553.33
524.96	34759.30
525.13	34586.10
525.30	35093.99
525.47	35339.75
525.64	34904.41
525.81	34958.24
525.98	34815.47
526.16	35321.02
526.33	34836.53
526.50	35208.68
526.67	35082.29
526.84	35328.05
527.01	35477.84
527.18	35761.05
527.36	35431.03
527.53	35791.47
527.70	35952.97
527.87	35620.61
528.04	35805.52
528.21	36201.07
528.38	36154.26
528.55	36100.42
528.72	35854.67
528.89	35852.33
529.07	36102.76
529.24	35693.17
529.41	36130.85
529.58	36067.66
529.75	35938.93
529.92	36495.97
530.09	36388.31
530.26	36261.92
530.43	36863.44
530.60	36346.18
530.77	36327.45
530.94	36786.20
531.11	36392.99
531.28	36952.38
531.46	36856.42
531.63	36730.03
531.80	36767.48
531.97	37378.36
532.14	37074.09
532.31	36917.27
532.48	37397.08
532.65	37479.00
532.82	36926.63
532.99	37450.91
533.16	37029.62
533.33	37581.98
533.50	37361.97
533.67	37502.40
533.84	37284.73
534.01	38017.32
534.18	37724.75
534.35	37949.45
534.52	37682.62
534.69	38497.13
534.86	37642.84
535.03	37682.62
535.20	38300.53
535.37	38485.43
535.54	38012.64
535.71	38326.27
535.88	38211.59
536.05	38024.34
536.22	38525.22
536.38	38382.45
536.55	38246.69
536.72	38195.20
536.89	38312.23
537.06	38590.75
537.23	39136.10
537.40	38455.00
537.57	38756.93
537.74	38754.59
537.91	38649.27
538.08	38721.82
538.25	38691.40
538.42	39056.52
538.59	38927.79
538.75	38761.61
538.92	39136.10
539.09	39468.45
539.26	39133.76
539.43	39269.51
539.60	39498.88
539.77	39243.76
539.94	39751.66
540.11	39168.87
540.28	39409.94
540.44	39309.30
540.61	39122.05
540.78	39257.81
540.95	39793.79
541.12	39501.22
541.29	39636.97
541.46	39634.63
541.62	39721.23
541.79	39983.37
541.96	39423.98
542.13	39943.58
542.30	39988.05
542.47	39765.70
542.63	39655.70
542.80	39768.04
542.97	40507.65
543.14	40596.59
543.31	40086.36
543.48	40385.94
543.64	40999.16
543.81	40790.86
543.98	40486.59
544.15	40381.26
544.32	40414.03
544.48	41401.74
544.65	40563.82
544.82	41083.42
544.99	40788.52
545.16	40921.93
545.32	41085.76
545.49	41160.66
545.66	41265.99
545.83	41177.04
546.00	41399.40
546.16	41123.21
546.33	40830.65
546.50	40769.79
546.67	41530.47
546.83	41020.23
547.00	41069.38
547.17	40968.74
547.34	41139.60
547.50	41951.76
547.67	41640.47
547.84	41467.27
548.00	41642.81
548.17	42103.90
548.34	41738.77
548.51	42253.69
548.67	41769.20
548.84	41638.13
549.01	41661.54
549.18	41633.45
549.34	42176.45
549.51	42192.84
549.68	41837.08
549.84	42066.45
550.01	42438.59
550.18	42073.47
550.34	42223.26
550.51	42380.08
550.68	42361.36
550.84	42047.72
551.01	42459.66
551.18	42267.73
551.34	42256.03
551.51	42674.99
551.68	42438.59
551.84	42450.30
552.01	42328.59
552.18	42763.93
552.34	42279.44
552.51	42330.93
552.68	42417.53
552.84	42572.00
553.01	42759.25
553.18	42752.23
553.34	42775.63
553.51	42539.24
553.67	42677.33
553.84	43274.16
554.01	43173.52
554.17	42595.41
554.34	42782.65
554.51	43150.12
554.67	43505.88
554.84	43328.00
555.00	43220.33
555.17	42539.24
555.33	42707.76
555.50	43494.18
555.67	43367.79
555.83	43353.74
556.00	43594.82
556.16	43826.53
556.33	43655.67
556.50	43405.23
556.66	43311.61
556.83	43318.64
556.99	43833.55
557.16	43494.18
557.32	43728.23
557.49	43695.46
557.65	43372.47
557.82	43585.46
557.98	43920.15
558.15	43969.30
558.32	43646.31
558.48	43761.00
558.65	43679.08
558.81	43737.59
558.98	43775.04
559.14	43849.94
559.31	43615.88
559.47	43323.32
559.64	43702.48
559.80	44130.80
559.97	44128.46
560.13	44112.08
560.30	43686.10
560.46	44371.88
560.63	44034.84
560.79	43859.30
560.96	44683.17
561.12	44259.53
561.29	44285.28
561.45	44353.15
561.61	44388.26
561.78	44048.88
561.94	44266.55
562.11	44240.81
562.27	44105.06
562.44	44362.51
562.60	44486.56
562.77	44477.20
562.93	44367.20
563.10	44439.75
563.26	44273.57
563.42	44500.61
563.59	44119.10
563.75	44538.05
563.92	44835.30
564.08	44456.14
564.24	44612.95
564.41	44652.74
564.57	44947.65
564.74	45106.80
564.90	44493.58
565.07	44760.40
565.23	44577.84
565.39	44584.86
565.56	44949.99
565.72	44465.50
565.88	44718.28
566.05	44636.36
566.21	45111.49
566.38	44509.97
566.54	44737.00
566.70	45191.06
566.87	44594.23
567.03	44711.25
567.19	45186.38
567.36	44751.04
567.52	44952.33
567.68	44985.10
567.85	44802.53
568.01	44889.13
568.17	45219.15
568.34	44966.37
568.50	44755.72
568.66	45043.61
568.83	44959.35
568.99	45216.81
569.15	45186.38
569.32	44744.02
569.48	44999.14
569.64	45621.72
569.81	45532.78
569.97	44800.19
570.13	45418.10
570.30	45340.86
570.46	45165.32
570.62	45198.09
570.78	45076.38
570.95	45207.45
571.11	45537.46
571.27	45326.81
571.43	45179.36
571.60	45460.23
571.76	45050.63
571.92	45104.46
572.09	45067.02
572.25	45368.94
572.41	45450.86
572.57	44900.84
572.74	45956.42
572.90	45326.81
573.06	45291.71
573.22	45315.11
573.38	45928.33
573.55	45284.68
573.71	45535.12
573.87	45118.51
574.03	45329.16
574.20	45769.18
574.36	45361.92
574.52	45603.00
574.68	45181.70
574.84	45675.55
575.01	45600.66
575.17	45729.39
575.33	45427.46
575.49	45514.06
575.65	45684.92
575.82	45689.60
575.98	45666.19
576.14	45799.60
576.30	45666.19
576.46	46052.38
576.62	45708.32
576.79	45469.59
576.95	45579.59
577.11	45467.25
577.27	45607.68
577.43	45691.94
577.59	45488.31
577.75	45614.70
577.92	45443.84
578.08	45441.50
578.24	45649.81
578.40	45839.39
578.56	45659.17
578.72	45689.60
578.88	45904.93
579.04	45610.02
579.21	45404.05
579.37	45881.52
579.53	45897.91
579.69	45804.28
579.85	45853.44
580.01	45455.54
580.17	45743.43
580.33	45603.00
580.49	45553.85
580.65	45720.02
580.82	45958.76
580.98	45792.58
581.14	45958.76
581.30	45848.75
581.46	45343.20
581.62	45427.46
581.78	45757.47
581.94	45986.85
582.10	45635.77
582.26	45984.51
582.42	46171.75
582.58	45860.46
582.74	46007.91
582.90	45748.11
583.06	45904.93
583.22	45684.92
583.38	45703.64
583.54	45876.84
583.70	46155.36
583.86	45904.93
584.02	46082.81
584.18	46363.67
584.34	46263.03
584.50	45818.33
584.66	45883.86
584.82	46068.76
584.98	46169.41
585.14	46192.81
585.30	46071.10
585.46	45794.92
585.62	45874.50
585.78	46256.01
585.94	45965.78
586.10	45972.80
586.26	45624.06
586.42	45776.20
586.58	46101.53
586.74	45961.10
586.90	46148.34
587.06	45588.95
587.22	46059.40
587.38	45841.73
587.54	46309.84
587.70	46202.18
587.86	46328.56
588.02	46054.72
588.18	45490.65
588.34	45837.05
588.49	46178.77
588.65	45713.00
588.81	46211.54
588.97	45783.22
589.13	46012.59
589.29	46164.73
589.45	46272.39
589.61	46450.27
589.77	46120.26
589.93	45930.67
590.08	46202.18
590.24	46389.42
590.40	46541.55
590.56	46642.20
590.72	46658.58
590.88	46445.59
591.04	46403.46
591.20	46330.90
591.35	46712.41
591.51	46391.76
591.67	46586.02
591.83	46710.07
591.99	46464.32
592.15	46426.87
592.31	46731.14
592.46	46405.80
592.62	45933.01
592.78	46529.85
592.94	46731.14
593.10	46876.25
593.26	46602.41
593.41	47000.30
593.57	46064.08
593.73	46777.95
593.89	46974.55
594.05	47012.00
594.20	46775.61
594.36	46871.57
594.52	46857.52
594.68	46871.57
594.84	46756.88
594.99	46925.40
595.15	46927.74
595.31	46815.40
595.47	46096.85
595.62	46518.15
595.78	46298.14
595.94	46780.29
596.10	46649.22
596.25	46628.15
596.41	46686.67
596.57	46520.49
596.73	46728.80
596.88	46953.49
597.04	46693.69
597.20	46621.13
597.36	46476.02
597.51	46689.01
597.67	46546.23
597.83	46918.38
597.99	46504.10
598.14	46511.13
598.30	47054.13
598.46	46841.14
598.61	47070.51
598.77	47056.47
598.93	46747.52
599.09	46649.22
599.24	47356.06
599.40	46726.46
599.56	46997.96
599.71	47084.56
599.87	47180.52
600.03	47154.77
600.18	47047.11
600.34	46902.00
600.50	46548.57
600.65	46679.64
600.81	47196.90
600.97	46801.35
601.12	47569.05
601.28	46621.13
601.44	46710.07
601.59	46663.26
601.75	46815.40
601.91	47297.55
602.06	46803.69
602.22	46721.77
602.37	46824.76
602.53	47138.39
602.69	47206.26
602.84	46768.58
603.00	46677.30
603.16	47068.17
603.31	46597.73
603.47	46859.87
603.62	46855.18
603.78	46740.50
603.94	46665.60
604.09	46588.36
604.25	46616.45
604.40	47007.32
604.56	47175.84
604.71	47042.43
604.87	46663.26
605.03	46412.82
605.18	46892.63
605.34	46855.18
605.49	46403.46
605.65	47117.32
605.80	46649.22
605.96	46658.58
606.12	46476.02
606.27	47002.64
606.43	46473.68
606.58	46916.04
606.74	46766.24
606.89	46789.65
607.05	46948.81
607.20	46958.17
607.36	46958.17
607.51	46717.09
607.67	46246.65
607.82	46693.69
607.98	46557.94
608.13	46681.98
608.29	46312.18
608.44	46387.08
608.60	46377.72
608.75	46630.49
608.91	46469.00
609.06	46248.99
609.22	46925.40
609.37	46281.75
609.53	46621.13
609.68	46930.08
609.84	46513.47
609.99	46834.12
610.15	46693.69
610.30	46256.01
610.46	46429.21
610.61	46230.26
610.76	46476.02
610.92	46108.55
611.07	46340.27
611.23	46146.00
611.38	46078.13
611.54	46396.44
611.69	46323.88
611.84	46518.15
612.00	46466.66
612.15	46356.65
612.31	46684.33
612.46	45893.22
612.62	46256.01
612.77	46373.03
612.92	46602.41
613.08	45837.05
613.23	46672.62
613.39	46333.24
613.54	45979.82
613.69	46553.26
613.85	46192.81
614.00	46464.32
614.15	46440.91
614.31	46064.08
614.46	45944.72
614.62	45930.67
614.77	46045.36
614.92	46305.16
615.08	46033.66
615.23	46209.20
615.38	45975.14
615.54	46410.48
615.69	46134.30
615.84	45989.19
616.00	46522.83
616.15	46183.45
616.30	45846.41
616.46	45450.86
616.61	46094.51
616.76	45848.75
616.92	45982.16
617.07	46043.02
617.22	45790.24
617.37	45415.76
617.53	45862.80
617.68	45954.08
617.83	45268.30
617.99	46052.38
618.14	46284.09
618.29	45935.35
618.45	45366.60
618.60	45710.66
618.75	45319.79
618.90	45549.17
619.06	45610.02
619.21	45986.85
619.36	45635.77
619.51	45511.72
619.67	45549.17
619.82	45127.87
619.97	45839.39
620.12	45715.34
620.28	45282.34
620.43	45560.87
620.58	45584.27
620.73	45455.54
620.89	45574.91
621.04	45958.76
621.19	45563.21
621.34	44992.12
621.49	45647.47
621.65	45265.96
621.80	45940.04
621.95	45195.74
622.10	45139.57
622.25	45205.11
622.41	45495.33
622.56	45228.51
622.71	45715.34
622.86	45385.33
623.01	45265.96
623.16	44842.32
623.32	45305.75
623.47	44849.35
623.62	45188.72
623.77	44701.89
623.92	44807.22
624.07	45050.63
624.23	44816.58
624.38	45067.02
624.53	44961.69
624.68	44966.37
624.83	44994.46
624.98	44444.43
625.13	44465.50
625.29	44437.41
625.44	44865.73
625.59	44767.43
625.74	44823.60
625.89	44727.64
626.04	44257.19
626.19	44687.85
626.34	44463.16
626.49	44538.05
626.65	44285.28
626.80	44210.38
626.95	44318.04
627.10	44231.44
627.25	44596.57
627.40	44399.96
627.55	44243.15
627.70	44421.03
627.85	44203.36
628.00	44439.75
628.15	44524.01
628.30	43929.51
628.45	44102.71
628.60	43941.22
628.76	44320.38
628.91	44528.69
629.06	43517.58
629.21	44044.20
629.36	43796.10
629.51	44175.27
629.66	44226.76
629.81	43817.17
629.96	44238.47
630.11	44044.20
630.26	44142.50
630.41	44006.75
630.56	43566.73
630.71	44261.87
630.86	43662.69
631.01	43505.88
631.16	43316.29
631.31	43948.24
631.46	43789.08
631.61	43906.11
631.76	43941.22
631.91	44044.20
632.06	43936.54
632.21	43901.43
632.36	44250.17
632.51	43632.27
632.66	43704.82
632.81	43323.32
632.96	43688.44
633.10	43473.11
633.25	43634.61
633.40	43377.15
633.55	43842.92
633.70	43559.71
633.85	42993.30
634.00	43662.69
634.15	43346.72
634.30	43215.65
634.45	43402.89
634.60	43306.93
634.75	43737.59
634.90	43093.94
635.05	43512.90
635.19	43559.71
635.34	43435.66
635.49	43201.61
635.64	43629.93
635.79	43091.60
635.94	43377.15
636.09	43267.14
636.24	43145.44
636.39	43082.24
636.53	43040.11
636.68	42759.25
636.83	42520.51
636.98	42719.46
637.13	42576.69
637.28	42742.86
637.43	42972.24
637.57	43012.02
637.72	42274.76
637.87	42733.50
638.02	42527.53
638.17	42534.56
638.32	42366.04
638.46	42784.99
638.61	42120.28
638.76	42525.19
638.91	42679.67
639.06	42555.62
639.20	42600.09
639.35	42363.70
639.50	42141.35
639.65	42312.20
639.80	42354.33
639.94	42506.47
640.09	42637.54
640.24	42506.47
640.39	42021.98
640.54	41633.45
640.68	42721.80
640.83	42651.58
640.98	42209.22
641.13	41979.85
641.27	42218.58
641.42	42377.74
641.57	41830.05
641.72	42249.01
641.86	42064.11
642.01	41986.87
642.16	41848.78
642.31	41160.66
642.45	42127.30
642.60	41556.21
642.75	41888.57
642.90	42120.28
643.04	42043.04
643.19	41581.96
643.34	42094.53
643.48	41663.88
643.63	41724.73
643.78	41532.81
643.93	42216.24
644.07	41720.05
644.22	41633.45
644.37	41724.73
644.51	41701.32
644.66	41769.20
644.81	41549.19
644.95	41624.09
645.10	41256.62
645.25	41329.18
645.39	41263.64
645.54	41226.20
645.69	41195.77
645.83	40952.35
645.98	41275.35
646.13	41312.80
646.27	41020.23
646.42	41034.27
646.57	41074.06
646.71	41387.69
646.86	41530.47
647.00	41516.42
647.15	41478.97
647.30	41064.70
647.44	41289.39
647.59	41146.62
647.74	41177.04
647.88	41057.68
648.03	41127.89
648.17	41567.91
648.32	41097.47
648.47	41352.58
648.61	40975.76
648.76	40861.07
648.90	40900.86
649.05	40737.02
649.20	41193.43
649.34	40804.90
649.49	41446.21
649.63	40858.73
649.78	41244.92
649.92	41387.69
650.07	41434.50
650.21	40964.06
650.36	41329.18
650.51	40414.03
650.65	40870.43
650.80	41090.44
650.94	40804.90
651.09	40493.61
651.23	40465.52
651.38	40627.02
651.52	40505.31
651.67	40165.93
651.81	40884.48
651.96	40444.46
652.10	40491.27
652.25	39798.47
652.39	40332.11
652.54	40919.59
652.68	40519.35
652.83	40500.63
652.97	40088.70
653.12	40341.47
653.26	40350.84
653.41	40479.57
653.55	40172.96
653.70	40495.95
653.84	40732.34
653.99	40072.31
654.13	40009.12
654.27	40069.97
654.42	40332.11
654.56	39782.09
654.71	40156.57
654.85	40060.61
655.00	39955.29
655.14	39981.03
655.29	40430.41
655.43	40105.08
655.57	39917.84
655.72	40013.80
655.86	39807.83
656.01	39683.78
656.15	39704.85
656.30	39887.41
656.44	39981.03
656.58	39817.19
656.73	39945.92
656.87	39604.20
657.01	39669.74
657.16	39555.05
657.30	39487.18
657.45	39438.03
657.59	39344.41
657.73	39459.09
657.88	39393.56
658.02	39587.82
658.16	39803.15
658.31	39648.68
658.45	39749.32
658.60	39014.39
658.74	39005.03
658.88	39313.98
659.03	39271.85
659.17	39093.97
659.31	38895.02
659.46	38876.30
659.60	39189.93
659.74	38913.75
659.89	38485.43
660.03	38726.50
660.17	38651.61
660.32	38497.13
660.46	38616.50
660.60	38438.62
660.74	38513.52
660.89	38735.87
661.03	38667.99
661.17	38061.79
661.32	38642.24
661.46	38096.90
661.60	38302.87
661.74	38405.85
661.89	38043.07
662.03	38286.48
662.17	38302.87
662.31	38529.90
662.46	37956.47
662.60	38003.28
662.74	37928.38
662.88	37687.31
663.03	37266.01
663.17	37312.82
663.31	37771.57
663.45	37584.32
663.60	37703.69
663.74	37799.65
663.88	37464.96
664.02	37085.79
664.17	37439.21
664.31	37537.51
664.45	37500.06
664.59	37415.80
664.73	37469.64
664.88	37188.77
665.02	36636.41
665.16	37172.39
665.30	37062.38
665.44	37148.98
665.59	37038.98
665.73	36598.96
665.87	36467.89
666.01	36842.37
666.15	36882.16
666.29	36495.97
666.44	36856.42
666.58	36732.37
666.72	36381.29
666.86	35997.44
667.00	36107.44
667.14	36266.60
667.28	36334.48
667.43	36381.29
667.57	36524.06
667.71	36329.80
667.85	36825.99
667.99	36404.69
668.13	36034.89
668.27	35941.27
668.41	35910.84
668.56	35679.13
668.70	35487.20
668.84	34808.45
668.98	35262.51
669.12	35519.97
669.26	35751.68
669.40	35372.52
669.54	35718.92
669.68	35171.23
669.82	35260.17
669.96	34796.74
670.10	34710.14
670.25	34855.26
670.39	35140.80
670.53	35037.82
670.67	35264.85
670.81	34850.58
670.95	34780.36
671.09	34810.79
671.23	34295.87
671.37	34307.57
671.51	34309.91
671.65	34506.52
671.79	34630.57
671.93	34733.55
672.07	34323.96
672.21	33996.28
672.35	33844.15
672.49	34286.51
672.63	34026.71
672.77	33638.18
672.91	33811.38
673.05	33961.17
673.19	33692.01
673.33	33677.97
673.47	33345.61
673.61	32914.95
673.75	33158.37
673.89	33113.90
674.03	32716.01
674.17	32725.37
674.31	32746.44
674.45	32921.98
674.59	32807.29
674.73	32741.75
674.87	32498.34
675.01	32919.63
675.15	32229.18
675.29	32229.18
675.43	32411.74
675.56	32811.97
675.70	32063.00
675.84	31931.93
675.98	31211.04
676.12	31737.66
676.26	31723.62
676.40	31522.34
676.54	31594.89
676.68	31688.51
676.82	30948.90
676.96	31817.24
677.10	31290.62
677.23	31274.24
677.37	31241.47
677.51	31337.43
677.65	31147.85
677.79	30859.96
677.93	30590.80
678.07	30766.34
678.21	30211.64
678.34	30267.81
678.48	30279.51
678.62	30169.51
678.76	30099.29
678.90	30169.51
679.04	30101.63
679.18	30272.49
679.31	29659.27
679.45	29855.87
679.59	29277.76
679.73	29575.01
679.87	29549.26
680.00	29411.17
680.14	29032.00
680.28	29460.32
680.42	29291.80
680.56	29294.14
680.70	29001.58
680.83	28524.11
680.97	28821.36
681.11	28673.90
681.25	28744.12
681.39	28395.38
681.52	28313.46
681.66	27962.38
681.80	27751.73
681.94	27545.76
682.07	27775.14
682.21	27674.49
682.35	27377.25
682.49	27803.22
682.62	27630.02
682.76	27534.06
682.90	27620.66
683.04	27065.96
683.17	27178.30
683.31	27431.08
683.45	27072.98
683.59	26682.11
683.72	26448.05
683.86	26773.39
684.00	26560.40
684.13	26560.40
684.27	25989.31
684.41	26644.66
684.55	26244.43
684.68	26162.51
684.82	25766.96
684.96	25755.26
685.09	26033.78
685.23	25914.41
685.37	26206.98
685.50	26202.30
685.64	25956.54
685.78	25771.64
685.91	25170.12
686.05	25174.80
686.19	24556.90
686.32	24907.98
686.46	24833.08
686.60	24613.07
686.73	24929.05
686.87	24547.54
687.01	24589.67
687.14	24767.55
687.28	24783.93
687.42	24521.79
687.55	24294.76
687.69	23981.13
687.82	24425.83
687.96	23978.79
688.10	24063.05
688.23	23941.34
688.37	23665.16
688.50	23768.14
688.64	23655.79
688.78	23660.48
688.91	23559.83
689.05	23527.06
689.18	23197.05
689.32	22551.06
689.46	22925.55
689.59	22869.37
689.73	23466.21
689.86	23159.60
690.00	23192.37
690.13	22565.10
690.27	22209.34
690.41	22274.88
690.54	22731.28
690.68	22513.61
690.81	22113.38
690.95	22216.36
691.08	21701.45
691.22	21701.45
691.35	21710.81
691.49	22120.40
691.62	21942.52
691.76	21191.21
691.89	21151.42
692.03	20891.62
692.16	21043.76
692.30	21113.97
692.43	20919.71
692.57	20716.08
692.70	20704.38
692.84	20638.84
692.97	20142.65
693.11	20437.56
693.24	20568.63
693.38	20229.25
693.51	20280.74
693.65	20304.15
693.78	20482.03
693.92	20020.94
694.05	19953.07
694.19	19831.36
694.32	19894.55
694.45	20102.86
694.59	20070.09
694.72	19606.67
694.86	19641.78
694.99	19227.50
695.13	19206.44
695.26	19260.27
695.39	19204.10
695.53	19068.34
695.66	19168.99
695.80	19037.92
695.93	18916.21
696.07	18768.76
696.20	18511.30
696.33	18389.59
696.47	18223.41
696.60	18003.40
696.73	18644.71
696.87	18160.22
697.00	18354.48
697.14	18387.25
697.27	17872.33
697.40	18071.28
697.54	17987.02
697.67	17855.95
697.80	17682.75
697.94	17617.21
698.07	17561.04
698.21	17493.16
698.34	17563.38
698.47	17256.77
698.61	16772.28
698.74	16896.33
698.87	17158.47
699.01	16863.56
699.14	17099.95
699.27	16828.45
699.40	16573.33
699.54	16681.00
699.67	16528.86
699.80	16666.95
699.94	16685.68
700.07	16622.48
700.20	16121.61
700.34	15985.86
700.47	16030.33
700.60	16243.32
700.73	16013.95
700.87	15854.79
701.00	15609.03
701.13	15573.92
701.26	15524.77
701.40	15391.36
701.53	15630.10
701.66	15480.30
701.79	15417.11
701.93	15124.54
702.06	15274.34
702.19	14733.67
702.32	15194.76
702.46	15115.18
702.59	15159.65
702.72	15208.80
702.85	15073.05
702.99	14693.88
703.12	14703.25
703.25	14565.15
703.38	14324.08
703.51	14565.15
703.65	14328.76
703.78	14029.17
703.91	14097.05
704.04	14340.46
704.17	14017.47
704.31	13994.06
704.44	13994.06
704.57	14083.00
704.70	13701.50
704.83	13652.34
704.96	13678.09
705.10	13425.31
705.23	13458.08
>>>>>End Processed Spectral Data<<<<<
