SpectraSuite Data File
++++++++++++++++++++++++++++++++++++
Date: Fri Oct 25 11:34:15 EDT 2013
User: price-jones
Dark Spectrum Present: No
Reference Spectrum Present: No
Number of Sampled Component Spectra: 1
Spectrometers: USB2+H05261
Integration Time (usec): 100000 (USB2+H05261)
Spectra Averaged: 1 (USB2+H05261)
Boxcar Smoothing: 0 (USB2+H05261)
Correct for Electrical Dark: No (USB2+H05261)
Strobe/Lamp Enabled: No (USB2+H05261)
Correct for Detector Non-linearity: No (USB2+H05261)
Correct for Stray Light: No (USB2+H05261)
Number of Pixels in Processed Spectrum: 2048
>>>>>Begin Processed Spectral Data<<<<<
365.73	266.82
365.92	266.82
366.12	266.82
366.32	234.05
366.52	112.35
366.72	154.48
366.91	170.86
367.11	231.71
367.31	184.90
367.51	110.01
367.70	152.13
367.90	166.18
368.10	203.63
368.30	135.75
368.49	173.20
368.69	229.37
368.89	159.16
369.09	234.05
369.28	243.42
369.48	201.29
369.68	215.33
369.87	227.03
370.07	234.05
370.27	236.39
370.47	346.40
370.66	437.68
370.86	472.79
371.06	493.85
371.25	599.18
371.45	528.96
371.65	475.13
371.84	550.03
372.04	636.63
372.24	521.94
372.44	540.66
372.63	552.37
372.83	587.47
373.03	596.84
373.22	624.92
373.42	634.29
373.62	662.37
373.81	702.16
374.01	624.92
374.21	571.09
374.40	638.97
374.60	568.75
374.79	643.65
374.99	606.20
375.19	725.57
375.38	699.82
375.58	662.37
375.78	641.31
375.97	585.13
376.17	620.24
376.37	631.94
376.56	638.97
376.76	594.50
376.95	711.52
377.15	711.52
377.35	627.26
377.54	688.12
377.74	716.20
377.93	671.73
378.13	683.44
378.33	702.16
378.52	697.48
378.72	739.61
378.91	723.23
379.11	592.16
379.31	671.73
379.50	725.57
379.70	727.91
379.89	699.82
380.09	720.88
380.28	716.20
380.48	734.93
380.68	720.88
380.87	723.23
381.07	709.18
381.26	781.74
381.46	765.36
381.65	770.04
381.85	784.08
382.04	819.19
382.24	781.74
382.43	802.80
382.63	746.63
382.83	734.93
383.02	889.40
383.22	725.57
383.41	739.61
383.61	856.64
383.80	819.19
384.00	847.27
384.19	858.98
384.39	870.68
384.58	837.91
384.78	793.44
384.97	779.40
385.17	814.51
385.36	856.64
385.56	835.57
385.75	765.36
385.95	870.68
386.14	847.27
386.34	856.64
386.53	847.27
386.72	877.70
386.92	929.19
387.11	840.25
387.31	868.34
387.50	821.53
387.70	877.70
387.89	866.00
388.09	830.89
388.28	746.63
388.48	786.42
388.67	889.40
388.86	844.93
389.06	912.81
389.25	919.83
389.45	868.34
389.64	870.68
389.84	898.77
390.03	959.62
390.22	1004.09
390.42	971.32
390.61	926.85
390.81	945.58
391.00	994.73
391.19	1004.09
391.39	980.68
391.58	1015.79
391.78	877.70
391.97	999.41
392.16	943.24
392.36	1022.81
392.55	997.07
392.75	1015.79
392.94	968.98
393.13	1043.88
393.33	1013.45
393.52	1107.07
393.71	1069.62
393.91	1109.41
394.10	1102.39
394.29	1123.46
394.49	1128.14
394.68	1146.86
394.88	1160.91
395.07	1095.37
395.26	1114.10
395.46	1188.99
395.65	1160.91
395.84	1191.33
396.04	1240.48
396.23	1198.35
396.42	1205.38
396.62	1132.82
396.81	1165.59
397.00	1231.12
397.19	1231.12
397.39	1193.67
397.58	1193.67
397.77	1170.27
397.97	1217.08
398.16	1196.01
398.35	1261.55
398.55	1191.33
398.74	1196.01
398.93	1212.40
399.12	1247.51
399.32	1301.34
399.51	1284.95
399.70	1334.11
399.90	1313.04
400.09	1303.68
400.28	1310.70
400.47	1338.79
400.67	1327.08
400.86	1404.32
401.05	1451.13
401.24	1399.64
401.44	1401.98
401.63	1399.64
401.82	1369.21
402.01	1394.96
402.21	1383.26
402.40	1483.90
402.59	1444.11
402.78	1409.00
402.97	1451.13
403.17	1495.60
403.36	1493.26
403.55	1488.58
403.74	1465.18
403.93	1558.80
404.13	1568.16
404.32	1572.84
404.51	1584.54
404.70	1654.76
404.89	1488.58
405.09	1666.46
405.28	1687.53
405.47	1645.40
405.66	1640.72
405.85	1619.65
406.05	1675.82
406.24	1589.22
406.43	1703.91
406.62	1774.13
406.81	1799.87
407.00	1720.29
407.20	1619.65
407.39	1715.61
407.58	1771.79
407.77	1853.70
407.96	1853.70
408.15	1830.30
408.34	1764.76
408.54	1888.81
408.73	1736.68
408.92	1973.07
409.11	1898.17
409.30	1966.05
409.49	1952.01
409.68	1947.33
409.87	1930.94
410.07	2083.08
410.26	1949.67
410.45	1977.75
410.64	2073.71
410.83	2094.78
411.02	1949.67
411.21	2143.93
411.40	2073.71
411.59	2050.31
411.78	2190.74
411.98	2092.44
412.17	2160.31
412.36	2195.42
412.55	2183.72
412.74	2235.21
412.93	2317.13
413.12	2176.70
413.31	2352.24
413.50	2244.57
413.69	2356.92
413.88	2457.56
414.07	2403.73
414.26	2478.63
414.45	2506.71
414.64	2417.77
414.83	2633.10
415.02	2476.29
415.22	2420.11
415.41	2642.46
415.60	2567.57
415.79	2621.40
415.98	2677.57
416.17	2612.04
416.36	2712.68
416.55	2736.09
416.74	2677.57
416.93	2710.34
417.12	2726.72
417.31	2715.02
417.50	2778.22
417.69	2993.55
417.88	2902.26
418.07	2904.60
418.26	2881.20
418.45	2818.00
418.64	2897.58
418.83	3000.57
419.02	2998.23
419.21	2979.50
419.39	3012.27
419.58	2981.84
419.77	3033.33
419.96	2984.18
420.15	3070.78
420.34	3080.14
420.53	3119.93
420.72	3080.14
420.91	3215.90
421.10	3117.59
421.29	3248.66
421.48	3159.72
421.67	3265.05
421.86	3166.74
422.05	3138.66
422.24	3194.83
422.43	3225.26
422.61	3365.69
422.80	3307.18
422.99	3281.43
423.18	3248.66
423.37	3279.09
423.56	3290.79
423.75	3297.81
423.94	3281.43
424.13	3030.99
424.32	3155.04
424.50	3323.56
424.69	3452.29
424.88	3452.29
425.07	3372.71
425.26	3279.09
425.45	3295.47
425.64	3302.50
425.83	3412.50
426.01	3424.20
426.20	3368.03
426.39	3386.76
426.58	3304.84
426.77	3545.91
426.96	3463.99
427.15	3428.88
427.33	3515.48
427.52	3442.93
427.71	3468.67
427.90	3449.95
428.09	3550.59
428.28	3480.38
428.46	3564.64
428.65	3648.90
428.84	3625.49
429.03	3735.50
429.22	3613.79
429.40	3562.30
429.59	3733.15
429.78	3562.30
429.97	3421.86
430.16	3749.54
430.34	3698.05
430.53	3672.30
430.72	3749.54
430.91	3714.43
431.10	3742.52
431.28	3880.61
431.47	3847.84
431.66	3985.93
431.85	3857.20
432.03	3901.67
432.22	4028.06
432.41	3988.27
432.60	3964.87
432.79	4095.94
432.97	4081.89
433.16	4081.89
433.35	4030.40
433.54	4011.68
433.72	4210.62
433.91	4067.85
434.10	4016.36
434.28	4053.81
434.47	4194.24
434.66	4175.52
434.85	4170.83
435.03	4250.41
435.22	4194.24
435.41	4351.06
435.59	4435.32
435.78	4236.37
435.97	4297.22
436.16	4156.79
436.34	4283.18
436.53	4339.35
436.72	4428.29
436.90	4428.29
437.09	4458.72
437.28	4337.01
437.46	4428.29
437.65	4360.42
437.84	4542.98
438.02	4465.74
438.21	4470.42
438.40	4386.16
438.58	4610.86
438.77	4592.13
438.96	4596.81
439.14	4688.09
439.33	4648.30
439.52	4833.21
439.70	4634.26
439.89	4889.38
440.08	4873.00
440.26	4821.50
440.45	4765.33
440.63	4966.62
440.82	4936.19
441.01	4966.62
441.19	5011.09
441.38	5121.09
441.57	5008.75
441.75	5053.22
441.94	5254.50
442.12	5203.01
442.31	5238.12
442.50	5348.12
442.68	5245.14
442.87	5453.45
443.05	5291.95
443.24	5399.62
443.43	5416.00
443.61	5357.49
443.80	5526.00
443.98	5165.56
444.17	5249.82
444.35	5266.21
444.54	5481.53
444.73	5481.53
444.91	5600.90
445.10	5518.98
445.28	5423.02
445.47	5406.64
445.65	5570.48
445.84	5329.40
446.02	5624.31
446.21	5526.00
446.39	5619.63
446.58	5689.84
446.77	5551.75
446.95	5549.41
447.14	5600.90
447.32	5706.23
447.51	5387.91
447.69	5479.19
447.88	5488.56
448.06	5563.45
448.25	5589.20
448.43	5507.28
448.62	5776.44
448.80	5673.46
448.99	5701.54
449.17	5746.02
449.36	5589.20
449.54	5879.43
449.73	5919.21
449.91	5841.98
450.10	5834.96
450.28	5888.79
450.46	5933.26
450.65	5886.45
450.83	5907.51
451.02	5893.47
451.20	6129.86
451.39	5998.79
451.57	5830.27
451.76	6005.81
451.94	5893.47
452.13	6174.33
452.31	6071.35
452.49	6033.90
452.68	6038.58
452.86	6150.93
453.05	6174.33
453.23	6363.92
453.42	6333.49
453.60	6047.94
453.78	6249.23
453.97	6214.12
454.15	6216.46
454.34	5987.09
454.52	6279.66
454.70	6279.66
454.89	6333.49
455.07	6429.45
455.26	6469.24
455.44	6509.03
455.62	6537.12
455.81	6476.26
455.99	6513.71
456.17	6464.56
456.36	6628.40
456.54	6516.05
456.73	6787.55
456.91	6820.32
457.09	6935.01
457.28	6991.18
457.46	6892.88
457.64	6864.79
457.83	6778.19
458.01	6757.13
458.19	6878.83
458.38	6801.60
458.56	6984.16
458.74	7005.22
458.93	6822.66
459.11	6834.36
459.29	6874.15
459.48	7112.89
459.66	7145.66
459.84	6953.73
460.03	7323.54
460.21	7056.72
460.39	7021.61
460.57	7166.72
460.76	7234.60
460.94	7243.96
461.12	7405.46
461.31	7204.17
461.49	7449.93
461.67	7159.70
461.85	7489.71
462.04	7433.54
462.22	7772.92
462.40	7613.76
462.59	7412.48
462.77	7585.68
462.95	7433.54
463.13	7566.95
463.32	7534.18
463.50	7550.57
463.68	7506.10
463.86	7791.64
464.05	7674.62
464.23	7583.34
464.41	7894.63
464.59	7674.62
464.78	7815.05
464.96	7756.54
465.14	7777.60
465.32	7903.99
465.50	7939.10
465.69	7943.78
465.87	7915.69
466.05	7864.20
466.23	8028.04
466.41	8028.04
466.60	8044.42
466.78	7911.01
466.96	7887.61
467.14	7971.86
467.32	8175.49
467.51	8168.47
467.69	7805.69
467.87	8219.96
468.05	8177.83
468.23	8039.74
468.41	7974.21
468.60	8109.96
468.78	8133.36
468.96	8065.49
469.14	8411.89
469.32	8517.21
469.50	8065.49
469.69	8463.38
469.87	8334.65
470.05	8407.20
470.23	8596.79
470.41	8463.38
470.59	8587.43
470.77	8652.96
470.95	8468.06
471.14	8601.47
471.32	8449.33
471.50	8699.77
471.68	8627.21
471.86	8739.56
472.04	8688.07
472.22	9074.26
472.40	9039.15
472.58	8952.55
472.77	8940.85
472.95	9018.08
473.13	9500.23
473.31	8990.00
473.49	9163.20
473.67	9137.45
473.85	9036.81
474.03	9376.19
474.21	9528.32
474.39	9619.60
474.57	9598.54
474.75	9673.43
474.93	9418.32
475.12	9516.62
475.30	9673.43
475.48	9626.62
475.66	10059.62
475.84	9694.50
476.02	9818.55
476.20	9853.66
476.38	10036.22
476.56	10211.76
476.74	10148.56
476.92	10347.51
477.10	10132.18
477.28	10289.00
477.46	10092.39
477.64	10298.36
477.82	10509.01
478.00	10677.52
478.18	10759.44
478.36	10672.84
478.54	10939.66
478.72	10967.75
478.90	11138.61
479.08	11206.48
479.26	11321.17
479.44	11262.66
479.62	11515.44
479.80	11379.68
479.98	11552.88
480.16	11859.49
480.34	11637.14
480.52	11829.07
480.70	11892.26
480.88	11910.99
481.06	12107.59
481.24	11934.39
481.41	12166.10
481.59	12269.09
481.77	12451.65
481.95	12215.26
482.13	12643.57
482.31	12547.61
482.49	13027.42
482.67	12938.48
482.85	13032.10
483.03	13128.06
483.21	13034.44
483.39	13149.13
483.57	13252.11
483.74	13521.27
483.92	13579.79
484.10	13497.87
484.28	13916.83
484.46	13914.48
484.64	14008.11
484.82	13963.64
485.00	14143.86
485.18	14394.29
485.35	14637.71
485.53	14401.32
485.71	14752.40
485.89	14904.53
486.07	14956.02
486.25	14792.19
486.43	15288.38
486.61	15241.57
486.78	15159.65
486.96	15445.20
487.14	15421.79
487.32	15576.27
487.50	15817.34
487.68	15850.11
487.85	15908.62
488.03	16079.48
488.21	16472.69
488.39	16386.09
488.57	16411.84
488.75	16463.33
488.92	16711.42
489.10	16915.05
489.28	17214.64
489.46	17078.89
489.64	17135.06
489.81	17418.27
489.99	17619.55
490.17	17685.09
490.35	17661.68
490.53	18097.02
490.70	18019.78
490.88	17846.58
491.06	18295.97
491.24	18235.11
491.41	18483.21
491.59	18347.46
491.77	18518.32
491.95	18972.38
492.13	19037.92
492.30	19286.01
492.48	19229.84
492.66	19105.79
492.84	18977.06
493.01	19618.37
493.19	19468.58
493.37	19405.38
493.54	19648.80
493.72	19934.34
493.90	19983.49
494.08	20088.82
494.25	20386.07
494.43	20245.63
494.61	20465.64
494.79	20367.34
494.96	20482.03
495.14	20577.99
495.32	20931.41
495.49	20807.36
495.67	21303.56
495.85	21216.96
496.02	21282.49
496.20	21441.65
496.38	21647.61
496.55	21465.05
496.73	22188.28
496.91	21731.87
497.09	21886.35
497.26	21736.56
497.44	22197.64
497.62	22204.66
497.79	22714.90
497.97	22352.12
498.14	23075.34
498.32	22764.05
498.50	23035.55
498.67	23278.97
498.85	23014.49
499.03	23503.66
499.20	23084.70
499.38	23440.47
499.56	23515.36
499.73	23594.94
499.91	23681.54
500.08	23777.50
500.26	23988.15
500.44	23754.10
500.61	23585.58
500.79	24025.60
500.97	24025.60
501.14	24737.12
501.32	24540.52
501.49	24292.42
501.67	24603.71
501.84	24903.30
502.02	24535.84
502.20	24893.94
502.37	24952.45
502.55	25422.90
502.72	25191.19
502.90	25528.22
503.07	24971.18
503.25	25170.12
503.43	25069.48
503.60	25415.88
503.78	25340.98
503.95	25235.66
504.13	25642.91
504.30	25584.40
504.48	25621.84
504.65	25825.47
504.83	25916.75
505.01	26480.82
505.18	26291.24
505.36	26232.72
505.53	26335.71
505.71	26518.27
505.88	26380.18
506.06	26396.56
506.23	26504.23
506.41	26539.33
506.58	26782.75
506.76	26686.79
506.93	26969.99
507.11	26642.32
507.28	27414.69
507.46	26958.29
507.63	27723.65
507.81	27571.51
507.98	27166.60
508.16	27459.16
508.33	27655.77
508.50	27510.66
508.68	28259.63
508.85	27983.44
509.03	27983.44
509.20	28329.84
509.38	28386.02
509.55	28250.27
509.73	28205.80
509.90	28376.66
510.08	28467.94
510.25	28580.28
510.42	28709.01
510.60	28435.17
510.77	29010.94
510.95	29256.70
511.12	28690.29
511.30	28692.63
511.47	29118.60
511.64	29092.86
511.82	29366.70
511.99	29378.40
512.17	29359.68
512.34	29408.83
512.51	29645.23
512.69	29834.81
512.86	29804.38
513.04	29963.54
513.21	29823.11
513.38	30176.53
513.56	30382.49
513.73	30005.67
513.90	30115.67
514.08	29851.19
514.25	30546.33
514.43	30064.18
514.60	30555.69
514.77	30387.18
514.95	30773.36
515.12	30792.09
515.29	30782.73
515.47	30747.62
515.64	31395.95
515.81	30724.21
515.99	31129.12
516.16	31494.25
516.33	31000.40
516.51	31564.46
516.68	31028.48
516.85	31126.78
517.03	31592.55
517.20	31791.50
517.37	31222.75
517.54	31805.54
517.72	31810.22
517.89	31564.46
518.06	32294.71
518.24	32004.49
518.41	31807.88
518.58	31826.60
518.75	31903.84
518.93	32479.61
519.10	31955.33
519.27	32367.27
519.45	32711.33
519.62	32601.32
519.79	32765.16
519.96	32545.15
520.14	32460.89
520.31	32772.18
520.48	32912.61
520.65	33397.10
520.83	33366.68
521.00	33092.83
521.17	32917.29
521.34	33097.52
521.52	33144.33
521.69	33397.10
521.86	33347.95
522.03	33984.58
522.20	33937.77
522.38	33858.19
522.55	33984.58
522.72	33977.56
522.89	33500.09
523.07	34333.32
523.24	33514.13
523.41	34155.44
523.58	33832.44
523.75	34576.73
523.92	34007.98
524.10	34342.68
524.27	34499.50
524.44	34363.75
524.61	34588.44
524.78	34820.15
524.96	35152.51
525.13	35117.40
525.30	34869.30
525.47	34937.18
525.64	34824.83
525.81	35372.52
525.98	35405.28
526.16	35239.11
526.33	34885.68
526.50	35241.45
526.67	34955.90
526.84	35669.76
527.01	35641.68
527.18	35702.53
527.36	35613.59
527.53	35828.92
527.70	35955.31
527.87	36247.88
528.04	35534.01
528.21	36077.02
528.38	36032.55
528.55	35864.03
528.72	35718.92
528.89	35945.95
529.07	36044.25
529.24	35819.56
529.41	36556.83
529.58	35997.44
529.75	35950.63
529.92	36273.62
530.09	36130.85
530.26	36821.31
530.43	36165.96
530.60	36507.68
530.77	36343.84
530.94	36891.52
531.11	36554.49
531.28	36900.89
531.46	36870.46
531.63	37184.09
531.80	37284.73
531.97	37017.91
532.14	36982.80
532.31	37357.29
532.48	37034.30
532.65	37462.61
532.82	37486.02
532.99	37556.24
533.16	37055.36
533.33	37553.90
533.50	37139.62
533.67	37502.40
533.84	37525.81
534.01	37668.58
534.18	37811.35
534.35	37825.40
534.52	38307.55
534.69	38143.71
534.86	38160.09
535.03	37691.99
535.20	38295.85
535.37	38101.58
535.54	38370.74
535.71	37919.02
535.88	38014.98
536.05	38532.24
536.22	38192.86
536.38	38742.89
536.55	38480.75
536.72	38567.35
536.89	38281.80
537.06	38253.72
537.23	38871.62
537.40	38775.66
537.57	38447.98
537.74	38717.14
537.91	39051.84
538.08	38731.18
538.25	37954.13
538.42	38712.46
538.59	39161.84
538.75	38651.61
538.92	39129.08
539.09	39313.98
539.26	39405.26
539.43	39316.32
539.60	38920.77
539.77	39505.90
539.94	39629.95
540.11	39482.50
540.28	39941.24
540.44	39814.85
540.61	39229.72
540.78	39157.16
540.95	39377.17
541.12	39040.14
541.29	39859.32
541.46	39697.83
541.62	39629.95
541.79	39959.97
541.96	39313.98
542.13	39707.19
542.30	39920.18
542.47	39901.45
542.63	39665.06
542.80	40388.28
542.97	40547.44
543.14	40325.09
543.31	40144.87
543.48	40140.19
543.64	40870.43
543.81	40657.45
543.98	40779.15
544.15	40451.48
544.32	40849.37
544.48	41141.94
544.65	40755.75
544.82	41158.32
544.99	40989.80
545.16	40914.90
545.32	40753.41
545.49	41331.52
545.66	41588.98
545.83	40980.44
546.00	41132.57
546.16	40722.98
546.33	41312.80
546.50	41249.60
546.67	41476.63
546.83	40755.75
547.00	41366.63
547.17	41202.79
547.34	41322.16
547.50	41315.14
547.67	41832.39
547.84	41759.84
548.00	41368.97
548.17	41766.86
548.34	41610.04
548.51	42031.34
548.67	42103.90
548.84	41635.79
549.01	41926.02
549.18	41780.90
549.34	42129.64
549.51	42227.95
549.68	42122.62
549.84	42096.88
550.01	42061.77
550.18	42281.78
550.34	42019.64
550.51	41897.93
550.68	41834.74
550.84	41780.90
551.01	42141.35
551.18	42562.64
551.34	42506.47
551.51	42366.04
551.68	42419.87
551.84	42307.52
552.01	41963.46
552.18	42609.45
552.34	42286.46
552.51	42478.38
552.68	42691.37
552.84	42614.13
553.01	42955.85
553.18	42469.02
553.34	43267.14
553.51	43199.27
553.67	42518.17
553.84	42759.25
554.01	42883.30
554.17	42988.62
554.34	43117.35
554.51	42997.98
554.67	43536.30
554.84	43344.38
555.00	42866.91
555.17	42763.93
555.33	43271.82
555.50	43533.96
555.67	43079.90
555.83	43253.10
556.00	43838.23
556.16	44165.91
556.33	43676.74
556.50	43171.18
556.66	43306.93
556.83	43456.73
556.99	44086.33
557.16	43863.98
557.32	43501.20
557.49	43992.71
557.65	43751.63
557.82	43966.96
557.98	43524.60
558.15	43587.80
558.32	43475.45
558.48	43597.16
558.65	43810.15
558.81	43695.46
558.98	43702.48
559.14	44051.22
559.31	43606.52
559.47	43805.47
559.64	43849.94
559.80	43796.10
559.97	43861.64
560.13	43585.46
560.30	43913.13
560.46	44435.07
560.63	44002.07
560.79	44371.88
560.96	44257.19
561.12	44086.33
561.29	44741.68
561.45	44346.13
561.61	44299.32
561.78	43800.79
561.94	43878.02
562.11	43775.04
562.27	44514.65
562.44	44236.12
562.60	44594.23
562.77	44472.52
562.93	44414.01
563.10	44381.24
563.26	44701.89
563.42	44893.82
563.59	44472.52
563.75	44486.56
563.92	44165.91
564.08	44266.55
564.24	44725.30
564.41	44414.01
564.57	44706.57
564.74	44500.61
564.90	44545.08
565.07	44774.45
565.23	44395.28
565.39	44315.70
565.56	44985.10
565.72	44727.64
565.88	44917.22
566.05	44765.09
566.21	44823.60
566.38	44706.57
566.54	45214.47
566.70	45361.92
566.87	44999.14
567.03	44891.48
567.19	44947.65
567.36	44854.03
567.52	44603.59
567.68	44996.80
567.85	45244.90
568.01	44968.71
568.17	45015.52
568.34	44659.76
568.50	45373.63
568.66	45188.72
568.83	44835.30
568.99	44751.04
569.15	44722.96
569.32	45272.98
569.48	45148.93
569.64	45319.79
569.81	45338.52
569.97	44828.28
570.13	45277.66
570.30	45024.89
570.46	45455.54
570.62	45549.17
570.78	45305.75
570.95	44907.86
571.11	45368.94
571.27	44978.07
571.43	44818.92
571.60	45130.21
571.76	44676.15
571.92	45338.52
572.09	45155.96
572.25	44802.53
572.41	45256.60
572.57	45029.57
572.74	45544.48
572.90	45544.48
573.06	45481.29
573.22	45563.21
573.38	45638.11
573.55	45478.95
573.71	46036.00
573.87	45249.58
574.03	45591.30
574.20	45530.44
574.36	45502.35
574.52	45523.42
574.68	45343.20
574.84	45471.93
575.01	45748.11
575.17	45347.88
575.33	45579.59
575.49	45432.14
575.65	45514.06
575.82	45839.39
575.98	45638.11
576.14	45343.20
576.30	45752.79
576.46	46101.53
576.62	45343.20
576.79	45720.02
576.95	44832.96
577.11	45677.90
577.27	45272.98
577.43	45593.64
577.59	45759.81
577.75	45443.84
577.92	45434.48
578.08	45759.81
578.24	45792.58
578.40	45741.09
578.56	45336.18
578.72	45759.81
578.88	45549.17
579.04	45813.65
579.21	45574.91
579.37	45701.30
579.53	45989.19
579.69	45525.76
579.85	45420.44
580.01	45584.27
580.17	45776.20
580.33	45640.45
580.49	45584.27
580.65	45677.90
580.82	45734.07
580.98	46040.68
581.14	45684.92
581.30	45972.80
581.46	45464.91
581.62	45443.84
581.78	46167.07
581.94	45724.71
582.10	45731.73
582.26	46120.26
582.42	45832.37
582.58	45860.46
582.74	46028.98
582.90	46209.20
583.06	46094.51
583.22	45722.37
583.38	46047.70
583.54	46110.89
583.70	45911.95
583.86	45666.19
584.02	45858.12
584.18	46150.68
584.34	45958.76
584.50	46059.40
584.66	46087.49
584.82	45923.65
584.98	46160.05
585.14	46377.72
585.30	45911.95
585.46	45717.68
585.62	45837.05
585.78	46295.80
585.94	45626.40
586.10	46321.54
586.26	45893.22
586.42	45787.90
586.58	46499.42
586.74	45579.59
586.90	46028.98
587.06	45820.67
587.22	46153.02
587.38	45937.69
587.54	46019.61
587.70	46141.32
587.86	46344.95
588.02	45806.62
588.18	45972.80
588.34	45806.62
588.49	46284.09
588.65	45696.62
588.81	45794.92
588.97	45914.29
589.13	45933.01
589.29	45780.88
589.45	46635.17
589.61	45830.03
589.77	46281.75
589.93	46295.80
590.08	46246.65
590.24	46686.67
590.40	46703.05
590.56	46494.74
590.72	46328.56
590.88	45928.33
591.04	46218.56
591.20	46230.26
591.35	46529.85
591.51	46918.38
591.67	46265.37
591.83	46506.44
591.99	46630.49
592.15	46522.83
592.31	46784.97
592.46	46398.78
592.62	46342.61
592.78	46796.67
592.94	46838.80
593.10	46471.34
593.26	46469.00
593.41	46396.44
593.57	46649.22
593.73	46543.89
593.89	47068.17
594.05	46780.29
594.20	46710.07
594.36	47260.10
594.52	46761.56
594.68	46508.79
594.84	46316.86
594.99	46988.60
595.15	46220.90
595.31	46649.22
595.47	46583.68
595.62	46960.51
595.78	46869.23
595.94	46738.16
596.10	46501.76
596.25	46997.96
596.41	46567.30
596.57	46586.02
596.73	46848.16
596.88	46789.65
597.04	46794.33
597.20	46948.81
597.36	46550.91
597.51	46930.08
597.67	46319.20
597.83	46574.32
597.99	47159.45
598.14	46724.11
598.30	46363.67
598.46	47035.41
598.61	46979.23
598.77	46689.01
598.93	46890.29
599.09	46791.99
599.24	47196.90
599.40	46869.23
599.56	46904.34
599.71	47276.48
599.87	47379.46
600.03	47267.12
600.18	46976.89
600.34	46913.70
600.50	46885.61
600.65	46934.76
600.81	47021.36
600.97	47194.56
601.12	47229.67
601.28	46614.11
601.44	46967.53
601.59	46546.23
601.75	46632.83
601.91	46937.10
602.06	46759.22
602.22	47175.84
602.37	46799.01
602.53	46955.83
602.69	47014.34
602.84	46864.55
603.00	46761.56
603.16	46689.01
603.31	46862.21
603.47	46902.00
603.62	46841.14
603.78	46794.33
603.94	46623.47
604.09	46298.14
604.25	46827.10
604.40	46911.36
604.56	47105.62
604.71	46913.70
604.87	46639.86
605.03	46473.68
605.18	46635.17
605.34	46745.18
605.49	46665.60
605.65	47051.79
605.80	46906.68
605.96	46564.96
606.12	46745.18
606.27	46777.95
606.43	46740.50
606.58	46850.50
606.74	46623.47
606.89	46621.13
607.05	46934.76
607.20	46735.82
607.36	47091.58
607.51	46485.38
607.67	46469.00
607.82	46560.28
607.98	46490.06
608.13	46958.17
608.29	46670.28
608.44	47019.02
608.60	46443.25
608.75	47161.79
608.91	46518.15
609.06	46368.35
609.22	46894.97
609.37	46188.13
609.53	46784.97
609.68	46930.08
609.84	46759.22
609.99	46813.05
610.15	46422.19
610.30	46646.88
610.46	46150.68
610.61	46361.33
610.76	46731.14
610.92	46120.26
611.07	46567.30
611.23	46576.66
611.38	46574.32
611.54	46433.89
611.69	46408.14
611.84	46775.61
612.00	46597.73
612.15	46092.17
612.31	46321.54
612.46	45902.59
612.62	46270.05
612.77	46377.72
612.92	46206.86
613.08	46408.14
613.23	46061.74
613.39	45865.14
613.54	46014.93
613.69	46583.68
613.85	46452.61
614.00	45993.87
614.15	46358.99
614.31	46099.19
614.46	46087.49
614.62	46277.07
614.77	45727.05
614.92	46291.12
615.08	46700.71
615.23	46103.87
615.38	46323.88
615.54	45951.74
615.69	46398.78
615.84	46174.09
616.00	46220.90
616.15	45900.25
616.30	45727.05
616.46	45947.06
616.61	45738.75
616.76	46380.06
616.92	46073.45
617.07	45954.08
617.22	45528.10
617.37	45502.35
617.53	45881.52
617.68	45469.59
617.83	45687.26
617.99	46043.02
618.14	46295.80
618.29	45610.02
618.45	45525.76
618.60	45450.86
618.75	45219.15
618.90	45436.82
619.06	46113.23
619.21	45483.63
619.36	46143.66
619.51	46012.59
619.67	45546.82
619.82	45560.87
619.97	45705.98
620.12	45249.58
620.28	45457.88
620.43	45727.05
620.58	45457.88
620.73	45462.57
620.89	45687.26
621.04	45844.07
621.19	45287.03
621.34	45361.92
621.49	45305.75
621.65	45170.00
621.80	45352.56
621.95	45387.67
622.10	45418.10
622.25	45282.34
622.41	45368.94
622.56	45184.04
622.71	45387.67
622.86	45134.89
623.01	45436.82
623.16	44858.71
623.32	45354.90
623.47	45235.53
623.62	44973.39
623.77	45415.76
623.92	45209.79
624.07	45406.39
624.23	45429.80
624.38	45193.40
624.53	44765.09
624.68	44891.48
624.83	44851.69
624.98	45041.27
625.13	44542.74
625.29	44554.44
625.44	44968.71
625.59	44914.88
625.74	44744.02
625.89	44582.52
626.04	44493.58
626.19	44552.10
626.34	44634.02
626.49	44322.72
626.65	44140.16
626.80	44311.02
626.95	44023.14
627.10	44144.84
627.25	44769.77
627.40	44985.10
627.55	44509.97
627.70	44367.20
627.85	44381.24
628.00	44538.05
628.15	44615.29
628.30	44421.03
628.45	44069.95
628.60	44004.41
628.76	44109.74
628.91	44566.14
629.06	44004.41
629.21	43978.67
629.36	43896.75
629.51	44271.23
629.66	43997.39
629.81	43955.26
629.96	43952.92
630.11	44074.63
630.26	43791.42
630.41	44032.50
630.56	43662.69
630.71	44044.20
630.86	43452.05
631.01	43419.28
631.16	44137.82
631.31	43690.78
631.46	43875.68
631.61	43866.32
631.76	43800.79
631.91	43910.79
632.06	44151.87
632.21	43913.13
632.36	43959.94
632.51	43658.01
632.66	43545.67
632.81	43501.20
632.96	43941.22
633.10	43288.21
633.25	43693.12
633.40	43400.55
633.55	44051.22
633.70	43248.42
633.85	43110.33
634.00	42880.95
634.15	42848.19
634.30	43288.21
634.45	43543.33
634.60	43232.04
634.75	43533.96
634.90	43056.50
635.05	43756.32
635.19	43005.00
635.34	43180.54
635.49	43206.29
635.64	43611.20
635.79	43562.05
635.94	42562.64
636.09	42857.55
636.24	43351.40
636.39	43377.15
636.53	43189.91
636.68	42693.71
636.83	42838.83
636.98	42857.55
637.13	42438.59
637.28	42272.42
637.43	43098.62
637.57	42660.94
637.72	42792.01
637.87	42965.21
638.02	42817.76
638.17	42944.15
638.32	42845.85
638.46	42604.77
638.61	42595.41
638.76	42602.43
638.91	42134.32
639.06	42174.11
639.20	42499.45
639.35	42476.04
639.50	42139.00
639.65	42234.97
639.80	42712.44
639.94	42380.08
640.09	42440.93
640.24	42628.18
640.39	41928.36
640.54	41736.43
640.68	42300.50
640.83	42497.11
640.98	42595.41
641.13	41933.04
641.27	42473.70
641.42	41841.76
641.57	42433.91
641.72	42162.41
641.86	42075.81
642.01	41748.14
642.16	42064.11
642.31	41844.10
642.45	41787.92
642.60	41668.56
642.75	41741.11
642.90	41872.18
643.04	41935.38
643.19	41743.45
643.34	41546.85
643.48	41404.08
643.63	42050.06
643.78	41993.89
643.93	42234.97
644.07	41893.25
644.22	41359.61
644.37	41911.97
644.51	41696.64
644.66	41926.02
644.81	41691.96
644.95	41633.45
645.10	41518.76
645.25	41682.60
645.39	41495.36
645.54	41731.75
645.69	41453.23
645.83	41251.94
645.98	41329.18
646.13	41226.20
646.27	41273.01
646.42	41228.54
646.57	41411.10
646.71	41553.87
646.86	41296.41
647.00	41649.83
647.15	41240.24
647.30	41067.04
647.44	41280.03
647.59	41298.75
647.74	41198.11
647.88	41050.66
648.03	41523.44
648.17	41560.89
648.32	41207.47
648.47	41315.14
648.61	40442.12
648.76	40877.46
648.90	40849.37
649.05	40980.44
649.20	40835.33
649.34	41116.19
649.49	41273.01
649.63	40762.77
649.78	40950.01
649.92	41095.13
650.07	41188.75
650.21	40886.82
650.36	41081.08
650.51	40720.64
650.65	40893.84
650.80	41083.42
650.94	41092.79
651.09	40659.79
651.23	40484.25
651.38	40254.87
651.52	40184.66
651.67	40521.69
651.81	40629.36
651.96	40730.00
652.10	40252.53
652.25	40559.14
652.39	40498.29
652.54	40313.39
652.68	40254.87
652.83	40493.61
652.97	40278.28
653.12	40435.10
653.26	40217.43
653.41	40252.53
653.55	39828.90
653.70	40282.96
653.84	40439.78
653.99	40910.22
654.13	40224.45
654.27	40088.70
654.42	40465.52
654.56	39861.66
654.71	39901.45
654.85	40032.52
655.00	40208.06
655.14	40006.78
655.29	40165.93
655.43	40261.90
655.57	40105.08
655.72	39838.26
655.86	39742.30
656.01	39735.27
656.15	39690.80
656.30	39974.01
656.44	39665.06
656.58	39746.98
656.73	39828.90
656.87	39580.80
657.01	39592.50
657.16	39592.50
657.30	39653.36
657.45	39407.60
657.59	39665.06
657.73	39051.84
657.88	39304.62
658.02	39672.08
658.16	39737.62
658.31	39590.16
658.45	39145.46
658.60	39622.93
658.74	39079.92
658.88	39435.69
659.03	39117.37
659.17	39035.45
659.31	38778.00
659.46	38675.01
659.60	39285.89
659.74	38555.64
659.89	38562.67
660.03	38562.67
660.17	38883.32
660.32	38632.88
660.46	38677.35
660.60	38485.43
660.74	38871.62
660.89	38939.49
661.03	38653.95
661.17	38263.08
661.32	37839.44
661.46	38349.68
661.60	38110.94
661.74	38286.48
661.89	38380.10
662.03	38330.95
662.17	38642.24
662.31	38218.61
662.46	38195.20
662.60	37525.81
662.74	37406.44
662.88	37855.82
663.03	37277.71
663.17	37668.58
663.31	37745.82
663.45	37544.53
663.60	38014.98
663.74	37937.74
663.88	37509.43
664.02	37642.84
664.17	38106.26
664.31	36985.15
664.45	37418.14
664.59	37156.00
664.73	37092.81
664.88	37298.78
665.02	37324.52
665.16	36973.44
665.30	36943.02
665.44	37102.17
665.59	36811.95
665.73	36753.43
665.87	36233.83
666.01	36781.52
666.15	36463.21
666.29	36521.72
666.44	37226.22
666.58	36540.44
666.72	36397.67
666.86	36456.18
667.00	36416.40
667.14	36257.24
667.28	35913.18
667.43	35768.07
667.57	36418.74
667.71	36376.61
667.85	36809.61
667.99	36205.75
668.13	36168.30
668.27	35669.76
668.41	36018.50
668.56	35288.26
668.70	35323.36
668.84	35206.34
668.98	35606.57
669.12	35227.40
669.26	35330.39
669.40	35838.28
669.54	35648.70
669.68	35501.25
669.82	35353.79
669.96	34892.71
670.10	34525.24
670.25	34761.64
670.39	34740.57
670.53	35089.31
670.67	34710.14
670.81	34789.72
670.95	35000.37
671.09	34780.36
671.23	34754.61
671.37	34848.24
671.51	34403.53
671.65	34288.85
671.79	34136.71
671.93	34574.39
672.07	34445.66
672.21	34162.46
672.35	33743.50
672.49	33993.94
672.63	33734.14
672.77	33848.83
672.91	33818.40
673.05	33535.20
673.19	33507.11
673.33	33582.01
673.47	33446.26
673.61	33383.06
673.75	32716.01
673.89	33067.09
674.03	33289.44
674.17	32882.19
674.31	32900.91
674.45	32575.58
674.59	32877.51
674.73	32718.35
674.87	32407.06
675.01	32170.66
675.15	32507.70
675.29	32208.11
675.43	32318.12
675.56	32280.67
675.70	32320.46
675.84	32353.23
675.98	30981.67
676.12	31990.44
676.26	32222.16
676.40	31775.11
676.54	31576.17
676.68	31611.28
676.82	31058.91
676.96	31775.11
677.10	31730.64
677.23	31477.86
677.37	31098.70
677.51	31220.41
677.65	31178.28
677.79	31117.42
677.93	30955.93
678.07	30370.79
678.21	30506.54
678.34	30455.05
678.48	30265.47
678.62	30092.27
678.76	29930.77
678.90	30286.53
679.04	30181.21
679.18	30534.63
679.31	29584.37
679.45	29720.12
679.59	29764.59
679.73	29394.79
679.87	29589.05
680.00	29259.04
680.14	29223.93
680.28	29020.30
680.42	29029.66
680.56	29233.29
680.70	29174.78
680.83	28783.91
680.97	28606.03
681.11	29160.73
681.25	28418.78
681.39	28610.71
681.52	28512.41
681.66	27974.08
681.80	27990.47
681.94	27697.90
682.07	27489.59
682.21	27735.35
682.35	27740.03
682.49	27611.30
682.62	27800.88
682.76	27658.11
682.90	27864.08
683.04	27604.28
683.17	27491.93
683.31	26691.47
683.45	27122.13
683.59	27096.38
683.72	26618.91
683.86	26803.82
684.00	26918.50
684.13	26677.43
684.27	26424.65
684.41	26230.38
684.55	25977.61
684.68	26309.96
684.82	25869.94
684.96	25825.47
685.09	25893.35
685.23	25717.81
685.37	26073.57
685.50	26061.87
685.64	25933.14
685.78	25656.95
685.91	25514.18
686.05	25097.56
686.19	24905.64
686.32	25425.24
686.46	24980.54
686.60	24734.78
686.73	25041.39
686.87	24734.78
687.01	24992.24
687.14	24854.15
687.28	24531.15
687.42	24699.67
687.55	23908.57
687.69	23995.17
687.82	24109.86
687.96	24046.66
688.10	23934.32
688.23	23934.32
688.37	23613.66
688.50	23929.64
688.64	23613.66
688.78	23655.79
688.91	23494.30
689.05	23470.89
689.18	23030.87
689.32	23012.15
689.46	22593.19
689.59	22740.64
689.73	23346.84
689.86	22974.70
690.00	22480.85
690.13	22955.97
690.27	22583.83
690.41	22590.85
690.54	22024.44
690.68	22267.86
690.81	22052.53
690.95	22178.92
691.08	22050.19
691.22	21635.91
691.35	21603.14
691.49	21682.72
691.62	21879.33
691.76	21535.27
691.89	21462.71
692.03	21186.53
692.16	20645.87
692.30	21144.40
692.43	21177.17
692.57	20446.92
692.70	20582.67
692.84	20765.23
692.97	20088.82
693.11	20774.60
693.24	20283.08
693.38	20205.84
693.51	20346.28
693.65	20535.86
693.78	20109.88
693.92	20135.63
694.05	20027.96
694.19	19576.24
694.32	19609.01
694.45	19740.08
694.59	19910.94
694.72	19985.83
694.86	19541.13
694.99	19225.16
695.13	19253.25
695.26	19365.59
695.39	18916.21
695.53	19000.47
695.66	19054.30
695.80	19040.26
695.93	18937.27
696.07	18530.02
696.20	18476.19
696.33	18471.51
696.47	18286.61
696.60	18658.75
696.73	18291.29
696.87	18239.79
697.00	18235.11
697.14	17989.36
697.27	17689.77
697.40	17799.77
697.54	17902.76
697.67	17633.60
697.80	17752.96
697.94	17605.51
698.07	17502.53
698.21	17359.75
698.34	17532.95
698.47	17338.69
698.61	16812.07
698.74	17020.38
698.87	17062.51
699.01	16898.67
699.14	16980.59
699.27	16723.13
699.40	16570.99
699.54	16507.80
699.67	16453.97
699.80	16510.14
699.94	16311.19
700.07	16343.96
700.20	16250.34
700.34	16177.78
700.47	15971.82
700.60	16051.39
700.73	16250.34
700.87	15953.09
701.00	16137.99
701.13	15559.88
701.26	15728.40
701.40	15592.65
701.53	15665.21
701.66	15353.91
701.79	15442.85
701.93	15061.35
702.06	15091.77
702.19	15047.30
702.32	15049.64
702.46	15119.86
702.59	14951.34
702.72	14967.73
702.85	14658.78
702.99	14787.50
703.12	14857.72
703.25	14679.84
703.38	14359.19
703.51	14363.87
703.65	14279.61
703.78	14106.41
703.91	13940.23
704.04	13912.14
704.17	13874.70
704.31	13944.91
704.44	13795.12
704.57	13774.05
704.70	13638.30
704.83	13701.50
704.96	13593.83
705.10	13584.47
705.23	13310.63
>>>>>End Processed Spectral Data<<<<<
