SpectraSuite Data File
++++++++++++++++++++++++++++++++++++
Date: Fri Oct 25 10:43:44 EDT 2013
User: price-jones
Dark Spectrum Present: No
Reference Spectrum Present: No
Number of Sampled Component Spectra: 1
Spectrometers: USB2+H05261
Integration Time (usec): 100000 (USB2+H05261)
Spectra Averaged: 1 (USB2+H05261)
Boxcar Smoothing: 0 (USB2+H05261)
Correct for Electrical Dark: No (USB2+H05261)
Strobe/Lamp Enabled: No (USB2+H05261)
Correct for Detector Non-linearity: No (USB2+H05261)
Correct for Stray Light: No (USB2+H05261)
Number of Pixels in Processed Spectrum: 2048
>>>>>Begin Processed Spectral Data<<<<<
365.73	142.77
365.92	142.77
366.12	142.77
366.32	14.04
366.52	7.02
366.72	86.60
366.91	60.85
367.11	56.17
367.31	9.36
367.51	0.00
367.70	53.83
367.90	79.58
368.10	14.04
368.30	0.00
368.49	0.00
368.69	7.02
368.89	0.00
369.09	56.17
369.28	135.75
369.48	0.00
369.68	60.85
369.87	58.51
370.07	23.41
370.27	145.11
370.47	231.71
370.66	395.55
370.86	425.98
371.06	461.09
371.25	528.96
371.45	482.15
371.65	521.94
371.84	491.51
372.04	440.02
372.24	505.56
372.44	533.64
372.63	510.24
372.83	503.22
373.03	444.70
373.22	486.83
373.42	538.32
373.62	543.00
373.81	526.62
374.01	601.52
374.21	566.41
374.40	491.51
374.60	524.28
374.79	533.64
374.99	465.77
375.19	606.20
375.38	575.77
375.58	648.33
375.78	617.90
375.97	615.56
376.17	627.26
376.37	615.56
376.56	603.86
376.76	645.99
376.95	578.11
377.15	657.69
377.35	695.14
377.54	685.78
377.74	624.92
377.93	662.37
378.13	638.97
378.33	667.05
378.52	643.65
378.72	667.05
378.91	627.26
379.11	634.29
379.31	676.41
379.50	664.71
379.70	613.22
379.89	641.31
380.09	615.56
380.28	655.35
380.48	699.82
380.68	599.18
380.87	610.88
381.07	697.48
381.26	657.69
381.46	671.73
381.65	767.70
381.85	793.44
382.04	669.39
382.24	711.52
382.43	695.14
382.63	697.48
382.83	758.33
383.02	730.25
383.22	681.10
383.41	741.95
383.61	793.44
383.80	814.51
384.00	697.48
384.19	793.44
384.39	760.67
384.58	800.46
384.78	800.46
384.97	770.04
385.17	812.17
385.36	732.59
385.56	730.25
385.75	732.59
385.95	774.72
386.14	823.87
386.34	840.25
386.53	842.59
386.72	823.87
386.92	936.21
387.11	931.53
387.31	887.06
387.50	870.68
387.70	933.87
387.89	898.77
388.09	866.00
388.28	873.02
388.48	894.08
388.67	835.57
388.86	947.92
389.06	952.60
389.25	1036.86
389.45	985.37
389.64	968.98
389.84	1001.75
390.03	910.47
390.22	980.68
390.42	978.34
390.61	1041.54
390.81	959.62
391.00	1050.90
391.19	1069.62
391.39	978.34
391.58	983.02
391.78	1090.69
391.97	1015.79
392.16	1048.56
392.36	1048.56
392.55	990.05
392.75	954.94
392.94	873.02
393.13	938.55
393.33	961.96
393.52	1078.99
393.71	1125.80
393.91	1020.47
394.10	1097.71
394.29	1128.14
394.49	1114.10
394.68	1238.14
394.88	1153.88
395.07	1228.78
395.26	1163.25
395.46	1149.20
395.65	1275.59
395.84	1200.69
396.04	1256.87
396.23	1193.67
396.42	1146.86
396.62	1135.16
396.81	1231.12
397.00	1156.22
397.19	1263.89
397.39	1373.89
397.58	1324.74
397.77	1308.36
397.97	1301.34
398.16	1453.47
398.35	1364.53
398.55	1380.92
398.74	1514.33
398.93	1474.54
399.12	1483.90
399.32	1540.07
399.51	1497.94
399.70	1631.35
399.90	1526.03
400.09	1507.30
400.28	1579.86
400.47	1598.59
400.67	1558.80
400.86	1603.27
401.05	1621.99
401.24	1629.01
401.44	1760.08
401.63	1687.53
401.82	1689.87
402.01	1748.38
402.21	1675.82
402.40	1717.95
402.59	1699.23
402.78	1870.09
402.97	1806.89
403.17	1802.21
403.36	1743.70
403.55	1785.83
403.74	1788.17
403.93	1834.98
404.13	1816.26
404.32	1844.34
404.51	1980.09
404.70	1834.98
404.89	1825.62
405.09	2008.18
405.28	1827.96
405.47	1839.66
405.66	1940.30
405.85	2019.88
406.05	1921.58
406.24	2001.16
406.43	2054.99
406.62	2066.69
406.81	2019.88
407.00	1933.28
407.20	1949.67
407.39	2045.63
407.58	2153.29
407.77	2209.47
407.96	2094.78
408.15	2200.10
408.34	2165.00
408.54	2218.83
408.73	2246.91
408.92	2335.85
409.11	2143.93
409.30	2251.60
409.49	2232.87
409.68	2113.50
409.87	2176.70
410.07	2253.94
410.26	2359.26
410.45	2335.85
410.64	2445.86
410.83	2387.35
411.02	2511.39
411.21	2534.80
411.40	2506.71
411.59	2635.44
411.78	2546.50
411.98	2668.21
412.17	2593.31
412.36	2614.38
412.55	2736.09
412.74	2759.49
412.93	2607.36
413.12	2679.91
413.31	2815.66
413.50	2712.68
413.69	2825.03
413.88	2874.18
414.07	2876.52
414.26	2864.82
414.45	2871.84
414.64	2986.52
414.83	3056.74
415.02	2918.65
415.22	2953.76
415.41	2897.58
415.60	3108.23
415.79	3073.12
415.98	3368.03
416.17	3171.43
416.36	3325.90
416.55	3201.85
416.74	3251.00
416.93	3213.56
417.12	3199.51
417.31	3379.73
417.50	3279.09
417.69	3520.17
417.88	3361.01
418.07	3412.50
418.26	3342.28
418.45	3398.46
418.64	3431.23
418.83	3543.57
419.02	3407.82
419.21	3524.85
419.39	3590.38
419.58	3550.59
419.77	3496.76
419.96	3585.70
420.15	3641.87
420.34	3513.14
420.53	3641.87
420.72	3875.93
420.91	3861.88
421.10	3901.67
421.29	3875.93
421.48	3810.39
421.67	3866.56
421.86	3782.31
422.05	3747.20
422.24	3705.07
422.43	3941.46
422.61	3843.16
422.80	3875.93
422.99	3852.52
423.18	3922.74
423.37	3950.82
423.56	3925.08
423.75	3866.56
423.94	3861.88
424.13	3555.27
424.32	3669.96
424.50	3875.93
424.69	4030.40
424.88	4107.64
425.07	3815.07
425.26	3815.07
425.45	3878.27
425.64	3838.48
425.83	3880.61
426.01	4098.28
426.20	4032.74
426.39	3950.82
426.58	4065.51
426.77	4051.47
426.96	3906.35
427.15	3889.97
427.33	3932.10
427.52	3960.19
427.71	4133.39
427.90	4095.94
428.09	4198.92
428.28	4133.39
428.46	4217.65
428.65	4060.83
428.84	4159.13
429.03	4198.92
429.22	3953.16
429.40	3936.78
429.59	4156.79
429.78	3920.40
429.97	3971.89
430.16	3960.19
430.34	4105.30
430.53	4315.95
430.72	4191.90
430.91	4140.41
431.10	4208.28
431.28	4458.72
431.47	4559.36
431.66	4582.77
431.85	4606.17
432.03	4634.26
432.22	4718.52
432.41	4440.00
432.60	4594.47
432.79	4624.90
432.97	4823.84
433.16	4723.20
433.35	4774.69
433.54	4660.01
433.72	4671.71
433.91	4571.07
434.10	4699.80
434.28	4674.05
434.47	4751.29
434.66	4919.81
434.85	4809.80
435.03	4936.19
435.22	4971.30
435.41	5074.28
435.59	5025.13
435.78	5062.58
435.97	5153.86
436.16	4971.30
436.34	5083.64
436.53	4966.62
436.72	5109.39
436.90	4861.29
437.09	5018.11
437.28	4887.04
437.46	5212.37
437.65	5149.18
437.84	5060.24
438.02	5144.50
438.21	5186.63
438.40	5242.80
438.58	5298.97
438.77	5490.90
438.96	5214.71
439.14	5451.11
439.33	5537.71
439.52	5486.22
439.70	5486.22
439.89	5708.57
440.08	5537.71
440.26	5643.03
440.45	5577.50
440.63	5746.02
440.82	5881.77
441.01	5898.15
441.19	6038.58
441.38	6069.01
441.57	6017.52
441.75	6265.61
441.94	6286.68
442.12	6153.27
442.31	6253.91
442.50	6134.54
442.68	6258.59
442.87	6431.79
443.05	6300.72
443.24	6410.73
443.43	6382.64
443.61	6338.17
443.80	6380.30
443.98	6235.19
444.17	6237.53
444.35	6396.68
444.54	6686.91
444.73	6565.20
444.91	6427.11
445.10	6375.62
445.28	6417.75
445.47	6392.00
445.65	6438.81
445.84	6544.14
446.02	6443.49
446.21	6284.34
446.39	6406.05
446.58	6513.71
446.77	6590.95
446.95	6450.52
447.14	6722.02
447.32	6799.26
447.51	6452.86
447.69	6415.41
447.88	6764.15
448.06	6628.40
448.25	6637.76
448.43	6633.08
448.62	6665.85
448.80	6684.57
448.99	6794.58
449.17	6729.04
449.36	6789.89
449.54	7028.63
449.73	6883.52
449.91	7122.25
450.10	7066.08
450.28	7176.08
450.46	7300.13
450.65	7325.88
450.83	7215.87
451.02	7073.10
451.20	7185.44
451.39	7236.94
451.57	7140.97
451.76	6988.84
451.94	7091.82
452.13	7108.21
452.31	7115.23
452.49	7159.70
452.68	7061.40
452.86	7117.57
453.05	7248.64
453.23	7190.13
453.42	7192.47
453.60	7269.70
453.78	7412.48
453.97	7307.15
454.15	7426.52
454.34	7468.65
454.52	7749.51
454.70	7405.46
454.89	7438.22
455.07	7412.48
455.26	7379.71
455.44	7913.35
455.62	7796.32
455.81	7714.41
455.99	7688.66
456.17	7590.36
456.36	7653.55
456.54	7639.51
456.73	7859.52
456.91	8100.59
457.09	7808.03
457.28	8322.94
457.46	8098.25
457.64	7957.82
457.83	7859.52
458.01	8138.04
458.19	8315.92
458.38	7983.57
458.56	8154.43
458.74	8208.26
458.93	8388.48
459.11	8112.30
459.29	8126.34
459.48	8173.15
459.66	8161.45
459.84	8241.03
460.03	8575.72
460.21	8446.99
460.39	8421.25
460.57	8451.67
460.76	8334.65
460.94	8526.57
461.12	8592.11
461.31	8491.46
461.49	8629.56
461.67	8629.56
461.85	8762.97
462.04	8727.86
462.22	9013.40
462.40	8884.67
462.59	8786.37
462.77	8858.93
462.95	8809.78
463.13	8772.33
463.32	8964.25
463.50	8889.35
463.68	8812.12
463.86	8964.25
464.05	8835.52
464.23	8784.03
464.41	8805.10
464.59	8734.88
464.78	9111.71
464.96	8968.93
465.14	9053.19
465.32	9317.67
465.50	9287.25
465.69	9210.01
465.87	9165.54
466.05	9165.54
466.23	9100.00
466.41	9121.07
466.60	9238.09
466.78	8961.91
466.96	9242.78
467.14	9256.82
467.32	9210.01
467.51	9385.55
467.69	9249.80
467.87	9362.14
468.05	9401.93
468.23	9359.80
468.41	9472.15
468.60	9317.67
468.78	9525.98
468.96	9413.63
469.14	9530.66
469.32	9678.12
469.50	9298.95
469.69	9811.53
469.87	9558.75
470.05	9750.67
470.23	9722.59
470.41	9717.90
470.59	9769.40
470.77	9778.76
470.95	9799.82
471.14	9984.73
471.32	9982.38
471.50	10157.92
471.68	10181.33
471.86	10223.46
472.04	10399.00
472.22	10490.28
472.40	10258.57
472.58	10256.23
472.77	10504.32
472.95	10434.11
473.13	10714.97
473.31	10424.75
473.49	10413.04
473.67	10445.81
473.85	10501.98
474.03	10871.79
474.21	10719.65
474.39	10729.02
474.57	10932.64
474.75	11030.94
474.93	11082.44
475.12	10853.06
475.30	11173.72
475.48	10991.16
475.66	11344.58
475.84	11220.53
476.02	11513.10
476.20	11124.57
476.38	11496.71
476.56	11808.00
476.74	11810.34
476.92	11791.62
477.10	11721.40
477.28	12119.29
477.46	11985.88
477.64	12035.03
477.82	12327.60
478.00	12400.16
478.18	12479.74
478.36	12362.71
478.54	12585.06
478.72	12652.94
478.90	12746.56
479.08	12999.34
479.26	12849.54
479.44	13022.74
479.62	13240.41
479.80	13212.32
479.98	13322.33
480.16	13514.25
480.34	13364.46
480.52	13895.76
480.70	13642.98
480.88	13425.31
481.06	13743.63
481.24	13760.01
481.41	13947.25
481.59	14221.10
481.77	14164.92
481.95	14288.97
482.13	14452.81
482.31	14256.20
482.49	14792.19
482.67	14665.80
482.85	14799.21
483.03	15061.35
483.21	15145.61
483.39	15477.96
483.57	15234.55
483.74	15276.68
483.92	15311.78
484.10	15468.60
484.28	15630.10
484.46	15805.64
484.64	16051.39
484.82	15751.81
485.00	15702.65
485.18	16126.29
485.35	16210.55
485.53	16313.53
485.71	15971.82
485.89	16130.97
486.07	16355.66
486.25	16629.51
486.43	16484.39
486.61	17106.98
486.78	17296.56
486.96	17224.00
487.14	17586.79
487.32	17509.55
487.50	17862.97
487.68	17888.71
487.85	18113.41
488.03	18211.71
488.21	18134.47
488.39	18508.96
488.57	18368.52
488.75	18789.82
488.92	19248.57
489.10	19119.84
489.28	19330.48
489.46	19421.77
489.64	19489.64
489.81	20152.01
489.99	19955.41
490.17	19985.83
490.35	20208.19
490.53	20250.32
490.70	20830.77
490.88	20308.83
491.06	21149.08
491.24	20201.16
491.41	20402.45
491.59	20767.57
491.77	20936.09
491.95	21177.17
492.13	21018.01
492.30	21345.69
492.48	21542.29
492.66	21862.94
492.84	21720.17
493.01	21668.68
493.19	21879.33
493.37	22155.51
493.54	22066.57
493.72	22387.22
493.90	22427.01
494.08	22665.75
494.25	22909.16
494.43	23204.07
494.61	23365.57
494.79	23463.87
494.96	23110.45
495.14	23337.48
495.32	23653.45
495.49	23459.19
495.67	23866.44
495.85	24041.98
496.02	24025.60
496.20	24212.84
496.38	23992.83
496.55	24451.58
496.73	25088.20
496.91	24631.80
497.09	24947.77
497.26	24837.76
497.44	24781.59
497.62	25266.08
497.79	25123.31
497.97	25029.69
498.14	25078.84
498.32	25600.78
498.50	25441.62
498.67	25823.13
498.85	25689.72
499.03	25895.69
499.20	25675.68
499.38	26094.63
499.56	25986.97
499.73	26115.70
499.91	26127.40
500.08	26391.88
500.26	26174.21
500.44	26401.24
500.61	26408.26
500.79	26567.42
500.97	26764.03
501.14	26438.69
501.32	26834.24
501.49	27157.24
501.67	27129.15
501.84	27225.11
502.02	27080.00
502.20	27566.83
502.37	27688.54
502.55	27805.56
502.72	27569.17
502.90	27747.05
503.07	27807.90
503.25	28252.61
503.43	27623.00
503.60	27878.12
503.78	27896.85
503.95	28240.90
504.13	28027.92
504.30	28547.51
504.48	28662.20
504.65	28814.34
504.83	28893.91
505.01	29067.11
505.18	29212.23
505.36	29146.69
505.53	29216.91
505.71	29380.74
505.88	29228.61
506.06	29179.46
506.23	29640.54
506.41	29511.81
506.58	29556.28
506.76	29472.03
506.93	29965.88
507.11	29486.07
507.28	29748.21
507.46	29872.26
507.63	30071.20
507.81	30118.01
507.98	29893.32
508.16	30391.86
508.33	30125.04
508.50	30553.35
508.68	30508.88
508.85	30436.33
509.03	30593.14
509.20	30387.18
509.38	31101.04
509.55	30904.43
509.73	31133.81
509.90	31431.05
510.08	30932.52
510.25	31028.48
510.42	31508.29
510.60	31578.51
510.77	31442.76
510.95	31740.00
511.12	31571.49
511.30	31922.57
511.47	31915.54
511.64	32369.61
511.82	32362.59
511.99	31936.61
512.17	32098.11
512.34	32168.32
512.51	32477.27
512.69	32416.42
512.86	32414.08
513.04	32774.52
513.21	32793.25
513.38	32655.15
513.56	32589.62
513.73	32793.25
513.90	32545.15
514.08	32542.81
514.25	33193.48
514.43	32662.18
514.60	33270.72
514.77	33193.48
514.95	33022.62
515.12	33322.21
515.29	33509.45
515.47	33677.97
515.64	33682.65
515.81	33605.41
515.99	33378.38
516.16	33582.01
516.33	33610.09
516.51	33610.09
516.68	33352.63
516.85	33240.29
517.03	33633.50
517.20	33474.34
517.37	34071.18
517.54	34373.11
517.72	34064.16
517.89	33495.41
518.06	33715.42
518.24	33769.25
518.41	34265.44
518.58	34370.77
518.75	34171.82
518.93	34906.75
519.10	34621.20
519.27	34934.84
519.45	34866.96
519.62	35166.55
519.79	35229.74
519.96	35204.00
520.14	35400.60
520.31	34803.77
520.48	35225.06
520.65	34991.01
520.83	35459.12
521.00	35807.86
521.17	35667.42
521.34	35583.16
521.52	35543.38
521.69	36032.55
521.86	35763.39
522.03	36133.19
522.20	35880.41
522.38	35765.73
522.55	36322.77
522.72	36037.23
522.89	36500.65
523.07	36793.22
523.24	36144.89
523.41	36708.96
523.58	36383.63
523.75	36825.99
523.92	37013.23
524.10	36872.80
524.27	37266.01
524.44	37223.88
524.61	36765.14
524.78	37120.90
524.96	37130.26
525.13	37361.97
525.30	37448.57
525.47	37659.22
525.64	37312.82
525.81	37591.34
525.98	37303.46
526.16	37130.26
526.33	36921.95
526.50	37457.93
526.67	37125.58
526.84	37013.23
527.01	37219.20
527.18	37546.87
527.36	37883.91
527.53	37893.27
527.70	38094.56
527.87	37982.21
528.04	38038.39
528.21	38312.23
528.38	38291.16
528.55	38843.53
528.72	38663.31
528.89	38698.42
529.07	38932.47
529.24	38520.54
529.41	38609.48
529.58	38389.47
529.75	38319.25
529.92	38740.55
530.09	38981.62
530.26	39075.24
530.43	39246.10
530.60	38904.38
530.77	38930.13
530.94	39351.43
531.11	39054.18
531.28	39274.19
531.46	39351.43
531.63	39196.95
531.80	39526.97
531.97	39147.80
532.14	39077.58
532.31	38888.00
532.48	39218.02
532.65	39681.44
532.82	39187.59
532.99	39519.95
533.16	39173.55
533.33	39220.36
533.50	40016.14
533.67	40105.08
533.84	39288.23
534.01	39641.65
534.18	39714.21
534.35	39601.86
534.52	40130.83
534.69	40402.33
534.86	40100.40
535.03	39728.25
535.20	40575.53
535.37	40311.05
535.54	40755.75
535.71	40659.79
535.88	40430.41
536.05	40353.18
536.22	40502.97
536.38	40460.84
536.55	40304.02
536.72	40294.66
536.89	39842.94
537.06	40732.34
537.23	40821.28
537.40	40968.74
537.57	40786.18
537.74	40605.95
537.91	41549.19
538.08	40823.62
538.25	41060.02
538.42	40868.09
538.59	41146.62
538.75	40825.96
538.92	40971.08
539.09	41125.55
539.26	41181.73
539.43	41528.13
539.60	41511.74
539.77	40781.49
539.94	40959.38
540.11	41401.74
540.28	41301.09
540.44	41490.68
540.61	41294.07
540.78	41357.27
540.95	41268.33
541.12	41287.05
541.29	41420.46
541.46	41701.32
541.62	41558.55
541.79	42064.11
541.96	41656.85
542.13	41493.02
542.30	41518.76
542.47	41771.54
542.63	41965.81
542.80	41921.34
542.97	42239.65
543.14	42380.08
543.31	42398.80
543.48	42199.86
543.64	42618.81
543.81	42553.28
543.98	42588.39
544.15	42553.28
544.32	42862.23
544.48	43271.82
544.65	42602.43
544.82	42478.38
544.99	42660.94
545.16	42773.29
545.32	42686.69
545.49	42843.51
545.66	42986.28
545.83	43309.27
546.00	42993.30
546.16	43091.60
546.33	42925.42
546.50	42740.52
546.67	43037.77
546.83	43178.20
547.00	43648.65
547.17	43047.13
547.34	42878.61
547.50	42726.48
547.67	43054.15
547.84	43145.44
548.00	43344.38
548.17	43524.60
548.34	43489.49
548.51	43599.50
548.67	43021.39
548.84	43309.27
549.01	43477.79
549.18	43842.92
549.34	43316.29
549.51	43501.20
549.68	43669.72
549.84	43524.60
550.01	43386.51
550.18	44203.36
550.34	43201.61
550.51	43768.02
550.68	44023.14
550.84	43508.22
551.01	43929.51
551.18	43941.22
551.34	43461.41
551.51	43861.64
551.68	44362.51
551.84	44002.07
552.01	43849.94
552.18	44559.12
552.34	44025.48
552.51	43849.94
552.68	44126.12
552.84	44074.63
553.01	44034.84
553.18	44243.15
553.34	44273.57
553.51	44346.13
553.67	44437.41
553.84	44575.50
554.01	44296.98
554.17	44720.62
554.34	44718.28
554.51	44470.18
554.67	44762.75
554.84	44505.29
555.00	44474.86
555.17	44205.70
555.33	44603.59
555.50	44423.37
555.67	44701.89
555.83	44334.43
556.00	44500.61
556.16	44980.42
556.33	44561.46
556.50	44477.20
556.66	44659.76
556.83	43875.68
556.99	44814.24
557.16	44877.43
557.32	44704.23
557.49	45083.40
557.65	44933.60
557.82	44823.60
557.98	44758.06
558.15	45329.16
558.32	44968.71
558.48	45202.77
558.65	44795.51
558.81	44610.61
558.98	44933.60
559.14	44713.59
559.31	44353.15
559.47	44992.12
559.64	44924.24
559.80	44893.82
559.97	45055.31
560.13	45043.61
560.30	45104.46
560.46	45181.70
560.63	45034.25
560.79	45125.53
560.96	45305.75
561.12	45390.01
561.29	44828.28
561.45	45116.17
561.61	45261.28
561.78	45083.40
561.94	45078.72
562.11	44774.45
562.27	45083.40
562.44	45095.10
562.60	45439.16
562.77	45001.48
562.93	45165.32
563.10	44945.31
563.26	45385.33
563.42	45411.07
563.59	45162.98
563.75	45106.80
563.92	45581.93
564.08	45528.10
564.24	45305.75
564.41	44882.11
564.57	45862.80
564.74	45811.31
564.90	45083.40
565.07	45263.62
565.23	45640.45
565.39	45324.47
565.56	45170.00
565.72	44968.71
565.88	45436.82
566.05	45296.39
566.21	45167.66
566.38	45490.65
566.54	45280.00
566.70	45804.28
566.87	45979.82
567.03	45715.34
567.19	45785.56
567.36	46087.49
567.52	45567.89
567.68	45713.00
567.85	45460.23
568.01	46209.20
568.17	45350.22
568.34	45673.21
568.50	45677.90
568.66	45511.72
568.83	45525.76
568.99	45352.56
569.15	45794.92
569.32	45481.29
569.48	45652.15
569.64	45631.08
569.81	45619.38
569.97	45511.72
570.13	45752.79
570.30	45177.02
570.46	45429.80
570.62	44877.43
570.78	45247.24
570.95	45296.39
571.11	45677.90
571.27	45563.21
571.43	45996.21
571.60	45724.71
571.76	45404.05
571.92	45680.24
572.09	45708.32
572.25	46064.08
572.41	45900.25
572.57	46026.63
572.74	45846.41
572.90	46019.61
573.06	45954.08
573.22	45652.15
573.38	45652.15
573.55	45537.46
573.71	46291.12
573.87	46354.31
574.03	46014.93
574.20	45851.09
574.36	46101.53
574.52	45368.94
574.68	46071.10
574.84	45993.87
575.01	45722.37
575.17	45413.41
575.33	45558.53
575.49	45399.37
575.65	45977.48
575.82	45780.88
575.98	45624.06
576.14	46050.04
576.30	46092.17
576.46	45591.30
576.62	45862.80
576.79	45799.60
576.95	45553.85
577.11	45635.77
577.27	46113.23
577.43	45713.00
577.59	45504.70
577.75	45490.65
577.92	45621.72
578.08	45558.53
578.24	45474.27
578.40	46057.06
578.56	46021.95
578.72	45710.66
578.88	46316.86
579.04	46129.62
579.21	45839.39
579.37	45808.96
579.53	46110.89
579.69	45738.75
579.85	46012.59
580.01	45935.35
580.17	45556.19
580.33	45930.67
580.49	46122.60
580.65	46014.93
580.82	45778.54
580.98	45750.45
581.14	45949.40
581.30	46618.79
581.46	46162.39
581.62	46136.64
581.78	45647.47
581.94	45893.22
582.10	45450.86
582.26	46258.35
582.42	46071.10
582.58	45830.03
582.74	45764.49
582.90	46197.49
583.06	46504.10
583.22	46277.07
583.38	46536.87
583.54	46146.00
583.70	45846.41
583.86	46387.08
584.02	45993.87
584.18	46000.89
584.34	46248.99
584.50	46206.86
584.66	45715.34
584.82	45879.18
584.98	45961.10
585.14	46354.31
585.30	46103.87
585.46	45993.87
585.62	45984.51
585.78	45975.14
585.94	45368.94
586.10	46054.72
586.26	45783.22
586.42	46263.03
586.58	46204.52
586.74	45841.73
586.90	45998.55
587.06	45963.44
587.22	46099.19
587.38	46375.37
587.54	46057.06
587.70	46534.53
587.86	45979.82
588.02	45911.95
588.18	46120.26
588.34	46005.57
588.49	45537.46
588.65	45549.17
588.81	45734.07
588.97	45495.33
589.13	45759.81
589.29	45773.86
589.45	45874.50
589.61	46064.08
589.77	46021.95
589.93	46237.28
590.08	46328.56
590.24	46401.12
590.40	46459.63
590.56	46195.15
590.72	46213.88
590.88	45968.12
591.04	45888.54
591.20	46220.90
591.35	46705.39
591.51	46487.72
591.67	45860.46
591.83	46050.04
591.99	45806.62
592.15	45778.54
592.31	45879.18
592.46	46012.59
592.62	45876.84
592.78	46408.14
592.94	46375.37
593.10	45902.59
593.26	46382.40
593.41	46190.47
593.57	45958.76
593.73	45914.29
593.89	46227.92
594.05	46094.51
594.20	45925.99
594.36	46258.35
594.52	46160.05
594.68	46014.93
594.84	46267.71
594.99	46127.28
595.15	45970.46
595.31	46099.19
595.47	46431.55
595.62	46358.99
595.78	46150.68
595.94	46461.97
596.10	46284.09
596.25	46251.33
596.41	45851.09
596.57	46043.02
596.73	46096.85
596.88	46000.89
597.04	46017.27
597.20	46302.82
597.36	45914.29
597.51	46759.22
597.67	46073.45
597.83	46192.81
597.99	46422.19
598.14	46012.59
598.30	46054.72
598.46	46160.05
598.61	46288.77
598.77	45886.20
598.93	46234.94
599.09	46167.07
599.24	46754.54
599.40	46564.96
599.56	46326.22
599.71	46211.54
599.87	45986.85
600.03	46000.89
600.18	46110.89
600.34	46066.42
600.50	46014.93
600.65	46405.80
600.81	46497.08
600.97	46347.29
601.12	46244.30
601.28	46553.26
601.44	45647.47
601.59	45979.82
601.75	46288.77
601.91	45862.80
602.06	45940.04
602.22	46078.13
602.37	46445.59
602.53	46302.82
602.69	46557.94
602.84	45944.72
603.00	46300.48
603.16	46305.16
603.31	46087.49
603.47	46291.12
603.62	46506.44
603.78	46312.18
603.94	46354.31
604.09	46454.95
604.25	46274.73
604.40	45904.93
604.56	46064.08
604.71	46319.20
604.87	46616.45
605.03	45535.12
605.18	45790.24
605.34	46138.98
605.49	45720.02
605.65	46230.26
605.80	46241.96
605.96	45839.39
606.12	46108.55
606.27	46031.32
606.43	46007.91
606.58	46054.72
606.74	46160.05
606.89	46246.65
607.05	46223.24
607.20	46174.09
607.36	45832.37
607.51	46223.24
607.67	46089.83
607.82	45935.35
607.98	45778.54
608.13	46178.77
608.29	45677.90
608.44	45481.29
608.60	45251.92
608.75	45846.41
608.91	46073.45
609.06	46050.04
609.22	45979.82
609.37	45881.52
609.53	45883.86
609.68	45827.69
609.84	45764.49
609.99	45488.31
610.15	45404.05
610.30	45462.57
610.46	44975.73
610.61	45191.06
610.76	45942.38
610.92	45361.92
611.07	46312.18
611.23	45280.00
611.38	45734.07
611.54	45455.54
611.69	44715.93
611.84	45345.54
612.00	45191.06
612.15	45134.89
612.31	45741.09
612.46	45301.07
612.62	45059.99
612.77	45324.47
612.92	45610.02
613.08	45628.74
613.23	45062.33
613.39	45340.86
613.54	45022.54
613.69	45216.81
613.85	45020.20
614.00	45373.63
614.15	45282.34
614.31	45031.91
614.46	45343.20
614.62	45118.51
614.77	44830.62
614.92	45008.50
615.08	44985.10
615.23	45085.74
615.38	45181.70
615.54	44830.62
615.69	44725.30
615.84	44605.93
616.00	44917.22
616.15	44994.46
616.30	44605.93
616.46	44755.72
616.61	44449.11
616.76	44442.09
616.92	44385.92
617.07	44474.86
617.22	44676.15
617.37	44385.92
617.53	44538.05
617.68	45141.91
617.83	44652.74
617.99	44252.51
618.14	44481.88
618.29	43990.37
618.45	44238.47
618.60	44266.55
618.75	43732.91
618.90	44273.57
619.06	44374.22
619.21	44217.40
619.36	44650.40
619.51	44357.83
619.67	44189.31
619.82	43955.26
619.97	44666.78
620.12	43765.68
620.28	43475.45
620.43	44250.17
620.58	44048.88
620.73	44657.42
620.89	43763.34
621.04	44226.76
621.19	44332.09
621.34	44205.70
621.49	43592.48
621.65	44053.56
621.80	44215.06
621.95	43789.08
622.10	43826.53
622.25	43709.50
622.41	43838.23
622.56	43791.42
622.71	44194.00
622.86	43924.83
623.01	43739.93
623.16	43814.83
623.32	43435.66
623.47	43681.42
623.62	43835.89
623.77	43515.24
623.92	43358.42
624.07	43438.00
624.23	43166.50
624.38	43433.32
624.53	43505.88
624.68	43243.74
624.83	43772.70
624.98	43086.92
625.13	42962.87
625.29	43107.99
625.44	43077.56
625.59	42707.76
625.74	42876.27
625.89	42808.40
626.04	42593.07
626.19	42911.38
626.34	43353.74
626.49	42766.27
626.65	42789.67
626.80	43131.39
626.95	42724.14
627.10	42728.82
627.25	42787.33
627.40	43140.75
627.55	42440.93
627.70	42197.52
627.85	42347.31
628.00	42817.76
628.15	42932.45
628.30	42707.76
628.45	42394.12
628.60	42777.97
628.76	42501.79
628.91	42564.98
629.06	42234.97
629.21	42188.16
629.36	42457.32
629.51	42157.73
629.66	42628.18
629.81	42499.45
629.96	42148.37
630.11	42607.11
630.26	42820.10
630.41	42553.28
630.56	42237.31
630.71	42270.08
630.86	42043.04
631.01	41907.29
631.16	42260.71
631.31	41649.83
631.46	42066.45
631.61	41958.78
631.76	41741.11
631.91	41635.79
632.06	42080.49
632.21	41907.29
632.36	42160.07
632.51	41918.99
632.66	42171.77
632.81	42162.41
632.96	41771.54
633.10	41591.32
633.25	41680.26
633.40	41827.71
633.55	42066.45
633.70	41806.65
633.85	41818.35
634.00	41588.98
634.15	41441.53
634.30	41544.51
634.45	41537.49
634.60	41631.11
634.75	41729.41
634.90	41069.38
635.05	41703.67
635.19	41380.67
635.34	42064.11
635.49	41125.55
635.64	41734.09
635.79	41347.90
635.94	41249.60
636.09	40900.86
636.24	40900.86
636.39	40762.77
636.53	40751.07
636.68	41338.54
636.83	41186.41
636.98	40753.41
637.13	40942.99
637.28	41120.87
637.43	41546.85
637.57	41034.27
637.72	40715.96
637.87	40952.35
638.02	40865.75
638.17	41045.97
638.32	40987.46
638.46	40957.03
638.61	40657.45
638.76	41078.74
638.91	40704.26
639.06	40879.80
639.20	40678.51
639.35	40727.66
639.50	41062.36
639.65	40994.48
639.80	40502.97
639.94	40734.68
640.09	40154.23
640.24	40282.96
640.39	39646.33
640.54	40116.78
640.68	40479.57
640.83	40526.38
640.98	40257.21
641.13	39763.36
641.27	40142.53
641.42	40308.71
641.57	40460.84
641.72	40521.69
641.86	40285.30
642.01	39842.94
642.16	40023.16
642.31	39456.75
642.45	39791.45
642.60	39931.88
642.75	39866.34
642.90	40093.38
643.04	40072.31
643.19	40371.90
643.34	39915.50
643.48	39517.60
643.63	39798.47
643.78	39606.55
643.93	39859.32
644.07	39615.91
644.22	39358.45
644.37	39384.19
644.51	40133.17
644.66	39725.91
644.81	39676.76
644.95	39754.00
645.10	39842.94
645.25	39758.68
645.39	39761.02
645.54	39807.83
645.69	39316.32
645.83	39435.69
645.98	39246.10
646.13	39393.56
646.27	39459.09
646.42	39442.71
646.57	39452.07
646.71	39234.40
646.86	38890.34
647.00	39423.98
647.15	38876.30
647.30	39346.75
647.44	39115.03
647.59	39608.89
647.74	39302.28
647.88	38944.17
648.03	38696.08
648.17	39218.02
648.32	38782.68
648.47	39065.88
648.61	38799.06
648.76	38714.80
648.90	38836.51
649.05	38609.48
649.20	39136.10
649.34	38885.66
649.49	38246.69
649.63	39047.16
649.78	38925.45
649.92	38948.85
650.07	39089.29
650.21	38621.18
650.36	38508.83
650.51	38672.67
650.65	39021.41
650.80	39077.58
650.94	39075.24
651.09	38693.74
651.23	38412.87
651.38	38742.89
651.52	38469.04
651.67	38122.65
651.81	38085.20
651.96	38471.39
652.10	38567.35
652.25	38426.92
652.39	38604.80
652.54	38359.04
652.68	38534.58
652.83	38447.98
652.97	38845.87
653.12	38455.00
653.26	38064.13
653.41	38122.65
653.55	38038.39
653.70	38394.15
653.84	38298.19
653.99	37853.48
654.13	37996.26
654.27	38050.09
654.42	37387.72
654.56	38160.09
654.71	38139.03
654.85	37881.57
655.00	37614.75
655.14	37830.08
655.29	37060.04
655.43	37275.37
655.57	37415.80
655.72	37034.30
655.86	37266.01
656.01	36818.97
656.15	36783.86
656.30	37303.46
656.44	37404.10
656.58	37486.02
656.73	37488.36
656.87	37198.13
657.01	37668.58
657.16	36891.52
657.30	36795.56
657.45	36912.59
657.59	36884.50
657.73	36758.11
657.88	37244.94
658.02	37687.31
658.16	37130.26
658.31	37319.84
658.45	37312.82
658.60	36879.82
658.74	37710.71
658.88	36765.14
659.03	36779.18
659.17	37003.87
659.31	36631.72
659.46	36694.92
659.60	36804.92
659.74	37137.28
659.89	36137.87
660.03	36201.07
660.17	36636.41
660.32	36573.21
660.46	37095.15
660.60	36613.00
660.74	36477.25
660.89	36907.91
661.03	36397.67
661.17	36596.62
661.32	35915.52
661.46	36343.84
661.60	36334.48
661.74	36180.00
661.89	36032.55
662.03	35901.48
662.17	36229.15
662.31	36154.26
662.46	36374.27
662.60	36318.09
662.74	36189.36
662.88	35934.24
663.03	35569.12
663.17	36053.61
663.31	35967.01
663.45	35693.17
663.60	35672.10
663.74	35257.83
663.88	34995.69
664.02	35161.87
664.17	35459.12
664.31	35318.68
664.45	34899.73
664.59	34993.35
664.73	35211.02
664.88	35407.62
665.02	34855.26
665.16	34459.71
665.30	34450.35
665.44	34625.89
665.59	34586.10
665.73	34792.06
665.87	34391.83
666.01	34553.33
666.15	34794.40
666.29	35033.14
666.44	34897.39
666.58	34593.12
666.72	34668.02
666.86	34450.35
667.00	34246.72
667.14	34068.84
667.28	33780.95
667.43	33851.17
667.57	34209.27
667.71	33912.02
667.85	34136.71
667.99	33780.95
668.13	33963.51
668.27	34195.23
668.41	33979.90
668.56	34071.18
668.70	33888.62
668.84	33439.23
668.98	32938.36
669.12	33385.40
669.26	34022.03
669.40	33589.03
669.54	33076.45
669.68	33244.97
669.82	32594.30
669.96	32982.83
670.10	32767.50
670.25	33230.93
670.39	33078.79
670.53	32856.44
670.67	32879.85
670.81	32678.56
670.95	32657.49
671.09	32481.95
671.23	32219.81
671.37	32804.95
671.51	32355.57
671.65	32400.04
671.79	32355.57
671.93	32346.20
672.07	32245.56
672.21	32074.70
672.35	32446.85
672.49	32250.24
672.63	31938.95
672.77	31945.97
672.91	32240.88
673.05	31718.94
673.19	32039.59
673.33	31318.71
673.47	31988.10
673.61	31246.15
673.75	31374.88
673.89	31159.55
674.03	31323.39
674.17	31304.67
674.31	31182.96
674.45	31126.78
674.59	31229.77
674.73	31157.21
674.87	30993.37
675.01	30567.40
675.15	31112.74
675.29	31044.87
675.43	31021.46
675.56	30710.17
675.70	30433.99
675.84	30637.61
675.98	29481.39
676.12	30174.19
676.26	30387.18
676.40	30263.13
676.54	30333.34
676.68	30218.66
676.82	29567.99
676.96	29696.72
677.10	29975.24
677.23	29631.18
677.37	29523.52
677.51	29649.91
677.65	29336.27
677.79	28973.49
677.93	29326.91
678.07	29177.12
678.21	28591.98
678.34	29242.65
678.48	28730.08
678.62	28631.77
678.76	28467.94
678.90	28261.97
679.04	28325.16
679.18	28357.93
679.31	28170.69
679.45	27948.34
679.59	28182.39
679.73	27903.87
679.87	28002.17
680.00	28037.28
680.14	27590.24
680.28	27505.98
680.42	27627.68
680.56	27627.68
680.70	27618.32
680.83	27314.05
680.97	26920.84
681.11	27157.24
681.25	27522.36
681.39	27459.16
681.52	27145.53
681.66	27206.39
681.80	26878.71
681.94	26724.24
682.07	26728.92
682.21	26548.70
682.35	26714.87
682.49	26408.26
682.62	26476.14
682.76	25928.45
682.90	26178.89
683.04	26024.42
683.17	25888.67
683.31	25673.34
683.45	25345.66
683.59	25525.88
683.72	25785.68
683.86	25745.89
684.00	25893.35
684.13	25294.17
684.27	25116.29
684.41	25179.48
684.55	24835.42
684.68	25046.07
684.82	24847.13
684.96	24774.57
685.09	24938.41
685.23	24542.86
685.37	24606.05
685.50	24797.98
685.64	24528.81
685.78	24348.59
685.91	23845.38
686.05	23852.40
686.19	24009.22
686.32	23854.74
686.46	23616.01
686.60	23248.54
686.73	23335.14
686.87	22930.23
687.01	22918.53
687.14	22911.50
687.28	22841.29
687.42	22916.19
687.55	23073.00
687.69	22810.86
687.82	23257.90
687.96	22963.00
688.10	22588.51
688.23	22895.12
688.37	22338.07
688.50	22312.33
688.64	22408.29
688.78	22574.47
688.91	22148.49
689.05	22106.36
689.18	21905.07
689.32	21766.98
689.46	22118.06
689.59	22097.00
689.73	22059.55
689.86	22001.04
690.00	21465.05
690.13	21741.24
690.27	21579.74
690.41	21434.63
690.54	20950.14
690.68	21106.95
690.81	20966.52
690.95	20989.92
691.08	21291.85
691.22	21226.32
691.35	21088.23
691.49	20961.84
691.62	20847.15
691.76	20788.64
691.89	20592.03
692.03	20486.71
692.16	20594.37
692.30	20271.38
692.43	20074.77
692.57	20133.29
692.70	20121.59
692.84	19922.64
692.97	19707.31
693.11	19990.52
693.24	19618.37
693.38	19831.36
693.51	19751.78
693.65	19740.08
693.78	19506.02
693.92	19381.98
694.05	19131.54
694.19	19180.69
694.32	19288.35
694.45	19021.53
694.59	18768.76
694.72	18677.48
694.86	18909.19
694.99	18913.87
695.13	18757.05
695.26	18586.19
695.39	18735.99
695.53	18555.77
695.66	18773.44
695.80	18513.64
695.93	18443.42
696.07	18532.36
696.20	18012.76
696.33	18417.68
696.47	18274.90
696.60	17659.34
696.73	17598.49
696.87	17399.54
697.00	17940.21
697.14	17483.80
697.27	17528.27
697.40	17348.05
697.54	17137.40
697.67	17460.40
697.80	17156.13
697.94	16980.59
698.07	17020.38
698.21	17088.25
698.34	17015.69
698.47	16868.24
698.61	16891.65
698.74	16603.76
698.87	16954.84
699.01	16332.26
699.14	16472.69
699.27	16603.76
699.40	16339.28
699.54	16547.59
699.67	15976.50
699.80	16126.29
699.94	16009.26
700.07	15985.86
700.20	15674.57
700.34	15840.75
700.47	15768.19
700.60	15995.22
700.73	15770.53
700.87	15805.64
701.00	15585.63
701.13	15543.50
701.26	15517.75
701.40	15403.07
701.53	15101.14
701.66	15384.34
701.79	15250.93
701.93	14890.49
702.06	14855.38
702.19	14981.77
702.32	14738.35
702.46	14775.80
702.59	14862.40
702.72	14721.97
702.85	14754.74
702.99	14736.01
703.12	14728.99
703.25	14178.97
703.38	14120.45
703.51	14391.95
703.65	14366.21
703.78	14139.18
703.91	13898.10
704.04	14031.51
704.17	13958.96
704.31	14022.15
704.44	13944.91
704.57	14017.47
704.70	13755.33
704.83	13507.23
704.96	13621.92
705.10	13586.81
705.23	13621.92
>>>>>End Processed Spectral Data<<<<<
