SpectraSuite Data File
++++++++++++++++++++++++++++++++++++
Date: Fri Oct 25 10:44:31 EDT 2013
User: price-jones
Dark Spectrum Present: No
Reference Spectrum Present: No
Number of Sampled Component Spectra: 1
Spectrometers: USB2+H05261
Integration Time (usec): 100000 (USB2+H05261)
Spectra Averaged: 1 (USB2+H05261)
Boxcar Smoothing: 0 (USB2+H05261)
Correct for Electrical Dark: No (USB2+H05261)
Strobe/Lamp Enabled: No (USB2+H05261)
Correct for Detector Non-linearity: No (USB2+H05261)
Correct for Stray Light: No (USB2+H05261)
Number of Pixels in Processed Spectrum: 2048
>>>>>Begin Processed Spectral Data<<<<<
365.73	140.43
365.92	140.43
366.12	140.43
366.32	14.04
366.52	102.98
366.72	49.15
366.91	86.60
367.11	9.36
367.31	0.00
367.51	25.75
367.70	0.00
367.90	88.94
368.10	42.13
368.30	7.02
368.49	39.79
368.69	60.85
368.89	28.09
369.09	84.26
369.28	37.45
369.48	84.26
369.68	95.96
369.87	37.45
370.07	110.01
370.27	147.45
370.47	145.11
370.66	388.53
370.86	388.53
371.06	421.30
371.25	465.77
371.45	421.30
371.65	524.28
371.84	519.60
372.04	470.45
372.24	454.06
372.44	491.51
372.63	456.40
372.83	486.83
373.03	454.06
373.22	482.15
373.42	528.96
373.62	500.87
373.81	561.73
374.01	498.53
374.21	505.56
374.40	475.13
374.60	624.92
374.79	472.79
374.99	594.50
375.19	599.18
375.38	503.22
375.58	573.43
375.78	582.79
375.97	608.54
376.17	601.52
376.37	627.26
376.56	571.09
376.76	564.07
376.95	540.66
377.15	634.29
377.35	564.07
377.54	601.52
377.74	610.88
377.93	617.90
378.13	641.31
378.33	669.39
378.52	631.94
378.72	594.50
378.91	589.82
379.11	638.97
379.31	631.94
379.50	622.58
379.70	678.76
379.89	753.65
380.09	634.29
380.28	697.48
380.48	690.46
380.68	730.25
380.87	634.29
381.07	713.86
381.26	594.50
381.46	669.39
381.65	610.88
381.85	662.37
382.04	648.33
382.24	667.05
382.43	634.29
382.63	674.07
382.83	655.35
383.02	725.57
383.22	685.78
383.41	690.46
383.61	685.78
383.80	786.42
384.00	744.29
384.19	723.23
384.39	812.17
384.58	868.34
384.78	751.31
384.97	641.31
385.17	711.52
385.36	786.42
385.56	737.27
385.75	730.25
385.95	758.33
386.14	802.80
386.34	795.78
386.53	798.12
386.72	805.14
386.92	812.17
387.11	807.48
387.31	844.93
387.50	720.88
387.70	779.40
387.89	770.04
388.09	767.70
388.28	842.59
388.48	828.55
388.67	950.26
388.86	840.25
389.06	835.57
389.25	898.77
389.45	915.15
389.64	943.24
389.84	926.85
390.03	940.90
390.22	884.72
390.42	938.55
390.61	912.81
390.81	929.19
391.00	926.85
391.19	964.30
391.39	994.73
391.58	1048.56
391.78	950.26
391.97	908.13
392.16	966.64
392.36	976.00
392.55	1093.03
392.75	877.70
392.94	847.27
393.13	1048.56
393.33	936.21
393.52	1060.26
393.71	997.07
393.91	1039.20
394.10	1027.50
394.29	1121.12
394.49	1102.39
394.68	1132.82
394.88	1064.94
395.07	1118.78
395.26	1205.38
395.46	1224.10
395.65	1128.14
395.84	1086.01
396.04	1184.31
396.23	1041.54
396.42	1121.12
396.62	1142.18
396.81	1083.67
397.00	1186.65
397.19	1177.29
397.39	1217.08
397.58	1331.76
397.77	1270.91
397.97	1217.08
398.16	1308.36
398.35	1324.74
398.55	1203.04
398.74	1362.19
398.93	1324.74
399.12	1399.64
399.32	1331.76
399.51	1409.00
399.70	1406.66
399.90	1523.69
400.09	1376.24
400.28	1542.41
400.47	1561.14
400.67	1556.46
400.86	1554.12
401.05	1502.62
401.24	1514.33
401.44	1504.96
401.63	1509.65
401.82	1591.56
402.01	1542.41
402.21	1519.01
402.40	1610.29
402.59	1582.20
402.78	1497.94
402.97	1614.97
403.17	1563.48
403.36	1626.67
403.55	1713.27
403.74	1629.01
403.93	1762.42
404.13	1736.68
404.32	1699.23
404.51	1785.83
404.70	1743.70
404.89	1799.87
405.09	1809.23
405.28	1762.42
405.47	1729.66
405.66	1727.32
405.85	1837.32
406.05	1804.55
406.24	1900.52
406.43	1842.00
406.62	1963.71
406.81	1975.41
407.00	1888.81
407.20	1795.19
407.39	1956.69
407.58	2026.90
407.77	1926.26
407.96	1973.07
408.15	1921.58
408.34	1935.62
408.54	2097.12
408.73	2073.71
408.92	2190.74
409.11	2001.16
409.30	2045.63
409.49	2019.88
409.68	2078.40
409.87	2118.18
410.07	2181.38
410.26	2214.15
410.45	2172.02
410.64	2141.59
410.83	2260.96
411.02	2298.41
411.21	2356.92
411.40	2298.41
411.59	2333.51
411.78	2406.07
411.98	2312.45
412.17	2401.39
412.36	2506.71
412.55	2523.10
412.74	2466.92
412.93	2600.34
413.12	2518.42
413.31	2665.87
413.50	2640.12
413.69	2593.31
413.88	2534.80
414.07	2677.57
414.26	2743.11
414.45	2654.17
414.64	2780.56
414.83	2834.39
415.02	2827.37
415.22	2876.52
415.41	2841.41
415.60	2722.04
415.79	2977.16
415.98	2932.69
416.17	2888.22
416.36	2937.37
416.55	2923.33
416.74	3009.93
416.93	2928.01
417.12	3005.25
417.31	2925.67
417.50	3176.11
417.69	3108.23
417.88	3052.06
418.07	3122.27
418.26	3056.74
418.45	3148.02
418.64	3307.18
418.83	3206.53
419.02	3197.17
419.21	3290.79
419.39	3325.90
419.58	3335.26
419.77	3377.39
419.96	3316.54
420.15	3452.29
420.34	3382.07
420.53	3428.88
420.72	3506.12
420.91	3501.44
421.10	3478.04
421.29	3487.40
421.48	3407.82
421.67	3520.17
421.86	3351.65
422.05	3531.87
422.24	3534.21
422.43	3487.40
422.61	3566.98
422.80	3581.02
422.99	3520.17
423.18	3616.13
423.37	3679.32
423.56	3625.49
423.75	3590.38
423.94	3665.28
424.13	3386.76
424.32	3599.74
424.50	3637.19
424.69	3791.67
424.88	3712.09
425.07	3655.92
425.26	3637.19
425.45	3618.47
425.64	3590.38
425.83	3712.09
426.01	3581.02
426.20	3702.73
426.39	3749.54
426.58	3651.24
426.77	3691.02
426.96	3819.75
427.15	3611.45
427.33	3728.47
427.52	3751.88
427.71	3831.46
427.90	3667.62
428.09	3826.78
428.28	3927.42
428.46	3852.52
428.65	3812.73
428.84	4007.00
429.03	3981.25
429.22	3693.37
429.40	3936.78
429.59	4053.81
429.78	3948.48
429.97	3765.92
430.16	3765.92
430.34	3840.82
430.53	3889.97
430.72	3946.14
430.91	4079.55
431.10	3964.87
431.28	4257.43
431.47	4156.79
431.66	4290.20
431.85	4037.42
432.03	4318.29
432.22	4337.01
432.41	4234.03
432.60	4327.65
432.79	4367.44
432.97	4311.27
433.16	4472.76
433.35	4414.25
433.54	4472.76
433.72	4388.50
433.91	4442.34
434.10	4442.34
434.28	4421.27
434.47	4379.14
434.66	4601.49
434.85	4627.24
435.03	4627.24
435.22	4538.30
435.41	4772.35
435.59	4601.49
435.78	4755.97
435.97	4901.08
436.16	4664.69
436.34	4718.52
436.53	4870.65
436.72	4863.63
436.90	4777.03
437.09	4774.69
437.28	4718.52
437.46	4741.93
437.65	4695.11
437.84	4917.47
438.02	4915.12
438.21	4720.86
438.40	4814.48
438.58	4985.34
438.77	5118.75
438.96	4858.95
439.14	5273.23
439.33	5310.68
439.52	5135.14
439.70	5153.86
439.89	5320.04
440.08	5191.31
440.26	5200.67
440.45	5268.55
440.63	5533.03
440.82	5591.54
441.01	5465.15
441.19	5708.57
441.38	5591.54
441.57	5734.31
441.75	5720.27
441.94	5706.23
442.12	5628.99
442.31	5792.83
442.50	5727.29
442.68	5717.93
442.87	5696.86
443.05	5891.13
443.24	6087.73
443.43	5884.11
443.61	5870.06
443.80	6141.57
443.98	6031.56
444.17	5736.65
444.35	5973.05
444.54	6012.84
444.73	6120.50
444.91	5968.37
445.10	5973.05
445.28	5818.57
445.47	5937.94
445.65	5956.66
445.84	6143.91
446.02	6169.65
446.21	6169.65
446.39	6097.10
446.58	6150.93
446.77	6090.07
446.95	5951.98
447.14	6181.35
447.32	6265.61
447.51	6136.88
447.69	5851.34
447.88	6193.06
448.06	6115.82
448.25	5963.68
448.43	6244.55
448.62	6218.80
448.80	6054.97
448.99	6326.47
449.17	6221.14
449.36	6230.51
449.54	6410.73
449.73	6492.65
449.91	6558.18
450.10	6448.18
450.28	6459.88
450.46	6579.25
450.65	6640.10
450.83	6689.25
451.02	6581.59
451.20	6626.06
451.39	6654.14
451.57	6677.55
451.76	6616.69
451.94	6750.10
452.13	6679.89
452.31	6836.70
452.49	6668.19
452.68	6689.25
452.86	6574.56
453.05	6630.74
453.23	6806.28
453.42	6717.34
453.60	6766.49
453.78	6799.26
453.97	6876.49
454.15	6822.66
454.34	6637.76
454.52	6895.22
454.70	6855.43
454.89	7012.24
455.07	6892.88
455.26	7019.27
455.44	7077.78
455.62	6993.52
455.81	7185.44
455.99	7133.95
456.17	7087.14
456.36	7262.68
456.54	7234.60
456.73	7426.52
456.91	7515.46
457.09	7524.82
457.28	7606.74
457.46	7475.67
457.64	7681.64
457.83	7569.29
458.01	7489.71
458.19	7801.01
458.38	7442.90
458.56	7583.34
458.74	7611.42
458.93	7538.87
459.11	7602.06
459.29	7602.06
459.48	7798.66
459.66	7843.14
459.84	7786.96
460.03	7925.05
460.21	7779.94
460.39	7964.84
460.57	7859.52
460.76	7964.84
460.94	7999.95
461.12	8006.97
461.31	7948.46
461.49	7934.42
461.67	7936.76
461.85	8145.06
462.04	8009.31
462.22	8344.01
462.40	8161.45
462.59	8100.59
462.77	8276.13
462.95	8304.22
463.13	8353.37
463.32	8255.07
463.50	8194.22
463.68	8278.47
463.86	8437.63
464.05	8201.24
464.23	8271.45
464.41	8557.00
464.59	8243.37
464.78	8489.12
464.96	8421.25
465.14	8304.22
465.32	8718.50
465.50	8538.27
465.69	8650.62
465.87	8374.44
466.05	8542.96
466.23	8627.21
466.41	8580.40
466.60	8758.28
466.78	8580.40
466.96	8489.12
467.14	8505.51
467.32	8664.66
467.51	8922.12
467.69	8510.19
467.87	8697.43
468.05	8671.68
468.23	8732.54
468.41	8727.86
468.60	8828.50
468.78	8882.33
468.96	8695.09
469.14	9046.17
469.32	8999.36
469.50	8929.14
469.69	9214.69
469.87	9116.39
470.05	9355.12
470.23	9195.96
470.41	9242.78
470.59	9263.84
470.77	9233.41
470.95	9348.10
471.14	9516.62
471.32	9268.52
471.50	9603.22
471.68	9673.43
471.86	9598.54
472.04	9523.64
472.22	9902.81
472.40	9589.17
472.58	9640.67
472.77	9818.55
472.95	9741.31
473.13	10303.04
473.31	9790.46
473.49	9710.88
473.67	9755.35
473.85	9966.00
474.03	10118.14
474.21	10024.51
474.39	10384.96
474.57	10176.65
474.75	10317.08
474.93	10466.88
475.12	10373.25
475.30	10593.26
475.48	10431.77
475.66	10628.37
475.84	10527.73
476.02	10651.78
476.20	10635.39
476.38	10867.11
476.56	10944.34
476.74	10967.75
476.92	10963.07
477.10	10754.76
477.28	11243.93
477.46	11162.01
477.64	11555.22
477.82	11597.35
478.00	11808.00
478.18	11674.59
478.36	11442.88
478.54	11852.47
478.72	12028.01
478.90	12060.78
479.08	12203.55
479.26	12116.95
479.44	12390.80
479.62	12315.90
479.80	12507.82
479.98	12514.84
480.16	12706.77
480.34	12688.04
480.52	12793.37
480.70	12929.12
480.88	12863.58
481.06	12795.71
481.24	13034.44
481.41	12929.12
481.59	13582.13
481.77	13207.64
481.95	13481.49
482.13	13481.49
482.31	13586.81
482.49	13806.82
482.67	14087.68
482.85	13867.67
483.03	14099.39
483.21	14314.72
483.39	14342.80
483.57	14347.48
483.74	14452.81
483.92	14764.10
484.10	14693.88
484.28	14792.19
484.46	15208.80
484.64	15077.73
484.82	15241.57
485.00	15379.66
485.18	15367.96
485.35	15742.44
485.53	15421.79
485.71	15192.42
485.89	15602.01
486.07	15611.37
486.25	15541.16
486.43	15948.41
486.61	15950.75
486.78	16194.17
486.96	16093.52
487.14	16587.38
487.32	16542.91
487.50	16842.50
487.68	16931.44
487.85	16999.31
488.03	17289.54
488.21	17406.56
488.39	17231.02
488.57	17542.32
488.75	17729.56
488.92	17570.40
489.10	18246.82
489.28	17984.68
489.46	18560.45
489.64	18558.11
489.81	19077.71
489.99	18834.29
490.17	18735.99
490.35	19178.35
490.53	19122.18
490.70	19253.25
490.88	19356.23
491.06	19648.80
491.24	19143.24
491.41	19665.18
491.59	19548.15
491.77	19391.34
491.95	19999.88
492.13	19831.36
492.30	20290.10
492.48	20500.75
492.66	20446.92
492.84	20311.17
493.01	20882.26
493.19	20716.08
493.37	20816.72
493.54	20833.11
493.72	21074.18
493.90	21139.72
494.08	21451.01
494.25	21926.14
494.43	22010.40
494.61	21820.81
494.79	22019.76
494.96	21944.86
495.14	21944.86
495.32	21781.03
495.49	22263.18
495.67	22569.79
495.85	22635.32
496.02	22625.96
496.20	22941.93
496.38	22944.27
496.55	23108.11
496.73	23520.04
496.91	23253.22
497.09	23283.65
497.26	23285.99
497.44	23700.26
497.62	23798.57
497.79	23924.96
497.97	23718.99
498.14	24114.54
498.32	23976.45
498.50	23999.85
498.67	24627.12
498.85	24652.86
499.03	25139.69
499.20	24922.02
499.38	24718.40
499.56	24889.26
499.73	24755.85
499.91	24910.32
500.08	25394.81
500.26	24678.61
500.44	24917.34
500.61	24767.55
500.79	25212.25
500.97	25537.59
501.14	25497.80
501.32	25673.34
501.49	25579.71
501.67	25460.35
501.84	25912.07
502.02	26125.06
502.20	26171.87
502.37	26497.20
502.55	26082.93
502.72	26478.48
502.90	26328.69
503.07	26532.31
503.25	26625.93
503.43	26597.85
503.60	26810.84
503.78	26464.44
503.95	26946.59
504.13	27054.25
504.30	26986.38
504.48	27072.98
504.65	27276.60
504.83	27501.29
505.01	27281.28
505.18	27484.91
505.36	27901.53
505.53	27695.56
505.71	27992.81
505.88	28259.63
506.06	27599.60
506.23	27934.29
506.41	27896.85
506.58	27882.80
506.76	28276.01
506.93	28528.79
507.11	28453.89
507.28	28467.94
507.46	28451.55
507.63	28442.19
507.81	28538.15
507.98	28065.36
508.16	28517.09
508.33	28573.26
508.50	28999.24
508.68	29165.42
508.85	29392.45
509.03	29116.26
509.20	29186.48
509.38	29619.48
509.55	29958.86
509.73	29820.77
509.90	29504.79
510.08	29654.59
510.25	30022.05
510.42	30185.89
510.60	30225.68
510.77	30651.66
510.95	30263.13
511.12	30321.64
511.30	30244.40
511.47	30621.23
511.64	30441.01
511.82	30906.77
511.99	30476.12
512.17	30955.93
512.34	30595.48
512.51	30951.24
512.69	31166.57
512.86	31257.85
513.04	31171.25
513.21	31543.40
513.38	31452.12
513.56	31648.72
513.73	31630.00
513.90	31512.97
514.08	31494.25
514.25	31807.88
514.43	31744.69
514.60	31714.26
514.77	31889.80
514.95	31831.29
515.12	31768.09
515.29	31852.35
515.47	32011.51
515.64	32341.52
515.81	31754.05
515.99	31683.83
516.16	32322.80
516.33	31976.40
516.51	32023.21
516.68	31838.31
516.85	31704.90
517.03	32306.41
517.20	32348.54
517.37	32313.44
517.54	32496.00
517.72	32432.80
517.89	32446.85
518.06	32765.16
518.24	32643.45
518.41	32683.24
518.58	32802.61
518.75	32830.69
518.93	33078.79
519.10	33106.88
519.27	33614.77
519.45	33322.21
519.62	33586.69
519.79	33596.05
519.96	33443.91
520.14	33680.31
520.31	33605.41
520.48	33509.45
520.65	33645.20
520.83	34345.02
521.00	34457.37
521.17	34288.85
521.34	34632.91
521.52	34127.35
521.69	34621.20
521.86	34586.10
522.03	34738.23
522.20	34361.40
522.38	35012.07
522.55	34799.08
522.72	34843.56
522.89	34899.73
523.07	35101.01
523.24	34979.31
523.41	35185.27
523.58	34902.07
523.75	35948.29
523.92	35372.52
524.10	35686.15
524.27	35852.33
524.44	35754.02
524.61	36020.84
524.78	35859.35
524.96	35967.01
525.13	35931.90
525.30	35805.52
525.47	35695.51
525.64	36102.76
525.81	35882.75
525.98	35779.77
526.16	35648.70
526.33	35807.86
526.50	36119.15
526.67	36177.66
526.84	36140.21
527.01	35894.46
527.18	36327.45
527.36	36442.14
527.53	36903.23
527.70	36374.27
527.87	36877.48
528.04	36678.54
528.21	36603.64
528.38	36847.05
528.55	37153.66
528.72	37462.61
528.89	37109.19
529.07	36816.63
529.24	36975.78
529.41	37078.77
529.58	37294.10
529.75	37088.13
529.92	37579.64
530.09	37759.86
530.26	37586.66
530.43	37474.32
530.60	37727.10
530.77	37708.37
530.94	37642.84
531.11	37619.43
531.28	37432.19
531.46	37823.06
531.63	37809.01
531.80	37572.62
531.97	37790.29
532.14	37951.79
532.31	37310.48
532.48	37638.15
532.65	38281.80
532.82	38197.54
532.99	38614.16
533.16	37921.36
533.33	38279.46
533.50	38487.77
533.67	38192.86
533.84	38216.27
534.01	38363.72
534.18	38569.69
534.35	38625.86
534.52	38651.61
534.69	38637.56
534.86	38560.33
535.03	38726.50
535.20	38822.47
535.37	39213.34
535.54	39391.22
535.71	38974.60
535.88	38976.94
536.05	39236.74
536.22	39311.64
536.38	39112.69
536.55	38471.39
536.72	39058.86
536.89	39023.75
537.06	39318.66
537.23	39201.63
537.40	39250.78
537.57	39304.62
537.74	39356.11
537.91	39557.39
538.08	39246.10
538.25	39262.49
538.42	39395.90
538.59	39934.22
538.75	39494.20
538.92	39840.60
539.09	39739.96
539.26	39505.90
539.43	39772.72
539.60	39770.38
539.77	39491.86
539.94	39714.21
540.11	39997.41
540.28	39751.66
540.44	40091.04
540.61	40360.20
540.78	39866.34
540.95	40294.66
541.12	39543.35
541.29	40126.14
541.46	40037.20
541.62	40287.64
541.79	40289.98
541.96	40268.92
542.13	40170.61
542.30	40446.80
542.47	40311.05
542.63	40271.26
542.80	40535.74
542.97	41127.89
543.14	40664.47
543.31	41352.58
543.48	40865.75
543.64	41184.07
543.81	41546.85
543.98	41422.80
544.15	41291.73
544.32	41357.27
544.48	41820.69
544.65	41354.93
544.82	41188.75
544.99	41375.99
545.16	41635.79
545.32	41497.70
545.49	41659.20
545.66	41954.10
545.83	41710.69
546.00	41649.83
546.16	41703.67
546.33	41535.15
546.50	40994.48
546.67	41593.66
546.83	41521.10
547.00	41563.23
547.17	41792.61
547.34	41593.66
547.50	41848.78
547.67	42059.43
547.84	41633.45
548.00	42574.34
548.17	42351.99
548.34	42068.79
548.51	42815.42
548.67	42157.73
548.84	42167.09
549.01	41933.04
549.18	42272.42
549.34	42127.30
549.51	42361.36
549.68	42057.09
549.84	42405.83
550.01	42181.13
550.18	42644.56
550.34	42096.88
550.51	42450.30
550.68	42291.14
550.84	42256.03
551.01	42951.17
551.18	42204.54
551.34	42440.93
551.51	42466.68
551.68	42564.98
551.84	42986.28
552.01	42197.52
552.18	42567.32
552.34	42270.08
552.51	42572.00
552.68	42707.76
552.84	42866.91
553.01	42777.97
553.18	42911.38
553.34	42801.38
553.51	42712.44
553.67	42796.70
553.84	43157.14
554.01	42869.25
554.17	42979.26
554.34	43339.70
554.51	43187.56
554.67	43367.79
554.84	43435.66
555.00	43213.31
555.17	43112.67
555.33	43248.42
555.50	43056.50
555.67	43147.78
555.83	43309.27
556.00	43260.12
556.16	43643.97
556.33	43185.22
556.50	43372.47
556.66	43477.79
556.83	43147.78
556.99	44149.53
557.16	43793.76
557.32	43491.83
557.49	43824.19
557.65	43171.18
557.82	43786.74
557.98	43690.78
558.15	43765.68
558.32	43854.62
558.48	43468.43
558.65	43540.99
558.81	43335.02
558.98	43356.08
559.14	43917.81
559.31	44081.65
559.47	43959.94
559.64	44369.54
559.80	44217.40
559.97	43852.28
560.13	43761.00
560.30	43423.96
560.46	43938.88
560.63	43849.94
560.79	44018.46
560.96	44032.50
561.12	43927.17
561.29	43985.69
561.45	44044.20
561.61	44046.54
561.78	43917.81
561.94	43707.16
562.11	44130.80
562.27	43915.47
562.44	44002.07
562.60	44788.49
562.77	44102.71
562.93	44467.84
563.10	44189.31
563.26	43571.41
563.42	44095.69
563.59	44177.61
563.75	43739.93
563.92	44301.66
564.08	44107.40
564.24	44381.24
564.41	44266.55
564.57	44399.96
564.74	43973.98
564.90	44479.54
565.07	44123.78
565.23	44280.60
565.39	44294.64
565.56	44437.41
565.72	44385.92
565.88	44355.49
566.05	44512.31
566.21	44079.31
566.38	44170.59
566.54	44587.21
566.70	44411.67
566.87	44325.07
567.03	44638.70
567.19	44818.92
567.36	44423.37
567.52	44355.49
567.68	44362.51
567.85	44243.15
568.01	44287.62
568.17	44266.55
568.34	44610.61
568.50	44215.06
568.66	44446.77
568.83	44671.46
568.99	44261.87
569.15	44612.95
569.32	44428.05
569.48	44580.18
569.64	44524.01
569.81	44697.21
569.97	44252.51
570.13	44439.75
570.30	44486.56
570.46	44416.35
570.62	44409.32
570.78	44568.48
570.95	44470.18
571.11	44652.74
571.27	44849.35
571.43	44554.44
571.60	44678.49
571.76	44556.78
571.92	44781.47
572.09	44837.64
572.25	44729.98
572.41	44498.26
572.57	44987.44
572.74	45247.24
572.90	44755.72
573.06	44954.67
573.22	44397.62
573.38	44788.49
573.55	44552.10
573.71	44706.57
573.87	44697.21
574.03	44847.00
574.20	44430.39
574.36	44900.84
574.52	45102.12
574.68	44741.68
574.84	45193.40
575.01	44495.92
575.17	44713.59
575.33	44460.82
575.49	44861.05
575.65	45029.57
575.82	44758.06
575.98	44854.03
576.14	45097.44
576.30	44851.69
576.46	44659.76
576.62	44694.87
576.79	44772.11
576.95	44512.31
577.11	44818.92
577.27	44694.87
577.43	44924.24
577.59	45015.52
577.75	44687.85
577.92	44095.69
578.08	44561.46
578.24	44964.03
578.40	44390.60
578.56	44577.84
578.72	44720.62
578.88	44975.73
579.04	45010.84
579.21	44608.27
579.37	44926.58
579.53	44737.00
579.69	44823.60
579.85	45085.74
580.01	44989.78
580.17	44807.22
580.33	45036.59
580.49	45027.23
580.65	45338.52
580.82	44821.26
580.98	44531.03
581.14	44746.36
581.30	45256.60
581.46	45338.52
581.62	45174.68
581.78	44795.51
581.94	45254.26
582.10	44964.03
582.26	45242.56
582.42	45270.64
582.58	44727.64
582.74	44610.61
582.90	45198.09
583.06	45102.12
583.22	45312.77
583.38	45226.17
583.54	45317.45
583.70	44980.42
583.86	44837.64
584.02	44823.60
584.18	45162.98
584.34	45083.40
584.50	44987.44
584.66	44596.57
584.82	44856.37
584.98	45081.06
585.14	45085.74
585.30	45031.91
585.46	45312.77
585.62	44849.35
585.78	44851.69
585.94	44463.16
586.10	45017.86
586.26	44722.96
586.42	45272.98
586.58	45333.84
586.74	45336.18
586.90	44921.90
587.06	44790.83
587.22	45272.98
587.38	44673.81
587.54	45170.00
587.70	45031.91
587.86	44935.95
588.02	44886.79
588.18	45457.88
588.34	44587.21
588.49	44928.92
588.65	44889.13
588.81	44765.09
588.97	44655.08
589.13	44390.60
589.29	44825.94
589.45	44882.11
589.61	44856.37
589.77	45139.57
589.93	45095.10
590.08	45345.54
590.24	44900.84
590.40	45139.57
590.56	45099.78
590.72	45132.55
590.88	45202.77
591.04	45404.05
591.20	45794.92
591.35	45120.85
591.51	45586.61
591.67	45219.15
591.83	45420.44
591.99	45528.10
592.15	45193.40
592.31	45397.03
592.46	45181.70
592.62	44966.37
592.78	45682.58
592.94	44949.99
593.10	45324.47
593.26	45448.52
593.41	45371.28
593.57	45382.99
593.73	45067.02
593.89	45134.89
594.05	44884.45
594.20	45485.97
594.36	45502.35
594.52	45429.80
594.68	45179.36
594.84	45059.99
594.99	45249.58
595.15	44910.20
595.31	45357.24
595.47	45052.97
595.62	45338.52
595.78	45481.29
595.94	45457.88
596.10	45684.92
596.25	45516.40
596.41	45359.58
596.57	45478.95
596.73	45689.60
596.88	45160.64
597.04	45467.25
597.20	44865.73
597.36	45151.27
597.51	45347.88
597.67	45652.15
597.83	45272.98
597.99	45591.30
598.14	45514.06
598.30	45705.98
598.46	45462.57
598.61	45642.79
598.77	45069.36
598.93	45123.19
599.09	45184.04
599.24	46110.89
599.40	45469.59
599.56	45738.75
599.71	45085.74
599.87	45579.59
600.03	45422.78
600.18	45361.92
600.34	44931.26
600.50	45478.95
600.65	45088.08
600.81	45614.70
600.97	45244.90
601.12	45291.71
601.28	45708.32
601.44	45862.80
601.59	45235.53
601.75	45034.25
601.91	45130.21
602.06	45029.57
602.22	45127.87
602.37	45521.08
602.53	45354.90
602.69	45937.69
602.84	45020.20
603.00	45106.80
603.16	45420.44
603.31	45123.19
603.47	45268.30
603.62	45401.71
603.78	45350.22
603.94	45537.46
604.09	45560.87
604.25	45684.92
604.40	45687.26
604.56	45481.29
604.71	45502.35
604.87	45226.17
605.03	45345.54
605.18	44968.71
605.34	45317.45
605.49	44896.16
605.65	45504.70
605.80	45113.83
605.96	45104.46
606.12	45031.91
606.27	45443.84
606.43	45565.55
606.58	45153.62
606.74	44886.79
606.89	45076.38
607.05	45223.83
607.20	45256.60
607.36	44835.30
607.51	45420.44
607.67	45359.58
607.82	45450.86
607.98	45062.33
608.13	44739.34
608.29	44987.44
608.44	44701.89
608.60	44889.13
608.75	44868.07
608.91	45165.32
609.06	44652.74
609.22	44577.84
609.37	44912.54
609.53	44739.34
609.68	44842.32
609.84	44601.25
609.99	44734.66
610.15	44718.28
610.30	44287.62
610.46	44648.06
610.61	44528.69
610.76	44940.63
610.92	44643.38
611.07	44575.50
611.23	44542.74
611.38	44605.93
611.54	44664.44
611.69	44538.05
611.84	44332.09
612.00	44385.92
612.15	43917.81
612.31	44725.30
612.46	44416.35
612.62	44615.29
612.77	44467.84
612.92	44926.58
613.08	44772.11
613.23	44334.43
613.39	44542.74
613.54	43955.26
613.69	44804.88
613.85	44348.47
614.00	44589.55
614.15	44488.90
614.31	44282.94
614.46	44596.57
614.62	44458.48
614.77	44442.09
614.92	44133.14
615.08	43910.79
615.23	43929.51
615.38	44334.43
615.54	43894.41
615.69	44116.76
615.84	43903.77
616.00	43798.44
616.15	43936.54
616.30	44074.63
616.46	43679.08
616.61	43627.59
616.76	43966.96
616.92	43555.03
617.07	43945.90
617.22	43395.87
617.37	43697.80
617.53	43824.19
617.68	44158.89
617.83	43889.73
617.99	44266.55
618.14	44378.90
618.29	43887.39
618.45	43658.01
618.60	43599.50
618.75	43552.69
618.90	43585.46
619.06	43578.43
619.21	43639.29
619.36	44081.65
619.51	43428.64
619.67	43531.62
619.82	43906.11
619.97	44083.99
620.12	43540.99
620.28	43145.44
620.43	43468.43
620.58	43428.64
620.73	43503.54
620.89	43009.68
621.04	43344.38
621.19	43540.99
621.34	43400.55
621.49	43019.05
621.65	43075.22
621.80	43473.11
621.95	42911.38
622.10	43063.52
622.25	42684.35
622.41	42707.76
622.56	42904.36
622.71	43360.76
622.86	42834.14
623.01	42974.58
623.16	43419.28
623.32	43079.90
623.47	43168.84
623.62	42981.60
623.77	42859.89
623.92	42525.19
624.07	42756.91
624.23	42246.67
624.38	42532.22
624.53	42604.77
624.68	42651.58
624.83	42897.34
624.98	42384.76
625.13	42436.25
625.29	42213.90
625.44	42717.12
625.59	42454.98
625.74	42003.25
625.89	41872.18
626.04	41914.31
626.19	41956.44
626.34	42492.43
626.49	42122.62
626.65	42305.18
626.80	42686.69
626.95	42078.15
627.10	42291.14
627.25	42176.45
627.40	41918.99
627.55	41797.29
627.70	41928.36
627.85	41701.32
628.00	42188.16
628.15	41883.89
628.30	41703.67
628.45	42094.53
628.60	41890.91
628.76	41916.65
628.91	42562.64
629.06	41972.83
629.21	41525.78
629.36	41769.20
629.51	41682.60
629.66	41500.04
629.81	41574.94
629.96	41383.01
630.11	41478.97
630.26	41443.87
630.41	42021.98
630.56	41696.64
630.71	41429.82
630.86	41539.83
631.01	41134.92
631.16	41876.86
631.31	41172.36
631.46	41186.41
631.61	41439.18
631.76	41394.71
631.91	41610.04
632.06	41603.02
632.21	41265.99
632.36	41500.04
632.51	41057.68
632.66	41120.87
632.81	40975.76
632.96	41024.91
633.10	40973.42
633.25	41303.43
633.40	41029.59
633.55	41102.15
633.70	40940.65
633.85	41022.57
634.00	40971.08
634.15	41125.55
634.30	41113.85
634.45	40776.81
634.60	41420.46
634.75	40554.46
634.90	40945.33
635.05	40568.51
635.19	40690.21
635.34	40896.18
635.49	40524.04
635.64	40664.47
635.79	40708.94
635.94	40332.11
636.09	40811.92
636.24	40533.40
636.39	40589.57
636.53	40643.40
636.68	40203.38
636.83	40933.63
636.98	40982.78
637.13	39995.07
637.28	40645.74
637.43	40631.70
637.57	40418.71
637.72	40435.10
637.87	40250.19
638.02	40217.43
638.17	40636.38
638.32	39812.51
638.46	40254.87
638.61	40313.39
638.76	40271.26
638.91	40411.69
639.06	39927.20
639.20	40123.80
639.35	40458.50
639.50	39477.82
639.65	40470.20
639.80	39964.65
639.94	39959.97
640.09	40128.48
640.24	39735.27
640.39	39468.45
640.54	39384.19
640.68	39622.93
640.83	39985.71
640.98	39414.62
641.13	39597.18
641.27	40006.78
641.42	39643.99
641.57	39646.33
641.72	39770.38
641.86	39503.56
642.01	39150.14
642.16	39583.14
642.31	39470.79
642.45	39613.57
642.60	39166.52
642.75	39356.11
642.90	39309.30
643.04	39538.67
643.19	39182.91
643.34	39225.04
643.48	39157.16
643.63	38927.79
643.78	38925.45
643.93	38911.41
644.07	39119.71
644.22	38960.56
644.37	38841.19
644.51	39206.31
644.66	39196.95
644.81	38909.07
644.95	39267.17
645.10	39234.40
645.25	39414.62
645.39	38857.57
645.54	39054.18
645.69	39199.29
645.83	39115.03
645.98	38990.98
646.13	38829.49
646.27	39049.50
646.42	38986.30
646.57	39136.10
646.71	38909.07
646.86	39178.23
647.00	39274.19
647.15	39246.10
647.30	38789.70
647.44	38569.69
647.59	39122.05
647.74	38323.93
647.88	38728.84
648.03	38892.68
648.17	38665.65
648.32	38305.21
648.47	38710.12
648.61	38485.43
648.76	38951.20
648.90	38450.32
649.05	38494.79
649.20	38525.22
649.34	38527.56
649.49	38043.07
649.63	38108.60
649.78	38209.25
649.92	37937.74
650.07	38429.26
650.21	38000.94
650.36	38220.95
650.51	38389.47
650.65	38424.57
650.80	38541.60
650.94	38274.78
651.09	38485.43
651.23	38073.49
651.38	38101.58
651.52	37916.68
651.67	38047.75
651.81	38026.68
651.96	37579.64
652.10	37862.85
652.25	37621.77
652.39	37965.83
652.54	37811.35
652.68	37635.81
652.83	38094.56
652.97	37848.80
653.12	37612.41
653.26	37387.72
653.41	37471.98
653.55	37511.77
653.70	37565.60
653.84	37701.35
653.99	37867.53
654.13	37434.53
654.27	37734.12
654.42	37053.02
654.56	37343.25
654.71	37368.99
654.85	37567.94
655.00	37926.04
655.14	37212.18
655.29	37158.34
655.43	37188.77
655.57	36744.07
655.72	36601.30
655.86	36868.12
656.01	36835.35
656.15	36959.40
656.30	37071.75
656.44	36896.20
656.58	36886.84
656.73	36322.77
656.87	36758.11
657.01	36699.60
657.16	37109.19
657.30	36917.27
657.45	36811.95
657.59	36711.30
657.73	36503.00
657.88	36809.61
658.02	37067.06
658.16	36730.03
658.31	37048.34
658.45	37219.20
658.60	36432.78
658.74	36772.16
658.88	36627.04
659.03	36231.49
659.17	36280.64
659.31	36547.47
659.46	36507.68
659.60	36723.01
659.74	36400.01
659.89	36079.36
660.03	36243.20
660.17	36282.98
660.32	36135.53
660.46	36388.31
660.60	36418.74
660.74	36325.11
660.89	36453.84
661.03	35967.01
661.17	35943.61
661.32	35543.38
661.46	35281.24
661.60	35449.75
661.74	35662.74
661.89	35634.66
662.03	35683.81
662.17	35674.45
662.31	35229.74
662.46	35620.61
662.60	35632.32
662.74	35431.03
662.88	35292.94
663.03	34698.44
663.17	34871.64
663.31	34932.50
663.45	35274.21
663.60	35379.54
663.74	34742.91
663.88	34813.13
664.02	35044.84
664.17	34866.96
664.31	34646.95
664.45	35096.33
664.59	34948.88
664.73	34239.70
664.88	34930.16
665.02	34401.19
665.16	34635.25
665.30	34876.32
665.44	34810.79
665.59	34670.36
665.73	34237.36
665.87	34497.16
666.01	34366.09
666.15	34230.33
666.29	34403.53
666.44	34621.20
666.58	34335.66
666.72	33844.15
666.86	34293.53
667.00	33897.98
667.14	33841.81
667.28	34075.86
667.43	33537.54
667.57	33776.27
667.71	33518.81
667.85	33846.49
667.99	33591.37
668.13	33511.79
668.27	33642.86
668.41	33408.81
668.56	33039.00
668.70	33008.58
668.84	33570.30
668.98	33041.34
669.12	32886.87
669.26	33015.60
669.40	32514.72
669.54	32517.06
669.68	32868.14
669.82	32802.61
669.96	32879.85
670.10	32456.21
670.25	32919.63
670.39	32521.74
670.53	32718.35
670.67	32290.03
670.81	32863.46
670.95	32758.14
671.09	32463.23
671.23	32554.51
671.37	32423.44
671.51	32280.67
671.65	32053.64
671.79	32156.62
671.93	31709.58
672.07	32020.87
672.21	32215.13
672.35	31686.17
672.49	31489.57
672.63	31847.67
672.77	31669.79
672.91	31927.25
673.05	31508.29
673.19	31615.96
673.33	31239.13
673.47	31257.85
673.61	31337.43
673.75	31094.02
673.89	30864.64
674.03	30831.88
674.17	30976.99
674.31	31182.96
674.45	30895.07
674.59	30939.54
674.73	30974.65
674.87	30644.63
675.01	30206.95
675.15	30855.28
675.29	30473.78
675.43	30642.29
675.56	30078.22
675.70	30314.62
675.84	29961.20
675.98	29355.00
676.12	30071.20
676.26	29893.32
676.40	30169.51
676.54	29738.85
676.68	29902.68
676.82	29043.71
676.96	29607.78
677.10	29450.96
677.23	29268.40
677.37	29635.86
677.51	29113.92
677.65	28961.79
677.79	28957.11
677.93	28701.99
678.07	28732.42
678.21	28922.00
678.34	28538.15
678.48	28730.08
678.62	28023.23
678.76	28154.30
678.90	28257.29
679.04	27686.20
679.18	28091.11
679.31	27878.12
679.45	27812.59
679.59	27288.31
679.73	27702.58
679.87	27623.00
680.00	27374.91
680.14	27491.93
680.28	27520.02
680.42	27225.11
680.56	27351.50
680.70	27124.47
680.83	27199.37
680.97	27328.10
681.11	27281.28
681.25	26661.04
681.39	26778.07
681.52	26796.79
681.66	26904.46
681.80	26939.57
681.94	26581.46
682.07	26735.94
682.21	26204.64
682.35	26405.92
682.49	26281.88
682.62	26335.71
682.76	26125.06
682.90	25928.45
683.04	26005.69
683.17	25654.61
683.31	25607.80
683.45	25680.36
683.59	25436.94
683.72	25715.47
683.86	25270.76
684.00	25324.60
684.13	25355.02
684.27	25113.95
684.41	25174.80
684.55	24884.58
684.68	24837.76
684.82	24428.17
684.96	24552.22
685.09	24758.19
685.23	24467.96
685.37	24278.38
685.50	24357.96
685.64	24163.69
685.78	24105.18
685.91	24142.63
686.05	23948.36
686.19	23833.68
686.32	23871.12
686.46	23314.08
686.60	23386.63
686.73	23194.71
686.87	23328.12
687.01	23463.87
687.14	22721.92
687.28	22916.19
687.42	22845.97
687.55	22593.19
687.69	22979.38
687.82	22995.76
687.96	23070.66
688.10	22689.15
688.23	22735.96
688.37	22263.18
688.50	22195.30
688.64	22387.22
688.78	22251.47
688.91	22483.19
689.05	22412.97
689.18	22267.86
689.32	21738.90
689.46	21935.50
689.59	21947.20
689.73	22150.83
689.86	21888.69
690.00	21572.72
690.13	21893.37
690.27	21380.79
690.41	21656.98
690.54	21081.21
690.68	21160.78
690.81	20798.00
690.95	21020.35
691.08	20863.54
691.22	20585.01
691.35	21018.01
691.49	20940.77
691.62	20858.85
691.76	20631.82
691.89	20482.03
692.03	20231.59
692.16	20386.07
692.30	20334.57
692.43	20299.47
692.57	19831.36
692.70	19800.93
692.84	19845.40
692.97	19714.33
693.11	19559.86
693.24	19976.47
693.38	19220.48
693.51	19501.34
693.65	19569.22
693.78	19599.65
693.92	19791.57
694.05	19386.66
694.19	19442.83
694.32	19192.39
694.45	18824.93
694.59	18946.64
694.72	18735.99
694.86	18616.62
694.99	18473.85
695.13	18698.54
695.26	18530.02
695.39	18319.37
695.53	18235.11
695.66	18347.46
695.80	18595.56
695.93	18628.32
696.07	18436.40
696.20	18270.22
696.33	18075.96
696.47	18071.28
696.60	17994.04
696.73	17813.82
696.87	17561.04
697.00	17657.00
697.14	17689.77
697.27	17638.28
697.40	17635.94
697.54	17399.54
697.67	17247.41
697.80	17341.03
697.94	17156.13
698.07	17001.65
698.21	16868.24
698.34	16896.33
698.47	16823.77
698.61	16266.72
698.74	16631.85
698.87	16500.78
699.01	16257.36
699.14	16051.39
699.27	16360.34
699.40	16327.58
699.54	15962.45
699.67	16032.67
699.80	15925.00
699.94	16081.82
700.07	15880.53
700.20	15765.85
700.34	15606.69
700.47	15807.98
700.60	16002.24
700.73	15988.20
700.87	15878.19
701.00	15534.14
701.13	15583.29
701.26	15147.95
701.40	15405.41
701.53	15059.01
701.66	15101.14
701.79	14869.42
701.93	14843.68
702.06	14691.54
702.19	14768.78
702.32	14993.47
702.46	14771.12
702.59	14384.93
702.72	14684.52
702.85	14539.41
702.99	14644.73
703.12	14366.21
703.25	14352.16
703.38	14136.84
703.51	13851.29
703.65	14288.97
703.78	13975.34
703.91	13900.44
704.04	13902.78
704.17	14106.41
704.31	13870.01
704.44	13734.26
704.57	13776.39
704.70	13589.15
704.83	13659.37
704.96	13860.65
705.10	13797.46
705.23	13401.91
>>>>>End Processed Spectral Data<<<<<
