SpectraSuite Data File
++++++++++++++++++++++++++++++++++++
Date: Fri Oct 25 10:48:22 EDT 2013
User: price-jones
Dark Spectrum Present: No
Reference Spectrum Present: No
Number of Sampled Component Spectra: 1
Spectrometers: USB2+H05261
Integration Time (usec): 100000 (USB2+H05261)
Spectra Averaged: 1 (USB2+H05261)
Boxcar Smoothing: 0 (USB2+H05261)
Correct for Electrical Dark: No (USB2+H05261)
Strobe/Lamp Enabled: No (USB2+H05261)
Correct for Detector Non-linearity: No (USB2+H05261)
Correct for Stray Light: No (USB2+H05261)
Number of Pixels in Processed Spectrum: 2048
>>>>>Begin Processed Spectral Data<<<<<
365.73	131.07
365.92	131.07
366.12	131.07
366.32	39.79
366.52	70.22
366.72	49.15
366.91	56.17
367.11	0.00
367.31	0.00
367.51	9.36
367.70	9.36
367.90	14.04
368.10	81.92
368.30	9.36
368.49	46.81
368.69	51.49
368.89	25.75
369.09	93.62
369.28	133.41
369.48	95.96
369.68	49.15
369.87	124.05
370.07	138.09
370.27	121.71
370.47	212.99
370.66	386.19
370.86	472.79
371.06	521.94
371.25	503.22
371.45	435.34
371.65	482.15
371.84	442.36
372.04	465.77
372.24	519.60
372.44	517.26
372.63	472.79
372.83	566.41
373.03	512.58
373.22	550.03
373.42	545.34
373.62	554.71
373.81	573.43
374.01	566.41
374.21	603.86
374.40	636.63
374.60	594.50
374.79	657.69
374.99	535.98
375.19	578.11
375.38	634.29
375.58	580.45
375.78	641.31
375.97	648.33
376.17	664.71
376.37	566.41
376.56	653.01
376.76	615.56
376.95	606.20
377.15	718.54
377.35	711.52
377.54	739.61
377.74	662.37
377.93	622.58
378.13	692.80
378.33	683.44
378.52	699.82
378.72	718.54
378.91	737.27
379.11	688.12
379.31	692.80
379.50	690.46
379.70	788.76
379.89	791.10
380.09	667.05
380.28	636.63
380.48	702.16
380.68	662.37
380.87	800.46
381.07	688.12
381.26	746.63
381.46	755.99
381.65	753.65
381.85	741.95
382.04	781.74
382.24	699.82
382.43	695.14
382.63	732.59
382.83	713.86
383.02	727.91
383.22	774.72
383.41	720.88
383.61	758.33
383.80	807.48
384.00	807.48
384.19	814.51
384.39	716.20
384.58	875.36
384.78	837.91
384.97	835.57
385.17	732.59
385.36	774.72
385.56	765.36
385.75	840.25
385.95	866.00
386.14	840.25
386.34	835.57
386.53	793.44
386.72	842.59
386.92	870.68
387.11	896.43
387.31	961.96
387.50	887.06
387.70	910.47
387.89	889.40
388.09	903.45
388.28	940.90
388.48	945.58
388.67	917.49
388.86	978.34
389.06	997.07
389.25	950.26
389.45	908.13
389.64	959.62
389.84	1078.99
390.03	1015.79
390.22	971.32
390.42	983.02
390.61	971.32
390.81	1076.65
391.00	1046.22
391.19	1053.24
391.39	1078.99
391.58	1013.45
391.78	1001.75
391.97	1144.52
392.16	1095.37
392.36	1123.46
392.55	931.53
392.75	1025.15
392.94	1011.11
393.13	1011.11
393.33	1060.26
393.52	1076.65
393.71	1125.80
393.91	1128.14
394.10	1067.28
394.29	1121.12
394.49	1205.38
394.68	1149.20
394.88	1306.02
395.07	1308.36
395.26	1240.48
395.46	1275.59
395.65	1296.66
395.84	1242.82
396.04	1385.60
396.23	1212.40
396.42	1186.65
396.62	1130.48
396.81	1219.42
397.00	1259.21
397.19	1256.87
397.39	1369.21
397.58	1362.19
397.77	1369.21
397.97	1514.33
398.16	1446.45
398.35	1488.58
398.55	1600.93
398.74	1554.12
398.93	1547.09
399.12	1589.22
399.32	1469.86
399.51	1617.31
399.70	1633.69
399.90	1603.27
400.09	1610.29
400.28	1624.33
400.47	1547.09
400.67	1584.54
400.86	1570.50
401.05	1638.38
401.24	1769.44
401.44	1734.34
401.63	1753.06
401.82	1713.27
402.01	1844.34
402.21	1722.63
402.40	1799.87
402.59	1736.68
402.78	1699.23
402.97	1839.66
403.17	1830.30
403.36	1811.57
403.55	1867.75
403.74	1902.86
403.93	1842.00
404.13	1893.49
404.32	1968.39
404.51	1849.02
404.70	1914.56
404.89	1785.83
405.09	1989.46
405.28	1940.30
405.47	2045.63
405.66	1926.26
405.85	1940.30
406.05	2064.35
406.24	1970.73
406.43	2010.52
406.62	2085.42
406.81	2155.63
407.00	2066.69
407.20	2003.50
407.39	2127.55
407.58	2099.46
407.77	2083.08
407.96	2242.23
408.15	2223.51
408.34	2282.02
408.54	2349.90
408.73	2291.38
408.92	2277.34
409.11	2293.72
409.30	2347.56
409.49	2256.28
409.68	2291.38
409.87	2340.54
410.07	2525.44
410.26	2420.11
410.45	2338.20
410.64	2459.90
410.83	2513.74
411.02	2464.58
411.21	2619.06
411.40	2581.61
411.59	2649.49
411.78	2569.91
411.98	2619.06
412.17	2605.02
412.36	2752.47
412.55	2534.80
412.74	2726.72
412.93	2738.43
413.12	2825.03
413.31	2836.73
413.50	2871.84
413.69	2843.75
413.88	2944.39
414.07	2899.92
414.26	2967.80
414.45	3098.87
414.64	3082.49
414.83	3021.63
415.02	3059.08
415.22	3197.17
415.41	3206.53
415.60	3199.51
415.79	3091.85
415.98	3197.17
416.17	3164.40
416.36	3339.94
416.55	3108.23
416.74	3204.19
416.93	3098.87
417.12	3328.24
417.31	3356.33
417.50	3356.33
417.69	3461.65
417.88	3494.42
418.07	3435.91
418.26	3370.37
418.45	3489.74
418.64	3569.32
418.83	3700.39
419.02	3571.66
419.21	3508.46
419.39	3623.15
419.58	3620.81
419.77	3606.77
419.96	3688.68
420.15	3784.65
420.34	3613.79
420.53	3754.22
420.72	3892.31
420.91	3744.86
421.10	3740.18
421.29	3913.38
421.48	3810.39
421.67	3894.65
421.86	3698.05
422.05	3913.38
422.24	3794.01
422.43	3880.61
422.61	3918.06
422.80	3859.54
422.99	4095.94
423.18	4145.09
423.37	4056.15
423.56	3929.76
423.75	3889.97
423.94	3854.86
424.13	3758.90
424.32	3857.20
424.50	3997.64
424.69	4042.11
424.88	4053.81
425.07	3995.29
425.26	3948.48
425.45	3922.74
425.64	4021.04
425.83	3798.69
426.01	4180.20
426.20	3969.55
426.39	4088.92
426.58	4067.85
426.77	3960.19
426.96	3983.59
427.15	4046.79
427.33	4042.11
427.52	4187.22
427.71	4304.25
427.90	4219.99
428.09	4007.00
428.28	4184.88
428.46	4037.42
428.65	4180.20
428.84	4259.78
429.03	4250.41
429.22	4095.94
429.40	4138.07
429.59	4250.41
429.78	3981.25
429.97	4133.39
430.16	4154.45
430.34	4112.32
430.53	4184.88
430.72	4245.73
430.91	4236.37
431.10	4500.85
431.28	4559.36
431.47	4720.86
431.66	4793.42
431.85	4491.49
432.03	4498.51
432.22	4643.62
432.41	4585.11
432.60	4798.10
432.79	4615.54
432.97	4791.08
433.16	4760.65
433.35	4781.71
433.54	4683.41
433.72	4786.40
433.91	4741.93
434.10	4882.36
434.28	4823.84
434.47	4973.64
434.66	5050.88
434.85	5001.72
435.03	5081.30
435.22	5032.15
435.41	4950.23
435.59	5022.79
435.78	5142.16
435.97	5308.34
436.16	5057.90
436.34	5231.10
436.53	5219.39
436.72	5284.93
436.90	5057.90
437.09	5139.82
437.28	5018.11
437.46	5203.01
437.65	5298.97
437.84	5235.78
438.02	5144.50
438.21	5266.21
438.40	5123.43
438.58	5432.38
438.77	5504.94
438.96	5476.85
439.14	5572.82
439.33	5540.05
439.52	5701.54
439.70	5621.97
439.89	5694.52
440.08	5767.08
440.26	5701.54
440.45	5818.57
440.63	5839.64
440.82	6001.13
441.01	5921.56
441.19	6019.86
441.38	6136.88
441.57	6038.58
441.75	6363.92
441.94	6356.90
442.12	6338.17
442.31	6345.19
442.50	6310.08
442.68	6333.49
442.87	6436.47
443.05	6476.26
443.24	6539.46
443.43	6317.11
443.61	6532.44
443.80	6502.01
443.98	6279.66
444.17	6181.35
444.35	6604.99
444.54	6647.12
444.73	6635.42
444.91	6565.20
445.10	6480.94
445.28	6373.28
445.47	6293.70
445.65	6626.06
445.84	6523.07
446.02	6534.78
446.21	6560.52
446.39	6511.37
446.58	6693.93
446.77	6747.76
446.95	6682.23
447.14	6738.40
447.32	6853.09
447.51	6892.88
447.69	6558.18
447.88	6590.95
448.06	6672.87
448.25	6829.68
448.43	6853.09
448.62	6810.96
448.80	6602.65
448.99	6787.55
449.17	6909.26
449.36	6817.98
449.54	7002.88
449.73	6974.80
449.91	7110.55
450.10	7316.51
450.28	7236.94
450.46	7262.68
450.65	7325.88
450.83	7103.53
451.02	7239.28
451.20	7412.48
451.39	7274.38
451.57	7143.32
451.76	7185.44
451.94	7330.56
452.13	7169.06
452.31	7297.79
452.49	7255.66
452.68	7208.85
452.86	7190.13
453.05	7325.88
453.23	7396.09
453.42	7379.71
453.60	7480.35
453.78	7468.65
453.97	7426.52
454.15	7538.87
454.34	7468.65
454.52	7730.79
454.70	7454.61
454.89	7709.72
455.07	7573.97
455.26	7674.62
455.44	7819.73
455.62	7672.28
455.81	7932.08
455.99	7801.01
456.17	7981.23
456.36	7882.92
456.54	7925.05
456.73	7962.50
456.91	8161.45
457.09	8173.15
457.28	8390.82
457.46	8056.12
457.64	8248.05
457.83	8250.39
458.01	8196.56
458.19	8400.18
458.38	8285.50
458.56	8573.38
458.74	8238.69
458.93	8336.99
459.11	8376.78
459.29	8465.72
459.48	8243.37
459.66	8372.10
459.84	8456.36
460.03	8552.32
460.21	8547.64
460.39	8514.87
460.57	8538.27
460.76	8652.96
460.94	8617.85
461.12	8676.37
461.31	8798.07
461.49	8695.09
461.67	8758.28
461.85	8971.27
462.04	8753.60
462.22	9226.39
462.40	8786.37
462.59	8856.59
462.77	8994.68
462.95	9273.20
463.13	8978.30
463.32	9210.01
463.50	9240.44
463.68	8961.91
463.86	9018.08
464.05	8898.72
464.23	8905.74
464.41	9144.47
464.59	8912.76
464.78	9130.43
464.96	9149.15
465.14	9114.05
465.32	9387.89
465.50	9338.74
465.69	9245.12
465.87	9418.32
466.05	9193.62
466.23	9240.44
466.41	9343.42
466.60	9439.38
466.78	9191.28
466.96	9261.50
467.14	9408.95
467.32	9266.18
467.51	9558.75
467.69	9280.22
467.87	9448.74
468.05	9603.22
468.23	9621.94
468.41	9387.89
468.60	9430.02
468.78	9621.94
468.96	9565.77
469.14	9769.40
469.32	9729.61
469.50	9568.11
469.69	9645.35
469.87	9851.31
470.05	9949.62
470.23	9731.95
470.41	9661.73
470.59	10068.98
470.77	10071.33
470.95	9921.53
471.14	10178.99
471.32	10080.69
471.50	10253.89
471.68	10415.38
471.86	10370.91
472.04	10431.77
472.22	10689.23
472.40	10298.36
472.58	10403.68
472.77	10511.35
472.95	10714.97
473.13	11037.97
473.31	10593.26
473.49	10490.28
473.67	10604.97
473.85	10757.10
474.03	11063.71
474.21	10860.09
474.39	11033.29
474.57	11126.91
474.75	11286.06
474.93	11250.96
475.12	11129.25
475.30	10995.84
475.48	11335.21
475.66	11229.89
475.84	11370.32
476.02	11623.10
476.20	11536.50
476.38	11840.77
476.56	12095.89
476.74	11843.11
476.92	11845.45
477.10	11988.22
477.28	12191.85
477.46	12177.81
477.64	12493.78
477.82	12215.26
478.00	12505.48
478.18	12645.91
478.36	12444.63
478.54	12800.39
478.72	12786.35
478.90	12901.03
479.08	12961.89
479.26	13060.19
479.44	13149.13
479.62	13427.65
479.80	13490.85
479.98	13500.21
480.16	13652.34
480.34	13724.90
480.52	14118.11
480.70	13933.21
480.88	13692.13
481.06	13930.87
481.24	13853.63
481.41	14413.02
481.59	14516.00
481.77	14328.76
481.95	14333.44
482.13	14728.99
482.31	14745.38
482.49	15061.35
482.67	14963.04
482.85	15283.70
483.03	15150.29
483.21	15192.42
483.39	15538.82
483.57	15410.09
483.74	15672.23
483.92	15770.53
484.10	15660.52
484.28	16133.31
484.46	16100.55
484.64	16205.87
484.82	16299.49
485.00	16320.56
485.18	16844.84
485.35	16606.10
485.53	16217.57
485.71	16496.10
485.89	16514.82
486.07	16793.34
486.25	16938.46
486.43	17128.04
486.61	17240.39
486.78	17071.87
486.96	17675.73
487.14	18024.47
487.32	17769.35
487.50	18115.75
487.68	18333.42
487.85	18326.39
488.03	18782.80
488.21	18539.38
488.39	18775.78
488.57	18855.36
488.75	18689.18
488.92	19468.58
489.10	19431.13
489.28	19716.67
489.46	19758.80
489.64	19782.21
489.81	20493.73
489.99	20154.35
490.17	20493.73
490.35	20460.96
490.53	20566.29
490.70	20737.15
490.88	20688.00
491.06	20950.14
491.24	20919.71
491.41	20940.77
491.59	20943.11
491.77	21050.78
491.95	21158.44
492.13	21528.25
492.30	21647.61
492.48	21460.37
492.66	22036.14
492.84	21762.30
493.01	22443.40
493.19	22394.25
493.37	22583.83
493.54	22412.97
493.72	22771.07
493.90	22726.60
494.08	23033.21
494.25	23405.36
494.43	23428.76
494.61	23531.75
494.79	23616.01
494.96	23211.09
495.14	23473.23
495.32	23765.80
495.49	23817.29
495.67	24091.13
495.85	24367.32
496.02	24540.52
496.20	24411.79
496.38	24542.86
496.55	24519.45
496.73	25656.95
496.91	24816.70
497.09	25181.82
497.26	25397.15
497.44	25160.76
497.62	25511.84
497.79	25495.46
497.97	25394.81
498.14	25544.61
498.32	25720.15
498.50	25474.39
498.67	26089.95
498.85	26265.49
499.03	26188.25
499.20	26539.33
499.38	26806.16
499.56	26597.85
499.73	26551.04
499.91	26754.66
500.08	26749.98
500.26	26703.17
500.44	26448.05
500.61	26991.06
500.79	27232.13
500.97	27094.04
501.14	27562.15
501.32	27641.73
501.49	27449.80
501.67	27515.34
501.84	27391.29
502.02	27847.69
502.20	28100.47
502.37	27896.85
502.55	28095.79
502.72	28327.50
502.90	27999.83
503.07	28343.89
503.25	28180.05
503.43	28386.02
503.60	28231.54
503.78	28524.11
503.95	28739.44
504.13	28823.70
504.30	29308.19
504.48	29071.79
504.65	28816.68
504.83	29289.46
505.01	29535.22
505.18	29177.12
505.36	29834.81
505.53	30008.01
505.71	29762.25
505.88	30178.87
506.06	30162.48
506.23	30005.67
506.41	29682.67
506.58	29802.04
506.76	30054.82
506.93	30368.45
507.11	30466.75
507.28	30101.63
507.46	30082.91
507.63	30529.95
507.81	30607.19
507.98	30581.44
508.16	30866.98
508.33	30834.22
508.50	31030.82
508.68	31175.94
508.85	31440.42
509.03	31325.73
509.20	31407.65
509.38	31494.25
509.55	31264.88
509.73	31512.97
509.90	31782.13
510.08	31817.24
510.25	31885.12
510.42	31814.90
510.60	31948.31
510.77	32058.32
510.95	32573.24
511.12	32257.26
511.30	32098.11
511.47	32830.69
511.64	32950.06
511.82	32774.52
511.99	32496.00
512.17	32837.72
512.34	32594.30
512.51	33008.58
512.69	33067.09
512.86	33141.99
513.04	33593.71
513.21	33216.88
513.38	33085.81
513.56	32814.31
513.73	32971.13
513.90	33251.99
514.08	33347.95
514.25	33692.01
514.43	33369.02
514.60	33708.40
514.77	33907.34
514.95	34033.73
515.12	33790.31
515.29	34061.82
515.47	34342.68
515.64	34029.05
515.81	33872.23
515.99	34359.06
516.16	34125.01
516.33	33923.72
516.51	33951.81
516.68	33638.18
516.85	33909.68
517.03	33989.26
517.20	34150.76
517.37	34536.94
517.54	34991.01
517.72	34642.27
517.89	33769.25
518.06	34597.80
518.24	34756.96
518.41	34518.22
518.58	34817.81
518.75	34763.98
518.93	35201.66
519.10	35325.71
519.27	35714.23
519.45	35281.24
519.62	35707.21
519.79	35615.93
519.96	35922.54
520.14	36458.52
520.31	35824.24
520.48	36285.33
520.65	36275.96
520.83	36521.72
521.00	36032.55
521.17	36400.01
521.34	36634.06
521.52	36723.01
521.69	37008.55
521.86	36753.43
522.03	36821.31
522.20	36795.56
522.38	36786.20
522.55	36900.89
522.72	37116.22
522.89	36844.71
523.07	36669.17
523.24	36928.97
523.41	36926.63
523.58	37043.66
523.75	37523.47
523.92	37399.42
524.10	37858.17
524.27	37486.02
524.44	37560.92
524.61	37584.32
524.78	37675.60
524.96	37912.00
525.13	38124.99
525.30	38459.68
525.47	38452.66
525.64	37996.26
525.81	38471.39
525.98	37930.72
526.16	37872.21
526.33	37385.38
526.50	38335.63
526.67	37581.98
526.84	37764.54
527.01	37954.13
527.18	37872.21
527.36	38602.46
527.53	38565.01
527.70	38923.11
527.87	38747.57
528.04	38827.15
528.21	38822.47
528.38	39077.58
528.55	39295.25
528.72	39005.03
528.89	39440.37
529.07	39356.11
529.24	39019.07
529.41	39412.28
529.58	38827.15
529.75	39260.15
529.92	39426.32
530.09	39365.47
530.26	40133.17
530.43	39651.02
530.60	39487.18
530.77	39849.96
530.94	39969.33
531.11	39962.31
531.28	40095.72
531.46	39992.73
531.63	40105.08
531.80	39875.71
531.97	39618.25
532.14	39969.33
532.31	39592.50
532.48	40336.79
532.65	40018.48
532.82	39892.09
532.99	40533.40
533.16	40369.56
533.33	40179.98
533.50	40926.61
533.67	40339.13
533.84	40568.51
534.01	40411.69
534.18	40737.02
534.35	40814.26
534.52	40814.26
534.69	40898.52
534.86	41153.64
535.03	40912.56
535.20	41359.61
535.37	41240.24
535.54	41478.97
535.71	41113.85
535.88	40987.46
536.05	41062.36
536.22	41205.13
536.38	41394.71
536.55	41434.50
536.72	41282.37
536.89	40786.18
537.06	41457.91
537.23	41425.14
537.40	41750.48
537.57	41556.21
537.74	41900.27
537.91	41722.39
538.08	41890.91
538.25	41563.23
538.42	42080.49
538.59	41502.38
538.75	41628.77
538.92	41500.04
539.09	41876.86
539.26	41504.72
539.43	42024.32
539.60	42192.84
539.77	42094.53
539.94	42078.15
540.11	41745.80
540.28	41656.85
540.44	41724.73
540.61	42344.97
540.78	42080.49
540.95	42139.00
541.12	42323.91
541.29	42253.69
541.46	42309.86
541.62	42323.91
541.79	42600.09
541.96	42307.52
542.13	42155.39
542.30	42637.54
542.47	42403.49
542.63	42609.45
542.80	43009.68
542.97	43068.20
543.14	42983.94
543.31	42883.30
543.48	43323.32
543.64	43386.51
543.81	43585.46
543.98	43447.36
544.15	42759.25
544.32	43002.66
544.48	43615.88
544.65	43695.46
544.82	43140.75
544.99	43192.25
545.16	43686.10
545.32	43342.04
545.49	43379.49
545.66	43744.61
545.83	43613.54
546.00	43992.71
546.16	43929.51
546.33	43810.15
546.50	43543.33
546.67	43564.39
546.83	43746.95
547.00	43573.75
547.17	44217.40
547.34	43480.13
547.50	44175.27
547.67	44299.32
547.84	44058.24
548.00	44285.28
548.17	43990.37
548.34	44477.20
548.51	44158.89
548.67	44629.34
548.84	44327.41
549.01	44205.70
549.18	44233.78
549.34	44502.95
549.51	44516.99
549.68	44247.83
549.84	44811.90
550.01	44999.14
550.18	44767.43
550.34	44184.63
550.51	44832.96
550.68	44189.31
550.84	44182.29
551.01	44655.08
551.18	44938.29
551.34	45364.26
551.51	44638.70
551.68	44713.59
551.84	45022.54
552.01	44516.99
552.18	44641.04
552.34	44320.38
552.51	44676.15
552.68	44751.04
552.84	44783.81
553.01	45366.60
553.18	45310.43
553.34	45017.86
553.51	45202.77
553.67	44713.59
553.84	45366.60
554.01	45427.46
554.17	45366.60
554.34	45418.10
554.51	45034.25
554.67	45628.74
554.84	45249.58
555.00	44989.78
555.17	45195.74
555.33	45434.48
555.50	45247.24
555.67	45467.25
555.83	45324.47
556.00	45738.75
556.16	45886.20
556.33	45436.82
556.50	45378.31
556.66	45422.78
556.83	45542.14
556.99	45673.21
557.16	45705.98
557.32	45586.61
557.49	45808.96
557.65	45167.66
557.82	45851.09
557.98	45736.41
558.15	45750.45
558.32	45698.96
558.48	45485.97
558.65	45799.60
558.81	45443.84
558.98	46017.27
559.14	45830.03
559.31	45778.54
559.47	45420.44
559.64	46003.23
559.80	45954.08
559.97	45846.41
560.13	45483.63
560.30	46141.32
560.46	46087.49
560.63	46265.37
560.79	45982.16
560.96	46043.02
561.12	46043.02
561.29	46059.40
561.45	45670.87
561.61	46057.06
561.78	45727.05
561.94	46071.10
562.11	46096.85
562.27	46094.51
562.44	45925.99
562.60	46567.30
562.77	46279.41
562.93	46066.42
563.10	46082.81
563.26	45944.72
563.42	46656.24
563.59	46389.42
563.75	46253.67
563.92	46188.13
564.08	46466.66
564.24	46693.69
564.41	46485.38
564.57	46543.89
564.74	46080.47
564.90	46490.06
565.07	46223.24
565.23	46351.97
565.39	46162.39
565.56	46263.03
565.72	46068.76
565.88	46532.19
566.05	46483.04
566.21	45996.21
566.38	46176.43
566.54	46340.27
566.70	46607.09
566.87	46745.18
567.03	46569.64
567.19	46719.43
567.36	46347.29
567.52	46534.53
567.68	46375.37
567.85	46288.77
568.01	46717.09
568.17	46689.01
568.34	46616.45
568.50	46548.57
568.66	46277.07
568.83	46267.71
568.99	46454.95
569.15	46316.86
569.32	46749.86
569.48	46134.30
569.64	46827.10
569.81	46693.69
569.97	46380.06
570.13	46663.26
570.30	46436.23
570.46	46492.40
570.62	46190.47
570.78	46188.13
570.95	46394.10
571.11	46644.54
571.27	46319.20
571.43	46307.50
571.60	46576.66
571.76	46403.46
571.92	46728.80
572.09	46366.01
572.25	46958.17
572.41	46614.11
572.57	46410.48
572.74	46866.89
572.90	46801.35
573.06	46679.64
573.22	47114.98
573.38	46869.23
573.55	46651.56
573.71	46834.12
573.87	46286.43
574.03	46314.52
574.20	46813.05
574.36	46513.47
574.52	46476.02
574.68	47047.11
574.84	46951.15
575.01	46623.47
575.17	46822.42
575.33	46539.21
575.49	46106.21
575.65	46775.61
575.82	46768.58
575.98	46471.34
576.14	46754.54
576.30	46958.17
576.46	46777.95
576.62	46967.53
576.79	46527.51
576.95	46368.35
577.11	46431.55
577.27	46588.36
577.43	47035.41
577.59	46784.97
577.75	46461.97
577.92	46384.74
578.08	46078.13
578.24	46288.77
578.40	46618.79
578.56	46930.08
578.72	46457.29
578.88	46710.07
579.04	46747.52
579.21	46660.92
579.37	46405.80
579.53	46539.21
579.69	46796.67
579.85	46791.99
580.01	46932.42
580.17	46827.10
580.33	46782.63
580.49	47030.72
580.65	46862.21
580.82	46316.86
580.98	46801.35
581.14	46642.20
581.30	46862.21
581.46	46450.27
581.62	46831.78
581.78	46590.70
581.94	47086.90
582.10	46770.93
582.26	46784.97
582.42	46958.17
582.58	46927.74
582.74	46478.36
582.90	47124.35
583.06	46707.73
583.22	46838.80
583.38	47096.26
583.54	46773.27
583.70	46911.36
583.86	46866.89
584.02	46724.11
584.18	46742.84
584.34	46850.50
584.50	46810.71
584.66	46969.87
584.82	46885.61
584.98	46665.60
585.14	47124.35
585.30	47014.34
585.46	47311.59
585.62	46492.40
585.78	46726.46
585.94	46335.59
586.10	46754.54
586.26	46902.00
586.42	47026.04
586.58	47185.20
586.74	46770.93
586.90	46794.33
587.06	47012.00
587.22	46801.35
587.38	46241.96
587.54	46990.94
587.70	47199.24
587.86	46983.91
588.02	47119.66
588.18	47168.82
588.34	46824.76
588.49	46513.47
588.65	46110.89
588.81	46398.78
588.97	46377.72
589.13	46373.03
589.29	46349.63
589.45	46590.70
589.61	46483.04
589.77	46927.74
589.93	46925.40
590.08	47026.04
590.24	47021.36
590.40	47068.17
590.56	46770.93
590.72	47056.47
590.88	46583.68
591.04	46904.34
591.20	47547.98
591.35	47283.50
591.51	47342.02
591.67	47072.85
591.83	46894.97
591.99	47009.66
592.15	46763.90
592.31	47423.93
592.46	47124.35
592.62	46995.62
592.78	47459.04
592.94	47232.01
593.10	47107.96
593.26	47276.48
593.41	46878.59
593.57	47255.42
593.73	47098.60
593.89	47168.82
594.05	47044.77
594.20	46815.40
594.36	47236.69
594.52	47077.54
594.68	46988.60
594.84	46834.12
594.99	47384.15
595.15	46754.54
595.31	46962.85
595.47	46976.89
595.62	46681.98
595.78	47157.11
595.94	47421.59
596.10	47381.80
596.25	47398.19
596.41	47501.17
596.57	47016.68
596.73	47030.72
596.88	46979.23
597.04	47323.29
597.20	47016.68
597.36	47236.69
597.51	47114.98
597.67	47129.03
597.83	47037.75
597.99	47037.75
598.14	47419.25
598.30	47044.77
598.46	47105.62
598.61	47129.03
598.77	46941.78
598.93	47110.30
599.09	47182.86
599.24	47398.19
599.40	46864.55
599.56	47157.11
599.71	46745.18
599.87	47819.49
600.03	47063.49
600.18	47164.14
600.34	46707.73
600.50	46876.25
600.65	46733.48
600.81	47339.68
600.97	47239.03
601.12	47625.22
601.28	47344.36
601.44	47075.19
601.59	47210.95
601.75	46642.20
601.91	46930.08
602.06	46644.54
602.22	47152.43
602.37	47222.65
602.53	47386.49
602.69	47234.35
602.84	46925.40
603.00	46976.89
603.16	47117.32
603.31	46967.53
603.47	47119.66
603.62	46965.19
603.78	47023.70
603.94	46955.83
604.09	47021.36
604.25	47393.51
604.40	47255.42
604.56	46848.16
604.71	46906.68
604.87	46960.51
605.03	47262.44
605.18	47143.07
605.34	46791.99
605.49	46588.36
605.65	46873.91
605.80	47466.06
605.96	46768.58
606.12	47037.75
606.27	46932.42
606.43	46431.55
606.58	46988.60
606.74	46969.87
606.89	46590.70
607.05	47154.77
607.20	46930.08
607.36	47054.13
607.51	46710.07
607.67	47100.94
607.82	46927.74
607.98	46967.53
608.13	46394.10
608.29	47084.56
608.44	46433.89
608.60	46431.55
608.75	46319.20
608.91	46480.70
609.06	46443.25
609.22	46319.20
609.37	46267.71
609.53	47103.28
609.68	46721.77
609.84	46366.01
609.99	46773.27
610.15	46485.38
610.30	46192.81
610.46	46113.23
610.61	46422.19
610.76	46637.51
610.92	46752.20
611.07	46445.59
611.23	46284.09
611.38	46478.36
611.54	46241.96
611.69	45935.35
611.84	46206.86
612.00	46057.06
612.15	46569.64
612.31	46366.01
612.46	45982.16
612.62	46265.37
612.77	46300.48
612.92	46394.10
613.08	46052.38
613.23	46138.98
613.39	45514.06
613.54	45715.34
613.69	46106.21
613.85	46377.72
614.00	46471.34
614.15	46436.23
614.31	46134.30
614.46	45698.96
614.62	45687.26
614.77	46068.76
614.92	45715.34
615.08	46223.24
615.23	46047.70
615.38	45727.05
615.54	45727.05
615.69	46080.47
615.84	45284.68
616.00	45521.08
616.15	45661.51
616.30	45305.75
616.46	45434.48
616.61	45595.98
616.76	45872.16
616.92	45298.73
617.07	45462.57
617.22	45130.21
617.37	45567.89
617.53	45666.19
617.68	45757.47
617.83	45769.18
617.99	45729.39
618.14	45619.38
618.29	45605.34
618.45	45249.58
618.60	45287.03
618.75	45301.07
618.90	45867.48
619.06	45413.41
619.21	45380.65
619.36	45603.00
619.51	45638.11
619.67	44865.73
619.82	45471.93
619.97	45415.76
620.12	44589.55
620.28	45031.91
620.43	45291.71
620.58	45261.28
620.73	45329.16
620.89	45050.63
621.04	45230.85
621.19	45078.72
621.34	44729.98
621.49	45024.89
621.65	44383.58
621.80	45067.02
621.95	44580.18
622.10	44898.50
622.25	44825.94
622.41	44542.74
622.56	44566.14
622.71	44865.73
622.86	44729.98
623.01	44451.45
623.16	44706.57
623.32	44669.12
623.47	45071.70
623.62	44526.35
623.77	44575.50
623.92	44144.84
624.07	44622.31
624.23	44179.95
624.38	44329.75
624.53	44261.87
624.68	44708.91
624.83	44624.65
624.98	44484.22
625.13	44514.65
625.29	44282.94
625.44	44149.53
625.59	44210.38
625.74	43896.75
625.89	43447.36
626.04	43784.40
626.19	44280.60
626.34	44147.18
626.49	43718.87
626.65	43618.22
626.80	44112.08
626.95	44044.20
627.10	43721.21
627.25	43681.42
627.40	43381.83
627.55	43257.78
627.70	42803.72
627.85	43072.88
628.00	43442.68
628.15	43842.92
628.30	43377.15
628.45	43737.59
628.60	43452.05
628.76	43084.58
628.91	43229.69
629.06	43772.70
629.21	43133.73
629.36	43042.45
629.51	43430.98
629.66	43182.88
629.81	42803.72
629.96	43271.82
630.11	42735.84
630.26	43316.29
630.41	43480.13
630.56	42684.35
630.71	43056.50
630.86	43393.53
631.01	43159.48
631.16	43243.74
631.31	43033.09
631.46	42396.46
631.61	43012.02
631.76	43133.73
631.91	43150.12
632.06	43433.32
632.21	43058.84
632.36	43164.16
632.51	43278.85
632.66	43206.29
632.81	42412.85
632.96	42918.40
633.10	42735.84
633.25	42504.13
633.40	42160.07
633.55	42801.38
633.70	42789.67
633.85	42871.59
634.00	42321.57
634.15	42653.92
634.30	42307.52
634.45	42792.01
634.60	42094.53
634.75	42665.63
634.90	42462.00
635.05	42843.51
635.19	42354.33
635.34	42684.35
635.49	42405.83
635.64	42632.86
635.79	42291.14
635.94	42412.85
636.09	42134.32
636.24	42274.76
636.39	41853.46
636.53	42263.05
636.68	41528.13
636.83	41628.77
636.98	42291.14
637.13	41701.32
637.28	42309.86
637.43	41975.17
637.57	41858.14
637.72	42230.29
637.87	42139.00
638.02	42281.78
638.17	41841.76
638.32	41904.95
638.46	41308.11
638.61	41565.57
638.76	41783.24
638.91	42178.79
639.06	41823.03
639.20	41415.78
639.35	41886.23
639.50	41457.91
639.65	41549.19
639.80	41858.14
639.94	41422.80
640.09	41427.48
640.24	40985.12
640.39	41268.33
640.54	41038.95
640.68	41310.46
640.83	41291.73
640.98	40893.84
641.13	40790.86
641.27	41385.35
641.42	41275.35
641.57	41532.81
641.72	41181.73
641.86	40524.04
642.01	40858.73
642.16	40875.12
642.31	40547.44
642.45	40793.20
642.60	40596.59
642.75	40545.10
642.90	40832.99
643.04	41097.47
643.19	41172.36
643.34	40776.81
643.48	40957.03
643.63	40612.98
643.78	40715.96
643.93	40519.35
644.07	40856.39
644.22	41038.95
644.37	40526.38
644.51	40109.76
644.66	40601.27
644.81	40795.54
644.95	40844.69
645.10	40561.48
645.25	40697.24
645.39	40697.24
645.54	40622.34
645.69	40376.58
645.83	40451.48
645.98	40814.26
646.13	40308.71
646.27	40332.11
646.42	40224.45
646.57	40364.88
646.71	40329.77
646.86	40102.74
647.00	40128.48
647.15	40591.91
647.30	40128.48
647.44	40041.88
647.59	40252.53
647.74	40210.40
647.88	39943.58
648.03	39819.53
648.17	39887.41
648.32	39929.54
648.47	39634.63
648.61	39732.93
648.76	40332.11
648.90	40133.17
649.05	39578.46
649.20	39950.60
649.34	40034.86
649.49	39168.87
649.63	39789.11
649.78	40107.42
649.92	39711.87
650.07	39695.49
650.21	39419.30
650.36	39931.88
650.51	39779.74
650.65	40203.38
650.80	40308.71
650.94	40098.06
651.09	39524.63
651.23	39557.39
651.38	39674.42
651.52	39887.41
651.67	39629.95
651.81	39381.85
651.96	39225.04
652.10	39445.05
652.25	38778.00
652.39	39243.76
652.54	39082.27
652.68	39337.38
652.83	39435.69
652.97	39276.53
653.12	39800.81
653.26	39564.42
653.41	39138.44
653.55	38934.81
653.70	38848.21
653.84	38902.04
653.99	38967.58
654.13	39178.23
654.27	38885.66
654.42	38817.78
654.56	38728.84
654.71	39072.90
654.85	38878.64
655.00	38621.18
655.14	38682.03
655.29	38012.64
655.43	38522.88
655.57	38492.45
655.72	38354.36
655.86	38396.49
656.01	38089.88
656.15	37666.24
656.30	38492.45
656.44	38188.18
656.58	37848.80
656.73	38370.74
656.87	38033.71
657.01	37645.18
657.16	37926.04
657.30	38061.79
657.45	37909.66
657.59	38139.03
657.73	37773.91
657.88	38366.06
658.02	37914.34
658.16	38124.99
658.31	38169.46
658.45	38408.19
658.60	38073.49
658.74	38148.39
658.88	38117.96
659.03	37902.64
659.17	37715.39
659.31	37715.39
659.46	38033.71
659.60	37542.19
659.74	37340.91
659.89	37216.86
660.03	37373.67
660.17	37806.67
660.32	37376.01
660.46	37593.68
660.60	37404.10
660.74	37729.44
660.89	37223.88
661.03	37221.54
661.17	36931.31
661.32	36856.42
661.46	36912.59
661.60	36739.39
661.74	36779.18
661.89	36809.61
662.03	37167.71
662.17	36603.64
662.31	37134.94
662.46	36919.61
662.60	36786.20
662.74	36699.60
662.88	36907.91
663.03	36381.29
663.17	36645.77
663.31	36290.01
663.45	36662.15
663.60	36121.49
663.74	36128.51
663.88	36275.96
664.02	36297.03
664.17	36243.20
664.31	35917.86
664.45	36114.47
664.59	35955.31
664.73	35564.44
664.88	35910.84
665.02	35835.94
665.16	36107.44
665.30	36158.94
665.44	35831.26
665.59	35620.61
665.73	35632.32
665.87	35641.68
666.01	35519.97
666.15	35709.55
666.29	35519.97
666.44	35241.45
666.58	35503.59
666.72	34974.63
666.86	35592.53
667.00	35470.82
667.14	35332.73
667.28	34918.45
667.43	35082.29
667.57	35143.14
667.71	34951.22
667.85	34948.88
667.99	34806.11
668.13	34586.10
668.27	34550.99
668.41	34637.59
668.56	34546.31
668.70	34543.97
668.84	35026.12
668.98	34459.71
669.12	34370.77
669.26	34087.56
669.40	34204.59
669.54	34139.05
669.68	34267.78
669.82	33785.63
669.96	33677.97
670.10	33673.29
670.25	33511.79
670.39	34029.05
670.53	33832.44
670.67	33256.67
670.81	33792.65
670.95	33701.37
671.09	34223.31
671.23	33949.47
671.37	33689.67
671.51	33476.68
671.65	33369.02
671.79	32938.36
671.93	32837.72
672.07	33312.84
672.21	33404.13
672.35	33036.66
672.49	32971.13
672.63	32896.23
672.77	32664.52
672.91	32776.86
673.05	32634.09
673.19	32933.68
673.33	32961.76
673.47	32624.73
673.61	32287.69
673.75	32463.23
673.89	32112.15
674.03	31803.20
674.17	31995.12
674.31	32067.68
674.45	31997.46
674.59	31817.24
674.73	32004.49
674.87	32180.03
675.01	31735.32
675.15	31971.72
675.29	31840.65
675.43	31524.68
675.56	31878.10
675.70	31126.78
675.84	31056.57
675.98	30661.02
676.12	31143.17
676.26	31051.89
676.40	30925.50
676.54	30745.28
676.68	30981.67
676.82	30272.49
676.96	30319.30
677.10	30747.62
677.23	30644.63
677.37	30405.90
677.51	30270.15
677.65	30204.61
677.79	30000.99
677.93	30338.02
678.07	30061.84
678.21	29722.46
678.34	29731.83
678.48	30082.91
678.62	29745.87
678.76	29331.59
678.90	29661.61
679.04	29221.59
679.18	29525.86
679.31	29174.78
679.45	29010.94
679.59	29001.58
679.73	28772.21
679.87	28673.90
680.00	28781.57
680.14	28615.39
680.28	28318.14
680.42	28070.04
680.56	28547.51
680.70	28306.44
680.83	28215.16
680.97	28259.63
681.11	27934.29
681.25	27978.76
681.39	27660.45
681.52	27931.95
681.66	27917.91
681.80	27456.82
681.94	27548.11
682.07	27573.85
682.21	27119.79
682.35	27047.23
682.49	27229.79
682.62	27168.94
682.76	26679.77
682.90	27082.34
683.04	26668.06
683.17	26733.60
683.31	26675.09
683.45	26766.37
683.59	26623.59
683.72	26277.19
683.86	26125.06
684.00	25881.64
684.13	26094.63
684.27	26129.74
684.41	25944.84
684.55	25556.31
684.68	25607.80
684.82	25556.31
684.96	25436.94
685.09	25163.10
685.23	25788.02
685.37	25465.03
685.50	25266.08
685.64	25200.55
685.78	24982.88
685.91	24868.19
686.05	24514.77
686.19	24608.39
686.32	24430.51
686.46	24404.77
686.60	23871.12
686.73	24208.16
686.87	23917.93
687.01	23616.01
687.14	23789.20
687.28	23819.63
687.42	23475.57
687.55	23601.96
687.69	23412.38
687.82	23491.96
687.96	23417.06
688.10	23302.37
688.23	23522.38
688.37	22991.08
688.50	22684.47
688.64	22850.65
688.78	22974.70
688.91	22422.33
689.05	22576.81
689.18	22555.74
689.32	22375.52
689.46	22483.19
689.59	22651.70
689.73	22841.29
689.86	22309.99
690.00	22471.48
690.13	22347.44
690.27	22307.65
690.41	22211.68
690.54	21738.90
690.68	21752.94
690.81	21862.94
690.95	21277.81
691.08	21553.99
691.22	21776.34
691.35	21448.67
691.49	21834.86
691.62	21343.35
691.76	21451.01
691.89	21319.94
692.03	21039.08
692.16	20816.72
692.30	20912.69
692.43	20875.24
692.57	20617.78
692.70	20849.49
692.84	20526.50
692.97	20720.76
693.11	20357.98
693.24	20159.03
693.38	20009.24
693.51	20173.08
693.65	20034.99
693.78	20123.93
693.92	20102.86
694.05	19817.32
694.19	19812.63
694.32	19861.79
694.45	19564.54
694.59	19889.87
694.72	19433.47
694.86	19293.04
694.99	19185.37
695.13	19126.86
695.26	18948.98
695.39	18841.31
695.53	18890.46
695.66	19328.14
695.80	18960.68
695.93	18600.24
696.07	18604.92
696.20	18682.16
696.33	18593.22
696.47	18906.85
696.60	18752.37
696.73	18434.06
696.87	18139.15
697.00	18155.54
697.14	18251.50
697.27	18003.40
697.40	18153.20
697.54	17717.86
697.67	17799.77
697.80	17696.79
697.94	17617.21
698.07	17668.70
698.21	17792.75
698.34	17523.59
698.47	17228.68
698.61	16926.75
698.74	17247.41
698.87	17390.18
699.01	16947.82
699.14	17081.23
699.27	16760.58
699.40	16847.18
699.54	16624.83
699.67	16802.71
699.80	16673.98
699.94	16437.58
700.07	16486.73
700.20	16367.37
700.34	16259.70
700.47	16264.38
700.60	16498.44
700.73	16177.78
700.87	16095.86
701.00	15815.00
701.13	16056.08
701.26	15852.45
701.40	15908.62
701.53	15669.89
701.66	15489.67
701.79	15405.41
701.93	15534.14
702.06	15438.17
702.19	15225.18
702.32	15328.17
702.46	15255.61
702.59	15012.20
702.72	15260.29
702.85	15396.04
702.99	15161.99
703.12	15204.12
703.25	14981.77
703.38	14661.12
703.51	14930.28
703.65	14553.45
703.78	14991.13
703.91	14670.48
704.04	14471.53
704.17	14307.69
704.31	14258.54
704.44	14164.92
704.57	14090.02
704.70	14073.64
704.83	13914.48
704.96	14073.64
705.10	14260.88
705.23	13982.36
>>>>>End Processed Spectral Data<<<<<
