SpectraSuite Data File
++++++++++++++++++++++++++++++++++++
Date: Fri Oct 25 10:44:29 EDT 2013
User: price-jones
Dark Spectrum Present: No
Reference Spectrum Present: No
Number of Sampled Component Spectra: 1
Spectrometers: USB2+H05261
Integration Time (usec): 100000 (USB2+H05261)
Spectra Averaged: 1 (USB2+H05261)
Boxcar Smoothing: 0 (USB2+H05261)
Correct for Electrical Dark: No (USB2+H05261)
Strobe/Lamp Enabled: No (USB2+H05261)
Correct for Detector Non-linearity: No (USB2+H05261)
Correct for Stray Light: No (USB2+H05261)
Number of Pixels in Processed Spectrum: 2048
>>>>>Begin Processed Spectral Data<<<<<
365.73	112.35
365.92	112.35
366.12	112.35
366.32	0.00
366.52	56.17
366.72	0.00
366.91	2.34
367.11	0.00
367.31	77.24
367.51	51.49
367.70	0.00
367.90	51.49
368.10	14.04
368.30	0.00
368.49	32.77
368.69	25.75
368.89	23.41
369.09	60.85
369.28	46.81
369.48	93.62
369.68	84.26
369.87	98.30
370.07	79.58
370.27	126.39
370.47	135.75
370.66	407.25
370.86	421.30
371.06	484.49
371.25	524.28
371.45	358.10
371.65	435.34
371.84	376.83
372.04	472.79
372.24	442.36
372.44	547.69
372.63	519.60
372.83	458.74
373.03	472.79
373.22	472.79
373.42	498.53
373.62	531.30
373.81	535.98
374.01	585.13
374.21	585.13
374.40	578.11
374.60	531.30
374.79	578.11
374.99	559.39
375.19	566.41
375.38	554.71
375.58	568.75
375.78	589.82
375.97	547.69
376.17	638.97
376.37	571.09
376.56	613.22
376.76	648.33
376.95	526.62
377.15	655.35
377.35	559.39
377.54	606.20
377.74	627.26
377.93	603.86
378.13	664.71
378.33	669.39
378.52	603.86
378.72	613.22
378.91	657.69
379.11	580.45
379.31	648.33
379.50	678.76
379.70	615.56
379.89	641.31
380.09	763.01
380.28	580.45
380.48	669.39
380.68	678.76
380.87	685.78
381.07	690.46
381.26	664.71
381.46	699.82
381.65	575.77
381.85	734.93
382.04	720.88
382.24	676.41
382.43	653.01
382.63	688.12
382.83	685.78
383.02	718.54
383.22	674.07
383.41	669.39
383.61	718.54
383.80	781.74
384.00	725.57
384.19	819.19
384.39	849.61
384.58	854.30
384.78	774.72
384.97	802.80
385.17	753.65
385.36	812.17
385.56	791.10
385.75	777.06
385.95	793.44
386.14	828.55
386.34	763.01
386.53	844.93
386.72	741.95
386.92	849.61
387.11	844.93
387.31	873.02
387.50	840.25
387.70	910.47
387.89	840.25
388.09	842.59
388.28	901.11
388.48	812.17
388.67	929.19
388.86	910.47
389.06	912.81
389.25	987.71
389.45	887.06
389.64	919.83
389.84	950.26
390.03	896.43
390.22	990.05
390.42	1013.45
390.61	1034.52
390.81	945.58
391.00	1032.18
391.19	1015.79
391.39	1006.43
391.58	1018.13
391.78	1095.37
391.97	1062.60
392.16	976.00
392.36	1022.81
392.55	1025.15
392.75	1004.09
392.94	990.05
393.13	919.83
393.33	915.15
393.52	924.51
393.71	945.58
393.91	1095.37
394.10	1163.25
394.29	1163.25
394.49	1160.91
394.68	1156.22
394.88	1125.80
395.07	1135.16
395.26	1277.93
395.46	1242.82
395.65	1212.40
395.84	1261.55
396.04	1263.89
396.23	1181.97
396.42	1179.63
396.62	1109.41
396.81	1188.99
397.00	1179.63
397.19	1301.34
397.39	1329.42
397.58	1282.61
397.77	1315.38
397.97	1409.00
398.16	1362.19
398.35	1460.49
398.55	1460.49
398.74	1439.43
398.93	1439.43
399.12	1409.00
399.32	1352.83
399.51	1376.24
399.70	1465.18
399.90	1380.92
400.09	1568.16
400.28	1507.30
400.47	1474.54
400.67	1507.30
400.86	1565.82
401.05	1481.56
401.24	1516.67
401.44	1621.99
401.63	1591.56
401.82	1629.01
402.01	1645.40
402.21	1732.00
402.40	1650.08
402.59	1687.53
402.78	1685.19
402.97	1732.00
403.17	1605.61
403.36	1802.21
403.55	1741.36
403.74	1776.47
403.93	1830.30
404.13	1785.83
404.32	1888.81
404.51	1926.26
404.70	1888.81
404.89	1870.09
405.09	1942.64
405.28	1774.13
405.47	1870.09
405.66	1839.66
405.85	1858.39
406.05	1832.64
406.24	1977.75
406.43	1989.46
406.62	2017.54
406.81	2090.10
407.00	2001.16
407.20	1984.77
407.39	1998.82
407.58	2005.84
407.77	2176.70
407.96	2153.29
408.15	2211.81
408.34	2090.10
408.54	2106.48
408.73	2244.57
408.92	2193.08
409.11	2237.55
409.30	2251.60
409.49	2237.55
409.68	2104.14
409.87	2153.29
410.07	2139.25
410.26	2176.70
410.45	2260.96
410.64	2277.34
410.83	2342.88
411.02	2382.67
411.21	2487.99
411.40	2464.58
411.59	2612.04
411.78	2576.93
411.98	2509.05
412.17	2562.89
412.36	2602.68
412.55	2731.41
412.74	2551.18
412.93	2579.27
413.12	2661.19
413.31	2693.96
413.50	2724.38
413.69	2651.83
413.88	2928.01
414.07	2745.45
414.26	2867.16
414.45	2738.43
414.64	2850.77
414.83	2918.65
415.02	2874.18
415.22	3030.99
415.41	3005.25
415.60	2993.55
415.79	3112.91
415.98	3187.81
416.17	3138.66
416.36	3131.64
416.55	3094.19
416.74	3220.58
416.93	3141.00
417.12	3115.25
417.31	3150.36
417.50	3225.26
417.69	3379.73
417.88	3433.57
418.07	3286.11
418.26	3239.30
418.45	3368.03
418.64	3487.40
418.83	3442.93
419.02	3421.86
419.21	3606.77
419.39	3426.54
419.58	3398.46
419.77	3356.33
419.96	3515.48
420.15	3576.34
420.34	3541.23
420.53	3662.94
420.72	3754.22
420.91	3562.30
421.10	3559.95
421.29	3648.90
421.48	3578.68
421.67	3604.42
421.86	3655.92
422.05	3578.68
422.24	3552.93
422.43	3695.71
422.61	3742.52
422.80	3730.81
422.99	3702.73
423.18	3749.54
423.37	3705.07
423.56	3756.56
423.75	3775.28
423.94	3733.15
424.13	3513.14
424.32	3728.47
424.50	3749.54
424.69	3873.59
424.88	3927.42
425.07	3735.50
425.26	3667.62
425.45	3838.48
425.64	3695.71
425.83	3789.33
426.01	3887.63
426.20	3976.57
426.39	3889.97
426.58	3826.78
426.77	3791.67
426.96	3885.29
427.15	3889.97
427.33	3906.35
427.52	4007.00
427.71	4135.73
427.90	3943.80
428.09	4011.68
428.28	4121.68
428.46	3981.25
428.65	4091.26
428.84	4039.76
429.03	4100.62
429.22	4028.06
429.40	4039.76
429.59	4014.02
429.78	3852.52
429.97	3772.94
430.16	3805.71
430.34	4166.15
430.53	4042.11
430.72	4098.28
430.91	4039.76
431.10	4397.87
431.28	4280.84
431.47	4475.10
431.66	4557.02
431.85	4304.25
432.03	4400.21
432.22	4449.36
432.41	4451.70
432.60	4519.57
432.79	4521.92
432.97	4699.80
433.16	4629.58
433.35	4592.13
433.54	4510.21
433.72	4585.11
433.91	4531.28
434.10	4681.07
434.28	4655.33
434.47	4819.16
434.66	4730.22
434.85	4732.56
435.03	5008.75
435.22	4720.86
435.41	4954.91
435.59	4870.65
435.78	4999.38
435.97	5008.75
436.16	5011.09
436.34	5015.77
436.53	4882.36
436.72	4992.36
436.90	4933.85
437.09	5020.45
437.28	4992.36
437.46	5071.94
437.65	5078.96
437.84	4943.21
438.02	5069.60
438.21	5088.32
438.40	4919.81
438.58	5263.86
438.77	5247.48
438.96	5256.84
439.14	5338.76
439.33	5479.19
439.52	5439.40
439.70	5313.02
439.89	5579.84
440.08	5572.82
440.26	5385.57
440.45	5607.92
440.63	5612.60
440.82	5884.11
441.01	5568.13
441.19	5853.68
441.38	5951.98
441.57	5961.34
441.75	5942.62
441.94	6195.40
442.12	6113.48
442.31	6249.23
442.50	6209.44
442.68	6097.10
442.87	6265.61
443.05	6310.08
443.24	6319.45
443.43	6078.37
443.61	6251.57
443.80	6399.02
443.98	6174.33
444.17	5982.41
444.35	6298.38
444.54	6455.20
444.73	6160.29
444.91	6207.10
445.10	6370.94
445.28	6326.47
445.47	6120.50
445.65	6125.18
445.84	6396.68
446.02	6352.21
446.21	6249.23
446.39	6352.21
446.58	6314.77
446.77	6349.87
446.95	6319.45
447.14	6494.99
447.32	6593.29
447.51	6422.43
447.69	6361.58
447.88	6490.31
448.06	6478.60
448.25	6553.50
448.43	6569.88
448.62	6448.18
448.80	6473.92
448.99	6504.35
449.17	6628.40
449.36	6668.19
449.54	6722.02
449.73	6895.22
449.91	6810.96
450.10	6911.60
450.28	6951.39
450.46	7124.59
450.65	7033.31
450.83	6927.99
451.02	6686.91
451.20	7054.37
451.39	7082.46
451.57	7033.31
451.76	6752.45
451.94	6925.65
452.13	7009.90
452.31	6832.02
452.49	6806.28
452.68	7080.12
452.86	7026.29
453.05	6916.28
453.23	7108.21
453.42	7110.55
453.60	7012.24
453.78	7185.44
453.97	7023.95
454.15	7068.42
454.34	7075.44
454.52	7428.86
454.70	7138.63
454.89	7368.01
455.07	7300.13
455.26	7515.46
455.44	7417.16
455.62	7358.64
455.81	7435.88
455.99	7576.31
456.17	7452.27
456.36	7585.68
456.54	7623.12
456.73	7646.53
456.91	7672.28
457.09	7829.09
457.28	7999.95
457.46	7609.08
457.64	7808.03
457.83	7742.49
458.01	7903.99
458.19	7871.22
458.38	7929.74
458.56	7992.93
458.74	8088.89
458.93	7934.42
459.11	7868.88
459.29	7946.12
459.48	7971.86
459.66	8021.02
459.84	8049.10
460.03	8196.56
460.21	8100.59
460.39	8098.25
460.57	8336.99
460.76	8362.73
460.94	8486.78
461.12	8278.47
461.31	8224.64
461.49	8259.75
461.67	8259.75
461.85	8500.83
462.04	8503.17
462.22	8601.47
462.40	8802.75
462.59	8538.27
462.77	8557.00
462.95	8659.98
463.13	8638.92
463.32	8617.85
463.50	8840.20
463.68	8648.28
463.86	8683.39
464.05	8510.19
464.23	8652.96
464.41	8947.87
464.59	8720.84
464.78	8945.53
464.96	8737.22
465.14	8840.20
465.32	8814.46
465.50	9057.87
465.69	9041.49
465.87	8915.10
466.05	8865.95
466.23	8978.30
466.41	8903.40
466.60	9280.22
466.78	8917.44
466.96	8821.48
467.14	9046.17
467.32	9092.98
467.51	9219.37
467.69	9060.21
467.87	9060.21
468.05	9104.68
468.23	9298.95
468.41	9095.32
468.60	9214.69
468.78	9305.97
468.96	9118.73
469.14	9341.08
469.32	9544.70
469.50	9013.40
469.69	9497.89
469.87	9415.98
470.05	9481.51
470.23	9638.33
470.41	9680.46
470.59	9685.14
470.77	9523.64
470.95	9699.18
471.14	9753.01
471.32	9848.97
471.50	10017.49
471.68	9958.98
471.86	9891.10
472.04	9921.53
472.22	10497.30
472.40	10068.98
472.58	10186.01
472.77	10310.06
472.95	10036.22
473.13	10611.99
473.31	10265.59
473.49	10209.42
473.67	10115.80
473.85	10349.85
474.03	10597.95
474.21	10616.67
474.39	10824.98
474.57	10649.44
474.75	10668.16
474.93	11014.56
475.12	10789.87
475.30	10808.59
475.48	10703.27
475.66	10897.53
475.84	10822.64
476.02	10846.04
476.20	11145.63
476.38	11232.23
476.56	11492.03
476.74	11370.32
476.92	11407.77
477.10	11592.67
477.28	11705.02
477.46	11906.31
477.64	11903.96
477.82	11939.07
478.00	12306.54
478.18	12098.23
478.36	12360.37
478.54	12322.92
478.72	12592.08
478.90	12648.26
479.08	12554.63
479.26	12788.69
479.44	12564.00
479.62	12823.80
479.80	12879.97
479.98	13041.46
480.16	13448.72
480.34	13334.03
480.52	13458.08
480.70	13284.88
480.88	13446.38
481.06	13371.48
481.24	13535.32
481.41	13879.38
481.59	14080.66
481.77	14104.07
481.95	14015.13
482.13	14274.93
482.31	14019.81
482.49	14438.76
482.67	14239.82
482.85	14885.81
483.03	14871.76
483.21	14857.72
483.39	14977.09
483.57	15080.07
483.74	15103.48
483.92	15389.02
484.10	15063.69
484.28	15487.32
484.46	15761.17
484.64	15847.77
484.82	15583.29
485.00	15651.16
485.18	16140.33
485.35	15943.73
485.53	15623.08
485.71	15714.36
485.89	16486.73
486.07	16016.29
486.25	16196.51
486.43	16306.51
486.61	16479.71
486.78	16655.25
486.96	16872.92
487.14	16950.16
487.32	17418.27
487.50	17266.13
487.68	17734.24
487.85	17657.00
488.03	17872.33
488.21	18113.41
488.39	18200.01
488.57	18270.22
488.75	18237.45
488.92	18429.38
489.10	18712.58
489.28	18705.56
489.46	19248.57
489.64	19129.20
489.81	19632.41
489.99	19440.49
490.17	19817.32
490.35	20112.22
490.53	19880.51
490.70	20063.07
490.88	19906.26
491.06	20166.06
491.24	20152.01
491.41	20287.76
491.59	20350.96
491.77	20477.35
491.95	20685.65
492.13	20954.82
492.30	20816.72
492.48	21027.37
492.66	21331.64
492.84	21219.30
493.01	21692.08
493.19	21535.27
493.37	21614.85
493.54	21851.24
493.72	22132.11
493.90	22169.55
494.08	22071.25
494.25	22445.74
494.43	22658.73
494.61	22761.71
494.79	22902.14
494.96	22883.42
495.14	22801.50
495.32	23073.00
495.49	23087.04
495.67	23456.85
495.85	23480.25
496.02	23637.07
496.20	23908.57
496.38	23555.15
496.55	23847.72
496.73	24449.24
496.91	24308.80
497.09	24135.60
497.26	24580.31
497.44	24767.55
497.62	24503.07
497.79	24978.20
497.97	24849.47
498.14	24678.61
498.32	25144.38
498.50	25048.41
498.67	25305.87
498.85	25436.94
499.03	25507.16
499.20	25954.20
499.38	25383.11
499.56	25661.63
499.73	25717.81
499.91	26115.70
500.08	25928.45
500.26	25872.28
500.44	26143.78
500.61	26307.62
500.79	26094.63
500.97	26307.62
501.14	26546.36
501.32	26637.64
501.49	26661.04
501.67	26497.20
501.84	26754.66
502.02	26569.76
502.20	27082.34
502.37	27234.47
502.55	27103.40
502.72	27356.18
502.90	27246.18
503.07	27456.82
503.25	27597.26
503.43	27498.95
503.60	27686.20
503.78	27730.67
503.95	27702.58
504.13	27793.86
504.30	28088.77
504.48	27847.69
504.65	28046.64
504.83	28353.25
505.01	28460.91
505.18	28470.28
505.36	28790.93
505.53	28797.95
505.71	28943.06
505.88	29104.56
506.06	28650.50
506.23	29296.49
506.41	28875.19
506.58	28950.09
506.76	29097.54
506.93	29294.14
507.11	29273.08
507.28	29493.09
507.46	29649.91
507.63	29591.39
507.81	29298.83
507.98	29525.86
508.16	29743.53
508.33	29621.82
508.50	29979.92
508.68	30185.89
508.85	30817.83
509.03	30033.75
509.20	30602.50
509.38	30801.45
509.55	30433.99
509.73	30792.09
509.90	30742.94
510.08	30745.28
510.25	30698.47
510.42	31281.26
510.60	31091.68
510.77	31211.04
510.95	31199.34
511.12	31094.02
511.30	31316.37
511.47	31674.47
511.64	31758.73
511.82	31620.64
511.99	31594.89
512.17	31552.76
512.34	31105.72
512.51	32102.79
512.69	31868.73
512.86	31529.36
513.04	32170.66
513.21	32357.91
513.38	32112.15
513.56	32156.62
513.73	32236.20
513.90	32327.48
514.08	32065.34
514.25	32519.40
514.43	32299.39
514.60	32739.41
514.77	32203.43
514.95	32905.59
515.12	32861.12
515.29	33001.55
515.47	33104.54
515.64	33553.92
515.81	33149.01
515.99	33017.94
516.16	33221.56
516.33	32833.04
516.51	33298.80
516.68	32648.13
516.85	32748.78
517.03	32980.49
517.20	33322.21
517.37	33476.68
517.54	33652.22
517.72	33771.59
517.89	33324.55
518.06	33614.77
518.24	33645.20
518.41	33776.27
518.58	33890.96
518.75	34139.05
518.93	34419.92
519.10	34401.19
519.27	34335.66
519.45	34216.29
519.62	34756.96
519.79	34499.50
519.96	34431.62
520.14	35072.93
520.31	34422.26
520.48	34476.09
520.65	34710.14
520.83	35351.45
521.00	35543.38
521.17	35363.15
521.34	35316.34
521.52	35407.62
521.69	35679.13
521.86	35995.10
522.03	35707.21
522.20	35632.32
522.38	35463.80
522.55	35920.20
522.72	35723.60
522.89	35950.63
523.07	36238.51
523.24	35849.99
523.41	36095.74
523.58	36135.53
523.75	36273.62
523.92	36690.24
524.10	36746.41
524.27	37046.00
524.44	36744.07
524.61	36591.94
524.78	36748.75
524.96	36507.68
525.13	36786.20
525.30	37064.72
525.47	37120.90
525.64	37027.28
525.81	37230.90
525.98	36680.88
526.16	36746.41
526.33	36641.09
526.50	37261.33
526.67	36528.74
526.84	36954.72
527.01	36510.02
527.18	37031.96
527.36	37097.49
527.53	37439.21
527.70	37778.59
527.87	38178.82
528.04	37593.68
528.21	37797.31
528.38	37762.20
528.55	38398.83
528.72	38022.00
528.89	38740.55
529.07	37879.23
529.24	38389.47
529.41	38047.75
529.58	38223.29
529.75	38185.84
529.92	38560.33
530.09	38574.37
530.26	39047.16
530.43	38548.62
530.60	38644.59
530.77	38785.02
530.94	39082.27
531.11	38534.58
531.28	38487.77
531.46	38883.32
531.63	39019.07
531.80	38803.74
531.97	38813.10
532.14	38768.63
532.31	38539.26
532.48	38909.07
532.65	39040.14
532.82	38728.84
532.99	39754.00
533.16	39203.97
533.33	39133.76
533.50	39562.08
533.67	39395.90
533.84	39449.73
534.01	39543.35
534.18	39456.75
534.35	39938.90
534.52	39290.57
534.69	39651.02
534.86	39676.76
535.03	39658.04
535.20	39903.79
535.37	40205.72
535.54	40570.85
535.71	40165.93
535.88	39842.94
536.05	40245.51
536.22	40395.31
536.38	39800.81
536.55	39887.41
536.72	39896.77
536.89	40086.36
537.06	40072.31
537.23	40144.87
537.40	40282.96
537.57	40371.90
537.74	40407.01
537.91	40701.92
538.08	40678.51
538.25	40297.00
538.42	40327.43
538.59	40694.89
538.75	40158.91
538.92	40832.99
539.09	40844.69
539.26	40404.67
539.43	40814.26
539.60	41153.64
539.77	40596.59
539.94	41251.94
540.11	40781.49
540.28	41219.17
540.44	41125.55
540.61	41050.66
540.78	40587.23
540.95	40575.53
541.12	40952.35
541.29	40907.88
541.46	41331.52
541.62	41111.51
541.79	40928.95
541.96	40699.58
542.13	41469.61
542.30	41273.01
542.47	41507.06
542.63	41310.46
542.80	41673.24
542.97	41518.76
543.14	42305.18
543.31	42078.15
543.48	42071.13
543.64	42469.02
543.81	42380.08
543.98	42359.02
544.15	42068.79
544.32	42642.22
544.48	42562.64
544.65	42059.43
544.82	42553.28
544.99	41839.42
545.16	42988.62
545.32	42583.71
545.49	42550.94
545.66	43047.13
545.83	42843.51
546.00	42892.66
546.16	42422.21
546.33	42649.24
546.50	42356.67
546.67	42543.92
546.83	42375.40
547.00	42754.57
547.17	42738.18
547.34	42436.25
547.50	42543.92
547.67	42904.36
547.84	42939.47
548.00	43288.21
548.17	43061.18
548.34	43246.08
548.51	43349.06
548.67	43217.99
548.84	43356.08
549.01	43058.84
549.18	42951.17
549.34	43313.95
549.51	43241.40
549.68	43445.02
549.84	43089.26
550.01	43564.39
550.18	43157.14
550.34	43592.48
550.51	43374.81
550.68	43313.95
550.84	43115.01
551.01	43531.62
551.18	43543.33
551.34	43269.48
551.51	43592.48
551.68	43887.39
551.84	44074.63
552.01	43313.95
552.18	43969.30
552.34	43585.46
552.51	43688.44
552.68	43702.48
552.84	44060.58
553.01	44381.24
553.18	43849.94
553.34	43768.02
553.51	43746.95
553.67	43882.70
553.84	44264.21
554.01	44289.96
554.17	44137.82
554.34	43894.41
554.51	44428.05
554.67	44435.07
554.84	44060.58
555.00	43910.79
555.17	44280.60
555.33	44119.10
555.50	43854.62
555.67	44849.35
555.83	44184.63
556.00	43894.41
556.16	44605.93
556.33	44184.63
556.50	43924.83
556.66	44711.25
556.83	44074.63
556.99	44526.35
557.16	44905.52
557.32	44135.48
557.49	44725.30
557.65	44194.00
557.82	44374.22
557.98	44275.91
558.15	44491.24
558.32	44416.35
558.48	44502.95
558.65	44584.86
558.81	44456.14
558.98	44706.57
559.14	44631.68
559.31	44444.43
559.47	44725.30
559.64	45024.89
559.80	44655.08
559.97	44669.12
560.13	44690.19
560.30	44217.40
560.46	44619.97
560.63	44933.60
560.79	44690.19
560.96	45212.13
561.12	44437.41
561.29	44914.88
561.45	45340.86
561.61	44957.01
561.78	44512.31
561.94	44788.49
562.11	44594.23
562.27	44875.09
562.44	44947.65
562.60	45022.54
562.77	45155.96
562.93	45160.64
563.10	45312.77
563.26	44629.34
563.42	45202.77
563.59	45172.34
563.75	44753.38
563.92	44914.88
564.08	45200.43
564.24	45507.04
564.41	45155.96
564.57	45263.62
564.74	45106.80
564.90	45394.69
565.07	45357.24
565.23	44893.82
565.39	44804.88
565.56	45471.93
565.72	45069.36
565.88	44994.46
566.05	45001.48
566.21	45240.21
566.38	44877.43
566.54	45045.95
566.70	45308.09
566.87	45661.51
567.03	45553.85
567.19	45954.08
567.36	45619.38
567.52	45230.85
567.68	45509.38
567.85	45443.84
568.01	45261.28
568.17	45464.91
568.34	45521.08
568.50	45329.16
568.66	45174.68
568.83	45371.28
568.99	45406.39
569.15	45509.38
569.32	45450.86
569.48	45137.23
569.64	45272.98
569.81	45319.79
569.97	45890.88
570.13	45237.87
570.30	45118.51
570.46	45233.19
570.62	44954.67
570.78	44830.62
570.95	45167.66
571.11	45310.43
571.27	45832.37
571.43	45177.02
571.60	45490.65
571.76	45467.25
571.92	45457.88
572.09	45661.51
572.25	45455.54
572.41	45698.96
572.57	45556.19
572.74	45839.39
572.90	45666.19
573.06	45617.04
573.22	45595.98
573.38	45488.31
573.55	45418.10
573.71	45570.23
573.87	45879.18
574.03	45298.73
574.20	45380.65
574.36	45689.60
574.52	45921.31
574.68	45427.46
574.84	45713.00
575.01	45277.66
575.17	45261.28
575.33	45783.22
575.49	45528.10
575.65	45944.72
575.82	45745.77
575.98	45780.88
576.14	46157.70
576.30	45705.98
576.46	45799.60
576.62	45497.67
576.79	45743.43
576.95	45614.70
577.11	45804.28
577.27	45591.30
577.43	45731.73
577.59	45397.03
577.75	45607.68
577.92	45509.38
578.08	45593.64
578.24	45612.36
578.40	45537.46
578.56	45368.94
578.72	45811.31
578.88	45738.75
579.04	45982.16
579.21	45661.51
579.37	46080.47
579.53	45832.37
579.69	45488.31
579.85	45757.47
580.01	45687.26
580.17	45450.86
580.33	45846.41
580.49	46321.54
580.65	46043.02
580.82	45916.63
580.98	45670.87
581.14	45392.35
581.30	46323.88
581.46	45958.76
581.62	46054.72
581.78	45853.44
581.94	46171.75
582.10	45614.70
582.26	45834.71
582.42	45670.87
582.58	46007.91
582.74	45996.21
582.90	45724.71
583.06	45897.91
583.22	46174.09
583.38	46202.18
583.54	45907.27
583.70	45556.19
583.86	45748.11
584.02	45649.81
584.18	46279.41
584.34	45619.38
584.50	45708.32
584.66	45839.39
584.82	45907.27
584.98	46099.19
585.14	45797.26
585.30	45996.21
585.46	45820.67
585.62	45787.90
585.78	45771.52
585.94	45567.89
586.10	45481.29
586.26	45881.52
586.42	46141.32
586.58	45921.31
586.74	46099.19
586.90	45734.07
587.06	45514.06
587.22	45717.68
587.38	45387.67
587.54	46045.36
587.70	46033.66
587.86	45808.96
588.02	45696.62
588.18	45617.04
588.34	45631.08
588.49	45298.73
588.65	45174.68
588.81	45408.73
588.97	45287.03
589.13	45354.90
589.29	45411.07
589.45	45504.70
589.61	45722.37
589.77	45553.85
589.93	46082.81
590.08	45813.65
590.24	45797.26
590.40	46052.38
590.56	46005.57
590.72	46185.79
590.88	45837.05
591.04	46263.03
591.20	46113.23
591.35	46471.34
591.51	46443.25
591.67	45890.88
591.83	46230.26
591.99	46373.03
592.15	46436.23
592.31	46375.37
592.46	45687.26
592.62	46295.80
592.78	46129.62
592.94	46138.98
593.10	45830.03
593.26	45830.03
593.41	45925.99
593.57	45825.35
593.73	45940.04
593.89	46366.01
594.05	45703.64
594.20	46246.65
594.36	46335.59
594.52	45745.77
594.68	45837.05
594.84	45977.48
594.99	46010.25
595.15	46078.13
595.31	45989.19
595.47	46244.30
595.62	46080.47
595.78	46288.77
595.94	46274.73
596.10	46518.15
596.25	46178.77
596.41	46759.22
596.57	46195.15
596.73	45680.24
596.88	46199.83
597.04	45958.76
597.20	46527.51
597.36	46190.47
597.51	46122.60
597.67	46155.36
597.83	46363.67
597.99	46162.39
598.14	46129.62
598.30	46328.56
598.46	46066.42
598.61	45935.35
598.77	45970.46
598.93	45911.95
599.09	46490.06
599.24	46480.70
599.40	46080.47
599.56	45944.72
599.71	45682.58
599.87	45977.48
600.03	46150.68
600.18	46277.07
600.34	46089.83
600.50	46225.58
600.65	46092.17
600.81	46167.07
600.97	46136.64
601.12	46787.31
601.28	46075.79
601.44	45687.26
601.59	46031.32
601.75	45909.61
601.91	46017.27
602.06	45778.54
602.22	46087.49
602.37	45925.99
602.53	45844.07
602.69	46237.28
602.84	46274.73
603.00	45954.08
603.16	45729.39
603.31	46047.70
603.47	45865.14
603.62	45539.80
603.78	46178.77
603.94	45970.46
604.09	46202.18
604.25	46562.62
604.40	45893.22
604.56	46012.59
604.71	46153.02
604.87	46050.04
605.03	45916.63
605.18	45319.79
605.34	45993.87
605.49	45705.98
605.65	46045.36
605.80	45862.80
605.96	46340.27
606.12	46307.50
606.27	46614.11
606.43	45815.99
606.58	45434.48
606.74	45715.34
606.89	46036.00
607.05	45895.56
607.20	45914.29
607.36	45792.58
607.51	45727.05
607.67	45890.88
607.82	45956.42
607.98	45521.08
608.13	45390.01
608.29	45759.81
608.44	45460.23
608.60	45588.95
608.75	45151.27
608.91	45504.70
609.06	45144.25
609.22	45785.56
609.37	45418.10
609.53	45684.92
609.68	45408.73
609.84	45406.39
609.99	45624.06
610.15	45401.71
610.30	45312.77
610.46	45357.24
610.61	45668.53
610.76	45579.59
610.92	45769.18
611.07	45588.95
611.23	45478.95
611.38	45284.68
611.54	45212.13
611.69	45284.68
611.84	45240.21
612.00	45111.49
612.15	44982.76
612.31	45338.52
612.46	45289.37
612.62	45289.37
612.77	45462.57
612.92	45436.82
613.08	45057.65
613.23	45251.92
613.39	45031.91
613.54	44624.65
613.69	45219.15
613.85	44954.67
614.00	45162.98
614.15	45621.72
614.31	45003.82
614.46	45188.72
614.62	45467.25
614.77	45120.85
614.92	44755.72
615.08	44699.55
615.23	44931.26
615.38	44758.06
615.54	44470.18
615.69	44769.77
615.84	44971.05
616.00	44779.13
616.15	44767.43
616.30	44554.44
616.46	44662.10
616.61	44868.07
616.76	44245.49
616.92	44215.06
617.07	44458.48
617.22	44414.01
617.37	44271.23
617.53	44552.10
617.68	44484.22
617.83	44554.44
617.99	44781.47
618.14	44369.54
618.29	44858.71
618.45	44292.30
618.60	44172.93
618.75	43908.45
618.90	44191.65
619.06	44430.39
619.21	44535.71
619.36	44505.29
619.51	44516.99
619.67	44535.71
619.82	44285.28
619.97	44397.62
620.12	44083.99
620.28	43887.39
620.43	43658.01
620.58	44203.36
620.73	44315.70
620.89	43676.74
621.04	44500.61
621.19	44053.56
621.34	43931.86
621.49	43480.13
621.65	44058.24
621.80	44198.68
621.95	43681.42
622.10	43697.80
622.25	43316.29
622.41	43536.30
622.56	43482.47
622.71	43723.55
622.86	43416.94
623.01	43323.32
623.16	43730.57
623.32	43625.25
623.47	43639.29
623.62	43576.09
623.77	43833.55
623.92	43407.58
624.07	43648.65
624.23	43297.57
624.38	43220.33
624.53	43173.52
624.68	42890.32
624.83	43098.62
624.98	43398.21
625.13	43077.56
625.29	43089.26
625.44	43201.61
625.59	43014.37
625.74	42864.57
625.89	42597.75
626.04	42745.20
626.19	43122.03
626.34	43002.66
626.49	43342.04
626.65	43428.64
626.80	43047.13
626.95	43096.28
627.10	42667.97
627.25	42705.41
627.40	42609.45
627.55	42443.27
627.70	41951.76
627.85	42422.21
628.00	42333.27
628.15	42169.43
628.30	42532.22
628.45	42976.92
628.60	42815.42
628.76	42714.78
628.91	42834.14
629.06	42602.43
629.21	41909.63
629.36	42494.77
629.51	41998.57
629.66	42607.11
629.81	41808.99
629.96	42541.58
630.11	42260.71
630.26	42696.05
630.41	42553.28
630.56	42117.94
630.71	42415.19
630.86	42265.39
631.01	41780.90
631.16	42218.58
631.31	42178.79
631.46	41698.98
631.61	41888.57
631.76	41570.25
631.91	42066.45
632.06	41944.74
632.21	42234.97
632.36	42494.77
632.51	41486.00
632.66	41956.44
632.81	41523.44
632.96	41509.40
633.10	41256.62
633.25	41862.82
633.40	41635.79
633.55	41659.20
633.70	41375.99
633.85	41588.98
634.00	41205.13
634.15	42078.15
634.30	41916.65
634.45	41296.41
634.60	41467.27
634.75	41518.76
634.90	41436.84
635.05	41502.38
635.19	41099.81
635.34	41347.90
635.49	41158.32
635.64	41654.51
635.79	41361.95
635.94	41378.33
636.09	41109.17
636.24	41195.77
636.39	40914.90
636.53	40919.59
636.68	41195.77
636.83	40844.69
636.98	40987.46
637.13	40980.44
637.28	41322.16
637.43	41263.64
637.57	41090.44
637.72	40893.84
637.87	40648.08
638.02	40622.34
638.17	40900.86
638.32	41139.60
638.46	40765.11
638.61	41139.60
638.76	40308.71
638.91	40982.78
639.06	40657.45
639.20	40605.95
639.35	41048.32
639.50	40666.81
639.65	40552.12
639.80	40816.60
639.94	40425.73
640.09	40294.66
640.24	39983.37
640.39	39966.99
640.54	40407.01
640.68	40472.54
640.83	40320.41
640.98	40399.99
641.13	40102.74
641.27	40730.00
641.42	40477.22
641.57	40643.40
641.72	40292.32
641.86	40285.30
642.01	40002.10
642.16	39894.43
642.31	39562.08
642.45	40081.67
642.60	39765.70
642.75	39721.23
642.90	40091.04
643.04	40069.97
643.19	39882.73
643.34	39768.04
643.48	39608.89
643.63	39573.78
643.78	39569.10
643.93	39538.67
644.07	39835.92
644.22	39658.04
644.37	39316.32
644.51	39641.65
644.66	40315.73
644.81	39866.34
644.95	39938.90
645.10	40072.31
645.25	39480.16
645.39	39723.57
645.54	39768.04
645.69	39599.52
645.83	39309.30
645.98	39702.51
646.13	39414.62
646.27	39580.80
646.42	39477.82
646.57	38974.60
646.71	39676.76
646.86	39629.95
647.00	39468.45
647.15	39681.44
647.30	39475.48
647.44	39456.75
647.59	39040.14
647.74	39143.12
647.88	39005.03
648.03	39342.06
648.17	38705.44
648.32	38651.61
648.47	39063.54
648.61	39009.71
648.76	38944.17
648.90	38944.17
649.05	38820.13
649.20	38728.84
649.34	38660.97
649.49	38663.31
649.63	38539.26
649.78	38923.11
649.92	39115.03
650.07	38937.15
650.21	38543.94
650.36	38452.66
650.51	38337.98
650.65	39433.35
650.80	39037.80
650.94	38998.01
651.09	38433.94
651.23	38707.78
651.38	38014.98
651.52	38113.28
651.67	38499.47
651.81	38436.28
651.96	38244.35
652.10	38054.77
652.25	38305.21
652.39	38548.62
652.54	38735.87
652.68	38600.12
652.83	38710.12
652.97	38459.68
653.12	38330.95
653.26	37848.80
653.41	37783.27
653.55	37766.88
653.70	37738.80
653.84	37872.21
653.99	38103.92
654.13	37851.14
654.27	37593.68
654.42	37652.20
654.56	37691.99
654.71	37998.60
654.85	38115.62
655.00	37914.34
655.14	37418.14
655.29	37673.26
655.43	37720.07
655.57	37752.84
655.72	37401.76
655.86	37074.09
656.01	37179.41
656.15	37144.30
656.30	37195.79
656.44	37507.08
656.58	37652.20
656.73	37268.35
656.87	37397.08
657.01	37219.20
657.16	37661.56
657.30	37069.40
657.45	36889.18
657.59	37324.52
657.73	37312.82
657.88	37635.81
658.02	37750.50
658.16	37383.04
658.31	37385.38
658.45	37113.87
658.60	36914.93
658.74	37338.57
658.88	37006.21
659.03	37081.11
659.17	37294.10
659.31	36842.37
659.46	36776.84
659.60	37092.81
659.74	36842.37
659.89	36545.12
660.03	36477.25
660.17	36882.16
660.32	36378.95
660.46	36842.37
660.60	36708.96
660.74	36470.23
660.89	36491.29
661.03	36552.15
661.17	36446.82
661.32	36245.54
661.46	36081.70
661.60	36318.09
661.74	36201.07
661.89	36435.12
662.03	36161.28
662.17	36189.36
662.31	36189.36
662.46	36514.70
662.60	36196.38
662.74	35955.31
662.88	35606.57
663.03	35438.05
663.17	35569.12
663.31	35276.55
663.45	35704.87
663.60	35730.62
663.74	35536.35
663.88	35267.19
664.02	35445.07
664.17	35302.30
664.31	35299.96
664.45	34993.35
664.59	35086.97
664.73	34873.98
664.88	35105.70
665.02	34979.31
665.16	35290.60
665.30	35105.70
665.44	35030.80
665.59	34801.43
665.73	34354.38
665.87	34670.36
666.01	34698.44
666.15	34852.92
666.29	34855.26
666.44	34656.31
666.58	34888.03
666.72	34550.99
666.86	34635.25
667.00	34675.04
667.14	34139.05
667.28	34422.26
667.43	34087.56
667.57	34450.35
667.71	34199.91
667.85	33949.47
667.99	33937.77
668.13	34087.56
668.27	33811.38
668.41	33773.93
668.56	33766.91
668.70	33855.85
668.84	33846.49
668.98	33546.90
669.12	33511.79
669.26	33497.75
669.40	33188.80
669.54	33308.16
669.68	33156.03
669.82	33284.76
669.96	33242.63
670.10	33006.23
670.25	33366.68
670.39	32889.21
670.53	33046.02
670.67	32566.21
670.81	33191.14
670.95	32804.95
671.09	33118.58
671.23	32800.27
671.37	32753.46
671.51	32641.11
671.65	32573.24
671.79	32231.52
671.93	32664.52
672.07	32290.03
672.21	32659.84
672.35	32549.83
672.49	32306.41
672.63	31854.69
672.77	31983.42
672.91	32226.84
673.05	31831.29
673.19	31744.69
673.33	31466.16
673.47	31693.19
673.61	31754.05
673.75	31646.38
673.89	31316.37
674.03	31278.92
674.17	31562.12
674.31	31491.91
674.45	31592.55
674.59	31454.46
674.73	31770.43
674.87	31271.90
675.01	30925.50
675.15	30850.60
675.29	30473.78
675.43	30824.86
675.56	30738.26
675.70	30855.28
675.84	30707.83
675.98	29610.12
676.12	30677.40
676.26	30274.83
676.40	30335.68
676.54	30373.13
676.68	30422.28
676.82	29907.37
676.96	30066.52
677.10	30000.99
677.23	29928.43
677.37	29713.10
677.51	29699.06
677.65	29469.69
677.79	29242.65
677.93	29195.84
678.07	29355.00
678.21	29195.84
678.34	28545.17
678.48	28510.07
678.62	28535.81
678.76	28409.42
678.90	28411.76
679.04	28395.38
679.18	28397.72
679.31	28250.27
679.45	27758.75
679.59	27690.88
679.73	28133.24
679.87	27667.47
680.00	27812.59
680.14	27278.94
680.28	27906.21
680.42	27861.74
680.56	27889.82
680.70	27491.93
680.83	27658.11
680.97	27466.19
681.11	27414.69
681.25	26934.88
681.39	26733.60
681.52	27496.61
681.66	27019.14
681.80	26864.67
681.94	26838.92
682.07	26771.05
682.21	26684.45
682.35	26565.08
682.49	26532.31
682.62	26473.80
682.76	26546.36
682.90	26286.56
683.04	26256.13
683.17	25738.87
683.31	25825.47
683.45	25701.42
683.59	25453.33
683.72	25593.76
683.86	25394.81
684.00	25441.62
684.13	25359.70
684.27	25525.88
684.41	25200.55
684.55	25123.31
684.68	25092.88
684.82	25195.87
684.96	24959.47
685.09	25277.79
685.23	24734.78
685.37	24933.73
685.50	24774.57
685.64	24877.55
685.78	24119.22
685.91	24290.08
686.05	24046.66
686.19	23910.91
686.32	23836.02
686.46	23625.37
686.60	23613.66
686.73	23372.59
686.87	23424.08
687.01	23068.32
687.14	23199.39
687.28	23077.68
687.42	23180.67
687.55	22733.62
687.69	23454.51
687.82	23164.28
687.96	23421.74
688.10	23180.67
688.23	22768.73
688.37	22541.70
688.50	21956.57
688.64	22548.72
688.78	22623.62
688.91	22658.73
689.05	22265.52
689.18	22389.56
689.32	22094.66
689.46	22127.42
689.59	21923.80
689.73	22242.11
689.86	21921.46
690.00	21701.45
690.13	21727.19
690.27	21687.40
690.41	21287.17
690.54	21172.49
690.68	21212.28
690.81	21144.40
690.95	21062.48
691.08	21001.63
691.22	21062.48
691.35	20968.86
691.49	20978.22
691.62	21057.80
691.76	20695.02
691.89	20790.98
692.03	20652.89
692.16	20482.03
692.30	20243.29
692.43	20243.29
692.57	20215.21
692.70	19957.75
692.84	20098.18
692.97	20053.71
693.11	20196.48
693.24	19836.04
693.38	20023.28
693.51	19571.56
693.65	19590.28
693.78	19590.28
693.92	19796.25
694.05	19704.97
694.19	19283.67
694.32	19225.16
694.45	19044.94
694.59	19066.00
694.72	18738.33
694.86	18916.21
694.99	18824.93
695.13	18874.08
695.26	18824.93
695.39	18700.88
695.53	19051.96
695.66	18593.22
695.80	18527.68
695.93	18668.11
696.07	18197.67
696.20	18363.84
696.33	17984.68
696.47	18195.32
696.60	18139.15
696.73	17947.23
696.87	17855.95
697.00	17954.25
697.14	17816.16
697.27	17708.49
697.40	17710.83
697.54	17579.76
697.67	17364.43
697.80	17198.26
697.94	17280.18
698.07	17174.85
698.21	17064.85
698.34	17071.87
698.47	16877.60
698.61	16397.79
698.74	16879.94
698.87	16444.60
699.01	16493.76
699.14	16273.74
699.27	16500.78
699.40	16259.70
699.54	16231.62
699.67	16187.14
699.80	16149.70
699.94	16219.91
700.07	16233.96
700.20	16046.71
700.34	15836.06
700.47	15978.84
700.60	15796.28
700.73	16196.51
700.87	16027.99
701.00	16130.97
701.13	15683.93
701.26	15616.05
701.40	15557.54
701.53	15211.14
701.66	15447.54
701.79	15075.39
701.93	14974.75
702.06	14923.26
702.19	14801.55
702.32	15360.94
702.46	14733.67
702.59	14857.72
702.72	14899.85
702.85	14626.01
702.99	14979.43
703.12	14581.54
703.25	14441.11
703.38	14401.32
703.51	14279.61
703.65	14441.11
703.78	14370.89
703.91	14235.14
704.04	14118.11
704.17	13916.83
704.31	14008.11
704.44	14097.05
704.57	13757.67
704.70	13497.87
704.83	13776.39
704.96	13884.06
705.10	13727.24
705.23	13579.79
>>>>>End Processed Spectral Data<<<<<
