SpectraSuite Data File
++++++++++++++++++++++++++++++++++++
Date: Fri Oct 25 10:47:25 EDT 2013
User: price-jones
Dark Spectrum Present: No
Reference Spectrum Present: No
Number of Sampled Component Spectra: 1
Spectrometers: USB2+H05261
Integration Time (usec): 100000 (USB2+H05261)
Spectra Averaged: 1 (USB2+H05261)
Boxcar Smoothing: 0 (USB2+H05261)
Correct for Electrical Dark: No (USB2+H05261)
Strobe/Lamp Enabled: No (USB2+H05261)
Correct for Detector Non-linearity: No (USB2+H05261)
Correct for Stray Light: No (USB2+H05261)
Number of Pixels in Processed Spectrum: 2048
>>>>>Begin Processed Spectral Data<<<<<
365.73	95.96
365.92	95.96
366.12	95.96
366.32	0.00
366.52	9.36
366.72	39.79
366.91	0.00
367.11	84.26
367.31	4.68
367.51	84.26
367.70	32.77
367.90	37.45
368.10	42.13
368.30	91.28
368.49	32.77
368.69	88.94
368.89	18.72
369.09	32.77
369.28	63.19
369.48	21.06
369.68	74.90
369.87	46.81
370.07	79.58
370.27	95.96
370.47	145.11
370.66	315.97
370.86	383.85
371.06	379.17
371.25	449.38
371.45	409.59
371.65	465.77
371.84	458.74
372.04	425.98
372.24	507.90
372.44	461.09
372.63	547.69
372.83	554.71
373.03	418.96
373.22	451.72
373.42	486.83
373.62	519.60
373.81	547.69
374.01	596.84
374.21	472.79
374.40	505.56
374.60	561.73
374.79	552.37
374.99	519.60
375.19	566.41
375.38	587.47
375.58	545.34
375.78	589.82
375.97	566.41
376.17	631.94
376.37	547.69
376.56	594.50
376.76	524.28
376.95	524.28
377.15	550.03
377.35	592.16
377.54	580.45
377.74	608.54
377.93	648.33
378.13	578.11
378.33	765.36
378.52	613.22
378.72	657.69
378.91	657.69
379.11	599.18
379.31	718.54
379.50	610.88
379.70	617.90
379.89	645.99
380.09	589.82
380.28	692.80
380.48	631.94
380.68	676.41
380.87	669.39
381.07	629.60
381.26	545.34
381.46	781.74
381.65	671.73
381.85	648.33
382.04	655.35
382.24	653.01
382.43	678.76
382.63	681.10
382.83	678.76
383.02	706.84
383.22	809.83
383.41	695.14
383.61	779.40
383.80	720.88
384.00	669.39
384.19	748.97
384.39	805.14
384.58	695.14
384.78	730.25
384.97	739.61
385.17	753.65
385.36	830.89
385.56	753.65
385.75	751.31
385.95	835.57
386.14	798.12
386.34	727.91
386.53	692.80
386.72	887.06
386.92	901.11
387.11	744.29
387.31	880.04
387.50	821.53
387.70	793.44
387.89	760.67
388.09	786.42
388.28	915.15
388.48	800.46
388.67	929.19
388.86	828.55
389.06	798.12
389.25	929.19
389.45	931.53
389.64	880.04
389.84	840.25
390.03	901.11
390.22	957.28
390.42	954.94
390.61	908.13
390.81	882.38
391.00	884.72
391.19	957.28
391.39	994.73
391.58	1025.15
391.78	931.53
391.97	936.21
392.16	976.00
392.36	931.53
392.55	922.17
392.75	1001.75
392.94	959.62
393.13	983.02
393.33	1004.09
393.52	992.39
393.71	971.32
393.91	1036.86
394.10	1029.84
394.29	1076.65
394.49	1069.62
394.68	1076.65
394.88	1093.03
395.07	1179.63
395.26	1177.29
395.46	1015.79
395.65	1116.44
395.84	1064.94
396.04	1123.46
396.23	1114.10
396.42	1062.60
396.62	1081.33
396.81	1247.51
397.00	1116.44
397.19	1233.46
397.39	1205.38
397.58	1268.57
397.77	1245.16
397.97	1256.87
398.16	1334.11
398.35	1282.61
398.55	1245.16
398.74	1263.89
398.93	1334.11
399.12	1345.81
399.32	1294.32
399.51	1310.70
399.70	1568.16
399.90	1228.78
400.09	1385.60
400.28	1322.40
400.47	1345.81
400.67	1507.30
400.86	1434.75
401.05	1439.43
401.24	1481.56
401.44	1488.58
401.63	1558.80
401.82	1490.92
402.01	1465.18
402.21	1483.90
402.40	1490.92
402.59	1533.05
402.78	1516.67
402.97	1603.27
403.17	1516.67
403.36	1598.59
403.55	1514.33
403.74	1633.69
403.93	1706.25
404.13	1535.39
404.32	1636.03
404.51	1626.67
404.70	1778.81
404.89	1727.32
405.09	1750.72
405.28	1706.25
405.47	1699.23
405.66	1860.73
405.85	1743.70
406.05	1654.76
406.24	1753.06
406.43	1762.42
406.62	1846.68
406.81	1930.94
407.00	1806.89
407.20	1858.39
407.39	1893.49
407.58	1916.90
407.77	1905.20
407.96	2038.61
408.15	1952.01
408.34	2038.61
408.54	1987.11
408.73	2043.29
408.92	1921.58
409.11	1933.28
409.30	2005.84
409.49	2090.10
409.68	2097.12
409.87	1989.46
410.07	2097.12
410.26	2122.87
410.45	2197.76
410.64	2104.14
410.83	2122.87
411.02	2209.47
411.21	2132.23
411.40	2286.70
411.59	2216.49
411.78	2258.62
411.98	2319.47
412.17	2342.88
412.36	2277.34
412.55	2415.43
412.74	2452.88
412.93	2462.24
413.12	2429.48
413.31	2473.95
413.50	2527.78
413.69	2551.18
413.88	2511.39
414.07	2710.34
414.26	2588.63
414.45	2605.02
414.64	2693.96
414.83	2782.90
415.02	2654.17
415.22	2782.90
415.41	2897.58
415.60	2750.13
415.79	2827.37
415.98	2846.09
416.17	2860.13
416.36	2850.77
416.55	2825.03
416.74	2949.08
416.93	2862.48
417.12	3063.76
417.31	2867.16
417.50	2949.08
417.69	3105.89
417.88	2967.80
418.07	2956.10
418.26	3073.12
418.45	3091.85
418.64	3375.05
418.83	3227.60
419.02	3262.71
419.21	3194.83
419.39	3143.34
419.58	3169.09
419.77	3080.14
419.96	3321.22
420.15	3269.73
420.34	3330.58
420.53	3307.18
420.72	3414.84
420.91	3318.88
421.10	3449.95
421.29	3442.93
421.48	3307.18
421.67	3445.27
421.86	3353.99
422.05	3463.99
422.24	3377.39
422.43	3578.68
422.61	3489.74
422.80	3389.10
422.99	3461.65
423.18	3452.29
423.37	3529.53
423.56	3602.08
423.75	3494.42
423.94	3433.57
424.13	3276.75
424.32	3400.80
424.50	3644.21
424.69	3520.17
424.88	3620.81
425.07	3417.18
425.26	3613.79
425.45	3478.04
425.64	3506.12
425.83	3454.63
426.01	3585.70
426.20	3527.19
426.39	3508.46
426.58	3644.21
426.77	3574.00
426.96	3548.25
427.15	3648.90
427.33	3646.55
427.52	3770.60
427.71	3775.28
427.90	3695.71
428.09	3744.86
428.28	3756.56
428.46	3784.65
428.65	3838.48
428.84	3859.54
429.03	3831.46
429.22	3627.83
429.40	3765.92
429.59	3833.80
429.78	3578.68
429.97	3660.60
430.16	3665.28
430.34	3840.82
430.53	3791.67
430.72	3808.05
430.91	3967.21
431.10	3978.91
431.28	4140.41
431.47	4180.20
431.66	4138.07
431.85	4042.11
432.03	4187.22
432.22	4292.54
432.41	4292.54
432.60	4273.82
432.79	4114.66
432.97	4273.82
433.16	4329.99
433.35	4292.54
433.54	4212.96
433.72	4219.99
433.91	4339.35
434.10	4344.03
434.28	4409.57
434.47	4404.89
434.66	4500.85
434.85	4435.32
435.03	4493.83
435.22	4397.87
435.41	4582.77
435.59	4599.15
435.78	4585.11
435.97	4545.32
436.16	4713.84
436.34	4395.53
436.53	4573.41
436.72	4882.36
436.90	4554.68
437.09	4690.43
437.28	4550.00
437.46	4697.46
437.65	4699.80
437.84	4781.71
438.02	4713.84
438.21	4723.20
438.40	4798.10
438.58	4882.36
438.77	4854.27
438.96	4905.76
439.14	5018.11
439.33	4961.94
439.52	5006.41
439.70	5041.51
439.89	5132.79
440.08	5200.67
440.26	5259.18
440.45	5313.02
440.63	5268.55
440.82	5284.93
441.01	5406.64
441.19	5434.72
441.38	5495.58
441.57	5497.92
441.75	5554.09
441.94	5776.44
442.12	5645.37
442.31	5790.49
442.50	5757.72
442.68	5584.52
442.87	5561.11
443.05	5657.07
443.24	5806.87
443.43	5605.58
443.61	5790.49
443.80	6022.20
443.98	5771.76
444.17	5584.52
444.35	5731.97
444.54	6010.50
444.73	6031.56
444.91	5970.71
445.10	5710.91
445.28	5851.34
445.47	5731.97
445.65	5806.87
445.84	6120.50
446.02	5959.00
446.21	5888.79
446.39	5856.02
446.58	5888.79
446.77	5921.56
446.95	5804.53
447.14	5930.92
447.32	6031.56
447.51	6024.54
447.69	5942.62
447.88	5947.30
448.06	6005.81
448.25	5942.62
448.43	6129.86
448.62	5933.26
448.80	6101.78
448.99	6101.78
449.17	6225.82
449.36	6085.39
449.54	6221.14
449.73	6296.04
449.91	6478.60
450.10	6406.05
450.28	6370.94
450.46	6389.66
450.65	6476.26
450.83	6361.58
451.02	6331.15
451.20	6427.11
451.39	6562.86
451.57	6443.49
451.76	6352.21
451.94	6551.16
452.13	6583.93
452.31	6438.81
452.49	6558.18
452.68	6382.64
452.86	6504.35
453.05	6745.42
453.23	6579.25
453.42	6368.60
453.60	6576.91
453.78	6869.47
453.97	6558.18
454.15	6703.29
454.34	6600.31
454.52	6846.07
454.70	6595.63
454.89	6944.37
455.07	6939.69
455.26	6949.05
455.44	7070.76
455.62	6970.12
455.81	6958.41
455.99	6902.24
456.17	7068.42
456.36	7068.42
456.54	7089.48
456.73	7199.49
456.91	7328.22
457.09	7330.56
457.28	7442.90
457.46	7236.94
457.64	7506.10
457.83	7344.60
458.01	7358.64
458.19	7487.37
458.38	7260.34
458.56	7466.31
458.74	7496.74
458.93	7314.17
459.11	7548.23
459.29	7370.35
459.48	7768.24
459.66	7571.63
459.84	7482.69
460.03	7550.57
460.21	7611.42
460.39	7581.00
460.57	7604.40
460.76	7747.17
460.94	7826.75
461.12	7808.03
461.31	7974.21
461.49	7681.64
461.67	7700.36
461.85	7948.46
462.04	7976.55
462.22	8259.75
462.40	8159.11
462.59	7946.12
462.77	7978.89
462.95	8163.79
463.13	8145.06
463.32	8149.75
463.50	8250.39
463.68	8135.70
463.86	8184.85
464.05	7911.01
464.23	8006.97
464.41	8215.28
464.59	7988.25
464.78	8327.63
464.96	8318.26
465.14	8168.47
465.32	8283.16
465.50	8402.52
465.69	8547.64
465.87	8451.67
466.05	8322.94
466.23	8353.37
466.41	8299.54
466.60	8744.24
466.78	8542.96
466.96	8580.40
467.14	8442.31
467.32	8681.05
467.51	8638.92
467.69	8294.86
467.87	8503.17
468.05	8425.93
468.23	8451.67
468.41	8517.21
468.60	8463.38
468.78	8784.03
468.96	8667.00
469.14	8723.18
469.32	8779.35
469.50	8788.71
469.69	8936.17
469.87	8711.47
470.05	8734.88
470.23	8858.93
470.41	8809.78
470.59	9270.86
470.77	8915.10
470.95	8861.27
471.14	9050.85
471.32	8992.34
471.50	9394.91
471.68	9341.08
471.86	9383.21
472.04	9507.26
472.22	9713.22
472.40	9294.27
472.58	9397.25
472.77	9380.87
472.95	9554.07
473.13	9987.07
473.31	9668.75
473.49	9472.15
473.67	9741.31
473.85	9614.92
474.03	9970.68
474.21	9902.81
474.39	10043.24
474.57	9848.97
474.75	10029.20
474.93	10237.50
475.12	10188.35
475.30	10359.21
475.48	10347.51
475.66	10452.83
475.84	10253.89
476.02	10303.04
476.20	10321.76
476.38	10635.39
476.56	10750.08
476.74	11044.99
476.92	10848.38
477.10	10832.00
477.28	10775.83
477.46	11087.12
477.64	11129.25
477.82	11234.57
478.00	11260.32
478.18	11307.13
478.36	11487.35
478.54	11735.45
478.72	11630.12
478.90	11880.56
479.08	11730.76
479.26	11943.75
479.44	11960.14
479.62	11981.20
479.80	11939.07
479.98	12203.55
480.16	12453.99
480.34	12491.44
480.52	12311.22
480.70	12528.89
480.88	12395.48
481.06	12706.77
481.24	12461.01
481.41	13008.70
481.59	13104.66
481.77	13151.47
481.95	13107.00
482.13	13479.15
482.31	13212.32
482.49	13757.67
482.67	13575.11
482.85	13680.43
483.03	13827.88
483.21	14038.53
483.39	14071.30
483.57	13879.38
483.74	14176.62
483.92	14216.41
484.10	14228.12
484.28	14333.44
484.46	14757.08
484.64	15082.41
484.82	14616.65
485.00	14876.44
485.18	15161.99
485.35	15199.44
485.53	15040.28
485.71	15068.37
485.89	15606.69
486.07	15391.36
486.25	15358.60
486.43	15625.42
486.61	15719.04
486.78	15765.85
486.96	16100.55
487.14	16177.78
487.32	16313.53
487.50	16425.88
487.68	16666.95
487.85	16807.39
488.03	17001.65
488.21	16922.07
488.39	16893.99
488.57	16978.25
488.75	17298.90
488.92	17633.60
489.10	17486.14
489.28	17481.46
489.46	17778.71
489.64	17776.37
489.81	18527.68
489.99	18214.05
490.17	18335.76
490.35	18560.45
490.53	18806.20
490.70	18618.96
490.88	18768.76
491.06	19164.31
491.24	19131.54
491.41	19122.18
491.59	19063.66
491.77	19243.88
491.95	19522.41
492.13	19510.71
492.30	19983.49
492.48	20130.95
492.66	20065.41
492.84	19840.72
493.01	20208.19
493.19	20341.60
493.37	20362.66
493.54	20884.60
493.72	20524.16
493.90	20800.34
494.08	21095.25
494.25	21184.19
494.43	21516.54
494.61	21689.74
494.79	21474.42
494.96	21481.44
495.14	21563.36
495.32	21986.99
495.49	22132.11
495.67	22031.46
495.85	22078.27
496.02	22415.31
496.20	22719.58
496.38	22391.91
496.55	22520.63
496.73	22927.89
496.91	22946.61
497.09	23239.18
497.26	22944.27
497.44	23000.44
497.62	23157.26
497.79	23042.57
497.97	23087.04
498.14	23433.44
498.32	23531.75
498.50	23859.42
498.67	23999.85
498.85	23821.97
499.03	24290.08
499.20	24308.80
499.38	24259.65
499.56	24098.16
499.73	24533.50
499.91	24545.20
500.08	24680.95
500.26	24657.54
500.44	24793.29
500.61	24636.48
500.79	24746.48
500.97	24833.08
501.14	24952.45
501.32	25256.72
501.49	25446.30
501.67	25469.71
501.84	25610.14
502.02	25668.66
502.20	25565.67
502.37	25633.55
502.55	25689.72
502.72	26012.71
502.90	25713.13
503.07	25853.56
503.25	26260.81
503.43	25996.33
503.60	26604.87
503.78	26026.76
503.95	26487.84
504.13	26764.03
504.30	26813.18
504.48	26417.63
504.65	26684.45
504.83	26696.15
505.01	27115.11
505.18	26775.73
505.36	27452.14
505.53	27117.45
505.71	27386.61
505.88	27264.90
506.06	27316.39
506.23	27871.10
506.41	27321.07
506.58	27578.53
506.76	27721.30
506.93	28079.41
507.11	27833.65
507.28	27625.34
507.46	27882.80
507.63	28180.05
507.81	28048.98
507.98	28439.85
508.16	28130.90
508.33	28510.07
508.50	28856.46
508.68	28126.22
508.85	29184.14
509.03	28648.16
509.20	28929.02
509.38	28872.85
509.55	29167.76
509.73	28992.22
509.90	29256.70
510.08	29151.37
510.25	29235.63
510.42	29106.90
510.60	29717.78
510.77	29572.67
510.95	29549.26
511.12	29413.51
511.30	29743.53
511.47	30490.16
511.64	30221.00
511.82	30094.61
511.99	30183.55
512.17	30410.58
512.34	29979.92
512.51	30206.95
512.69	30726.55
512.86	30906.77
513.04	30876.35
513.21	30080.56
513.38	30471.43
513.56	30885.71
513.73	30607.19
513.90	30827.20
514.08	30785.07
514.25	31103.38
514.43	31065.93
514.60	30991.03
514.77	31246.15
514.95	31651.06
515.12	31302.32
515.29	31510.63
515.47	32203.43
515.64	31936.61
515.81	31353.82
515.99	31587.87
516.16	31651.06
516.33	31674.47
516.51	31711.92
516.68	31592.55
516.85	31798.52
517.03	31805.54
517.20	32037.25
517.37	32093.43
517.54	32189.39
517.72	31969.38
517.89	31847.67
518.06	32699.62
518.24	32121.51
518.41	32180.03
518.58	32308.76
518.75	32519.40
518.93	32940.70
519.10	32809.63
519.27	32861.12
519.45	32809.63
519.62	32947.72
519.79	33177.09
519.96	32833.04
520.14	33170.07
520.31	33359.66
520.48	33633.50
520.65	33282.42
520.83	33649.88
521.00	33586.69
521.17	33280.08
521.34	33886.28
521.52	33881.60
521.69	34033.73
521.86	33944.79
522.03	34178.84
522.20	34235.02
522.38	34171.82
522.55	34295.87
522.72	34106.29
522.89	34438.64
523.07	34515.88
523.24	34092.24
523.41	34518.22
523.58	34110.97
523.75	34890.37
523.92	34820.15
524.10	34876.32
524.27	34724.19
524.44	34946.54
524.61	35035.48
524.78	35243.79
524.96	35136.12
525.13	35264.85
525.30	35545.72
525.47	35442.73
525.64	35316.34
525.81	36126.17
525.98	35292.94
526.16	35398.26
526.33	35562.10
526.50	36072.34
526.67	35445.07
526.84	35903.82
527.01	35637.00
527.18	35681.47
527.36	35899.14
527.53	36067.66
527.70	36156.60
527.87	36285.33
528.04	35791.47
528.21	36217.45
528.38	35789.13
528.55	36603.64
528.72	35922.54
528.89	36814.29
529.07	36549.81
529.24	36325.11
529.41	36603.64
529.58	36760.45
529.75	36657.47
529.92	37015.57
530.09	36987.49
530.26	36746.41
530.43	37273.03
530.60	36570.87
530.77	36959.40
530.94	37244.94
531.11	37490.70
531.28	37235.58
531.46	36847.05
531.63	37462.61
531.80	37364.31
531.97	37345.59
532.14	37354.95
532.31	37315.16
532.48	37350.27
532.65	37502.40
532.82	37511.77
532.99	37935.40
533.16	37303.46
533.33	37839.44
533.50	37727.10
533.67	37546.87
533.84	37930.72
534.01	37991.58
534.18	38197.54
534.35	38197.54
534.52	38473.73
534.69	38492.45
534.86	38660.97
535.03	37724.75
535.20	38415.21
535.37	38588.41
535.54	38766.29
535.71	37958.81
535.88	38602.46
536.05	38859.91
536.22	38600.12
536.38	38483.09
536.55	38656.29
536.72	38567.35
536.89	38501.81
537.06	38916.09
537.23	38871.62
537.40	38939.49
537.57	39215.68
537.74	39222.70
537.91	39182.91
538.08	39058.86
538.25	38663.31
538.42	39133.76
538.59	39124.40
538.75	38988.64
538.92	39203.97
539.09	39856.98
539.26	39047.16
539.43	39510.58
539.60	39285.89
539.77	39182.91
539.94	39393.56
540.11	39906.13
540.28	39498.88
540.44	39285.89
540.61	39206.31
540.78	39559.73
540.95	39758.68
541.12	39690.80
541.29	39737.62
541.46	39526.97
541.62	40142.53
541.79	40130.83
541.96	39566.76
542.13	39864.00
542.30	40371.90
542.47	39976.35
542.63	40055.93
542.80	39873.37
542.97	40598.93
543.14	40886.82
543.31	41109.17
543.48	40828.30
543.64	40605.95
543.81	41230.88
543.98	40928.95
544.15	40631.70
544.32	40879.80
544.48	41333.86
544.65	40854.05
544.82	40910.22
544.99	40690.21
545.16	41130.23
545.32	40795.54
545.49	41008.53
545.66	41195.77
545.83	40952.35
546.00	41174.70
546.16	41743.45
546.33	40971.08
546.50	40704.26
546.67	41137.26
546.83	40769.79
547.00	41411.10
547.17	41268.33
547.34	41057.68
547.50	41497.70
547.67	41542.17
547.84	41706.01
548.00	41715.37
548.17	42064.11
548.34	41350.24
548.51	41907.29
548.67	41628.77
548.84	41720.05
549.01	41256.62
549.18	41607.70
549.34	41869.84
549.51	42054.75
549.68	41979.85
549.84	41879.21
550.01	42342.63
550.18	41867.50
550.34	42052.41
550.51	41790.27
550.68	41481.31
550.84	41867.50
551.01	42010.28
551.18	41963.46
551.34	42185.82
551.51	42122.62
551.68	42499.45
551.84	42131.98
552.01	42225.60
552.18	42515.83
552.34	42546.26
552.51	42178.79
552.68	42073.47
552.84	42223.26
553.01	42787.33
553.18	42490.09
553.34	42211.56
553.51	42450.30
553.67	42344.97
553.84	43152.46
554.01	42815.42
554.17	42885.64
554.34	42993.30
554.51	42796.70
554.67	43054.15
554.84	42920.74
555.00	42831.80
555.17	42199.86
555.33	42827.12
555.50	42913.72
555.67	42597.75
555.83	43227.35
556.00	43260.12
556.16	43316.29
556.33	43019.05
556.50	42941.81
556.66	43342.04
556.83	43171.18
556.99	42953.51
557.16	43503.54
557.32	43484.81
557.49	43168.84
557.65	43126.71
557.82	43112.67
557.98	42880.95
558.15	43606.52
558.32	42983.94
558.48	43395.87
558.65	43777.38
558.81	43351.40
558.98	43496.52
559.14	43356.08
559.31	43290.55
559.47	43428.64
559.64	43672.06
559.80	43667.37
559.97	43573.75
560.13	43363.11
560.30	43454.39
560.46	44011.43
560.63	43377.15
560.79	43693.12
560.96	44102.71
561.12	43627.59
561.29	43852.28
561.45	43908.45
561.61	43407.58
561.78	43391.19
561.94	43381.83
562.11	43819.51
562.27	43702.48
562.44	43466.09
562.60	43672.06
562.77	44278.25
562.93	43992.71
563.10	44081.65
563.26	43517.58
563.42	44123.78
563.59	43927.17
563.75	43632.27
563.92	44201.02
564.08	44105.06
564.24	44395.28
564.41	44060.58
564.57	44280.60
564.74	44151.87
564.90	44175.27
565.07	44397.62
565.23	44027.82
565.39	43779.72
565.56	44172.93
565.72	44053.56
565.88	43817.17
566.05	44198.68
566.21	44039.52
566.38	43784.40
566.54	43959.94
566.70	44444.43
566.87	44404.64
567.03	44156.55
567.19	44339.11
567.36	44552.10
567.52	44079.31
567.68	44432.73
567.85	44151.87
568.01	44589.55
568.17	44437.41
568.34	44058.24
568.50	44364.85
568.66	44535.71
568.83	44116.76
568.99	44524.01
569.15	44320.38
569.32	43983.35
569.48	43800.79
569.64	44514.65
569.81	44313.36
569.97	44383.58
570.13	44383.58
570.30	44254.85
570.46	44229.10
570.62	44383.58
570.78	44378.90
570.95	44404.64
571.11	44282.94
571.27	44229.10
571.43	44428.05
571.60	44381.24
571.76	44437.41
571.92	44306.34
572.09	44341.45
572.25	44453.79
572.41	44500.61
572.57	44168.25
572.74	45118.51
572.90	44739.34
573.06	44418.69
573.22	44376.56
573.38	44477.20
573.55	44435.07
573.71	44472.52
573.87	44114.42
574.03	44083.99
574.20	44406.98
574.36	44631.68
574.52	44802.53
574.68	44802.53
574.84	44959.35
575.01	44463.16
575.17	44680.83
575.33	44350.81
575.49	44659.76
575.65	44917.22
575.82	45244.90
575.98	44589.55
576.14	44589.55
576.30	44912.54
576.46	44708.91
576.62	44449.11
576.79	44406.98
576.95	44521.67
577.11	44779.13
577.27	44418.69
577.43	45081.06
577.59	44800.19
577.75	44643.38
577.92	44320.38
578.08	44615.29
578.24	44538.05
578.40	44732.32
578.56	44584.86
578.72	44641.04
578.88	44935.95
579.04	44751.04
579.21	44790.83
579.37	44161.23
579.53	44767.43
579.69	44369.54
579.85	44453.79
580.01	44591.89
580.17	44629.34
580.33	44851.69
580.49	45153.62
580.65	44514.65
580.82	44847.00
580.98	44580.18
581.14	44559.12
581.30	44755.72
581.46	44364.85
581.62	44570.82
581.78	45034.25
581.94	44872.75
582.10	44236.12
582.26	45137.23
582.42	44912.54
582.58	44561.46
582.74	44692.53
582.90	44683.17
583.06	44800.19
583.22	44629.34
583.38	44896.16
583.54	44839.98
583.70	44566.14
583.86	44526.35
584.02	44505.29
584.18	44971.05
584.34	44910.20
584.50	44947.65
584.66	45076.38
584.82	44828.28
584.98	45125.53
585.14	44690.19
585.30	44814.24
585.46	44861.05
585.62	44753.38
585.78	44519.33
585.94	44769.77
586.10	44306.34
586.26	44762.75
586.42	44554.44
586.58	44772.11
586.74	44624.65
586.90	44559.12
587.06	44584.86
587.22	44898.50
587.38	44458.48
587.54	44921.90
587.70	45209.79
587.86	45296.39
588.02	45230.85
588.18	45134.89
588.34	44802.53
588.49	44828.28
588.65	44423.37
588.81	44952.33
588.97	44617.63
589.13	44502.95
589.29	45003.82
589.45	45043.61
589.61	44921.90
589.77	44987.44
589.93	44828.28
590.08	44711.25
590.24	45315.11
590.40	44797.85
590.56	44835.30
590.72	45347.88
590.88	44439.75
591.04	44886.79
591.20	45081.06
591.35	44868.07
591.51	45343.20
591.67	45059.99
591.83	45181.70
591.99	45109.14
592.15	44952.33
592.31	44905.52
592.46	44781.47
592.62	44722.96
592.78	44987.44
592.94	45294.05
593.10	45170.00
593.26	45244.90
593.41	45130.21
593.57	45366.60
593.73	44397.62
593.89	45251.92
594.05	45099.78
594.20	44802.53
594.36	45052.97
594.52	45453.20
594.68	45268.30
594.84	45324.47
594.99	45441.50
595.15	45010.84
595.31	45698.96
595.47	45216.81
595.62	45116.17
595.78	45109.14
595.94	45504.70
596.10	45317.45
596.25	45364.26
596.41	45310.43
596.57	45331.50
596.73	45272.98
596.88	44903.18
597.04	45055.31
597.20	45003.82
597.36	45036.59
597.51	45801.94
597.67	44781.47
597.83	45228.51
597.99	45720.02
598.14	45333.84
598.30	45280.00
598.46	45198.09
598.61	45471.93
598.77	44938.29
598.93	45270.64
599.09	44694.87
599.24	45532.78
599.40	45488.31
599.56	45160.64
599.71	45413.41
599.87	45425.12
600.03	45041.27
600.18	45429.80
600.34	44971.05
600.50	45289.37
600.65	45083.40
600.81	45333.84
600.97	45530.44
601.12	45729.39
601.28	45354.90
601.44	45481.29
601.59	45256.60
601.75	45242.56
601.91	44980.42
602.06	44786.15
602.22	45502.35
602.37	45013.18
602.53	45195.74
602.69	45434.48
602.84	45055.31
603.00	45235.53
603.16	45188.72
603.31	45177.02
603.47	45165.32
603.62	45265.96
603.78	45020.20
603.94	45544.48
604.09	45504.70
604.25	45090.42
604.40	45113.83
604.56	45329.16
604.71	45443.84
604.87	45057.65
605.03	45605.34
605.18	45305.75
605.34	45434.48
605.49	44701.89
605.65	45333.84
605.80	45010.84
605.96	45123.19
606.12	45050.63
606.27	45141.91
606.43	45380.65
606.58	45074.04
606.74	45233.19
606.89	44856.37
607.05	45514.06
607.20	45153.62
607.36	45261.28
607.51	45399.37
607.67	45050.63
607.82	44938.29
607.98	45378.31
608.13	45074.04
608.29	44540.39
608.44	44900.84
608.60	44634.02
608.75	44868.07
608.91	44498.26
609.06	45207.45
609.22	45338.52
609.37	44973.39
609.53	45202.77
609.68	44844.66
609.84	44683.17
609.99	45127.87
610.15	44617.63
610.30	44641.04
610.46	44472.52
610.61	44360.17
610.76	44596.57
610.92	44395.28
611.07	44634.02
611.23	44725.30
611.38	44467.84
611.54	44137.82
611.69	44505.29
611.84	44727.64
612.00	44641.04
612.15	44315.70
612.31	44477.20
612.46	44069.95
612.62	44341.45
612.77	44699.55
612.92	44580.18
613.08	44158.89
613.23	44540.39
613.39	44638.70
613.54	44123.78
613.69	44149.53
613.85	44308.68
614.00	44758.06
614.15	44856.37
614.31	44367.20
614.46	44774.45
614.62	44531.03
614.77	44542.74
614.92	44041.86
615.08	44060.58
615.23	44236.12
615.38	44222.08
615.54	43807.81
615.69	43887.39
615.84	43615.88
616.00	44100.37
616.15	43929.51
616.30	44142.50
616.46	43620.56
616.61	43871.00
616.76	44009.09
616.92	44144.84
617.07	43695.46
617.22	43489.49
617.37	43643.97
617.53	44076.97
617.68	43995.05
617.83	43714.19
617.99	43821.85
618.14	43718.87
618.29	43730.57
618.45	43398.21
618.60	43908.45
618.75	43845.26
618.90	44194.00
619.06	44032.50
619.21	43990.37
619.36	44006.75
619.51	43737.59
619.67	43304.59
619.82	43620.56
619.97	44112.08
620.12	43302.25
620.28	43096.28
620.43	43335.02
620.58	43402.89
620.73	43194.59
620.89	43182.88
621.04	43681.42
621.19	43346.72
621.34	42824.78
621.49	43051.81
621.65	43199.27
621.80	43402.89
621.95	42855.21
622.10	43117.35
622.25	42923.08
622.41	43239.06
622.56	42815.42
622.71	43737.59
622.86	42976.92
623.01	42740.52
623.16	43028.41
623.32	42927.77
623.47	43246.08
623.62	42838.83
623.77	42799.04
623.92	42766.27
624.07	42745.20
624.23	42784.99
624.38	42878.61
624.53	42731.16
624.68	42628.18
624.83	43246.08
624.98	42773.29
625.13	42527.53
625.29	42731.16
625.44	42873.93
625.59	42454.98
625.74	42115.60
625.89	42047.72
626.04	41715.37
626.19	42557.96
626.34	42270.08
626.49	42550.94
626.65	42518.17
626.80	42288.80
626.95	42223.26
627.10	42270.08
627.25	41918.99
627.40	42113.26
627.55	41738.77
627.70	41897.93
627.85	42120.28
628.00	41902.61
628.15	42052.41
628.30	42157.73
628.45	42539.24
628.60	41926.02
628.76	42522.85
628.91	41984.53
629.06	41982.19
629.21	41963.46
629.36	41902.61
629.51	41406.42
629.66	41635.79
629.81	41872.18
629.96	41710.69
630.11	41715.37
630.26	41687.28
630.41	42014.96
630.56	41645.15
630.71	42029.00
630.86	41535.15
631.01	41596.00
631.16	41893.25
631.31	41273.01
631.46	40987.46
631.61	41518.76
631.76	41357.27
631.91	41095.13
632.06	41251.94
632.21	41291.73
632.36	41745.80
632.51	41214.49
632.66	41677.92
632.81	40828.30
632.96	41280.03
633.10	40863.41
633.25	41315.14
633.40	41277.69
633.55	41282.37
633.70	41532.81
633.85	40898.52
634.00	40978.10
634.15	40809.58
634.30	41397.06
634.45	40858.73
634.60	40390.62
634.75	41003.85
634.90	40966.40
635.05	41177.04
635.19	41326.84
635.34	41364.29
635.49	41043.63
635.64	40950.01
635.79	40435.10
635.94	40856.39
636.09	40587.23
636.24	40477.22
636.39	40463.18
636.53	40217.43
636.68	40168.27
636.83	40156.57
636.98	40793.20
637.13	39847.62
637.28	40737.02
637.43	40652.76
637.57	40718.30
637.72	41120.87
637.87	40802.56
638.02	40121.46
638.17	40135.51
638.32	40512.33
638.46	40385.94
638.61	40102.74
638.76	39803.15
638.91	39964.65
639.06	40074.65
639.20	40273.60
639.35	40374.24
639.50	40112.10
639.65	40524.04
639.80	39948.26
639.94	39835.92
640.09	39735.27
640.24	39704.85
640.39	39718.89
640.54	39756.34
640.68	39864.00
640.83	39583.14
640.98	39716.55
641.13	39730.59
641.27	39971.67
641.42	39573.78
641.57	39906.13
641.72	40095.72
641.86	39725.91
642.01	39693.15
642.16	39351.43
642.31	39196.95
642.45	39583.14
642.60	39695.49
642.75	38873.96
642.90	39342.06
643.04	39281.21
643.19	39526.97
643.34	39711.87
643.48	39447.39
643.63	39557.39
643.78	39196.95
643.93	39363.13
644.07	39065.88
644.22	39456.75
644.37	38838.85
644.51	39166.52
644.66	39388.88
644.81	39365.47
644.95	39124.40
645.10	39239.08
645.25	39639.31
645.39	39393.56
645.54	39482.50
645.69	39007.37
645.83	39000.35
645.98	38859.91
646.13	39070.56
646.27	38742.89
646.42	38829.49
646.57	39173.55
646.71	39079.92
646.86	39117.37
647.00	39093.97
647.15	39168.87
647.30	39014.39
647.44	38845.87
647.59	38707.78
647.74	39007.37
647.88	38616.50
648.03	38724.16
648.17	38820.13
648.32	38579.05
648.47	38567.35
648.61	38218.61
648.76	38815.44
648.90	38855.23
649.05	38501.81
649.20	38836.51
649.34	38689.06
649.49	38302.87
649.63	38707.78
649.78	38522.88
649.92	38717.14
650.07	38632.88
650.21	38148.39
650.36	38536.92
650.51	38396.49
650.65	38555.64
650.80	38600.12
650.94	38621.18
651.09	38658.63
651.23	38356.70
651.38	37694.33
651.52	38052.43
651.67	38396.49
651.81	38216.27
651.96	38000.94
652.10	38440.96
652.25	37949.45
652.39	37677.94
652.54	37628.79
652.68	38099.24
652.83	37919.02
652.97	38082.86
653.12	38014.98
653.26	37862.85
653.41	37762.20
653.55	37816.04
653.70	38038.39
653.84	37771.57
653.99	37949.45
654.13	37743.48
654.27	37462.61
654.42	37397.08
654.56	37696.67
654.71	37266.01
654.85	37757.52
655.00	37422.83
655.14	37291.76
655.29	36587.25
655.43	37394.74
655.57	37120.90
655.72	37069.40
655.86	37380.70
656.01	37069.40
656.15	37195.79
656.30	37090.47
656.44	36968.76
656.58	36863.44
656.73	36893.86
656.87	37310.48
657.01	36666.83
657.16	36825.99
657.30	36870.46
657.45	36765.14
657.59	36753.43
657.73	36863.44
657.88	36814.29
658.02	36638.75
658.16	37141.96
658.31	36861.10
658.45	36975.78
658.60	36617.68
658.74	36554.49
658.88	36453.84
659.03	36622.36
659.17	36444.48
659.31	36512.36
659.46	36208.09
659.60	36662.15
659.74	36236.17
659.89	36456.18
660.03	36404.69
660.17	36161.28
660.32	36486.61
660.46	36837.69
660.60	36547.47
660.74	36095.74
660.89	36299.37
661.03	36184.68
661.17	35620.61
661.32	35782.11
661.46	35749.34
661.60	35426.35
661.74	35889.77
661.89	36032.55
662.03	35742.32
662.17	35648.70
662.31	35494.22
662.46	36133.19
662.60	35601.89
662.74	35737.64
662.88	35466.14
663.03	35379.54
663.17	35332.73
663.31	35426.35
663.45	35510.61
663.60	35302.30
663.74	35035.48
663.88	34845.90
664.02	34937.18
664.17	35199.32
664.31	34768.66
664.45	34789.72
664.59	34866.96
664.73	34682.06
664.88	35105.70
665.02	34101.61
665.16	34703.12
665.30	34611.84
665.44	34462.05
665.59	34129.69
665.73	34286.51
665.87	34242.04
666.01	34066.50
666.15	34026.71
666.29	34286.51
666.44	34216.29
666.58	34328.64
666.72	34448.00
666.86	34298.21
667.00	34192.89
667.14	33872.23
667.28	34057.14
667.43	33645.20
667.57	33340.93
667.71	33476.68
667.85	33495.41
667.99	33654.56
668.13	33376.04
668.27	33750.52
668.41	33567.96
668.56	33125.60
668.70	33179.43
668.84	33212.20
668.98	33528.17
669.12	33497.75
669.26	33383.06
669.40	32924.32
669.54	32982.83
669.68	33359.66
669.82	33024.96
669.96	32973.47
670.10	32833.04
670.25	33291.78
670.39	33092.83
670.53	32666.86
670.67	32699.62
670.81	32985.17
670.95	32666.86
671.09	32470.25
671.23	32591.96
671.37	32718.35
671.51	32278.33
671.65	32236.20
671.79	32065.34
671.93	32346.20
672.07	32587.28
672.21	32201.09
672.35	31695.53
672.49	32151.94
672.63	32041.93
672.77	32378.97
672.91	31576.17
673.05	31690.85
673.19	31878.10
673.33	31283.60
673.47	31452.12
673.61	31381.90
673.75	31084.65
673.89	30845.92
674.03	31194.66
674.17	31126.78
674.31	31077.63
674.45	30806.13
674.59	31173.60
674.73	30890.39
674.87	30960.61
675.01	30998.06
675.15	31014.44
675.29	31054.23
675.43	30497.18
675.56	31264.88
675.70	30103.97
675.84	30405.90
675.98	29378.40
676.12	30043.12
676.26	30309.94
676.40	29947.15
676.54	29930.77
676.68	30157.80
676.82	29390.11
676.96	29530.54
677.10	29305.85
677.23	29502.45
677.37	29528.20
677.51	29455.64
677.65	29261.38
677.79	29184.14
677.93	28741.78
678.07	28933.70
678.21	28737.10
678.34	28704.33
678.48	28774.55
678.62	28994.56
678.76	28542.83
678.90	28414.10
679.04	28446.87
679.18	28893.91
679.31	27838.33
679.45	28027.92
679.59	27803.22
679.73	28231.54
679.87	28070.04
680.00	27880.46
680.14	27381.93
680.28	27447.46
680.42	27292.99
680.56	27747.05
680.70	27384.27
680.83	27332.78
680.97	27208.73
681.11	27016.80
681.25	26586.15
681.39	26960.63
681.52	27026.17
681.66	26738.28
681.80	26789.77
681.94	26546.36
682.07	26693.81
682.21	26438.69
682.35	26560.40
682.49	26443.37
682.62	26403.58
682.76	25830.15
682.90	26197.62
683.04	26178.89
683.17	25818.45
683.31	25993.99
683.45	25556.31
683.59	25689.72
683.72	25294.17
683.86	25373.75
684.00	25123.31
684.13	25546.95
684.27	25528.22
684.41	25111.61
684.55	25090.54
684.68	25048.41
684.82	25130.33
684.96	24847.13
685.09	24599.03
685.23	24467.96
685.37	24474.98
685.50	24767.55
685.64	24439.87
685.78	24215.18
685.91	24318.17
686.05	24147.31
686.19	23651.11
686.32	23950.70
686.46	23756.44
686.60	23281.31
686.73	23562.17
686.87	23496.64
687.01	23428.76
687.14	23033.21
687.28	22827.24
687.42	23140.88
687.55	22899.80
687.69	23112.79
687.82	22946.61
687.96	22759.37
688.10	22511.27
688.23	22623.62
688.37	22480.85
688.50	22373.18
688.64	22302.96
688.78	22403.61
688.91	22120.40
689.05	22092.32
689.18	22288.92
689.32	21521.23
689.46	21979.97
689.59	21682.72
689.73	22012.74
689.86	21785.71
690.00	21600.80
690.13	21811.45
690.27	21336.32
690.41	21223.98
690.54	21050.78
690.68	21268.45
690.81	21341.00
690.95	21057.80
691.08	21331.64
691.22	20716.08
691.35	21053.12
691.49	21296.53
691.62	21067.16
691.76	20908.01
691.89	20751.19
692.03	20439.90
692.16	20793.32
692.30	20350.96
692.43	20400.11
692.57	20046.69
692.70	19964.77
692.84	19927.32
692.97	20119.24
693.11	19763.48
693.24	19791.57
693.38	19583.26
693.51	19868.81
693.65	19704.97
693.78	19779.87
693.92	19433.47
694.05	19445.17
694.19	19323.46
694.32	19173.67
694.45	19342.19
694.59	18956.00
694.72	18941.96
694.86	18937.27
694.99	18492.57
695.13	18501.93
695.26	18558.11
695.39	18239.79
695.53	18719.60
695.66	18525.34
695.80	18188.30
695.93	18125.11
696.07	18146.17
696.20	18094.68
696.33	18162.56
696.47	17951.91
696.60	17893.40
696.73	17729.56
696.87	17886.37
697.00	17720.20
697.14	17455.72
697.27	17411.25
697.40	17811.48
697.54	17413.59
697.67	17308.26
697.80	17284.86
697.94	17200.60
698.07	17092.93
698.21	16996.97
698.34	17118.68
698.47	16905.69
698.61	16823.77
698.74	16666.95
698.87	16395.45
699.01	16304.17
699.14	16339.28
699.27	16327.58
699.40	16217.57
699.54	16116.93
699.67	16264.38
699.80	16037.35
699.94	15700.31
700.07	16074.80
700.20	16018.63
700.34	15866.49
700.47	15873.51
700.60	15843.09
700.73	15817.34
700.87	15356.25
701.00	15374.98
701.13	15513.07
701.26	15494.35
701.40	15527.11
701.53	15201.78
701.66	15234.55
701.79	14970.07
701.93	14991.13
702.06	14712.61
702.19	15063.69
702.32	14902.19
702.46	14717.29
702.59	14773.46
702.72	14551.11
702.85	14822.61
702.99	14551.11
703.12	14534.73
703.25	14637.71
703.38	14651.75
703.51	14310.04
703.65	14305.35
703.78	14036.19
703.91	14143.86
704.04	14235.14
704.17	13973.00
704.31	13926.19
704.44	13905.12
704.57	13750.65
704.70	13537.66
704.83	13437.02
704.96	13708.52
705.10	13708.52
705.23	13823.20
>>>>>End Processed Spectral Data<<<<<
