SpectraSuite Data File
++++++++++++++++++++++++++++++++++++
Date: Fri Oct 25 11:34:25 EDT 2013
User: price-jones
Dark Spectrum Present: No
Reference Spectrum Present: No
Number of Sampled Component Spectra: 1
Spectrometers: USB2+H05261
Integration Time (usec): 100000 (USB2+H05261)
Spectra Averaged: 1 (USB2+H05261)
Boxcar Smoothing: 0 (USB2+H05261)
Correct for Electrical Dark: No (USB2+H05261)
Strobe/Lamp Enabled: No (USB2+H05261)
Correct for Detector Non-linearity: No (USB2+H05261)
Correct for Stray Light: No (USB2+H05261)
Number of Pixels in Processed Spectrum: 2048
>>>>>Begin Processed Spectral Data<<<<<
365.73	276.18
365.92	276.18
366.12	276.18
366.32	173.20
366.52	255.12
366.72	175.54
366.91	142.77
367.11	145.11
367.31	159.16
367.51	107.66
367.70	182.56
367.90	138.09
368.10	212.99
368.30	119.37
368.49	191.92
368.69	117.03
368.89	149.79
369.09	184.90
369.28	196.60
369.48	208.31
369.68	196.60
369.87	227.03
370.07	229.37
370.27	327.68
370.47	301.93
370.66	428.32
370.86	503.22
371.06	599.18
371.25	561.73
371.45	477.47
371.65	475.13
371.84	521.94
372.04	622.58
372.24	505.56
372.44	629.60
372.63	622.58
372.83	573.43
373.03	643.65
373.22	519.60
373.42	685.78
373.62	568.75
373.81	655.35
374.01	674.07
374.21	653.01
374.40	669.39
374.60	681.10
374.79	624.92
374.99	601.52
375.19	622.58
375.38	681.10
375.58	596.84
375.78	674.07
375.97	648.33
376.17	697.48
376.37	596.84
376.56	638.97
376.76	702.16
376.95	615.56
377.15	697.48
377.35	657.69
377.54	697.48
377.74	638.97
377.93	603.86
378.13	690.46
378.33	624.92
378.52	730.25
378.72	695.14
378.91	727.91
379.11	699.82
379.31	706.84
379.50	732.59
379.70	709.18
379.89	753.65
380.09	685.78
380.28	650.67
380.48	709.18
380.68	732.59
380.87	695.14
381.07	734.93
381.26	805.14
381.46	751.31
381.65	702.16
381.85	760.67
382.04	751.31
382.24	774.72
382.43	800.46
382.63	795.78
382.83	805.14
383.02	802.80
383.22	875.36
383.41	748.97
383.61	755.99
383.80	779.40
384.00	821.53
384.19	821.53
384.39	809.83
384.58	791.10
384.78	770.04
384.97	791.10
385.17	763.01
385.36	772.38
385.56	823.87
385.75	842.59
385.95	795.78
386.14	807.48
386.34	866.00
386.53	870.68
386.72	816.85
386.92	908.13
387.11	840.25
387.31	863.66
387.50	849.61
387.70	889.40
387.89	861.32
388.09	870.68
388.28	880.04
388.48	861.32
388.67	905.79
388.86	828.55
389.06	894.08
389.25	987.71
389.45	901.11
389.64	1004.09
389.84	938.55
390.03	936.21
390.22	950.26
390.42	919.83
390.61	884.72
390.81	931.53
391.00	961.96
391.19	1076.65
391.39	950.26
391.58	1018.13
391.78	938.55
391.97	1055.58
392.16	976.00
392.36	1025.15
392.55	1104.73
392.75	1018.13
392.94	1004.09
393.13	1095.37
393.33	1001.75
393.52	1048.56
393.71	1046.22
393.91	990.05
394.10	1006.43
394.29	1064.94
394.49	1116.44
394.68	1123.46
394.88	1107.07
395.07	1048.56
395.26	1170.27
395.46	1107.07
395.65	1116.44
395.84	1188.99
396.04	1238.14
396.23	1245.16
396.42	1200.69
396.62	1252.19
396.81	1261.55
397.00	1235.80
397.19	1233.46
397.39	1086.01
397.58	1284.95
397.77	1146.86
397.97	1224.10
398.16	1207.72
398.35	1172.61
398.55	1205.38
398.74	1252.19
398.93	1329.42
399.12	1322.40
399.32	1205.38
399.51	1284.95
399.70	1315.38
399.90	1261.55
400.09	1366.87
400.28	1324.74
400.47	1317.72
400.67	1439.43
400.86	1336.45
401.05	1380.92
401.24	1439.43
401.44	1383.26
401.63	1359.85
401.82	1409.00
402.01	1334.11
402.21	1371.55
402.40	1362.19
402.59	1467.52
402.78	1413.68
402.97	1322.40
403.17	1483.90
403.36	1460.49
403.55	1460.49
403.74	1509.65
403.93	1535.39
404.13	1570.50
404.32	1565.82
404.51	1575.18
404.70	1633.69
404.89	1624.33
405.09	1624.33
405.28	1624.33
405.47	1643.06
405.66	1661.78
405.85	1638.38
406.05	1650.08
406.24	1673.48
406.43	1710.93
406.62	1799.87
406.81	1666.46
407.00	1778.81
407.20	1689.87
407.39	1668.80
407.58	1760.08
407.77	1851.36
407.96	1916.90
408.15	1909.88
408.34	1769.44
408.54	1743.70
408.73	1919.24
408.92	1776.47
409.11	1858.39
409.30	1888.81
409.49	1853.70
409.68	1879.45
409.87	1919.24
410.07	1942.64
410.26	1863.07
410.45	1947.33
410.64	2012.86
410.83	2036.27
411.02	2066.69
411.21	2024.56
411.40	2136.91
411.59	2225.85
411.78	2146.27
411.98	1975.41
412.17	2047.97
412.36	2127.55
412.55	2286.70
412.74	2214.15
412.93	2289.04
413.12	2033.93
413.31	2338.20
413.50	2399.05
413.69	2324.15
413.88	2340.54
414.07	2375.64
414.26	2455.22
414.45	2310.11
414.64	2523.10
414.83	2502.03
415.02	2495.01
415.22	2532.46
415.41	2476.29
415.60	2586.29
415.79	2675.23
415.98	2682.25
416.17	2562.89
416.36	2661.19
416.55	2693.96
416.74	2738.43
416.93	2686.94
417.12	2780.56
417.31	2810.98
417.50	2782.90
417.69	2815.66
417.88	2841.41
418.07	2759.49
418.26	2822.69
418.45	2846.09
418.64	2981.84
418.83	2958.44
419.02	2876.52
419.21	2890.56
419.39	2995.89
419.58	3002.91
419.77	3059.08
419.96	3152.70
420.15	2958.44
420.34	3108.23
420.53	2930.35
420.72	3045.04
420.91	3178.45
421.10	3035.67
421.29	3258.03
421.48	3133.98
421.67	3260.37
421.86	3089.51
422.05	3246.32
422.24	3276.75
422.43	3141.00
422.61	3304.84
422.80	3328.24
422.99	3267.39
423.18	3279.09
423.37	3351.65
423.56	3403.14
423.75	3295.47
423.94	3194.83
424.13	3122.27
424.32	3220.58
424.50	3272.07
424.69	3323.56
424.88	3302.50
425.07	3208.87
425.26	3351.65
425.45	3215.90
425.64	3222.92
425.83	3346.97
426.01	3440.59
426.20	3480.38
426.39	3438.25
426.58	3220.58
426.77	3426.54
426.96	3342.28
427.15	3559.95
427.33	3487.40
427.52	3421.86
427.71	3463.99
427.90	3480.38
428.09	3508.46
428.28	3489.74
428.46	3599.74
428.65	3698.05
428.84	3662.94
429.03	3658.26
429.22	3438.25
429.40	3588.04
429.59	3646.55
429.78	3552.93
429.97	3410.16
430.16	3676.98
430.34	3651.24
430.53	3709.75
430.72	3653.58
430.91	3712.09
431.10	3637.19
431.28	3784.65
431.47	3812.73
431.66	3805.71
431.85	3831.46
432.03	3904.01
432.22	3955.51
432.41	3871.25
432.60	3847.84
432.79	3967.21
432.97	3925.08
433.16	3885.29
433.35	4014.02
433.54	4037.42
433.72	4037.42
433.91	3967.21
434.10	4152.11
434.28	4030.40
434.47	4035.08
434.66	4102.96
434.85	4032.74
435.03	4198.92
435.22	4065.51
435.41	4259.78
435.59	4208.28
435.78	4278.50
435.97	4205.94
436.16	4322.97
436.34	4304.25
436.53	4250.41
436.72	4425.95
436.90	4222.33
437.09	4437.66
437.28	4311.27
437.46	4442.34
437.65	4367.44
437.84	4444.68
438.02	4367.44
438.21	4465.74
438.40	4390.84
438.58	4550.00
438.77	4645.96
438.96	4552.34
439.14	4540.64
439.33	4643.62
439.52	4793.42
439.70	4648.30
439.89	4662.35
440.08	4753.63
440.26	4823.84
440.45	4863.63
440.63	4837.89
440.82	5020.45
441.01	4933.85
441.19	5055.56
441.38	5156.20
441.57	5036.83
441.75	5032.15
441.94	5289.61
442.12	5034.49
442.31	5249.82
442.50	5401.96
442.68	5280.25
442.87	5303.65
443.05	5392.59
443.24	5324.72
443.43	5284.93
443.61	5385.57
443.80	5572.82
443.98	5369.19
444.17	5055.56
444.35	5366.85
444.54	5451.11
444.73	5380.89
444.91	5329.40
445.10	5528.35
445.28	5434.72
445.47	5533.03
445.65	5479.19
445.84	5408.98
446.02	5455.79
446.21	5554.09
446.39	5600.90
446.58	5542.39
446.77	5518.98
446.95	5383.23
447.14	5490.90
447.32	5589.20
447.51	5406.64
447.69	5535.37
447.88	5612.60
448.06	5603.24
448.25	5551.75
448.43	5624.31
448.62	5710.91
448.80	5507.28
448.99	5596.22
449.17	5851.34
449.36	5554.09
449.54	5579.84
449.73	5762.40
449.91	5753.04
450.10	5816.23
450.28	5909.85
450.46	6059.65
450.65	5987.09
450.83	5874.74
451.02	5750.70
451.20	6092.41
451.39	6193.06
451.57	6036.24
451.76	5973.05
451.94	5846.66
452.13	6125.18
452.31	6127.52
452.49	5973.05
452.68	5959.00
452.86	6155.61
453.05	6333.49
453.23	6134.54
453.42	6050.28
453.60	5888.79
453.78	6197.74
453.97	6186.04
454.15	5989.43
454.34	5912.19
454.52	6118.16
454.70	6345.19
454.89	6359.24
455.07	6441.15
455.26	6244.55
455.44	6466.90
455.62	6459.88
455.81	6473.92
455.99	6455.20
456.17	6415.41
456.36	6450.52
456.54	6544.14
456.73	6726.70
456.91	6647.12
457.09	6752.45
457.28	6785.21
457.46	6757.13
457.64	6878.83
457.83	6761.81
458.01	6820.32
458.19	7131.61
458.38	6759.47
458.56	7103.53
458.74	6853.09
458.93	6892.88
459.11	6951.39
459.29	6937.35
459.48	6965.43
459.66	7129.27
459.84	7115.23
460.03	7105.87
460.21	7119.91
460.39	7007.56
460.57	7087.14
460.76	7145.66
460.94	7040.33
461.12	7250.98
461.31	7105.87
461.49	7152.68
461.67	7152.68
461.85	7499.08
462.04	7300.13
462.22	7894.63
462.40	7527.16
462.59	7470.99
462.77	7412.48
462.95	7492.05
463.13	7529.50
463.32	7648.87
463.50	7536.52
463.68	7637.17
463.86	7819.73
464.05	7571.63
464.23	7676.96
464.41	7496.74
464.59	7286.09
464.78	7744.83
464.96	7712.07
465.14	7618.44
465.32	7815.05
465.50	7747.17
465.69	7791.64
465.87	7887.61
466.05	7693.34
466.23	7744.83
466.41	7674.62
466.60	7964.84
466.78	7948.46
466.96	8044.42
467.14	7908.67
467.32	7990.59
467.51	8121.66
467.69	7985.91
467.87	7976.55
468.05	8070.17
468.23	7997.61
468.41	8065.49
468.60	8053.78
468.78	8215.28
468.96	7988.25
469.14	8255.07
469.32	8386.14
469.50	8025.70
469.69	8376.78
469.87	8458.70
470.05	8376.78
470.23	8423.59
470.41	8348.69
470.59	8493.80
470.77	8339.33
470.95	8484.44
471.14	8514.87
471.32	8409.54
471.50	8748.92
471.68	8648.28
471.86	8692.75
472.04	8648.28
472.22	9039.15
472.40	8561.68
472.58	8791.05
472.77	8807.44
472.95	8980.64
473.13	9041.49
473.31	8938.51
473.49	8957.23
473.67	8837.86
473.85	9062.55
474.03	9364.48
474.21	9263.84
474.39	9219.37
474.57	9537.68
474.75	9523.64
474.93	9760.03
475.12	9493.21
475.30	9643.01
475.48	9500.23
475.66	9914.51
475.84	9659.39
476.02	10012.81
476.20	9710.88
476.38	10085.37
476.56	10076.01
476.74	10202.40
476.92	10040.90
477.10	10054.94
477.28	10284.31
477.46	10399.00
477.64	10434.11
477.82	10406.02
478.00	10724.33
478.18	10621.35
478.36	10789.87
478.54	10939.66
478.72	11019.24
478.90	10874.13
479.08	11199.46
479.26	11061.37
479.44	11255.64
479.62	11279.04
479.80	11236.91
479.98	11571.61
480.16	11808.00
480.34	11440.54
480.52	11939.07
480.70	11700.34
480.88	11906.31
481.06	11857.15
481.24	11946.09
481.41	12070.14
481.59	12264.41
481.77	12222.28
481.95	12381.43
482.13	12685.70
482.31	12390.80
482.49	12814.43
482.67	12482.08
482.85	12910.40
483.03	12922.10
483.21	13116.36
483.39	13060.19
483.57	12870.61
483.74	13268.50
483.92	13525.96
484.10	13355.10
484.28	13682.77
484.46	13757.67
484.64	13982.36
484.82	14050.24
485.00	13937.89
485.18	14413.02
485.35	14644.73
485.53	14518.34
485.71	14441.11
485.89	14864.74
486.07	14785.16
486.25	14920.92
486.43	14937.30
486.61	15035.60
486.78	15297.74
486.96	15513.07
487.14	15269.66
487.32	15534.14
487.50	15653.50
487.68	15447.54
487.85	16053.73
488.03	16147.36
488.21	16425.88
488.39	16271.40
488.57	16475.03
488.75	16154.38
488.92	16695.04
489.10	16912.71
489.28	16992.29
489.46	17015.69
489.64	16919.73
489.81	17355.07
489.99	17451.03
490.17	17649.98
490.35	17525.93
490.53	17563.38
490.70	17930.84
490.88	18122.77
491.06	18272.56
491.24	18225.75
491.41	18253.84
491.59	18155.54
491.77	18071.28
491.95	18778.12
492.13	18707.90
492.30	18684.50
492.48	19190.05
492.66	19075.37
492.84	19061.32
493.01	19208.78
493.19	19122.18
493.37	19274.31
493.54	19400.70
493.72	19585.60
493.90	19903.92
494.08	19770.51
494.25	20325.21
494.43	20311.17
494.61	20437.56
494.79	20390.75
494.96	20144.99
495.14	20556.93
495.32	20711.40
495.49	20837.79
495.67	20938.43
495.85	21209.93
496.02	21219.30
496.20	21191.21
496.38	21551.65
496.55	21273.13
496.73	21951.88
496.91	21685.06
497.09	21731.87
497.26	22097.00
497.44	21860.60
497.62	22111.04
497.79	22501.91
497.97	22508.93
498.14	22506.59
498.32	22574.47
498.50	22457.44
498.67	22960.66
498.85	23035.55
499.03	23051.94
499.20	22899.80
499.38	23243.86
499.56	23321.10
499.73	23527.06
499.91	23651.11
500.08	23506.00
500.26	23662.82
500.44	23594.94
500.61	23733.03
500.79	23435.78
500.97	24240.93
501.14	24489.03
501.32	24212.84
501.49	24219.86
501.67	24458.60
501.84	24514.77
502.02	24301.78
502.20	24830.74
502.37	24800.32
502.55	24680.95
502.72	24861.17
502.90	24748.82
503.07	24673.93
503.25	25151.40
503.43	24915.00
503.60	25099.90
503.78	24999.26
503.95	25233.32
504.13	25654.61
504.30	25635.89
504.48	25476.73
504.65	25752.91
504.83	25958.88
505.01	26005.69
505.18	26103.99
505.36	26305.28
505.53	26040.80
505.71	26012.71
505.88	26417.63
506.06	26103.99
506.23	26295.92
506.41	26270.17
506.58	26513.59
506.76	26499.55
506.93	26654.02
507.11	26771.05
507.28	27267.24
507.46	27091.70
507.63	27089.36
507.81	27271.92
507.98	26719.56
508.16	27126.81
508.33	27302.35
508.50	27625.34
508.68	27613.64
508.85	28161.33
509.03	27302.35
509.20	27557.47
509.38	28264.31
509.55	27852.38
509.73	28154.30
509.90	28002.17
510.08	27906.21
510.25	28346.23
510.42	28322.82
510.60	28517.09
510.77	28580.28
510.95	28863.49
511.12	28856.46
511.30	28830.72
511.47	28615.39
511.64	29102.22
511.82	29034.35
511.99	29221.59
512.17	29188.82
512.34	29113.92
512.51	29490.75
512.69	29567.99
512.86	29624.16
513.04	29453.30
513.21	29989.28
513.38	29788.00
513.56	30132.06
513.73	29883.96
513.90	29855.87
514.08	29797.36
514.25	30281.85
514.43	30277.17
514.60	30122.69
514.77	29998.65
514.95	30567.40
515.12	30419.94
515.29	30520.59
515.47	30976.99
515.64	30700.81
515.81	30562.72
515.99	30630.59
516.16	31150.19
516.33	30761.66
516.51	30883.37
516.68	30569.74
516.85	30944.22
517.03	31370.20
517.20	31431.05
517.37	31028.48
517.54	31489.57
517.72	31630.00
517.89	31622.98
518.06	31831.29
518.24	32060.66
518.41	31653.40
518.58	31791.50
518.75	32037.25
518.93	31819.58
519.10	32013.85
519.27	32402.38
519.45	32023.21
519.62	32353.23
519.79	32292.37
519.96	32299.39
520.14	32161.30
520.31	32065.34
520.48	32294.71
520.65	32540.47
520.83	32673.88
521.00	32907.93
521.17	32943.04
521.34	33125.60
521.52	32978.15
521.69	32844.74
521.86	33371.36
522.03	33617.11
522.20	33383.06
522.38	33687.33
522.55	33759.89
522.72	33649.88
522.89	33769.25
523.07	34206.93
523.24	33649.88
523.41	33785.63
523.58	33607.75
523.75	33715.42
523.92	33986.92
524.10	34120.33
524.27	34279.49
524.44	34286.51
524.61	34256.08
524.78	34085.22
524.96	34623.54
525.13	34408.22
525.30	34560.35
525.47	34759.30
525.64	34527.58
525.81	34527.58
525.98	34450.35
526.16	34916.11
526.33	34616.52
526.50	35126.76
526.67	35042.50
526.84	34679.72
527.01	35175.91
527.18	35431.03
527.36	35175.91
527.53	35157.19
527.70	35349.11
527.87	35721.26
528.04	35360.81
528.21	35400.60
528.38	35578.48
528.55	35496.56
528.72	35704.87
528.89	36114.47
529.07	35349.11
529.24	35606.57
529.41	36226.81
529.58	35372.52
529.75	35676.79
529.92	36051.27
530.09	36002.12
530.26	36004.46
530.43	36175.32
530.60	35887.43
530.77	36311.07
530.94	36652.79
531.11	36229.15
531.28	36280.64
531.46	36411.71
531.63	36664.49
531.80	36460.87
531.97	36917.27
532.14	37010.89
532.31	36825.99
532.48	37111.53
532.65	37144.30
532.82	36957.06
532.99	36886.84
533.16	36835.35
533.33	37284.73
533.50	37167.71
533.67	37635.81
533.84	36863.44
534.01	37493.04
534.18	37303.46
534.35	37633.47
534.52	37539.85
534.69	37916.68
534.86	37837.10
535.03	37612.41
535.20	37617.09
535.37	37975.19
535.54	37769.22
535.71	37460.27
535.88	37947.11
536.05	38087.54
536.22	38113.28
536.38	37867.53
536.55	38405.85
536.72	38480.75
536.89	38113.28
537.06	37916.68
537.23	38506.49
537.40	37816.04
537.57	38071.15
537.74	38033.71
537.91	38600.12
538.08	38588.41
538.25	38043.07
538.42	38918.43
538.59	39108.01
538.75	38766.29
538.92	38595.43
539.09	38859.91
539.26	39061.20
539.43	38719.48
539.60	38742.89
539.77	39103.33
539.94	38782.68
540.11	39269.51
540.28	39215.68
540.44	38866.94
540.61	39234.40
540.78	38616.50
540.95	38990.98
541.12	38866.94
541.29	39014.39
541.46	39468.45
541.62	39672.08
541.79	39871.03
541.96	39096.31
542.13	39215.68
542.30	39618.25
542.47	39636.97
542.63	39931.88
542.80	39777.40
542.97	40013.80
543.14	40369.56
543.31	40020.82
543.48	39917.84
543.64	40566.16
543.81	40414.03
543.98	40191.68
544.15	40657.45
544.32	40589.57
544.48	40509.99
544.65	40336.79
544.82	40591.91
544.99	40851.71
545.16	40624.68
545.32	40549.78
545.49	40713.62
545.66	40898.52
545.83	40416.37
546.00	40957.03
546.16	40781.49
546.33	40786.18
546.50	40549.78
546.67	41076.40
546.83	40477.22
547.00	41092.79
547.17	40704.26
547.34	41280.03
547.50	41160.66
547.67	41392.37
547.84	41181.73
548.00	41188.75
548.17	41474.29
548.34	41490.68
548.51	41551.53
548.67	41394.71
548.84	41354.93
549.01	41317.48
549.18	41610.04
549.34	41834.74
549.51	41743.45
549.68	41904.95
549.84	41837.08
550.01	41715.37
550.18	41780.90
550.34	42227.95
550.51	41965.81
550.68	42082.83
550.84	41844.10
551.01	42021.98
551.18	41745.80
551.34	41993.89
551.51	42143.69
551.68	42108.58
551.84	42239.65
552.01	42230.29
552.18	42288.80
552.34	41879.21
552.51	42387.10
552.68	42227.95
552.84	42522.85
553.01	42490.09
553.18	42564.98
553.34	42499.45
553.51	42476.04
553.67	42316.89
553.84	42412.85
554.01	43337.36
554.17	42646.90
554.34	42777.97
554.51	42419.87
554.67	42689.03
554.84	43035.43
555.00	42892.66
555.17	42684.35
555.33	42539.24
555.50	42902.02
555.67	42710.10
555.83	42780.31
556.00	43227.35
556.16	43620.56
556.33	42962.87
556.50	43051.81
556.66	43297.57
556.83	42932.45
556.99	42806.06
557.16	43124.37
557.32	43470.77
557.49	43466.09
557.65	42955.85
557.82	42960.53
557.98	43281.19
558.15	42799.04
558.32	43213.31
558.48	43063.52
558.65	43246.08
558.81	43107.99
558.98	42925.42
559.14	43292.89
559.31	43515.24
559.47	43763.34
559.64	43496.52
559.80	43531.62
559.97	43971.64
560.13	43491.83
560.30	43548.01
560.46	43744.61
560.63	43791.42
560.79	43948.24
560.96	43711.84
561.12	43803.13
561.29	43868.66
561.45	44315.70
561.61	43899.09
561.78	43629.93
561.94	43562.05
562.11	43997.39
562.27	43690.78
562.44	44027.82
562.60	44320.38
562.77	44062.93
562.93	43789.08
563.10	44374.22
563.26	43934.20
563.42	44495.92
563.59	43753.97
563.75	44130.80
563.92	44137.82
564.08	44271.23
564.24	44186.97
564.41	44406.98
564.57	43688.44
564.74	44182.29
564.90	44151.87
565.07	43777.38
565.23	44165.91
565.39	44067.61
565.56	44568.48
565.72	44318.04
565.88	44697.21
566.05	44662.10
566.21	44589.55
566.38	43913.13
566.54	44311.02
566.70	44634.02
566.87	44694.87
567.03	44495.92
567.19	44692.53
567.36	44378.90
567.52	44493.58
567.68	44907.86
567.85	44978.07
568.01	44804.88
568.17	44107.40
568.34	44545.08
568.50	44392.94
568.66	44444.43
568.83	44926.58
568.99	44598.91
569.15	44994.46
569.32	44502.95
569.48	44559.12
569.64	45359.58
569.81	44964.03
569.97	44795.51
570.13	45015.52
570.30	44463.16
570.46	45102.12
570.62	44701.89
570.78	44664.44
570.95	44502.95
571.11	45015.52
571.27	44414.01
571.43	44664.44
571.60	44772.11
571.76	44825.94
571.92	44680.83
572.09	45284.68
572.25	44823.60
572.41	44568.48
572.57	44739.34
572.74	45270.64
572.90	45544.48
573.06	45221.49
573.22	45020.20
573.38	45256.60
573.55	45235.53
573.71	45258.94
573.87	45137.23
574.03	44942.97
574.20	45188.72
574.36	45481.29
574.52	45530.44
574.68	45336.18
574.84	45277.66
575.01	45172.34
575.17	45064.67
575.33	45329.16
575.49	45418.10
575.65	45401.71
575.82	45422.78
575.98	45146.59
576.14	45532.78
576.30	45294.05
576.46	44945.31
576.62	45368.94
576.79	45422.78
576.95	44575.50
577.11	45275.32
577.27	45233.19
577.43	44938.29
577.59	45485.97
577.75	44875.09
577.92	44971.05
578.08	44847.00
578.24	45130.21
578.40	45511.72
578.56	45280.00
578.72	45525.76
578.88	45226.17
579.04	45595.98
579.21	45261.28
579.37	45230.85
579.53	45628.74
579.69	45450.86
579.85	45120.85
580.01	45586.61
580.17	45390.01
580.33	45544.48
580.49	45141.91
580.65	45476.61
580.82	45385.33
580.98	45343.20
581.14	45099.78
581.30	45102.12
581.46	45247.24
581.62	45647.47
581.78	44903.18
581.94	45570.23
582.10	45537.46
582.26	45748.11
582.42	45626.40
582.58	45298.73
582.74	45500.01
582.90	45146.59
583.06	45792.58
583.22	45303.41
583.38	45244.90
583.54	45743.43
583.70	45186.38
583.86	45523.42
584.02	45427.46
584.18	45858.12
584.34	45680.24
584.50	45661.51
584.66	45881.52
584.82	45883.86
584.98	46241.96
585.14	45986.85
585.30	45361.92
585.46	45525.76
585.62	45212.13
585.78	45523.42
585.94	45446.18
586.10	45170.00
586.26	45303.41
586.42	45233.19
586.58	45635.77
586.74	45439.16
586.90	45280.00
587.06	45111.49
587.22	45734.07
587.38	45586.61
587.54	45645.13
587.70	45696.62
587.86	45666.19
588.02	45771.52
588.18	45902.59
588.34	45492.99
588.49	45612.36
588.65	45371.28
588.81	46150.68
588.97	45677.90
589.13	45488.31
589.29	45078.72
589.45	46146.00
589.61	45687.26
589.77	45649.81
589.93	45694.28
590.08	46103.87
590.24	46288.77
590.40	46174.09
590.56	45523.42
590.72	46218.56
590.88	45701.30
591.04	45844.07
591.20	46167.07
591.35	45904.93
591.51	46358.99
591.67	46300.48
591.83	46394.10
591.99	46024.29
592.15	45970.46
592.31	46256.01
592.46	46012.59
592.62	46043.02
592.78	46302.82
592.94	46223.24
593.10	46232.60
593.26	46525.17
593.41	46366.01
593.57	46202.18
593.73	46347.29
593.89	46590.70
594.05	46581.34
594.20	46391.76
594.36	46742.84
594.52	46609.43
594.68	46244.30
594.84	45783.22
594.99	46473.68
595.15	46375.37
595.31	46117.92
595.47	46244.30
595.62	46536.87
595.78	46316.86
595.94	46188.13
596.10	46438.57
596.25	46246.65
596.41	46447.93
596.57	46270.05
596.73	46827.10
596.88	46506.44
597.04	46464.32
597.20	46431.55
597.36	46162.39
597.51	46192.81
597.67	46176.43
597.83	46277.07
597.99	46630.49
598.14	46248.99
598.30	46316.86
598.46	46447.93
598.61	46621.13
598.77	46621.13
598.93	46738.16
599.09	46408.14
599.24	46623.47
599.40	46536.87
599.56	46366.01
599.71	46602.41
599.87	46553.26
600.03	46813.05
600.18	46710.07
600.34	46358.99
600.50	46464.32
600.65	46335.59
600.81	46583.68
600.97	46817.74
601.12	46658.58
601.28	46244.30
601.44	46553.26
601.59	46494.74
601.75	46686.67
601.91	46719.43
602.06	46138.98
602.22	46550.91
602.37	46440.91
602.53	46461.97
602.69	46759.22
602.84	46663.26
603.00	46974.55
603.16	46571.98
603.31	46328.56
603.47	46621.13
603.62	46450.27
603.78	46660.92
603.94	46344.95
604.09	46251.33
604.25	46349.63
604.40	46546.23
604.56	46604.75
604.71	46628.15
604.87	45963.44
605.03	46405.80
605.18	46326.22
605.34	46270.05
605.49	46340.27
605.65	45972.80
605.80	46178.77
605.96	46146.00
606.12	45984.51
606.27	46403.46
606.43	46195.15
606.58	46731.14
606.74	46541.55
606.89	46248.99
607.05	46658.58
607.20	46160.05
607.36	46415.16
607.51	46218.56
607.67	46412.82
607.82	46036.00
607.98	46078.13
608.13	45961.10
608.29	46043.02
608.44	46146.00
608.60	46131.96
608.75	46138.98
608.91	46321.54
609.06	46185.79
609.22	46246.65
609.37	45762.15
609.53	46323.88
609.68	46391.76
609.84	46272.39
609.99	46494.74
610.15	46216.22
610.30	46176.43
610.46	46375.37
610.61	46248.99
610.76	46478.36
610.92	45996.21
611.07	46007.91
611.23	45977.48
611.38	46209.20
611.54	45876.84
611.69	46256.01
611.84	46342.61
612.00	45965.78
612.15	45949.40
612.31	46274.73
612.46	45640.45
612.62	45881.52
612.77	45944.72
612.92	46005.57
613.08	45956.42
613.23	46178.77
613.39	45769.18
613.54	45595.98
613.69	46241.96
613.85	45680.24
614.00	45778.54
614.15	45876.84
614.31	45375.97
614.46	45244.90
614.62	45495.33
614.77	45799.60
614.92	45694.28
615.08	45736.41
615.23	45893.22
615.38	45801.94
615.54	45689.60
615.69	45907.27
615.84	45897.91
616.00	46260.69
616.15	45792.58
616.30	45715.34
616.46	45631.08
616.61	45572.57
616.76	45727.05
616.92	45839.39
617.07	45270.64
617.22	45638.11
617.37	45509.38
617.53	45343.20
617.68	45401.71
617.83	45078.72
617.99	45748.11
618.14	45603.00
618.29	45518.74
618.45	44924.24
618.60	45074.04
618.75	45104.46
618.90	45223.83
619.06	44996.80
619.21	45371.28
619.36	45134.89
619.51	45074.04
619.67	44996.80
619.82	45116.17
619.97	45605.34
620.12	45048.29
620.28	45036.59
620.43	45153.62
620.58	44863.39
620.73	45434.48
620.89	45565.55
621.04	45294.05
621.19	44835.30
621.34	45059.99
621.49	44641.04
621.65	45284.68
621.80	44868.07
621.95	44671.46
622.10	44884.45
622.25	44561.46
622.41	45055.31
622.56	44474.86
622.71	45010.84
622.86	44858.71
623.01	44657.42
623.16	45078.72
623.32	44835.30
623.47	45064.67
623.62	44554.44
623.77	44903.18
623.92	44170.59
624.07	44680.83
624.23	44685.51
624.38	44947.65
624.53	44622.31
624.68	44322.72
624.83	44612.95
624.98	44339.11
625.13	43927.17
625.29	44280.60
625.44	44453.79
625.59	44561.46
625.74	44140.16
625.89	44425.71
626.04	44172.93
626.19	44374.22
626.34	44177.61
626.49	43604.18
626.65	44091.01
626.80	44158.89
626.95	43665.03
627.10	43973.98
627.25	44083.99
627.40	44488.90
627.55	43856.96
627.70	43821.85
627.85	44524.01
628.00	44041.86
628.15	44346.13
628.30	43716.53
628.45	43723.55
628.60	43620.56
628.76	43428.64
628.91	43400.55
629.06	43840.57
629.21	43852.28
629.36	43496.52
629.51	43503.54
629.66	43833.55
629.81	43639.29
629.96	43728.23
630.11	43943.56
630.26	43639.29
630.41	43924.83
630.56	43782.06
630.71	43515.24
630.86	43753.97
631.01	43016.71
631.16	43208.63
631.31	43349.06
631.46	43304.59
631.61	43234.38
631.76	43370.13
631.91	43756.32
632.06	43999.73
632.21	43100.97
632.36	43510.56
632.51	42564.98
632.66	43290.55
632.81	43332.68
632.96	43686.10
633.10	43384.17
633.25	43105.65
633.40	43117.35
633.55	43150.12
633.70	42909.04
633.85	42927.77
634.00	42944.15
634.15	42808.40
634.30	42782.65
634.45	42904.36
634.60	42960.53
634.75	42792.01
634.90	43267.14
635.05	43065.86
635.19	43044.79
635.34	42880.95
635.49	42794.36
635.64	42473.70
635.79	43093.94
635.94	42822.44
636.09	42862.23
636.24	42546.26
636.39	42990.96
636.53	42836.48
636.68	42396.46
636.83	42520.51
636.98	42417.53
637.13	42120.28
637.28	42241.99
637.43	42202.20
637.57	42356.67
637.72	41954.10
637.87	42342.63
638.02	42747.54
638.17	42148.37
638.32	42033.68
638.46	41588.98
638.61	41806.65
638.76	42155.39
638.91	42735.84
639.06	41876.86
639.20	41764.52
639.35	41759.84
639.50	42014.96
639.65	41979.85
639.80	42241.99
639.94	42546.26
640.09	41694.30
640.24	42314.55
640.39	41652.17
640.54	41642.81
640.68	42188.16
640.83	42473.70
640.98	41722.39
641.13	41612.38
641.27	41918.99
641.42	41806.65
641.57	41247.26
641.72	41593.66
641.86	41567.91
642.01	41525.78
642.16	41191.09
642.31	41387.69
642.45	41956.44
642.60	40989.80
642.75	41769.20
642.90	42050.06
643.04	41539.83
643.19	41715.37
643.34	41303.43
643.48	41081.08
643.63	41310.46
643.78	41383.01
643.93	41528.13
644.07	41727.07
644.22	41497.70
644.37	40947.67
644.51	41265.99
644.66	41034.27
644.81	41544.51
644.95	40945.33
645.10	41277.69
645.25	40786.18
645.39	40797.88
645.54	41099.81
645.69	40758.09
645.83	40694.89
645.98	40832.99
646.13	40811.92
646.27	40837.67
646.42	40577.87
646.57	40800.22
646.71	40999.16
646.86	41050.66
647.00	41184.07
647.15	41001.50
647.30	40961.72
647.44	40844.69
647.59	40840.01
647.74	40727.66
647.88	40517.01
648.03	40882.14
648.17	41219.17
648.32	40985.12
648.47	40893.84
648.61	40411.69
648.76	40531.06
648.90	40350.84
649.05	40367.22
649.20	40678.51
649.34	40905.54
649.49	40542.76
649.63	40582.55
649.78	40893.84
649.92	41024.91
650.07	40587.23
650.21	40676.17
650.36	40737.02
650.51	40308.71
650.65	40495.95
650.80	40622.34
650.94	40341.47
651.09	40273.60
651.23	39901.45
651.38	39728.25
651.52	39849.96
651.67	40210.40
651.81	40282.96
651.96	39988.05
652.10	39798.47
652.25	39859.32
652.39	40016.14
652.54	39920.18
652.68	39756.34
652.83	39636.97
652.97	40119.12
653.12	40144.87
653.26	39819.53
653.41	39473.13
653.55	40222.11
653.70	39768.04
653.84	39838.26
653.99	40027.84
654.13	40268.92
654.27	39852.30
654.42	39896.77
654.56	39665.06
654.71	39234.40
654.85	39765.70
655.00	39599.52
655.14	39814.85
655.29	39859.32
655.43	40170.61
655.57	39351.43
655.72	39611.23
655.86	39550.37
656.01	39496.54
656.15	39335.04
656.30	39681.44
656.44	39072.90
656.58	39400.58
656.73	39318.66
656.87	38801.40
657.01	39000.35
657.16	39367.81
657.30	39379.51
657.45	39175.89
657.59	38960.56
657.73	38939.49
657.88	38988.64
658.02	39409.94
658.16	39337.38
658.31	38948.85
658.45	39049.50
658.60	39182.91
658.74	39077.58
658.88	39311.64
659.03	38873.96
659.17	38511.17
659.31	38623.52
659.46	38110.94
659.60	38916.09
659.74	38705.44
659.89	38314.57
660.03	38120.31
660.17	38345.00
660.32	38270.10
660.46	38609.48
660.60	37923.70
660.74	38497.13
660.89	38108.60
661.03	38272.44
661.17	37794.97
661.32	37596.03
661.46	37919.02
661.60	37888.59
661.74	37612.41
661.89	37745.82
662.03	38143.71
662.17	37469.64
662.31	37589.00
662.46	38150.73
662.60	37516.45
662.74	37464.96
662.88	37368.99
663.03	37097.49
663.17	37146.64
663.31	37221.54
663.45	37394.74
663.60	37610.07
663.74	37099.83
663.88	37125.58
664.02	36825.99
664.17	36924.29
664.31	37174.73
664.45	36521.72
664.59	36950.04
664.73	36568.53
664.88	37127.92
665.02	36222.13
665.16	36779.18
665.30	36971.10
665.44	36503.00
665.59	36257.24
665.73	36282.98
665.87	35915.52
666.01	36294.69
666.15	36650.45
666.29	36505.34
666.44	36334.48
666.58	36463.21
666.72	35910.84
666.86	36034.89
667.00	35887.43
667.14	36020.84
667.28	35924.88
667.43	35833.60
667.57	36180.00
667.71	35817.22
667.85	36041.91
667.99	35798.49
668.13	35302.30
668.27	35828.92
668.41	35789.13
668.56	35035.48
668.70	35077.61
668.84	35178.25
668.98	34778.02
669.12	35269.53
669.26	35002.71
669.40	35047.18
669.54	35182.93
669.68	35243.79
669.82	34873.98
669.96	34789.72
670.10	34637.59
670.25	34827.17
670.39	34286.51
670.53	34260.76
670.67	34569.71
670.81	35166.55
670.95	34824.83
671.09	34639.93
671.23	34160.12
671.37	34352.04
671.51	34007.98
671.65	34316.93
671.79	34059.48
671.93	34323.96
672.07	34171.82
672.21	33883.94
672.35	33717.76
672.49	33755.21
672.63	34052.45
672.77	33432.21
672.91	33692.01
673.05	33462.64
673.19	33078.79
673.33	32964.10
673.47	32959.42
673.61	33015.60
673.75	32938.36
673.89	32917.29
674.03	32638.77
674.17	32559.19
674.31	32636.43
674.45	32535.79
674.59	32381.31
674.73	32458.55
674.87	32528.77
675.01	32102.79
675.15	32154.28
675.29	31955.33
675.43	31882.78
675.56	32098.11
675.70	31817.24
675.84	31793.84
675.98	30836.56
676.12	31756.39
676.26	31732.98
676.40	31484.89
676.54	31274.24
676.68	31157.21
676.82	30473.78
676.96	31005.08
677.10	31349.14
677.23	31215.72
677.37	30979.33
677.51	30930.18
677.65	30394.20
677.79	30560.37
677.93	30909.11
678.07	30485.48
678.21	30139.08
678.34	30380.15
678.48	30253.76
678.62	30036.09
678.76	29855.87
678.90	29799.70
679.04	30199.93
679.18	29687.36
679.31	29670.97
679.45	29394.79
679.59	29165.42
679.73	29460.32
679.87	29191.16
680.00	29415.85
680.14	29118.60
680.28	29165.42
680.42	28907.96
680.56	28816.68
680.70	28297.08
680.83	28671.56
680.97	28524.11
681.11	28596.67
681.25	28294.74
681.39	27971.74
681.52	27880.46
681.66	28151.96
681.80	27552.79
681.94	27115.11
682.07	27576.19
682.21	27683.86
682.35	27412.35
682.49	27316.39
682.62	27323.41
682.76	27728.33
682.90	27173.62
683.04	27117.45
683.17	27332.78
683.31	26878.71
683.45	26658.70
683.59	26300.60
683.72	26368.48
683.86	26106.34
684.00	25977.61
684.13	26288.90
684.27	26129.74
684.41	25944.84
684.55	26043.14
684.68	26134.42
684.82	25933.14
684.96	25612.48
685.09	25832.49
685.23	25612.48
685.37	25949.52
685.50	25804.41
685.64	25586.74
685.78	25158.42
685.91	25172.46
686.05	24884.58
686.19	24292.42
686.32	24669.25
686.46	24245.61
686.60	24549.88
686.73	24680.95
686.87	24510.09
687.01	24416.47
687.14	24334.55
687.28	24498.39
687.42	24208.16
687.55	24163.69
687.69	23995.17
687.82	23697.92
687.96	23793.89
688.10	24067.73
688.23	23529.41
688.37	23639.41
688.50	23819.63
688.64	23538.77
688.78	23381.95
688.91	23293.01
689.05	23410.04
689.18	22789.80
689.32	22302.96
689.46	22658.73
689.59	22757.03
689.73	23115.13
689.86	22876.40
690.00	22621.28
690.13	22551.06
690.27	22366.16
690.41	22361.48
690.54	21905.07
690.68	21839.54
690.81	22019.76
690.95	21912.10
691.08	22171.89
691.22	21666.34
691.35	21291.85
691.49	21549.31
691.62	21549.31
691.76	21130.36
691.89	21179.51
692.03	20943.11
692.16	20657.57
692.30	20898.64
692.43	20680.97
692.57	20446.92
692.70	20886.94
692.84	20812.04
692.97	20285.42
693.11	20144.99
693.24	20147.33
693.38	19803.27
693.51	19950.73
693.65	20086.48
693.78	19854.76
693.92	19896.89
694.05	19564.54
694.19	19681.56
694.32	19655.82
694.45	19934.34
694.59	19822.00
694.72	19737.74
694.86	19442.83
694.99	19236.86
695.13	19096.43
695.26	18923.23
695.39	18611.94
695.53	18703.22
695.66	18986.43
695.80	18782.80
695.93	18602.58
696.07	18080.64
696.20	18155.54
696.33	18326.39
696.47	18122.77
696.60	17998.72
696.73	17989.36
696.87	18181.28
697.00	18183.62
697.14	17715.51
697.27	17745.94
697.40	17944.89
697.54	17682.75
697.67	17575.08
697.80	17228.68
697.94	17455.72
698.07	17078.89
698.21	17219.32
698.34	17165.49
698.47	17015.69
698.61	16652.91
698.74	17015.69
698.87	16730.15
699.01	16360.34
699.14	16783.98
699.27	16414.18
699.40	16603.76
699.54	16259.70
699.67	16245.66
699.80	16044.37
699.94	16322.90
700.07	16027.99
700.20	15941.39
700.34	15964.79
700.47	15899.26
700.60	15955.43
700.73	15943.73
700.87	15651.16
701.00	15279.02
701.13	15606.69
701.26	15461.58
701.40	15424.13
701.53	15267.31
701.66	15470.94
701.79	15183.06
701.93	14970.07
702.06	14874.10
702.19	14960.70
702.32	15080.07
702.46	14799.21
702.59	14953.68
702.72	14883.47
702.85	14958.36
702.99	14752.40
703.12	14497.28
703.25	14363.87
703.38	14345.14
703.51	14441.11
703.65	14251.52
703.78	13848.95
703.91	13958.96
704.04	14066.62
704.17	13504.89
704.31	13642.98
704.44	13774.05
704.57	13841.93
704.70	13816.18
704.83	13514.25
704.96	13446.38
705.10	13394.89
705.23	13411.27
>>>>>End Processed Spectral Data<<<<<
