SpectraSuite Data File
++++++++++++++++++++++++++++++++++++
Date: Fri Oct 25 10:43:13 EDT 2013
User: price-jones
Dark Spectrum Present: No
Reference Spectrum Present: No
Number of Sampled Component Spectra: 1
Spectrometers: USB2+H05261
Integration Time (usec): 100000 (USB2+H05261)
Spectra Averaged: 1 (USB2+H05261)
Boxcar Smoothing: 0 (USB2+H05261)
Correct for Electrical Dark: No (USB2+H05261)
Strobe/Lamp Enabled: No (USB2+H05261)
Correct for Detector Non-linearity: No (USB2+H05261)
Correct for Stray Light: No (USB2+H05261)
Number of Pixels in Processed Spectrum: 2048
>>>>>Begin Processed Spectral Data<<<<<
365.73	86.60
365.92	86.60
366.12	86.60
366.32	0.00
366.52	0.00
366.72	32.77
366.91	0.00
367.11	35.11
367.31	37.45
367.51	16.38
367.70	18.72
367.90	37.45
368.10	7.02
368.30	30.43
368.49	46.81
368.69	16.38
368.89	102.98
369.09	46.81
369.28	0.00
369.48	4.68
369.68	39.79
369.87	93.62
370.07	63.19
370.27	128.73
370.47	163.84
370.66	376.83
370.86	423.64
371.06	472.79
371.25	538.32
371.45	526.62
371.65	468.11
371.84	390.87
372.04	449.38
372.24	489.17
372.44	489.17
372.63	538.32
372.83	533.64
373.03	496.19
373.22	491.51
373.42	524.28
373.62	470.45
373.81	540.66
374.01	512.58
374.21	526.62
374.40	566.41
374.60	517.26
374.79	566.41
374.99	566.41
375.19	582.79
375.38	538.32
375.58	592.16
375.78	582.79
375.97	650.67
376.17	706.84
376.37	610.88
376.56	681.10
376.76	615.56
376.95	603.86
377.15	634.29
377.35	599.18
377.54	582.79
377.74	587.47
377.93	559.39
378.13	592.16
378.33	763.01
378.52	601.52
378.72	578.11
378.91	711.52
379.11	594.50
379.31	718.54
379.50	622.58
379.70	741.95
379.89	601.52
380.09	751.31
380.28	744.29
380.48	732.59
380.68	676.41
380.87	671.73
381.07	641.31
381.26	702.16
381.46	582.79
381.65	655.35
381.85	751.31
382.04	674.07
382.24	746.63
382.43	692.80
382.63	655.35
382.83	676.41
383.02	730.25
383.22	711.52
383.41	774.72
383.61	699.82
383.80	821.53
384.00	739.61
384.19	835.57
384.39	734.93
384.58	863.66
384.78	765.36
384.97	734.93
385.17	760.67
385.36	760.67
385.56	772.38
385.75	727.91
385.95	844.93
386.14	814.51
386.34	849.61
386.53	814.51
386.72	833.23
386.92	812.17
387.11	849.61
387.31	922.17
387.50	798.12
387.70	870.68
387.89	938.55
388.09	919.83
388.28	851.96
388.48	901.11
388.67	894.08
388.86	976.00
389.06	908.13
389.25	1078.99
389.45	961.96
389.64	938.55
389.84	964.30
390.03	992.39
390.22	1001.75
390.42	950.26
390.61	980.68
390.81	1020.47
391.00	1027.50
391.19	1008.77
391.39	1013.45
391.58	1062.60
391.78	1118.78
391.97	1027.50
392.16	933.87
392.36	1135.16
392.55	971.32
392.75	959.62
392.94	912.81
393.13	938.55
393.33	968.98
393.52	1048.56
393.71	1125.80
393.91	1048.56
394.10	1076.65
394.29	1107.07
394.49	1144.52
394.68	1219.42
394.88	1156.22
395.07	1287.29
395.26	1224.10
395.46	1249.85
395.65	1324.74
395.84	1146.86
396.04	1228.78
396.23	1240.48
396.42	1132.82
396.62	1221.76
396.81	1158.57
397.00	1170.27
397.19	1188.99
397.39	1301.34
397.58	1289.64
397.77	1310.70
397.97	1350.49
398.16	1432.41
398.35	1446.45
398.55	1301.34
398.74	1526.03
398.93	1453.47
399.12	1490.92
399.32	1481.56
399.51	1540.07
399.70	1479.22
399.90	1490.92
400.09	1586.88
400.28	1675.82
400.47	1710.93
400.67	1603.27
400.86	1582.20
401.05	1689.87
401.24	1645.40
401.44	1610.29
401.63	1605.61
401.82	1636.03
402.01	1706.25
402.21	1664.12
402.40	1771.79
402.59	1724.97
402.78	1652.42
402.97	1746.04
403.17	1774.13
403.36	1736.68
403.55	1781.15
403.74	1820.94
403.93	1926.26
404.13	1893.49
404.32	1926.26
404.51	1916.90
404.70	1837.32
404.89	1858.39
405.09	1874.77
405.28	1998.82
405.47	1930.94
405.66	2019.88
405.85	1998.82
406.05	2003.50
406.24	2001.16
406.43	2064.35
406.62	2017.54
406.81	2076.06
407.00	2069.03
407.20	1968.39
407.39	2083.08
407.58	2183.72
407.77	2211.81
407.96	2235.21
408.15	2216.49
408.34	2258.62
408.54	2265.64
408.73	2237.55
408.92	2169.68
409.11	2333.51
409.30	2286.70
409.49	2193.08
409.68	2312.45
409.87	2162.66
410.07	2289.04
410.26	2300.75
410.45	2401.39
410.64	2333.51
410.83	2427.14
411.02	2452.88
411.21	2541.82
411.40	2572.25
411.59	2586.29
411.78	2780.56
411.98	2581.61
412.17	2607.36
412.36	2609.70
412.55	2633.10
412.74	2813.32
412.93	2764.17
413.12	2729.06
413.31	2848.43
413.50	2700.98
413.69	2778.22
413.88	2925.67
414.07	2839.07
414.26	2848.43
414.45	2928.01
414.64	2972.48
414.83	2946.73
415.02	2960.78
415.22	3103.55
415.41	3124.62
415.60	3073.12
415.79	3180.79
415.98	3220.58
416.17	3218.24
416.36	3164.40
416.55	3274.41
416.74	3335.26
416.93	3208.87
417.12	3295.47
417.31	3351.65
417.50	3318.88
417.69	3459.31
417.88	3384.41
418.07	3351.65
418.26	3332.92
418.45	3471.01
418.64	3611.45
418.83	3494.42
419.02	3503.78
419.21	3545.91
419.39	3569.32
419.58	3492.08
419.77	3639.53
419.96	3660.60
420.15	3719.11
420.34	3676.98
420.53	3681.66
420.72	3735.50
420.91	3747.20
421.10	3889.97
421.29	3803.37
421.48	3758.90
421.67	3878.27
421.86	3775.28
422.05	3756.56
422.24	3695.71
422.43	3728.47
422.61	3885.29
422.80	3871.25
422.99	3824.44
423.18	3770.60
423.37	3878.27
423.56	3847.84
423.75	3817.41
423.94	3716.77
424.13	3639.53
424.32	3840.82
424.50	3899.33
424.69	3922.74
424.88	4058.49
425.07	3758.90
425.26	3967.21
425.45	3918.06
425.64	3925.08
425.83	3864.22
426.01	3899.33
426.20	3976.57
426.39	3976.57
426.58	3953.16
426.77	3796.35
426.96	3906.35
427.15	3995.29
427.33	4091.26
427.52	4067.85
427.71	3978.91
427.90	4187.22
428.09	4194.24
428.28	4102.96
428.46	4142.75
428.65	4248.07
428.84	4210.62
429.03	4259.78
429.22	4138.07
429.40	4227.01
429.59	4032.74
429.78	3920.40
429.97	3941.46
430.16	3974.23
430.34	4051.47
430.53	4021.04
430.72	4245.73
430.91	4194.24
431.10	4301.90
431.28	4358.08
431.47	4699.80
431.66	4645.96
431.85	4390.84
432.03	4624.90
432.22	4542.98
432.41	4365.10
432.60	4613.20
432.79	4667.03
432.97	4692.77
433.16	4674.05
433.35	4727.88
433.54	4629.58
433.72	4706.82
433.91	4615.54
434.10	4692.77
434.28	4723.20
434.47	4851.93
434.66	4922.15
434.85	4718.52
435.03	4947.89
435.22	4863.63
435.41	5048.54
435.59	4863.63
435.78	5029.81
435.97	5238.12
436.16	5093.01
436.34	5102.37
436.53	5060.24
436.72	5224.08
436.90	4950.23
437.09	5116.41
437.28	5074.28
437.46	5097.69
437.65	5153.86
437.84	5062.58
438.02	5163.22
438.21	5088.32
438.40	5041.51
438.58	5313.02
438.77	5301.31
438.96	5366.85
439.14	5645.37
439.33	5533.03
439.52	5518.98
439.70	5518.98
439.89	5469.83
440.08	5518.98
440.26	5727.29
440.45	5633.67
440.63	5900.49
440.82	6008.16
441.01	5888.79
441.19	5942.62
441.38	6029.22
441.57	6047.94
441.75	6179.01
441.94	6216.46
442.12	6223.48
442.31	6274.98
442.50	6244.55
442.68	6394.34
442.87	6127.52
443.05	6174.33
443.24	6399.02
443.43	6356.90
443.61	6438.81
443.80	6700.95
443.98	6101.78
444.17	6232.85
444.35	6305.40
444.54	6532.44
444.73	6480.94
444.91	6565.20
445.10	6443.49
445.28	6509.03
445.47	6370.94
445.65	6324.13
445.84	6396.68
446.02	6569.88
446.21	6761.81
446.39	6457.54
446.58	6644.78
446.77	6483.28
446.95	6422.43
447.14	6654.14
447.32	6693.93
447.51	6576.91
447.69	6696.27
447.88	6829.68
448.06	6649.46
448.25	6633.08
448.43	6719.68
448.62	6747.76
448.80	6691.59
448.99	6970.12
449.17	6785.21
449.36	6829.68
449.54	6881.18
449.73	6963.09
449.91	7026.29
450.10	7222.89
450.28	7124.59
450.46	7066.08
450.65	7105.87
450.83	7206.51
451.02	7274.38
451.20	7194.81
451.39	7220.55
451.57	7096.50
451.76	7243.96
451.94	7047.35
452.13	7454.61
452.31	7220.55
452.49	7037.99
452.68	7208.85
452.86	7220.55
453.05	7171.40
453.23	7260.34
453.42	7183.10
453.60	7166.72
453.78	7602.06
453.97	7356.30
454.15	7468.65
454.34	7124.59
454.52	7478.01
454.70	7391.41
454.89	7414.82
455.07	7559.93
455.26	7522.48
455.44	7768.24
455.62	7707.38
455.81	7709.72
455.99	7716.75
456.17	7758.88
456.36	7840.79
456.54	7887.61
456.73	7796.32
456.91	7915.69
457.09	8159.11
457.28	8248.05
457.46	7864.20
457.64	8140.38
457.83	8009.31
458.01	7840.79
458.19	8072.51
458.38	8088.89
458.56	8170.81
458.74	8187.19
458.93	8149.75
459.11	8383.80
459.29	8152.09
459.48	8446.99
459.66	8241.03
459.84	8432.95
460.03	8697.43
460.21	8407.20
460.39	8439.97
460.57	8465.72
460.76	8442.31
460.94	8821.48
461.12	8535.93
461.31	8393.16
461.49	8655.30
461.67	8667.00
461.85	8901.06
462.04	8664.66
462.22	9289.59
462.40	8692.75
462.59	8720.84
462.77	8870.63
462.95	8809.78
463.13	8858.93
463.32	9025.11
463.50	8990.00
463.68	9114.05
463.86	9060.21
464.05	8917.44
464.23	8814.46
464.41	8982.98
464.59	8922.12
464.78	9158.52
464.96	9308.31
465.14	8987.66
465.32	9043.83
465.50	9259.16
465.69	9317.67
465.87	9062.55
466.05	9027.45
466.23	9109.36
466.41	9275.54
466.60	9315.33
466.78	9142.13
466.96	9296.61
467.14	9074.26
467.32	9121.07
467.51	9149.15
467.69	9174.90
467.87	9481.51
468.05	9390.23
468.23	9217.03
468.41	9430.02
468.60	9348.10
468.78	9610.24
468.96	9444.06
469.14	9689.82
469.32	9841.95
469.50	9525.98
469.69	9626.62
469.87	9757.69
470.05	9799.82
470.23	9785.78
470.41	9930.89
470.59	9741.31
470.77	9591.52
470.95	9809.19
471.14	9844.29
471.32	9799.82
471.50	10174.31
471.68	10333.47
471.86	10258.57
472.04	10537.09
472.22	10394.32
472.40	10108.77
472.58	10174.31
472.77	10513.69
472.95	10263.25
473.13	10792.21
473.31	10312.40
473.49	10427.09
473.67	10553.48
473.85	10675.18
474.03	10904.56
474.21	11047.33
474.39	10930.30
474.57	10988.82
474.75	11089.46
474.93	11028.60
475.12	11066.05
475.30	11119.89
475.48	10988.82
475.66	10981.79
475.84	11136.27
476.02	11169.04
476.20	11360.96
476.38	11562.25
476.56	11590.33
476.74	11662.89
476.92	11644.17
477.10	11873.54
477.28	12032.69
477.46	11894.60
477.64	12058.44
477.82	12475.06
478.00	12531.23
478.18	12468.03
478.36	12662.30
478.54	12819.11
478.72	12566.34
478.90	12561.66
479.08	12884.65
479.26	13128.06
479.44	12978.27
479.62	13060.19
479.80	13090.62
479.98	13345.73
480.16	13586.81
480.34	13460.42
480.52	13619.58
480.70	13671.07
480.88	13317.65
481.06	13792.78
481.24	13919.17
481.41	14228.12
481.59	14338.12
481.77	14284.29
481.95	14293.65
482.13	14387.27
482.31	14281.95
482.49	14857.72
482.67	14899.85
482.85	14911.55
483.03	14944.32
483.21	15180.71
483.39	15272.00
483.57	15152.63
483.74	15466.26
483.92	15606.69
484.10	15435.83
484.28	15442.85
484.46	15791.59
484.64	16381.41
484.82	15866.49
485.00	16198.85
485.18	16130.97
485.35	16149.70
485.53	15910.96
485.71	15854.79
485.89	16168.42
486.07	16432.90
486.25	16353.32
486.43	16669.30
486.61	16833.13
486.78	17135.06
486.96	17439.33
487.14	17605.51
487.32	17633.60
487.50	17848.93
487.68	18038.51
487.85	18122.77
488.03	18427.04
488.21	18455.12
488.39	18345.12
488.57	18429.38
488.75	18499.59
488.92	18960.68
489.10	19206.44
489.28	19262.61
489.46	19445.17
489.64	19529.43
489.81	20294.79
489.99	20114.56
490.17	19861.79
490.35	20205.84
490.53	20093.50
490.70	19988.18
490.88	20325.21
491.06	20673.95
491.24	20671.61
491.41	20596.71
491.59	20521.82
491.77	20587.35
491.95	20957.16
492.13	21198.23
492.30	21338.66
492.48	21296.53
492.66	21570.38
492.84	21521.23
493.01	22080.61
493.19	21930.82
493.37	22059.55
493.54	22141.47
493.72	22288.92
493.90	22555.74
494.08	22569.79
494.25	23101.09
494.43	22913.84
494.61	23529.41
494.79	23012.15
494.96	23372.59
495.14	23288.33
495.32	23597.28
495.49	23335.14
495.67	23367.91
495.85	24060.71
496.02	24034.96
496.20	24159.01
496.38	24151.99
496.55	24648.18
496.73	24842.45
496.91	24273.70
497.09	24613.07
497.26	24713.72
497.44	24802.66
497.62	25102.25
497.79	25446.30
497.97	24924.36
498.14	25434.60
498.32	25434.60
498.50	25465.03
498.67	25668.66
498.85	25846.54
499.03	26260.81
499.20	25734.19
499.38	25823.13
499.56	26129.74
499.73	26272.51
499.91	26321.66
500.08	26724.24
500.26	26024.42
500.44	26408.26
500.61	26302.94
500.79	26405.92
500.97	26803.82
501.14	27058.93
501.32	26913.82
501.49	26565.08
501.67	27056.59
501.84	27175.96
502.02	27103.40
502.20	27566.83
502.37	27592.58
502.55	27119.79
502.72	27810.25
502.90	27747.05
503.07	27838.33
503.25	28093.45
503.43	27529.38
503.60	27978.76
503.78	27805.56
503.95	28184.73
504.13	27990.47
504.30	28381.34
504.48	28374.31
504.65	28879.87
504.83	28954.77
505.01	28910.30
505.18	28596.67
505.36	29209.89
505.53	29261.38
505.71	29448.62
505.88	29483.73
506.06	29200.52
506.23	29425.22
506.41	29319.89
506.58	29610.12
506.76	29621.82
506.93	29937.79
507.11	29577.35
507.28	29799.70
507.46	29776.30
507.63	29706.08
507.81	29942.47
507.98	29727.14
508.16	29724.80
508.33	30256.11
508.50	30307.60
508.68	30410.58
508.85	31175.94
509.03	31136.15
509.20	30654.00
509.38	30707.83
509.55	30789.75
509.73	30862.30
509.90	30932.52
510.08	31213.38
510.25	30941.88
510.42	31016.78
510.60	31318.71
510.77	31552.76
510.95	31732.98
511.12	31435.74
511.30	31529.36
511.47	31838.31
511.64	32114.49
511.82	32325.14
511.99	32388.33
512.17	31992.78
512.34	32086.40
512.51	31917.89
512.69	32442.17
512.86	32484.30
513.04	32584.94
513.21	32350.88
513.38	32589.62
513.56	32472.59
513.73	32327.48
513.90	32643.45
514.08	32716.01
514.25	32992.19
514.43	33127.94
514.60	32662.18
514.77	33216.88
514.95	33207.52
515.12	33205.18
515.29	33177.09
515.47	33684.99
515.64	33750.52
515.81	33457.96
515.99	33369.02
516.16	33457.96
516.33	33462.64
516.51	33069.43
516.68	32629.41
516.85	32800.27
517.03	33539.88
517.20	33809.04
517.37	33951.81
517.54	33893.30
517.72	34040.75
517.89	33652.22
518.06	33481.36
518.24	33598.39
518.41	33881.60
518.58	34340.34
518.75	34164.80
518.93	34527.58
519.10	34520.56
519.27	34609.50
519.45	35049.52
519.62	35204.00
519.79	35278.89
519.96	34766.32
520.14	35145.48
520.31	35440.39
520.48	35103.35
520.65	35049.52
520.83	35454.44
521.00	35229.74
521.17	35550.40
521.34	35424.01
521.52	35704.87
521.69	35765.73
521.86	35838.28
522.03	35747.00
522.20	35742.32
522.38	35948.29
522.55	36165.96
522.72	36472.57
522.89	36327.45
523.07	36708.96
523.24	36381.29
523.41	36833.01
523.58	36863.44
523.75	36900.89
523.92	36734.71
524.10	36891.52
524.27	36849.39
524.44	36821.31
524.61	37411.12
524.78	36912.59
524.96	36907.91
525.13	37364.31
525.30	37378.36
525.47	37280.05
525.64	37102.17
525.81	37153.66
525.98	37345.59
526.16	36980.46
526.33	36877.48
526.50	37411.12
526.67	36811.95
526.84	37095.15
527.01	36833.01
527.18	37551.56
527.36	37984.55
527.53	37280.05
527.70	37930.72
527.87	38003.28
528.04	37551.56
528.21	38274.78
528.38	38295.85
528.55	38394.15
528.72	38403.51
528.89	38604.80
529.07	38377.76
529.24	37961.15
529.41	38485.43
529.58	38450.32
529.75	38637.56
529.92	38721.82
530.09	38618.84
530.26	39068.22
530.43	39079.92
530.60	38455.00
530.77	39402.92
530.94	39033.11
531.11	38850.55
531.28	38902.04
531.46	38815.44
531.63	38960.56
531.80	39374.83
531.97	38838.85
532.14	39222.70
532.31	38323.93
532.48	39033.11
532.65	39112.69
532.82	39152.48
532.99	39395.90
533.16	39770.38
533.33	39414.62
533.50	39821.87
533.67	40069.97
533.84	39316.32
534.01	39363.13
534.18	39475.48
534.35	40390.62
534.52	39831.24
534.69	40205.72
534.86	40051.25
535.03	40002.10
535.20	40615.32
535.37	40601.27
535.54	40463.18
535.71	40355.52
535.88	40109.76
536.05	40048.91
536.22	40247.85
536.38	40779.15
536.55	40863.41
536.72	39995.07
536.89	39985.71
537.06	40397.65
537.23	40788.52
537.40	40666.81
537.57	40774.47
537.74	40479.57
537.91	41017.89
538.08	41027.25
538.25	40783.83
538.42	40713.62
538.59	40928.95
538.75	40690.21
538.92	40947.67
539.09	41153.64
539.26	41170.02
539.43	41507.06
539.60	41003.85
539.77	40809.58
539.94	41205.13
540.11	41125.55
540.28	41481.31
540.44	41130.23
540.61	41172.36
540.78	41256.62
540.95	40886.82
541.12	41233.22
541.29	40921.93
541.46	41244.92
541.62	41624.09
541.79	41804.31
541.96	41205.13
542.13	41380.67
542.30	41638.13
542.47	41848.78
542.63	41263.64
542.80	41785.58
542.97	41823.03
543.14	42354.33
543.31	41888.57
543.48	42246.67
543.64	42674.99
543.81	42625.84
543.98	42204.54
544.15	42590.73
544.32	42478.38
544.48	42506.47
544.65	42389.44
544.82	42443.27
544.99	42572.00
545.16	42199.86
545.32	42349.65
545.49	42951.17
545.66	42876.27
545.83	42768.61
546.00	42976.92
546.16	42777.97
546.33	42326.25
546.50	42134.32
546.67	42822.44
546.83	42330.93
547.00	42857.55
547.17	42925.42
547.34	42590.73
547.50	42913.72
547.67	43201.61
547.84	43316.29
548.00	43136.07
548.17	43079.90
548.34	43391.19
548.51	43945.90
548.67	43533.96
548.84	43440.34
549.01	42808.40
549.18	43115.01
549.34	43229.69
549.51	43119.69
549.68	43248.42
549.84	43253.10
550.01	43695.46
550.18	43627.59
550.34	43168.84
550.51	43351.40
550.68	43398.21
550.84	43445.02
551.01	43627.59
551.18	43746.95
551.34	43655.67
551.51	43761.00
551.68	43739.93
551.84	43871.00
552.01	43854.62
552.18	44229.10
552.34	43601.84
552.51	43896.75
552.68	43784.40
552.84	43807.81
553.01	43889.73
553.18	43559.71
553.34	43920.15
553.51	44044.20
553.67	43966.96
553.84	44659.76
554.01	44493.58
554.17	44250.17
554.34	44252.51
554.51	44444.43
554.67	44526.35
554.84	44151.87
555.00	44112.08
555.17	43768.02
555.33	44563.80
555.50	44509.97
555.67	44294.64
555.83	44404.64
556.00	44374.22
556.16	44231.44
556.33	44231.44
556.50	44729.98
556.66	44203.36
556.83	44203.36
556.99	44416.35
557.16	44495.92
557.32	44612.95
557.49	44844.66
557.65	44439.75
557.82	44250.17
557.98	44612.95
558.15	44601.25
558.32	44821.26
558.48	44091.01
558.65	44835.30
558.81	45081.06
558.98	44409.32
559.14	44561.46
559.31	44498.26
559.47	44732.32
559.64	44933.60
559.80	45013.18
559.97	45055.31
560.13	44355.49
560.30	44830.62
560.46	45081.06
560.63	44917.22
560.79	45013.18
560.96	45432.14
561.12	44975.73
561.29	44657.42
561.45	44952.33
561.61	45085.74
561.78	44903.18
561.94	44800.19
562.11	44854.03
562.27	45181.70
562.44	44870.41
562.60	44994.46
562.77	45223.83
562.93	45397.03
563.10	45385.33
563.26	45177.02
563.42	45532.78
563.59	45305.75
563.75	44910.20
563.92	45179.36
564.08	45020.20
564.24	45186.38
564.41	45165.32
564.57	44737.00
564.74	45071.70
564.90	45399.37
565.07	45312.77
565.23	45317.45
565.39	45212.13
565.56	45170.00
565.72	44821.26
565.88	44896.16
566.05	45195.74
566.21	45439.16
566.38	45223.83
566.54	45219.15
566.70	45724.71
566.87	45682.58
567.03	45607.68
567.19	45535.12
567.36	45832.37
567.52	45401.71
567.68	45523.42
567.85	44903.18
568.01	45200.43
568.17	45181.70
568.34	45722.37
568.50	44844.66
568.66	45155.96
568.83	45549.17
568.99	45188.72
569.15	45434.48
569.32	45312.77
569.48	45457.88
569.64	45935.35
569.81	45806.62
569.97	45673.21
570.13	45420.44
570.30	45221.49
570.46	44790.83
570.62	45146.59
570.78	44610.61
570.95	44760.40
571.11	45387.67
571.27	45474.27
571.43	44783.81
571.60	45378.31
571.76	45577.25
571.92	45755.13
572.09	45708.32
572.25	45315.11
572.41	45659.17
572.57	45549.17
572.74	45902.59
572.90	45801.94
573.06	45680.24
573.22	45659.17
573.38	45581.93
573.55	45382.99
573.71	45713.00
573.87	45893.22
574.03	45537.46
574.20	45996.21
574.36	45464.91
574.52	45172.34
574.68	45689.60
574.84	45474.27
575.01	45418.10
575.17	45558.53
575.33	45336.18
575.49	45488.31
575.65	45872.16
575.82	45839.39
575.98	45574.91
576.14	45642.79
576.30	45633.42
576.46	45773.86
576.62	45422.78
576.79	45474.27
576.95	45401.71
577.11	45661.51
577.27	45675.55
577.43	45514.06
577.59	45240.21
577.75	45200.43
577.92	45375.97
578.08	45427.46
578.24	45116.17
578.40	45755.13
578.56	45422.78
578.72	45780.88
578.88	46073.45
579.04	46050.04
579.21	45492.99
579.37	45703.64
579.53	45366.60
579.69	45158.30
579.85	45743.43
580.01	45698.96
580.17	45425.12
580.33	45488.31
580.49	45954.08
580.65	45621.72
580.82	45542.14
580.98	46078.13
581.14	45497.67
581.30	45818.33
581.46	45518.74
581.62	45834.71
581.78	45682.58
581.94	45722.37
582.10	45961.10
582.26	45982.16
582.42	45347.88
582.58	45759.81
582.74	45626.40
582.90	45813.65
583.06	45661.51
583.22	45902.59
583.38	45755.13
583.54	45635.77
583.70	45818.33
583.86	45640.45
584.02	45600.66
584.18	45965.78
584.34	45584.27
584.50	46108.55
584.66	45560.87
584.82	45722.37
584.98	45553.85
585.14	46237.28
585.30	45378.31
585.46	45352.56
585.62	45532.78
585.78	45453.20
585.94	45287.03
586.10	45446.18
586.26	45291.71
586.42	45968.12
586.58	46061.74
586.74	45909.61
586.90	46071.10
587.06	46164.73
587.22	45801.94
587.38	45258.94
587.54	45607.68
587.70	46052.38
587.86	46012.59
588.02	45764.49
588.18	45750.45
588.34	45773.86
588.49	45415.76
588.65	45144.25
588.81	44945.31
588.97	45275.32
589.13	45134.89
589.29	45310.43
589.45	45338.52
589.61	45347.88
589.77	45720.02
589.93	45715.34
590.08	45998.55
590.24	45963.44
590.40	46316.86
590.56	46099.19
590.72	45591.30
590.88	45851.09
591.04	45830.03
591.20	46082.81
591.35	46244.30
591.51	46536.87
591.67	45621.72
591.83	45858.12
591.99	45305.75
592.15	45652.15
592.31	45698.96
592.46	45834.71
592.62	46108.55
592.78	45921.31
592.94	45605.34
593.10	45647.47
593.26	45958.76
593.41	46146.00
593.57	45708.32
593.73	45448.52
593.89	46246.65
594.05	45691.94
594.20	45996.21
594.36	46115.58
594.52	46122.60
594.68	45972.80
594.84	45792.58
594.99	45993.87
595.15	45757.47
595.31	46089.83
595.47	46010.25
595.62	46218.56
595.78	46302.82
595.94	45738.75
596.10	46057.06
596.25	45991.53
596.41	45930.67
596.57	45446.18
596.73	45729.39
596.88	45474.27
597.04	46300.48
597.20	45904.93
597.36	46054.72
597.51	46047.70
597.67	45869.82
597.83	45972.80
597.99	46300.48
598.14	46045.36
598.30	46206.86
598.46	45851.09
598.61	46380.06
598.77	45427.46
598.93	46115.58
599.09	45729.39
599.24	46887.95
599.40	46075.79
599.56	46239.62
599.71	46387.08
599.87	46204.52
600.03	45708.32
600.18	45916.63
600.34	45659.17
600.50	45954.08
600.65	45722.37
600.81	46167.07
600.97	45787.90
601.12	45867.48
601.28	45806.62
601.44	45839.39
601.59	45998.55
601.75	45380.65
601.91	45846.41
602.06	45612.36
602.22	45998.55
602.37	46227.92
602.53	46136.64
602.69	45940.04
602.84	45205.11
603.00	45624.06
603.16	46358.99
603.31	45226.17
603.47	45757.47
603.62	45478.95
603.78	45923.65
603.94	45937.69
604.09	45907.27
604.25	45935.35
604.40	45942.38
604.56	46028.98
604.71	45839.39
604.87	45399.37
605.03	45525.76
605.18	45982.16
605.34	45518.74
605.49	45408.73
605.65	45811.31
605.80	45485.97
605.96	46234.94
606.12	45928.33
606.27	45787.90
606.43	45785.56
606.58	45640.45
606.74	45539.80
606.89	45530.44
607.05	45886.20
607.20	45825.35
607.36	45701.30
607.51	45804.28
607.67	45476.61
607.82	45450.86
607.98	45373.63
608.13	45436.82
608.29	45380.65
608.44	45284.68
608.60	45460.23
608.75	45434.48
608.91	45392.35
609.06	45404.05
609.22	45617.04
609.37	45235.53
609.53	45462.57
609.68	45521.08
609.84	44980.42
609.99	44935.95
610.15	45642.79
610.30	45116.17
610.46	44975.73
610.61	45563.21
610.76	45446.18
610.92	45490.65
611.07	45127.87
611.23	45305.75
611.38	45682.58
611.54	44854.03
611.69	44692.53
611.84	45158.30
612.00	45223.83
612.15	45130.21
612.31	45366.60
612.46	44961.69
612.62	44847.00
612.77	44987.44
612.92	45113.83
613.08	45024.89
613.23	45001.48
613.39	44767.43
613.54	44774.45
613.69	44563.80
613.85	44594.23
614.00	44486.56
614.15	44542.74
614.31	45029.57
614.46	44884.45
614.62	44870.41
614.77	44357.83
614.92	44598.91
615.08	44704.23
615.23	44844.66
615.38	44687.85
615.54	44339.11
615.69	44605.93
615.84	44636.36
616.00	44486.56
616.15	44540.39
616.30	44877.43
616.46	44573.16
616.61	44662.10
616.76	44458.48
616.92	44737.00
617.07	44226.76
617.22	44320.38
617.37	44140.16
617.53	44512.31
617.68	44552.10
617.83	44184.63
617.99	44355.49
618.14	44093.35
618.29	44196.34
618.45	43920.15
618.60	43831.21
618.75	43494.18
618.90	43430.98
619.06	43962.28
619.21	43522.26
619.36	43945.90
619.51	43920.15
619.67	43328.00
619.82	43803.13
619.97	43807.81
620.12	43676.74
620.28	43557.37
620.43	43597.16
620.58	43342.04
620.73	43398.21
620.89	43393.53
621.04	44091.01
621.19	43732.91
621.34	43847.60
621.49	43487.15
621.65	43412.26
621.80	43697.80
621.95	43386.51
622.10	43882.70
622.25	43136.07
622.41	43777.38
622.56	43751.63
622.71	43473.11
622.86	43267.14
623.01	43342.04
623.16	43646.31
623.32	43075.22
623.47	43318.64
623.62	43309.27
623.77	43033.09
623.92	43421.62
624.07	42803.72
624.23	43079.90
624.38	43283.53
624.53	43068.20
624.68	42759.25
624.83	43210.97
624.98	43260.12
625.13	42604.77
625.29	42897.34
625.44	43206.29
625.59	42560.30
625.74	43089.26
625.89	42726.48
626.04	43014.37
626.19	42342.63
626.34	42857.55
626.49	43061.18
626.65	42485.40
626.80	42756.91
626.95	42590.73
627.10	42174.11
627.25	42256.03
627.40	42260.71
627.55	42220.92
627.70	42155.39
627.85	42401.14
628.00	42129.64
628.15	42431.57
628.30	42344.97
628.45	42462.00
628.60	41921.34
628.76	42452.64
628.91	41834.74
629.06	42436.25
629.21	42085.17
629.36	42277.10
629.51	42326.25
629.66	42106.24
629.81	41963.46
629.96	42120.28
630.11	41708.35
630.26	42216.24
630.41	42241.99
630.56	41673.24
630.71	41780.90
630.86	41514.08
631.01	41610.04
631.16	41628.77
631.31	41596.00
631.46	41242.58
631.61	41797.29
631.76	41474.29
631.91	42108.58
632.06	41771.54
632.21	42139.00
632.36	42237.31
632.51	41043.63
632.66	41806.65
632.81	41551.53
632.96	41825.37
633.10	41113.85
633.25	41666.22
633.40	41677.92
633.55	41565.57
633.70	41553.87
633.85	41661.54
634.00	41434.50
634.15	41308.11
634.30	41104.49
634.45	40854.05
634.60	41106.83
634.75	40959.38
634.90	40968.74
635.05	41249.60
635.19	41076.40
635.34	41464.93
635.49	41153.64
635.64	40996.82
635.79	40615.32
635.94	40783.83
636.09	41127.89
636.24	40584.89
636.39	40835.33
636.53	40886.82
636.68	40545.10
636.83	40495.95
636.98	40435.10
637.13	40601.27
637.28	40854.05
637.43	41235.56
637.57	40931.29
637.72	40666.81
637.87	40488.93
638.02	40722.98
638.17	40889.16
638.32	40421.05
638.46	40189.34
638.61	40072.31
638.76	40095.72
638.91	40556.80
639.06	40472.54
639.20	40603.61
639.35	40517.01
639.50	40446.80
639.65	40062.95
639.80	40170.61
639.94	39990.39
640.09	40430.41
640.24	40175.30
640.39	39969.33
640.54	39704.85
640.68	39754.00
640.83	39777.40
640.98	39856.98
641.13	39667.40
641.27	39861.66
641.42	39625.27
641.57	40032.52
641.72	39922.52
641.86	39983.37
642.01	39665.06
642.16	39517.60
642.31	39388.88
642.45	39290.57
642.60	39817.19
642.75	39550.37
642.90	39810.17
643.04	39910.82
643.19	39484.84
643.34	39557.39
643.48	39484.84
643.63	39414.62
643.78	39171.21
643.93	39669.74
644.07	39077.58
644.22	39622.93
644.37	39337.38
644.51	39290.57
644.66	39372.49
644.81	39281.21
644.95	39445.05
645.10	39555.05
645.25	39494.20
645.39	39400.58
645.54	39203.97
645.69	39318.66
645.83	39136.10
645.98	39178.23
646.13	38864.60
646.27	39175.89
646.42	39005.03
646.57	39103.33
646.71	38965.24
646.86	39054.18
647.00	39058.86
647.15	39159.50
647.30	39007.37
647.44	39035.45
647.59	38682.03
647.74	38431.60
647.88	38553.30
648.03	38583.73
648.17	38637.56
648.32	38492.45
648.47	38843.53
648.61	38660.97
648.76	38845.87
648.90	38675.01
649.05	38490.11
649.20	38602.46
649.34	38176.48
649.49	38162.43
649.63	38270.10
649.78	38726.50
649.92	38188.18
650.07	38679.69
650.21	38106.26
650.36	38522.88
650.51	38766.29
650.65	38768.63
650.80	38312.23
650.94	38361.38
651.09	38171.80
651.23	37841.78
651.38	38113.28
651.52	37750.50
651.67	37581.98
651.81	37703.69
651.96	37984.55
652.10	38134.35
652.25	38082.86
652.39	38000.94
652.54	38153.07
652.68	37572.62
652.83	38082.86
652.97	38342.66
653.12	38164.78
653.26	37581.98
653.41	37680.28
653.55	38010.30
653.70	37930.72
653.84	38314.57
653.99	37600.71
654.13	37848.80
654.27	37411.12
654.42	37605.39
654.56	37776.25
654.71	37741.14
654.85	37359.63
655.00	37797.31
655.14	37305.80
655.29	36957.06
655.43	37170.05
655.57	36737.05
655.72	36844.71
655.86	37153.66
656.01	36737.05
656.15	36545.12
656.30	36395.33
656.44	36573.21
656.58	37046.00
656.73	36769.82
656.87	36877.48
657.01	36800.24
657.16	36769.82
657.30	36456.18
657.45	36519.38
657.59	36931.31
657.73	36954.72
657.88	37064.72
658.02	36917.27
658.16	36772.16
658.31	36968.76
658.45	36734.71
658.60	36875.14
658.74	37310.48
658.88	36676.19
659.03	36568.53
659.17	36236.17
659.31	36715.98
659.46	36208.09
659.60	36395.33
659.74	36444.48
659.89	36002.12
660.03	36154.26
660.17	36652.79
660.32	36559.17
660.46	36257.24
660.60	36278.30
660.74	36093.40
660.89	36084.04
661.03	36109.78
661.17	35763.39
661.32	36154.26
661.46	36016.16
661.60	35531.67
661.74	35758.70
661.89	35859.35
662.03	35938.93
662.17	35791.47
662.31	35463.80
662.46	36067.66
662.60	35644.02
662.74	35775.09
662.88	35796.15
663.03	35311.66
663.17	35597.21
663.31	35138.46
663.45	35648.70
663.60	34646.95
663.74	35093.99
663.88	35501.25
664.02	34857.60
664.17	35005.05
664.31	35026.12
664.45	35014.41
664.59	34719.51
664.73	35000.37
664.88	35115.06
665.02	34323.96
665.16	34094.58
665.30	34370.77
665.44	34096.92
665.59	34213.95
665.73	34345.02
665.87	34139.05
666.01	34010.32
666.15	34251.40
666.29	33897.98
666.44	34583.76
666.58	34136.71
666.72	34064.16
666.86	33895.64
667.00	34305.23
667.14	33799.68
667.28	34061.82
667.43	33881.60
667.57	33759.89
667.71	33303.48
667.85	33645.20
667.99	33956.49
668.13	33919.04
668.27	33717.76
668.41	34050.11
668.56	33001.55
668.70	33020.28
668.84	32924.32
668.98	33273.06
669.12	33380.72
669.26	33376.04
669.40	32879.85
669.54	32716.01
669.68	32704.31
669.82	32666.86
669.96	32737.07
670.10	32561.53
670.25	32884.53
670.39	32187.05
670.53	32357.91
670.67	32332.16
670.81	32355.57
670.95	32760.48
671.09	32409.40
671.23	32652.81
671.37	32226.84
671.51	32067.68
671.65	32423.44
671.79	31730.64
671.93	31756.39
672.07	32027.89
672.21	31740.00
672.35	31697.88
672.49	31840.65
672.63	31735.32
672.77	31637.02
672.91	31644.04
673.05	31669.79
673.19	31309.35
673.33	31332.75
673.47	31304.67
673.61	31189.98
673.75	30972.31
673.89	30960.61
674.03	30836.56
674.17	31051.89
674.31	30838.90
674.45	31351.48
674.59	31159.55
674.73	30927.84
674.87	30817.83
675.01	30543.99
675.15	30546.33
675.29	30405.90
675.43	30232.70
675.56	30417.60
675.70	30431.65
675.84	30181.21
675.98	29563.31
676.12	30312.28
676.26	30340.36
676.40	30127.38
676.54	29972.90
676.68	30024.39
676.82	29347.98
676.96	29685.01
677.10	29848.85
677.23	29179.46
677.37	29537.56
677.51	29127.97
677.65	28713.69
677.79	28648.16
677.93	29181.80
678.07	28931.36
678.21	28554.54
678.34	28657.52
678.48	28020.89
678.62	28023.23
678.76	28486.66
678.90	27812.59
679.04	27777.48
679.18	28194.09
679.31	27655.77
679.45	27618.32
679.59	27896.85
679.73	27615.98
679.87	27613.64
680.00	27648.75
680.14	27967.06
680.28	27267.24
680.42	27297.67
680.56	27255.54
680.70	27339.80
680.83	27281.28
680.97	27044.89
681.11	27197.02
681.25	27033.19
681.39	26918.50
681.52	26764.03
681.66	26773.39
681.80	26485.50
681.94	26431.67
682.07	26368.48
682.21	26532.31
682.35	26272.51
682.49	26108.68
682.62	25621.84
682.76	25804.41
682.90	25839.51
683.04	25598.44
683.17	25628.87
683.31	25816.11
683.45	25586.74
683.59	25759.94
683.72	25195.87
683.86	25273.10
684.00	24776.91
684.13	24837.76
684.27	24669.25
684.41	24919.68
684.55	24781.59
684.68	25127.99
684.82	24393.06
684.96	24421.15
685.09	24463.28
685.23	24589.67
685.37	24545.20
685.50	24388.38
685.64	24056.03
685.78	24081.77
685.91	23840.70
686.05	23960.06
686.19	23218.11
686.32	23908.57
686.46	23438.12
686.60	22658.73
686.73	23171.30
686.87	23194.71
687.01	23051.94
687.14	22864.69
687.28	22771.07
687.42	22899.80
687.55	23173.64
687.69	23007.47
687.82	22457.44
687.96	22609.58
688.10	22293.60
688.23	22754.69
688.37	22438.72
688.50	22057.21
688.64	22272.54
688.78	22412.97
688.91	21750.60
689.05	21881.67
689.18	21682.72
689.32	21497.82
689.46	21809.11
689.59	21848.90
689.73	21839.54
689.86	21411.22
690.00	21443.99
690.13	21436.97
690.27	21296.53
690.41	21223.98
690.54	20826.09
690.68	21062.48
690.81	20947.79
690.95	21231.00
691.08	20947.79
691.22	20952.48
691.35	20753.53
691.49	20573.31
691.62	20952.48
691.76	20641.18
691.89	20603.74
692.03	20673.95
692.16	20652.89
692.30	20409.47
692.43	20390.75
692.57	19857.10
692.70	19697.95
692.84	19719.01
692.97	19679.22
693.11	19339.85
693.24	19176.01
693.38	19332.82
693.51	19480.28
693.65	19447.51
693.78	18916.21
693.92	19515.39
694.05	19304.74
694.19	19222.82
694.32	19152.60
694.45	18991.11
694.59	18897.49
694.72	18853.02
694.86	18675.13
694.99	18607.26
695.13	18494.91
695.26	18389.59
695.39	18579.17
695.53	18558.11
695.66	18476.19
695.80	18197.67
695.93	18127.45
696.07	18059.57
696.20	17916.80
696.33	18228.09
696.47	17759.98
696.60	18033.83
696.73	17584.44
696.87	17621.89
697.00	17614.87
697.14	17481.46
697.27	17198.26
697.40	17404.22
697.54	17242.73
697.67	17092.93
697.80	17067.19
697.94	16912.71
698.07	16940.80
698.21	16767.60
698.34	17013.35
698.47	17013.35
698.61	16425.88
698.74	16982.93
698.87	16608.44
699.01	16166.08
699.14	16126.29
699.27	16393.11
699.40	16322.90
699.54	16088.84
699.67	16002.24
699.80	15815.00
699.94	15969.48
700.07	16149.70
700.20	15943.73
700.34	15751.81
700.47	15564.56
700.60	15449.88
700.73	15697.97
700.87	15477.96
701.00	15239.23
701.13	15101.14
701.26	15440.51
701.40	15206.46
701.53	15073.05
701.66	15325.83
701.79	15145.61
701.93	14991.13
702.06	14892.83
702.19	14810.91
702.32	14937.30
702.46	14661.12
702.59	14958.36
702.72	14586.22
702.85	14773.46
702.99	14490.26
703.12	14347.48
703.25	14391.95
703.38	14485.58
703.51	14281.95
703.65	14040.87
703.78	13980.02
703.91	14003.43
704.04	13951.93
704.17	13884.06
704.31	13851.29
704.44	13518.93
704.57	13760.01
704.70	13240.41
704.83	13490.85
704.96	13376.16
705.10	13523.62
705.23	13448.72
>>>>>End Processed Spectral Data<<<<<
