SpectraSuite Data File
++++++++++++++++++++++++++++++++++++
Date: Fri Oct 25 10:43:21 EDT 2013
User: price-jones
Dark Spectrum Present: No
Reference Spectrum Present: No
Number of Sampled Component Spectra: 1
Spectrometers: USB2+H05261
Integration Time (usec): 100000 (USB2+H05261)
Spectra Averaged: 1 (USB2+H05261)
Boxcar Smoothing: 0 (USB2+H05261)
Correct for Electrical Dark: No (USB2+H05261)
Strobe/Lamp Enabled: No (USB2+H05261)
Correct for Detector Non-linearity: No (USB2+H05261)
Correct for Stray Light: No (USB2+H05261)
Number of Pixels in Processed Spectrum: 2048
>>>>>Begin Processed Spectral Data<<<<<
365.73	110.01
365.92	110.01
366.12	110.01
366.32	30.43
366.52	46.81
366.72	81.92
366.91	23.41
367.11	0.00
367.31	53.83
367.51	39.79
367.70	0.00
367.90	105.32
368.10	53.83
368.30	0.00
368.49	0.00
368.69	35.11
368.89	63.19
369.09	2.34
369.28	72.56
369.48	30.43
369.68	93.62
369.87	56.17
370.07	142.77
370.27	124.05
370.47	163.84
370.66	348.74
370.86	440.02
371.06	477.47
371.25	514.92
371.45	444.70
371.65	500.87
371.84	507.90
372.04	400.23
372.24	456.40
372.44	503.22
372.63	559.39
372.83	535.98
373.03	533.64
373.22	592.16
373.42	521.94
373.62	533.64
373.81	620.24
374.01	528.96
374.21	573.43
374.40	596.84
374.60	578.11
374.79	571.09
374.99	575.77
375.19	575.77
375.38	631.94
375.58	545.34
375.78	575.77
375.97	645.99
376.17	788.76
376.37	596.84
376.56	643.65
376.76	655.35
376.95	615.56
377.15	650.67
377.35	660.03
377.54	613.22
377.74	650.67
377.93	688.12
378.13	692.80
378.33	587.47
378.52	655.35
378.72	664.71
378.91	587.47
379.11	629.60
379.31	662.37
379.50	610.88
379.70	634.29
379.89	692.80
380.09	662.37
380.28	690.46
380.48	690.46
380.68	667.05
380.87	660.03
381.07	667.05
381.26	681.10
381.46	641.31
381.65	643.65
381.85	734.93
382.04	662.37
382.24	699.82
382.43	770.04
382.63	676.41
382.83	706.84
383.02	751.31
383.22	723.23
383.41	704.50
383.61	819.19
383.80	734.93
384.00	840.25
384.19	784.08
384.39	767.70
384.58	786.42
384.78	823.87
384.97	863.66
385.17	816.85
385.36	730.25
385.56	828.55
385.75	821.53
385.95	828.55
386.14	840.25
386.34	849.61
386.53	851.96
386.72	807.48
386.92	863.66
387.11	833.23
387.31	770.04
387.50	795.78
387.70	732.59
387.89	861.32
388.09	903.45
388.28	912.81
388.48	901.11
388.67	971.32
388.86	896.43
389.06	910.47
389.25	987.71
389.45	880.04
389.64	1027.50
389.84	990.05
390.03	947.92
390.22	926.85
390.42	950.26
390.61	985.37
390.81	978.34
391.00	997.07
391.19	1093.03
391.39	1041.54
391.58	1011.11
391.78	1093.03
391.97	1114.10
392.16	985.37
392.36	1062.60
392.55	1034.52
392.75	1015.79
392.94	1039.20
393.13	1004.09
393.33	997.07
393.52	1046.22
393.71	1165.59
393.91	1071.97
394.10	1212.40
394.29	1184.31
394.49	1107.07
394.68	1249.85
394.88	1170.27
395.07	1179.63
395.26	1186.65
395.46	1125.80
395.65	1245.16
395.84	1158.57
396.04	1352.83
396.23	1256.87
396.42	1160.91
396.62	1137.50
396.81	1174.95
397.00	1212.40
397.19	1210.06
397.39	1275.59
397.58	1385.60
397.77	1348.15
397.97	1397.30
398.16	1437.09
398.35	1409.00
398.55	1502.62
398.74	1500.28
398.93	1488.58
399.12	1458.15
399.32	1425.39
399.51	1521.35
399.70	1636.03
399.90	1584.54
400.09	1509.65
400.28	1600.93
400.47	1652.42
400.67	1659.44
400.86	1652.42
401.05	1614.97
401.24	1664.12
401.44	1769.44
401.63	1650.08
401.82	1720.29
402.01	1706.25
402.21	1734.34
402.40	1781.15
402.59	1748.38
402.78	1792.85
402.97	1727.32
403.17	1837.32
403.36	1727.32
403.55	1870.09
403.74	1952.01
403.93	1949.67
404.13	1923.92
404.32	1818.60
404.51	1849.02
404.70	1919.24
404.89	1930.94
405.09	1909.88
405.28	2010.52
405.47	1930.94
405.66	1926.26
405.85	2033.93
406.05	2001.16
406.24	1970.73
406.43	1916.90
406.62	2073.71
406.81	2111.16
407.00	2003.50
407.20	2080.74
407.39	2108.82
407.58	2134.57
407.77	2169.68
407.96	2214.15
408.15	2125.21
408.34	2228.19
408.54	2401.39
408.73	2403.73
408.92	2352.24
409.11	2324.15
409.30	2230.53
409.49	2303.09
409.68	2284.36
409.87	2291.38
410.07	2239.89
410.26	2429.48
410.45	2413.09
410.64	2415.43
410.83	2441.18
411.02	2544.16
411.21	2581.61
411.40	2581.61
411.59	2537.14
411.78	2558.21
411.98	2614.38
412.17	2640.12
412.36	2658.85
412.55	2726.72
412.74	2581.61
412.93	2698.64
413.12	2775.88
413.31	2871.84
413.50	2808.64
413.69	2944.39
413.88	2897.58
414.07	2885.88
414.26	3023.97
414.45	3030.99
414.64	2892.90
414.83	2993.55
415.02	3016.95
415.22	3162.06
415.41	3145.68
415.60	3068.44
415.79	3117.59
415.98	3218.24
416.17	3293.13
416.36	3267.39
416.55	3365.69
416.74	3272.07
416.93	3239.30
417.12	3321.22
417.31	3283.77
417.50	3311.86
417.69	3562.30
417.88	3566.98
418.07	3398.46
418.26	3459.31
418.45	3435.91
418.64	3557.61
418.83	3510.80
419.02	3578.68
419.21	3669.96
419.39	3630.17
419.58	3449.95
419.77	3543.57
419.96	3665.28
420.15	3653.58
420.34	3669.96
420.53	3721.45
420.72	3791.67
420.91	3845.50
421.10	3906.35
421.29	3885.29
421.48	3782.31
421.67	3794.01
421.86	3803.37
422.05	3688.68
422.24	3744.86
422.43	3737.84
422.61	3775.28
422.80	3988.27
422.99	3817.41
423.18	3943.80
423.37	3878.27
423.56	3850.18
423.75	3861.88
423.94	3864.22
424.13	3728.47
424.32	3763.58
424.50	3925.08
424.69	4044.45
424.88	4053.81
425.07	3852.52
425.26	4021.04
425.45	3927.42
425.64	3845.50
425.83	3932.10
426.01	4046.79
426.20	4049.13
426.39	4049.13
426.58	3964.87
426.77	3974.23
426.96	4100.62
427.15	3915.72
427.33	3941.46
427.52	4124.02
427.71	4046.79
427.90	4126.36
428.09	4154.45
428.28	4227.01
428.46	4180.20
428.65	4138.07
428.84	4241.05
429.03	4161.47
429.22	4156.79
429.40	4128.70
429.59	4175.52
429.78	3988.27
429.97	3904.01
430.16	4072.53
430.34	4198.92
430.53	4086.58
430.72	4114.66
430.91	4425.95
431.10	4348.72
431.28	4491.49
431.47	4697.46
431.66	4622.56
431.85	4603.83
432.03	4652.98
432.22	4662.35
432.41	4596.81
432.60	4713.84
432.79	4575.75
432.97	4821.50
433.16	4650.64
433.35	4566.39
433.54	4699.80
433.72	4627.24
433.91	4596.81
434.10	4631.92
434.28	4751.29
434.47	4812.14
434.66	4849.59
434.85	5022.79
435.03	5081.30
435.22	4978.32
435.41	5064.92
435.59	5130.45
435.78	5004.07
435.97	5125.77
436.16	5341.10
436.34	5076.62
436.53	5132.79
436.72	5153.86
436.90	5144.50
437.09	5137.48
437.28	5114.07
437.46	5188.97
437.65	5193.65
437.84	5336.42
438.02	5153.86
438.21	5198.33
438.40	5034.49
438.58	5191.31
438.77	5362.17
438.96	5359.83
439.14	5476.85
439.33	5645.37
439.52	5600.90
439.70	5584.52
439.89	5671.12
440.08	5839.64
440.26	5755.38
440.45	5776.44
440.63	5795.17
440.82	6066.67
441.01	5923.90
441.19	6057.31
441.38	6019.86
441.57	6094.76
441.75	6148.59
441.94	6258.59
442.12	6225.82
442.31	6342.85
442.50	6434.13
442.68	6452.86
442.87	6282.00
443.05	6274.98
443.24	6455.20
443.43	6473.92
443.61	6541.80
443.80	6609.67
443.98	6464.56
444.17	6200.08
444.35	6473.92
444.54	6733.72
444.73	6553.50
444.91	6665.85
445.10	6457.54
445.28	6420.09
445.47	6359.24
445.65	6413.07
445.84	6588.61
446.02	6717.34
446.21	6593.29
446.39	6630.74
446.58	6588.61
446.77	6630.74
446.95	6502.01
447.14	6527.75
447.32	6633.08
447.51	6715.00
447.69	6427.11
447.88	6663.51
448.06	6689.25
448.25	6710.32
448.43	6757.13
448.62	6696.27
448.80	6651.80
448.99	6874.15
449.17	6883.52
449.36	6677.55
449.54	6839.05
449.73	6944.37
449.91	7206.51
450.10	7213.53
450.28	7321.20
450.46	7185.44
450.65	7197.15
450.83	7225.23
451.02	7274.38
451.20	7304.81
451.39	7248.64
451.57	7215.87
451.76	7094.16
451.94	7143.32
452.13	7220.55
452.31	7211.19
452.49	7143.32
452.68	7318.86
452.86	7021.61
453.05	7276.73
453.23	7356.30
453.42	7075.44
453.60	7522.48
453.78	7316.51
453.97	7480.35
454.15	7433.54
454.34	7454.61
454.52	7662.91
454.70	7475.67
454.89	7475.67
455.07	7470.99
455.26	7470.99
455.44	7721.43
455.62	7651.21
455.81	7681.64
455.99	7927.39
456.17	7889.95
456.36	7833.77
456.54	7918.03
456.73	8056.12
456.91	8042.08
457.09	8210.60
457.28	8294.86
457.46	8088.89
457.64	8093.57
457.83	8131.02
458.01	8030.38
458.19	8325.29
458.38	8163.79
458.56	8311.24
458.74	8255.07
458.93	8334.65
459.11	8266.77
459.29	8383.80
459.48	8334.65
459.66	8334.65
459.84	8613.17
460.03	8510.19
460.21	8500.83
460.39	8631.90
460.57	8493.80
460.76	8451.67
460.94	8552.32
461.12	8557.00
461.31	8554.66
461.49	8592.11
461.67	8704.45
461.85	8987.66
462.04	8716.16
462.22	9355.12
462.40	8968.93
462.59	8931.48
462.77	8919.78
462.95	9060.21
463.13	8910.42
463.32	9015.74
463.50	8959.57
463.68	8973.61
463.86	8971.27
464.05	8875.31
464.23	8896.38
464.41	9118.73
464.59	8922.12
464.78	9160.86
464.96	9142.13
465.14	9165.54
465.32	9055.53
465.50	9315.33
465.69	9324.69
465.87	9474.49
466.05	9153.84
466.23	9170.22
466.41	9135.11
466.60	9334.06
466.78	9270.86
466.96	9275.54
467.14	9476.83
467.32	9233.41
467.51	9490.87
467.69	9090.64
467.87	9500.23
468.05	9334.06
468.23	9430.02
468.41	9647.69
468.60	9582.15
468.78	9617.26
468.96	9465.13
469.14	9858.34
469.32	9788.12
469.50	9329.38
469.69	9783.44
469.87	9717.90
470.05	9692.16
470.23	10029.20
470.41	9853.66
470.59	10078.35
470.77	9827.91
470.95	10012.81
471.14	10228.14
471.32	9970.68
471.50	10366.23
471.68	10178.99
471.86	10387.30
472.04	10293.68
472.22	10633.05
472.40	10310.06
472.58	10420.06
472.77	10462.19
472.95	10572.20
473.13	10977.11
473.31	10590.92
473.49	10733.70
473.67	10560.50
473.85	10693.91
474.03	10848.38
474.21	10705.61
474.39	10946.69
474.57	10892.85
474.75	10998.18
474.93	11243.93
475.12	11171.38
475.30	11066.05
475.48	11162.01
475.66	11269.68
475.84	11171.38
476.02	11597.35
476.20	11159.67
476.38	11501.39
476.56	11709.70
476.74	11669.91
476.92	11595.01
477.10	11920.35
477.28	11871.20
477.46	11929.71
477.64	12383.77
477.82	12320.58
478.00	12468.03
478.18	12685.70
478.36	12791.03
478.54	12699.75
478.72	12608.47
478.90	12908.05
479.08	13083.59
479.26	13280.20
479.44	13128.06
479.62	13305.95
479.80	13348.08
479.98	13429.99
480.16	13626.60
480.34	13364.46
480.52	13947.25
480.70	13900.44
480.88	13577.45
481.06	13865.33
481.24	13965.98
481.41	14307.69
481.59	14366.21
481.77	14562.81
481.95	14471.53
482.13	14541.75
482.31	14590.90
482.49	14853.04
482.67	15061.35
482.85	14970.07
483.03	15269.66
483.21	15232.21
483.39	15524.77
483.57	15377.32
483.74	15426.47
483.92	15365.62
484.10	15419.45
484.28	15662.86
484.46	16346.30
484.64	16500.78
484.82	16098.20
485.00	16222.25
485.18	16327.58
485.35	16489.07
485.53	16173.10
485.71	16070.12
485.89	16463.33
486.07	16566.31
486.25	16765.26
486.43	16931.44
486.61	16659.93
486.78	17509.55
486.96	17502.53
487.14	17729.56
487.32	17294.22
487.50	17717.86
487.68	18085.32
487.85	18120.43
488.03	18530.02
488.21	18590.88
488.39	18654.07
488.57	18508.96
488.75	18665.77
488.92	19070.68
489.10	19358.57
489.28	19641.78
489.46	19503.68
489.64	19658.16
489.81	19887.53
489.99	20322.87
490.17	20072.43
490.35	20395.43
490.53	20065.41
490.70	20498.41
490.88	20346.28
491.06	20903.32
491.24	20631.82
491.41	20755.87
491.59	20685.65
491.77	20772.25
491.95	21144.40
492.13	21226.32
492.30	21923.80
492.48	21947.20
492.66	21680.38
492.84	21565.70
493.01	22061.89
493.19	22171.89
493.37	22139.13
493.54	22539.36
493.72	22504.25
493.90	22590.85
494.08	22902.14
494.25	23030.87
494.43	23070.66
494.61	23211.09
494.79	23335.14
494.96	23356.21
495.14	23421.74
495.32	23924.96
495.49	23711.97
495.67	23562.17
495.85	24105.18
496.02	24357.96
496.20	24266.67
496.38	24027.94
496.55	24346.25
496.73	25027.35
496.91	24830.74
497.09	24868.19
497.26	24926.71
497.44	25179.48
497.62	25177.14
497.79	25296.51
497.97	25097.56
498.14	25546.95
498.32	25710.78
498.50	25921.43
498.67	25893.35
498.85	25972.92
499.03	26312.30
499.20	26040.80
499.38	26522.95
499.56	26836.58
499.73	26544.02
499.91	26497.20
500.08	26574.44
500.26	26328.69
500.44	26546.36
500.61	26544.02
500.79	26284.22
500.97	26712.53
501.14	26920.84
501.32	27030.85
501.49	27166.60
501.67	27215.75
501.84	27452.14
502.02	27522.36
502.20	27683.86
502.37	27749.39
502.55	27707.26
502.72	27817.27
502.90	28224.52
503.07	27819.61
503.25	28311.12
503.43	27728.33
503.60	28032.60
503.78	27927.27
503.95	28018.55
504.13	28613.05
504.30	28552.20
504.48	28217.50
504.65	28727.74
504.83	28861.15
505.01	29188.82
505.18	29032.00
505.36	29212.23
505.53	29539.90
505.71	29575.01
505.88	29591.39
506.06	29483.73
506.23	29378.40
506.41	29708.42
506.58	29926.09
506.76	29717.78
506.93	29851.19
507.11	29680.33
507.28	29757.57
507.46	29685.01
507.63	29839.49
507.81	30520.59
507.98	30398.88
508.16	30246.74
508.33	30714.85
508.50	30363.77
508.68	30555.69
508.85	31087.00
509.03	31133.81
509.20	31178.28
509.38	30932.52
509.55	31276.58
509.73	31264.88
509.90	31288.28
510.08	31285.94
510.25	31524.68
510.42	31414.67
510.60	31557.44
510.77	31981.08
510.95	32058.32
511.12	31693.19
511.30	31791.50
511.47	32105.13
511.64	32105.13
511.82	32313.44
511.99	31974.06
512.17	32177.68
512.34	32402.38
512.51	32486.64
512.69	32898.57
512.86	32360.25
513.04	32788.56
513.21	32554.51
513.38	32919.63
513.56	32650.47
513.73	32978.15
513.90	33209.86
514.08	32818.99
514.25	32900.91
514.43	32744.09
514.60	32973.47
514.77	32989.85
514.95	33432.21
515.12	33750.52
515.29	33497.75
515.47	33647.54
515.64	33694.35
515.81	33715.42
515.99	33624.14
516.16	33684.99
516.33	33439.23
516.51	33738.82
516.68	32950.06
516.85	33322.21
517.03	33324.55
517.20	33998.62
517.37	34405.88
517.54	34560.35
517.72	34366.09
517.89	34024.37
518.06	33874.57
518.24	33757.55
518.41	34354.38
518.58	34415.24
518.75	34359.06
518.93	34614.18
519.10	34473.75
519.27	35260.17
519.45	34944.20
519.62	35014.41
519.79	35489.54
519.96	35126.76
520.14	35660.40
520.31	35009.73
520.48	35002.71
520.65	35136.12
520.83	35864.03
521.00	35658.06
521.17	35810.20
521.34	35489.54
521.52	36158.94
521.69	35697.85
521.86	36027.87
522.03	36217.45
522.20	35777.43
522.38	35952.97
522.55	36353.20
522.72	36039.57
522.89	36140.21
523.07	36687.90
523.24	36203.41
523.41	37060.04
523.58	36690.24
523.75	37050.68
523.92	37027.28
524.10	37312.82
524.27	36818.97
524.44	37043.66
524.61	37209.84
524.78	37120.90
524.96	37207.50
525.13	37713.05
525.30	37453.25
525.47	37834.76
525.64	37338.57
525.81	37397.08
525.98	37380.70
526.16	37326.86
526.33	37095.15
526.50	37432.19
526.67	37095.15
526.84	36776.84
527.01	37139.62
527.18	37635.81
527.36	37963.49
527.53	38450.32
527.70	38436.28
527.87	38295.85
528.04	37825.40
528.21	38857.57
528.38	38424.57
528.55	38492.45
528.72	38433.94
528.89	38422.23
529.07	38677.35
529.24	38579.05
529.41	38691.40
529.58	38337.98
529.75	38789.70
529.92	38843.53
530.09	39100.99
530.26	39026.09
530.43	39271.85
530.60	38939.49
530.77	39173.55
530.94	39625.27
531.11	39054.18
531.28	39709.53
531.46	39777.40
531.63	39564.42
531.80	39335.04
531.97	39496.54
532.14	39543.35
532.31	39370.15
532.48	39416.96
532.65	39571.44
532.82	39196.95
532.99	39775.06
533.16	39489.52
533.33	39367.81
533.50	39873.37
533.67	39688.46
533.84	39681.44
534.01	40182.32
534.18	39660.38
534.35	40488.93
534.52	39856.98
534.69	40374.24
534.86	40526.38
535.03	40605.95
535.20	40308.71
535.37	40687.87
535.54	40643.40
535.71	40374.24
535.88	40919.59
536.05	40601.27
536.22	40837.67
536.38	40463.18
536.55	40512.33
536.72	40318.07
536.89	40643.40
537.06	40205.72
537.23	40945.33
537.40	40786.18
537.57	41324.50
537.74	40907.88
537.91	41127.89
538.08	40755.75
538.25	40980.44
538.42	40802.56
538.59	41525.78
538.75	41069.38
538.92	41680.26
539.09	41352.58
539.26	41373.65
539.43	41486.00
539.60	41205.13
539.77	41200.45
539.94	41235.56
540.11	41488.34
540.28	41713.03
540.44	41340.88
540.61	41425.14
540.78	41514.08
540.95	41434.50
541.12	41570.25
541.29	41734.09
541.46	41633.45
541.62	41830.05
541.79	42089.85
541.96	41497.70
542.13	41493.02
542.30	42178.79
542.47	42216.24
542.63	41729.41
542.80	41947.08
542.97	42892.66
543.14	42735.84
543.31	42536.90
543.48	42557.96
543.64	42777.97
543.81	42543.92
543.98	42787.33
544.15	42553.28
544.32	42789.67
544.48	43122.03
544.65	42457.32
544.82	43082.24
544.99	42333.27
545.16	42674.99
545.32	42827.12
545.49	43440.34
545.66	43110.33
545.83	42990.96
546.00	43592.48
546.16	42920.74
546.33	42925.42
546.50	42836.48
546.67	43201.61
546.83	42731.16
547.00	43264.80
547.17	43133.73
547.34	42644.56
547.50	43248.42
547.67	43416.94
547.84	42878.61
548.00	43435.66
548.17	43503.54
548.34	43419.28
548.51	43695.46
548.67	43917.81
548.84	43445.02
549.01	43655.67
549.18	42923.08
549.34	43372.47
549.51	43646.31
549.68	43634.61
549.84	43725.89
550.01	43592.48
550.18	43693.12
550.34	44189.31
550.51	43922.49
550.68	44058.24
550.84	43337.36
551.01	43985.69
551.18	43658.01
551.34	43901.43
551.51	44215.06
551.68	44037.18
551.84	43753.97
552.01	43674.40
552.18	43863.98
552.34	43746.95
552.51	44252.51
552.68	44254.85
552.84	43913.13
553.01	44514.65
553.18	44189.31
553.34	44664.44
553.51	44399.96
553.67	44259.53
553.84	44472.52
554.01	44671.46
554.17	44701.89
554.34	44655.08
554.51	44067.61
554.67	44683.17
554.84	44608.27
555.00	44081.65
555.17	44673.81
555.33	44837.64
555.50	44671.46
555.67	44488.90
555.83	44940.63
556.00	44369.54
556.16	45406.39
556.33	44327.41
556.50	44968.71
556.66	44678.49
556.83	44524.01
556.99	44844.66
557.16	44704.23
557.32	44615.29
557.49	45226.17
557.65	44662.10
557.82	45207.45
557.98	45186.38
558.15	44996.80
558.32	45272.98
558.48	44774.45
558.65	44542.74
558.81	44547.42
558.98	44910.20
559.14	45081.06
559.31	44526.35
559.47	45125.53
559.64	44554.44
559.80	44779.13
559.97	45130.21
560.13	44421.03
560.30	44839.98
560.46	45010.84
560.63	45235.53
560.79	45387.67
560.96	45633.42
561.12	45298.73
561.29	44870.41
561.45	45228.51
561.61	45366.60
561.78	44737.00
561.94	45343.20
562.11	45282.34
562.27	45151.27
562.44	45209.79
562.60	45162.98
562.77	45572.57
562.93	45155.96
563.10	45411.07
563.26	45062.33
563.42	45460.23
563.59	45167.66
563.75	45294.05
563.92	45418.10
564.08	45724.71
564.24	45104.46
564.41	45378.31
564.57	45818.33
564.74	45708.32
564.90	45645.13
565.07	45757.47
565.23	45560.87
565.39	45626.40
565.56	45336.18
565.72	45460.23
565.88	45308.09
566.05	45158.30
566.21	45329.16
566.38	45336.18
566.54	45357.24
566.70	46129.62
566.87	46134.30
567.03	45338.52
567.19	46246.65
567.36	45972.80
567.52	46110.89
567.68	45806.62
567.85	45483.63
568.01	45485.97
568.17	45907.27
568.34	46122.60
568.50	45567.89
568.66	45652.15
568.83	45617.04
568.99	45708.32
569.15	45673.21
569.32	45530.44
569.48	45993.87
569.64	45869.82
569.81	46096.85
569.97	45186.38
570.13	45799.60
570.30	45219.15
570.46	45483.63
570.62	45626.40
570.78	45394.69
570.95	44800.19
571.11	45818.33
571.27	45284.68
571.43	45209.79
571.60	45736.41
571.76	45586.61
571.92	45956.42
572.09	45832.37
572.25	45705.98
572.41	45593.64
572.57	45965.78
572.74	46092.17
572.90	45741.09
573.06	45968.12
573.22	46195.15
573.38	45837.05
573.55	45462.57
573.71	46043.02
573.87	46157.70
574.03	45888.54
574.20	46253.67
574.36	45130.21
574.52	46169.41
574.68	45888.54
574.84	45698.96
575.01	45834.71
575.17	45921.31
575.33	45595.98
575.49	45560.87
575.65	45993.87
575.82	45404.05
575.98	45886.20
576.14	46017.27
576.30	45827.69
576.46	45862.80
576.62	46000.89
576.79	46213.88
576.95	45359.58
577.11	45621.72
577.27	46028.98
577.43	45717.68
577.59	45954.08
577.75	45801.94
577.92	45579.59
578.08	45385.33
578.24	45471.93
578.40	45659.17
578.56	46021.95
578.72	45727.05
578.88	45907.27
579.04	46040.68
579.21	46064.08
579.37	45567.89
579.53	45909.61
579.69	45635.77
579.85	45818.33
580.01	45872.16
580.17	45853.44
580.33	46106.21
580.49	45930.67
580.65	45464.91
580.82	46071.10
580.98	46059.40
581.14	45544.48
581.30	46202.18
581.46	46099.19
581.62	46045.36
581.78	46234.94
581.94	46122.60
582.10	45977.48
582.26	46469.00
582.42	45514.06
582.58	45958.76
582.74	46136.64
582.90	45930.67
583.06	46279.41
583.22	46237.28
583.38	46092.17
583.54	46124.94
583.70	45958.76
583.86	45984.51
584.02	45745.77
584.18	45907.27
584.34	45794.92
584.50	46014.93
584.66	45675.55
584.82	45911.95
584.98	46012.59
585.14	46064.08
585.30	45958.76
585.46	45574.91
585.62	45675.55
585.78	45963.44
585.94	45579.59
586.10	45837.05
586.26	45717.68
586.42	46050.04
586.58	45886.20
586.74	46181.11
586.90	46019.61
587.06	45834.71
587.22	46499.42
587.38	46106.21
587.54	45832.37
587.70	46431.55
587.86	45595.98
588.02	46021.95
588.18	46223.24
588.34	45375.97
588.49	45427.46
588.65	45305.75
588.81	45476.61
588.97	45977.48
589.13	45698.96
589.29	45469.59
589.45	45762.15
589.61	45804.28
589.77	46415.16
589.93	46204.52
590.08	46021.95
590.24	45918.97
590.40	46426.87
590.56	46265.37
590.72	46026.63
590.88	45909.61
591.04	46108.55
591.20	46403.46
591.35	46085.15
591.51	46681.98
591.67	45815.99
591.83	46014.93
591.99	45631.08
592.15	46057.06
592.31	46057.06
592.46	45834.71
592.62	45947.06
592.78	46183.45
592.94	46134.30
593.10	45869.82
593.26	46473.68
593.41	46146.00
593.57	46101.53
593.73	45858.12
593.89	46426.87
594.05	46190.47
594.20	45713.00
594.36	46131.96
594.52	46548.57
594.68	45741.09
594.84	45846.41
594.99	46480.70
595.15	46307.50
595.31	46124.94
595.47	46525.17
595.62	46461.97
595.78	46227.92
595.94	46075.79
596.10	46447.93
596.25	46270.05
596.41	45888.54
596.57	45933.01
596.73	46209.20
596.88	45808.96
597.04	45698.96
597.20	46082.81
597.36	46026.63
597.51	46639.86
597.67	45755.13
597.83	46403.46
597.99	46211.54
598.14	45762.15
598.30	46223.24
598.46	46419.84
598.61	46363.67
598.77	45663.85
598.93	46433.89
599.09	46298.14
599.24	46314.52
599.40	46740.50
599.56	46263.03
599.71	46562.62
599.87	46651.56
600.03	46206.86
600.18	46059.40
600.34	45640.45
600.50	46127.28
600.65	46450.27
600.81	46312.18
600.97	46485.38
601.12	46862.21
601.28	46181.11
601.44	45773.86
601.59	46017.27
601.75	45799.60
601.91	46209.20
602.06	45773.86
602.22	46384.74
602.37	45979.82
602.53	46040.68
602.69	46553.26
602.84	45986.85
603.00	45661.51
603.16	46286.43
603.31	45968.12
603.47	46082.81
603.62	45811.31
603.78	46143.66
603.94	46040.68
604.09	46036.00
604.25	46103.87
604.40	46080.47
604.56	46281.75
604.71	46389.42
604.87	45881.52
605.03	45998.55
605.18	45741.09
605.34	45785.56
605.49	45865.14
605.65	46150.68
605.80	45743.43
605.96	45958.76
606.12	45703.64
606.27	45977.48
606.43	45954.08
606.58	45591.30
606.74	45914.29
606.89	45780.88
607.05	45691.94
607.20	45832.37
607.36	46141.32
607.51	45996.21
607.67	46122.60
607.82	45792.58
607.98	45811.31
608.13	45713.00
608.29	45258.94
608.44	45815.99
608.60	45298.73
608.75	45839.39
608.91	45808.96
609.06	45595.98
609.22	45603.00
609.37	45574.91
609.53	46061.74
609.68	45446.18
609.84	45535.12
609.99	45345.54
610.15	45120.85
610.30	45186.38
610.46	45516.40
610.61	45626.40
610.76	45567.89
610.92	45748.11
611.07	45584.27
611.23	44952.33
611.38	45635.77
611.54	45762.15
611.69	45146.59
611.84	45385.33
612.00	44938.29
612.15	45401.71
612.31	45378.31
612.46	45546.82
612.62	45710.66
612.77	45010.84
612.92	45710.66
613.08	44931.26
613.23	44617.63
613.39	44772.11
613.54	44538.05
613.69	44900.84
613.85	45198.09
614.00	44776.79
614.15	44767.43
614.31	44886.79
614.46	45146.59
614.62	45074.04
614.77	45223.83
614.92	45212.13
615.08	44797.85
615.23	44865.73
615.38	45132.55
615.54	44484.22
615.69	44748.70
615.84	44442.09
616.00	44662.10
616.15	44861.05
616.30	44491.24
616.46	44872.75
616.61	44023.14
616.76	44399.96
616.92	44278.25
617.07	44816.58
617.22	44341.45
617.37	44437.41
617.53	45015.52
617.68	44584.86
617.83	44528.69
617.99	44453.79
618.14	44432.73
618.29	44109.74
618.45	43739.93
618.60	44367.20
618.75	44182.29
618.90	43817.17
619.06	44177.61
619.21	44037.18
619.36	44194.00
619.51	44619.97
619.67	43849.94
619.82	43742.27
619.97	44243.15
620.12	43889.73
620.28	43880.36
620.43	43899.09
620.58	44194.00
620.73	43917.81
620.89	43826.53
621.04	44184.63
621.19	44163.57
621.34	44018.46
621.49	43576.09
621.65	43557.37
621.80	43730.57
621.95	43571.41
622.10	43985.69
622.25	43704.82
622.41	43744.61
622.56	43957.60
622.71	43763.34
622.86	43419.28
623.01	43700.14
623.16	43739.93
623.32	43320.98
623.47	43533.96
623.62	44046.54
623.77	43339.70
623.92	43552.69
624.07	43082.24
624.23	43103.31
624.38	43072.88
624.53	43466.09
624.68	43381.83
624.83	43482.47
624.98	43269.48
625.13	42644.56
625.29	43124.37
625.44	43056.50
625.59	42866.91
625.74	43143.09
625.89	43030.75
626.04	42866.91
626.19	42703.07
626.34	43115.01
626.49	42859.89
626.65	42665.63
626.80	43030.75
626.95	42768.61
627.10	42375.40
627.25	42740.52
627.40	42511.15
627.55	42148.37
627.70	42057.09
627.85	42541.58
628.00	42672.65
628.15	42733.50
628.30	42672.65
628.45	42834.14
628.60	42494.77
628.76	42363.70
628.91	42415.19
629.06	42422.21
629.21	42110.92
629.36	42059.43
629.51	41727.07
629.66	42302.84
629.81	41837.08
629.96	41928.36
630.11	41989.21
630.26	42398.80
630.41	42045.38
630.56	42136.66
630.71	42197.52
630.86	41752.82
631.01	41897.93
631.16	41949.42
631.31	42256.03
631.46	41783.24
631.61	41916.65
631.76	41844.10
631.91	42064.11
632.06	42251.35
632.21	42078.15
632.36	41584.30
632.51	41415.78
632.66	41605.36
632.81	41635.79
632.96	41677.92
633.10	41668.56
633.25	41827.71
633.40	41352.58
633.55	41570.25
633.70	41420.46
633.85	41411.10
634.00	41406.42
634.15	41488.34
634.30	41413.44
634.45	41163.00
634.60	41537.49
634.75	41347.90
634.90	41015.55
635.05	41373.65
635.19	40842.35
635.34	41893.25
635.49	41027.25
635.64	41265.99
635.79	41453.23
635.94	40809.58
636.09	41102.15
636.24	40612.98
636.39	40884.48
636.53	41090.44
636.68	40863.41
636.83	41118.53
636.98	40938.31
637.13	41069.38
637.28	41359.61
637.43	41237.90
637.57	41013.21
637.72	40664.47
637.87	40968.74
638.02	41315.14
638.17	41476.63
638.32	40435.10
638.46	40350.84
638.61	40320.41
638.76	40774.47
638.91	40601.27
639.06	40872.78
639.20	40849.37
639.35	40708.94
639.50	40519.35
639.65	40783.83
639.80	40629.36
639.94	40313.39
640.09	40364.88
640.24	40481.91
640.39	40023.16
640.54	39501.22
640.68	40105.08
640.83	39929.54
640.98	40084.01
641.13	40013.80
641.27	40301.68
641.42	40243.17
641.57	40119.12
641.72	39929.54
641.86	40027.84
642.01	40086.36
642.16	39908.47
642.31	39952.94
642.45	40378.92
642.60	39552.71
642.75	39856.98
642.90	39871.03
643.04	40208.06
643.19	40013.80
643.34	40048.91
643.48	39643.99
643.63	39901.45
643.78	39910.82
643.93	39721.23
644.07	39426.32
644.22	39414.62
644.37	39400.58
644.51	39264.83
644.66	39835.92
644.81	39548.03
644.95	39384.19
645.10	39159.50
645.25	39559.73
645.39	39281.21
645.54	39075.24
645.69	39484.84
645.83	39323.34
645.98	38958.22
646.13	39215.68
646.27	38995.67
646.42	38801.40
646.57	39395.90
646.71	39342.06
646.86	39433.35
647.00	39306.96
647.15	39583.14
647.30	38866.94
647.44	39103.33
647.59	39257.81
647.74	38909.07
647.88	39026.09
648.03	38972.26
648.17	38756.93
648.32	38712.46
648.47	38630.54
648.61	38787.36
648.76	39072.90
648.90	38808.42
649.05	38646.93
649.20	38778.00
649.34	38932.47
649.49	38504.15
649.63	38555.64
649.78	39012.05
649.92	38384.79
650.07	38710.12
650.21	38710.12
650.36	38766.29
650.51	38693.74
650.65	38920.77
650.80	39157.16
650.94	38511.17
651.09	38298.19
651.23	38071.15
651.38	38368.40
651.52	37989.24
651.67	38274.78
651.81	37914.34
651.96	38143.71
652.10	38239.67
652.25	38155.41
652.39	38349.68
652.54	38548.62
652.68	38026.68
652.83	38330.95
652.97	38541.60
653.12	38171.80
653.26	38139.03
653.41	37373.67
653.55	37771.57
653.70	38270.10
653.84	38036.05
653.99	37654.54
654.13	37855.82
654.27	37748.16
654.42	37766.88
654.56	37741.14
654.71	37504.74
654.85	37773.91
655.00	38216.27
655.14	37750.50
655.29	37509.43
655.43	37411.12
655.57	36996.85
655.72	37249.63
655.86	36758.11
656.01	36795.56
656.15	36947.70
656.30	37029.62
656.44	37132.60
656.58	37542.19
656.73	37230.90
656.87	37031.96
657.01	37195.79
657.16	36655.13
657.30	36582.57
657.45	36587.25
657.59	36788.54
657.73	37060.04
657.88	37333.89
658.02	36921.95
658.16	37116.22
658.31	37127.92
658.45	37324.52
658.60	36287.67
658.74	37057.70
658.88	37160.69
659.03	36753.43
659.17	36617.68
659.31	36392.99
659.46	36196.38
659.60	36587.25
659.74	36561.51
659.89	36662.15
660.03	36039.57
660.17	36751.09
660.32	36507.68
660.46	36542.78
660.60	36292.35
660.74	36318.09
660.89	36673.85
661.03	35803.17
661.17	36355.54
661.32	36355.54
661.46	35702.53
661.60	35644.02
661.74	36224.47
661.89	35903.82
662.03	36046.59
662.17	35749.34
662.31	35592.53
662.46	36510.02
662.60	35747.00
662.74	35566.78
662.88	35367.84
663.03	35424.01
663.17	35587.85
663.31	35208.68
663.45	35742.32
663.60	35948.29
663.74	35278.89
663.88	35084.63
664.02	34911.43
664.17	35473.16
664.31	34892.71
664.45	34991.01
664.59	35091.65
664.73	34801.43
664.88	35206.34
665.02	34614.18
665.16	34731.21
665.30	34497.16
665.44	34841.21
665.59	34225.65
665.73	34595.46
665.87	34132.03
666.01	34281.83
666.15	34546.31
666.29	34387.15
666.44	34632.91
666.58	34396.51
666.72	34394.17
666.86	34122.67
667.00	34197.57
667.14	34333.32
667.28	33865.21
667.43	34110.97
667.57	34113.31
667.71	33816.06
667.85	34148.42
667.99	33991.60
668.13	34071.18
668.27	33883.94
668.41	33823.08
668.56	33476.68
668.70	33654.56
668.84	33163.05
668.98	33493.07
669.12	33490.73
669.26	33469.66
669.40	33294.12
669.54	32971.13
669.68	33235.61
669.82	32844.74
669.96	32662.18
670.10	32814.31
670.25	32788.56
670.39	32631.75
670.53	32598.98
670.67	32816.65
670.81	32327.48
670.95	32362.59
671.09	32428.12
671.23	32603.66
671.37	32521.74
671.51	32198.75
671.65	32439.82
671.79	31866.39
671.93	31917.89
672.07	32051.30
672.21	31910.86
672.35	32161.30
672.49	32046.62
672.63	31744.69
672.77	31566.81
672.91	31646.38
673.05	31758.73
673.19	31782.13
673.33	31192.32
673.47	31519.99
673.61	31363.18
673.75	31124.44
673.89	31302.32
674.03	31358.50
674.17	31285.94
674.31	30955.93
674.45	30981.67
674.59	31152.53
674.73	31370.20
674.87	30773.36
675.01	30930.18
675.15	30845.92
675.29	30391.86
675.43	30438.67
675.56	30504.20
675.70	31105.72
675.84	30792.09
675.98	29560.97
676.12	30567.40
676.26	30043.12
676.40	30316.96
676.54	30239.72
676.68	29846.51
676.82	29495.43
676.96	29649.91
677.10	29699.06
677.23	29626.50
677.37	29481.39
677.51	29766.93
677.65	29301.17
677.79	28421.13
677.93	28599.01
678.07	28879.87
678.21	28360.27
678.34	28414.10
678.48	28486.66
678.62	28524.11
678.76	28088.77
678.90	28273.67
679.04	28151.96
679.18	28149.62
679.31	27740.03
679.45	27929.61
679.59	27983.44
679.73	27623.00
679.87	27782.16
680.00	27913.23
680.14	27402.99
680.28	27758.75
680.42	27225.11
680.56	27498.95
680.70	27367.88
680.83	27505.98
680.97	27206.39
681.11	27391.29
681.25	27089.36
681.39	27115.11
681.52	26864.67
681.66	26803.82
681.80	26773.39
681.94	26438.69
682.07	26419.97
682.21	26209.32
682.35	25905.05
682.49	26136.76
682.62	26150.81
682.76	25893.35
682.90	26040.80
683.04	26251.45
683.17	25752.91
683.31	25582.06
683.45	25844.20
683.59	25738.87
683.72	25521.20
683.86	25511.84
684.00	25062.46
684.13	25003.94
684.27	25097.56
684.41	25102.25
684.55	24943.09
684.68	24755.85
684.82	24486.68
684.96	24802.66
685.09	24521.79
685.23	24446.90
685.37	24484.34
685.50	24587.33
685.64	24421.15
685.78	24407.11
685.91	24023.26
686.05	23693.24
686.19	23990.49
686.32	23754.10
686.46	23648.77
686.60	23014.49
686.73	23293.01
686.87	22953.63
687.01	22925.55
687.14	23199.39
687.28	22696.17
687.42	22864.69
687.55	22852.99
687.69	23225.14
687.82	22780.43
687.96	22773.41
688.10	22272.54
688.23	22452.76
688.37	22522.98
688.50	22363.82
688.64	22499.57
688.78	22368.50
688.91	21802.09
689.05	21675.70
689.18	21682.72
689.32	21654.64
689.46	21713.15
689.59	22352.12
689.73	21942.52
689.86	21535.27
690.00	21319.94
690.13	21493.14
690.27	21202.91
690.41	21429.94
690.54	21132.70
690.68	21350.37
690.81	21310.58
690.95	20847.15
691.08	21036.74
691.22	21048.44
691.35	20992.26
691.49	20989.92
691.62	20861.19
691.76	20781.62
691.89	20702.04
692.03	20170.74
692.16	20198.82
692.30	20046.69
692.43	20273.72
692.57	20044.35
692.70	19592.62
692.84	19711.99
692.97	19536.45
693.11	19770.51
693.24	19627.73
693.38	19506.02
693.51	19461.55
693.65	19440.49
693.78	19000.47
693.92	19311.76
694.05	19105.79
694.19	19337.51
694.32	19157.28
694.45	19105.79
694.59	18848.33
694.72	18806.20
694.86	18806.20
694.99	18728.97
695.13	18317.03
695.26	18782.80
695.39	18494.91
695.53	18349.80
695.66	18380.23
695.80	18235.11
695.93	18008.08
696.07	18214.05
696.20	18200.01
696.33	18501.93
696.47	18054.89
696.60	17902.76
696.73	17771.69
696.87	17664.02
697.00	17486.14
697.14	17617.21
697.27	17315.28
697.40	16959.52
697.54	17413.59
697.67	17226.34
697.80	17090.59
697.94	17181.87
698.07	17151.45
698.21	17256.77
698.34	17369.12
698.47	17245.07
698.61	16727.81
698.74	16779.30
698.87	16723.13
699.01	16491.41
699.14	16446.94
699.27	16203.53
699.40	16123.95
699.54	16159.06
699.67	16046.71
699.80	15829.04
699.94	15896.92
700.07	16084.16
700.20	16217.57
700.34	15641.80
700.47	15618.39
700.60	15854.79
700.73	15641.80
700.87	15749.46
701.00	15477.96
701.13	15391.36
701.26	15332.85
701.40	15257.95
701.53	15040.28
701.66	15077.73
701.79	14869.42
701.93	14998.15
702.06	15028.58
702.19	14759.42
702.32	14953.68
702.46	14925.60
702.59	14888.15
702.72	14789.85
702.85	14792.19
702.99	14525.36
703.12	14698.56
703.25	14228.12
703.38	14661.12
703.51	14485.58
703.65	14394.29
703.78	14008.11
703.91	14005.77
704.04	14026.83
704.17	13755.33
704.31	13530.64
704.44	13664.05
704.57	13570.43
704.70	13425.31
704.83	13542.34
704.96	13542.34
705.10	13680.43
705.23	13448.72
>>>>>End Processed Spectral Data<<<<<
