SpectraSuite Data File
++++++++++++++++++++++++++++++++++++
Date: Fri Oct 25 10:47:50 EDT 2013
User: price-jones
Dark Spectrum Present: No
Reference Spectrum Present: No
Number of Sampled Component Spectra: 1
Spectrometers: USB2+H05261
Integration Time (usec): 100000 (USB2+H05261)
Spectra Averaged: 1 (USB2+H05261)
Boxcar Smoothing: 0 (USB2+H05261)
Correct for Electrical Dark: No (USB2+H05261)
Strobe/Lamp Enabled: No (USB2+H05261)
Correct for Detector Non-linearity: No (USB2+H05261)
Correct for Stray Light: No (USB2+H05261)
Number of Pixels in Processed Spectrum: 2048
>>>>>Begin Processed Spectral Data<<<<<
365.73	142.77
365.92	142.77
366.12	142.77
366.32	126.39
366.52	77.24
366.72	16.38
366.91	72.56
367.11	88.94
367.31	4.68
367.51	58.51
367.70	93.62
367.90	32.77
368.10	42.13
368.30	63.19
368.49	0.00
368.69	77.24
368.89	86.60
369.09	74.90
369.28	107.66
369.48	79.58
369.68	107.66
369.87	86.60
370.07	58.51
370.27	110.01
370.47	194.26
370.66	360.44
370.86	451.72
371.06	500.87
371.25	411.93
371.45	465.77
371.65	465.77
371.84	418.96
372.04	421.30
372.24	428.32
372.44	510.24
372.63	468.11
372.83	538.32
373.03	430.66
373.22	470.45
373.42	444.70
373.62	465.77
373.81	538.32
374.01	575.77
374.21	545.34
374.40	566.41
374.60	521.94
374.79	498.53
374.99	566.41
375.19	505.56
375.38	566.41
375.58	648.33
375.78	578.11
375.97	589.82
376.17	648.33
376.37	657.69
376.56	631.94
376.76	655.35
376.95	620.24
377.15	624.92
377.35	585.13
377.54	601.52
377.74	636.63
377.93	636.63
378.13	674.07
378.33	617.90
378.52	608.54
378.72	636.63
378.91	664.71
379.11	587.47
379.31	587.47
379.50	533.64
379.70	540.66
379.89	648.33
380.09	674.07
380.28	667.05
380.48	648.33
380.68	615.56
380.87	636.63
381.07	627.26
381.26	718.54
381.46	699.82
381.65	746.63
381.85	695.14
382.04	709.18
382.24	699.82
382.43	648.33
382.63	676.41
382.83	671.73
383.02	669.39
383.22	702.16
383.41	720.88
383.61	725.57
383.80	692.80
384.00	777.06
384.19	739.61
384.39	706.84
384.58	760.67
384.78	718.54
384.97	734.93
385.17	660.03
385.36	765.36
385.56	758.33
385.75	777.06
385.95	734.93
386.14	854.30
386.34	777.06
386.53	774.72
386.72	791.10
386.92	802.80
387.11	758.33
387.31	770.04
387.50	837.91
387.70	760.67
387.89	805.14
388.09	786.42
388.28	772.38
388.48	823.87
388.67	847.27
388.86	924.51
389.06	854.30
389.25	901.11
389.45	903.45
389.64	1025.15
389.84	1039.20
390.03	985.37
390.22	910.47
390.42	945.58
390.61	912.81
390.81	964.30
391.00	994.73
391.19	1018.13
391.39	978.34
391.58	1006.43
391.78	1034.52
391.97	999.41
392.16	994.73
392.36	1004.09
392.55	910.47
392.75	966.64
392.94	891.74
393.13	917.49
393.33	889.40
393.52	1095.37
393.71	1048.56
393.91	1022.81
394.10	997.07
394.29	1025.15
394.49	943.24
394.68	1104.73
394.88	1050.90
395.07	1097.71
395.26	1086.01
395.46	1177.29
395.65	1219.42
395.84	1247.51
396.04	1188.99
396.23	1121.12
396.42	1149.20
396.62	1184.31
396.81	1139.84
397.00	1207.72
397.19	1238.14
397.39	1144.52
397.58	1254.53
397.77	1254.53
397.97	1249.85
398.16	1198.35
398.35	1378.58
398.55	1273.25
398.74	1373.89
398.93	1411.34
399.12	1313.04
399.32	1294.32
399.51	1366.87
399.70	1455.81
399.90	1383.26
400.09	1416.02
400.28	1366.87
400.47	1486.24
400.67	1490.92
400.86	1401.98
401.05	1483.90
401.24	1406.66
401.44	1490.92
401.63	1423.05
401.82	1462.83
402.01	1467.52
402.21	1537.73
402.40	1607.95
402.59	1556.46
402.78	1472.20
402.97	1549.43
403.17	1661.78
403.36	1540.07
403.55	1619.65
403.74	1568.16
403.93	1577.52
404.13	1589.22
404.32	1582.20
404.51	1689.87
404.70	1703.91
404.89	1743.70
405.09	1806.89
405.28	1797.53
405.47	1804.55
405.66	1703.91
405.85	1753.06
406.05	1678.16
406.24	1827.96
406.43	1739.02
406.62	1921.58
406.81	1961.37
407.00	1799.87
407.20	1776.47
407.39	1788.17
407.58	1886.47
407.77	1947.33
407.96	1935.62
408.15	2005.84
408.34	1954.35
408.54	2050.31
408.73	1987.11
408.92	1980.09
409.11	2120.53
409.30	2038.61
409.49	2076.06
409.68	2106.48
409.87	2015.20
410.07	2120.53
410.26	2094.78
410.45	2094.78
410.64	2143.93
410.83	2174.36
411.02	2230.53
411.21	2291.38
411.40	2326.49
411.59	2352.24
411.78	2333.51
411.98	2326.49
412.17	2263.30
412.36	2331.17
412.55	2471.61
412.74	2401.39
412.93	2321.81
413.12	2305.43
413.31	2581.61
413.50	2509.05
413.69	2499.69
413.88	2719.70
414.07	2457.56
414.26	2471.61
414.45	2677.57
414.64	2736.09
414.83	2588.63
415.02	2705.66
415.22	2736.09
415.41	2782.90
415.60	2836.73
415.79	2899.92
415.98	2736.09
416.17	2967.80
416.36	2885.88
416.55	2918.65
416.74	3021.63
416.93	2904.60
417.12	3021.63
417.31	2862.48
417.50	2920.99
417.69	3061.42
417.88	3183.13
418.07	3096.53
418.26	3023.97
418.45	3194.83
418.64	3204.19
418.83	3208.87
419.02	3143.34
419.21	3243.98
419.39	3272.07
419.58	3178.45
419.77	3159.72
419.96	3234.62
420.15	3337.60
420.34	3269.73
420.53	3407.82
420.72	3449.95
420.91	3363.35
421.10	3421.86
421.29	3440.59
421.48	3363.35
421.67	3478.04
421.86	3258.03
422.05	3389.10
422.24	3346.97
422.43	3459.31
422.61	3473.36
422.80	3382.07
422.99	3433.57
423.18	3452.29
423.37	3611.45
423.56	3550.59
423.75	3433.57
423.94	3400.80
424.13	3318.88
424.32	3461.65
424.50	3445.27
424.69	3578.68
424.88	3655.92
425.07	3522.51
425.26	3452.29
425.45	3599.74
425.64	3574.00
425.83	3557.61
426.01	3597.40
426.20	3569.32
426.39	3630.17
426.58	3541.23
426.77	3618.47
426.96	3719.11
427.15	3648.90
427.33	3693.37
427.52	3669.96
427.71	3775.28
427.90	3688.68
428.09	3719.11
428.28	3714.43
428.46	3943.80
428.65	3852.52
428.84	3894.65
429.03	3854.86
429.22	3815.07
429.40	3733.15
429.59	3889.97
429.78	3761.24
429.97	3751.88
430.16	3723.79
430.34	3847.84
430.53	3840.82
430.72	3840.82
430.91	3939.12
431.10	3871.25
431.28	4074.87
431.47	4070.19
431.66	4234.03
431.85	4037.42
432.03	4196.58
432.22	4299.56
432.41	4294.88
432.60	4184.88
432.79	4219.99
432.97	4367.44
433.16	4381.48
433.35	4379.14
433.54	4287.86
433.72	4184.88
433.91	4358.08
434.10	4395.53
434.28	4325.31
434.47	4348.72
434.66	4484.47
434.85	4589.79
435.03	4526.60
435.22	4294.88
435.41	4550.00
435.59	4671.71
435.78	4449.36
435.97	4664.69
436.16	4564.04
436.34	4634.26
436.53	4599.15
436.72	4868.31
436.90	4622.56
437.09	4643.62
437.28	4648.30
437.46	4575.75
437.65	4681.07
437.84	4718.52
438.02	4671.71
438.21	4805.12
438.40	4814.48
438.58	4821.50
438.77	4987.68
438.96	4791.08
439.14	5043.85
439.33	4985.34
439.52	5043.85
439.70	5039.17
439.89	5029.81
440.08	5282.59
440.26	5153.86
440.45	5275.57
440.63	5247.48
440.82	5238.12
441.01	5460.47
441.19	5310.68
441.38	5493.24
441.57	5561.11
441.75	5472.17
441.94	5631.33
442.12	5596.22
442.31	5661.76
442.50	5837.30
442.68	5563.45
442.87	5703.89
443.05	5654.73
443.24	5830.27
443.43	5973.05
443.61	5818.57
443.80	6017.52
443.98	5617.29
444.17	5668.78
444.35	5783.46
444.54	5982.41
444.73	5905.17
444.91	5884.11
445.10	5921.56
445.28	5935.60
445.47	5802.19
445.65	5722.61
445.84	5830.27
446.02	5884.11
446.21	5968.37
446.39	5834.96
446.58	5820.91
446.77	6043.26
446.95	5914.53
447.14	5820.91
447.32	6036.24
447.51	6111.14
447.69	5916.87
447.88	5884.11
448.06	5930.92
448.25	5956.66
448.43	6029.22
448.62	6085.39
448.80	6040.92
448.99	6202.42
449.17	6164.97
449.36	6057.31
449.54	6169.65
449.73	6270.30
449.91	6406.05
450.10	6347.53
450.28	6422.43
450.46	6359.24
450.65	6354.55
450.83	6387.32
451.02	6431.79
451.20	6691.59
451.39	6471.58
451.57	6382.64
451.76	6408.39
451.94	6445.84
452.13	6628.40
452.31	6492.65
452.49	6534.78
452.68	6525.41
452.86	6537.12
453.05	6574.56
453.23	6642.44
453.42	6560.52
453.60	6534.78
453.78	6689.25
453.97	6581.59
454.15	6715.00
454.34	6523.07
454.52	6827.34
454.70	6745.42
454.89	6829.68
455.07	6768.83
455.26	6740.74
455.44	6848.41
455.62	6953.73
455.81	7000.54
455.99	7019.27
456.17	6984.16
456.36	6967.77
456.54	7030.97
456.73	7115.23
456.91	7384.39
457.09	7403.11
457.28	7445.24
457.46	7227.57
457.64	7482.69
457.83	7248.64
458.01	7328.22
458.19	7438.22
458.38	7307.15
458.56	7578.65
458.74	7407.80
458.93	7503.76
459.11	7342.26
459.29	7557.59
459.48	7789.30
459.66	7482.69
459.84	7770.58
460.03	7882.92
460.21	7749.51
460.39	7655.89
460.57	7709.72
460.76	7777.60
460.94	7688.66
461.12	7808.03
461.31	7861.86
461.49	7742.49
461.67	7742.49
461.85	8051.44
462.04	7953.14
462.22	8437.63
462.40	8175.49
462.59	7976.55
462.77	8119.32
462.95	8037.40
463.13	8231.66
463.32	8067.83
463.50	8397.84
463.68	8243.37
463.86	8114.64
464.05	7999.95
464.23	8191.88
464.41	8308.90
464.59	7995.27
464.78	8327.63
464.96	8418.91
465.14	8210.60
465.32	8168.47
465.50	8234.00
465.69	8365.07
465.87	8449.33
466.05	8259.75
466.23	8332.31
466.41	8360.39
466.60	8486.78
466.78	8435.29
466.96	8369.76
467.14	8418.91
467.32	8578.06
467.51	8559.34
467.69	8390.82
467.87	8470.40
468.05	8582.74
468.23	8629.56
468.41	8559.34
468.60	8585.08
468.78	8594.45
468.96	8711.47
469.14	8638.92
469.32	8730.20
469.50	8542.96
469.69	8805.10
469.87	8992.34
470.05	8966.59
470.23	9043.83
470.41	9090.64
470.59	9027.45
470.77	9027.45
470.95	9160.86
471.14	9322.35
471.32	8973.61
471.50	9334.06
471.68	9453.42
471.86	9245.12
472.04	9338.74
472.22	9521.30
472.40	9287.25
472.58	9345.76
472.77	9586.83
472.95	9645.35
473.13	9902.81
473.31	9668.75
473.49	9645.35
473.67	9671.09
473.85	9605.56
474.03	9961.32
474.21	9776.42
474.39	9944.94
474.57	9872.38
474.75	10099.41
474.93	10157.92
475.12	10150.90
475.30	10073.67
475.48	10164.95
475.66	10384.96
475.84	10303.04
476.02	10544.11
476.20	10431.77
476.38	10583.90
476.56	10871.79
476.74	10747.74
476.92	10696.25
477.10	10780.51
477.28	10876.47
477.46	11124.57
477.64	11070.73
477.82	11243.93
478.00	11461.60
478.18	11454.58
478.36	11445.22
478.54	11653.53
478.72	11566.93
478.90	11662.89
479.08	11850.13
479.26	11819.71
479.44	11939.07
479.62	11997.59
479.80	12016.31
479.98	12306.54
480.16	12456.33
480.34	12325.26
480.52	12472.71
480.70	12594.42
480.88	12320.58
481.06	12652.94
481.24	12528.89
481.41	12999.34
481.59	13090.62
481.77	13139.77
481.95	13380.84
482.13	13352.76
482.31	13036.78
482.49	13668.73
482.67	13703.84
482.85	13500.21
483.03	13832.57
483.21	14136.84
483.39	14033.85
483.57	13921.51
483.74	14277.27
483.92	14232.80
484.10	14256.20
484.28	14794.53
484.46	14665.80
484.64	15056.67
484.82	14508.98
485.00	14719.63
485.18	14860.06
485.35	15295.40
485.53	14965.39
485.71	14974.75
485.89	15276.68
486.07	15318.81
486.25	15482.64
486.43	15569.24
486.61	15594.99
486.78	15850.11
486.96	15939.05
487.14	16645.89
487.32	16311.19
487.50	16673.98
487.68	16615.46
487.85	16828.45
488.03	17062.51
488.21	17212.30
488.39	17268.47
488.57	17224.00
488.75	17378.48
488.92	17586.79
489.10	17682.75
489.28	17752.96
489.46	17898.08
489.64	18167.24
489.81	18602.58
489.99	18565.13
490.17	18686.84
490.35	18829.61
490.53	18593.22
490.70	18679.82
490.88	18663.43
491.06	19487.30
491.24	19087.07
491.41	19124.52
491.59	19126.86
491.77	19321.12
491.95	19520.07
492.13	19864.13
492.30	20205.84
492.48	19971.79
492.66	20107.54
492.84	20390.75
493.01	20360.32
493.19	19779.87
493.37	20357.98
493.54	20662.25
493.72	20669.27
493.90	20884.60
494.08	20985.24
494.25	21181.85
494.43	21179.51
494.61	21509.52
494.79	21542.29
494.96	21273.13
495.14	21113.97
495.32	21778.68
495.49	21876.99
495.67	21860.60
495.85	21961.25
496.02	22309.99
496.20	22731.28
496.38	22340.41
496.55	22511.27
496.73	23192.37
496.91	22607.23
497.09	22867.03
497.26	22930.23
497.44	23101.09
497.62	23044.91
497.79	23489.62
497.97	23026.19
498.14	23510.68
498.32	23817.29
498.50	23545.79
498.67	24034.96
498.85	23786.86
499.03	24212.84
499.20	24341.57
499.38	24175.39
499.56	24311.14
499.73	24542.86
499.91	24795.64
500.08	24610.73
500.26	24503.07
500.44	24559.24
500.61	24915.00
500.79	24748.82
500.97	24849.47
501.14	25493.12
501.32	25362.04
501.49	25212.25
501.67	25036.71
501.84	25759.94
502.02	25771.64
502.20	25876.96
502.37	25685.04
502.55	26192.94
502.72	25844.20
502.90	26073.57
503.07	25706.10
503.25	26033.78
503.43	26157.83
503.60	26176.55
503.78	26302.94
503.95	26132.08
504.13	26541.68
504.30	26611.89
504.48	26637.64
504.65	27016.80
504.83	27080.00
505.01	27082.34
505.18	26984.04
505.36	27435.76
505.53	27431.08
505.71	27386.61
505.88	27768.12
506.06	26946.59
506.23	27704.92
506.41	27374.91
506.58	27639.39
506.76	27922.59
506.93	28126.22
507.11	27735.35
507.28	27779.82
507.46	27564.49
507.63	28177.71
507.81	28243.24
507.98	28507.72
508.16	28531.13
508.33	28294.74
508.50	28563.90
508.68	28746.46
508.85	28877.53
509.03	29078.82
509.20	28999.24
509.38	29125.63
509.55	28936.04
509.73	29563.31
509.90	29223.93
510.08	28940.72
510.25	29099.88
510.42	29467.34
510.60	29474.37
510.77	29296.49
510.95	29940.13
511.12	29432.24
511.30	29605.44
511.47	30174.19
511.64	29811.40
511.82	30195.25
511.99	30265.47
512.17	30127.38
512.34	30607.19
512.51	30380.15
512.69	30752.30
512.86	30630.59
513.04	30768.68
513.21	30815.49
513.38	30822.51
513.56	30831.88
513.73	30426.96
513.90	31089.34
514.08	30733.57
514.25	31051.89
514.43	31028.48
514.60	31037.84
514.77	31288.28
514.95	31601.91
515.12	31379.56
515.29	31550.42
515.47	31660.43
515.64	31995.12
515.81	31517.65
515.99	31590.21
516.16	32091.09
516.33	31821.92
516.51	32144.92
516.68	31370.20
516.85	31627.66
517.03	31838.31
517.20	32023.21
517.37	32084.06
517.54	32622.39
517.72	32425.78
517.89	32496.00
518.06	32205.77
518.24	32004.49
518.41	32144.92
518.58	32285.35
518.75	32617.71
518.93	32938.36
519.10	32872.82
519.27	32903.25
519.45	33420.51
519.62	33200.50
519.79	32968.79
519.96	33282.42
520.14	33472.00
520.31	33312.84
520.48	33266.03
520.65	33322.21
520.83	33652.22
521.00	33689.67
521.17	33984.58
521.34	34101.61
521.52	33696.69
521.69	34232.68
521.86	33954.15
522.03	34178.84
522.20	34052.45
522.38	34455.03
522.55	34326.30
522.72	34132.03
522.89	34401.19
523.07	34373.11
523.24	34448.00
523.41	34504.18
523.58	34668.02
523.75	35026.12
523.92	34866.96
524.10	35035.48
524.27	35075.27
524.44	35379.54
524.61	35400.60
524.78	34998.03
524.96	35143.14
525.13	35597.21
525.30	35531.67
525.47	35171.23
525.64	35325.71
525.81	35751.68
525.98	35562.10
526.16	35470.82
526.33	35494.22
526.50	35655.72
526.67	35543.38
526.84	35306.98
527.01	35351.45
527.18	35803.17
527.36	36086.38
527.53	35908.50
527.70	36329.80
527.87	36432.78
528.04	36264.26
528.21	36451.50
528.38	36144.89
528.55	36460.87
528.72	36137.87
528.89	36631.72
529.07	36533.42
529.24	36847.05
529.41	36828.33
529.58	36573.21
529.75	36879.82
529.92	36762.79
530.09	36706.62
530.26	37214.52
530.43	37060.04
530.60	36790.88
530.77	37298.78
530.94	37467.30
531.11	37179.41
531.28	37551.56
531.46	37425.17
531.63	37544.53
531.80	37427.51
531.97	37464.96
532.14	37614.75
532.31	36823.65
532.48	37525.81
532.65	37794.97
532.82	37237.92
532.99	37352.61
533.16	37598.37
533.33	37558.58
533.50	37895.61
533.67	38143.71
533.84	37263.67
534.01	38225.63
534.18	37876.89
534.35	37900.29
534.52	38010.30
534.69	38312.23
534.86	38288.82
535.03	38047.75
535.20	38836.51
535.37	38745.23
535.54	38689.06
535.71	38464.36
535.88	38656.29
536.05	38440.96
536.22	38569.69
536.38	38829.49
536.55	38602.46
536.72	38459.68
536.89	38815.44
537.06	38445.64
537.23	38785.02
537.40	38490.11
537.57	38864.60
537.74	39194.61
537.91	39278.87
538.08	39044.82
538.25	39168.87
538.42	39302.28
538.59	39475.48
538.75	38969.92
538.92	39016.73
539.09	39150.14
539.26	39278.87
539.43	39295.25
539.60	39466.11
539.77	39648.68
539.94	39414.62
540.11	39428.66
540.28	39473.13
540.44	39232.06
540.61	39665.06
540.78	39281.21
540.95	39749.32
541.12	39676.76
541.29	39957.63
541.46	39711.87
541.62	40013.80
541.79	39885.07
541.96	39981.03
542.13	39852.30
542.30	40294.66
542.47	40065.29
542.63	40170.61
542.80	40165.93
542.97	40708.94
543.14	40800.22
543.31	40744.05
543.48	40566.16
543.64	41202.79
543.81	40744.05
543.98	40624.68
544.15	40634.04
544.32	41198.11
544.48	41258.96
544.65	40774.47
544.82	40905.54
544.99	40353.18
545.16	40776.81
545.32	40964.06
545.49	41181.73
545.66	41200.45
545.83	41172.36
546.00	41399.40
546.16	41198.11
546.33	41060.02
546.50	40472.54
546.67	41081.08
546.83	40795.54
547.00	41104.49
547.17	41303.43
547.34	41085.76
547.50	41570.25
547.67	41607.70
547.84	41813.67
548.00	42080.49
548.17	41935.38
548.34	41801.97
548.51	41429.82
548.67	41738.77
548.84	41958.78
549.01	41963.46
549.18	41539.83
549.34	41851.12
549.51	42071.13
549.68	42162.41
549.84	42330.93
550.01	42216.24
550.18	41855.80
550.34	41951.76
550.51	42349.65
550.68	42066.45
550.84	41588.98
551.01	41993.89
551.18	42178.79
551.34	41975.17
551.51	42361.36
551.68	42504.13
551.84	42525.19
552.01	42153.05
552.18	42036.02
552.34	42134.32
552.51	42469.02
552.68	42204.54
552.84	42813.08
553.01	42424.55
553.18	42705.41
553.34	42377.74
553.51	42553.28
553.67	42766.27
553.84	42693.71
554.01	42677.33
554.17	42782.65
554.34	42923.08
554.51	43136.07
554.67	43316.29
554.84	43093.94
555.00	42993.30
555.17	42674.99
555.33	42777.97
555.50	42859.89
555.67	43082.24
555.83	42522.85
556.00	43189.91
556.16	43835.89
556.33	42663.28
556.50	43306.93
556.66	43419.28
556.83	43093.94
556.99	43311.61
557.16	43587.80
557.32	43503.54
557.49	43187.56
557.65	43620.56
557.82	42899.68
557.98	43049.47
558.15	43419.28
558.32	43175.86
558.48	43435.66
558.65	43386.51
558.81	43515.24
558.98	43288.21
559.14	43655.67
559.31	43447.36
559.47	43756.32
559.64	44030.16
559.80	44002.07
559.97	43819.51
560.13	43604.18
560.30	43381.83
560.46	43976.33
560.63	43555.03
560.79	43915.47
560.96	43873.34
561.12	43552.69
561.29	43735.25
561.45	43484.81
561.61	43899.09
561.78	43924.83
561.94	43435.66
562.11	43599.50
562.27	43337.36
562.44	43494.18
562.60	43737.59
562.77	43985.69
562.93	43777.38
563.10	44002.07
563.26	43615.88
563.42	43714.19
563.59	43922.49
563.75	43646.31
563.92	44179.95
564.08	44275.91
564.24	44004.41
564.41	44512.31
564.57	43899.09
564.74	44378.90
564.90	43810.15
565.07	44194.00
565.23	43913.13
565.39	43803.13
565.56	44201.02
565.72	43468.43
565.88	44177.61
566.05	44456.14
566.21	44294.64
566.38	44411.67
566.54	44205.70
566.70	44320.38
566.87	44765.09
567.03	44418.69
567.19	44683.17
567.36	44315.70
567.52	43920.15
567.68	44416.35
567.85	44442.09
568.01	44505.29
568.17	44563.80
568.34	44500.61
568.50	44105.06
568.66	43763.34
568.83	44418.69
568.99	43889.73
569.15	44194.00
569.32	44158.89
569.48	43973.98
569.64	44741.68
569.81	44196.34
569.97	44589.55
570.13	44292.30
570.30	44348.47
570.46	44282.94
570.62	44102.71
570.78	43878.02
570.95	44034.84
571.11	44617.63
571.27	44397.62
571.43	44491.24
571.60	45120.85
571.76	44704.23
571.92	44329.75
572.09	44282.94
572.25	44481.88
572.41	44531.03
572.57	44636.36
572.74	44978.07
572.90	44802.53
573.06	44629.34
573.22	44313.36
573.38	44524.01
573.55	44374.22
573.71	44332.09
573.87	44500.61
574.03	44268.89
574.20	44715.93
574.36	44421.03
574.52	44741.68
574.68	44821.26
574.84	44786.15
575.01	44591.89
575.17	44446.77
575.33	44245.49
575.49	44229.10
575.65	44879.77
575.82	45031.91
575.98	44542.74
576.14	44776.79
576.30	44947.65
576.46	44428.05
576.62	44222.08
576.79	44809.56
576.95	44589.55
577.11	44762.75
577.27	44641.04
577.43	44772.11
577.59	44774.45
577.75	45319.79
577.92	44729.98
578.08	44545.08
578.24	44055.90
578.40	44439.75
578.56	44486.56
578.72	44774.45
578.88	44603.59
579.04	44392.94
579.21	44823.60
579.37	44371.88
579.53	44959.35
579.69	44332.09
579.85	44797.85
580.01	44781.47
580.17	44615.29
580.33	45130.21
580.49	45294.05
580.65	44746.36
580.82	45034.25
580.98	44376.56
581.14	44732.32
581.30	45247.24
581.46	44999.14
581.62	44648.06
581.78	45059.99
581.94	44971.05
582.10	44659.76
582.26	44786.15
582.42	44816.58
582.58	44938.29
582.74	44898.50
582.90	44713.59
583.06	44952.33
583.22	45099.78
583.38	45326.81
583.54	44975.73
583.70	44755.72
583.86	44636.36
584.02	44357.83
584.18	44577.84
584.34	44851.69
584.50	45123.19
584.66	44949.99
584.82	44811.90
584.98	44926.58
585.14	44879.77
585.30	44725.30
585.46	45067.02
585.62	44266.55
585.78	44722.96
585.94	44746.36
586.10	44289.96
586.26	44245.49
586.42	44645.72
586.58	44861.05
586.74	44638.70
586.90	44683.17
587.06	44741.68
587.22	44662.10
587.38	44648.06
587.54	45247.24
587.70	45144.25
587.86	45029.57
588.02	44671.46
588.18	45305.75
588.34	45221.49
588.49	45141.91
588.65	44659.76
588.81	44608.27
588.97	44514.65
589.13	44369.54
589.29	44737.00
589.45	45343.20
589.61	45158.30
589.77	45333.84
589.93	44952.33
590.08	44964.03
590.24	45116.17
590.40	45177.02
590.56	45081.06
590.72	45074.04
590.88	44849.35
591.04	45170.00
591.20	45219.15
591.35	44968.71
591.51	45352.56
591.67	45069.36
591.83	44816.58
591.99	45141.91
592.15	44547.42
592.31	45221.49
592.46	44938.29
592.62	44886.79
592.78	44968.71
592.94	45308.09
593.10	44493.58
593.26	45422.78
593.41	44884.45
593.57	44957.01
593.73	45272.98
593.89	45132.55
594.05	45235.53
594.20	44751.04
594.36	45518.74
594.52	44961.69
594.68	45120.85
594.84	45069.36
594.99	45064.67
595.15	44879.77
595.31	45237.87
595.47	45207.45
595.62	45003.82
595.78	45357.24
595.94	45502.35
596.10	45308.09
596.25	45165.32
596.41	45556.19
596.57	44989.78
596.73	45113.83
596.88	44952.33
597.04	44964.03
597.20	44940.63
597.36	45308.09
597.51	45406.39
597.67	45769.18
597.83	45642.79
597.99	45670.87
598.14	45682.58
598.30	45340.86
598.46	45212.13
598.61	44828.28
598.77	45282.34
598.93	44954.67
599.09	44999.14
599.24	45694.28
599.40	45312.77
599.56	45446.18
599.71	45361.92
599.87	45727.05
600.03	45324.47
600.18	45139.57
600.34	45492.99
600.50	45511.72
600.65	44837.64
600.81	45542.14
600.97	45778.54
601.12	45331.50
601.28	45815.99
601.44	45057.65
601.59	45422.78
601.75	44774.45
601.91	45111.49
602.06	44973.39
602.22	45598.32
602.37	45233.19
602.53	45511.72
602.69	45780.88
602.84	45347.88
603.00	45223.83
603.16	45029.57
603.31	45350.22
603.47	45104.46
603.62	45151.27
603.78	45350.22
603.94	45462.57
604.09	45511.72
604.25	45116.17
604.40	45490.65
604.56	45366.60
604.71	45162.98
604.87	44900.84
605.03	45174.68
605.18	45193.40
605.34	45064.67
605.49	44765.09
605.65	45265.96
605.80	44751.04
605.96	45830.03
606.12	45588.95
606.27	45368.94
606.43	45298.73
606.58	45099.78
606.74	45034.25
606.89	44933.60
607.05	45055.31
607.20	45013.18
607.36	45251.92
607.51	45081.06
607.67	45158.30
607.82	45179.36
607.98	44924.24
608.13	44870.41
608.29	44917.22
608.44	44535.71
608.60	44828.28
608.75	44802.53
608.91	45099.78
609.06	44751.04
609.22	44825.94
609.37	44816.58
609.53	44760.40
609.68	45134.89
609.84	44811.90
609.99	44924.24
610.15	44699.55
610.30	44369.54
610.46	44502.95
610.61	44657.42
610.76	44737.00
610.92	44835.30
611.07	44346.13
611.23	44357.83
611.38	44741.68
611.54	44224.42
611.69	44168.25
611.84	44556.78
612.00	44624.65
612.15	44552.10
612.31	44254.85
612.46	44416.35
612.62	45001.48
612.77	44912.54
612.92	44802.53
613.08	44332.09
613.23	44392.94
613.39	44428.05
613.54	44172.93
613.69	44224.42
613.85	44839.98
614.00	44210.38
614.15	44729.98
614.31	44304.00
614.46	44528.69
614.62	44289.96
614.77	44605.93
614.92	44294.64
615.08	44435.07
615.23	43934.20
615.38	44341.45
615.54	43981.01
615.69	44334.43
615.84	43667.37
616.00	44378.90
616.15	44521.67
616.30	44095.69
616.46	43899.09
616.61	44072.29
616.76	43786.74
616.92	43742.27
617.07	43351.40
617.22	43660.35
617.37	43807.81
617.53	43950.58
617.68	43992.71
617.83	43892.07
617.99	43718.87
618.14	43840.57
618.29	43847.60
618.45	43438.00
618.60	43845.26
618.75	43697.80
618.90	43480.13
619.06	43737.59
619.21	43585.46
619.36	43742.27
619.51	43456.73
619.67	43332.68
619.82	43569.07
619.97	43922.49
620.12	43597.16
620.28	43271.82
620.43	43215.65
620.58	43124.37
620.73	43187.56
620.89	43473.11
621.04	43604.18
621.19	43105.65
621.34	43000.32
621.49	42756.91
621.65	43285.87
621.80	43203.95
621.95	43042.45
622.10	43276.51
622.25	42761.59
622.41	42733.50
622.56	42927.77
622.71	43203.95
622.86	42749.88
623.01	43430.98
623.16	43543.33
623.32	43325.66
623.47	43253.10
623.62	43531.62
623.77	42852.87
623.92	42834.14
624.07	42717.12
624.23	42670.31
624.38	42782.65
624.53	42937.13
624.68	42679.67
624.83	43077.56
624.98	43070.54
625.13	42796.70
625.29	42855.21
625.44	42471.36
625.59	42529.87
625.74	42525.19
625.89	42033.68
626.04	42234.97
626.19	42499.45
626.34	42483.06
626.49	42707.76
626.65	42232.63
626.80	42653.92
626.95	42316.89
627.10	42419.87
627.25	41773.88
627.40	41867.50
627.55	41858.14
627.70	42033.68
627.85	41818.35
628.00	42024.32
628.15	42490.09
628.30	42099.22
628.45	42227.95
628.60	41783.24
628.76	41982.19
628.91	42146.03
629.06	41816.01
629.21	41677.92
629.36	41900.27
629.51	41549.19
629.66	41769.20
629.81	41593.66
629.96	41764.52
630.11	41902.61
630.26	42279.44
630.41	41851.12
630.56	41823.03
630.71	41801.97
630.86	41530.47
631.01	41495.36
631.16	41581.96
631.31	41167.68
631.46	40954.69
631.61	41647.49
631.76	41708.35
631.91	41420.46
632.06	41787.92
632.21	41476.63
632.36	41743.45
632.51	40870.43
632.66	41254.28
632.81	41198.11
632.96	41102.15
633.10	41069.38
633.25	40971.08
633.40	41256.62
633.55	41315.14
633.70	41359.61
633.85	40987.46
634.00	41317.48
634.15	40797.88
634.30	41069.38
634.45	41333.86
634.60	40952.35
634.75	41123.21
634.90	41350.24
635.05	41029.59
635.19	40769.79
635.34	41081.08
635.49	40891.50
635.64	40968.74
635.79	40685.53
635.94	40877.46
636.09	40685.53
636.24	40940.65
636.39	40409.35
636.53	40479.57
636.68	40748.73
636.83	40261.90
636.98	40968.74
637.13	40299.34
637.28	40519.35
637.43	40676.17
637.57	40575.53
637.72	40587.23
637.87	40404.67
638.02	40870.43
638.17	40285.30
638.32	40208.06
638.46	40091.04
638.61	40367.22
638.76	39922.52
638.91	40257.21
639.06	40282.96
639.20	40311.05
639.35	40238.49
639.50	40273.60
639.65	40535.74
639.80	39885.07
639.94	40259.55
640.09	40179.98
640.24	39634.63
640.39	39957.63
640.54	39676.76
640.68	39627.61
640.83	40091.04
640.98	39901.45
641.13	39761.02
641.27	40245.51
641.42	39737.62
641.57	40254.87
641.72	40088.70
641.86	39552.71
642.01	39508.24
642.16	39873.37
642.31	38911.41
642.45	39576.12
642.60	39342.06
642.75	39189.93
642.90	39126.74
643.04	39379.51
643.19	39618.25
643.34	39852.30
643.48	39557.39
643.63	39456.75
643.78	39192.27
643.93	39042.48
644.07	38906.73
644.22	39110.35
644.37	39037.80
644.51	38888.00
644.66	38918.43
644.81	39517.60
644.95	39203.97
645.10	39480.16
645.25	39564.42
645.39	39318.66
645.54	39543.35
645.69	39292.91
645.83	39117.37
645.98	39229.72
646.13	39028.43
646.27	39330.36
646.42	38986.30
646.57	39206.31
646.71	38880.98
646.86	39208.65
647.00	39239.08
647.15	39026.09
647.30	39255.46
647.44	39168.87
647.59	39009.71
647.74	38726.50
647.88	38700.76
648.03	38637.56
648.17	38635.22
648.32	38543.94
648.47	38417.55
648.61	38504.15
648.76	38618.84
648.90	38689.06
649.05	38335.63
649.20	38974.60
649.34	38815.44
649.49	38705.44
649.63	38665.65
649.78	38272.44
649.92	38478.41
650.07	38827.15
650.21	38274.78
650.36	38611.82
650.51	38548.62
650.65	38864.60
650.80	38752.25
650.94	38347.34
651.09	38366.06
651.23	38504.15
651.38	37909.66
651.52	38110.94
651.67	38600.12
651.81	38340.32
651.96	38115.62
652.10	37841.78
652.25	37621.77
652.39	38075.84
652.54	37865.19
652.68	37673.26
652.83	38040.73
652.97	37979.87
653.12	37806.67
653.26	37830.08
653.41	38347.34
653.55	37862.85
653.70	37794.97
653.84	37818.38
653.99	37652.20
654.13	37867.53
654.27	37682.62
654.42	37652.20
654.56	37488.36
654.71	37731.78
654.85	38075.84
655.00	37315.16
655.14	37516.45
655.29	37481.34
655.43	37223.88
655.57	37242.60
655.72	37038.98
655.86	37083.45
656.01	36992.17
656.15	37013.23
656.30	37184.09
656.44	36889.18
656.58	37046.00
656.73	36964.08
656.87	36648.11
657.01	36596.62
657.16	36868.12
657.30	36678.54
657.45	36655.13
657.59	36753.43
657.73	36889.18
657.88	36973.44
658.02	36945.36
658.16	36715.98
658.31	37055.36
658.45	37429.85
658.60	36786.20
658.74	37216.86
658.88	36879.82
659.03	36711.30
659.17	36498.31
659.31	36409.37
659.46	36414.05
659.60	36694.92
659.74	36287.67
659.89	36378.95
660.03	36116.81
660.17	36498.31
660.32	36189.36
660.46	36940.68
660.60	36739.39
660.74	36198.73
660.89	36533.42
661.03	35906.16
661.17	36121.49
661.32	35606.57
661.46	36060.63
661.60	35700.19
661.74	35618.27
661.89	35878.07
662.03	35842.96
662.17	35564.44
662.31	35344.43
662.46	35693.17
662.60	35941.27
662.74	35145.48
662.88	35857.01
663.03	35735.30
663.17	35550.40
663.31	35414.65
663.45	35243.79
663.60	34967.60
663.74	34881.00
663.88	35335.07
664.02	35189.95
664.17	34951.22
664.31	34834.19
664.45	35115.06
664.59	34824.83
664.73	34976.97
664.88	34604.82
665.02	34501.84
665.16	34780.36
665.30	34892.71
665.44	34848.24
665.59	34263.10
665.73	34199.91
665.87	34511.20
666.01	34712.49
666.15	34185.86
666.29	34520.56
666.44	34335.66
666.58	34312.25
666.72	34148.42
666.86	34160.12
667.00	34511.20
667.14	33888.62
667.28	34026.71
667.43	33860.53
667.57	33734.14
667.71	34075.86
667.85	33448.60
667.99	33717.76
668.13	33486.04
668.27	33383.06
668.41	34099.26
668.56	33766.91
668.70	33298.80
668.84	33322.21
668.98	33280.08
669.12	33537.54
669.26	33354.97
669.40	33020.28
669.54	33294.12
669.68	33237.95
669.82	33165.39
669.96	32811.97
670.10	32620.05
670.25	33347.95
670.39	32818.99
670.53	32882.19
670.67	32435.14
670.81	32818.99
670.95	32304.07
671.09	32496.00
671.23	33095.18
671.37	32767.50
671.51	32407.06
671.65	32376.63
671.79	32493.66
671.93	32163.64
672.07	32252.58
672.21	32086.40
672.35	31768.09
672.49	31842.99
672.63	32095.77
672.77	31765.75
672.91	32493.66
673.05	31601.91
673.19	31709.58
673.33	31295.30
673.47	31447.44
673.61	31384.24
673.75	31349.14
673.89	30934.86
674.03	31056.57
674.17	31152.53
674.31	31040.18
674.45	30754.64
674.59	30923.16
674.73	31215.72
674.87	31119.76
675.01	31260.20
675.15	31012.10
675.29	30771.02
675.43	30445.69
675.56	30419.94
675.70	30029.07
675.84	30005.67
675.98	29289.46
676.12	30157.80
676.26	29837.15
676.40	29839.49
676.54	30225.68
676.68	29860.55
676.82	29406.49
676.96	29951.84
677.10	29422.87
677.23	29336.27
677.37	29523.52
677.51	29504.79
677.65	29270.74
677.79	29069.45
677.93	28952.43
678.07	28861.15
678.21	28570.92
678.34	28945.41
678.48	28655.18
678.62	28776.89
678.76	28718.37
678.90	28357.93
679.04	28594.32
679.18	28374.31
679.31	27861.74
679.45	28320.48
679.59	27445.12
679.73	27892.16
679.87	27819.61
680.00	28034.94
680.14	27388.95
680.28	27931.95
680.42	27487.25
680.56	27543.42
680.70	27435.76
680.83	27253.20
680.97	27194.68
681.11	27122.13
681.25	27096.38
681.39	26988.72
681.52	26885.73
681.66	27339.80
681.80	26782.75
681.94	26609.55
682.07	26618.91
682.21	26536.99
682.35	26103.99
682.49	26274.85
682.62	26637.64
682.76	26122.72
682.90	25986.97
683.04	26071.23
683.17	25993.99
683.31	26108.68
683.45	26050.16
683.59	25722.49
683.72	25591.42
683.86	25205.23
684.00	25312.89
684.13	25568.01
684.27	25158.42
684.41	25385.45
684.55	24858.83
684.68	24898.62
684.82	25067.14
684.96	24847.13
685.09	24797.98
685.23	24315.83
685.37	24535.84
685.50	24676.27
685.64	24683.29
685.78	24379.02
685.91	24704.35
686.05	24215.18
686.19	24091.13
686.32	23859.42
686.46	23875.80
686.60	23601.96
686.73	23494.30
686.87	23360.89
687.01	23335.14
687.14	23283.65
687.28	23248.54
687.42	23360.89
687.55	22834.27
687.69	22979.38
687.82	22946.61
687.96	22843.63
688.10	22785.12
688.23	22515.95
688.37	22621.28
688.50	22560.42
688.64	22188.28
688.78	22595.53
688.91	22347.44
689.05	22448.08
689.18	22436.38
689.32	21888.69
689.46	22094.66
689.59	22122.74
689.73	22265.52
689.86	21916.78
690.00	21589.10
690.13	21741.24
690.27	21532.93
690.41	21333.98
690.54	21373.77
690.68	21287.17
690.81	21291.85
690.95	21139.72
691.08	21020.35
691.22	21202.91
691.35	20900.98
691.49	20872.90
691.62	21085.89
691.76	20680.97
691.89	21006.31
692.03	20664.59
692.16	20458.62
692.30	20365.00
692.43	20446.92
692.57	20283.08
692.70	20273.72
692.84	20166.06
692.97	19644.12
693.11	19807.95
693.24	19714.33
693.38	19386.66
693.51	19686.25
693.65	19704.97
693.78	19494.32
693.92	19475.60
694.05	19379.64
694.19	19197.07
694.32	19220.48
694.45	19414.74
694.59	19058.98
694.72	19246.23
694.86	19091.75
694.99	18775.78
695.13	18616.62
695.26	18396.61
695.39	18340.44
695.53	18604.92
695.66	18586.19
695.80	18403.63
695.93	18218.73
696.07	17998.72
696.20	18253.84
696.33	18092.34
696.47	18085.32
696.60	17790.41
696.73	17893.40
696.87	17729.56
697.00	17598.49
697.14	17806.80
697.27	17518.91
697.40	17750.62
697.54	17593.81
697.67	17261.45
697.80	17238.05
697.94	17165.49
698.07	17144.42
698.21	17015.69
698.34	17132.72
698.47	16746.53
698.61	16552.27
698.74	16601.42
698.87	16620.14
699.01	16652.91
699.14	16290.13
699.27	16428.22
699.40	16531.20
699.54	16077.14
699.67	16046.71
699.80	16112.25
699.94	15922.66
700.07	16102.89
700.20	15976.50
700.34	15714.36
700.47	15981.18
700.60	16053.73
700.73	15981.18
700.87	15344.55
701.00	15414.77
701.13	15583.29
701.26	15508.39
701.40	15419.45
701.53	15267.31
701.66	15405.41
701.79	15105.82
701.93	15145.61
702.06	14972.41
702.19	14911.55
702.32	14986.45
702.46	14874.10
702.59	14787.50
702.72	14546.43
702.85	14696.22
702.99	14813.25
703.12	14682.18
703.25	14717.29
703.38	14516.00
703.51	14230.46
703.65	14387.27
703.78	14174.28
703.91	13984.70
704.04	13991.72
704.17	13998.74
704.31	13888.74
704.44	13579.79
704.57	13867.67
704.70	13687.45
704.83	13530.64
704.96	13647.66
705.10	13825.54
705.23	13741.29
>>>>>End Processed Spectral Data<<<<<
