SpectraSuite Data File
++++++++++++++++++++++++++++++++++++
Date: Fri Oct 25 10:43:27 EDT 2013
User: price-jones
Dark Spectrum Present: No
Reference Spectrum Present: No
Number of Sampled Component Spectra: 1
Spectrometers: USB2+H05261
Integration Time (usec): 100000 (USB2+H05261)
Spectra Averaged: 1 (USB2+H05261)
Boxcar Smoothing: 0 (USB2+H05261)
Correct for Electrical Dark: No (USB2+H05261)
Strobe/Lamp Enabled: No (USB2+H05261)
Correct for Detector Non-linearity: No (USB2+H05261)
Correct for Stray Light: No (USB2+H05261)
Number of Pixels in Processed Spectrum: 2048
>>>>>Begin Processed Spectral Data<<<<<
365.73	110.01
365.92	110.01
366.12	110.01
366.32	107.66
366.52	44.47
366.72	105.32
366.91	42.13
367.11	23.41
367.31	0.00
367.51	0.00
367.70	0.00
367.90	0.00
368.10	21.06
368.30	65.54
368.49	70.22
368.69	0.00
368.89	0.00
369.09	39.79
369.28	42.13
369.48	0.00
369.68	56.17
369.87	110.01
370.07	91.28
370.27	173.20
370.47	131.07
370.66	353.42
370.86	425.98
371.06	470.45
371.25	400.23
371.45	388.53
371.65	454.06
371.84	416.62
372.04	421.30
372.24	514.92
372.44	475.13
372.63	503.22
372.83	451.72
373.03	580.45
373.22	498.53
373.42	514.92
373.62	482.15
373.81	550.03
374.01	566.41
374.21	566.41
374.40	512.58
374.60	645.99
374.79	554.71
374.99	531.30
375.19	603.86
375.38	526.62
375.58	566.41
375.78	552.37
375.97	578.11
376.17	613.22
376.37	582.79
376.56	592.16
376.76	559.39
376.95	636.63
377.15	643.65
377.35	627.26
377.54	711.52
377.74	664.71
377.93	683.44
378.13	711.52
378.33	674.07
378.52	690.46
378.72	678.76
378.91	709.18
379.11	617.90
379.31	737.27
379.50	568.75
379.70	674.07
379.89	683.44
380.09	655.35
380.28	713.86
380.48	608.54
380.68	699.82
380.87	699.82
381.07	641.31
381.26	671.73
381.46	711.52
381.65	720.88
381.85	636.63
382.04	699.82
382.24	704.50
382.43	643.65
382.63	704.50
382.83	697.48
383.02	760.67
383.22	741.95
383.41	741.95
383.61	737.27
383.80	681.10
384.00	772.38
384.19	781.74
384.39	725.57
384.58	711.52
384.78	760.67
384.97	861.32
385.17	807.48
385.36	795.78
385.56	786.42
385.75	905.79
385.95	807.48
386.14	847.27
386.34	849.61
386.53	763.01
386.72	821.53
386.92	891.74
387.11	858.98
387.31	889.40
387.50	919.83
387.70	805.14
387.89	866.00
388.09	866.00
388.28	905.79
388.48	858.98
388.67	912.81
388.86	924.51
389.06	987.71
389.25	952.60
389.45	917.49
389.64	931.53
389.84	950.26
390.03	922.17
390.22	980.68
390.42	978.34
390.61	950.26
390.81	985.37
391.00	976.00
391.19	1146.86
391.39	997.07
391.58	1048.56
391.78	1102.39
391.97	966.64
392.16	910.47
392.36	994.73
392.55	1013.45
392.75	1022.81
392.94	980.68
393.13	1034.52
393.33	929.19
393.52	1029.84
393.71	1053.24
393.91	1107.07
394.10	985.37
394.29	1090.69
394.49	1193.67
394.68	1174.95
394.88	1282.61
395.07	1280.27
395.26	1277.93
395.46	1212.40
395.65	1203.04
395.84	1224.10
396.04	1198.35
396.23	1188.99
396.42	1181.97
396.62	1151.54
396.81	1231.12
397.00	1306.02
397.19	1224.10
397.39	1376.24
397.58	1263.89
397.77	1458.15
397.97	1373.89
398.16	1390.28
398.35	1320.06
398.55	1481.56
398.74	1437.09
398.93	1439.43
399.12	1533.05
399.32	1406.66
399.51	1554.12
399.70	1600.93
399.90	1486.24
400.09	1647.74
400.28	1554.12
400.47	1490.92
400.67	1650.08
400.86	1652.42
401.05	1629.01
401.24	1624.33
401.44	1757.74
401.63	1603.27
401.82	1624.33
402.01	1696.89
402.21	1710.93
402.40	1675.82
402.59	1710.93
402.78	1729.66
402.97	1799.87
403.17	1844.34
403.36	1675.82
403.55	1750.72
403.74	1820.94
403.93	1764.76
404.13	1785.83
404.32	1830.30
404.51	1839.66
404.70	1858.39
404.89	1914.56
405.09	2031.58
405.28	1839.66
405.47	2019.88
405.66	2005.84
405.85	1912.22
406.05	2085.42
406.24	1996.48
406.43	1963.71
406.62	1994.14
406.81	2059.67
407.00	2040.95
407.20	1956.69
407.39	1991.80
407.58	2146.27
407.77	2085.42
407.96	2167.34
408.15	2253.94
408.34	2113.50
408.54	2312.45
408.73	2242.23
408.92	2179.04
409.11	2176.70
409.30	2317.13
409.49	2239.89
409.68	2251.60
409.87	2237.55
410.07	2279.68
410.26	2314.79
410.45	2431.82
410.64	2415.43
410.83	2511.39
411.02	2495.01
411.21	2415.43
411.40	2574.59
411.59	2541.82
411.78	2438.84
411.98	2588.63
412.17	2640.12
412.36	2593.31
412.55	2626.08
412.74	2710.34
412.93	2740.77
413.12	2665.87
413.31	2806.30
413.50	2738.43
413.69	2747.79
413.88	2771.19
414.07	2813.32
414.26	2888.22
414.45	2841.41
414.64	2909.29
414.83	3087.17
415.02	2970.14
415.22	3047.38
415.41	3094.19
415.60	2963.12
415.79	3236.96
415.98	3316.54
416.17	3215.90
416.36	3070.78
416.55	3077.80
416.74	3328.24
416.93	3157.38
417.12	3323.56
417.31	3241.64
417.50	3288.45
417.69	3424.20
417.88	3459.31
418.07	3386.76
418.26	3400.80
418.45	3407.82
418.64	3424.20
418.83	3485.06
419.02	3536.55
419.21	3613.79
419.39	3571.66
419.58	3524.85
419.77	3538.89
419.96	3623.15
420.15	3576.34
420.34	3735.50
420.53	3829.12
420.72	3733.15
420.91	3733.15
421.10	3836.14
421.29	3749.54
421.48	3705.07
421.67	3765.92
421.86	3719.11
422.05	3770.60
422.24	3714.43
422.43	3815.07
422.61	3808.05
422.80	3779.97
422.99	3744.86
423.18	3824.44
423.37	3824.44
423.56	3728.47
423.75	3777.62
423.94	3801.03
424.13	3716.77
424.32	3861.88
424.50	3904.01
424.69	3971.89
424.88	4011.68
425.07	3646.55
425.26	3997.64
425.45	3889.97
425.64	3786.99
425.83	3833.80
426.01	3810.39
426.20	3885.29
426.39	3955.51
426.58	4039.76
426.77	3908.69
426.96	3815.07
427.15	3838.48
427.33	3992.95
427.52	4018.70
427.71	3960.19
427.90	4030.40
428.09	4086.58
428.28	3999.98
428.46	4138.07
428.65	4161.47
428.84	4156.79
429.03	4133.39
429.22	3953.16
429.40	4007.00
429.59	4037.42
429.78	3868.91
429.97	3901.67
430.16	4037.42
430.34	4236.37
430.53	4102.96
430.72	4140.41
430.91	4241.05
431.10	4315.95
431.28	4486.81
431.47	4507.87
431.66	4596.81
431.85	4519.57
432.03	4746.61
432.22	4669.37
432.41	4601.49
432.60	4664.69
432.79	4734.90
432.97	4779.37
433.16	4545.32
433.35	4524.26
433.54	4526.60
433.72	4631.92
433.91	4498.51
434.10	4681.07
434.28	4819.16
434.47	4615.54
434.66	4777.03
434.85	4755.97
435.03	4910.44
435.22	4966.62
435.41	5102.37
435.59	5029.81
435.78	5029.81
435.97	4880.02
436.16	5191.31
436.34	5107.05
436.53	5104.71
436.72	5167.90
436.90	4983.00
437.09	5210.03
437.28	5025.13
437.46	5034.49
437.65	5132.79
437.84	5125.77
438.02	5067.26
438.21	5055.56
438.40	5015.77
438.58	5284.93
438.77	5266.21
438.96	5404.30
439.14	5392.59
439.33	5397.28
439.52	5514.30
439.70	5467.49
439.89	5701.54
440.08	5521.32
440.26	5535.37
440.45	5664.10
440.63	5736.65
440.82	5692.18
441.01	5851.34
441.19	6031.56
441.38	6127.52
441.57	6045.60
441.75	6092.41
441.94	6211.78
442.12	6150.93
442.31	6267.95
442.50	6260.93
442.68	6310.08
442.87	6160.29
443.05	6551.16
443.24	6352.21
443.43	6244.55
443.61	6483.28
443.80	6560.52
443.98	6183.70
444.17	6146.25
444.35	6314.77
444.54	6455.20
444.73	6469.24
444.91	6384.98
445.10	6326.47
445.28	6190.72
445.47	6392.00
445.65	6399.02
445.84	6487.96
446.02	6562.86
446.21	6333.49
446.39	6523.07
446.58	6600.31
446.77	6516.05
446.95	6382.64
447.14	6658.82
447.32	6693.93
447.51	6574.56
447.69	6541.80
447.88	6518.39
448.06	6656.48
448.25	6626.06
448.43	6506.69
448.62	6642.44
448.80	6480.94
448.99	6738.40
449.17	6707.98
449.36	6679.89
449.54	6850.75
449.73	7002.88
449.91	7061.40
450.10	7002.88
450.28	7049.69
450.46	6920.96
450.65	7098.84
450.83	7115.23
451.02	7115.23
451.20	6981.82
451.39	7049.69
451.57	7183.10
451.76	7108.21
451.94	7052.03
452.13	7112.89
452.31	7131.61
452.49	6911.60
452.68	6942.03
452.86	7232.26
453.05	7073.10
453.23	7150.34
453.42	7253.32
453.60	7218.21
453.78	7316.51
453.97	7239.28
454.15	7250.98
454.34	7314.17
454.52	7562.27
454.70	7300.13
454.89	7461.63
455.07	7503.76
455.26	7482.69
455.44	7555.25
455.62	7421.84
455.81	7709.72
455.99	7688.66
456.17	7812.71
456.36	7573.97
456.54	7716.75
456.73	7838.45
456.91	8030.38
457.09	7953.14
457.28	8107.62
457.46	7744.83
457.64	8072.51
457.83	7953.14
458.01	7913.35
458.19	7992.93
458.38	7754.19
458.56	8203.58
458.74	8131.02
458.93	8231.66
459.11	8147.40
459.29	8102.93
459.48	8114.64
459.66	8147.40
459.84	8259.75
460.03	8402.52
460.21	8592.11
460.39	8376.78
460.57	8451.67
460.76	8533.59
460.94	8425.93
461.12	8381.46
461.31	8451.67
461.49	8425.93
461.67	8475.08
461.85	8695.09
462.04	8594.45
462.22	9130.43
462.40	8982.98
462.59	8688.07
462.77	8793.39
462.95	8842.54
463.13	8709.13
463.32	8725.52
463.50	8849.57
463.68	8786.37
463.86	8861.27
464.05	8762.97
464.23	8718.50
464.41	8964.25
464.59	8645.94
464.78	9121.07
464.96	8823.82
465.14	9025.11
465.32	9111.71
465.50	9310.65
465.69	9125.75
465.87	9160.86
466.05	9071.92
466.23	9015.74
466.41	9076.60
466.60	9111.71
466.78	9078.94
466.96	8943.19
467.14	9128.09
467.32	9151.49
467.51	9453.42
467.69	9029.79
467.87	9160.86
468.05	9408.95
468.23	9308.31
468.41	9191.28
468.60	9336.40
468.78	9444.06
468.96	9577.47
469.14	9476.83
469.32	9673.43
469.50	9315.33
469.69	9593.86
469.87	9778.76
470.05	9610.24
470.23	9727.27
470.41	9628.96
470.59	9858.34
470.77	9626.62
470.95	9823.23
471.14	10097.07
471.32	9640.67
471.50	10171.97
471.68	10171.97
471.86	10317.08
472.04	10218.78
472.22	10544.11
472.40	10073.67
472.58	10253.89
472.77	10097.07
472.95	10258.57
473.13	10726.68
473.31	10462.19
473.49	10480.92
473.67	10743.06
473.85	10349.85
474.03	10789.87
474.21	10860.09
474.39	10878.81
474.57	11077.76
474.75	11012.22
474.93	11171.38
475.12	10932.64
475.30	11019.24
475.48	11414.79
475.66	11246.27
475.84	11002.86
476.02	11194.78
476.20	11164.36
476.38	11552.88
476.56	11707.36
476.74	11548.20
476.92	11571.61
477.10	11573.95
477.28	11934.39
477.46	11751.83
477.64	11854.81
477.82	12187.17
478.00	12439.95
478.18	12341.64
478.36	12407.18
478.54	12652.94
478.72	12465.69
478.90	12727.83
479.08	12894.01
479.26	13053.17
479.44	12748.90
479.62	12828.48
479.80	13135.09
479.98	13167.85
480.16	13434.68
480.34	13535.32
480.52	13500.21
480.70	13369.14
480.88	13479.15
481.06	13748.31
481.24	13652.34
481.41	13973.00
481.59	14188.33
481.77	14132.15
481.95	14064.28
482.13	14216.41
482.31	14312.38
482.49	14595.58
482.67	14497.28
482.85	14703.25
483.03	14778.14
483.21	15183.06
483.39	15082.41
483.57	15115.18
483.74	15183.06
483.92	15445.20
484.10	15445.20
484.28	15674.57
484.46	15953.09
484.64	16360.34
484.82	15943.73
485.00	16135.65
485.18	16025.65
485.35	16236.30
485.53	16224.59
485.71	16060.76
485.89	16423.54
486.07	16299.49
486.25	16746.53
486.43	16507.80
486.61	16561.63
486.78	16814.41
486.96	17247.41
487.14	17518.91
487.32	17544.66
487.50	17399.54
487.68	17497.84
487.85	18061.91
488.03	18324.05
488.21	18150.85
488.39	18253.84
488.57	18120.43
488.75	18719.60
488.92	18586.19
489.10	19005.15
489.28	19381.98
489.46	19058.98
489.64	19508.37
489.81	19964.77
489.99	19742.42
490.17	20112.22
490.35	20128.61
490.53	20011.58
490.70	19950.73
490.88	20308.83
491.06	20517.14
491.24	20322.87
491.41	20645.87
491.59	20425.86
491.77	20613.10
491.95	20620.12
492.13	20741.83
492.30	21427.60
492.48	21383.13
492.66	21546.97
492.84	21656.98
493.01	21577.40
493.19	21860.60
493.37	22085.30
493.54	21771.66
493.72	22061.89
493.90	22335.73
494.08	22703.20
494.25	22649.36
494.43	22864.69
494.61	23262.58
494.79	23164.28
494.96	23307.05
495.14	22843.63
495.32	23311.74
495.49	23304.71
495.67	23480.25
495.85	23981.13
496.02	24006.87
496.20	24058.37
496.38	24189.44
496.55	24414.13
496.73	24500.73
496.91	24430.51
497.09	24624.78
497.26	24711.38
497.44	24617.75
497.62	24636.48
497.79	25144.38
497.97	24964.15
498.14	25165.44
498.32	25450.99
498.50	25135.01
498.67	25848.88
498.85	25935.48
499.03	25781.00
499.20	25809.09
499.38	25979.95
499.56	26272.51
499.73	25986.97
499.91	26033.78
500.08	26242.09
500.26	26082.93
500.44	26316.98
500.61	26270.17
500.79	26445.71
500.97	26558.06
501.14	26801.47
501.32	26768.71
501.49	26609.55
501.67	26941.91
501.84	27295.33
502.02	27040.21
502.20	27482.57
502.37	27323.41
502.55	27557.47
502.72	27562.15
502.90	27667.47
503.07	27473.21
503.25	27733.01
503.43	27641.73
503.60	27868.76
503.78	27934.29
503.95	27751.73
504.13	27969.40
504.30	28273.67
504.48	28154.30
504.65	28238.56
504.83	28844.76
505.01	28968.81
505.18	28535.81
505.36	28851.78
505.53	28872.85
505.71	29116.26
505.88	29247.33
506.06	28917.32
506.23	29174.78
506.41	29450.96
506.58	29537.56
506.76	29603.10
506.93	29507.13
507.11	29619.48
507.28	29713.10
507.46	29275.42
507.63	29869.92
507.81	30073.54
507.98	30099.29
508.16	29867.58
508.33	30150.78
508.50	30195.25
508.68	30462.07
508.85	30644.63
509.03	30679.74
509.20	30764.00
509.38	30625.91
509.55	30806.13
509.73	30752.30
509.90	30967.63
510.08	30876.35
510.25	30670.38
510.42	31058.91
510.60	31384.24
510.77	31597.23
510.95	31496.59
511.12	31431.05
511.30	31725.96
511.47	31613.62
511.64	32151.94
511.82	32168.32
511.99	31821.92
512.17	32121.51
512.34	31571.49
512.51	32549.83
512.69	32397.70
512.86	32299.39
513.04	32240.88
513.21	32261.94
513.38	32741.75
513.56	32545.15
513.73	32273.65
513.90	32517.06
514.08	32673.88
514.25	32383.65
514.43	32673.88
514.60	32622.39
514.77	32606.00
514.95	33195.82
515.12	32765.16
515.29	33369.02
515.47	33511.79
515.64	33406.47
515.81	33724.78
515.99	33467.32
516.16	33495.41
516.33	32795.59
516.51	32910.27
516.68	32968.79
516.85	33046.02
517.03	33043.68
517.20	33479.02
517.37	34000.96
517.54	34031.39
517.72	33921.38
517.89	33354.97
518.06	33832.44
518.24	33820.74
518.41	34253.74
518.58	34188.21
518.75	34373.11
518.93	34480.77
519.10	34370.77
519.27	34359.06
519.45	34440.98
519.62	34539.29
519.79	34649.29
519.96	35056.54
520.14	35201.66
520.31	34562.69
520.48	34988.67
520.65	34656.31
520.83	35241.45
521.00	35606.57
521.17	35606.57
521.34	35452.09
521.52	35243.79
521.69	35414.65
521.86	35672.10
522.03	35723.60
522.20	36084.04
522.38	35789.13
522.55	35805.52
522.72	35639.34
522.89	36006.80
523.07	36362.56
523.24	36133.19
523.41	36491.29
523.58	36783.86
523.75	36849.39
523.92	36968.76
524.10	37111.53
524.27	36807.26
524.44	36627.04
524.61	36816.63
524.78	37212.18
524.96	37280.05
525.13	36952.38
525.30	37390.06
525.47	37277.71
525.64	37528.15
525.81	37474.32
525.98	36694.92
526.16	36847.05
526.33	36889.18
526.50	37141.96
526.67	36928.97
526.84	36811.95
527.01	37247.29
527.18	37113.87
527.36	37823.06
527.53	37942.42
527.70	38359.04
527.87	37591.34
528.04	38038.39
528.21	38108.60
528.38	38328.61
528.55	38323.93
528.72	38623.52
528.89	38078.18
529.07	38319.25
529.24	38108.60
529.41	38340.32
529.58	38220.95
529.75	38333.29
529.92	38644.59
530.09	38562.67
530.26	39000.35
530.43	39002.69
530.60	38195.20
530.77	38972.26
530.94	39152.48
531.11	39068.22
531.28	39325.68
531.46	39075.24
531.63	39058.86
531.80	39189.93
531.97	39037.80
532.14	39068.22
532.31	38944.17
532.48	39096.31
532.65	38920.77
532.82	38976.94
532.99	39433.35
533.16	39044.82
533.33	39285.89
533.50	39676.76
533.67	39564.42
533.84	39377.17
534.01	39625.27
534.18	39440.37
534.35	40210.40
534.52	39597.18
534.69	39739.96
534.86	39613.57
535.03	39927.20
535.20	39908.47
535.37	40147.21
535.54	40933.63
535.71	39896.77
535.88	40048.91
536.05	40418.71
536.22	40451.48
536.38	40292.32
536.55	40210.40
536.72	40142.53
536.89	39903.79
537.06	40034.86
537.23	40629.36
537.40	40491.27
537.57	40423.39
537.74	41020.23
537.91	41060.02
538.08	40854.05
538.25	40500.63
538.42	40449.14
538.59	41205.13
538.75	40058.27
538.92	40914.90
539.09	40722.98
539.26	40891.50
539.43	40945.33
539.60	41125.55
539.77	40793.20
539.94	41020.23
540.11	41181.73
540.28	41233.22
540.44	41256.62
540.61	40844.69
540.78	40973.42
540.95	41406.42
541.12	40926.61
541.29	41003.85
541.46	41088.10
541.62	41345.56
541.79	41698.98
541.96	41551.53
542.13	41858.14
542.30	41333.86
542.47	41457.91
542.63	41626.43
542.80	41738.77
542.97	41935.38
543.14	42005.59
543.31	42333.27
543.48	41986.87
543.64	42204.54
543.81	41982.19
543.98	42279.44
544.15	41837.08
544.32	42569.66
544.48	42777.97
544.65	42108.58
544.82	42454.98
544.99	42071.13
545.16	42433.91
545.32	42363.70
545.49	42794.36
545.66	42876.27
545.83	42534.56
546.00	42597.75
546.16	42754.57
546.33	42401.14
546.50	42508.81
546.67	43171.18
546.83	42398.80
547.00	42789.67
547.17	42829.46
547.34	42506.47
547.50	42948.83
547.67	43171.18
547.84	42721.80
548.00	43405.23
548.17	43393.53
548.34	43075.22
548.51	43421.62
548.67	43416.94
548.84	43463.75
549.01	42759.25
549.18	43189.91
549.34	43346.72
549.51	43707.16
549.68	43210.97
549.84	43700.14
550.01	43412.26
550.18	43377.15
550.34	43339.70
550.51	43615.88
550.68	43302.25
550.84	42852.87
551.01	43761.00
551.18	43962.28
551.34	43140.75
551.51	43636.95
551.68	43562.05
551.84	43089.26
552.01	44051.22
552.18	43885.04
552.34	43391.19
552.51	44093.35
552.68	43903.77
552.84	43646.31
553.01	44332.09
553.18	43522.26
553.34	44399.96
553.51	43985.69
553.67	44016.11
553.84	44273.57
554.01	44126.12
554.17	44786.15
554.34	44690.19
554.51	44032.50
554.67	44577.84
554.84	44135.48
555.00	44144.84
555.17	44439.75
555.33	44456.14
555.50	44568.48
555.67	44634.02
555.83	44020.80
556.00	44119.10
556.16	44952.33
556.33	44509.97
556.50	44788.49
556.66	44498.26
556.83	43730.57
556.99	44135.48
557.16	44402.30
557.32	44179.95
557.49	44648.06
557.65	44233.78
557.82	44786.15
557.98	44626.99
558.15	44502.95
558.32	44641.04
558.48	44837.64
558.65	44208.04
558.81	44191.65
558.98	44507.63
559.14	44493.58
559.31	44767.43
559.47	44797.85
559.64	44811.90
559.80	44814.24
559.97	44488.90
560.13	44313.36
560.30	44729.98
560.46	45052.97
560.63	44790.83
560.79	45240.21
560.96	45153.62
561.12	44818.92
561.29	44900.84
561.45	44708.91
561.61	45172.34
561.78	45008.50
561.94	44711.25
562.11	44830.62
562.27	44966.37
562.44	45031.91
562.60	44739.34
562.77	44975.73
562.93	45120.85
563.10	45434.48
563.26	45263.62
563.42	44872.75
563.59	45420.44
563.75	45415.76
563.92	45137.23
564.08	45214.47
564.24	45551.51
564.41	45081.06
564.57	45111.49
564.74	45198.09
564.90	45111.49
565.07	45347.88
565.23	45240.21
565.39	45390.01
565.56	45104.46
565.72	44755.72
565.88	45322.13
566.05	44975.73
566.21	45319.79
566.38	45165.32
566.54	45078.72
566.70	45434.48
566.87	45956.42
567.03	45249.58
567.19	46043.02
567.36	45612.36
567.52	45460.23
567.68	45317.45
567.85	45219.15
568.01	45249.58
568.17	44992.12
568.34	45574.91
568.50	45317.45
568.66	44875.09
568.83	45743.43
568.99	45329.16
569.15	45500.01
569.32	45422.78
569.48	45308.09
569.64	45481.29
569.81	45340.86
569.97	45394.69
570.13	45502.35
570.30	44737.00
570.46	45095.10
570.62	44858.71
570.78	44706.57
570.95	45071.70
571.11	45488.31
571.27	44598.91
571.43	45090.42
571.60	45471.93
571.76	45869.82
571.92	45490.65
572.09	45684.92
572.25	45504.70
572.41	45567.89
572.57	45535.12
572.74	45904.93
572.90	45696.62
573.06	45876.84
573.22	45607.68
573.38	45703.64
573.55	45460.23
573.71	45736.41
573.87	45471.93
574.03	44942.97
574.20	45277.66
574.36	45155.96
574.52	45872.16
574.68	45954.08
574.84	45708.32
575.01	45855.78
575.17	45677.90
575.33	45418.10
575.49	45418.10
575.65	45893.22
575.82	45792.58
575.98	45172.34
576.14	45607.68
576.30	45490.65
576.46	45874.50
576.62	45357.24
576.79	45411.07
576.95	45471.93
577.11	45713.00
577.27	45965.78
577.43	45490.65
577.59	45916.63
577.75	45586.61
577.92	45036.59
578.08	44765.09
578.24	45083.40
578.40	45460.23
578.56	45474.27
578.72	45485.97
578.88	45956.42
579.04	45745.77
579.21	44964.03
579.37	45921.31
579.53	45504.70
579.69	45425.12
579.85	45570.23
580.01	45436.82
580.17	45537.46
580.33	45743.43
580.49	45832.37
580.65	45640.45
580.82	45783.22
580.98	45483.63
581.14	44971.05
581.30	45713.00
581.46	45846.41
581.62	45741.09
581.78	45619.38
581.94	45680.24
582.10	45485.97
582.26	46148.34
582.42	45593.64
582.58	45385.33
582.74	45724.71
582.90	45780.88
583.06	45982.16
583.22	45951.74
583.38	45586.61
583.54	46258.35
583.70	45893.22
583.86	45757.47
584.02	45500.01
584.18	45745.77
584.34	45949.40
584.50	45940.04
584.66	45448.52
584.82	45406.39
584.98	45996.21
585.14	45645.13
585.30	45048.29
585.46	45888.54
585.62	45518.74
585.78	45830.03
585.94	45509.38
586.10	45343.20
586.26	45485.97
586.42	46143.66
586.58	45961.10
586.74	45404.05
586.90	45647.47
587.06	45673.21
587.22	45301.07
587.38	45478.95
587.54	45577.25
587.70	46541.55
587.86	46021.95
588.02	45481.29
588.18	46017.27
588.34	45462.57
588.49	45312.77
588.65	45378.31
588.81	44905.52
588.97	45698.96
589.13	45567.89
589.29	45200.43
589.45	45331.50
589.61	45460.23
589.77	45979.82
589.93	45989.19
590.08	45977.48
590.24	46033.66
590.40	46129.62
590.56	46019.61
590.72	45598.32
590.88	45387.67
591.04	46089.83
591.20	46216.22
591.35	46227.92
591.51	46478.36
591.67	45626.40
591.83	45886.20
591.99	45832.37
592.15	45425.12
592.31	45687.26
592.46	46026.63
592.62	45738.75
592.78	45900.25
592.94	45977.48
593.10	46003.23
593.26	46155.36
593.41	46167.07
593.57	45471.93
593.73	45705.98
593.89	45935.35
594.05	45837.05
594.20	45567.89
594.36	45942.38
594.52	45757.47
594.68	46050.04
594.84	45240.21
594.99	45942.38
595.15	45970.46
595.31	46227.92
595.47	45752.79
595.62	45979.82
595.78	46073.45
595.94	45940.04
596.10	46007.91
596.25	45965.78
596.41	46328.56
596.57	45478.95
596.73	46370.69
596.88	45663.85
597.04	45900.25
597.20	45785.56
597.36	46157.70
597.51	46167.07
597.67	46333.24
597.83	45750.45
597.99	46202.18
598.14	45823.01
598.30	45846.41
598.46	45848.75
598.61	46082.81
598.77	45940.04
598.93	46445.59
599.09	45869.82
599.24	45951.74
599.40	46206.86
599.56	46356.65
599.71	45916.63
599.87	46162.39
600.03	46005.57
600.18	46007.91
600.34	46045.36
600.50	45935.35
600.65	45511.72
600.81	46031.32
600.97	46000.89
601.12	45914.29
601.28	45902.59
601.44	45638.11
601.59	45848.75
601.75	45495.33
601.91	45703.64
602.06	45827.69
602.22	45787.90
602.37	46064.08
602.53	46078.13
602.69	46190.47
602.84	45626.40
603.00	46010.25
603.16	45801.94
603.31	45874.50
603.47	46129.62
603.62	45593.64
603.78	45888.54
603.94	45689.60
604.09	45916.63
604.25	45633.42
604.40	45769.18
604.56	46047.70
604.71	46195.15
604.87	45614.70
605.03	45841.73
605.18	45743.43
605.34	45773.86
605.49	45687.26
605.65	45801.94
605.80	45830.03
605.96	45521.08
606.12	45235.53
606.27	45858.12
606.43	45322.13
606.58	45759.81
606.74	45862.80
606.89	45492.99
607.05	45612.36
607.20	45663.85
607.36	45998.55
607.51	45895.56
607.67	45720.02
607.82	45844.07
607.98	45593.64
608.13	45642.79
608.29	45385.33
608.44	44942.97
608.60	45390.01
608.75	45617.04
608.91	45310.43
609.06	45607.68
609.22	45364.26
609.37	45294.05
609.53	45193.40
609.68	45825.35
609.84	45153.62
609.99	45691.94
610.15	45544.48
610.30	45298.73
610.46	44556.78
610.61	45303.41
610.76	45308.09
610.92	45141.91
611.07	45113.83
611.23	45123.19
611.38	45237.87
611.54	44720.62
611.69	44968.71
611.84	45085.74
612.00	45268.30
612.15	44645.72
612.31	45490.65
612.46	45055.31
612.62	45118.51
612.77	45050.63
612.92	45244.90
613.08	44828.28
613.23	45139.57
613.39	44432.73
613.54	44465.50
613.69	44790.83
613.85	44512.31
614.00	44945.31
614.15	44605.93
614.31	44947.65
614.46	44638.70
614.62	44395.28
614.77	44912.54
614.92	44893.82
615.08	44631.68
615.23	44584.86
615.38	44851.69
615.54	44442.09
615.69	44236.12
615.84	44346.13
616.00	44315.70
616.15	44531.03
616.30	44928.92
616.46	44332.09
616.61	43856.96
616.76	44238.47
616.92	43973.98
617.07	44201.02
617.22	44449.11
617.37	44545.08
617.53	44502.95
617.68	44704.23
617.83	44306.34
617.99	44601.25
618.14	44215.06
618.29	44568.48
618.45	44287.62
618.60	43922.49
618.75	43821.85
618.90	43847.60
619.06	43997.39
619.21	44367.20
619.36	44100.37
619.51	43709.50
619.67	43517.58
619.82	43442.68
619.97	43915.47
620.12	43122.03
620.28	43363.11
620.43	43681.42
620.58	44144.84
620.73	44128.46
620.89	43421.62
621.04	44016.11
621.19	44116.76
621.34	43791.42
621.49	43667.37
621.65	43421.62
621.80	43868.66
621.95	43583.12
622.10	43676.74
622.25	43140.75
622.41	43243.74
622.56	43360.76
622.71	43906.11
622.86	43505.88
623.01	42796.70
623.16	43999.73
623.32	43208.63
623.47	43264.80
623.62	43517.58
623.77	43225.01
623.92	43452.05
624.07	42897.34
624.23	42742.86
624.38	42848.19
624.53	43159.48
624.68	43550.35
624.83	43290.55
624.98	43271.82
625.13	42827.12
625.29	43000.32
625.44	42707.76
625.59	42782.65
625.74	42705.41
625.89	42593.07
626.04	42707.76
626.19	42703.07
626.34	42773.29
626.49	42955.85
626.65	42806.06
626.80	42581.37
626.95	42277.10
627.10	42337.95
627.25	43002.66
627.40	42253.69
627.55	42471.36
627.70	42176.45
627.85	42487.74
628.00	42674.99
628.15	42876.27
628.30	42344.97
628.45	42356.67
628.60	42719.46
628.76	42445.62
628.91	42351.99
629.06	42272.42
629.21	42005.59
629.36	41834.74
629.51	41738.77
629.66	42433.91
629.81	42057.09
629.96	42019.64
630.11	42029.00
630.26	42321.57
630.41	42213.90
630.56	41968.15
630.71	42153.05
630.86	41743.45
631.01	41502.38
631.16	41635.79
631.31	41666.22
631.46	41750.48
631.61	41593.66
631.76	41738.77
631.91	41860.48
632.06	41876.86
632.21	41832.39
632.36	41860.48
632.51	41596.00
632.66	41745.80
632.81	40968.74
632.96	41486.00
633.10	41357.27
633.25	41682.60
633.40	41331.52
633.55	41703.67
633.70	41806.65
633.85	41677.92
634.00	41226.20
634.15	41907.29
634.30	40999.16
634.45	41036.61
634.60	41673.24
634.75	41158.32
634.90	40561.48
635.05	41043.63
635.19	40989.80
635.34	41317.48
635.49	40989.80
635.64	40945.33
635.79	40950.01
635.94	40783.83
636.09	40985.12
636.24	40559.14
636.39	40879.80
636.53	41050.66
636.68	40671.49
636.83	40694.89
636.98	40554.46
637.13	40844.69
637.28	40947.67
637.43	41385.35
637.57	41151.30
637.72	41022.57
637.87	40732.34
638.02	41034.27
638.17	40879.80
638.32	40357.86
638.46	40149.55
638.61	40266.58
638.76	40250.19
638.91	40407.01
639.06	40605.95
639.20	40648.08
639.35	40617.66
639.50	40383.60
639.65	40662.13
639.80	40219.77
639.94	40128.48
640.09	40130.83
640.24	40133.17
640.39	40144.87
640.54	40102.74
640.68	40013.80
640.83	39800.81
640.98	39796.13
641.13	40076.99
641.27	40051.25
641.42	39950.60
641.57	40414.03
641.72	40044.23
641.86	39585.48
642.01	39744.64
642.16	39845.28
642.31	39920.18
642.45	39662.72
642.60	39859.32
642.75	39978.69
642.90	39880.39
643.04	39679.10
643.19	39585.48
643.34	39552.71
643.48	39250.78
643.63	39435.69
643.78	39704.85
643.93	39894.43
644.07	39681.44
644.22	38955.88
644.37	39459.09
644.51	39494.20
644.66	39372.49
644.81	39260.15
644.95	39576.12
645.10	39203.97
645.25	39206.31
645.39	39391.22
645.54	39498.88
645.69	38941.83
645.83	39243.76
645.98	39166.52
646.13	39412.28
646.27	39042.48
646.42	39150.14
646.57	38892.68
646.71	38899.70
646.86	39349.09
647.00	39054.18
647.15	38932.47
647.30	38890.34
647.44	38639.90
647.59	38754.59
647.74	38345.00
647.88	38429.26
648.03	39014.39
648.17	39019.07
648.32	38583.73
648.47	38653.95
648.61	38890.34
648.76	38710.12
648.90	39042.48
649.05	38845.87
649.20	38478.41
649.34	38621.18
649.49	38609.48
649.63	38749.91
649.78	38258.40
649.92	38012.64
650.07	38445.64
650.21	38223.29
650.36	38609.48
650.51	38494.79
650.65	39054.18
650.80	39063.54
650.94	38742.89
651.09	38213.93
651.23	37647.52
651.38	38003.28
651.52	38033.71
651.67	37699.01
651.81	37837.10
651.96	38202.22
652.10	38120.31
652.25	38132.01
652.39	37989.24
652.54	38139.03
652.68	37998.60
652.83	37844.12
652.97	38277.12
653.12	37853.48
653.26	37977.53
653.41	37865.19
653.55	38281.80
653.70	38380.10
653.84	37914.34
653.99	37701.35
654.13	37565.60
654.27	37848.80
654.42	37689.65
654.56	38014.98
654.71	37834.76
654.85	37780.93
655.00	37790.29
655.14	37439.21
655.29	37392.40
655.43	37450.91
655.57	37060.04
655.72	36940.68
655.86	37109.19
656.01	36814.29
656.15	36680.88
656.30	36769.82
656.44	36858.76
656.58	36966.42
656.73	37205.16
656.87	36793.22
657.01	36769.82
657.16	36528.74
657.30	36601.30
657.45	36725.35
657.59	36664.49
657.73	37188.77
657.88	36680.88
658.02	37170.05
658.16	37139.62
658.31	36924.29
658.45	36844.71
658.60	36779.18
658.74	37305.80
658.88	36835.35
659.03	36465.55
659.17	36374.27
659.31	36608.32
659.46	36671.51
659.60	36879.82
659.74	36584.91
659.89	36435.12
660.03	36444.48
660.17	36552.15
660.32	36638.75
660.46	36217.45
660.60	36315.75
660.74	36287.67
660.89	36652.79
661.03	36062.97
661.17	35798.49
661.32	35983.40
661.46	35934.24
661.60	35793.81
661.74	35831.26
661.89	35775.09
662.03	35749.34
662.17	36034.89
662.31	35405.28
662.46	35849.99
662.60	35955.31
662.74	35241.45
662.88	35538.69
663.03	35515.29
663.17	35370.18
663.31	35292.94
663.45	35618.27
663.60	35550.40
663.74	35297.62
663.88	34927.81
664.02	34656.31
664.17	35491.88
664.31	34724.19
664.45	34925.47
664.59	35030.80
664.73	34998.03
664.88	34897.39
665.02	34574.39
665.16	34651.63
665.30	34508.86
665.44	34293.53
665.59	34394.17
665.73	34660.99
665.87	34511.20
666.01	34066.50
666.15	34242.04
666.29	33935.43
666.44	34518.22
666.58	34450.35
666.72	34246.72
666.86	34593.12
667.00	34323.96
667.14	33687.33
667.28	34146.08
667.43	34312.25
667.57	33603.07
667.71	33352.63
667.85	33970.54
667.99	33982.24
668.13	33841.81
668.27	34148.42
668.41	33862.87
668.56	33504.77
668.70	33308.16
668.84	32807.29
668.98	33139.65
669.12	33443.91
669.26	33261.35
669.40	32765.16
669.54	32907.93
669.68	33083.47
669.82	32828.35
669.96	32804.95
670.10	32549.83
670.25	32744.09
670.39	32563.87
670.53	32332.16
670.67	32362.59
670.81	33127.94
670.95	32514.72
671.09	32198.75
671.23	32568.55
671.37	32428.12
671.51	32144.92
671.65	32393.01
671.79	31852.35
671.93	31793.84
672.07	32306.41
672.21	31866.39
672.35	32329.82
672.49	31615.96
672.63	31651.06
672.77	31826.60
672.91	31393.61
673.05	31737.66
673.19	30998.06
673.33	31449.78
673.47	31468.50
673.61	31583.19
673.75	31044.87
673.89	31180.62
674.03	30967.63
674.17	31299.98
674.31	31173.60
674.45	31096.36
674.59	31255.51
674.73	31281.26
674.87	31049.55
675.01	30639.95
675.15	30321.64
675.29	30841.24
675.43	30583.78
675.56	30548.67
675.70	30913.80
675.84	30457.39
675.98	29549.26
676.12	29748.21
676.26	30096.95
676.40	30026.73
676.54	30071.20
676.68	30391.86
676.82	29364.36
676.96	29666.29
677.10	29956.52
677.23	29179.46
677.37	29362.02
677.51	29046.05
677.65	29394.79
677.79	29078.82
677.93	28889.23
678.07	28519.43
678.21	28638.80
678.34	28301.76
678.48	28620.07
678.62	28491.34
678.76	27845.35
678.90	28353.25
679.04	28662.20
679.18	28194.09
679.31	27740.03
679.45	27644.07
679.59	27962.38
679.73	27955.36
679.87	27386.61
680.00	27662.79
680.14	27583.21
680.28	27440.44
680.42	27295.33
680.56	27543.42
680.70	27248.52
680.83	27080.00
680.97	27136.17
681.11	27192.34
681.25	26916.16
681.39	26817.86
681.52	26960.63
681.66	26726.58
681.80	26567.42
681.94	26167.19
682.07	26321.66
682.21	26206.98
682.35	26171.87
682.49	25982.29
682.62	26281.88
682.76	25961.22
682.90	26099.31
683.04	25825.47
683.17	25420.56
683.31	25516.52
683.45	25778.66
683.59	25385.45
683.72	25397.15
683.86	25715.47
684.00	25252.04
684.13	24882.24
684.27	25214.59
684.41	25041.39
684.55	25050.75
684.68	24828.40
684.82	24416.47
684.96	24732.44
685.09	24655.20
685.23	24755.85
685.37	24507.75
685.50	24491.37
685.64	24079.43
685.78	24002.19
685.91	24034.96
686.05	23978.79
686.19	23545.79
686.32	23798.57
686.46	23599.62
686.60	22827.24
686.73	23339.82
686.87	23154.92
687.01	23143.22
687.14	22939.59
687.28	22852.99
687.42	22869.37
687.55	22560.42
687.69	23175.98
687.82	22735.96
687.96	22813.20
688.10	22368.50
688.23	22471.48
688.37	22462.12
688.50	22478.50
688.64	22153.17
688.78	22265.52
688.91	21809.11
689.05	21914.44
689.18	21783.37
689.32	21706.13
689.46	21708.47
689.59	21954.22
689.73	21830.18
689.86	21638.25
690.00	21668.68
690.13	21343.35
690.27	21249.72
690.41	21151.42
690.54	20978.22
690.68	21261.43
690.81	21439.31
690.95	20865.88
691.08	21106.95
691.22	21025.03
691.35	20816.72
691.49	20830.77
691.62	20727.78
691.76	20624.80
691.89	20458.62
692.03	20533.52
692.16	20453.94
692.30	20329.89
692.43	19995.20
692.57	19990.52
692.70	19826.68
692.84	19882.85
692.97	19758.80
693.11	19616.03
693.24	19599.65
693.38	19449.85
693.51	19499.00
693.65	18974.72
693.78	19180.69
693.92	19419.42
694.05	19520.07
694.19	18986.43
694.32	19304.74
694.45	18984.09
694.59	19243.88
694.72	18778.12
694.86	18918.55
694.99	18328.74
695.13	18527.68
695.26	18291.29
695.39	18148.51
695.53	18827.27
695.66	18263.20
695.80	18153.20
695.93	18146.17
696.07	17923.82
696.20	18143.83
696.33	18061.91
696.47	17851.27
696.60	18090.00
696.73	17860.63
696.87	17771.69
697.00	17432.31
697.14	17334.01
697.27	17287.20
697.40	17343.37
697.54	17284.86
697.67	16966.54
697.80	17216.98
697.94	17088.25
698.07	17106.98
698.21	17013.35
698.34	17020.38
698.47	16819.09
698.61	16568.65
698.74	16615.46
698.87	16533.54
699.01	16615.46
699.14	16545.25
699.27	16180.12
699.40	16180.12
699.54	16077.14
699.67	15793.94
699.80	15920.32
699.94	16065.44
700.07	15943.73
700.20	15988.20
700.34	15700.31
700.47	16210.55
700.60	15623.08
700.73	15686.27
700.87	15400.72
701.00	15288.38
701.13	15618.39
701.26	15108.16
701.40	15218.16
701.53	15140.93
701.66	15117.52
701.79	15222.84
701.93	14768.78
702.06	14960.70
702.19	14773.46
702.32	14988.79
702.46	14871.76
702.59	14761.76
702.72	14927.94
702.85	14635.37
702.99	14492.60
703.12	14436.42
703.25	14401.32
703.38	14441.11
703.51	14298.33
703.65	13980.02
703.78	13998.74
703.91	13607.87
704.04	13928.53
704.17	13977.68
704.31	13762.35
704.44	13722.56
704.57	13795.12
704.70	13502.55
704.83	13397.23
704.96	13750.65
705.10	13626.60
705.23	13479.15
>>>>>End Processed Spectral Data<<<<<
