SpectraSuite Data File
++++++++++++++++++++++++++++++++++++
Date: Fri Oct 25 11:33:52 EDT 2013
User: price-jones
Dark Spectrum Present: No
Reference Spectrum Present: No
Number of Sampled Component Spectra: 1
Spectrometers: USB2+H05261
Integration Time (usec): 100000 (USB2+H05261)
Spectra Averaged: 1 (USB2+H05261)
Boxcar Smoothing: 0 (USB2+H05261)
Correct for Electrical Dark: No (USB2+H05261)
Strobe/Lamp Enabled: No (USB2+H05261)
Correct for Detector Non-linearity: No (USB2+H05261)
Correct for Stray Light: No (USB2+H05261)
Number of Pixels in Processed Spectrum: 2048
>>>>>Begin Processed Spectral Data<<<<<
365.73	276.18
365.92	276.18
366.12	276.18
366.32	243.42
366.52	166.18
366.72	177.88
366.91	257.46
367.11	175.54
367.31	198.95
367.51	110.01
367.70	105.32
367.90	147.45
368.10	212.99
368.30	170.86
368.49	241.08
368.69	222.35
368.89	252.78
369.09	191.92
369.28	177.88
369.48	212.99
369.68	222.35
369.87	269.16
370.07	189.58
370.27	257.46
370.47	322.99
370.66	543.00
370.86	540.66
371.06	566.41
371.25	585.13
371.45	545.34
371.65	578.11
371.84	543.00
372.04	566.41
372.24	624.92
372.44	564.07
372.63	470.45
372.83	557.05
373.03	559.39
373.22	610.88
373.42	603.86
373.62	671.73
373.81	615.56
374.01	610.88
374.21	631.94
374.40	610.88
374.60	681.10
374.79	582.79
374.99	648.33
375.19	643.65
375.38	655.35
375.58	657.69
375.78	704.50
375.97	648.33
376.17	720.88
376.37	608.54
376.56	704.50
376.76	634.29
376.95	669.39
377.15	734.93
377.35	709.18
377.54	739.61
377.74	669.39
377.93	690.46
378.13	723.23
378.33	671.73
378.52	716.20
378.72	777.06
378.91	676.41
379.11	802.80
379.31	716.20
379.50	690.46
379.70	786.42
379.89	688.12
380.09	688.12
380.28	713.86
380.48	718.54
380.68	664.71
380.87	704.50
381.07	725.57
381.26	760.67
381.46	770.04
381.65	763.01
381.85	844.93
382.04	774.72
382.24	800.46
382.43	751.31
382.63	723.23
382.83	826.21
383.02	795.78
383.22	887.06
383.41	842.59
383.61	870.68
383.80	880.04
384.00	795.78
384.19	718.54
384.39	760.67
384.58	802.80
384.78	805.14
384.97	868.34
385.17	891.74
385.36	812.17
385.56	814.51
385.75	849.61
385.95	816.85
386.14	826.21
386.34	896.43
386.53	882.38
386.72	922.17
386.92	950.26
387.11	924.51
387.31	896.43
387.50	856.64
387.70	805.14
387.89	873.02
388.09	910.47
388.28	919.83
388.48	891.74
388.67	833.23
388.86	873.02
389.06	891.74
389.25	943.24
389.45	1011.11
389.64	912.81
389.84	929.19
390.03	952.60
390.22	905.79
390.42	1027.50
390.61	980.68
390.81	1008.77
391.00	985.37
391.19	908.13
391.39	1076.65
391.58	985.37
391.78	1053.24
391.97	978.34
392.16	957.28
392.36	1048.56
392.55	1078.99
392.75	1041.54
392.94	1090.69
393.13	1123.46
393.33	1055.58
393.52	1076.65
393.71	1006.43
393.91	1064.94
394.10	1057.92
394.29	1076.65
394.49	1078.99
394.68	1090.69
394.88	1074.31
395.07	1165.59
395.26	1144.52
395.46	1062.60
395.65	1128.14
395.84	1177.29
396.04	1245.16
396.23	1207.72
396.42	1144.52
396.62	1188.99
396.81	1247.51
397.00	1212.40
397.19	1179.63
397.39	1233.46
397.58	1212.40
397.77	1177.29
397.97	1348.15
398.16	1252.19
398.35	1336.45
398.55	1256.87
398.74	1268.57
398.93	1303.68
399.12	1310.70
399.32	1301.34
399.51	1315.38
399.70	1306.02
399.90	1376.24
400.09	1329.42
400.28	1399.64
400.47	1348.15
400.67	1439.43
400.86	1383.26
401.05	1495.60
401.24	1404.32
401.44	1437.09
401.63	1437.09
401.82	1390.28
402.01	1409.00
402.21	1458.15
402.40	1476.88
402.59	1465.18
402.78	1465.18
402.97	1542.41
403.17	1575.18
403.36	1519.01
403.55	1551.78
403.74	1551.78
403.93	1629.01
404.13	1610.29
404.32	1654.76
404.51	1661.78
404.70	1741.36
404.89	1596.25
405.09	1621.99
405.28	1710.93
405.47	1671.14
405.66	1703.91
405.85	1666.46
406.05	1741.36
406.24	1720.29
406.43	1732.00
406.62	1710.93
406.81	1717.95
407.00	1811.57
407.20	1722.63
407.39	1755.40
407.58	1804.55
407.77	1959.03
407.96	1802.21
408.15	1799.87
408.34	1863.07
408.54	1947.33
408.73	1909.88
408.92	1987.11
409.11	2008.18
409.30	2069.03
409.49	2080.74
409.68	2008.18
409.87	2012.86
410.07	2010.52
410.26	2038.61
410.45	2026.90
410.64	2157.97
410.83	2129.89
411.02	2115.84
411.21	2186.06
411.40	2209.47
411.59	2253.94
411.78	2221.17
411.98	2244.57
412.17	2209.47
412.36	2305.43
412.55	2204.78
412.74	2370.96
412.93	2324.15
413.12	2207.13
413.31	2399.05
413.50	2389.69
413.69	2319.47
413.88	2492.67
414.07	2502.03
414.26	2572.25
414.45	2544.16
414.64	2504.37
414.83	2590.97
415.02	2609.70
415.22	2609.70
415.41	2574.59
415.60	2609.70
415.79	2644.81
415.98	2623.74
416.17	2750.13
416.36	2679.91
416.55	2738.43
416.74	2773.53
416.93	2839.07
417.12	2810.98
417.31	2773.53
417.50	2967.80
417.69	2883.54
417.88	2981.84
418.07	3016.95
418.26	3045.04
418.45	2986.52
418.64	3176.11
418.83	3073.12
419.02	3028.65
419.21	3136.32
419.39	3124.62
419.58	3096.53
419.77	3089.51
419.96	3080.14
420.15	3155.04
420.34	3155.04
420.53	3255.69
420.72	3145.68
420.91	3213.56
421.10	3197.17
421.29	3328.24
421.48	3283.77
421.67	3276.75
421.86	3192.49
422.05	3335.26
422.24	3243.98
422.43	3304.84
422.61	3307.18
422.80	3379.73
422.99	3405.48
423.18	3379.73
423.37	3473.36
423.56	3410.16
423.75	3318.88
423.94	3265.05
424.13	3309.52
424.32	3262.71
424.50	3421.86
424.69	3421.86
424.88	3499.10
425.07	3379.73
425.26	3398.46
425.45	3396.12
425.64	3412.50
425.83	3471.01
426.01	3489.74
426.20	3466.33
426.39	3564.64
426.58	3435.91
426.77	3325.90
426.96	3590.38
427.15	3595.06
427.33	3520.17
427.52	3478.04
427.71	3665.28
427.90	3543.57
428.09	3576.34
428.28	3625.49
428.46	3611.45
428.65	3552.93
428.84	3681.66
429.03	3676.98
429.22	3618.47
429.40	3707.41
429.59	3789.33
429.78	3637.19
429.97	3557.61
430.16	3728.47
430.34	3857.20
430.53	3932.10
430.72	3906.35
430.91	3815.07
431.10	3981.25
431.28	3955.51
431.47	3957.85
431.66	4011.68
431.85	3882.95
432.03	3953.16
432.22	4098.28
432.41	4072.53
432.60	3941.46
432.79	4046.79
432.97	4114.66
433.16	3985.93
433.35	4187.22
433.54	4119.34
433.72	4086.58
433.91	4023.38
434.10	4070.19
434.28	4142.75
434.47	4152.11
434.66	4133.39
434.85	4219.99
435.03	4273.82
435.22	4203.60
435.41	4458.72
435.59	4449.36
435.78	4315.95
435.97	4269.14
436.16	4344.03
436.34	4308.93
436.53	4404.89
436.72	4442.34
436.90	4475.10
437.09	4489.15
437.28	4430.63
437.46	4493.83
437.65	4582.77
437.84	4622.56
438.02	4404.89
438.21	4585.11
438.40	4472.76
438.58	4865.97
438.77	4837.89
438.96	4849.59
439.14	4770.01
439.33	4835.55
439.52	4975.98
439.70	4905.76
439.89	5013.43
440.08	5027.47
440.26	5029.81
440.45	4896.40
440.63	5055.56
440.82	5275.57
441.01	5165.56
441.19	5217.05
441.38	5114.07
441.57	5235.78
441.75	5366.85
441.94	5261.52
442.12	5416.00
442.31	5362.17
442.50	5364.51
442.68	5481.53
442.87	5432.38
443.05	5584.52
443.24	5586.86
443.43	5502.60
443.61	5600.90
443.80	5654.73
443.98	5338.76
444.17	5315.36
444.35	5589.20
444.54	5643.03
444.73	5605.58
444.91	5572.82
445.10	5584.52
445.28	5628.99
445.47	5738.99
445.65	5671.12
445.84	5640.69
446.02	5652.39
446.21	5743.67
446.39	5757.72
446.58	5748.36
446.77	5699.20
446.95	5708.57
447.14	5652.39
447.32	5666.44
447.51	5643.03
447.69	5638.35
447.88	5858.36
448.06	5675.80
448.25	5706.23
448.43	5851.34
448.62	5804.53
448.80	5926.24
448.99	5877.09
449.17	5902.83
449.36	5895.81
449.54	5811.55
449.73	5996.45
449.91	6099.44
450.10	6122.84
450.28	6274.98
450.46	6190.72
450.65	6225.82
450.83	6246.89
451.02	6132.20
451.20	6195.40
451.39	6183.70
451.57	6155.61
451.76	5984.75
451.94	6218.80
452.13	6251.57
452.31	6286.68
452.49	6164.97
452.68	6342.85
452.86	6305.40
453.05	6349.87
453.23	6303.06
453.42	6335.83
453.60	6282.00
453.78	6399.02
453.97	6258.59
454.15	6368.60
454.34	6279.66
454.52	6766.49
454.70	6614.35
454.89	6497.33
455.07	6427.11
455.26	6747.76
455.44	6738.40
455.62	6600.31
455.81	6604.99
455.99	6583.93
456.17	6640.10
456.36	6815.64
456.54	6773.51
456.73	6860.11
456.91	6998.20
457.09	7009.90
457.28	7105.87
457.46	6876.49
457.64	7213.53
457.83	7028.63
458.01	6953.73
458.19	7077.78
458.38	6871.81
458.56	7288.43
458.74	7253.32
458.93	7033.31
459.11	7131.61
459.29	7220.55
459.48	7234.60
459.66	7279.07
459.84	7253.32
460.03	7555.25
460.21	7332.90
460.39	7337.58
460.57	7307.15
460.76	7618.44
460.94	7470.99
461.12	7307.15
461.31	7410.14
461.49	7403.11
461.67	7463.97
461.85	7637.17
462.04	7571.63
462.22	8203.58
462.40	7751.85
462.59	7655.89
462.77	7765.90
462.95	7978.89
463.13	7819.73
463.32	7698.02
463.50	7819.73
463.68	7836.11
463.86	8004.63
464.05	7772.92
464.23	7840.79
464.41	7882.92
464.59	7808.03
464.78	8203.58
464.96	8056.12
465.14	8023.36
465.32	7824.41
465.50	7978.89
465.69	8079.53
465.87	7978.89
466.05	8081.87
466.23	7990.59
466.41	8121.66
466.60	8266.77
466.78	8187.19
466.96	8245.71
467.14	8219.96
467.32	8421.25
467.51	8355.71
467.69	7948.46
467.87	8416.57
468.05	8393.16
468.23	8346.35
468.41	8432.95
468.60	8418.91
468.78	8489.12
468.96	8301.88
469.14	8521.89
469.32	8638.92
469.50	8489.12
469.69	8702.11
469.87	8741.90
470.05	8734.88
470.23	8613.17
470.41	8798.07
470.59	8816.80
470.77	8730.20
470.95	8851.91
471.14	8931.48
471.32	8887.01
471.50	9181.92
471.68	8990.00
471.86	9013.40
472.04	9259.16
472.22	9355.12
472.40	9116.39
472.58	9174.90
472.77	9378.53
472.95	9343.42
473.13	9687.48
473.31	9406.61
473.49	9376.19
473.67	9383.21
473.85	9399.59
474.03	9650.03
474.21	9610.24
474.39	9755.35
474.57	9720.24
474.75	9923.87
474.93	9879.40
475.12	9781.10
475.30	9919.19
475.48	9921.53
475.66	10101.75
475.84	10335.81
476.02	10087.71
476.20	10274.95
476.38	10429.43
476.56	10485.60
476.74	10569.86
476.92	10518.37
477.10	10401.34
477.28	10541.77
477.46	10525.39
477.64	10721.99
477.82	11037.97
478.00	11082.44
478.18	11211.17
478.36	11197.12
478.54	11356.28
478.72	11365.64
478.90	11365.64
479.08	11538.84
479.26	11840.77
479.44	11641.82
479.62	11899.28
479.80	11796.30
479.98	11829.07
480.16	12243.34
480.34	11868.86
480.52	12238.66
480.70	12208.23
480.88	12065.46
481.06	12088.87
481.24	12255.04
481.41	12746.56
481.59	12769.96
481.77	12849.54
481.95	12683.36
482.13	13151.47
482.31	12975.93
482.49	13018.06
482.67	13352.76
482.85	13296.58
483.03	13750.65
483.21	13659.37
483.39	13631.28
483.57	13823.20
483.74	13715.54
483.92	13598.51
484.10	13982.36
484.28	14265.57
484.46	14401.32
484.64	14803.89
484.82	14487.92
485.00	14403.66
485.18	14895.17
485.35	15103.48
485.53	14855.38
485.71	15082.41
485.89	15232.21
486.07	15246.25
486.25	15318.81
486.43	15543.50
486.61	15709.68
486.78	15913.30
486.96	15611.37
487.14	15992.88
487.32	15946.07
487.50	16231.62
487.68	16362.69
487.85	16540.57
488.03	16697.38
488.21	16807.39
488.39	16886.97
488.57	17160.81
488.75	16933.78
488.92	17722.54
489.10	17418.27
489.28	17263.79
489.46	17577.42
489.64	17699.13
489.81	18384.91
489.99	18001.06
490.17	18115.75
490.35	18581.51
490.53	18253.84
490.70	18705.56
490.88	18338.10
491.06	18703.22
491.24	18867.06
491.41	18850.67
491.59	19157.28
491.77	18824.93
491.95	19379.64
492.13	19412.40
492.30	19503.68
492.48	19580.92
492.66	19775.19
492.84	19683.91
493.01	20280.74
493.19	19943.70
493.37	20013.92
493.54	20329.89
493.72	20435.22
493.90	20379.04
494.08	20622.46
494.25	20961.84
494.43	21191.21
494.61	21298.88
494.79	21235.68
494.96	21451.01
495.14	21406.54
495.32	21734.21
495.49	21476.76
495.67	21769.32
495.85	22003.38
496.02	22125.08
496.20	22167.21
496.38	22410.63
496.55	22101.68
496.73	22852.99
496.91	22305.31
497.09	22623.62
497.26	22644.68
497.44	22850.65
497.62	23007.47
497.79	23311.74
497.97	23061.30
498.14	23330.46
498.32	23707.29
498.50	23616.01
498.67	24105.18
498.85	23660.48
499.03	23892.19
499.20	23927.30
499.38	24074.75
499.56	24065.39
499.73	24432.85
499.91	24453.92
500.08	24631.80
500.26	24510.09
500.44	24702.01
500.61	24821.38
500.79	24673.93
500.97	24844.79
501.14	25439.28
501.32	25359.70
501.49	24987.56
501.67	25376.09
501.84	25628.87
502.02	25247.36
502.20	25617.16
502.37	25109.27
502.55	25497.80
502.72	25996.33
502.90	25785.68
503.07	25795.04
503.25	25965.90
503.43	25928.45
503.60	26534.65
503.78	26263.15
503.95	26122.72
504.13	26064.21
504.30	26412.95
504.48	26581.46
504.65	26611.89
504.83	27124.47
505.01	27356.18
505.18	27094.04
505.36	27208.73
505.53	27264.90
505.71	27168.94
505.88	27337.46
506.06	27285.97
506.23	27754.07
506.41	27564.49
506.58	27733.01
506.76	27810.25
506.93	27716.62
507.11	27878.12
507.28	28041.96
507.46	28374.31
507.63	28231.54
507.81	28556.88
507.98	28311.12
508.16	28217.50
508.33	28489.00
508.50	28725.39
508.68	28580.28
508.85	28950.09
509.03	28608.37
509.20	28914.98
509.38	29226.27
509.55	28971.15
509.73	29032.00
509.90	29268.40
510.08	29483.73
510.25	29202.86
510.42	29329.25
510.60	29605.44
510.77	29558.63
510.95	29933.11
511.12	29921.41
511.30	29727.14
511.47	30260.79
511.64	29677.99
511.82	30033.75
511.99	30188.23
512.17	30246.74
512.34	30195.25
512.51	30852.94
512.69	30354.41
512.86	30611.87
513.04	31005.08
513.21	30717.19
513.38	30749.96
513.56	31227.43
513.73	30717.19
513.90	31269.56
514.08	31037.84
514.25	31161.89
514.43	31482.55
514.60	31482.55
514.77	31562.12
514.95	31714.26
515.12	31515.31
515.29	31835.97
515.47	31597.23
515.64	31749.37
515.81	31651.06
515.99	32271.31
516.16	31988.10
516.33	31873.42
516.51	32421.10
516.68	32334.50
516.85	32362.59
517.03	32662.18
517.20	32498.34
517.37	32554.51
517.54	32723.03
517.72	32683.24
517.89	33235.61
518.06	32957.08
518.24	33151.35
518.41	32229.18
518.58	33202.84
518.75	32699.62
518.93	32975.81
519.10	33340.93
519.27	33259.01
519.45	33146.67
519.62	33811.38
519.79	33504.77
519.96	33596.05
520.14	33839.47
520.31	33488.38
520.48	33944.79
520.65	34141.39
520.83	34309.91
521.00	34080.54
521.17	34246.72
521.34	34108.63
521.52	34361.40
521.69	34099.26
521.86	35150.17
522.03	34630.57
522.20	34539.29
522.38	34747.59
522.55	34799.08
522.72	34827.17
522.89	35021.44
523.07	35721.26
523.24	35138.46
523.41	35119.74
523.58	35220.38
523.75	35147.82
523.92	35601.89
524.10	35452.09
524.27	35711.89
524.44	35426.35
524.61	35512.95
524.78	35667.42
524.96	35908.50
525.13	35840.62
525.30	36065.31
525.47	35700.19
525.64	35969.35
525.81	36135.53
525.98	36425.76
526.16	36325.11
526.33	36062.97
526.50	36133.19
526.67	36222.13
526.84	36397.67
527.01	36238.51
527.18	36488.95
527.36	36605.98
527.53	36725.35
527.70	37139.62
527.87	36924.29
528.04	36816.63
528.21	36669.17
528.38	36851.73
528.55	37193.45
528.72	36587.25
528.89	37521.13
529.07	36945.36
529.24	36950.04
529.41	37242.60
529.58	37401.76
529.75	37261.33
529.92	37701.35
530.09	37783.27
530.26	37373.67
530.43	37940.08
530.60	37539.85
530.77	37757.52
530.94	37748.16
531.11	38022.00
531.28	37818.38
531.46	37820.72
531.63	38050.09
531.80	38143.71
531.97	38384.79
532.14	37954.13
532.31	38366.06
532.48	38251.38
532.65	38560.33
532.82	38213.93
532.99	37839.44
533.16	38462.02
533.33	38801.40
533.50	38644.59
533.67	38513.52
533.84	38539.26
534.01	38595.43
534.18	38705.44
534.35	38827.15
534.52	39133.76
534.69	38691.40
534.86	39407.60
535.03	39274.19
535.20	39306.96
535.37	39009.71
535.54	39138.44
535.71	38920.77
535.88	39384.19
536.05	39016.73
536.22	39541.01
536.38	39257.81
536.55	39428.66
536.72	39297.59
536.89	39262.49
537.06	40165.93
537.23	39426.32
537.40	39997.41
537.57	39988.05
537.74	39833.58
537.91	40032.52
538.08	39597.18
538.25	39576.12
538.42	40060.61
538.59	40378.92
538.75	40495.95
538.92	40362.54
539.09	40409.35
539.26	40051.25
539.43	40128.48
539.60	40147.21
539.77	39976.35
539.94	40360.20
540.11	40587.23
540.28	40687.87
540.44	40896.18
540.61	40470.20
540.78	40247.85
540.95	41338.54
541.12	40748.73
541.29	40552.12
541.46	41038.95
541.62	40776.81
541.79	41191.09
541.96	40713.62
542.13	41092.79
542.30	41394.71
542.47	41258.96
542.63	41277.69
542.80	41434.50
542.97	41876.86
543.14	41455.57
543.31	41558.55
543.48	41163.00
543.64	41691.96
543.81	42253.69
543.98	41837.08
544.15	41848.78
544.32	41448.55
544.48	41984.53
544.65	42092.19
544.82	41811.33
544.99	41652.17
545.16	42164.75
545.32	42403.49
545.49	42775.63
545.66	42438.59
545.83	42841.17
546.00	42731.16
546.16	42005.59
546.33	42232.63
546.50	42244.33
546.67	42604.77
546.83	42178.79
547.00	42330.93
547.17	42211.56
547.34	42424.55
547.50	42981.60
547.67	42710.10
547.84	42696.05
548.00	43105.65
548.17	42946.49
548.34	43117.35
548.51	43005.00
548.67	42986.28
548.84	43189.91
549.01	43005.00
549.18	43187.56
549.34	43271.82
549.51	43154.80
549.68	43150.12
549.84	42864.57
550.01	43309.27
550.18	43318.64
550.34	43768.02
550.51	43812.49
550.68	43522.26
550.84	42948.83
551.01	43871.00
551.18	43475.45
551.34	43690.78
551.51	43606.52
551.68	43768.02
551.84	43311.61
552.01	43924.83
552.18	43756.32
552.34	43388.85
552.51	43613.54
552.68	43559.71
552.84	43779.72
553.01	44184.63
553.18	44201.02
553.34	44495.92
553.51	43571.41
553.67	44062.93
553.84	43945.90
554.01	44388.26
554.17	44287.62
554.34	44563.80
554.51	44617.63
554.67	44210.38
554.84	44519.33
555.00	44091.01
555.17	44406.98
555.33	44315.70
555.50	44186.97
555.67	44334.43
555.83	44261.87
556.00	44378.90
556.16	44896.16
556.33	45177.02
556.50	44554.44
556.66	44617.63
556.83	44222.08
556.99	44636.36
557.16	45029.57
557.32	44999.14
557.49	44652.74
557.65	45015.52
557.82	44903.18
557.98	44744.02
558.15	44559.12
558.32	44975.73
558.48	44800.19
558.65	44996.80
558.81	45165.32
558.98	45144.25
559.14	44856.37
559.31	45090.42
559.47	45177.02
559.64	44875.09
559.80	45268.30
559.97	45521.08
560.13	45198.09
560.30	45113.83
560.46	45656.83
560.63	45275.32
560.79	45874.50
560.96	45375.97
561.12	45656.83
561.29	45773.86
561.45	45794.92
561.61	45682.58
561.78	45567.89
561.94	45467.25
562.11	45467.25
562.27	45619.38
562.44	45820.67
562.60	45801.94
562.77	45244.90
562.93	45865.14
563.10	45670.87
563.26	45532.78
563.42	45900.25
563.59	45717.68
563.75	45577.25
563.92	45853.44
564.08	45642.79
564.24	46124.94
564.41	45511.72
564.57	45813.65
564.74	45656.83
564.90	45724.71
565.07	45717.68
565.23	45600.66
565.39	45745.77
565.56	45813.65
565.72	45787.90
565.88	46052.38
566.05	45734.07
566.21	45787.90
566.38	45979.82
566.54	46087.49
566.70	46028.98
566.87	45979.82
567.03	45652.15
567.19	46316.86
567.36	46134.30
567.52	45844.07
567.68	46073.45
567.85	46028.98
568.01	46522.83
568.17	46253.67
568.34	46321.54
568.50	46522.83
568.66	45752.79
568.83	46450.27
568.99	46267.71
569.15	46614.11
569.32	46005.57
569.48	46258.35
569.64	47063.49
569.81	46440.91
569.97	46569.64
570.13	46330.90
570.30	46206.86
570.46	46256.01
570.62	46784.97
570.78	46136.64
570.95	46770.93
571.11	46557.94
571.27	46284.09
571.43	46288.77
571.60	46321.54
571.76	46564.96
571.92	46642.20
572.09	46148.34
572.25	46504.10
572.41	46635.17
572.57	46422.19
572.74	46791.99
572.90	46349.63
573.06	47133.71
573.22	46780.29
573.38	46789.65
573.55	46733.48
573.71	46906.68
573.87	46848.16
574.03	46621.13
574.20	47140.73
574.36	46586.02
574.52	46834.12
574.68	46756.88
574.84	46789.65
575.01	47023.70
575.17	47035.41
575.33	46529.85
575.49	46866.89
575.65	46909.02
575.82	47159.45
575.98	47033.07
576.14	46902.00
576.30	47189.88
576.46	46899.65
576.62	46894.97
576.79	47143.07
576.95	46567.30
577.11	46747.52
577.27	47138.39
577.43	46784.97
577.59	46932.42
577.75	46663.26
577.92	46576.66
578.08	46560.28
578.24	46806.03
578.40	47114.98
578.56	46817.74
578.72	47044.77
578.88	46789.65
579.04	46719.43
579.21	46637.51
579.37	46808.37
579.53	47014.34
579.69	47054.13
579.85	47007.32
580.01	47028.38
580.17	46836.46
580.33	47079.88
580.49	47086.90
580.65	46852.84
580.82	46920.72
580.98	47044.77
581.14	46761.56
581.30	47215.63
581.46	46941.78
581.62	47140.73
581.78	46920.72
581.94	47323.29
582.10	46738.16
582.26	47114.98
582.42	47157.11
582.58	47077.54
582.74	47164.14
582.90	47026.04
583.06	47313.93
583.22	46946.47
583.38	47248.39
583.54	47063.49
583.70	47037.75
583.86	47119.66
584.02	46967.53
584.18	47271.80
584.34	47133.71
584.50	47456.70
584.66	47503.51
584.82	47473.09
584.98	47679.05
585.14	46932.42
585.30	46909.02
585.46	47047.11
585.62	46602.41
585.78	47536.28
585.94	46815.40
586.10	47276.48
586.26	47051.79
586.42	47117.32
586.58	47412.23
586.74	47203.92
586.90	46974.55
587.06	47187.54
587.22	47342.02
587.38	47337.33
587.54	47295.21
587.70	47421.59
587.86	47096.26
588.02	47428.62
588.18	47014.34
588.34	47002.64
588.49	47356.06
588.65	46749.86
588.81	47227.33
588.97	47306.91
589.13	47529.26
589.29	47182.86
589.45	47470.75
589.61	47292.86
589.77	47655.65
589.93	47381.80
590.08	47405.21
590.24	47906.08
590.40	47775.02
590.56	47931.83
590.72	47271.80
590.88	47583.09
591.04	47290.52
591.20	47700.12
591.35	47510.53
591.51	47842.89
591.67	47597.13
591.83	47824.17
591.99	47578.41
592.15	47597.13
592.31	47463.72
592.46	47559.69
592.62	47456.70
592.78	47622.88
592.94	48088.65
593.10	47777.36
593.26	47852.25
593.41	47737.57
593.57	47695.44
593.73	47622.88
593.89	48170.57
594.05	48119.07
594.20	47927.15
594.36	48123.75
594.52	48037.16
594.68	47945.87
594.84	47772.67
594.99	48081.63
595.15	47824.17
595.31	47978.64
595.47	47810.12
595.62	47569.05
595.78	47690.76
595.94	47657.99
596.10	47629.90
596.25	48149.50
596.41	48025.45
596.57	47885.02
596.73	48090.99
596.88	47789.06
597.04	47875.66
597.20	48364.83
597.36	47805.44
597.51	47878.00
597.67	47915.45
597.83	47470.75
597.99	48013.75
598.14	47599.47
598.30	47583.09
598.46	47927.15
598.61	48636.33
598.77	48076.94
598.93	48210.35
599.09	48147.16
599.24	48154.18
599.40	48170.57
599.56	47810.12
599.71	48442.07
599.87	48456.11
600.03	48378.87
600.18	48182.27
600.34	47784.38
600.50	47887.36
600.65	47899.06
600.81	48170.57
600.97	48055.88
601.12	47899.06
601.28	48432.71
601.44	48172.91
601.59	47999.71
601.75	47941.19
601.91	48376.53
602.06	47927.15
602.22	48395.26
602.37	47931.83
602.53	48219.72
602.69	48474.84
602.84	47789.06
603.00	47819.49
603.16	48186.95
603.31	48062.90
603.47	47873.32
603.62	48046.52
603.78	48299.30
603.94	48137.80
604.09	48100.35
604.25	48060.56
604.40	47878.00
604.56	48076.94
604.71	48362.49
604.87	48144.82
605.03	48048.86
605.18	48039.50
605.34	48231.42
605.49	48069.92
605.65	48039.50
605.80	47840.55
605.96	47899.06
606.12	47899.06
606.27	48006.73
606.43	47646.29
606.58	48140.14
606.74	48212.70
606.89	47910.77
607.05	48184.61
607.20	48210.35
607.36	48027.79
607.51	47852.25
607.67	47782.04
607.82	48009.07
607.98	47653.31
608.13	47936.51
608.29	47814.80
608.44	47812.46
608.60	47487.13
608.75	48243.12
608.91	47622.88
609.06	47421.59
609.22	47627.56
609.37	47611.18
609.53	48020.77
609.68	48128.44
609.84	47824.17
609.99	47559.69
610.15	47847.57
610.30	47894.38
610.46	47779.70
610.61	47639.26
610.76	47917.79
610.92	47849.91
611.07	47536.28
611.23	47452.02
611.38	47365.42
611.54	48018.43
611.69	47533.94
611.84	47686.07
612.00	47620.54
612.15	47283.50
612.31	47650.97
612.46	47435.64
612.62	47669.69
612.77	47416.91
612.92	47950.56
613.08	47641.60
613.23	47442.66
613.39	47337.33
613.54	47199.24
613.69	47306.91
613.85	47449.68
614.00	47543.30
614.15	47526.92
614.31	47564.37
614.46	46944.12
614.62	47049.45
614.77	47334.99
614.92	47213.29
615.08	47496.49
615.23	47187.54
615.38	47573.73
615.54	46948.81
615.69	47442.66
615.84	47491.81
616.00	47908.43
616.15	47173.50
616.30	47592.45
616.46	47330.31
616.61	46824.76
616.76	47440.32
616.92	46803.69
617.07	47189.88
617.22	47295.21
617.37	46731.14
617.53	47196.90
617.68	47023.70
617.83	47040.09
617.99	47491.81
618.14	46995.62
618.29	46843.48
618.45	47044.77
618.60	46375.37
618.75	46600.07
618.90	46941.78
619.06	46639.86
619.21	47107.96
619.36	46997.96
619.51	46799.01
619.67	46459.63
619.82	46906.68
619.97	47044.77
620.12	46789.65
620.28	46955.83
620.43	46873.91
620.58	47009.66
620.73	46801.35
620.89	46824.76
621.04	46707.73
621.19	46691.35
621.34	46651.56
621.49	46548.57
621.65	46721.77
621.80	46663.26
621.95	46834.12
622.10	46459.63
622.25	46693.69
622.41	46178.77
622.56	46450.27
622.71	46799.01
622.86	46452.61
623.01	46632.83
623.16	46649.22
623.32	46520.49
623.47	46340.27
623.62	46234.94
623.77	46309.84
623.92	46541.55
624.07	46499.42
624.23	46293.46
624.38	46459.63
624.53	46415.16
624.68	45879.18
624.83	45801.94
624.98	46295.80
625.13	46113.23
625.29	45949.40
625.44	46417.50
625.59	45815.99
625.74	45848.75
625.89	45804.28
626.04	46028.98
626.19	46106.21
626.34	45895.56
626.49	45537.46
626.65	45553.85
626.80	45783.22
626.95	45551.51
627.10	45579.59
627.25	46050.04
627.40	45778.54
627.55	45965.78
627.70	45483.63
627.85	45581.93
628.00	45673.21
628.15	45703.64
628.30	45345.54
628.45	45301.07
628.60	44786.15
628.76	45347.88
628.91	45551.51
629.06	45490.65
629.21	45205.11
629.36	44699.55
629.51	45474.27
629.66	45762.15
629.81	45294.05
629.96	45556.19
630.11	45268.30
630.26	45085.74
630.41	45059.99
630.56	45195.74
630.71	45382.99
630.86	45567.89
631.01	44619.97
631.16	44872.75
631.31	44910.20
631.46	45024.89
631.61	45085.74
631.76	45036.59
631.91	45191.06
632.06	45137.23
632.21	45406.39
632.36	45476.61
632.51	44725.30
632.66	44636.36
632.81	44781.47
632.96	44727.64
633.10	45024.89
633.25	45097.44
633.40	44900.84
633.55	44561.46
633.70	45076.38
633.85	44652.74
634.00	44683.17
634.15	44467.84
634.30	44926.58
634.45	44474.86
634.60	44868.07
634.75	44341.45
634.90	44016.11
635.05	44889.13
635.19	44519.33
635.34	44526.35
635.49	44186.97
635.64	44626.99
635.79	44514.65
635.94	44636.36
636.09	44526.35
636.24	44311.02
636.39	43943.56
636.53	44252.51
636.68	44261.87
636.83	44161.23
636.98	43859.30
637.13	43899.09
637.28	43917.81
637.43	44266.55
637.57	43962.28
637.72	43751.63
637.87	43688.44
638.02	43768.02
638.17	43653.33
638.32	43430.98
638.46	43992.71
638.61	43831.21
638.76	43901.43
638.91	43847.60
639.06	43969.30
639.20	43538.65
639.35	43742.27
639.50	43817.17
639.65	43735.25
639.80	44128.46
639.94	43622.90
640.09	43922.49
640.24	43819.51
640.39	43328.00
640.54	43201.61
640.68	43538.65
640.83	44062.93
640.98	43622.90
641.13	43358.42
641.27	43643.97
641.42	43257.78
641.57	43524.60
641.72	43973.98
641.86	43548.01
642.01	43189.91
642.16	43063.52
642.31	42880.95
642.45	43311.61
642.60	42691.37
642.75	43012.02
642.90	43430.98
643.04	42983.94
643.19	43292.89
643.34	42941.81
643.48	42630.52
643.63	42508.81
643.78	42946.49
643.93	43264.80
644.07	43246.08
644.22	42857.55
644.37	42649.24
644.51	43295.23
644.66	42855.21
644.81	42883.30
644.95	43157.14
645.10	43297.57
645.25	42923.08
645.39	42384.76
645.54	42817.76
645.69	42478.38
645.83	42284.12
645.98	42738.18
646.13	42450.30
646.27	42443.27
646.42	42394.12
646.57	42710.10
646.71	42983.94
646.86	42616.47
647.00	42852.87
647.15	42719.46
647.30	42417.53
647.44	42548.60
647.59	42344.97
647.74	42522.85
647.88	42087.51
648.03	42672.65
648.17	42953.51
648.32	42508.81
648.47	42672.65
648.61	42366.04
648.76	41904.95
648.90	42588.39
649.05	41867.50
649.20	42038.36
649.34	42164.75
649.49	42206.88
649.63	42447.96
649.78	42277.10
649.92	42239.65
650.07	43105.65
650.21	42270.08
650.36	42656.26
650.51	42026.66
650.65	42230.29
650.80	42253.69
650.94	42270.08
651.09	42253.69
651.23	41862.82
651.38	41731.75
651.52	41127.89
651.67	41610.04
651.81	41827.71
651.96	41698.98
652.10	41471.95
652.25	41291.73
652.39	41860.48
652.54	41603.02
652.68	41514.08
652.83	41434.50
652.97	41890.91
653.12	41511.74
653.26	41373.65
653.41	41373.65
653.55	41448.55
653.70	41745.80
653.84	41453.23
653.99	41675.58
654.13	41539.83
654.27	41242.58
654.42	41497.70
654.56	40856.39
654.71	41275.35
654.85	41158.32
655.00	41411.10
655.14	41654.51
655.29	41184.07
655.43	41408.76
655.57	40978.10
655.72	40978.10
655.86	40950.01
656.01	40926.61
656.15	40912.56
656.30	41181.73
656.44	41022.57
656.58	40800.22
656.73	40912.56
656.87	40676.17
657.01	40339.13
657.16	40818.94
657.30	40825.96
657.45	40872.78
657.59	40720.64
657.73	40299.34
657.88	40444.46
658.02	40540.42
658.16	40940.65
658.31	40828.30
658.45	40790.86
658.60	40315.73
658.74	40528.72
658.88	40884.48
659.03	40566.16
659.17	40332.11
659.31	40051.25
659.46	39901.45
659.60	40304.02
659.74	39936.56
659.89	39828.90
660.03	39821.87
660.17	39763.36
660.32	39805.49
660.46	39660.38
660.60	39955.29
660.74	39791.45
660.89	39758.68
661.03	39761.02
661.17	39744.64
661.32	39154.82
661.46	39639.31
661.60	39571.44
661.74	39761.02
661.89	39229.72
662.03	39421.64
662.17	38820.13
662.31	39264.83
662.46	39583.14
662.60	39051.84
662.74	38932.47
662.88	39089.29
663.03	38462.02
663.17	39159.50
663.31	38574.37
663.45	38983.96
663.60	38761.61
663.74	39082.27
663.88	38923.11
664.02	38323.93
664.17	38913.75
664.31	38333.29
664.45	38195.20
664.59	38478.41
664.73	38487.77
664.88	38693.74
665.02	37893.27
665.16	38492.45
665.30	38272.44
665.44	37961.15
665.59	37816.04
665.73	37895.61
665.87	37507.08
666.01	37940.08
666.15	37610.07
666.29	37811.35
666.44	37916.68
666.58	38007.96
666.72	37581.98
666.86	37443.89
667.00	37567.94
667.14	37738.80
667.28	37516.45
667.43	37294.10
667.57	37429.85
667.71	37394.74
667.85	37373.67
667.99	37677.94
668.13	37003.87
668.27	36524.06
668.41	36568.53
668.56	36587.25
668.70	36720.66
668.84	36435.12
668.98	36474.91
669.12	36957.06
669.26	36542.78
669.40	36720.66
669.54	36336.82
669.68	36449.16
669.82	36229.15
669.96	36161.28
670.10	36268.94
670.25	35983.40
670.39	36163.62
670.53	36121.49
670.67	35789.13
670.81	36226.81
670.95	35564.44
671.09	35702.53
671.23	34728.87
671.37	35704.87
671.51	35697.85
671.65	35749.34
671.79	35480.18
671.93	35367.84
672.07	35637.00
672.21	35522.31
672.35	34892.71
672.49	34768.66
672.63	35124.42
672.77	34974.63
672.91	34986.33
673.05	34696.10
673.19	34330.98
673.33	34459.71
673.47	34227.99
673.61	34520.56
673.75	34108.63
673.89	34415.24
674.03	33928.41
674.17	33846.49
674.31	33862.87
674.45	33867.55
674.59	33916.70
674.73	33504.77
674.87	33638.18
675.01	33504.77
675.15	33153.69
675.29	33092.83
675.43	33256.67
675.56	33373.70
675.70	33237.95
675.84	33635.84
675.98	32030.23
676.12	32921.98
676.26	32959.42
676.40	33043.68
676.54	32907.93
676.68	32460.89
676.82	32154.28
676.96	32933.68
677.10	32697.28
677.23	32343.86
677.37	32371.95
677.51	32287.69
677.65	32231.52
677.79	32180.03
677.93	31929.59
678.07	31894.48
678.21	31482.55
678.34	31484.89
678.48	31171.25
678.62	31367.86
678.76	31143.17
678.90	30906.77
679.04	31267.22
679.18	31278.92
679.31	30754.64
679.45	30843.58
679.59	30600.16
679.73	30689.10
679.87	30267.81
680.00	30281.85
680.14	30433.99
680.28	29703.74
680.42	30075.88
680.56	30244.40
680.70	29717.78
680.83	29762.25
680.97	29495.43
681.11	29392.45
681.25	29270.74
681.39	29186.48
681.52	29165.42
681.66	29125.63
681.80	28620.07
681.94	28418.78
682.07	28582.62
682.21	28276.01
682.35	28620.07
682.49	28802.63
682.62	28858.81
682.76	28741.78
682.90	28210.48
683.04	28163.67
683.17	28105.15
683.31	27775.14
683.45	27999.83
683.59	27393.63
683.72	27756.41
683.86	27618.32
684.00	27658.11
684.13	27470.87
684.27	27281.28
684.41	27351.50
684.55	27431.08
684.68	27019.14
684.82	26934.88
684.96	26630.62
685.09	26941.91
685.23	26979.36
685.37	26899.78
685.50	27026.17
685.64	26939.57
685.78	26497.20
685.91	26286.56
686.05	25242.68
686.19	25467.37
686.32	25603.12
686.46	25312.89
686.60	25502.48
686.73	25715.47
686.87	25376.09
687.01	25750.57
687.14	25563.33
687.28	25006.28
687.42	25252.04
687.55	24973.52
687.69	24989.90
687.82	24767.55
687.96	24924.36
688.10	24718.40
688.23	24797.98
688.37	24828.40
688.50	24767.55
688.64	24339.23
688.78	24226.89
688.91	24231.57
689.05	23978.79
689.18	23754.10
689.32	23730.69
689.46	23775.16
689.59	23480.25
689.73	23234.50
689.86	23627.71
690.00	23524.72
690.13	23770.48
690.27	23222.80
690.41	23459.19
690.54	23143.22
690.68	22904.48
690.81	22841.29
690.95	22820.22
691.08	22504.25
691.22	22508.93
691.35	22455.10
691.49	22750.01
691.62	22464.46
691.76	22537.02
691.89	21855.92
692.03	21736.56
692.16	21949.54
692.30	21888.69
692.43	21942.52
692.57	21598.46
692.70	21504.84
692.84	21219.30
692.97	21268.45
693.11	21413.56
693.24	21142.06
693.38	21032.05
693.51	21088.23
693.65	21233.34
693.78	20992.26
693.92	20486.71
694.05	20830.77
694.19	20449.26
694.32	20346.28
694.45	20617.78
694.59	20540.54
694.72	20629.48
694.86	20308.83
694.99	20018.60
695.13	19962.43
695.26	19704.97
695.39	19658.16
695.53	19496.66
695.66	19695.61
695.80	19304.74
695.93	19499.00
696.07	19138.56
696.20	18801.52
696.33	19026.21
696.47	18799.18
696.60	18953.66
696.73	19105.79
696.87	19190.05
697.00	18593.22
697.14	18494.91
697.27	18457.46
697.40	18574.49
697.54	18452.78
697.67	18546.40
697.80	18427.04
697.94	18333.42
698.07	18202.35
698.21	18141.49
698.34	18064.25
698.47	17539.97
698.61	17738.92
698.74	17708.49
698.87	17376.14
699.01	17249.75
699.14	17324.65
699.27	17348.05
699.40	17181.87
699.54	17462.74
699.67	17266.13
699.80	16816.75
699.94	17130.38
700.07	17137.40
700.20	16741.85
700.34	16718.45
700.47	16617.80
700.60	17041.44
700.73	16833.13
700.87	16203.53
701.00	16353.32
701.13	16191.83
701.26	15885.22
701.40	16053.73
701.53	15901.60
701.66	16205.87
701.79	15704.99
701.93	15737.76
702.06	15379.66
702.19	15679.25
702.32	15370.30
702.46	15639.46
702.59	15234.55
702.72	15531.80
702.85	15482.64
702.99	15183.06
703.12	15000.49
703.25	15014.54
703.38	14991.13
703.51	14862.40
703.65	14764.10
703.78	14494.94
703.91	14466.85
704.04	14593.24
704.17	14363.87
704.31	14450.47
704.44	14530.05
704.57	14118.11
704.70	14253.86
704.83	14314.72
704.96	14104.07
705.10	13841.93
705.23	13696.82
>>>>>End Processed Spectral Data<<<<<
