SpectraSuite Data File
++++++++++++++++++++++++++++++++++++
Date: Fri Oct 25 10:47:36 EDT 2013
User: price-jones
Dark Spectrum Present: No
Reference Spectrum Present: No
Number of Sampled Component Spectra: 1
Spectrometers: USB2+H05261
Integration Time (usec): 100000 (USB2+H05261)
Spectra Averaged: 1 (USB2+H05261)
Boxcar Smoothing: 0 (USB2+H05261)
Correct for Electrical Dark: No (USB2+H05261)
Strobe/Lamp Enabled: No (USB2+H05261)
Correct for Detector Non-linearity: No (USB2+H05261)
Correct for Stray Light: No (USB2+H05261)
Number of Pixels in Processed Spectrum: 2048
>>>>>Begin Processed Spectral Data<<<<<
365.73	175.54
365.92	175.54
366.12	175.54
366.32	53.83
366.52	7.02
366.72	0.00
366.91	42.13
367.11	0.00
367.31	44.47
367.51	112.35
367.70	46.81
367.90	21.06
368.10	51.49
368.30	4.68
368.49	49.15
368.69	88.94
368.89	163.84
369.09	37.45
369.28	81.92
369.48	51.49
369.68	88.94
369.87	51.49
370.07	117.03
370.27	74.90
370.47	187.24
370.66	367.46
370.86	477.47
371.06	503.22
371.25	477.47
371.45	428.32
371.65	505.56
371.84	482.15
372.04	514.92
372.24	470.45
372.44	496.19
372.63	615.56
372.83	486.83
373.03	498.53
373.22	526.62
373.42	491.51
373.62	519.60
373.81	599.18
374.01	585.13
374.21	561.73
374.40	564.07
374.60	575.77
374.79	547.69
374.99	528.96
375.19	573.43
375.38	589.82
375.58	648.33
375.78	557.05
375.97	538.32
376.17	667.05
376.37	615.56
376.56	606.20
376.76	517.26
376.95	678.76
377.15	620.24
377.35	575.77
377.54	648.33
377.74	617.90
377.93	697.48
378.13	655.35
378.33	699.82
378.52	662.37
378.72	617.90
378.91	617.90
379.11	664.71
379.31	650.67
379.50	578.11
379.70	676.41
379.89	709.18
380.09	653.01
380.28	599.18
380.48	650.67
380.68	650.67
380.87	702.16
381.07	620.24
381.26	678.76
381.46	711.52
381.65	695.14
381.85	667.05
382.04	671.73
382.24	706.84
382.43	662.37
382.63	723.23
382.83	805.14
383.02	791.10
383.22	737.27
383.41	706.84
383.61	690.46
383.80	683.44
384.00	688.12
384.19	732.59
384.39	678.76
384.58	748.97
384.78	709.18
384.97	732.59
385.17	744.29
385.36	746.63
385.56	802.80
385.75	793.44
385.95	755.99
386.14	875.36
386.34	851.96
386.53	809.83
386.72	716.20
386.92	898.77
387.11	814.51
387.31	826.21
387.50	723.23
387.70	746.63
387.89	793.44
388.09	791.10
388.28	917.49
388.48	833.23
388.67	805.14
388.86	828.55
389.06	849.61
389.25	908.13
389.45	915.15
389.64	870.68
389.84	983.02
390.03	926.85
390.22	938.55
390.42	943.24
390.61	933.87
390.81	901.11
391.00	1013.45
391.19	964.30
391.39	936.21
391.58	945.58
391.78	1046.22
391.97	1093.03
392.16	1004.09
392.36	901.11
392.55	1043.88
392.75	978.34
392.94	1004.09
393.13	1004.09
393.33	875.36
393.52	1022.81
393.71	1032.18
393.91	1060.26
394.10	1008.77
394.29	1111.75
394.49	1123.46
394.68	1069.62
394.88	1060.26
395.07	1107.07
395.26	1163.25
395.46	1086.01
395.65	1207.72
395.84	1219.42
396.04	1210.06
396.23	1188.99
396.42	1116.44
396.62	1130.48
396.81	1149.20
397.00	1100.05
397.19	1163.25
397.39	1217.08
397.58	1261.55
397.77	1221.76
397.97	1259.21
398.16	1310.70
398.35	1282.61
398.55	1329.42
398.74	1329.42
398.93	1497.94
399.12	1371.55
399.32	1329.42
399.51	1359.85
399.70	1390.28
399.90	1364.53
400.09	1493.26
400.28	1441.77
400.47	1413.68
400.67	1434.75
400.86	1493.26
401.05	1533.05
401.24	1530.71
401.44	1465.18
401.63	1451.13
401.82	1593.90
402.01	1607.95
402.21	1502.62
402.40	1554.12
402.59	1577.52
402.78	1558.80
402.97	1572.84
403.17	1593.90
403.36	1675.82
403.55	1591.56
403.74	1614.97
403.93	1682.85
404.13	1624.33
404.32	1706.25
404.51	1717.95
404.70	1706.25
404.89	1652.42
405.09	1776.47
405.28	1741.36
405.47	1678.16
405.66	1877.11
405.85	1830.30
406.05	1739.02
406.24	1748.38
406.43	1842.00
406.62	1881.79
406.81	1966.05
407.00	1874.77
407.20	1902.86
407.39	1952.01
407.58	1949.67
407.77	1966.05
407.96	1982.43
408.15	1996.48
408.34	2001.16
408.54	2097.12
408.73	2069.03
408.92	2010.52
409.11	2024.56
409.30	2125.21
409.49	2059.67
409.68	2078.40
409.87	2106.48
410.07	2118.18
410.26	2275.00
410.45	2094.78
410.64	2289.04
410.83	2183.72
411.02	2275.00
411.21	2293.72
411.40	2300.75
411.59	2263.30
411.78	2471.61
411.98	2345.22
412.17	2438.84
412.36	2396.71
412.55	2427.14
412.74	2389.69
412.93	2445.86
413.12	2303.09
413.31	2633.10
413.50	2532.46
413.69	2588.63
413.88	2693.96
414.07	2616.72
414.26	2609.70
414.45	2590.97
414.64	2640.12
414.83	2633.10
415.02	2757.15
415.22	2813.32
415.41	2864.82
415.60	2794.60
415.79	2810.98
415.98	2965.46
416.17	2953.76
416.36	2953.76
416.55	3007.59
416.74	3075.46
416.93	2991.20
417.12	2993.55
417.31	3061.42
417.50	3023.97
417.69	3185.47
417.88	3117.59
418.07	3101.21
418.26	3047.38
418.45	3234.62
418.64	3112.91
418.83	3325.90
419.02	3215.90
419.21	3255.69
419.39	3253.34
419.58	3246.32
419.77	3407.82
419.96	3288.45
420.15	3318.88
420.34	3353.99
420.53	3410.16
420.72	3501.44
420.91	3524.85
421.10	3576.34
421.29	3538.89
421.48	3300.16
421.67	3510.80
421.86	3428.88
422.05	3478.04
422.24	3447.61
422.43	3517.83
422.61	3545.91
422.80	3658.26
422.99	3749.54
423.18	3669.96
423.37	3653.58
423.56	3590.38
423.75	3599.74
423.94	3419.52
424.13	3255.69
424.32	3391.44
424.50	3576.34
424.69	3597.40
424.88	3803.37
425.07	3552.93
425.26	3435.91
425.45	3660.60
425.64	3709.75
425.83	3611.45
426.01	3721.45
426.20	3625.49
426.39	3707.41
426.58	3508.46
426.77	3520.17
426.96	3684.00
427.15	3623.15
427.33	3791.67
427.52	3637.19
427.71	3693.37
427.90	3702.73
428.09	3831.46
428.28	3913.38
428.46	3885.29
428.65	3786.99
428.84	3918.06
429.03	3812.73
429.22	3866.56
429.40	3908.69
429.59	3845.50
429.78	3751.88
429.97	3714.43
430.16	3674.64
430.34	3845.50
430.53	3943.80
430.72	3962.53
430.91	3915.72
431.10	3920.40
431.28	4147.43
431.47	4229.35
431.66	4311.27
431.85	4156.79
432.03	4182.54
432.22	4404.89
432.41	4369.78
432.60	4262.12
432.79	4121.68
432.97	4360.42
433.16	4411.91
433.35	4360.42
433.54	4236.37
433.72	4341.69
433.91	4358.08
434.10	4442.34
434.28	4517.23
434.47	4479.79
434.66	4517.23
434.85	4641.28
435.03	4652.98
435.22	4507.87
435.41	4517.23
435.59	4683.41
435.78	4662.35
435.97	4706.82
436.16	4688.09
436.34	4709.16
436.53	4807.46
436.72	4830.87
436.90	4772.35
437.09	4826.18
437.28	4573.41
437.46	4786.40
437.65	4781.71
437.84	4882.36
438.02	4858.95
438.21	4910.44
438.40	4777.03
438.58	4910.44
438.77	4940.87
438.96	4973.64
439.14	5090.67
439.33	5085.98
439.52	5118.75
439.70	5130.45
439.89	5156.20
440.08	5193.65
440.26	5195.99
440.45	4978.32
440.63	5317.70
440.82	5481.53
441.01	5387.91
441.19	5416.00
441.38	5636.01
441.57	5483.88
441.75	5561.11
441.94	5645.37
442.12	5685.16
442.31	5820.91
442.50	5734.31
442.68	5680.48
442.87	5959.00
443.05	5755.38
443.24	5764.74
443.43	6026.88
443.61	5879.43
443.80	6054.97
443.98	5785.80
444.17	5736.65
444.35	5809.21
444.54	6043.26
444.73	5921.56
444.91	5778.78
445.10	5973.05
445.28	5916.87
445.47	6024.54
445.65	6031.56
445.84	5963.68
446.02	6012.84
446.21	5970.71
446.39	5834.96
446.58	6052.63
446.77	6026.88
446.95	5928.58
447.14	6155.61
447.32	6101.78
447.51	6136.88
447.69	6050.28
447.88	6076.03
448.06	5982.41
448.25	5959.00
448.43	6132.20
448.62	6160.29
448.80	6155.61
448.99	6176.67
449.17	6260.93
449.36	6202.42
449.54	6193.06
449.73	6352.21
449.91	6494.99
450.10	6621.38
450.28	6588.61
450.46	6434.13
450.65	6623.72
450.83	6525.41
451.02	6462.22
451.20	6607.33
451.39	6541.80
451.57	6366.26
451.76	6455.20
451.94	6513.71
452.13	6459.88
452.31	6509.03
452.49	6410.73
452.68	6579.25
452.86	6743.08
453.05	6614.35
453.23	6553.50
453.42	6457.54
453.60	6628.40
453.78	6705.63
453.97	6750.10
454.15	6768.83
454.34	6810.96
454.52	6979.48
454.70	6846.07
454.89	6874.15
455.07	6981.82
455.26	7061.40
455.44	7192.47
455.62	6949.05
455.81	7002.88
455.99	7068.42
456.17	7096.50
456.36	7185.44
456.54	7080.12
456.73	7236.94
456.91	7232.26
457.09	7555.25
457.28	7536.52
457.46	7456.95
457.64	7349.28
457.83	7323.54
458.01	7194.81
458.19	7557.59
458.38	7564.61
458.56	7758.88
458.74	7595.04
458.93	7396.09
459.11	7492.05
459.29	7632.49
459.48	7695.68
459.66	7499.08
459.84	7662.91
460.03	7639.51
460.21	7658.23
460.39	7833.77
460.57	7791.64
460.76	7803.35
460.94	7838.45
461.12	8044.42
461.31	7875.90
461.49	7817.39
461.67	7793.98
461.85	8072.51
462.04	8081.87
462.22	8505.51
462.40	8290.18
462.59	8166.13
462.77	8191.88
462.95	8315.92
463.13	8032.72
463.32	8135.70
463.50	8175.49
463.68	8243.37
463.86	8280.82
464.05	8119.32
464.23	8081.87
464.41	8315.92
464.59	8114.64
464.78	8241.03
464.96	8219.96
465.14	8215.28
465.32	8318.26
465.50	8344.01
465.69	8608.49
465.87	8358.05
466.05	8381.46
466.23	8329.97
466.41	8683.39
466.60	8697.43
466.78	8493.80
466.96	8475.08
467.14	8573.38
467.32	8578.06
467.51	8753.60
467.69	8386.14
467.87	8631.90
468.05	8706.79
468.23	8816.80
468.41	8587.43
468.60	8671.68
468.78	8833.18
468.96	8851.91
469.14	8894.04
469.32	9104.68
469.50	8695.09
469.69	8809.78
469.87	8982.98
470.05	9046.17
470.23	9048.51
470.41	9324.69
470.59	9109.36
470.77	9095.32
470.95	9238.09
471.14	9467.47
471.32	8994.68
471.50	9462.79
471.68	9341.08
471.86	9490.87
472.04	9329.38
472.22	10001.11
472.40	9525.98
472.58	9385.55
472.77	9638.33
472.95	9792.80
473.13	9841.95
473.31	9678.12
473.49	9748.33
473.67	9914.51
473.85	9701.52
474.03	9982.38
474.21	10036.22
474.39	10143.88
474.57	10211.76
474.75	10331.12
474.93	10370.91
475.12	10267.93
475.30	10239.84
475.48	10340.49
475.66	10300.70
475.84	10588.58
476.02	10520.71
476.20	10466.88
476.38	10581.56
476.56	10918.60
476.74	10813.28
476.92	10993.50
477.10	10813.28
477.28	11063.71
477.46	11110.52
477.64	11318.83
477.82	11309.47
478.00	11501.39
478.18	11452.24
478.36	11646.51
478.54	11648.85
478.72	11843.11
478.90	11892.26
479.08	12226.96
479.26	12257.39
479.44	12072.48
479.62	12100.57
479.80	12304.20
479.98	12301.86
480.16	12585.06
480.34	12343.99
480.52	12737.20
480.70	12784.01
480.88	12559.31
481.06	12847.20
481.24	12840.18
481.41	13102.32
481.59	13357.44
481.77	13406.59
481.95	13151.47
482.13	13219.35
482.31	13359.78
482.49	13696.82
482.67	13638.30
482.85	13703.84
483.03	14083.00
483.21	14040.87
483.39	13923.85
483.57	14335.78
483.74	14211.73
483.92	14342.80
484.10	14511.32
484.28	14754.74
484.46	15199.44
484.64	15126.88
484.82	15040.28
485.00	15143.27
485.18	15412.43
485.35	15344.55
485.53	15213.48
485.71	15318.81
485.89	15763.51
486.07	15503.71
486.25	15655.84
486.43	15594.99
486.61	15857.13
486.78	15861.81
486.96	16112.25
487.14	16402.47
487.32	16423.54
487.50	16720.79
487.68	16992.29
487.85	16964.20
488.03	17181.87
488.21	17135.06
488.39	17284.86
488.57	17436.99
488.75	17525.93
488.92	17757.64
489.10	18185.96
489.28	17987.02
489.46	18153.20
489.64	17996.38
489.81	18752.37
489.99	18565.13
490.17	18941.96
490.35	18803.86
490.53	18948.98
490.70	19077.71
490.88	19283.67
491.06	19372.61
491.24	19480.28
491.41	19623.05
491.59	19433.47
491.77	19538.79
491.95	19597.31
492.13	20074.77
492.30	20301.81
492.48	20271.38
492.66	20156.69
492.84	20306.49
493.01	20446.92
493.19	20500.75
493.37	20903.32
493.54	20943.11
493.72	21008.65
493.90	21223.98
494.08	21422.92
494.25	21502.50
494.43	21434.63
494.61	21614.85
494.79	21989.33
494.96	21603.14
495.14	21596.12
495.32	21869.97
495.49	22003.38
495.67	22317.01
495.85	22380.20
496.02	22541.70
496.20	22604.89
496.38	22766.39
496.55	22740.64
496.73	23255.56
496.91	23047.26
497.09	23103.43
497.26	23227.48
497.44	23339.82
497.62	23180.67
497.79	23618.35
497.97	23426.42
498.14	23695.58
498.32	23836.02
498.50	23878.15
498.67	24318.17
498.85	24201.14
499.03	24421.15
499.20	24566.26
499.38	24601.37
499.56	24594.35
499.73	24786.27
499.91	25001.60
500.08	24987.56
500.26	24746.48
500.44	25043.73
500.61	25048.41
500.79	24833.08
500.97	25305.87
501.14	25518.86
501.32	25467.37
501.49	25621.84
501.67	25373.75
501.84	25797.38
502.02	25516.52
502.20	25944.84
502.37	26001.01
502.55	26141.44
502.72	25907.39
502.90	26508.91
503.07	26218.68
503.25	26043.14
503.43	26651.68
503.60	26792.11
503.78	26890.41
503.95	26464.44
504.13	26831.90
504.30	27005.10
504.48	26836.58
504.65	26871.69
504.83	26920.84
505.01	27503.64
505.18	27056.59
505.36	27278.94
505.53	27534.06
505.71	27751.73
505.88	28166.01
506.06	27564.49
506.23	27852.38
506.41	27524.70
506.58	28285.37
506.76	27693.22
506.93	28154.30
507.11	28306.44
507.28	28053.66
507.46	28219.84
507.63	28329.84
507.81	28641.14
507.98	28121.54
508.16	28364.95
508.33	28580.28
508.50	29205.20
508.68	28999.24
508.85	28872.85
509.03	28957.11
509.20	29446.28
509.38	29146.69
509.55	29404.15
509.73	29057.75
509.90	29600.76
510.08	29387.77
510.25	29317.55
510.42	29844.17
510.60	29685.01
510.77	29523.52
510.95	30169.51
511.12	30087.59
511.30	29984.60
511.47	30319.30
511.64	30012.69
511.82	30459.73
511.99	30412.92
512.17	30651.66
512.34	30403.56
512.51	30429.30
512.69	30888.05
512.86	30677.40
513.04	31150.19
513.21	31391.26
513.38	31194.66
513.56	31192.32
513.73	30810.81
513.90	31330.41
514.08	31295.30
514.25	31386.58
514.43	31112.74
514.60	31599.57
514.77	31204.02
514.95	31967.04
515.12	31831.29
515.29	32016.19
515.47	31983.42
515.64	32077.04
515.81	31885.12
515.99	32215.13
516.16	32194.07
516.33	32081.72
516.51	32301.73
516.68	31740.00
516.85	31838.31
517.03	32074.70
517.20	32137.90
517.37	32332.16
517.54	32701.96
517.72	32217.47
517.89	32121.51
518.06	32224.50
518.24	32636.43
518.41	32510.04
518.58	32666.86
518.75	32697.28
518.93	33146.67
519.10	33071.77
519.27	33303.48
519.45	32985.17
519.62	32992.19
519.79	33551.58
519.96	33546.90
520.14	34033.73
520.31	33624.14
520.48	33799.68
520.65	33593.71
520.83	33977.56
521.00	33963.51
521.17	34120.33
521.34	34415.24
521.52	34087.56
521.69	34408.22
521.86	34693.76
522.03	34101.61
522.20	33855.85
522.38	34873.98
522.55	34775.68
522.72	34663.33
522.89	34707.80
523.07	34515.88
523.24	34632.91
523.41	34897.39
523.58	34630.57
523.75	35428.69
523.92	35117.40
524.10	35381.88
524.27	35339.75
524.44	35438.05
524.61	35768.07
524.78	35662.74
524.96	35093.99
525.13	35810.20
525.30	36187.02
525.47	35913.18
525.64	35707.21
525.81	36098.08
525.98	35625.29
526.16	35798.49
526.33	35580.82
526.50	35786.79
526.67	35545.72
526.84	35702.53
527.01	35758.70
527.18	36065.31
527.36	36154.26
527.53	36414.05
527.70	36701.94
527.87	36760.45
528.04	36385.97
528.21	36652.79
528.38	36505.34
528.55	36978.12
528.72	37076.43
528.89	36840.03
529.07	36648.11
529.24	36414.05
529.41	36657.47
529.58	36861.10
529.75	37181.75
529.92	37160.69
530.09	37471.98
530.26	37291.76
530.43	37532.83
530.60	36854.08
530.77	37581.98
530.94	37860.51
531.11	37617.09
531.28	37736.46
531.46	37521.13
531.63	37935.40
531.80	37610.07
531.97	37181.75
532.14	37766.88
532.31	37287.07
532.48	37514.11
532.65	37642.84
532.82	37553.90
532.99	38211.59
533.16	37612.41
533.33	37670.92
533.50	38352.02
533.67	38146.05
533.84	38169.46
534.01	38307.55
534.18	38284.14
534.35	38213.93
534.52	38352.02
534.69	38492.45
534.86	38637.56
535.03	38298.19
535.20	38464.36
535.37	39138.44
535.54	39112.69
535.71	38799.06
535.88	38480.75
536.05	39047.16
536.22	39042.48
536.38	38930.13
536.55	38904.38
536.72	38742.89
536.89	38880.98
537.06	38850.55
537.23	38850.55
537.40	38916.09
537.57	39129.08
537.74	39086.95
537.91	39728.25
538.08	39260.15
538.25	39501.22
538.42	39365.47
538.59	39491.86
538.75	39353.77
538.92	39798.47
539.09	39896.77
539.26	39297.59
539.43	39812.51
539.60	39466.11
539.77	39503.56
539.94	40037.20
540.11	39756.34
540.28	39449.73
540.44	39431.01
540.61	39732.93
540.78	40133.17
540.95	39777.40
541.12	39526.97
541.29	39632.29
541.46	39861.66
541.62	40348.50
541.79	40474.88
541.96	39576.12
542.13	39859.32
542.30	40088.70
542.47	40685.53
542.63	40411.69
542.80	40374.24
542.97	41446.21
543.14	40968.74
543.31	40416.37
543.48	40804.90
543.64	41591.32
543.81	40825.96
543.98	40952.35
544.15	41167.68
544.32	41570.25
544.48	41542.17
544.65	41212.15
544.82	41429.82
544.99	41060.02
545.16	41462.59
545.32	41043.63
545.49	41476.63
545.66	41518.76
545.83	41338.54
546.00	41778.56
546.16	41588.98
546.33	41308.11
546.50	40942.99
546.67	41539.83
546.83	41109.17
547.00	41371.31
547.17	41514.08
547.34	41528.13
547.50	41984.53
547.67	41848.78
547.84	41638.13
548.00	41790.27
548.17	41998.57
548.34	42014.96
548.51	42050.06
548.67	42082.83
548.84	41684.94
549.01	41888.57
549.18	42005.59
549.34	42459.66
549.51	42120.28
549.68	42333.27
549.84	42059.43
550.01	42454.98
550.18	42337.95
550.34	42099.22
550.51	42295.82
550.68	42319.23
550.84	42267.73
551.01	42321.57
551.18	42366.04
551.34	42890.32
551.51	42368.38
551.68	43005.00
551.84	42728.82
552.01	42550.94
552.18	42576.69
552.34	42462.00
552.51	42586.05
552.68	42887.98
552.84	42796.70
553.01	42801.38
553.18	42775.63
553.34	42497.11
553.51	42389.44
553.67	42885.64
553.84	43157.14
554.01	43227.35
554.17	42848.19
554.34	43723.55
554.51	43351.40
554.67	43112.67
554.84	43112.67
555.00	42960.53
555.17	43313.95
555.33	43161.82
555.50	43079.90
555.67	43185.22
555.83	42880.95
556.00	43070.54
556.16	43955.26
556.33	43580.78
556.50	43061.18
556.66	43241.40
556.83	43381.83
556.99	43632.27
557.16	43386.51
557.32	43351.40
557.49	43241.40
557.65	43203.95
557.82	43807.81
557.98	43599.50
558.15	43606.52
558.32	43896.75
558.48	43320.98
558.65	43414.60
558.81	43339.70
558.98	43508.22
559.14	43777.38
559.31	43461.41
559.47	43697.80
559.64	44154.21
559.80	44217.40
559.97	43800.79
560.13	43988.03
560.30	43566.73
560.46	44222.08
560.63	43875.68
560.79	43835.89
560.96	44376.56
561.12	43742.27
561.29	43929.51
561.45	43871.00
561.61	43924.83
561.78	43971.64
561.94	43821.85
562.11	43805.47
562.27	43990.37
562.44	43770.36
562.60	43777.38
562.77	44194.00
562.93	44392.94
563.10	44357.83
563.26	43934.20
563.42	44018.46
563.59	44189.31
563.75	44395.28
563.92	44336.77
564.08	44519.33
564.24	44619.97
564.41	44863.39
564.57	44292.30
564.74	44350.81
564.90	44233.78
565.07	44467.84
565.23	44334.43
565.39	44301.66
565.56	44732.32
565.72	44107.40
565.88	44076.97
566.05	43948.24
566.21	44189.31
566.38	44397.62
566.54	44444.43
566.70	44488.90
566.87	44528.69
567.03	44619.97
567.19	44821.26
567.36	44538.05
567.52	44240.81
567.68	44610.61
567.85	44156.55
568.01	44486.56
568.17	44142.50
568.34	44516.99
568.50	44250.17
568.66	44224.42
568.83	44456.14
568.99	44673.81
569.15	44659.76
569.32	44294.64
569.48	44339.11
569.64	44896.16
569.81	44608.27
569.97	44737.00
570.13	45024.89
570.30	43992.71
570.46	44423.37
570.62	44397.62
570.78	44402.30
570.95	44301.66
571.11	44685.51
571.27	44706.57
571.43	44385.92
571.60	44598.91
571.76	44399.96
571.92	44577.84
572.09	44516.99
572.25	44863.39
572.41	44744.02
572.57	44526.35
572.74	45347.88
572.90	44783.81
573.06	44825.94
573.22	44744.02
573.38	44390.60
573.55	44292.30
573.71	44992.12
573.87	44795.51
574.03	44650.40
574.20	45144.25
574.36	44767.43
574.52	45127.87
574.68	44549.76
574.84	44755.72
575.01	44987.44
575.17	44748.70
575.33	44706.57
575.49	44924.24
575.65	45443.84
575.82	45130.21
575.98	44847.00
576.14	45172.34
576.30	45024.89
576.46	44619.97
576.62	44680.83
576.79	45083.40
576.95	44348.47
577.11	45041.27
577.27	45109.14
577.43	44839.98
577.59	44559.12
577.75	44980.42
577.92	44350.81
578.08	45155.96
578.24	44465.50
578.40	44552.10
578.56	44868.07
578.72	44863.39
578.88	45319.79
579.04	45336.18
579.21	44605.93
579.37	44676.15
579.53	44638.70
579.69	44458.48
579.85	44942.97
580.01	45261.28
580.17	44800.19
580.33	45280.00
580.49	45198.09
580.65	45111.49
580.82	44800.19
580.98	44638.70
581.14	45130.21
581.30	44989.78
581.46	44872.75
581.62	44954.67
581.78	45170.00
581.94	45050.63
582.10	45088.08
582.26	44882.11
582.42	45097.44
582.58	45350.22
582.74	44769.77
582.90	44919.56
583.06	45422.78
583.22	45277.66
583.38	45045.95
583.54	45139.57
583.70	44964.03
583.86	45397.03
584.02	44828.28
584.18	44776.79
584.34	45303.41
584.50	45067.02
584.66	45170.00
584.82	44488.90
584.98	45153.62
585.14	44975.73
585.30	44832.96
585.46	45130.21
585.62	44982.76
585.78	44989.78
585.94	44739.34
586.10	45008.50
586.26	44467.84
586.42	44662.10
586.58	45055.31
586.74	45090.42
586.90	44762.75
587.06	44957.01
587.22	45158.30
587.38	44685.51
587.54	45420.44
587.70	45090.42
587.86	45146.59
588.02	44982.76
588.18	45251.92
588.34	45113.83
588.49	44720.62
588.65	44631.68
588.81	44788.49
588.97	44502.95
589.13	44690.19
589.29	44968.71
589.45	44940.63
589.61	45181.70
589.77	45111.49
589.93	45457.88
590.08	45340.86
590.24	45556.19
590.40	45603.00
590.56	45385.33
590.72	45303.41
590.88	45200.43
591.04	45418.10
591.20	45345.54
591.35	45343.20
591.51	45675.55
591.67	45642.79
591.83	45010.84
591.99	45277.66
592.15	45237.87
592.31	45055.31
592.46	45188.72
592.62	45457.88
592.78	45195.74
592.94	45572.57
593.10	44910.20
593.26	45500.01
593.41	45450.86
593.57	45373.63
593.73	45312.77
593.89	45624.06
594.05	45619.38
594.20	45209.79
594.36	45455.54
594.52	45200.43
594.68	45469.59
594.84	45563.21
594.99	45951.74
595.15	45614.70
595.31	45357.24
595.47	45357.24
595.62	45083.40
595.78	45467.25
595.94	45621.72
596.10	45848.75
596.25	45551.51
596.41	45310.43
596.57	45450.86
596.73	45345.54
596.88	45188.72
597.04	45251.92
597.20	45308.09
597.36	45717.68
597.51	45310.43
597.67	45495.33
597.83	45642.79
597.99	45811.31
598.14	45565.55
598.30	45717.68
598.46	45610.02
598.61	45331.50
598.77	44872.75
598.93	45249.58
599.09	45584.27
599.24	45680.24
599.40	45734.07
599.56	45455.54
599.71	45792.58
599.87	45628.74
600.03	45860.46
600.18	45392.35
600.34	45415.76
600.50	45352.56
600.65	45291.71
600.81	45310.43
600.97	45846.41
601.12	45794.92
601.28	45350.22
601.44	45319.79
601.59	45469.59
601.75	45062.33
601.91	45191.06
602.06	45483.63
602.22	45584.27
602.37	45427.46
602.53	45617.04
602.69	46351.97
602.84	45347.88
603.00	45216.81
603.16	45373.63
603.31	45137.23
603.47	45446.18
603.62	45567.89
603.78	45729.39
603.94	45523.42
604.09	45752.79
604.25	45694.28
604.40	45930.67
604.56	45160.64
604.71	45663.85
604.87	45462.57
605.03	45382.99
605.18	45631.08
605.34	45249.58
605.49	45123.19
605.65	45799.60
605.80	45488.31
605.96	44919.56
606.12	45567.89
606.27	45036.59
606.43	44900.84
606.58	45338.52
606.74	45202.77
606.89	45478.95
607.05	45516.40
607.20	45485.97
607.36	45228.51
607.51	45457.88
607.67	45251.92
607.82	44931.26
607.98	45244.90
608.13	45249.58
608.29	45399.37
608.44	44584.86
608.60	44542.74
608.75	44734.66
608.91	44964.03
609.06	44657.42
609.22	44978.07
609.37	45181.70
609.53	44832.96
609.68	44835.30
609.84	45324.47
609.99	44989.78
610.15	44713.59
610.30	44587.21
610.46	44753.38
610.61	45022.54
610.76	45067.02
610.92	44584.86
611.07	44311.02
611.23	44877.43
611.38	45095.10
611.54	44734.66
611.69	44816.58
611.84	44896.16
612.00	44582.52
612.15	44577.84
612.31	44390.60
612.46	44884.45
612.62	44715.93
612.77	45174.68
612.92	44395.28
613.08	44439.75
613.23	44807.22
613.39	44514.65
613.54	43826.53
613.69	44095.69
613.85	44446.77
614.00	44453.79
614.15	44680.83
614.31	44369.54
614.46	44701.89
614.62	44320.38
614.77	44659.76
614.92	44701.89
615.08	44559.12
615.23	44800.19
615.38	44273.57
615.54	44142.50
615.69	43784.40
615.84	44116.76
616.00	44151.87
616.15	44257.19
616.30	44327.41
616.46	43746.95
616.61	43646.31
616.76	43992.71
616.92	43653.33
617.07	44610.61
617.22	43861.64
617.37	43775.04
617.53	44208.04
617.68	44278.25
617.83	44100.37
617.99	44648.06
618.14	44072.29
618.29	43875.68
618.45	43690.78
618.60	43856.96
618.75	43805.47
618.90	44055.90
619.06	43749.29
619.21	44032.50
619.36	44030.16
619.51	43587.80
619.67	43772.70
619.82	43805.47
619.97	44369.54
620.12	43611.20
620.28	43077.56
620.43	43681.42
620.58	43269.48
620.73	43873.34
620.89	43103.31
621.04	43470.77
621.19	43489.49
621.34	42866.91
621.49	43536.30
621.65	43426.30
621.80	43847.60
621.95	43164.16
622.10	43421.62
622.25	43061.18
622.41	43192.25
622.56	42752.23
622.71	43683.76
622.86	43157.14
623.01	43398.21
623.16	43260.12
623.32	43243.74
623.47	43639.29
623.62	43236.72
623.77	43320.98
623.92	42948.83
624.07	42707.76
624.23	43002.66
624.38	42396.46
624.53	43070.54
624.68	42806.06
624.83	43082.24
624.98	43161.82
625.13	43655.67
625.29	43093.94
625.44	42724.14
625.59	42768.61
625.74	42679.67
625.89	42190.50
626.04	42576.69
626.19	42143.69
626.34	42609.45
626.49	42593.07
626.65	42600.09
626.80	42604.77
626.95	42515.83
627.10	42256.03
627.25	42129.64
627.40	41710.69
627.55	42052.41
627.70	41584.30
627.85	42043.04
628.00	41986.87
628.15	42543.92
628.30	42438.59
628.45	42288.80
628.60	41900.27
628.76	42258.37
628.91	42361.36
629.06	42438.59
629.21	41897.93
629.36	41954.10
629.51	41649.83
629.66	41773.88
629.81	41811.33
629.96	41937.72
630.11	41860.48
630.26	42057.09
630.41	42096.88
630.56	41846.44
630.71	41834.74
630.86	41413.44
631.01	41825.37
631.16	41518.76
631.31	41738.77
631.46	41045.97
631.61	41776.22
631.76	41855.80
631.91	41469.61
632.06	41773.88
632.21	41254.28
632.36	41701.32
632.51	41198.11
632.66	41816.01
632.81	40891.50
632.96	41291.73
633.10	41268.33
633.25	41394.71
633.40	41359.61
633.55	41481.31
633.70	41191.09
633.85	41153.64
634.00	41434.50
634.15	41408.76
634.30	40947.67
634.45	40968.74
634.60	40786.18
634.75	41144.28
634.90	41270.67
635.05	40830.65
635.19	41303.43
635.34	41134.92
635.49	40748.73
635.64	41038.95
635.79	40854.05
635.94	40669.15
636.09	40989.80
636.24	40823.62
636.39	40392.97
636.53	40416.37
636.68	40753.41
636.83	40980.44
636.98	41067.04
637.13	40509.99
637.28	40587.23
637.43	40898.52
637.57	40814.26
637.72	40428.07
637.87	40823.62
638.02	40526.38
638.17	40538.08
638.32	40591.91
638.46	40184.66
638.61	40020.82
638.76	40060.61
638.91	40250.19
639.06	40196.36
639.20	40374.24
639.35	40453.82
639.50	40201.04
639.65	40397.65
639.80	40418.71
639.94	40163.59
640.09	40018.48
640.24	40161.25
640.39	39613.57
640.54	40271.26
640.68	39892.09
640.83	39913.16
640.98	39519.95
641.13	39772.72
641.27	40460.84
641.42	39920.18
641.57	40444.46
641.72	40109.76
641.86	39419.30
642.01	39569.10
642.16	39833.58
642.31	39594.84
642.45	39915.50
642.60	39035.45
642.75	39328.02
642.90	39718.89
643.04	39409.94
643.19	39456.75
643.34	39709.53
643.48	39309.30
643.63	39606.55
643.78	39213.34
643.93	39103.33
644.07	39049.50
644.22	39175.89
644.37	39466.11
644.51	39606.55
644.66	39466.11
644.81	39571.44
644.95	39555.05
645.10	39679.10
645.25	39463.77
645.39	39077.58
645.54	39271.85
645.69	38658.63
645.83	38948.85
645.98	39182.91
646.13	39370.15
646.27	39227.38
646.42	38944.17
646.57	39285.89
646.71	39005.03
646.86	39342.06
647.00	39089.29
647.15	39253.12
647.30	39199.29
647.44	39302.28
647.59	38747.57
647.74	38527.56
647.88	38906.73
648.03	38913.75
648.17	38574.37
648.32	38539.26
648.47	38902.04
648.61	38810.76
648.76	39110.35
648.90	38845.87
649.05	38728.84
649.20	38747.57
649.34	39229.72
649.49	38850.55
649.63	38387.13
649.78	38768.63
649.92	38710.12
650.07	39009.71
650.21	37968.17
650.36	38361.38
650.51	38239.67
650.65	39054.18
650.80	38813.10
650.94	38590.75
651.09	38356.70
651.23	38057.11
651.38	38045.41
651.52	38366.06
651.67	38227.97
651.81	38312.23
651.96	38066.47
652.10	38071.15
652.25	37790.29
652.39	37890.93
652.54	38068.81
652.68	38260.74
652.83	38024.34
652.97	37963.49
653.12	38026.68
653.26	37865.19
653.41	38038.39
653.55	37715.39
653.70	37895.61
653.84	37947.11
653.99	37823.06
654.13	37855.82
654.27	37818.38
654.42	37287.07
654.56	38146.05
654.71	37818.38
654.85	37993.92
655.00	37769.22
655.14	37874.55
655.29	37151.32
655.43	37411.12
655.57	37017.91
655.72	37251.97
655.86	37277.71
656.01	37235.58
656.15	36931.31
656.30	37303.46
656.44	37443.89
656.58	36603.64
656.73	37071.75
656.87	36886.84
657.01	37050.68
657.16	36957.06
657.30	36968.76
657.45	36800.24
657.59	37092.81
657.73	36371.92
657.88	37207.50
658.02	36903.23
658.16	36931.31
658.31	37106.85
658.45	37078.77
658.60	36847.05
658.74	36697.26
658.88	37336.23
659.03	36301.71
659.17	36484.27
659.31	36910.25
659.46	36341.50
659.60	36620.02
659.74	36467.89
659.89	36299.37
660.03	36528.74
660.17	36816.63
660.32	36421.08
660.46	36409.37
660.60	36444.48
660.74	36278.30
660.89	36156.60
661.03	36065.31
661.17	36098.08
661.32	35414.65
661.46	35683.81
661.60	35730.62
661.74	36175.32
661.89	35697.85
662.03	36065.31
662.17	35803.17
662.31	35833.60
662.46	36067.66
662.60	35632.32
662.74	35765.73
662.88	36238.51
663.03	35503.59
663.17	35402.94
663.31	35248.47
663.45	35456.78
663.60	35517.63
663.74	34995.69
663.88	35150.17
664.02	34862.28
664.17	35147.82
664.31	35065.91
664.45	34644.61
664.59	35204.00
664.73	35014.41
664.88	34780.36
665.02	34438.64
665.16	35075.27
665.30	34756.96
665.44	34492.47
665.59	34653.97
665.73	34595.46
665.87	34146.08
666.01	34593.12
666.15	34532.26
666.29	34445.66
666.44	34703.12
666.58	34115.65
666.72	34220.97
666.86	34604.82
667.00	34707.80
667.14	34270.12
667.28	33773.93
667.43	33827.76
667.57	33673.29
667.71	33876.91
667.85	33977.56
667.99	33525.83
668.13	33764.57
668.27	33813.72
668.41	33720.10
668.56	33844.15
668.70	33806.70
668.84	33270.72
668.98	33530.51
669.12	33109.22
669.26	33083.47
669.40	33132.62
669.54	32999.21
669.68	33170.07
669.82	33191.14
669.96	33055.39
670.10	32657.49
670.25	33221.56
670.39	32856.44
670.53	32748.78
670.67	32587.28
670.81	32835.38
670.95	32818.99
671.09	32617.71
671.23	32418.76
671.37	32683.24
671.51	32385.99
671.65	32793.25
671.79	32503.02
671.93	32065.34
672.07	32233.86
672.21	32266.63
672.35	31945.97
672.49	32030.23
672.63	32488.98
672.77	31915.54
672.91	31681.49
673.05	31885.12
673.19	31641.70
673.33	31328.07
673.47	31531.70
673.61	31342.11
673.75	31435.74
673.89	30965.29
674.03	30906.77
674.17	31112.74
674.31	31213.38
674.45	30635.27
674.59	30822.51
674.73	31508.29
674.87	31129.12
675.01	30698.47
675.15	31033.16
675.29	30845.92
675.43	31232.11
675.56	31061.25
675.70	30497.18
675.84	30326.32
675.98	29221.59
676.12	30445.69
676.26	30118.01
676.40	30235.04
676.54	29565.65
676.68	29860.55
676.82	29514.16
676.96	29656.93
677.10	29425.22
677.23	29462.66
677.37	29490.75
677.51	29291.80
677.65	29413.51
677.79	28978.17
677.93	29156.05
678.07	29111.58
678.21	29043.71
678.34	28975.83
678.48	28959.45
678.62	28711.35
678.76	28348.57
678.90	28449.21
679.04	28577.94
679.18	28624.75
679.31	27826.63
679.45	27873.44
679.59	27885.14
679.73	28058.34
679.87	28006.85
680.00	27510.66
680.14	27662.79
680.28	27789.18
680.42	27395.97
680.56	27346.82
680.70	27463.85
680.83	27496.61
680.97	27180.64
681.11	26855.31
681.25	26546.36
681.39	26689.13
681.52	26806.16
681.66	27030.85
681.80	26712.53
681.94	27115.11
682.07	26588.49
682.21	26693.81
682.35	26218.68
682.49	26480.82
682.62	26284.22
682.76	26143.78
682.90	25844.20
683.04	26132.08
683.17	26195.28
683.31	26176.55
683.45	26078.25
683.59	25867.60
683.72	25507.16
683.86	25338.64
684.00	25261.40
684.13	25724.83
684.27	25469.71
684.41	25441.62
684.55	25282.47
684.68	24821.38
684.82	24957.13
684.96	24617.75
685.09	24786.27
685.23	24442.21
685.37	24414.13
685.50	24694.99
685.64	24645.84
685.78	24444.56
685.91	24285.40
686.05	24194.12
686.19	23887.51
686.32	24084.11
686.46	23880.49
686.60	23477.91
686.73	23662.82
686.87	23580.90
687.01	23552.81
687.14	23431.10
687.28	23087.04
687.42	23407.70
687.55	22808.52
687.69	22979.38
687.82	22771.07
687.96	22881.08
688.10	22857.67
688.23	22813.20
688.37	22553.40
688.50	22253.81
688.64	22331.05
688.78	22434.03
688.91	22361.48
689.05	22321.69
689.18	22199.98
689.32	21472.07
689.46	22040.82
689.59	21937.84
689.73	22230.41
689.86	21841.88
690.00	21619.53
690.13	21621.87
690.27	21876.99
690.41	21720.17
690.54	21369.09
690.68	21383.13
690.81	21216.96
690.95	20854.17
691.08	21158.44
691.22	20971.20
691.35	21010.99
691.49	20847.15
691.62	20945.45
691.76	20938.43
691.89	20961.84
692.03	20556.93
692.16	20587.35
692.30	20353.30
692.43	20449.26
692.57	20060.73
692.70	19995.20
692.84	20217.55
692.97	20002.22
693.11	19964.77
693.24	19695.61
693.38	19822.00
693.51	19676.88
693.65	19590.28
693.78	19634.75
693.92	19527.09
694.05	19328.14
694.19	19166.65
694.32	19145.58
694.45	19534.11
694.59	18941.96
694.72	19129.20
694.86	19005.15
694.99	18740.67
695.13	18771.10
695.26	18576.83
695.39	18291.29
695.53	18663.43
695.66	18405.97
695.80	18670.45
695.93	18466.83
696.07	18347.46
696.20	18249.16
696.33	18228.09
696.47	18078.30
696.60	17820.84
696.73	17830.20
696.87	17727.22
697.00	17673.39
697.14	17596.15
697.27	17486.14
697.40	17647.64
697.54	17563.38
697.67	17259.11
697.80	17549.34
697.94	17364.43
698.07	17083.57
698.21	17069.53
698.34	17118.68
698.47	16837.81
698.61	16732.49
698.74	16573.33
698.87	16456.31
699.01	16643.55
699.14	16582.70
699.27	16353.32
699.40	16285.45
699.54	15974.16
699.67	16470.35
699.80	16060.76
699.94	15985.86
700.07	15957.77
700.20	16130.97
700.34	15899.26
700.47	15857.13
700.60	15716.70
700.73	15962.45
700.87	15583.29
701.00	15543.50
701.13	15304.76
701.26	15611.37
701.40	15386.68
701.53	15246.25
701.66	15307.10
701.79	15016.88
701.93	14993.47
702.06	14862.40
702.19	14621.33
702.32	14984.11
702.46	14789.85
702.59	14977.09
702.72	14946.66
702.85	14754.74
702.99	15009.86
703.12	14820.27
703.25	14368.55
703.38	14586.22
703.51	14216.41
703.65	14541.75
703.78	14288.97
703.91	14256.20
704.04	14181.31
704.17	14424.72
704.31	13961.30
704.44	13799.80
704.57	13521.27
704.70	13418.29
704.83	13804.48
704.96	13678.09
705.10	13652.34
705.23	13839.59
>>>>>End Processed Spectral Data<<<<<
