SpectraSuite Data File
++++++++++++++++++++++++++++++++++++
Date: Fri Oct 25 11:34:16 EDT 2013
User: price-jones
Dark Spectrum Present: No
Reference Spectrum Present: No
Number of Sampled Component Spectra: 1
Spectrometers: USB2+H05261
Integration Time (usec): 100000 (USB2+H05261)
Spectra Averaged: 1 (USB2+H05261)
Boxcar Smoothing: 0 (USB2+H05261)
Correct for Electrical Dark: No (USB2+H05261)
Strobe/Lamp Enabled: No (USB2+H05261)
Correct for Detector Non-linearity: No (USB2+H05261)
Correct for Stray Light: No (USB2+H05261)
Number of Pixels in Processed Spectrum: 2048
>>>>>Begin Processed Spectral Data<<<<<
365.73	290.23
365.92	290.23
366.12	290.23
366.32	205.97
366.52	229.37
366.72	222.35
366.91	175.54
367.11	124.05
367.31	173.20
367.51	152.13
367.70	201.29
367.90	194.26
368.10	198.95
368.30	208.31
368.49	135.75
368.69	142.77
368.89	168.52
369.09	191.92
369.28	126.39
369.48	152.13
369.68	231.71
369.87	294.91
370.07	241.08
370.27	224.69
370.47	271.50
370.66	458.74
370.86	461.09
371.06	538.32
371.25	589.82
371.45	503.22
371.65	543.00
371.84	521.94
372.04	461.09
372.24	568.75
372.44	505.56
372.63	571.09
372.83	566.41
373.03	613.22
373.22	641.31
373.42	631.94
373.62	566.41
373.81	589.82
374.01	564.07
374.21	617.90
374.40	681.10
374.60	706.84
374.79	631.94
374.99	678.76
375.19	699.82
375.38	641.31
375.58	676.41
375.78	683.44
375.97	706.84
376.17	603.86
376.37	685.78
376.56	645.99
376.76	631.94
376.95	643.65
377.15	718.54
377.35	713.86
377.54	648.33
377.74	681.10
377.93	706.84
378.13	751.31
378.33	688.12
378.52	695.14
378.72	798.12
378.91	638.97
379.11	709.18
379.31	676.41
379.50	657.69
379.70	678.76
379.89	765.36
380.09	657.69
380.28	711.52
380.48	730.25
380.68	709.18
380.87	713.86
381.07	830.89
381.26	798.12
381.46	699.82
381.65	709.18
381.85	741.95
382.04	802.80
382.24	821.53
382.43	683.44
382.63	748.97
382.83	737.27
383.02	767.70
383.22	704.50
383.41	763.01
383.61	755.99
383.80	770.04
384.00	842.59
384.19	739.61
384.39	795.78
384.58	786.42
384.78	781.74
384.97	873.02
385.17	912.81
385.36	821.53
385.56	807.48
385.75	842.59
385.95	809.83
386.14	840.25
386.34	821.53
386.53	870.68
386.72	863.66
386.92	882.38
387.11	842.59
387.31	847.27
387.50	912.81
387.70	854.30
387.89	847.27
388.09	882.38
388.28	905.79
388.48	912.81
388.67	915.15
388.86	873.02
389.06	905.79
389.25	880.04
389.45	826.21
389.64	931.53
389.84	971.32
390.03	987.71
390.22	936.21
390.42	880.04
390.61	915.15
390.81	940.90
391.00	1078.99
391.19	1025.15
391.39	924.51
391.58	966.64
391.78	1006.43
391.97	1004.09
392.16	1039.20
392.36	990.05
392.55	1032.18
392.75	1076.65
392.94	1088.35
393.13	1036.86
393.33	964.30
393.52	1053.24
393.71	978.34
393.91	983.02
394.10	1036.86
394.29	1128.14
394.49	1076.65
394.68	1132.82
394.88	1083.67
395.07	1086.01
395.26	1074.31
395.46	1057.92
395.65	1097.71
395.84	1076.65
396.04	1184.31
396.23	1149.20
396.42	1132.82
396.62	1111.75
396.81	1254.53
397.00	1163.25
397.19	1221.76
397.39	1245.16
397.58	1217.08
397.77	1149.20
397.97	1263.89
398.16	1125.80
398.35	1266.23
398.55	1221.76
398.74	1338.79
398.93	1315.38
399.12	1282.61
399.32	1228.78
399.51	1268.57
399.70	1313.04
399.90	1184.31
400.09	1322.40
400.28	1345.81
400.47	1324.74
400.67	1338.79
400.86	1387.94
401.05	1348.15
401.24	1439.43
401.44	1394.96
401.63	1390.28
401.82	1376.24
402.01	1493.26
402.21	1497.94
402.40	1427.73
402.59	1409.00
402.78	1430.07
402.97	1411.34
403.17	1486.24
403.36	1514.33
403.55	1493.26
403.74	1533.05
403.93	1614.97
404.13	1582.20
404.32	1614.97
404.51	1589.22
404.70	1645.40
404.89	1533.05
405.09	1729.66
405.28	1596.25
405.47	1593.90
405.66	1614.97
405.85	1654.76
406.05	1617.31
406.24	1722.63
406.43	1689.87
406.62	1736.68
406.81	1816.26
407.00	1764.76
407.20	1685.19
407.39	1863.07
407.58	1872.43
407.77	1879.45
407.96	1874.77
408.15	1916.90
408.34	1739.02
408.54	1879.45
408.73	1935.62
408.92	1973.07
409.11	2017.54
409.30	1940.30
409.49	1849.02
409.68	2010.52
409.87	1996.48
410.07	1994.14
410.26	2045.63
410.45	1963.71
410.64	2057.33
410.83	1980.09
411.02	2059.67
411.21	2169.68
411.40	2108.82
411.59	2244.57
411.78	2069.03
411.98	2186.06
412.17	2188.40
412.36	2202.44
412.55	2195.42
412.74	2282.02
412.93	2356.92
413.12	2282.02
413.31	2359.26
413.50	2373.30
413.69	2403.73
413.88	2459.90
414.07	2462.24
414.26	2476.29
414.45	2413.09
414.64	2574.59
414.83	2466.92
415.02	2523.10
415.22	2483.31
415.41	2595.65
415.60	2487.99
415.79	2609.70
415.98	2661.19
416.17	2719.70
416.36	2722.04
416.55	2759.49
416.74	2719.70
416.93	2654.17
417.12	2836.73
417.31	2867.16
417.50	2803.96
417.69	2729.06
417.88	2911.63
418.07	2771.19
418.26	2787.58
418.45	2829.71
418.64	2930.35
418.83	2930.35
419.02	3019.29
419.21	2991.20
419.39	3143.34
419.58	3049.72
419.77	2995.89
419.96	3012.27
420.15	3112.91
420.34	3047.38
420.53	3026.31
420.72	3155.04
420.91	3103.55
421.10	3129.30
421.29	3082.49
421.48	3049.72
421.67	3173.77
421.86	3204.19
422.05	3178.45
422.24	3225.26
422.43	3234.62
422.61	3368.03
422.80	3330.58
422.99	3410.16
423.18	3370.37
423.37	3194.83
423.56	3251.00
423.75	3363.35
423.94	3288.45
424.13	3009.93
424.32	3272.07
424.50	3461.65
424.69	3370.37
424.88	3358.67
425.07	3281.43
425.26	3302.50
425.45	3372.71
425.64	3314.20
425.83	3251.00
426.01	3421.86
426.20	3473.36
426.39	3379.73
426.58	3482.72
426.77	3487.40
426.96	3431.23
427.15	3478.04
427.33	3613.79
427.52	3482.72
427.71	3564.64
427.90	3541.23
428.09	3454.63
428.28	3543.57
428.46	3599.74
428.65	3599.74
428.84	3714.43
429.03	3616.13
429.22	3440.59
429.40	3599.74
429.59	3634.85
429.78	3611.45
429.97	3515.48
430.16	3566.98
430.34	3674.64
430.53	3763.58
430.72	3688.68
430.91	3894.65
431.10	3749.54
431.28	3836.14
431.47	3950.82
431.66	3990.61
431.85	3854.86
432.03	3892.31
432.22	3918.06
432.41	3946.14
432.60	3915.72
432.79	4037.42
432.97	3918.06
433.16	4011.68
433.35	3904.01
433.54	3995.29
433.72	3941.46
433.91	4030.40
434.10	4063.17
434.28	4105.30
434.47	3908.69
434.66	4114.66
434.85	4173.18
435.03	4304.25
435.22	4086.58
435.41	4351.06
435.59	4245.73
435.78	4304.25
435.97	4294.88
436.16	4140.41
436.34	4250.41
436.53	4236.37
436.72	4329.99
436.90	4341.69
437.09	4432.97
437.28	4463.40
437.46	4465.74
437.65	4414.25
437.84	4580.43
438.02	4482.13
438.21	4404.89
438.40	4362.76
438.58	4603.83
438.77	4746.61
438.96	4683.41
439.14	4589.79
439.33	4887.04
439.52	4765.33
439.70	4800.44
439.89	4772.35
440.08	4898.74
440.26	4966.62
440.45	4943.21
440.63	4727.88
440.82	4940.87
441.01	4856.61
441.19	5018.11
441.38	5076.62
441.57	5151.52
441.75	5062.58
441.94	5191.31
442.12	5184.29
442.31	5432.38
442.50	5284.93
442.68	5362.17
442.87	5219.39
443.05	5266.21
443.24	5348.12
443.43	5357.49
443.61	5310.68
443.80	5666.44
443.98	5359.83
444.17	5193.65
444.35	5397.28
444.54	5511.96
444.73	5387.91
444.91	5376.21
445.10	5479.19
445.28	5537.71
445.47	5413.66
445.65	5610.26
445.84	5610.26
446.02	5355.15
446.21	5504.94
446.39	5451.11
446.58	5589.20
446.77	5596.22
446.95	5469.83
447.14	5561.11
447.32	5584.52
447.51	5540.05
447.69	5551.75
447.88	5652.39
448.06	5619.63
448.25	5518.98
448.43	5621.97
448.62	5619.63
448.80	5680.48
448.99	5689.84
449.17	5776.44
449.36	5640.69
449.54	5837.30
449.73	5764.74
449.91	5944.96
450.10	5839.64
450.28	5998.79
450.46	5942.62
450.65	5996.45
450.83	6026.88
451.02	5909.85
451.20	5907.51
451.39	6040.92
451.57	6153.27
451.76	6031.56
451.94	5966.03
452.13	6193.06
452.31	6085.39
452.49	6047.94
452.68	6134.54
452.86	6132.20
453.05	6286.68
453.23	6223.48
453.42	6179.01
453.60	6214.12
453.78	6293.70
453.97	6312.42
454.15	6277.32
454.34	6286.68
454.52	6455.20
454.70	6303.06
454.89	6476.26
455.07	6448.18
455.26	6464.56
455.44	6523.07
455.62	6455.20
455.81	6497.33
455.99	6487.96
456.17	6600.31
456.36	6490.31
456.54	6579.25
456.73	6698.61
456.91	6902.24
457.09	6853.09
457.28	7037.99
457.46	6836.70
457.64	6853.09
457.83	6874.15
458.01	6656.48
458.19	7033.31
458.38	6867.13
458.56	6913.94
458.74	6977.14
458.93	6864.79
459.11	7056.72
459.29	6956.07
459.48	7066.08
459.66	7007.56
459.84	7040.33
460.03	7037.99
460.21	7084.80
460.39	7126.93
460.57	6977.14
460.76	7323.54
460.94	7325.88
461.12	7349.28
461.31	7332.90
461.49	7283.75
461.67	7391.41
461.85	7323.54
462.04	7335.24
462.22	7772.92
462.40	7681.64
462.59	7538.87
462.77	7545.89
462.95	7496.74
463.13	7403.11
463.32	7431.20
463.50	7777.60
463.68	7719.09
463.86	7686.32
464.05	7700.36
464.23	7693.34
464.41	7728.45
464.59	7662.91
464.78	7946.12
464.96	7737.81
465.14	7688.66
465.32	7786.96
465.50	8095.91
465.69	7854.84
465.87	7838.45
466.05	7864.20
466.23	7908.67
466.41	7899.31
466.60	8154.43
466.78	7871.22
466.96	8077.19
467.14	8032.72
467.32	8145.06
467.51	8126.34
467.69	7992.93
467.87	8147.40
468.05	8351.03
468.23	8102.93
468.41	8053.78
468.60	8138.04
468.78	8365.07
468.96	8219.96
469.14	8304.22
469.32	8421.25
469.50	8067.83
469.69	8439.97
469.87	8496.14
470.05	8596.79
470.23	8503.17
470.41	8351.03
470.59	8552.32
470.77	8470.40
470.95	8638.92
471.14	8730.20
471.32	8526.57
471.50	8786.37
471.68	8734.88
471.86	8959.57
472.04	8894.04
472.22	9170.22
472.40	8961.91
472.58	8765.31
472.77	9034.47
472.95	9092.98
473.13	9446.40
473.31	9034.47
473.49	9153.84
473.67	8954.89
473.85	9327.03
474.03	9338.74
474.21	9425.34
474.39	9378.53
474.57	9268.52
474.75	9689.82
474.93	9591.52
475.12	9558.75
475.30	9696.84
475.48	9490.87
475.66	9781.10
475.84	9722.59
476.02	9898.13
476.20	9905.15
476.38	10134.52
476.56	10399.00
476.74	10345.17
476.92	10120.48
477.10	10286.65
477.28	10328.78
477.46	10363.89
477.64	10403.68
477.82	10609.65
478.00	10876.47
478.18	10752.42
478.36	10775.83
478.54	10995.84
478.72	11304.79
478.90	11208.83
479.08	11286.06
479.26	11246.27
479.44	11220.53
479.62	11328.19
479.80	11522.46
479.98	11637.14
480.16	11878.22
480.34	11536.50
480.52	11990.56
480.70	12004.61
480.88	11899.28
481.06	11791.62
481.24	12152.06
481.41	11967.16
481.59	12446.97
481.77	12561.66
481.95	12446.97
482.13	12741.88
482.31	12566.34
482.49	12865.92
482.67	12793.37
482.85	12830.82
483.03	13170.19
483.21	13095.30
483.39	13277.86
483.57	13289.56
483.74	13305.95
483.92	13699.16
484.10	13624.26
484.28	13778.73
484.46	14181.31
484.64	13956.61
484.82	14001.08
485.00	14174.28
485.18	14527.71
485.35	14831.97
485.53	14389.61
485.71	14686.86
485.89	14860.06
486.07	14731.33
486.25	15061.35
486.43	14991.13
486.61	15082.41
486.78	15157.31
486.96	15281.36
487.14	15604.35
487.32	15419.45
487.50	15885.22
487.68	15826.70
487.85	16147.36
488.03	16290.13
488.21	16222.25
488.39	16613.12
488.57	16786.32
488.75	16505.46
488.92	16751.21
489.10	16978.25
489.28	17027.40
489.46	17156.13
489.64	17184.21
489.81	17647.64
489.99	17696.79
490.17	17771.69
490.35	17729.56
490.53	18001.06
490.70	17933.18
490.88	18141.49
491.06	18237.45
491.24	17965.95
491.41	18202.35
491.59	18724.29
491.77	18537.04
491.95	18895.14
492.13	18979.40
492.30	19199.41
492.48	19051.96
492.66	19131.54
492.84	19087.07
493.01	19482.62
493.19	19159.63
493.37	19435.81
493.54	19499.00
493.72	19903.92
493.90	20144.99
494.08	20233.93
494.25	20217.55
494.43	20706.72
494.61	20519.48
494.79	20568.63
494.96	20484.37
495.14	20793.32
495.32	20725.44
495.49	21071.84
495.67	21179.51
495.85	21214.62
496.02	21523.57
496.20	21692.08
496.38	21591.44
496.55	21900.39
496.73	22277.22
496.91	21692.08
497.09	22160.19
497.26	21986.99
497.44	22082.95
497.62	22312.33
497.79	22452.76
497.97	22497.23
498.14	22899.80
498.32	22539.36
498.50	23044.91
498.67	23435.78
498.85	23002.78
499.03	23300.03
499.20	23562.17
499.38	23381.95
499.56	23295.35
499.73	23880.49
499.91	23871.12
500.08	24187.10
500.26	23814.95
500.44	23772.82
500.61	24163.69
500.79	24013.90
500.97	24376.68
501.14	24493.71
501.32	24531.15
501.49	24596.69
501.67	24393.06
501.84	24610.73
502.02	24477.32
502.20	24844.79
502.37	25078.84
502.55	24837.76
502.72	25242.68
502.90	25123.31
503.07	25104.59
503.25	24772.23
503.43	25158.42
503.60	25240.34
503.78	25493.12
503.95	25404.17
504.13	25352.68
504.30	26005.69
504.48	25848.88
504.65	26157.83
504.83	26012.71
505.01	26670.40
505.18	26190.59
505.36	26553.38
505.53	26518.27
505.71	26703.17
505.88	26466.78
506.06	26635.30
506.23	26824.88
506.41	26583.80
506.58	27229.79
506.76	27019.14
506.93	26941.91
507.11	26827.22
507.28	27180.64
507.46	27019.14
507.63	27267.24
507.81	27054.25
507.98	27484.91
508.16	27501.29
508.33	27866.42
508.50	27768.12
508.68	28060.68
508.85	27936.63
509.03	28046.64
509.20	27817.27
509.38	28357.93
509.55	28198.77
509.73	28180.05
509.90	28332.18
510.08	28121.54
510.25	28580.28
510.42	28779.23
510.60	28877.53
510.77	28936.04
510.95	29013.28
511.12	28919.66
511.30	28973.49
511.47	29099.88
511.64	28964.13
511.82	29282.44
511.99	29160.73
512.17	29521.18
512.34	29394.79
512.51	29947.15
512.69	29982.26
512.86	29855.87
513.04	29881.62
513.21	29982.26
513.38	29848.85
513.56	30239.72
513.73	30129.72
513.90	29989.28
514.08	30024.39
514.25	30347.39
514.43	30714.85
514.60	30394.20
514.77	30513.56
514.95	30511.22
515.12	30799.11
515.29	30464.41
515.47	31000.40
515.64	31056.57
515.81	31058.91
515.99	31089.34
516.16	31257.85
516.33	31206.36
516.51	31211.04
516.68	31360.84
516.85	31503.61
517.03	31796.18
517.20	31955.33
517.37	31828.95
517.54	31641.70
517.72	31765.75
517.89	31896.82
518.06	31943.63
518.24	31749.37
518.41	31976.40
518.58	32245.56
518.75	31683.83
518.93	31899.16
519.10	32205.77
519.27	32044.27
519.45	32411.74
519.62	32802.61
519.79	32364.93
519.96	32458.55
520.14	32395.35
520.31	32559.19
520.48	32842.40
520.65	32683.24
520.83	33317.53
521.00	32968.79
521.17	33074.11
521.34	33137.30
521.52	33240.29
521.69	32992.19
521.86	33378.38
522.03	33287.10
522.20	33727.12
522.38	33656.90
522.55	33280.08
522.72	33736.48
522.89	34022.03
523.07	34558.01
523.24	34120.33
523.41	33965.85
523.58	33989.26
523.75	34672.70
523.92	34153.10
524.10	34440.98
524.27	34321.62
524.44	34176.50
524.61	34511.20
524.78	34820.15
524.96	34843.56
525.13	34761.64
525.30	34831.85
525.47	34991.01
525.64	34675.04
525.81	35466.14
525.98	35562.10
526.16	35068.25
526.33	35274.21
526.50	35632.32
526.67	35026.12
526.84	35723.60
527.01	35419.33
527.18	35328.05
527.36	35306.98
527.53	35447.41
527.70	35971.69
527.87	35941.27
528.04	35938.93
528.21	35786.79
528.38	35611.25
528.55	35952.97
528.72	35786.79
528.89	36154.26
529.07	35957.65
529.24	36119.15
529.41	36390.65
529.58	36397.67
529.75	36070.00
529.92	36252.56
530.09	36325.11
530.26	36732.37
530.43	36353.20
530.60	36182.34
530.77	36498.31
530.94	36559.17
531.11	36439.80
531.28	36840.03
531.46	36891.52
531.63	37090.47
531.80	37137.28
531.97	37062.38
532.14	37092.81
532.31	36961.74
532.48	37347.93
532.65	37710.71
532.82	37036.64
532.99	36739.39
533.16	37589.00
533.33	37261.33
533.50	37343.25
533.67	37467.30
533.84	37673.26
534.01	37823.06
534.18	37404.10
534.35	37998.60
534.52	37703.69
534.69	37762.20
534.86	37979.87
535.03	37745.82
535.20	37771.57
535.37	38274.78
535.54	38405.85
535.71	38356.70
535.88	38321.59
536.05	38033.71
536.22	38799.06
536.38	38305.21
536.55	38609.48
536.72	38237.33
536.89	38237.33
537.06	38665.65
537.23	38913.75
537.40	38565.01
537.57	38213.93
537.74	38543.94
537.91	38873.96
538.08	38768.63
538.25	38473.73
538.42	39040.14
538.59	38892.68
538.75	38899.70
538.92	39173.55
539.09	39084.61
539.26	38616.50
539.43	39239.08
539.60	39082.27
539.77	39232.06
539.94	39213.34
540.11	39573.78
540.28	39742.30
540.44	39489.52
540.61	39342.06
540.78	39388.88
540.95	39416.96
541.12	39030.77
541.29	39323.34
541.46	39515.26
541.62	39531.65
541.79	39880.39
541.96	38880.98
542.13	39922.52
542.30	39814.85
542.47	40112.10
542.63	39990.39
542.80	40575.53
542.97	40177.64
543.14	40514.67
543.31	40297.00
543.48	40730.00
543.64	40964.06
543.81	40713.62
543.98	40411.69
544.15	40559.14
544.32	40540.42
544.48	41457.91
544.65	41165.34
544.82	40776.81
544.99	40179.98
545.16	40762.77
545.32	40683.19
545.49	41336.20
545.66	41371.31
545.83	40994.48
546.00	41411.10
546.16	40921.93
546.33	41291.73
546.50	41120.87
546.67	40832.99
546.83	40978.10
547.00	41048.32
547.17	41064.70
547.34	41074.06
547.50	41511.74
547.67	41930.70
547.84	41233.22
548.00	41734.09
548.17	41982.19
548.34	41741.11
548.51	41659.20
548.67	42134.32
548.84	42085.17
549.01	41963.46
549.18	41741.11
549.34	42326.25
549.51	41432.16
549.68	42026.66
549.84	42307.52
550.01	42146.03
550.18	42085.17
550.34	42333.27
550.51	42176.45
550.68	42890.32
550.84	42267.73
551.01	42450.30
551.18	42003.25
551.34	42263.05
551.51	42672.65
551.68	42604.77
551.84	42520.51
552.01	42522.85
552.18	42218.58
552.34	42319.23
552.51	42415.19
552.68	42239.65
552.84	42871.59
553.01	42775.63
553.18	42780.31
553.34	42646.90
553.51	42628.18
553.67	43131.39
553.84	42983.94
554.01	43075.22
554.17	42927.77
554.34	43402.89
554.51	43196.93
554.67	42988.62
554.84	43388.85
555.00	43234.38
555.17	42997.98
555.33	43332.68
555.50	43082.24
555.67	43278.85
555.83	43150.12
556.00	43306.93
556.16	43849.94
556.33	43894.41
556.50	43463.75
556.66	43304.59
556.83	43065.86
556.99	43718.87
557.16	43552.69
557.32	44044.20
557.49	43459.07
557.65	43569.07
557.82	44100.37
557.98	43576.09
558.15	43445.02
558.32	44107.40
558.48	43622.90
558.65	43824.19
558.81	44037.18
558.98	43751.63
559.14	43910.79
559.31	44027.82
559.47	43676.74
559.64	43742.27
559.80	44418.69
559.97	44598.91
560.13	43887.39
560.30	43536.30
560.46	44259.53
560.63	44170.59
560.79	44346.13
560.96	44264.21
561.12	43962.28
561.29	44154.21
561.45	44402.30
561.61	44168.25
561.78	44238.47
561.94	44449.11
562.11	44896.16
562.27	44151.87
562.44	44268.89
562.60	44526.35
562.77	44446.77
562.93	44191.65
563.10	44692.53
563.26	44304.00
563.42	44687.85
563.59	44275.91
563.75	44149.53
563.92	44811.90
564.08	44397.62
564.24	44762.75
564.41	44601.25
564.57	44474.86
564.74	44285.28
564.90	44442.09
565.07	44463.16
565.23	44776.79
565.39	44641.04
565.56	44758.06
565.72	44776.79
565.88	44844.66
566.05	44949.99
566.21	44804.88
566.38	44381.24
566.54	44931.26
566.70	45106.80
566.87	45099.78
567.03	44856.37
567.19	45102.12
567.36	44577.84
567.52	45008.50
567.68	45649.81
567.85	44952.33
568.01	45413.41
568.17	44343.79
568.34	45265.96
568.50	44861.05
568.66	44790.83
568.83	44814.24
568.99	44636.36
569.15	45148.93
569.32	44776.79
569.48	44662.10
569.64	45387.67
569.81	45619.38
569.97	45268.30
570.13	45085.74
570.30	44875.09
570.46	45312.77
570.62	45500.01
570.78	45368.94
570.95	45516.40
571.11	45698.96
571.27	44978.07
571.43	45076.38
571.60	45354.90
571.76	45205.11
571.92	44601.25
572.09	44987.44
572.25	45399.37
572.41	44800.19
572.57	45181.70
572.74	45581.93
572.90	45464.91
573.06	45883.86
573.22	45364.26
573.38	45556.19
573.55	45092.76
573.71	46071.10
573.87	45778.54
574.03	45284.68
574.20	45743.43
574.36	45729.39
574.52	45792.58
574.68	45860.46
574.84	46021.95
575.01	45485.97
575.17	45530.44
575.33	45401.71
575.49	45202.77
575.65	45986.85
575.82	45535.12
575.98	45546.82
576.14	45661.51
576.30	45855.78
576.46	45818.33
576.62	45750.45
576.79	45397.03
576.95	45127.87
577.11	45446.18
577.27	45790.24
577.43	45137.23
577.59	45890.88
577.75	45392.35
577.92	45345.54
578.08	45649.81
578.24	45970.46
578.40	45933.01
578.56	45696.62
578.72	45940.04
578.88	45181.70
579.04	45514.06
579.21	45427.46
579.37	46071.10
579.53	46185.79
579.69	45624.06
579.85	45741.09
580.01	45649.81
580.17	45738.75
580.33	45539.80
580.49	45956.42
580.65	45654.49
580.82	45818.33
580.98	45869.82
581.14	45481.29
581.30	45666.19
581.46	45986.85
581.62	45563.21
581.78	45162.98
581.94	45446.18
582.10	45539.80
582.26	45635.77
582.42	45626.40
582.58	46108.55
582.74	46344.95
582.90	45895.56
583.06	45834.71
583.22	45420.44
583.38	46141.32
583.54	45886.20
583.70	46026.63
583.86	46000.89
584.02	45420.44
584.18	45869.82
584.34	45937.69
584.50	46050.04
584.66	46143.66
584.82	45797.26
584.98	46639.86
585.14	45804.28
585.30	45869.82
585.46	46164.73
585.62	46192.81
585.78	45844.07
585.94	45511.72
586.10	45881.52
586.26	45738.75
586.42	46028.98
586.58	45797.26
586.74	46012.59
586.90	45958.76
587.06	45879.18
587.22	46300.48
587.38	45783.22
587.54	46188.13
587.70	46143.66
587.86	45853.44
588.02	45635.77
588.18	45853.44
588.34	46230.26
588.49	46263.03
588.65	46014.93
588.81	45488.31
588.97	45895.56
589.13	46281.75
589.29	46333.24
589.45	45998.55
589.61	46059.40
589.77	46270.05
589.93	46380.06
590.08	46127.28
590.24	46169.41
590.40	46574.32
590.56	46801.35
590.72	46958.17
590.88	46082.81
591.04	46188.13
591.20	46534.53
591.35	46604.75
591.51	46384.74
591.67	46370.69
591.83	46937.10
591.99	46370.69
592.15	46199.83
592.31	46490.06
592.46	46277.07
592.62	46564.96
592.78	46380.06
592.94	46941.78
593.10	46862.21
593.26	46969.87
593.41	46679.64
593.57	46649.22
593.73	46784.97
593.89	46918.38
594.05	46703.05
594.20	46733.48
594.36	47012.00
594.52	46923.06
594.68	46681.98
594.84	46487.72
594.99	47026.04
595.15	46663.26
595.31	46902.00
595.47	46590.70
595.62	46302.82
595.78	46384.74
595.94	46974.55
596.10	46621.13
596.25	46979.23
596.41	46756.88
596.57	46312.18
596.73	46993.28
596.88	46656.24
597.04	46965.19
597.20	46988.60
597.36	46625.81
597.51	46759.22
597.67	46454.95
597.83	46714.75
597.99	46932.42
598.14	46616.45
598.30	46787.31
598.46	46759.22
598.61	46756.88
598.77	46981.57
598.93	46913.70
599.09	46504.10
599.24	47093.92
599.40	47000.30
599.56	46752.20
599.71	47175.84
599.87	46986.25
600.03	46880.93
600.18	46902.00
600.34	46813.05
600.50	46981.57
600.65	46801.35
600.81	47091.58
600.97	47021.36
601.12	46997.96
601.28	47187.54
601.44	46616.45
601.59	46906.68
601.75	46810.71
601.91	46628.15
602.06	46808.37
602.22	46946.47
602.37	46707.73
602.53	47140.73
602.69	46932.42
602.84	46866.89
603.00	47260.10
603.16	46705.39
603.31	47002.64
603.47	47405.21
603.62	46965.19
603.78	46855.18
603.94	46710.07
604.09	46986.25
604.25	46775.61
604.40	46667.94
604.56	46934.76
604.71	47133.71
604.87	46752.20
605.03	46506.44
605.18	46836.46
605.34	47257.76
605.49	46880.93
605.65	47271.80
605.80	46625.81
605.96	46473.68
606.12	46890.29
606.27	46600.07
606.43	46298.14
606.58	47107.96
606.74	46473.68
606.89	46815.40
607.05	47075.19
607.20	46836.46
607.36	47297.55
607.51	46415.16
607.67	46534.53
607.82	46857.52
607.98	46253.67
608.13	47019.02
608.29	46609.43
608.44	46522.83
608.60	46363.67
608.75	46813.05
608.91	46522.83
609.06	46347.29
609.22	47037.75
609.37	46527.51
609.53	47248.39
609.68	46461.97
609.84	46586.02
609.99	46941.78
610.15	46782.63
610.30	46532.19
610.46	46270.05
610.61	46396.44
610.76	46773.27
610.92	46445.59
611.07	46380.06
611.23	46113.23
611.38	46408.14
611.54	46539.21
611.69	46543.89
611.84	46454.95
612.00	46508.79
612.15	46012.59
612.31	46192.81
612.46	46323.88
612.62	46036.00
612.77	46450.27
612.92	46078.13
613.08	45965.78
613.23	46436.23
613.39	45958.76
613.54	46028.98
613.69	46405.80
613.85	46117.92
614.00	46417.50
614.15	46586.02
614.31	46178.77
614.46	46307.50
614.62	45890.88
614.77	46340.27
614.92	45944.72
615.08	46014.93
615.23	46218.56
615.38	46052.38
615.54	45727.05
615.69	46000.89
615.84	45844.07
616.00	46522.83
616.15	46096.85
616.30	46237.28
616.46	46103.87
616.61	46000.89
616.76	46195.15
616.92	45752.79
617.07	45968.12
617.22	45691.94
617.37	45680.24
617.53	45902.59
617.68	45720.02
617.83	45603.00
617.99	46005.57
618.14	45778.54
618.29	45869.82
618.45	45464.91
618.60	45773.86
618.75	45144.25
618.90	45677.90
619.06	45689.60
619.21	45560.87
619.36	45947.06
619.51	45361.92
619.67	45532.78
619.82	45619.38
619.97	45783.22
620.12	45422.78
620.28	45462.57
620.43	45799.60
620.58	45687.26
620.73	45626.40
620.89	45631.08
621.04	45425.12
621.19	45343.20
621.34	45153.62
621.49	44652.74
621.65	45574.91
621.80	45654.49
621.95	45340.86
622.10	45422.78
622.25	45184.04
622.41	45476.61
622.56	45172.34
622.71	45064.67
622.86	45034.25
623.01	45006.16
623.16	44982.76
623.32	45205.11
623.47	44973.39
623.62	45497.67
623.77	45406.39
623.92	45301.07
624.07	45331.50
624.23	45020.20
624.38	44865.73
624.53	45001.48
624.68	44807.22
624.83	45074.04
624.98	44849.35
625.13	44634.02
625.29	44619.97
625.44	45111.49
625.59	44980.42
625.74	44737.00
625.89	44809.56
626.04	44715.93
626.19	44893.82
626.34	44746.36
626.49	44233.78
626.65	44254.85
626.80	44381.24
626.95	44678.49
627.10	44128.46
627.25	44708.91
627.40	43983.35
627.55	44486.56
627.70	44243.15
627.85	44552.10
628.00	44790.83
628.15	44793.17
628.30	43494.18
628.45	43973.98
628.60	43955.26
628.76	44151.87
628.91	44168.25
629.06	43367.79
629.21	44278.25
629.36	44126.12
629.51	43721.21
629.66	44388.26
629.81	44423.37
629.96	43683.76
630.11	44107.40
630.26	43920.15
630.41	44301.66
630.56	43739.93
630.71	43695.46
630.86	43990.37
631.01	44020.80
631.16	43519.92
631.31	43587.80
631.46	43374.81
631.61	43976.33
631.76	43969.30
631.91	43899.09
632.06	43997.39
632.21	43667.37
632.36	44105.06
632.51	43756.32
632.66	43786.74
632.81	44037.18
632.96	43847.60
633.10	43650.99
633.25	43765.68
633.40	43803.13
633.55	44006.75
633.70	43470.77
633.85	43201.61
634.00	43538.65
634.15	43381.83
634.30	43381.83
634.45	43430.98
634.60	43002.66
634.75	42843.51
634.90	43297.57
635.05	43342.04
635.19	43255.44
635.34	43262.46
635.49	43580.78
635.64	43182.88
635.79	43122.03
635.94	43199.27
636.09	43480.13
636.24	43178.20
636.39	42979.26
636.53	43377.15
636.68	42705.41
636.83	42644.56
636.98	42457.32
637.13	42918.40
637.28	42972.24
637.43	42677.33
637.57	42773.29
637.72	42476.04
637.87	42466.68
638.02	42525.19
638.17	43117.35
638.32	42583.71
638.46	42850.53
638.61	42216.24
638.76	42064.11
638.91	42784.99
639.06	42462.00
639.20	42274.76
639.35	42373.06
639.50	42080.49
639.65	42656.26
639.80	42457.32
639.94	42305.18
640.09	42583.71
640.24	42389.44
640.39	41895.59
640.54	41900.27
640.68	42469.02
640.83	42862.23
640.98	42010.28
641.13	42000.91
641.27	42464.34
641.42	42256.03
641.57	42211.56
641.72	42169.43
641.86	41883.89
642.01	41764.52
642.16	41792.61
642.31	41628.77
642.45	42199.86
642.60	41958.78
642.75	41521.10
642.90	42270.08
643.04	41874.52
643.19	41858.14
643.34	41916.65
643.48	41710.69
643.63	41462.59
643.78	41598.34
643.93	41703.67
644.07	41853.46
644.22	41811.33
644.37	41617.07
644.51	41867.50
644.66	41790.27
644.81	41530.47
644.95	41687.28
645.10	41708.35
645.25	41343.22
645.39	41694.30
645.54	41450.89
645.69	41177.04
645.83	41378.33
645.98	41340.88
646.13	41383.01
646.27	41141.94
646.42	41020.23
646.57	40973.42
646.71	41280.03
646.86	41347.90
647.00	41572.60
647.15	41420.46
647.30	41399.40
647.44	41228.54
647.59	41090.44
647.74	40950.01
647.88	41441.53
648.03	41256.62
648.17	41476.63
648.32	41354.93
648.47	41640.47
648.61	41160.66
648.76	41029.59
648.90	40828.30
649.05	40804.90
649.20	41027.25
649.34	41214.49
649.49	40821.28
649.63	40554.46
649.78	40755.75
649.92	40737.02
650.07	41404.08
650.21	40797.88
650.36	41207.47
650.51	41038.95
650.65	40718.30
650.80	40727.66
650.94	40966.40
651.09	40842.35
651.23	40378.92
651.38	40587.23
651.52	40554.46
651.67	40116.78
651.81	40519.35
651.96	40535.74
652.10	40402.33
652.25	40055.93
652.39	40603.61
652.54	40608.29
652.68	39679.10
652.83	40664.47
652.97	40652.76
653.12	40620.00
653.26	40552.12
653.41	40343.81
653.55	40528.72
653.70	40418.71
653.84	40264.24
653.99	39981.03
654.13	40123.80
654.27	40156.57
654.42	40053.59
654.56	40098.06
654.71	39978.69
654.85	40236.15
655.00	39943.58
655.14	40215.08
655.29	40343.81
655.43	40217.43
655.57	39999.76
655.72	39856.98
655.86	39522.29
656.01	39606.55
656.15	39496.54
656.30	39421.64
656.44	39950.60
656.58	40055.93
656.73	39892.09
656.87	39248.44
657.01	39220.36
657.16	39880.39
657.30	39810.17
657.45	39318.66
657.59	39405.26
657.73	39173.55
657.88	39662.72
658.02	39243.76
658.16	39768.04
658.31	39491.86
658.45	39707.19
658.60	39002.69
658.74	39606.55
658.88	39456.75
659.03	39131.42
659.17	38885.66
659.31	39129.08
659.46	39227.38
659.60	39016.73
659.74	39108.01
659.89	38464.36
660.03	38506.49
660.17	39110.35
660.32	38646.93
660.46	38761.61
660.60	38274.78
660.74	38480.75
660.89	38553.30
661.03	38277.12
661.17	37757.52
661.32	37975.19
661.46	38220.95
661.60	38356.70
661.74	38263.08
661.89	37806.67
662.03	38700.76
662.17	37785.61
662.31	38312.23
662.46	37923.70
662.60	37401.76
662.74	37677.94
662.88	38050.09
663.03	37486.02
663.17	37420.48
663.31	37308.14
663.45	37816.04
663.60	37991.58
663.74	37708.37
663.88	37474.32
664.02	37462.61
664.17	38085.20
664.31	37247.29
664.45	37284.73
664.59	37273.03
664.73	37193.45
664.88	37401.76
665.02	37085.79
665.16	37460.27
665.30	37097.49
665.44	37371.33
665.59	36975.78
665.73	37090.47
665.87	36292.35
666.01	36643.43
666.15	36673.85
666.29	36378.95
666.44	36613.00
666.58	36442.14
666.72	36814.29
666.86	36133.19
667.00	36542.78
667.14	36275.96
667.28	36407.03
667.43	36261.92
667.57	36343.84
667.71	36304.05
667.85	36067.66
667.99	36404.69
668.13	36055.95
668.27	35718.92
668.41	35775.09
668.56	35381.88
668.70	35571.46
668.84	35250.81
668.98	35475.50
669.12	35426.35
669.26	35201.66
669.40	35213.36
669.54	35211.02
669.68	35332.73
669.82	35306.98
669.96	35030.80
670.10	34438.64
670.25	34752.27
670.39	34897.39
670.53	35124.42
670.67	34761.64
670.81	34991.01
670.95	35023.78
671.09	34691.42
671.23	34438.64
671.37	34904.41
671.51	34206.93
671.65	34335.66
671.79	34543.97
671.93	34333.32
672.07	34759.30
672.21	34494.82
672.35	34054.79
672.49	34251.40
672.63	34017.35
672.77	33689.67
672.91	34438.64
673.05	33984.58
673.19	33457.96
673.33	33593.71
673.47	33734.14
673.61	32840.06
673.75	33195.82
673.89	33125.60
674.03	32734.73
674.17	32999.21
674.31	32818.99
674.45	32718.35
674.59	32657.49
674.73	32950.06
674.87	32465.57
675.01	32362.59
675.15	32070.02
675.29	32187.05
675.43	32320.46
675.56	32414.08
675.70	32250.24
675.84	32254.92
675.98	31147.85
676.12	32006.83
676.26	31831.29
676.40	32084.06
676.54	31534.04
676.68	31552.76
676.82	31140.83
676.96	31597.23
677.10	31550.42
677.23	30965.29
677.37	31278.92
677.51	31377.22
677.65	31026.14
677.79	31105.72
677.93	31124.44
678.07	30742.94
678.21	30277.17
678.34	30478.46
678.48	30309.94
678.62	30110.99
678.76	30120.35
678.90	30349.73
679.04	30218.66
679.18	30485.48
679.31	30078.22
679.45	29589.05
679.59	29593.73
679.73	29858.21
679.87	29766.93
680.00	29502.45
680.14	29436.92
680.28	29305.85
680.42	29530.54
680.56	29472.03
680.70	28961.79
680.83	28683.27
680.97	28570.92
681.11	28524.11
681.25	28762.84
681.39	28091.11
681.52	28329.84
681.66	27861.74
681.80	28023.23
681.94	27740.03
682.07	27543.42
682.21	27557.47
682.35	27410.01
682.49	27651.09
682.62	27637.05
682.76	27747.05
682.90	27573.85
683.04	26991.06
683.17	27433.42
683.31	27075.32
683.45	26885.73
683.59	26899.78
683.72	26431.67
683.86	26623.59
684.00	26338.05
684.13	26745.30
684.27	26309.96
684.41	26412.95
684.55	26321.66
684.68	26218.68
684.82	26071.23
684.96	25811.43
685.09	26228.04
685.23	26054.84
685.37	26279.54
685.50	26176.55
685.64	26139.10
685.78	25717.81
685.91	25373.75
686.05	25521.20
686.19	24882.24
686.32	24989.90
686.46	24851.81
686.60	24584.99
686.73	24805.00
686.87	24709.04
687.01	24936.07
687.14	24507.75
687.28	24336.89
687.42	24765.21
687.55	23934.32
687.69	24325.19
687.82	24088.79
687.96	23761.12
688.10	24016.24
688.23	23974.11
688.37	23899.21
688.50	24088.79
688.64	23704.95
688.78	23513.02
688.91	23374.93
689.05	23531.75
689.18	23161.94
689.32	22813.20
689.46	22735.96
689.59	23161.94
689.73	23250.88
689.86	23173.64
690.00	22827.24
690.13	22794.48
690.27	22195.30
690.41	22483.19
690.54	22506.59
690.68	22443.40
690.81	22127.42
690.95	22080.61
691.08	21972.95
691.22	22190.62
691.35	21963.59
691.49	21617.19
691.62	21692.08
691.76	21209.93
691.89	21282.49
692.03	21357.39
692.16	21350.37
692.30	21137.38
692.43	21385.47
692.57	20964.18
692.70	20882.26
692.84	20720.76
692.97	20369.68
693.11	20692.68
693.24	20229.25
693.38	20521.82
693.51	20505.43
693.65	20245.63
693.78	20037.33
693.92	19829.02
694.05	19939.02
694.19	19721.35
694.32	19924.98
694.45	20144.99
694.59	19826.68
694.72	19791.57
694.86	19515.39
694.99	19257.93
695.13	19150.26
695.26	19030.90
695.39	18923.23
695.53	19183.03
695.66	18965.36
695.80	18700.88
695.93	18878.76
696.07	18441.08
696.20	18593.22
696.33	18160.22
696.47	18167.24
696.60	18305.33
696.73	18441.08
696.87	18274.90
697.00	18181.28
697.14	18167.24
697.27	18090.00
697.40	18040.85
697.54	17741.26
697.67	18043.19
697.80	17895.74
697.94	17963.61
698.07	17530.61
698.21	17315.28
698.34	17490.82
698.47	17451.03
698.61	17025.06
698.74	16896.33
698.87	17048.46
699.01	16783.98
699.14	16751.21
699.27	16779.30
699.40	16711.42
699.54	16566.31
699.67	16416.52
699.80	16720.79
699.94	16486.73
700.07	16390.77
700.20	16140.33
700.34	16283.11
700.47	16154.38
700.60	15978.84
700.73	16126.29
700.87	16100.55
701.00	15646.48
701.13	15651.16
701.26	15447.54
701.40	15690.95
701.53	15220.50
701.66	15351.57
701.79	15473.28
701.93	14949.00
702.06	15007.52
702.19	15094.11
702.32	15073.05
702.46	14846.02
702.59	15084.75
702.72	15190.08
702.85	15281.36
702.99	14642.39
703.12	14672.82
703.25	14368.55
703.38	14267.91
703.51	14452.81
703.65	14415.36
703.78	14239.82
703.91	13848.95
704.04	14015.13
704.17	14068.96
704.31	13785.76
704.44	13937.89
704.57	13951.93
704.70	13832.57
704.83	13755.33
704.96	13699.16
705.10	13406.59
705.23	13556.38
>>>>>End Processed Spectral Data<<<<<
