SpectraSuite Data File
++++++++++++++++++++++++++++++++++++
Date: Fri Oct 25 10:48:15 EDT 2013
User: price-jones
Dark Spectrum Present: No
Reference Spectrum Present: No
Number of Sampled Component Spectra: 1
Spectrometers: USB2+H05261
Integration Time (usec): 100000 (USB2+H05261)
Spectra Averaged: 1 (USB2+H05261)
Boxcar Smoothing: 0 (USB2+H05261)
Correct for Electrical Dark: No (USB2+H05261)
Strobe/Lamp Enabled: No (USB2+H05261)
Correct for Detector Non-linearity: No (USB2+H05261)
Correct for Stray Light: No (USB2+H05261)
Number of Pixels in Processed Spectrum: 2048
>>>>>Begin Processed Spectral Data<<<<<
365.73	112.35
365.92	112.35
366.12	112.35
366.32	53.83
366.52	35.11
366.72	100.64
366.91	37.45
367.11	11.70
367.31	23.41
367.51	42.13
367.70	42.13
367.90	44.47
368.10	46.81
368.30	60.85
368.49	74.90
368.69	58.51
368.89	2.34
369.09	67.88
369.28	105.32
369.48	0.00
369.68	46.81
369.87	142.77
370.07	149.79
370.27	128.73
370.47	212.99
370.66	381.51
370.86	449.38
371.06	472.79
371.25	482.15
371.45	482.15
371.65	482.15
371.84	435.34
372.04	571.09
372.24	498.53
372.44	507.90
372.63	540.66
372.83	580.45
373.03	510.24
373.22	507.90
373.42	510.24
373.62	552.37
373.81	482.15
374.01	524.28
374.21	606.20
374.40	582.79
374.60	538.32
374.79	552.37
374.99	585.13
375.19	479.81
375.38	580.45
375.58	505.56
375.78	568.75
375.97	519.60
376.17	617.90
376.37	620.24
376.56	592.16
376.76	559.39
376.95	566.41
377.15	674.07
377.35	655.35
377.54	592.16
377.74	645.99
377.93	674.07
378.13	629.60
378.33	727.91
378.52	594.50
378.72	685.78
378.91	645.99
379.11	606.20
379.31	589.82
379.50	580.45
379.70	636.63
379.89	631.94
380.09	613.22
380.28	615.56
380.48	641.31
380.68	676.41
380.87	573.43
381.07	641.31
381.26	702.16
381.46	688.12
381.65	702.16
381.85	650.67
382.04	695.14
382.24	671.73
382.43	685.78
382.63	720.88
382.83	624.92
383.02	645.99
383.22	671.73
383.41	788.76
383.61	791.10
383.80	819.19
384.00	716.20
384.19	741.95
384.39	758.33
384.58	784.08
384.78	786.42
384.97	819.19
385.17	798.12
385.36	816.85
385.56	751.31
385.75	833.23
385.95	840.25
386.14	842.59
386.34	884.72
386.53	837.91
386.72	849.61
386.92	802.80
387.11	830.89
387.31	819.19
387.50	814.51
387.70	844.93
387.89	793.44
388.09	889.40
388.28	861.32
388.48	814.51
388.67	828.55
388.86	959.62
389.06	905.79
389.25	950.26
389.45	905.79
389.64	940.90
389.84	931.53
390.03	973.66
390.22	997.07
390.42	896.43
390.61	985.37
390.81	964.30
391.00	976.00
391.19	1041.54
391.39	1008.77
391.58	959.62
391.78	1013.45
391.97	1039.20
392.16	910.47
392.36	1043.88
392.55	1069.62
392.75	1086.01
392.94	1062.60
393.13	1013.45
393.33	901.11
393.52	1015.79
393.71	1050.90
393.91	1013.45
394.10	1025.15
394.29	1018.13
394.49	1020.47
394.68	1111.75
394.88	1170.27
395.07	1097.71
395.26	1174.95
395.46	1207.72
395.65	1296.66
395.84	1172.61
396.04	1181.97
396.23	1198.35
396.42	1217.08
396.62	1170.27
396.81	1153.88
397.00	1160.91
397.19	1198.35
397.39	1273.25
397.58	1334.11
397.77	1261.55
397.97	1277.93
398.16	1308.36
398.35	1423.05
398.55	1252.19
398.74	1376.24
398.93	1399.64
399.12	1376.24
399.32	1411.34
399.51	1444.11
399.70	1453.47
399.90	1486.24
400.09	1439.43
400.28	1488.58
400.47	1537.73
400.67	1619.65
400.86	1544.75
401.05	1544.75
401.24	1535.39
401.44	1540.07
401.63	1467.52
401.82	1600.93
402.01	1591.56
402.21	1558.80
402.40	1586.88
402.59	1701.57
402.78	1612.63
402.97	1626.67
403.17	1689.87
403.36	1673.48
403.55	1692.21
403.74	1769.44
403.93	1687.53
404.13	1790.51
404.32	1629.01
404.51	1750.72
404.70	1802.21
404.89	1736.68
405.09	1884.13
405.28	1708.59
405.47	1809.23
405.66	1795.19
405.85	1844.34
406.05	1783.49
406.24	1804.55
406.43	1865.41
406.62	1968.39
406.81	2017.54
407.00	1872.43
407.20	1926.26
407.39	1863.07
407.58	2001.16
407.77	1980.09
407.96	2101.80
408.15	2097.12
408.34	2099.46
408.54	2122.87
408.73	2183.72
408.92	2143.93
409.11	2090.10
409.30	2139.25
409.49	2050.31
409.68	2108.82
409.87	2134.57
410.07	2232.87
410.26	2179.04
410.45	2239.89
410.64	2279.68
410.83	2396.71
411.02	2275.00
411.21	2368.62
411.40	2394.37
411.59	2340.54
411.78	2356.92
411.98	2422.45
412.17	2363.94
412.36	2459.90
412.55	2553.52
412.74	2576.93
412.93	2478.63
413.12	2490.33
413.31	2569.91
413.50	2640.12
413.69	2600.34
413.88	2801.62
414.07	2633.10
414.26	2761.83
414.45	2799.28
414.64	2635.44
414.83	2682.25
415.02	2745.45
415.22	2834.39
415.41	2920.99
415.60	2935.03
415.79	2913.97
415.98	3045.04
416.17	2876.52
416.36	2998.23
416.55	3087.17
416.74	3070.78
416.93	2998.23
417.12	3045.04
417.31	3110.57
417.50	3173.77
417.69	3187.81
417.88	3192.49
418.07	3105.89
418.26	3234.62
418.45	3269.73
418.64	3346.97
418.83	3318.88
419.02	3234.62
419.21	3346.97
419.39	3344.63
419.58	3311.86
419.77	3197.17
419.96	3358.67
420.15	3368.03
420.34	3456.97
420.53	3349.31
420.72	3566.98
420.91	3466.33
421.10	3325.90
421.29	3552.93
421.48	3389.10
421.67	3676.98
421.86	3492.08
422.05	3520.17
422.24	3581.02
422.43	3564.64
422.61	3536.55
422.80	3637.19
422.99	3590.38
423.18	3630.17
423.37	3662.94
423.56	3824.44
423.75	3660.60
423.94	3513.14
424.13	3466.33
424.32	3625.49
424.50	3564.64
424.69	3737.84
424.88	3798.69
425.07	3630.17
425.26	3613.79
425.45	3562.30
425.64	3632.51
425.83	3655.92
426.01	3606.77
426.20	3712.09
426.39	3709.75
426.58	3688.68
426.77	3595.06
426.96	3562.30
427.15	3730.81
427.33	3765.92
427.52	3721.45
427.71	3843.16
427.90	3854.86
428.09	3850.18
428.28	3967.21
428.46	3936.78
428.65	3784.65
428.84	3920.40
429.03	3985.93
429.22	3878.27
429.40	3932.10
429.59	3847.84
429.78	3700.39
429.97	3618.47
430.16	3885.29
430.34	3812.73
430.53	3815.07
430.72	3922.74
430.91	4063.17
431.10	3927.42
431.28	4095.94
431.47	4168.49
431.66	4163.81
431.85	4196.58
432.03	4257.43
432.22	4400.21
432.41	4304.25
432.60	4440.00
432.79	4278.50
432.97	4379.14
433.16	4337.01
433.35	4334.67
433.54	4386.16
433.72	4428.29
433.91	4461.06
434.10	4498.51
434.28	4418.93
434.47	4470.42
434.66	4538.30
434.85	4634.26
435.03	4676.39
435.22	4587.45
435.41	4826.18
435.59	4669.37
435.78	4784.06
435.97	4753.63
436.16	4744.27
436.34	4744.27
436.53	4896.40
436.72	4849.59
436.90	4741.93
437.09	4788.74
437.28	4704.48
437.46	4880.02
437.65	4938.53
437.84	4936.19
438.02	4814.48
438.21	4791.08
438.40	4671.71
438.58	4987.68
438.77	5177.26
438.96	4863.63
439.14	5238.12
439.33	5305.99
439.52	5261.52
439.70	5186.63
439.89	5252.16
440.08	5338.76
440.26	5254.50
440.45	5238.12
440.63	5392.59
440.82	5434.72
441.01	5469.83
441.19	5488.56
441.38	5570.48
441.57	5631.33
441.75	5696.86
441.94	5858.36
442.12	5806.87
442.31	5788.14
442.50	5863.04
442.68	5783.46
442.87	5921.56
443.05	5919.21
443.24	6176.67
443.43	5966.03
443.61	6024.54
443.80	6249.23
443.98	5891.13
444.17	5596.22
444.35	5923.90
444.54	6174.33
444.73	5994.11
444.91	6071.35
445.10	6012.84
445.28	6031.56
445.47	6132.20
445.65	5996.45
445.84	6153.27
446.02	5998.79
446.21	6099.44
446.39	6026.88
446.58	6211.78
446.77	6237.53
446.95	6120.50
447.14	6104.12
447.32	6349.87
447.51	6265.61
447.69	6101.78
447.88	6200.08
448.06	6174.33
448.25	6139.23
448.43	6174.33
448.62	6150.93
448.80	6279.66
448.99	6251.57
449.17	6335.83
449.36	6284.34
449.54	6305.40
449.73	6710.32
449.91	6665.85
450.10	6511.37
450.28	6764.15
450.46	6558.18
450.65	6565.20
450.83	6581.59
451.02	6691.59
451.20	6707.98
451.39	6628.40
451.57	6668.19
451.76	6658.82
451.94	6839.05
452.13	6747.76
452.31	6932.67
452.49	6490.31
452.68	6787.55
452.86	6764.15
453.05	6935.01
453.23	6843.73
453.42	6789.89
453.60	6738.40
453.78	6850.75
453.97	6834.36
454.15	6726.70
454.34	6892.88
454.52	7148.00
454.70	7075.44
454.89	6916.28
455.07	7124.59
455.26	6839.05
455.44	7070.76
455.62	7243.96
455.81	7248.64
455.99	7302.47
456.17	7269.70
456.36	7339.92
456.54	7375.03
456.73	7300.13
456.91	7627.81
457.09	7585.68
457.28	7592.70
457.46	7276.73
457.64	7513.12
457.83	7440.56
458.01	7506.10
458.19	7669.94
458.38	7630.15
458.56	7552.91
458.74	7702.70
458.93	7789.30
459.11	7695.68
459.29	7775.26
459.48	7634.83
459.66	7714.41
459.84	7765.90
460.03	7964.84
460.21	7913.35
460.39	7939.10
460.57	7854.84
460.76	8084.21
460.94	7962.50
461.12	7922.71
461.31	7887.61
461.49	8049.10
461.67	7913.35
461.85	8203.58
462.04	7974.21
462.22	8634.24
462.40	8210.60
462.59	8315.92
462.77	8124.00
462.95	8212.94
463.13	8248.05
463.32	8259.75
463.50	8315.92
463.68	8402.52
463.86	8465.72
464.05	8229.32
464.23	8369.76
464.41	8362.73
464.59	8264.43
464.78	8458.70
464.96	8475.08
465.14	8191.88
465.32	8594.45
465.50	8458.70
465.69	8671.68
465.87	8498.49
466.05	8575.72
466.23	8610.83
466.41	8549.98
466.60	8760.63
466.78	8713.81
466.96	8585.08
467.14	8592.11
467.32	8594.45
467.51	8772.33
467.69	8683.39
467.87	8695.09
468.05	8950.21
468.23	8685.73
468.41	8659.98
468.60	8856.59
468.78	9022.77
468.96	8847.22
469.14	8872.97
469.32	9067.24
469.50	9062.55
469.69	9090.64
469.87	8980.64
470.05	9174.90
470.23	9233.41
470.41	9240.44
470.59	9308.31
470.77	9238.09
470.95	9296.61
471.14	9458.10
471.32	9198.31
471.50	9446.40
471.68	9586.83
471.86	9694.50
472.04	9680.46
472.22	9998.77
472.40	9675.77
472.58	9921.53
472.77	9858.34
472.95	9841.95
473.13	10195.37
473.31	9928.55
473.49	9863.02
473.67	9874.72
473.85	9888.76
474.03	10253.89
474.21	10115.80
474.39	10239.84
474.57	10272.61
474.75	10534.75
474.93	10455.17
475.12	10303.04
475.30	10693.91
475.48	10450.49
475.66	10466.88
475.84	10614.33
476.02	10782.85
476.20	10775.83
476.38	10729.02
476.56	11157.33
476.74	11131.59
476.92	11239.25
477.10	11131.59
477.28	11274.36
477.46	11400.75
477.64	11304.79
477.82	11349.26
478.00	11740.13
478.18	11901.62
478.36	11751.83
478.54	11936.73
478.72	11894.60
478.90	11999.93
479.08	12156.74
479.26	12322.92
479.44	12196.53
479.62	12304.20
479.80	12423.56
479.98	12556.97
480.16	12744.22
480.34	12568.68
480.52	12758.26
480.70	13064.87
480.88	12835.50
481.06	12989.97
481.24	12968.91
481.41	13186.58
481.59	13502.55
481.77	13429.99
481.95	13420.63
482.13	13596.17
482.31	13383.18
482.49	13977.68
482.67	14134.50
482.85	14232.80
483.03	14218.75
483.21	14256.20
483.39	14064.28
483.57	14256.20
483.74	14548.77
483.92	14588.56
484.10	14611.96
484.28	15009.86
484.46	15246.25
484.64	15508.39
484.82	14960.70
485.00	15037.94
485.18	15229.87
485.35	15403.07
485.53	15311.78
485.71	15367.96
485.89	15749.46
486.07	15524.77
486.25	15878.19
486.43	16081.82
486.61	16063.10
486.78	16512.48
486.96	16240.98
487.14	16517.16
487.32	16840.15
487.50	17092.93
487.68	16842.50
487.85	17383.16
488.03	17383.16
488.21	17542.32
488.39	17561.04
488.57	17696.79
488.75	17736.58
488.92	18033.83
489.10	18249.16
489.28	18293.63
489.46	18340.44
489.64	18469.17
489.81	19014.51
489.99	18693.86
490.17	19044.94
490.35	19131.54
490.53	18796.84
490.70	19283.67
490.88	19459.21
491.06	19669.86
491.24	19604.33
491.41	19861.79
491.59	19688.59
491.77	19461.55
491.95	20032.65
492.13	20177.76
492.30	20365.00
492.48	20432.88
492.66	20416.49
492.84	20723.10
493.01	20753.53
493.19	20772.25
493.37	21102.27
493.54	21242.70
493.72	21018.01
493.90	21392.50
494.08	21692.08
494.25	21544.63
494.43	21699.11
494.61	22239.77
494.79	22134.45
494.96	22197.64
495.14	22169.55
495.32	22382.54
495.49	22370.84
495.67	22279.56
495.85	22326.37
496.02	22876.40
496.20	23040.23
496.38	22995.76
496.55	22878.74
496.73	23513.02
496.91	23208.75
497.09	23929.64
497.26	23613.66
497.44	23887.51
497.62	23761.12
497.79	24018.58
497.97	23800.91
498.14	24137.94
498.32	24575.62
498.50	24692.65
498.67	24552.22
498.85	24847.13
499.03	24493.71
499.20	24767.55
499.38	24980.54
499.56	24971.18
499.73	25029.69
499.91	25099.90
500.08	24868.19
500.26	24989.90
500.44	25099.90
500.61	25219.27
500.79	25137.35
500.97	25633.55
501.14	25881.64
501.32	25874.62
501.49	25649.93
501.67	25593.76
501.84	25823.13
502.02	26113.36
502.20	26342.73
502.37	26579.12
502.55	26206.98
502.72	26532.31
502.90	26188.25
503.07	26639.98
503.25	26581.46
503.43	26143.78
503.60	26448.05
503.78	27133.83
503.95	26775.73
504.13	27096.38
504.30	26974.67
504.48	26803.82
504.65	27419.38
504.83	27356.18
505.01	27545.76
505.18	27449.80
505.36	28297.08
505.53	27917.91
505.71	28212.82
505.88	27941.32
506.06	27857.06
506.23	28201.11
506.41	27821.95
506.58	27833.65
506.76	28350.91
506.93	28807.31
507.11	28428.15
507.28	28659.86
507.46	28278.35
507.63	28776.89
507.81	29022.64
507.98	28608.37
508.16	29153.71
508.33	28856.46
508.50	29455.64
508.68	29521.18
508.85	29219.25
509.03	29563.31
509.20	29249.67
509.38	29823.11
509.55	29427.56
509.73	29755.23
509.90	29773.95
510.08	29649.91
510.25	29727.14
510.42	30190.57
510.60	30183.55
510.77	30342.70
510.95	30441.01
511.12	30466.75
511.30	30230.36
511.47	31054.23
511.64	30513.56
511.82	30721.87
511.99	30878.69
512.17	31197.00
512.34	30635.27
512.51	30988.69
512.69	31269.56
512.86	30761.66
513.04	31098.70
513.21	31311.69
513.38	31314.03
513.56	31388.92
513.73	31463.82
513.90	31168.91
514.08	31672.13
514.25	31555.10
514.43	31658.09
514.60	31316.37
514.77	31639.36
514.95	32105.13
515.12	31894.48
515.29	31763.41
515.47	32470.25
515.64	32280.67
515.81	32582.60
515.99	32304.07
516.16	32196.41
516.33	32240.88
516.51	32397.70
516.68	32109.81
516.85	31976.40
517.03	32486.64
517.20	32421.10
517.37	32687.92
517.54	32631.75
517.72	32945.38
517.89	32952.40
518.06	32947.72
518.24	32879.85
518.41	32945.38
518.58	32896.23
518.75	32840.06
518.93	33495.41
519.10	33376.04
519.27	33364.34
519.45	33603.07
519.62	33905.00
519.79	33469.66
519.96	34052.45
520.14	34117.99
520.31	33958.83
520.48	34321.62
520.65	33755.21
520.83	34244.38
521.00	34405.88
521.17	34335.66
521.34	34518.22
521.52	34483.11
521.69	34508.86
521.86	34541.63
522.03	34749.93
522.20	34759.30
522.38	34955.90
522.55	34806.11
522.72	35435.71
522.89	35152.51
523.07	34733.55
523.24	35110.38
523.41	35508.27
523.58	35262.51
523.75	35456.78
523.92	35578.48
524.10	35693.17
524.27	35487.20
524.44	35702.53
524.61	36257.24
524.78	35880.41
524.96	35744.66
525.13	36177.66
525.30	36559.17
525.47	36390.65
525.64	36013.82
525.81	36362.56
525.98	35971.69
526.16	35765.73
526.33	36020.84
526.50	36409.37
526.67	35896.80
526.84	36196.38
527.01	36222.13
527.18	36573.21
527.36	36765.14
527.53	36900.89
527.70	36650.45
527.87	37102.17
528.04	36786.20
528.21	36999.19
528.38	37060.04
528.55	37209.84
528.72	36907.91
528.89	37043.66
529.07	37261.33
529.24	37404.10
529.41	37015.57
529.58	37397.08
529.75	37303.46
529.92	37551.56
530.09	37170.05
530.26	37720.07
530.43	37553.90
530.60	37535.17
530.77	37638.15
530.94	37713.05
531.11	37539.85
531.28	37970.51
531.46	37947.11
531.63	37771.57
531.80	38153.07
531.97	37816.04
532.14	37972.85
532.31	38314.57
532.48	37944.76
532.65	38253.72
532.82	38012.64
532.99	38396.49
533.16	38103.92
533.33	38469.04
533.50	38373.08
533.67	38546.28
533.84	38562.67
534.01	38611.82
534.18	38646.93
534.35	39161.84
534.52	38501.81
534.69	39000.35
534.86	38897.36
535.03	38927.79
535.20	39103.33
535.37	39234.40
535.54	39416.96
535.71	38763.95
535.88	39033.11
536.05	39337.38
536.22	39283.55
536.38	39367.81
536.55	39281.21
536.72	39150.14
536.89	39105.67
537.06	39250.78
537.23	39943.58
537.40	39182.91
537.57	39997.41
537.74	39754.00
537.91	39761.02
538.08	39718.89
538.25	39398.24
538.42	39475.48
538.59	39777.40
538.75	39501.22
538.92	39653.36
539.09	40390.62
539.26	39695.49
539.43	40048.91
539.60	40116.78
539.77	39756.34
539.94	39812.51
540.11	40067.63
540.28	39882.73
540.44	40053.59
540.61	40524.04
540.78	39896.77
540.95	40517.01
541.12	40116.78
541.29	40114.44
541.46	39906.13
541.62	40868.09
541.79	40793.20
541.96	40376.58
542.13	40437.44
542.30	41113.85
542.47	41006.19
542.63	40889.16
542.80	40701.92
542.97	41111.51
543.14	41478.97
543.31	41102.15
543.48	40832.99
543.64	41738.77
543.81	41785.58
543.98	41422.80
544.15	40964.06
544.32	41755.16
544.48	41893.25
544.65	41558.55
544.82	41404.08
544.99	41265.99
545.16	41710.69
545.32	41488.34
545.49	41811.33
545.66	42146.03
545.83	41743.45
546.00	42036.02
546.16	41687.28
546.33	42136.66
546.50	41254.28
546.67	41881.55
546.83	41591.32
547.00	42047.72
547.17	41710.69
547.34	41844.10
547.50	41958.78
547.67	42291.14
547.84	42300.50
548.00	42564.98
548.17	42557.96
548.34	42298.16
548.51	42162.41
548.67	42342.63
548.84	42429.23
549.01	42686.69
549.18	42110.92
549.34	42473.70
549.51	42529.87
549.68	42731.16
549.84	42508.81
550.01	42960.53
550.18	42394.12
550.34	42550.94
550.51	42464.34
550.68	42518.17
550.84	42782.65
551.01	42602.43
551.18	42698.39
551.34	42440.93
551.51	43009.68
551.68	43154.80
551.84	43171.18
552.01	43084.58
552.18	42941.81
552.34	42689.03
552.51	43075.22
552.68	43187.56
552.84	43409.92
553.01	43414.60
553.18	43178.20
553.34	43129.05
553.51	42934.79
553.67	43103.31
553.84	43613.54
554.01	43166.50
554.17	43442.68
554.34	43878.02
554.51	43866.32
554.67	43325.66
554.84	43138.41
555.00	43377.15
555.17	43440.34
555.33	43241.40
555.50	43236.72
555.67	43414.60
555.83	43358.42
556.00	43594.82
556.16	44083.99
556.33	44009.09
556.50	43824.19
556.66	43543.33
556.83	43777.38
556.99	43868.66
557.16	44020.80
557.32	44095.69
557.49	44102.71
557.65	43622.90
557.82	43688.44
557.98	43782.06
558.15	43529.28
558.32	43662.69
558.48	43236.72
558.65	43665.03
558.81	43901.43
558.98	43871.00
559.14	44259.53
559.31	44378.90
559.47	43999.73
559.64	44411.67
559.80	44306.34
559.97	44133.14
560.13	43676.74
560.30	44612.95
560.46	44114.42
560.63	44175.27
560.79	44226.76
560.96	44507.63
561.12	44147.18
561.29	44350.81
561.45	44257.19
561.61	44397.62
561.78	43901.43
561.94	43791.42
562.11	44336.77
562.27	44257.19
562.44	44348.47
562.60	44552.10
562.77	44870.41
562.93	44563.80
563.10	44325.07
563.26	44112.08
563.42	44624.65
563.59	44582.52
563.75	44341.45
563.92	44453.79
564.08	44458.48
564.24	45324.47
564.41	44259.53
564.57	44879.77
564.74	44252.51
564.90	44659.76
565.07	44404.64
565.23	44306.34
565.39	44446.77
565.56	44781.47
565.72	44060.58
565.88	44624.65
566.05	44395.28
566.21	44526.35
566.38	44254.85
566.54	44247.83
566.70	44910.20
566.87	45036.59
567.03	44737.00
567.19	45013.18
567.36	44636.36
567.52	44580.18
567.68	44971.05
567.85	44795.51
568.01	44570.82
568.17	44933.60
568.34	44744.02
568.50	44842.32
568.66	44905.52
568.83	45022.54
568.99	44697.21
569.15	44762.75
569.32	44612.95
569.48	45031.91
569.64	45132.55
569.81	45085.74
569.97	44985.10
570.13	45010.84
570.30	44559.12
570.46	44617.63
570.62	44807.22
570.78	44631.68
570.95	44676.15
571.11	44657.42
571.27	44762.75
571.43	45022.54
571.60	45001.48
571.76	44959.35
571.92	44905.52
572.09	44636.36
572.25	44964.03
572.41	45291.71
572.57	45237.87
572.74	45317.45
572.90	44821.26
573.06	44891.48
573.22	45043.61
573.38	45052.97
573.55	44989.78
573.71	45530.44
573.87	44587.21
574.03	44554.44
574.20	44748.70
574.36	45006.16
574.52	45216.81
574.68	44896.16
574.84	45450.86
575.01	44996.80
575.17	45022.54
575.33	44954.67
575.49	44842.32
575.65	45521.08
575.82	45287.03
575.98	45038.93
576.14	45340.86
576.30	45127.87
576.46	45200.43
576.62	45235.53
576.79	45001.48
576.95	44931.26
577.11	45244.90
577.27	44954.67
577.43	45382.99
577.59	45057.65
577.75	44921.90
577.92	44893.82
578.08	44505.29
578.24	44748.70
578.40	44856.37
578.56	45125.53
578.72	45151.27
578.88	45148.93
579.04	45329.16
579.21	45347.88
579.37	45429.80
579.53	45340.86
579.69	44924.24
579.85	45006.16
580.01	45270.64
580.17	45120.85
580.33	45249.58
580.49	45228.51
580.65	45439.16
580.82	45399.37
580.98	44863.39
581.14	44722.96
581.30	45200.43
581.46	45361.92
581.62	45507.04
581.78	45188.72
581.94	45621.72
582.10	45301.07
582.26	45670.87
582.42	45312.77
582.58	45137.23
582.74	45453.20
582.90	45406.39
583.06	45137.23
583.22	45382.99
583.38	45556.19
583.54	45230.85
583.70	45689.60
583.86	45326.81
584.02	45120.85
584.18	45277.66
584.34	45315.11
584.50	45099.78
584.66	45263.62
584.82	45331.50
584.98	45780.88
585.14	45378.31
585.30	45354.90
585.46	45319.79
585.62	44804.88
585.78	45226.17
585.94	45045.95
586.10	45146.59
586.26	45008.50
586.42	45696.62
586.58	45528.10
586.74	45415.76
586.90	45275.32
587.06	45223.83
587.22	45230.85
587.38	45081.06
587.54	45249.58
587.70	45645.13
587.86	45425.12
588.02	45064.67
588.18	45448.52
588.34	45492.99
588.49	44933.60
588.65	45074.04
588.81	44861.05
588.97	45111.49
589.13	44968.71
589.29	45385.33
589.45	45443.84
589.61	45471.93
589.77	45382.99
589.93	45514.06
590.08	45633.42
590.24	45425.12
590.40	45600.66
590.56	45750.45
590.72	45291.71
590.88	45237.87
591.04	45727.05
591.20	45588.95
591.35	45736.41
591.51	46096.85
591.67	46012.59
591.83	44926.58
591.99	44875.09
592.15	45104.46
592.31	45525.76
592.46	45518.74
592.62	45532.78
592.78	45560.87
592.94	45708.32
593.10	45724.71
593.26	45794.92
593.41	45528.10
593.57	45586.61
593.73	45399.37
593.89	45682.58
594.05	45834.71
594.20	45483.63
594.36	45450.86
594.52	45640.45
594.68	45436.82
594.84	45970.46
594.99	46045.36
595.15	45713.00
595.31	45523.42
595.47	45488.31
595.62	45769.18
595.78	45654.49
595.94	45844.07
596.10	45792.58
596.25	45818.33
596.41	45869.82
596.57	45425.12
596.73	45778.54
596.88	45872.16
597.04	45631.08
597.20	45500.01
597.36	45942.38
597.51	45954.08
597.67	45647.47
597.83	45963.44
597.99	45841.73
598.14	45464.91
598.30	45977.48
598.46	45418.10
598.61	45223.83
598.77	45535.12
598.93	45745.77
599.09	45429.80
599.24	46036.00
599.40	45916.63
599.56	46026.63
599.71	45556.19
599.87	45757.47
600.03	45666.19
600.18	45619.38
600.34	45282.34
600.50	45291.71
600.65	45645.13
600.81	45736.41
600.97	45874.50
601.12	45645.13
601.28	45975.14
601.44	45729.39
601.59	45755.13
601.75	45626.40
601.91	45507.04
602.06	45626.40
602.22	45876.84
602.37	45748.11
602.53	45900.25
602.69	45720.02
602.84	45586.61
603.00	45382.99
603.16	45713.00
603.31	45670.87
603.47	45265.96
603.62	45446.18
603.78	45724.71
603.94	45450.86
604.09	45755.13
604.25	45352.56
604.40	45659.17
604.56	45474.27
604.71	45909.61
604.87	45628.74
605.03	45593.64
605.18	45450.86
605.34	45476.61
605.49	45343.20
605.65	45825.35
605.80	45415.76
605.96	46300.48
606.12	45930.67
606.27	45509.38
606.43	45312.77
606.58	45876.84
606.74	45219.15
606.89	45397.03
607.05	45401.71
607.20	45523.42
607.36	45518.74
607.51	45701.30
607.67	45443.84
607.82	45397.03
607.98	45659.17
608.13	45256.60
608.29	45059.99
608.44	45123.19
608.60	44552.10
608.75	44952.33
608.91	44844.66
609.06	44870.41
609.22	45801.94
609.37	45167.66
609.53	45081.06
609.68	45401.71
609.84	45148.93
609.99	45368.94
610.15	45368.94
610.30	45081.06
610.46	45097.44
610.61	45001.48
610.76	45212.13
610.92	44935.95
611.07	45303.41
611.23	44949.99
611.38	44748.70
611.54	45045.95
611.69	44793.17
611.84	44861.05
612.00	45191.06
612.15	45251.92
612.31	45008.50
612.46	45394.69
612.62	45186.38
612.77	45216.81
612.92	45003.82
613.08	45043.61
613.23	44823.60
613.39	45109.14
613.54	44687.85
613.69	44711.25
613.85	44985.10
614.00	44739.34
614.15	44800.19
614.31	44952.33
614.46	45137.23
614.62	44605.93
614.77	44650.40
614.92	44816.58
615.08	44580.18
615.23	44322.72
615.38	44224.42
615.54	44594.23
615.69	44418.69
615.84	43894.41
616.00	44746.36
616.15	44299.32
616.30	44423.37
616.46	44098.03
616.61	44030.16
616.76	44304.00
616.92	44114.42
617.07	44060.58
617.22	43789.08
617.37	43866.32
617.53	44605.93
617.68	43931.86
617.83	44102.71
617.99	44533.37
618.14	44093.35
618.29	43700.14
618.45	44102.71
618.60	43969.30
618.75	43913.13
618.90	44135.48
619.06	43753.97
619.21	43824.19
619.36	44306.34
619.51	44051.22
619.67	43697.80
619.82	43812.49
619.97	43934.20
620.12	43381.83
620.28	43548.01
620.43	43882.70
620.58	43559.71
620.73	43274.16
620.89	43653.33
621.04	43922.49
621.19	43400.55
621.34	43552.69
621.49	43426.30
621.65	43377.15
621.80	43957.60
621.95	43505.88
622.10	43360.76
622.25	43264.80
622.41	43208.63
622.56	43178.20
622.71	43587.80
622.86	43313.95
623.01	43842.92
623.16	43466.09
623.32	43646.31
623.47	43917.81
623.62	43515.24
623.77	43529.28
623.92	43297.57
624.07	43349.06
624.23	42660.94
624.38	43030.75
624.53	43105.65
624.68	43292.89
624.83	43360.76
624.98	43320.98
625.13	43318.64
625.29	42756.91
625.44	42941.81
625.59	42960.53
625.74	42604.77
625.89	42614.13
626.04	42572.00
626.19	42948.83
626.34	42983.94
626.49	42836.48
626.65	42581.37
626.80	42972.24
626.95	42639.88
627.10	42674.99
627.25	42590.73
627.40	42464.34
627.55	41799.63
627.70	42000.91
627.85	42394.12
628.00	42330.93
628.15	42412.85
628.30	42169.43
628.45	42710.10
628.60	42422.21
628.76	42440.93
628.91	41989.21
629.06	41963.46
629.21	42227.95
629.36	41947.08
629.51	42026.66
629.66	41904.95
629.81	42033.68
629.96	41635.79
630.11	42291.14
630.26	42124.96
630.41	41993.89
630.56	41614.72
630.71	41972.83
630.86	41741.11
631.01	41481.31
631.16	42239.65
631.31	41944.74
631.46	41113.85
631.61	41717.71
631.76	41633.45
631.91	41949.42
632.06	41755.16
632.21	42005.59
632.36	42253.69
632.51	41684.94
632.66	41258.96
632.81	41324.50
632.96	41219.17
633.10	41303.43
633.25	41425.14
633.40	41654.51
633.55	41610.04
633.70	41670.90
633.85	41443.87
634.00	40889.16
634.15	41366.63
634.30	41319.82
634.45	41759.84
634.60	41015.55
634.75	41015.55
634.90	41406.42
635.05	41347.90
635.19	41088.10
635.34	41329.18
635.49	41085.76
635.64	40889.16
635.79	40816.60
635.94	41172.36
636.09	41301.09
636.24	40947.67
636.39	40458.50
636.53	41060.02
636.68	40767.45
636.83	40669.15
636.98	41074.06
637.13	40605.95
637.28	40744.05
637.43	41099.81
637.57	41188.75
637.72	41308.11
637.87	40830.65
638.02	40786.18
638.17	41034.27
638.32	40680.85
638.46	40849.37
638.61	40479.57
638.76	40456.16
638.91	41062.36
639.06	40547.44
639.20	40549.78
639.35	40903.20
639.50	40690.21
639.65	40552.12
639.80	40751.07
639.94	40346.15
640.09	40730.00
640.24	40463.18
640.39	40289.98
640.54	40140.19
640.68	40240.83
640.83	40147.21
640.98	40025.50
641.13	40149.55
641.27	40353.18
641.42	40329.77
641.57	40301.68
641.72	40126.14
641.86	39847.62
642.01	39871.03
642.16	39793.79
642.31	39615.91
642.45	40362.54
642.60	39620.59
642.75	39667.40
642.90	39498.88
643.04	39639.31
643.19	39922.52
643.34	39634.63
643.48	39391.22
643.63	40065.29
643.78	39648.68
643.93	39512.92
644.07	39592.50
644.22	39503.56
644.37	39248.44
644.51	39318.66
644.66	39576.12
644.81	39328.02
644.95	39707.19
645.10	39615.91
645.25	39892.09
645.39	39679.10
645.54	39402.92
645.69	40123.80
645.83	39634.63
645.98	39433.35
646.13	39063.54
646.27	39510.58
646.42	39143.12
646.57	39372.49
646.71	39049.50
646.86	39302.28
647.00	39140.78
647.15	38995.67
647.30	39473.13
647.44	39035.45
647.59	39227.38
647.74	39145.46
647.88	38873.96
648.03	39023.75
648.17	38864.60
648.32	38721.82
648.47	38852.89
648.61	38983.96
648.76	38979.28
648.90	38747.57
649.05	38820.13
649.20	39129.08
649.34	38953.54
649.49	38653.95
649.63	38998.01
649.78	38780.34
649.92	38525.22
650.07	38775.66
650.21	38286.48
650.36	38778.00
650.51	38817.78
650.65	39061.20
650.80	39030.77
650.94	39152.48
651.09	38237.33
651.23	38178.82
651.38	38237.33
651.52	38520.54
651.67	38281.80
651.81	38405.85
651.96	38272.44
652.10	38047.75
652.25	38181.16
652.39	38038.39
652.54	38478.41
652.68	38539.26
652.83	38176.48
652.97	38497.13
653.12	38679.69
653.26	38373.08
653.41	37928.38
653.55	37635.81
653.70	38113.28
653.84	38447.98
653.99	38068.81
654.13	38061.79
654.27	37598.37
654.42	37551.56
654.56	37914.34
654.71	37851.14
654.85	38073.49
655.00	37837.10
655.14	37862.85
655.29	37549.21
655.43	37727.10
655.57	37528.15
655.72	37399.42
655.86	37462.61
656.01	37551.56
656.15	37041.32
656.30	37383.04
656.44	37060.04
656.58	36816.63
656.73	37350.27
656.87	37326.86
657.01	36849.39
657.16	37261.33
657.30	37191.11
657.45	36889.18
657.59	37067.06
657.73	37118.56
657.88	37085.79
658.02	37397.08
658.16	37560.92
658.31	37558.58
658.45	37479.00
658.60	37055.36
658.74	37118.56
658.88	37057.70
659.03	36493.63
659.17	36781.52
659.31	36825.99
659.46	36540.44
659.60	37022.59
659.74	36701.94
659.89	36395.33
660.03	36643.43
660.17	36746.41
660.32	36933.65
660.46	37188.77
660.60	37333.89
660.74	36566.19
660.89	36505.34
661.03	35868.71
661.17	36067.66
661.32	35908.50
661.46	36072.34
661.60	35842.96
661.74	35880.41
661.89	35967.01
662.03	35941.27
662.17	35613.59
662.31	35679.13
662.46	35913.18
662.60	36149.57
662.74	35234.42
662.88	35679.13
663.03	35735.30
663.17	35747.00
663.31	35082.29
663.45	35541.03
663.60	35590.19
663.74	35459.12
663.88	35185.27
664.02	35065.91
664.17	35559.76
664.31	35019.10
664.45	35349.11
664.59	35512.95
664.73	35295.28
664.88	35232.08
665.02	34361.40
665.16	34628.23
665.30	34930.16
665.44	34766.32
665.59	34841.21
665.73	34841.21
665.87	34466.73
666.01	34653.97
666.15	34677.38
666.29	34820.15
666.44	34658.65
666.58	34338.00
666.72	35051.86
666.86	34314.59
667.00	34684.40
667.14	34227.99
667.28	34127.35
667.43	34150.76
667.57	33986.92
667.71	33883.94
667.85	34146.08
667.99	33837.12
668.13	34139.05
668.27	33596.05
668.41	33603.07
668.56	33219.22
668.70	34167.14
668.84	33790.31
668.98	33188.80
669.12	33366.68
669.26	33682.65
669.40	33567.96
669.54	33308.16
669.68	33684.99
669.82	33284.76
669.96	32687.92
670.10	32655.15
670.25	33476.68
670.39	32952.40
670.53	33055.39
670.67	32772.18
670.81	32615.37
670.95	33216.88
671.09	33399.44
671.23	33240.29
671.37	32769.84
671.51	32769.84
671.65	32676.22
671.79	32353.23
671.93	32428.12
672.07	32687.92
672.21	32458.55
672.35	32025.55
672.49	32034.91
672.63	32488.98
672.77	32430.46
672.91	32210.45
673.05	31627.66
673.19	31931.93
673.33	31637.02
673.47	31505.95
673.61	31557.44
673.75	31435.74
673.89	31089.34
674.03	31456.80
674.17	31332.75
674.31	31257.85
674.45	30974.65
674.59	31012.10
674.73	31395.95
674.87	31447.44
675.01	31054.23
675.15	31250.83
675.29	31051.89
675.43	31220.41
675.56	30218.66
675.70	30820.17
675.84	30562.72
675.98	29888.64
676.12	30354.41
676.26	30106.31
676.40	30251.42
676.54	30157.80
676.68	30085.25
676.82	29167.76
676.96	29750.55
677.10	29820.77
677.23	29509.47
677.37	29586.71
677.51	29656.93
677.65	29504.79
677.79	29460.32
677.93	29481.39
678.07	28936.04
678.21	28870.51
678.34	28783.91
678.48	28922.00
678.62	28402.40
678.76	28538.15
678.90	28788.59
679.04	28371.97
679.18	28348.57
679.31	28512.41
679.45	27943.66
679.59	27924.93
679.73	28023.23
679.87	28060.68
680.00	27828.97
680.14	27826.63
680.28	28151.96
680.42	27807.90
680.56	27784.50
680.70	27529.38
680.83	27597.26
680.97	27543.42
681.11	27040.21
681.25	27124.47
681.39	27152.55
681.52	27103.40
681.66	27042.55
681.80	27063.61
681.94	26682.11
682.07	26754.66
682.21	26728.92
682.35	26478.48
682.49	26059.52
682.62	26286.56
682.76	26064.21
682.90	26501.89
683.04	26412.95
683.17	26136.76
683.31	25947.18
683.45	25961.22
683.59	25628.87
683.72	25439.28
683.86	25345.66
684.00	25507.16
684.13	25301.19
684.27	25570.35
684.41	25331.62
684.55	25027.35
684.68	24893.94
684.82	25186.50
684.96	25071.82
685.09	24603.71
685.23	24694.99
685.37	24577.97
685.50	24882.24
685.64	24774.57
685.78	24465.62
685.91	24112.20
686.05	24306.46
686.19	24107.52
686.32	24091.13
686.46	23875.80
686.60	23964.75
686.73	23349.18
686.87	23452.17
687.01	23424.08
687.14	23042.57
687.28	23173.64
687.42	23220.45
687.55	23484.94
687.69	23145.56
687.82	23115.13
687.96	23138.54
688.10	22614.26
688.23	22916.19
688.37	22684.47
688.50	22270.20
688.64	22511.27
688.78	22462.12
688.91	22375.52
689.05	22342.75
689.18	22122.74
689.32	21785.71
689.46	21996.35
689.59	22045.51
689.73	22216.36
689.86	21886.35
690.00	21713.15
690.13	22024.44
690.27	22099.34
690.41	21748.26
690.54	21287.17
690.68	21647.61
690.81	21593.78
690.95	21111.63
691.08	21090.57
691.22	21020.35
691.35	21296.53
691.49	21113.97
691.62	21076.52
691.76	20870.56
691.89	21020.35
692.03	20570.97
692.16	20489.05
692.30	20599.05
692.43	20587.35
692.57	20376.70
692.70	20166.06
692.84	20325.21
692.97	20088.82
693.11	20196.48
693.24	19882.85
693.38	19798.59
693.51	19583.26
693.65	19480.28
693.78	20121.59
693.92	19601.99
694.05	19634.75
694.19	19449.85
694.32	19428.79
694.45	19171.33
694.59	19180.69
694.72	18867.06
694.86	18820.25
694.99	18700.88
695.13	18523.00
695.26	18546.40
695.39	18155.54
695.53	18466.83
695.66	18668.11
695.80	18600.24
695.93	18202.35
696.07	18008.08
696.20	18267.88
696.33	18286.61
696.47	18017.44
696.60	18040.85
696.73	18029.15
696.87	17434.65
697.00	17661.68
697.14	17710.83
697.27	17481.46
697.40	17621.89
697.54	17771.69
697.67	17584.44
697.80	17486.14
697.94	17408.90
698.07	17221.66
698.21	17039.10
698.34	17132.72
698.47	16875.26
698.61	16987.61
698.74	16526.52
698.87	16734.83
699.01	16636.53
699.14	16688.02
699.27	16540.57
699.40	16395.45
699.54	16130.97
699.67	16154.38
699.80	16252.68
699.94	15974.16
700.07	16086.50
700.20	15857.13
700.34	15803.30
700.47	15939.05
700.60	16121.61
700.73	15992.88
700.87	15786.91
701.00	15398.38
701.13	15550.52
701.26	15700.31
701.40	15824.36
701.53	15293.06
701.66	15555.20
701.79	15192.42
701.93	15089.43
702.06	15157.31
702.19	15016.88
702.32	14902.19
702.46	14829.63
702.59	14829.63
702.72	14665.80
702.85	14876.44
702.99	14764.10
703.12	14677.50
703.25	14527.71
703.38	14459.83
703.51	14382.59
703.65	14347.48
703.78	14424.72
703.91	14281.95
704.04	14279.61
704.17	14218.75
704.31	14031.51
704.44	14003.43
704.57	13834.91
704.70	13673.41
704.83	13818.52
704.96	13827.88
705.10	13816.18
705.23	13675.75
>>>>>End Processed Spectral Data<<<<<
