SpectraSuite Data File
++++++++++++++++++++++++++++++++++++
Date: Fri Oct 25 11:33:48 EDT 2013
User: price-jones
Dark Spectrum Present: No
Reference Spectrum Present: No
Number of Sampled Component Spectra: 1
Spectrometers: USB2+H05261
Integration Time (usec): 100000 (USB2+H05261)
Spectra Averaged: 1 (USB2+H05261)
Boxcar Smoothing: 0 (USB2+H05261)
Correct for Electrical Dark: No (USB2+H05261)
Strobe/Lamp Enabled: No (USB2+H05261)
Correct for Detector Non-linearity: No (USB2+H05261)
Correct for Stray Light: No (USB2+H05261)
Number of Pixels in Processed Spectrum: 2048
>>>>>Begin Processed Spectral Data<<<<<
365.73	301.93
365.92	301.93
366.12	301.93
366.32	215.33
366.52	191.92
366.72	191.92
366.91	147.45
367.11	168.52
367.31	93.62
367.51	128.73
367.70	140.43
367.90	159.16
368.10	166.18
368.30	135.75
368.49	133.41
368.69	203.63
368.89	224.69
369.09	173.20
369.28	212.99
369.48	215.33
369.68	241.08
369.87	273.84
370.07	215.33
370.27	234.05
370.47	346.40
370.66	514.92
370.86	517.26
371.06	566.41
371.25	496.19
371.45	531.30
371.65	524.28
371.84	564.07
372.04	566.41
372.24	564.07
372.44	571.09
372.63	547.69
372.83	676.41
373.03	580.45
373.22	585.13
373.42	676.41
373.62	681.10
373.81	589.82
374.01	678.76
374.21	592.16
374.40	650.67
374.60	631.94
374.79	657.69
374.99	653.01
375.19	751.31
375.38	601.52
375.58	744.29
375.78	737.27
375.97	678.76
376.17	683.44
376.37	599.18
376.56	713.86
376.76	711.52
376.95	676.41
377.15	716.20
377.35	737.27
377.54	695.14
377.74	641.31
377.93	678.76
378.13	650.67
378.33	704.50
378.52	734.93
378.72	732.59
378.91	613.22
379.11	653.01
379.31	713.86
379.50	706.84
379.70	791.10
379.89	716.20
380.09	655.35
380.28	737.27
380.48	704.50
380.68	720.88
380.87	786.42
381.07	699.82
381.26	809.83
381.46	755.99
381.65	765.36
381.85	744.29
382.04	737.27
382.24	758.33
382.43	833.23
382.63	723.23
382.83	800.46
383.02	842.59
383.22	875.36
383.41	748.97
383.61	678.76
383.80	807.48
384.00	847.27
384.19	767.70
384.39	767.70
384.58	866.00
384.78	751.31
384.97	880.04
385.17	837.91
385.36	765.36
385.56	763.01
385.75	788.76
385.95	912.81
386.14	840.25
386.34	807.48
386.53	781.74
386.72	767.70
386.92	910.47
387.11	891.74
387.31	936.21
387.50	873.02
387.70	966.64
387.89	905.79
388.09	854.30
388.28	875.36
388.48	880.04
388.67	926.85
388.86	933.87
389.06	940.90
389.25	950.26
389.45	1027.50
389.64	936.21
389.84	947.92
390.03	954.94
390.22	985.37
390.42	943.24
390.61	870.68
390.81	936.21
391.00	1036.86
391.19	1043.88
391.39	992.39
391.58	1048.56
391.78	1018.13
391.97	1029.84
392.16	978.34
392.36	987.71
392.55	1039.20
392.75	1036.86
392.94	1036.86
393.13	1149.20
393.33	1107.07
393.52	1090.69
393.71	1097.71
393.91	1043.88
394.10	1062.60
394.29	1128.14
394.49	1137.50
394.68	1172.61
394.88	1130.48
395.07	1078.99
395.26	1109.41
395.46	1097.71
395.65	1217.08
395.84	1121.12
396.04	1221.76
396.23	1245.16
396.42	1107.07
396.62	1212.40
396.81	1303.68
397.00	1125.80
397.19	1238.14
397.39	1259.21
397.58	1261.55
397.77	1249.85
397.97	1266.23
398.16	1334.11
398.35	1378.58
398.55	1273.25
398.74	1301.34
398.93	1376.24
399.12	1324.74
399.32	1270.91
399.51	1270.91
399.70	1401.98
399.90	1296.66
400.09	1350.49
400.28	1434.75
400.47	1387.94
400.67	1453.47
400.86	1409.00
401.05	1500.28
401.24	1341.13
401.44	1544.75
401.63	1493.26
401.82	1455.81
402.01	1432.41
402.21	1472.20
402.40	1474.54
402.59	1469.86
402.78	1444.11
402.97	1530.71
403.17	1533.05
403.36	1507.30
403.55	1523.69
403.74	1568.16
403.93	1554.12
404.13	1650.08
404.32	1558.80
404.51	1624.33
404.70	1664.12
404.89	1621.99
405.09	1736.68
405.28	1631.35
405.47	1636.03
405.66	1685.19
405.85	1741.36
406.05	1689.87
406.24	1846.68
406.43	1811.57
406.62	1713.27
406.81	1710.93
407.00	1771.79
407.20	1722.63
407.39	1834.98
407.58	1757.74
407.77	1902.86
407.96	1877.11
408.15	1842.00
408.34	1944.99
408.54	1956.69
408.73	1954.35
408.92	1872.43
409.11	1982.43
409.30	1919.24
409.49	1984.77
409.68	1961.37
409.87	1980.09
410.07	2054.99
410.26	1977.75
410.45	2052.65
410.64	2101.80
410.83	2078.40
411.02	2172.02
411.21	2122.87
411.40	2134.57
411.59	2176.70
411.78	2101.80
411.98	2150.95
412.17	2230.53
412.36	2319.47
412.55	2406.07
412.74	2363.94
412.93	2537.14
413.12	2399.05
413.31	2385.01
413.50	2338.20
413.69	2441.18
413.88	2445.86
414.07	2558.21
414.26	2436.50
414.45	2457.56
414.64	2516.08
414.83	2541.82
415.02	2609.70
415.22	2597.99
415.41	2682.25
415.60	2600.34
415.79	2686.94
415.98	2672.89
416.17	2752.47
416.36	2888.22
416.55	2904.60
416.74	2885.88
416.93	2787.58
417.12	2892.90
417.31	2860.13
417.50	2825.03
417.69	2925.67
417.88	2937.37
418.07	2920.99
418.26	3000.57
418.45	3038.02
418.64	3033.33
418.83	3047.38
419.02	3045.04
419.21	3073.12
419.39	3035.67
419.58	2913.97
419.77	3084.83
419.96	3241.64
420.15	3080.14
420.34	3145.68
420.53	3096.53
420.72	3192.49
420.91	3234.62
421.10	3236.96
421.29	3295.47
421.48	3208.87
421.67	3295.47
421.86	3342.28
422.05	3325.90
422.24	3379.73
422.43	3440.59
422.61	3351.65
422.80	3410.16
422.99	3358.67
423.18	3468.67
423.37	3501.44
423.56	3332.92
423.75	3325.90
423.94	3304.84
424.13	3112.91
424.32	3279.09
424.50	3428.88
424.69	3466.33
424.88	3501.44
425.07	3332.92
425.26	3361.01
425.45	3339.94
425.64	3309.52
425.83	3405.48
426.01	3489.74
426.20	3485.06
426.39	3419.52
426.58	3494.42
426.77	3459.31
426.96	3597.40
427.15	3522.51
427.33	3508.46
427.52	3578.68
427.71	3557.61
427.90	3552.93
428.09	3541.23
428.28	3660.60
428.46	3749.54
428.65	3641.87
428.84	3768.26
429.03	3868.91
429.22	3691.02
429.40	3796.35
429.59	3777.62
429.78	3794.01
429.97	3595.06
430.16	3791.67
430.34	3904.01
430.53	3845.50
430.72	3833.80
430.91	3861.88
431.10	3899.33
431.28	3992.95
431.47	3836.14
431.66	3971.89
431.85	3941.46
432.03	4002.32
432.22	4028.06
432.41	4065.51
432.60	4053.81
432.79	4025.72
432.97	4102.96
433.16	4243.39
433.35	4037.42
433.54	4259.78
433.72	4299.56
433.91	4044.45
434.10	4234.03
434.28	4227.01
434.47	4248.07
434.66	4283.18
434.85	4341.69
435.03	4372.12
435.22	4381.48
435.41	4322.97
435.59	4306.59
435.78	4496.17
435.97	4418.93
436.16	4372.12
436.34	4482.13
436.53	4397.87
436.72	4355.74
436.90	4437.66
437.09	4479.79
437.28	4409.57
437.46	4409.57
437.65	4638.94
437.84	4608.51
438.02	4737.24
438.21	4624.90
438.40	4416.59
438.58	4732.56
438.77	4816.82
438.96	4744.27
439.14	4816.82
439.33	4830.87
439.52	4882.36
439.70	5013.43
439.89	4830.87
440.08	5025.13
440.26	5151.52
440.45	4929.17
440.63	5069.60
440.82	5093.01
441.01	5053.22
441.19	5118.75
441.38	5142.16
441.57	5179.61
441.75	5324.72
441.94	5376.21
442.12	5387.91
442.31	5502.60
442.50	5397.28
442.68	5427.70
442.87	5507.28
443.05	5593.88
443.24	5397.28
443.43	5387.91
443.61	5626.65
443.80	5724.95
443.98	5465.15
444.17	5364.51
444.35	5565.79
444.54	5715.59
444.73	5617.29
444.91	5528.35
445.10	5579.84
445.28	5753.04
445.47	5614.95
445.65	5668.78
445.84	5624.31
446.02	5724.95
446.21	5774.10
446.39	5753.04
446.58	5671.12
446.77	5783.46
446.95	5628.99
447.14	5834.96
447.32	5846.66
447.51	5853.68
447.69	5696.86
447.88	5802.19
448.06	5820.91
448.25	5680.48
448.43	5647.71
448.62	5654.73
448.80	5811.55
448.99	5823.25
449.17	5933.26
449.36	5956.66
449.54	5926.24
449.73	5954.32
449.91	5996.45
450.10	5996.45
450.28	6132.20
450.46	5968.37
450.65	6066.67
450.83	6148.59
451.02	6164.97
451.20	6150.93
451.39	6221.14
451.57	6209.44
451.76	6193.06
451.94	6167.31
452.13	6370.94
452.31	6389.66
452.49	6349.87
452.68	6274.98
452.86	6202.42
453.05	6340.51
453.23	6380.30
453.42	6420.09
453.60	6200.08
453.78	6314.77
453.97	6331.15
454.15	6485.62
454.34	6497.33
454.52	6544.14
454.70	6562.86
454.89	6431.79
455.07	6635.42
455.26	6754.79
455.44	6551.16
455.62	6754.79
455.81	6829.68
455.99	6703.29
456.17	6712.66
456.36	6750.10
456.54	6986.50
456.73	6867.13
456.91	6855.43
457.09	7089.48
457.28	7103.53
457.46	6942.03
457.64	7178.42
457.83	7042.67
458.01	6953.73
458.19	7157.36
458.38	7019.27
458.56	7281.41
458.74	7148.00
458.93	7248.64
459.11	7260.34
459.29	7215.87
459.48	7110.55
459.66	7337.58
459.84	7332.90
460.03	7267.36
460.21	7368.01
460.39	7248.64
460.57	7339.92
460.76	7424.18
460.94	7716.75
461.12	7426.52
461.31	7705.04
461.49	7452.27
461.67	7630.15
461.85	7623.12
462.04	7583.34
462.22	8166.13
462.40	7850.16
462.59	7557.59
462.77	7627.81
462.95	7730.79
463.13	7669.94
463.32	7681.64
463.50	7871.22
463.68	7925.05
463.86	7927.39
464.05	7606.74
464.23	7700.36
464.41	8037.40
464.59	7646.53
464.78	8107.62
464.96	8163.79
465.14	8025.70
465.32	8053.78
465.50	8138.04
465.69	8072.51
465.87	7875.90
466.05	8201.24
466.23	7932.08
466.41	8226.98
466.60	8191.88
466.78	8306.56
466.96	8161.45
467.14	8070.17
467.32	8149.75
467.51	8215.28
467.69	8107.62
467.87	8465.72
468.05	8404.86
468.23	8393.16
468.41	8241.03
468.60	8381.46
468.78	8514.87
468.96	8561.68
469.14	8416.57
469.32	8650.62
469.50	8327.63
469.69	8683.39
469.87	8659.98
470.05	8826.16
470.23	8774.67
470.41	8784.03
470.59	8762.97
470.77	8498.49
470.95	8870.63
471.14	8968.93
471.32	8793.39
471.50	9083.62
471.68	8891.70
471.86	9046.17
472.04	9081.28
472.22	9334.06
472.40	9109.36
472.58	9312.99
472.77	9380.87
472.95	9392.57
473.13	9710.88
473.31	9455.76
473.49	9280.22
473.67	9458.10
473.85	9439.38
474.03	9734.29
474.21	9518.96
474.39	9919.19
474.57	9741.31
474.75	9907.49
474.93	9886.42
475.12	9982.38
475.30	10090.05
475.48	9804.50
475.66	9977.70
475.84	10059.62
476.02	10153.24
476.20	10307.72
476.38	10434.11
476.56	10548.79
476.74	10342.83
476.92	10249.21
477.10	10630.71
477.28	10743.06
477.46	10558.16
477.64	10888.17
477.82	10785.19
478.00	11276.70
478.18	11110.52
478.36	11171.38
478.54	11452.24
478.72	11307.13
478.90	11503.73
479.08	11646.51
479.26	11545.86
479.44	11543.52
479.62	11700.34
479.80	11782.26
479.98	11974.18
480.16	12154.40
480.34	12173.13
480.52	12226.96
480.70	12145.04
480.88	12180.15
481.06	12397.82
481.24	12355.69
481.41	12404.84
481.59	12671.66
481.77	13062.53
481.95	12772.30
482.13	12884.65
482.31	13057.85
482.49	13165.51
482.67	13334.03
482.85	13308.29
483.03	13544.68
483.21	13647.66
483.39	13579.79
483.57	13771.71
483.74	13905.12
483.92	13989.38
484.10	14087.68
484.28	14534.73
484.46	14483.24
484.64	14473.87
484.82	14518.34
485.00	14574.52
485.18	14970.07
485.35	15131.56
485.53	15152.63
485.71	14986.45
485.89	15344.55
486.07	15274.34
486.25	15213.48
486.43	15335.19
486.61	15454.56
486.78	15796.28
486.96	15768.19
487.14	16205.87
487.32	15917.98
487.50	16084.16
487.68	16240.98
487.85	16676.32
488.03	16814.41
488.21	17055.48
488.39	17226.34
488.57	17097.61
488.75	17249.75
488.92	17373.80
489.10	17600.83
489.28	17439.33
489.46	17816.16
489.64	17549.34
489.81	18190.64
489.99	18031.49
490.17	18101.70
490.35	18647.05
490.53	18497.25
490.70	18511.30
490.88	18574.49
491.06	18796.84
491.24	19194.73
491.41	19058.98
491.59	19293.04
491.77	19136.22
491.95	19349.21
492.13	19620.71
492.30	19800.93
492.48	19580.92
492.66	19985.83
492.84	20009.24
493.01	20292.44
493.19	19723.69
493.37	20470.33
493.54	20479.69
493.72	20746.51
493.90	20652.89
494.08	20634.16
494.25	20662.25
494.43	21074.18
494.61	21064.82
494.79	21099.93
494.96	21329.30
495.14	21032.05
495.32	21762.30
495.49	21769.32
495.67	21598.46
495.85	21776.34
496.02	21893.37
496.20	21944.86
496.38	22574.47
496.55	22417.65
496.73	22780.43
496.91	22750.01
497.09	23054.28
497.26	22558.08
497.44	22843.63
497.62	22995.76
497.79	23293.01
497.97	23192.37
498.14	23587.92
498.32	23487.28
498.50	23384.29
498.67	23997.51
498.85	23531.75
499.03	24205.82
499.20	23899.21
499.38	23969.43
499.56	24264.33
499.73	24730.10
499.91	24334.55
500.08	24704.35
500.26	24725.42
500.44	24533.50
500.61	24823.72
500.79	24922.02
500.97	25071.82
501.14	25291.83
501.32	25151.40
501.49	25408.86
501.67	25298.85
501.84	25773.98
502.02	25245.02
502.20	25610.14
502.37	25778.66
502.55	25635.89
502.72	25862.92
502.90	25933.14
503.07	26038.46
503.25	25797.38
503.43	25759.94
503.60	26052.50
503.78	26497.20
503.95	26204.64
504.13	26499.55
504.30	26485.50
504.48	26789.77
504.65	26806.16
504.83	26546.36
505.01	26993.40
505.18	27161.92
505.36	27197.02
505.53	27030.85
505.71	27421.72
505.88	27400.65
506.06	26960.63
506.23	27763.43
506.41	27285.97
506.58	27428.74
506.76	27859.40
506.93	27896.85
507.11	27819.61
507.28	28002.17
507.46	28077.07
507.63	28161.33
507.81	28353.25
507.98	28252.61
508.16	28496.02
508.33	28772.21
508.50	28826.04
508.68	28893.91
508.85	28734.76
509.03	28669.22
509.20	28737.10
509.38	29350.32
509.55	29549.26
509.73	29256.70
509.90	29680.33
510.08	29139.67
510.25	29053.07
510.42	29392.45
510.60	29916.73
510.77	29617.14
510.95	29825.45
511.12	29933.11
511.30	29963.54
511.47	30019.71
511.64	29514.16
511.82	30267.81
511.99	29930.77
512.17	30485.48
512.34	30331.00
512.51	30703.15
512.69	30492.50
512.86	30656.34
513.04	31037.84
513.21	30904.43
513.38	30923.16
513.56	31056.57
513.73	30869.33
513.90	31409.99
514.08	30881.03
514.25	31417.01
514.43	31302.32
514.60	31941.29
514.77	31337.43
514.95	31573.83
515.12	31440.42
515.29	31269.56
515.47	31615.96
515.64	32016.19
515.81	31840.65
515.99	32116.83
516.16	32318.12
516.33	32278.33
516.51	32414.08
516.68	32369.61
516.85	32556.85
517.03	32701.96
517.20	32538.13
517.37	32521.74
517.54	32795.59
517.72	32610.68
517.89	32910.27
518.06	32737.07
518.24	33017.94
518.41	32943.04
518.58	32847.08
518.75	32971.13
518.93	33193.48
519.10	33626.48
519.27	33237.95
519.45	33401.79
519.62	33523.49
519.79	33696.69
519.96	33809.04
520.14	33809.04
520.31	33991.60
520.48	33982.24
520.65	33731.80
520.83	33933.09
521.00	34569.71
521.17	33975.22
521.34	34125.01
521.52	34206.93
521.69	34089.90
521.86	34279.49
522.03	34527.58
522.20	35086.97
522.38	34815.47
522.55	34845.90
522.72	34731.21
522.89	35204.00
523.07	34958.24
523.24	35012.07
523.41	35651.04
523.58	34831.85
523.75	35386.56
523.92	35395.92
524.10	35482.52
524.27	35269.53
524.44	35482.52
524.61	36126.17
524.78	36175.32
524.96	35672.10
525.13	36034.89
525.30	35786.79
525.47	35866.37
525.64	35889.77
525.81	35854.67
525.98	35927.22
526.16	35995.10
526.33	35988.08
526.50	36346.18
526.67	36205.75
526.84	36470.23
527.01	36414.05
527.18	36966.42
527.36	36711.30
527.53	36830.67
527.70	37207.50
527.87	37111.53
528.04	37074.09
528.21	37170.05
528.38	36910.25
528.55	37312.82
528.72	37085.79
528.89	37057.70
529.07	37202.82
529.24	37156.00
529.41	37411.12
529.58	37291.76
529.75	37359.63
529.92	37621.77
530.09	37544.53
530.26	37420.48
530.43	37919.02
530.60	37289.42
530.77	37579.64
530.94	37909.66
531.11	37436.87
531.28	38181.16
531.46	37855.82
531.63	38099.24
531.80	38480.75
531.97	38506.49
532.14	38188.18
532.31	38003.28
532.48	38230.31
532.65	38787.36
532.82	38354.36
532.99	38522.88
533.16	38061.79
533.33	38527.56
533.50	38630.54
533.67	39016.73
533.84	38286.48
534.01	38883.32
534.18	38780.34
534.35	39335.04
534.52	39414.62
534.69	39393.56
534.86	39070.56
535.03	39196.95
535.20	39400.58
535.37	39344.41
535.54	39517.60
535.71	39260.15
535.88	39491.86
536.05	39227.38
536.22	39824.22
536.38	39594.84
536.55	39782.09
536.72	39475.48
536.89	39178.23
537.06	39854.64
537.23	39950.60
537.40	39880.39
537.57	39709.53
537.74	39688.46
537.91	39990.39
538.08	40027.84
538.25	39924.86
538.42	40048.91
538.59	40179.98
538.75	40060.61
538.92	40435.10
539.09	40472.54
539.26	40706.60
539.43	40627.02
539.60	40580.21
539.77	40587.23
539.94	41275.35
540.11	40519.35
540.28	40732.34
540.44	40837.67
540.61	40484.25
540.78	40807.24
540.95	40732.34
541.12	40521.69
541.29	40540.42
541.46	41074.06
541.62	41099.81
541.79	40971.08
541.96	40282.96
542.13	40741.71
542.30	41120.87
542.47	41125.55
542.63	41167.68
542.80	41776.22
542.97	41724.73
543.14	41991.55
543.31	41918.99
543.48	41820.69
543.64	41893.25
543.81	42122.62
543.98	42139.00
544.15	41855.80
544.32	41818.35
544.48	42349.65
544.65	42134.32
544.82	42337.95
544.99	42003.25
545.16	42094.53
545.32	42012.62
545.49	42267.73
545.66	42731.16
545.83	42220.92
546.00	42038.36
546.16	42359.02
546.33	42483.06
546.50	42068.79
546.67	42564.98
546.83	42157.73
547.00	42326.25
547.17	42422.21
547.34	42562.64
547.50	42618.81
547.67	43337.36
547.84	42572.00
548.00	43093.94
548.17	43192.25
548.34	43540.99
548.51	43122.03
548.67	43225.01
548.84	42843.51
549.01	42838.83
549.18	43412.26
549.34	43463.75
549.51	43447.36
549.68	43246.08
549.84	43222.67
550.01	43332.68
550.18	43487.15
550.34	43159.48
550.51	43573.75
550.68	43421.62
550.84	43185.22
551.01	43840.57
551.18	43276.51
551.34	43735.25
551.51	43938.88
551.68	43665.03
551.84	43578.43
552.01	43536.30
552.18	43751.63
552.34	43831.21
552.51	43540.99
552.68	43646.31
552.84	43590.14
553.01	44418.69
553.18	43959.94
553.34	43910.79
553.51	43896.75
553.67	43735.25
553.84	44486.56
554.01	44617.63
554.17	44512.31
554.34	44432.73
554.51	44467.84
554.67	44762.75
554.84	44495.92
555.00	44165.91
555.17	44491.24
555.33	44484.22
555.50	44772.11
555.67	44615.29
555.83	44671.46
556.00	44889.13
556.16	45500.01
556.33	45242.56
556.50	44397.62
556.66	44931.26
556.83	44711.25
556.99	44842.32
557.16	45560.87
557.32	44795.51
557.49	44978.07
557.65	44615.29
557.82	44992.12
557.98	44865.73
558.15	45429.80
558.32	44865.73
558.48	44933.60
558.65	45586.61
558.81	45020.20
558.98	45097.44
559.14	44973.39
559.31	45155.96
559.47	45102.12
559.64	45059.99
559.80	45207.45
559.97	45443.84
560.13	45462.57
560.30	45429.80
560.46	45441.50
560.63	45567.89
560.79	45394.69
560.96	45708.32
561.12	45656.83
561.29	45750.45
561.45	45439.16
561.61	45542.14
561.78	45584.27
561.94	45322.13
562.11	45668.53
562.27	45256.60
562.44	45350.22
562.60	45804.28
562.77	45921.31
562.93	45888.54
563.10	45787.90
563.26	45715.34
563.42	46333.24
563.59	45741.09
563.75	45439.16
563.92	45647.47
564.08	45698.96
564.24	45778.54
564.41	46054.72
564.57	45757.47
564.74	46108.55
564.90	45811.31
565.07	45801.94
565.23	45619.38
565.39	45794.92
565.56	45986.85
565.72	45397.03
565.88	45846.41
566.05	45797.26
566.21	46026.63
566.38	46080.47
566.54	46054.72
566.70	46291.12
566.87	46096.85
567.03	46115.58
567.19	46621.13
567.36	46024.29
567.52	46347.29
567.68	46677.30
567.85	45937.69
568.01	46808.37
568.17	45907.27
568.34	46138.98
568.50	46426.87
568.66	46457.29
568.83	46162.39
568.99	46127.28
569.15	46436.23
569.32	46150.68
569.48	46501.76
569.64	46550.91
569.81	46307.50
569.97	46171.75
570.13	46719.43
570.30	46258.35
570.46	46562.62
570.62	46466.66
570.78	46520.49
570.95	46401.12
571.11	46801.35
571.27	45968.12
571.43	46342.61
571.60	46532.19
571.76	46473.68
571.92	46330.90
572.09	46237.28
572.25	46485.38
572.41	46218.56
572.57	46506.44
572.74	46990.94
572.90	46691.35
573.06	46813.05
573.22	46927.74
573.38	46876.25
573.55	46972.21
573.71	47320.95
573.87	46878.59
574.03	46836.46
574.20	46827.10
574.36	46773.27
574.52	46567.30
574.68	46883.27
574.84	46932.42
575.01	46871.57
575.17	47274.14
575.33	46862.21
575.49	46749.86
575.65	47187.54
575.82	46838.80
575.98	46330.90
576.14	47072.85
576.30	47269.46
576.46	46916.04
576.62	46515.81
576.79	46700.71
576.95	46440.91
577.11	46794.33
577.27	46869.23
577.43	46717.09
577.59	46754.54
577.75	46749.86
577.92	46667.94
578.08	47110.30
578.24	47084.56
578.40	47110.30
578.56	46913.70
578.72	46920.72
578.88	47143.07
579.04	47042.43
579.21	46948.81
579.37	47351.38
579.53	47437.98
579.69	46717.09
579.85	46780.29
580.01	47143.07
580.17	46855.18
580.33	46843.48
580.49	47093.92
580.65	47196.90
580.82	47309.25
580.98	46656.24
581.14	46829.44
581.30	47201.58
581.46	47159.45
581.62	46948.81
581.78	46981.57
581.94	47704.80
582.10	47131.37
582.26	47157.11
582.42	47320.95
582.58	47250.74
582.74	46799.01
582.90	47196.90
583.06	47545.64
583.22	47037.75
583.38	47136.05
583.54	47351.38
583.70	47302.23
583.86	47484.79
584.02	47014.34
584.18	47398.19
584.34	47215.63
584.50	47445.00
584.66	47531.60
584.82	47430.96
584.98	47655.65
585.14	47386.49
585.30	47093.92
585.46	47131.37
585.62	47103.28
585.78	47164.14
585.94	47110.30
586.10	46885.61
586.26	46820.08
586.42	47126.69
586.58	47466.06
586.74	47236.69
586.90	47180.52
587.06	47084.56
587.22	47515.22
587.38	47105.62
587.54	47332.65
587.70	47704.80
587.86	47613.52
588.02	47515.22
588.18	47014.34
588.34	47587.77
588.49	47938.85
588.65	47625.22
588.81	47253.08
588.97	47683.73
589.13	47150.09
589.29	47253.08
589.45	48205.67
589.61	47068.17
589.77	47674.37
589.93	47435.64
590.08	47536.28
590.24	47583.09
590.40	47959.92
590.56	48072.26
590.72	47629.90
590.88	47398.19
591.04	47732.89
591.20	47978.64
591.35	47966.94
591.51	48065.24
591.67	48154.18
591.83	48299.30
591.99	47636.92
592.15	47625.22
592.31	47578.41
592.46	47632.24
592.62	47540.96
592.78	47831.19
592.94	47920.13
593.10	47931.83
593.26	48250.14
593.41	48411.64
593.57	47995.03
593.73	47728.20
593.89	48392.92
594.05	48219.72
594.20	48149.50
594.36	48247.80
594.52	48350.79
594.68	48079.28
594.84	47892.04
594.99	48135.46
595.15	47611.18
595.31	48093.33
595.47	47725.86
595.62	48151.84
595.78	48285.25
595.94	47657.99
596.10	48011.41
596.25	48186.95
596.41	48294.61
596.57	47817.14
596.73	48193.97
596.88	47962.26
597.04	47966.94
597.20	48189.29
597.36	47711.82
597.51	48069.92
597.67	47852.25
597.83	47863.96
597.99	47906.08
598.14	47831.19
598.30	48023.11
598.46	47920.13
598.61	48215.04
598.77	47779.70
598.93	48170.57
599.09	47775.02
599.24	48676.12
599.40	48182.27
599.56	48257.17
599.71	48603.56
599.87	48732.29
600.03	48395.26
600.18	48051.20
600.34	48051.20
600.50	48016.09
600.65	48060.56
600.81	48612.93
600.97	48413.98
601.12	48041.84
601.28	47817.14
601.44	48343.77
601.59	48095.67
601.75	47824.17
601.91	48294.61
602.06	47791.40
602.22	48421.00
602.37	48142.48
602.53	47941.19
602.69	48140.14
602.84	48095.67
603.00	48041.84
603.16	48030.13
603.31	47903.74
603.47	48018.43
603.62	48233.76
603.78	48266.53
603.94	48271.21
604.09	48236.10
604.25	48367.17
604.40	47777.36
604.56	47917.79
604.71	48535.69
604.87	48123.75
605.03	47959.92
605.18	47922.47
605.34	48004.39
605.49	47519.90
605.65	48266.53
605.80	47943.53
605.96	47885.02
606.12	48074.60
606.27	48170.57
606.43	48067.58
606.58	48219.72
606.74	48142.48
606.89	48210.35
607.05	48196.31
607.20	48172.91
607.36	47955.24
607.51	48109.71
607.67	47840.55
607.82	48074.60
607.98	47927.15
608.13	47707.14
608.29	48163.54
608.44	48074.60
608.60	48273.55
608.75	48250.14
608.91	48175.25
609.06	48011.41
609.22	48163.54
609.37	47320.95
609.53	47913.11
609.68	48311.00
609.84	47852.25
609.99	48081.63
610.15	47739.91
610.30	48023.11
610.46	47437.98
610.61	47917.79
610.76	47793.74
610.92	47962.26
611.07	47330.31
611.23	47697.78
611.38	47931.83
611.54	47922.47
611.69	47760.97
611.84	47878.00
612.00	47870.98
612.15	47594.79
612.31	47620.54
612.46	47573.73
612.62	47627.56
612.77	47536.28
612.92	47753.95
613.08	47601.82
613.23	47639.26
613.39	47466.06
613.54	47468.40
613.69	47547.98
613.85	47470.75
614.00	47517.56
614.15	47690.76
614.31	47372.44
614.46	47250.74
614.62	47828.85
614.77	47407.55
614.92	47114.98
615.08	47697.78
615.23	47683.73
615.38	47555.00
615.54	47437.98
615.69	47620.54
615.84	47473.09
616.00	47646.29
616.15	47058.81
616.30	47852.25
616.46	47360.74
616.61	47281.16
616.76	47262.44
616.92	46951.15
617.07	47147.75
617.22	46808.37
617.37	46801.35
617.53	47604.16
617.68	47246.05
617.83	47182.86
617.99	47363.08
618.14	47093.92
618.29	47136.05
618.45	46930.08
618.60	46850.50
618.75	46684.33
618.90	46443.25
619.06	47239.03
619.21	46763.90
619.36	46894.97
619.51	46583.68
619.67	46625.81
619.82	46553.26
619.97	47529.26
620.12	46801.35
620.28	47049.45
620.43	46983.91
620.58	47004.98
620.73	47079.88
620.89	46983.91
621.04	46862.21
621.19	46644.54
621.34	46595.38
621.49	46646.88
621.65	46497.08
621.80	46801.35
621.95	46527.51
622.10	47154.77
622.25	46419.84
622.41	46611.77
622.56	46307.50
622.71	46681.98
622.86	46782.63
623.01	46511.13
623.16	46686.67
623.32	46576.66
623.47	46600.07
623.62	46220.90
623.77	46377.72
623.92	46466.66
624.07	46370.69
624.23	46576.66
624.38	46855.18
624.53	46567.30
624.68	46068.76
624.83	45729.39
624.98	46136.64
625.13	45771.52
625.29	45895.56
625.44	46220.90
625.59	46433.89
625.74	46483.04
625.89	46019.61
626.04	45916.63
626.19	46274.73
626.34	46014.93
626.49	45949.40
626.65	45771.52
626.80	45918.97
626.95	45427.46
627.10	45064.67
627.25	45949.40
627.40	45853.44
627.55	45727.05
627.70	45713.00
627.85	45921.31
628.00	46012.59
628.15	45729.39
628.30	45394.69
628.45	45397.03
628.60	45436.82
628.76	45769.18
628.91	45425.12
629.06	45347.88
629.21	45359.58
629.36	45291.71
629.51	45727.05
629.66	45839.39
629.81	45455.54
629.96	45397.03
630.11	45539.80
630.26	45144.25
630.41	45111.49
630.56	45223.83
630.71	45104.46
630.86	45350.22
631.01	45177.02
631.16	44940.63
631.31	45249.58
631.46	45167.66
631.61	45525.76
631.76	45418.10
631.91	45003.82
632.06	45357.24
632.21	45565.55
632.36	45308.09
632.51	44957.01
632.66	45226.17
632.81	44954.67
632.96	45282.34
633.10	44364.85
633.25	44947.65
633.40	45127.87
633.55	45200.43
633.70	45155.96
633.85	44746.36
634.00	44678.49
634.15	44392.94
634.30	44725.30
634.45	44767.43
634.60	44669.12
634.75	44912.54
634.90	44744.02
635.05	44718.28
635.19	44767.43
635.34	44357.83
635.49	44898.50
635.64	44521.67
635.79	44783.81
635.94	44299.32
636.09	44509.97
636.24	44404.64
636.39	44797.85
636.53	44339.11
636.68	44156.55
636.83	44065.27
636.98	43887.39
637.13	43899.09
637.28	43646.31
637.43	44161.23
637.57	44006.75
637.72	43501.20
637.87	44055.90
638.02	44062.93
638.17	44336.77
638.32	43775.04
638.46	44016.11
638.61	43667.37
638.76	43725.89
638.91	43936.54
639.06	43917.81
639.20	43587.80
639.35	43480.13
639.50	43187.56
639.65	44086.33
639.80	44304.00
639.94	44519.33
640.09	43826.53
640.24	43913.13
640.39	43725.89
640.54	43353.74
640.68	43658.01
640.83	43512.90
640.98	43126.71
641.13	43468.43
641.27	43714.19
641.42	43555.03
641.57	43674.40
641.72	43323.32
641.86	43363.11
642.01	43016.71
642.16	42731.16
642.31	42667.97
642.45	43215.65
642.60	42887.98
642.75	43096.28
642.90	43821.85
643.04	43260.12
643.19	43225.01
643.34	42829.46
643.48	43115.01
643.63	43182.88
643.78	43063.52
643.93	43105.65
644.07	43082.24
644.22	43026.07
644.37	42955.85
644.51	43175.86
644.66	43339.70
644.81	43009.68
644.95	43164.16
645.10	43049.47
645.25	42504.13
645.39	42693.71
645.54	42707.76
645.69	42452.64
645.83	42349.65
645.98	42890.32
646.13	42883.30
646.27	42337.95
646.42	42677.33
646.57	42930.11
646.71	42934.79
646.86	42375.40
647.00	43063.52
647.15	42806.06
647.30	42607.11
647.44	42770.95
647.59	42651.58
647.74	42689.03
647.88	42602.43
648.03	42862.23
648.17	42752.23
648.32	42387.10
648.47	42260.71
648.61	42347.31
648.76	42314.55
648.90	42052.41
649.05	42263.05
649.20	42073.47
649.34	42323.91
649.49	42206.88
649.63	42410.51
649.78	41764.52
649.92	42131.98
650.07	42576.69
650.21	42234.97
650.36	42384.76
650.51	42092.19
650.65	42548.60
650.80	42267.73
650.94	42223.26
651.09	42307.52
651.23	41546.85
651.38	41684.94
651.52	41986.87
651.67	41607.70
651.81	41380.67
651.96	41855.80
652.10	41509.40
652.25	41518.76
652.39	41476.63
652.54	41488.34
652.68	41467.27
652.83	41567.91
652.97	42082.83
653.12	41486.00
653.26	41170.02
653.41	41546.85
653.55	41600.68
653.70	41780.90
653.84	41916.65
653.99	41937.72
654.13	41638.13
654.27	41242.58
654.42	41495.36
654.56	41347.90
654.71	41476.63
654.85	41392.37
655.00	41486.00
655.14	41605.36
655.29	41596.00
655.43	42124.96
655.57	41275.35
655.72	40947.67
655.86	41015.55
656.01	40802.56
656.15	40638.72
656.30	41202.79
656.44	40612.98
656.58	41163.00
656.73	41265.99
656.87	40786.18
657.01	40828.30
657.16	41015.55
657.30	40641.06
657.45	40854.05
657.59	40830.65
657.73	40428.07
657.88	40479.57
658.02	41029.59
658.16	40865.75
658.31	40610.64
658.45	40795.54
658.60	40390.62
658.74	40512.33
658.88	40502.97
659.03	40060.61
659.17	40531.06
659.31	40428.07
659.46	40233.81
659.60	40355.52
659.74	40086.36
659.89	40107.42
660.03	39761.02
660.17	40004.44
660.32	40243.17
660.46	39878.05
660.60	39445.05
660.74	39854.64
660.89	39896.77
661.03	39510.58
661.17	39416.96
661.32	39648.68
661.46	39826.56
661.60	39445.05
661.74	39555.05
661.89	39608.89
662.03	39770.38
662.17	39381.85
662.31	39058.86
662.46	39288.23
662.60	39192.27
662.74	39033.11
662.88	39058.86
663.03	38770.97
663.17	38665.65
663.31	38277.12
663.45	38785.02
663.60	39421.64
663.74	39063.54
663.88	38850.55
664.02	38639.90
664.17	38824.81
664.31	38803.74
664.45	38602.46
664.59	38749.91
664.73	38632.88
664.88	38609.48
665.02	38232.65
665.16	38623.52
665.30	38431.60
665.44	38515.86
665.59	37853.48
665.73	37530.49
665.87	37631.13
666.01	37801.99
666.15	37869.87
666.29	37785.61
666.44	38092.22
666.58	37687.31
666.72	37928.38
666.86	37476.66
667.00	37287.07
667.14	37603.05
667.28	37376.01
667.43	37266.01
667.57	37273.03
667.71	37167.71
667.85	37329.20
667.99	37170.05
668.13	36996.85
668.27	36751.09
668.41	37064.72
668.56	36500.65
668.70	36556.83
668.84	36804.92
668.98	36769.82
669.12	37008.55
669.26	36538.10
669.40	36865.78
669.54	36540.44
669.68	36594.28
669.82	36645.77
669.96	36055.95
670.10	36048.93
670.25	36027.87
670.39	35782.11
670.53	36348.52
670.67	36198.73
670.81	36189.36
670.95	36128.51
671.09	35672.10
671.23	35707.21
671.37	35573.80
671.51	35742.32
671.65	35421.67
671.79	35379.54
671.93	35529.33
672.07	35505.93
672.21	35580.82
672.35	34951.22
672.49	35250.81
672.63	35239.11
672.77	34541.63
672.91	35295.28
673.05	35026.12
673.19	34939.52
673.33	34705.46
673.47	34660.99
673.61	34141.39
673.75	34169.48
673.89	34176.50
674.03	34120.33
674.17	34043.09
674.31	34185.86
674.45	34263.10
674.59	33432.21
674.73	33883.94
674.87	33467.32
675.01	33078.79
675.15	33071.77
675.29	33266.03
675.43	33670.95
675.56	33661.58
675.70	33301.14
675.84	33282.42
675.98	32301.73
676.12	33226.24
676.26	33160.71
676.40	32673.88
676.54	32744.09
676.68	32744.09
676.82	32477.27
676.96	32811.97
677.10	32795.59
677.23	32238.54
677.37	32109.81
677.51	32112.15
677.65	31857.03
677.79	31791.50
677.93	31557.44
678.07	31892.14
678.21	32020.87
678.34	31562.12
678.48	31250.83
678.62	31424.03
678.76	31178.28
678.90	31150.19
679.04	31063.59
679.18	31292.96
679.31	30864.64
679.45	30754.64
679.59	31105.72
679.73	30717.19
679.87	30836.56
680.00	30700.81
680.14	30157.80
680.28	30380.15
680.42	30384.83
680.56	30132.06
680.70	30375.47
680.83	29673.31
680.97	29771.61
681.11	29708.42
681.25	29296.49
681.39	29003.92
681.52	29467.34
681.66	28957.11
681.80	29191.16
681.94	28470.28
682.07	28664.54
682.21	28734.76
682.35	28842.42
682.49	28713.69
682.62	28645.82
682.76	29017.96
682.90	28589.64
683.04	28568.58
683.17	28224.52
683.31	28243.24
683.45	27978.76
683.59	27854.72
683.72	27243.84
683.86	27831.31
684.00	27527.04
684.13	27775.14
684.27	27278.94
684.41	27138.51
684.55	27047.23
684.68	27056.59
684.82	26721.90
684.96	26969.99
685.09	27154.90
685.23	27089.36
685.37	27178.30
685.50	27044.89
685.64	26677.43
685.78	26466.78
685.91	26569.76
686.05	25956.54
686.19	25731.85
686.32	26073.57
686.46	25785.68
686.60	25706.10
686.73	25764.62
686.87	25376.09
687.01	25687.38
687.14	25385.45
687.28	25216.93
687.42	25317.57
687.55	24896.28
687.69	25158.42
687.82	24961.81
687.96	24950.11
688.10	24982.88
688.23	24975.86
688.37	24783.93
688.50	25238.00
688.64	24044.32
688.78	24624.78
688.91	24168.37
689.05	24379.02
689.18	23875.80
689.32	23475.57
689.46	23496.64
689.59	23847.72
689.73	23875.80
689.86	23798.57
690.00	23566.85
690.13	23728.35
690.27	23398.34
690.41	23747.08
690.54	22934.91
690.68	22822.56
690.81	22916.19
690.95	23049.60
691.08	22714.90
691.22	22637.66
691.35	22738.30
691.49	22494.89
691.62	22663.41
691.76	22331.05
691.89	22040.82
692.03	21649.96
692.16	21799.75
692.30	21818.47
692.43	21949.54
692.57	21488.46
692.70	21474.42
692.84	21270.79
692.97	20910.35
693.11	21177.17
693.24	21116.31
693.38	21277.81
693.51	21137.38
693.65	21018.01
693.78	20631.82
693.92	20676.29
694.05	20638.84
694.19	20552.24
694.32	20393.09
694.45	20421.17
694.59	20308.83
694.72	20257.34
694.86	20074.77
694.99	19859.45
695.13	19744.76
695.26	19721.35
695.39	19716.67
695.53	19819.66
695.66	19719.01
695.80	19243.88
695.93	19398.36
696.07	19480.28
696.20	18937.27
696.33	18801.52
696.47	18794.50
696.60	18803.86
696.73	19194.73
696.87	19218.14
697.00	18867.06
697.14	18719.60
697.27	18518.32
697.40	18380.23
697.54	18555.77
697.67	18391.93
697.80	18544.06
697.94	17991.70
698.07	17811.48
698.21	18270.22
698.34	17933.18
698.47	17607.85
698.61	17425.29
698.74	17640.62
698.87	17497.84
699.01	17392.52
699.14	17034.42
699.27	17408.90
699.40	17224.00
699.54	17085.91
699.67	17130.38
699.80	17446.35
699.94	16802.71
700.07	16875.26
700.20	16795.68
700.34	16678.66
700.47	16727.81
700.60	16716.11
700.73	16578.01
700.87	16318.22
701.00	16250.34
701.13	16011.60
701.26	16084.16
701.40	16088.84
701.53	15803.30
701.66	16004.58
701.79	15779.89
701.93	15967.13
702.06	15370.30
702.19	15559.88
702.32	15363.28
702.46	15662.86
702.59	15529.45
702.72	15410.09
702.85	15470.94
702.99	15456.90
703.12	15389.02
703.25	15061.35
703.38	15005.17
703.51	14775.80
703.65	14881.13
703.78	14663.46
703.91	14352.16
704.04	14541.75
704.17	14455.15
704.31	14537.07
704.44	14520.68
704.57	14050.24
704.70	14286.63
704.83	14101.73
704.96	13942.57
705.10	13706.18
705.23	13944.91
>>>>>End Processed Spectral Data<<<<<
