SpectraSuite Data File
++++++++++++++++++++++++++++++++++++
Date: Fri Oct 25 10:44:41 EDT 2013
User: price-jones
Dark Spectrum Present: No
Reference Spectrum Present: No
Number of Sampled Component Spectra: 1
Spectrometers: USB2+H05261
Integration Time (usec): 100000 (USB2+H05261)
Spectra Averaged: 1 (USB2+H05261)
Boxcar Smoothing: 0 (USB2+H05261)
Correct for Electrical Dark: No (USB2+H05261)
Strobe/Lamp Enabled: No (USB2+H05261)
Correct for Detector Non-linearity: No (USB2+H05261)
Correct for Stray Light: No (USB2+H05261)
Number of Pixels in Processed Spectrum: 2048
>>>>>Begin Processed Spectral Data<<<<<
365.73	93.62
365.92	93.62
366.12	93.62
366.32	14.04
366.52	32.77
366.72	105.32
366.91	23.41
367.11	91.28
367.31	46.81
367.51	44.47
367.70	0.00
367.90	46.81
368.10	37.45
368.30	30.43
368.49	18.72
368.69	42.13
368.89	16.38
369.09	42.13
369.28	102.98
369.48	39.79
369.68	100.64
369.87	112.35
370.07	102.98
370.27	84.26
370.47	259.80
370.66	325.33
370.86	374.49
371.06	388.53
371.25	491.51
371.45	491.51
371.65	500.87
371.84	479.81
372.04	447.04
372.24	519.60
372.44	575.77
372.63	547.69
372.83	486.83
373.03	500.87
373.22	463.43
373.42	538.32
373.62	484.49
373.81	475.13
374.01	505.56
374.21	568.75
374.40	479.81
374.60	561.73
374.79	524.28
374.99	512.58
375.19	486.83
375.38	573.43
375.58	500.87
375.78	545.34
375.97	603.86
376.17	561.73
376.37	582.79
376.56	566.41
376.76	500.87
376.95	638.97
377.15	606.20
377.35	674.07
377.54	653.01
377.74	543.00
377.93	505.56
378.13	575.77
378.33	660.03
378.52	624.92
378.72	634.29
378.91	645.99
379.11	589.82
379.31	594.50
379.50	594.50
379.70	638.97
379.89	704.50
380.09	657.69
380.28	648.33
380.48	683.44
380.68	695.14
380.87	564.07
381.07	706.84
381.26	681.10
381.46	676.41
381.65	669.39
381.85	496.19
382.04	664.71
382.24	709.18
382.43	709.18
382.63	692.80
382.83	662.37
383.02	671.73
383.22	781.74
383.41	732.59
383.61	678.76
383.80	730.25
384.00	660.03
384.19	737.27
384.39	713.86
384.58	716.20
384.78	760.67
384.97	690.46
385.17	685.78
385.36	755.99
385.56	667.05
385.75	697.48
385.95	779.40
386.14	765.36
386.34	788.76
386.53	800.46
386.72	793.44
386.92	784.08
387.11	779.40
387.31	788.76
387.50	798.12
387.70	777.06
387.89	866.00
388.09	835.57
388.28	863.66
388.48	791.10
388.67	884.72
388.86	777.06
389.06	849.61
389.25	943.24
389.45	905.79
389.64	917.49
389.84	940.90
390.03	877.70
390.22	898.77
390.42	910.47
390.61	1046.22
390.81	966.64
391.00	950.26
391.19	947.92
391.39	1015.79
391.58	985.37
391.78	901.11
391.97	816.85
392.16	978.34
392.36	943.24
392.55	842.59
392.75	990.05
392.94	924.51
393.13	950.26
393.33	1020.47
393.52	966.64
393.71	1039.20
393.91	1013.45
394.10	926.85
394.29	1006.43
394.49	1022.81
394.68	1043.88
394.88	1104.73
395.07	1048.56
395.26	1097.71
395.46	1118.78
395.65	1128.14
395.84	1151.54
396.04	1193.67
396.23	1041.54
396.42	1060.26
396.62	1095.37
396.81	1240.48
397.00	1116.44
397.19	1198.35
397.39	1135.16
397.58	1179.63
397.77	1219.42
397.97	1294.32
398.16	1212.40
398.35	1207.72
398.55	1214.74
398.74	1282.61
398.93	1284.95
399.12	1294.32
399.32	1345.81
399.51	1270.91
399.70	1294.32
399.90	1383.26
400.09	1394.96
400.28	1423.05
400.47	1371.55
400.67	1427.73
400.86	1516.67
401.05	1528.37
401.24	1493.26
401.44	1558.80
401.63	1479.22
401.82	1474.54
402.01	1490.92
402.21	1540.07
402.40	1551.78
402.59	1593.90
402.78	1444.11
402.97	1514.33
403.17	1586.88
403.36	1612.63
403.55	1612.63
403.74	1605.61
403.93	1528.37
404.13	1661.78
404.32	1645.40
404.51	1582.20
404.70	1692.21
404.89	1710.93
405.09	1666.46
405.28	1715.61
405.47	1748.38
405.66	1650.08
405.85	1696.89
406.05	1792.85
406.24	1767.10
406.43	1792.85
406.62	1739.02
406.81	1926.26
407.00	1769.44
407.20	1839.66
407.39	1823.28
407.58	1856.04
407.77	1865.41
407.96	1858.39
408.15	1898.17
408.34	1968.39
408.54	1968.39
408.73	2036.27
408.92	2040.95
409.11	2090.10
409.30	2108.82
409.49	1968.39
409.68	2085.42
409.87	2031.58
410.07	1989.46
410.26	2167.34
410.45	2197.76
410.64	2146.27
410.83	2218.83
411.02	2157.97
411.21	2148.61
411.40	2300.75
411.59	2382.67
411.78	2356.92
411.98	2228.19
412.17	2345.22
412.36	2345.22
412.55	2352.24
412.74	2321.81
412.93	2366.28
413.12	2413.09
413.31	2593.31
413.50	2338.20
413.69	2565.23
413.88	2548.84
414.07	2588.63
414.26	2705.66
414.45	2553.52
414.64	2672.89
414.83	2633.10
415.02	2686.94
415.22	2644.81
415.41	2691.62
415.60	2635.44
415.79	2787.58
415.98	2843.75
416.17	2827.37
416.36	2785.24
416.55	3000.57
416.74	2981.84
416.93	3016.95
417.12	2848.43
417.31	2951.42
417.50	2935.03
417.69	2998.23
417.88	3159.72
418.07	3131.64
418.26	3066.10
418.45	3166.74
418.64	3220.58
418.83	3119.93
419.02	3110.57
419.21	3241.64
419.39	3239.30
419.58	3190.15
419.77	3152.70
419.96	3323.56
420.15	3302.50
420.34	3283.77
420.53	3421.86
420.72	3410.16
420.91	3248.66
421.10	3375.05
421.29	3382.07
421.48	3370.37
421.67	3520.17
421.86	3316.54
422.05	3386.76
422.24	3297.81
422.43	3309.52
422.61	3569.32
422.80	3611.45
422.99	3503.78
423.18	3510.80
423.37	3499.10
423.56	3456.97
423.75	3574.00
423.94	3606.77
424.13	3311.86
424.32	3384.41
424.50	3662.94
424.69	3651.24
424.88	3513.14
425.07	3435.91
425.26	3400.80
425.45	3625.49
425.64	3515.48
425.83	3506.12
426.01	3676.98
426.20	3555.27
426.39	3695.71
426.58	3559.95
426.77	3705.07
426.96	3564.64
427.15	3489.74
427.33	3679.32
427.52	3763.58
427.71	3597.40
427.90	3684.00
428.09	3779.97
428.28	3662.94
428.46	3735.50
428.65	3618.47
428.84	3875.93
429.03	4011.68
429.22	3758.90
429.40	3681.66
429.59	3763.58
429.78	3693.37
429.97	3702.73
430.16	3777.62
430.34	3904.01
430.53	3796.35
430.72	3889.97
430.91	3819.75
431.10	3915.72
431.28	4049.13
431.47	4184.88
431.66	4042.11
431.85	3988.27
432.03	4135.73
432.22	4322.97
432.41	4058.49
432.60	4079.55
432.79	4327.65
432.97	4311.27
433.16	4091.26
433.35	4208.28
433.54	4273.82
433.72	4215.30
433.91	4280.84
434.10	4175.52
434.28	4252.75
434.47	4418.93
434.66	4351.06
434.85	4461.06
435.03	4479.79
435.22	4444.68
435.41	4538.30
435.59	4463.40
435.78	4587.45
435.97	4631.92
436.16	4652.98
436.34	4512.55
436.53	4550.00
436.72	4809.80
436.90	4706.82
437.09	4648.30
437.28	4573.41
437.46	4589.79
437.65	4624.90
437.84	4629.58
438.02	4702.14
438.21	4695.11
438.40	4571.07
438.58	4882.36
438.77	5043.85
438.96	4887.04
439.14	4959.60
439.33	5022.79
439.52	5043.85
439.70	5029.81
439.89	5109.39
440.08	5240.46
440.26	5076.62
440.45	5247.48
440.63	5181.95
440.82	5308.34
441.01	5214.71
441.19	5315.36
441.38	5495.58
441.57	5390.25
441.75	5626.65
441.94	5469.83
442.12	5582.18
442.31	5687.50
442.50	5706.23
442.68	5643.03
442.87	5565.79
443.05	5708.57
443.24	5858.36
443.43	5788.14
443.61	5757.72
443.80	5914.53
443.98	5785.80
444.17	5502.60
444.35	5724.95
444.54	5741.33
444.73	5813.89
444.91	5769.42
445.10	5781.12
445.28	5797.51
445.47	5753.04
445.65	5818.57
445.84	5839.64
446.02	5860.70
446.21	5673.46
446.39	5923.90
446.58	5996.45
446.77	5834.96
446.95	5928.58
447.14	5893.47
447.32	5846.66
447.51	5844.32
447.69	5982.41
447.88	5984.75
448.06	6010.50
448.25	6076.03
448.43	6211.78
448.62	5891.13
448.80	6083.05
448.99	6050.28
449.17	5989.43
449.36	6136.88
449.54	6087.73
449.73	6244.55
449.91	6333.49
450.10	6370.94
450.28	6396.68
450.46	6438.81
450.65	6225.82
450.83	6511.37
451.02	6305.40
451.20	6415.41
451.39	6516.05
451.57	6349.87
451.76	6583.93
451.94	6466.90
452.13	6661.16
452.31	6406.05
452.49	6324.13
452.68	6448.18
452.86	6527.75
453.05	6441.15
453.23	6593.29
453.42	6602.65
453.60	6541.80
453.78	6668.19
453.97	6473.92
454.15	6579.25
454.34	6562.86
454.52	6773.51
454.70	6686.91
454.89	6843.73
455.07	6850.75
455.26	6909.26
455.44	6792.23
455.62	6937.35
455.81	6944.37
455.99	6918.62
456.17	7035.65
456.36	6867.13
456.54	7241.62
456.73	7349.28
456.91	7265.02
457.09	7213.53
457.28	7470.99
457.46	7140.97
457.64	7178.42
457.83	7005.22
458.01	7342.26
458.19	7342.26
458.38	7293.11
458.56	7393.75
458.74	7309.49
458.93	7318.86
459.11	7613.76
459.29	7435.88
459.48	7426.52
459.66	7445.24
459.84	7566.95
460.03	7735.47
460.21	7515.46
460.39	7590.36
460.57	7798.66
460.76	7536.52
460.94	7606.74
461.12	7733.13
461.31	7644.19
461.49	7726.11
461.67	7613.76
461.85	7889.95
462.04	7831.43
462.22	7981.23
462.40	8121.66
462.59	7957.82
462.77	7786.96
462.95	7939.10
463.13	8065.49
463.32	7864.20
463.50	7922.71
463.68	8147.40
463.86	8039.74
464.05	8072.51
464.23	8140.38
464.41	8035.06
464.59	8011.65
464.78	8435.29
464.96	8367.42
465.14	8191.88
465.32	8119.32
465.50	8449.33
465.69	8336.99
465.87	8053.78
466.05	8341.67
466.23	8128.68
466.41	8262.09
466.60	8334.65
466.78	8119.32
466.96	8294.86
467.14	8458.70
467.32	8463.38
467.51	8519.55
467.69	8126.34
467.87	8465.72
468.05	8437.63
468.23	8402.52
468.41	8533.59
468.60	8648.28
468.78	8688.07
468.96	8500.83
469.14	8636.58
469.32	8875.31
469.50	8432.95
469.69	8870.63
469.87	8978.30
470.05	8954.89
470.23	9100.00
470.41	8795.73
470.59	9011.06
470.77	8826.16
470.95	9102.34
471.14	9207.67
471.32	8889.35
471.50	9254.48
471.68	9195.96
471.86	9362.14
472.04	9242.78
472.22	9479.17
472.40	9224.05
472.58	9472.15
472.77	9296.61
472.95	9591.52
473.13	9963.66
473.31	9331.72
473.49	9507.26
473.67	9460.45
473.85	9804.50
474.03	9858.34
474.21	9703.86
474.39	10001.11
474.57	10057.28
474.75	9975.36
474.93	10127.50
475.12	10153.24
475.30	10317.08
475.48	10150.90
475.66	10221.12
475.84	10181.33
476.02	10354.53
476.20	10347.51
476.38	10647.10
476.56	10731.36
476.74	10415.38
476.92	10839.02
477.10	10846.04
477.28	10799.23
477.46	10993.50
477.64	10902.22
477.82	10846.04
478.00	11297.77
478.18	11330.53
478.36	11410.11
478.54	11433.52
478.72	11459.26
478.90	11655.87
479.08	11784.60
479.26	11948.43
479.44	11698.00
479.62	11885.24
479.80	12133.34
479.98	12152.06
480.16	12386.12
480.34	12367.39
480.52	12381.43
480.70	12624.85
480.88	12407.18
481.06	12496.12
481.24	12409.52
481.41	12779.32
481.59	13027.42
481.77	13071.89
481.95	13064.87
482.13	12992.31
482.31	13259.13
482.49	13504.89
482.67	13376.16
482.85	13600.85
483.03	13862.99
483.21	14129.81
483.39	13862.99
483.57	13799.80
483.74	14204.71
483.92	14389.61
484.10	14270.25
484.28	14200.03
484.46	14745.38
484.64	14878.79
484.82	14794.53
485.00	14862.40
485.18	15021.56
485.35	15419.45
485.53	15028.58
485.71	15051.99
485.89	15215.82
486.07	15066.03
486.25	15133.90
486.43	15389.02
486.61	15733.08
486.78	15709.68
486.96	15641.80
487.14	16222.25
487.32	16086.50
487.50	16327.58
487.68	16538.23
487.85	16755.90
488.03	16840.15
488.21	16901.01
488.39	17057.82
488.57	16964.20
488.75	17518.91
488.92	17570.40
489.10	17715.51
489.28	17383.16
489.46	17788.07
489.64	17898.08
489.81	18019.78
489.99	18125.11
490.17	18553.43
490.35	18523.00
490.53	18499.59
490.70	18553.43
490.88	18881.10
491.06	19051.96
491.24	18759.39
491.41	18972.38
491.59	18696.20
491.77	18916.21
491.95	19264.95
492.13	19655.82
492.30	19651.14
492.48	19868.81
492.66	19800.93
492.84	19822.00
493.01	20049.03
493.19	19868.81
493.37	20512.46
493.54	20425.86
493.72	20563.95
493.90	20498.41
494.08	20709.06
494.25	20975.88
494.43	21135.04
494.61	21109.29
494.79	21153.76
494.96	20931.41
495.14	21439.31
495.32	21483.78
495.49	21895.71
495.67	21923.80
495.85	22183.60
496.02	22242.11
496.20	22214.02
496.38	22382.54
496.55	22270.20
496.73	22581.49
496.91	22726.60
497.09	22476.16
497.26	23058.96
497.44	22625.96
497.62	23180.67
497.79	23318.76
497.97	23285.99
498.14	23253.22
498.32	23482.59
498.50	23513.02
498.67	23889.85
498.85	24070.07
499.03	24037.30
499.20	24112.20
499.38	23718.99
499.56	24091.13
499.73	24271.36
499.91	24297.10
500.08	24545.20
500.26	24074.75
500.44	24746.48
500.61	24765.21
500.79	24636.48
500.97	24739.46
501.14	25174.80
501.32	24975.86
501.49	25013.31
501.67	25160.76
501.84	25298.85
502.02	25291.83
502.20	25621.84
502.37	25645.25
502.55	25689.72
502.72	25586.74
502.90	25792.70
503.07	26092.29
503.25	25783.34
503.43	25752.91
503.60	25785.68
503.78	26143.78
503.95	26024.42
504.13	26115.70
504.30	26328.69
504.48	26670.40
504.65	26473.80
504.83	26485.50
505.01	26733.60
505.18	26785.09
505.36	26918.50
505.53	27335.12
505.71	27173.62
505.88	27204.05
506.06	27131.49
506.23	27091.70
506.41	27026.17
506.58	27552.79
506.76	27562.15
506.93	27915.57
507.11	27271.92
507.28	27665.13
507.46	27728.33
507.63	28091.11
507.81	27946.00
507.98	28151.96
508.16	27967.06
508.33	28198.77
508.50	28439.85
508.68	28531.13
508.85	28580.28
509.03	28500.70
509.20	28594.32
509.38	28744.12
509.55	29181.80
509.73	28627.09
509.90	28493.68
510.08	29055.41
510.25	28917.32
510.42	29237.97
510.60	29455.64
510.77	29390.11
510.95	29750.55
511.12	29486.07
511.30	29617.14
511.47	29565.65
511.64	29776.30
511.82	29825.45
511.99	29977.58
512.17	29886.30
512.34	29624.16
512.51	30019.71
512.69	30473.78
512.86	30192.91
513.04	30637.61
513.21	30827.20
513.38	30396.54
513.56	30579.10
513.73	30417.60
513.90	30937.20
514.08	30541.65
514.25	30728.89
514.43	30391.86
514.60	31213.38
514.77	30946.56
514.95	31168.91
515.12	31133.81
515.29	30925.50
515.47	31658.09
515.64	31133.81
515.81	31337.43
515.99	31337.43
516.16	31494.25
516.33	31232.11
516.51	31653.40
516.68	31548.08
516.85	31391.26
517.03	31255.51
517.20	31529.36
517.37	31864.05
517.54	31889.80
517.72	31847.67
517.89	31688.51
518.06	32250.24
518.24	32088.74
518.41	32158.96
518.58	32460.89
518.75	32203.43
518.93	32484.30
519.10	32673.88
519.27	32781.54
519.45	32598.98
519.62	32620.05
519.79	32950.06
519.96	32856.44
520.14	33151.35
520.31	33294.12
520.48	32975.81
520.65	32999.21
520.83	33029.64
521.00	33553.92
521.17	33546.90
521.34	33926.07
521.52	33338.59
521.69	33357.32
521.86	33738.82
522.03	33790.31
522.20	33830.10
522.38	33970.54
522.55	34155.44
522.72	33940.11
522.89	33790.31
523.07	33982.24
523.24	33914.36
523.41	34457.37
523.58	34560.35
523.75	34558.01
523.92	34583.76
524.10	34843.56
524.27	35030.80
524.44	34794.40
524.61	34761.64
524.78	35119.74
524.96	34864.62
525.13	35019.10
525.30	35199.32
525.47	35211.02
525.64	34920.79
525.81	35302.30
525.98	35232.08
526.16	35302.30
526.33	34972.28
526.50	35405.28
526.67	35009.73
526.84	35363.15
527.01	35054.20
527.18	35590.19
527.36	35707.21
527.53	35840.62
527.70	36259.58
527.87	36119.15
528.04	36161.28
528.21	36032.55
528.38	35667.42
528.55	36732.37
528.72	36758.11
528.89	36367.24
529.07	36325.11
529.24	36208.09
529.41	36023.19
529.58	35791.47
529.75	35716.58
529.92	36542.78
530.09	36456.18
530.26	36708.96
530.43	36961.74
530.60	36231.49
530.77	36617.68
530.94	37064.72
531.11	36526.40
531.28	37120.90
531.46	37186.43
531.63	36924.29
531.80	37095.15
531.97	37067.06
532.14	37134.94
532.31	36844.71
532.48	37347.93
532.65	37448.57
532.82	37474.32
532.99	37099.83
533.16	37125.58
533.33	37343.25
533.50	37792.63
533.67	37436.87
533.84	37734.12
534.01	37581.98
534.18	37097.49
534.35	37881.57
534.52	37717.73
534.69	37745.82
534.86	38040.73
535.03	38401.17
535.20	38246.69
535.37	38256.06
535.54	38565.01
535.71	38178.82
535.88	38033.71
536.05	38234.99
536.22	38583.73
536.38	38387.13
536.55	38281.80
536.72	38096.90
536.89	38403.51
537.06	38609.48
537.23	38651.61
537.40	38457.34
537.57	38740.55
537.74	38684.37
537.91	39058.86
538.08	38852.89
538.25	38272.44
538.42	38927.79
538.59	39297.59
538.75	38787.36
538.92	38897.36
539.09	38838.85
539.26	39084.61
539.43	39356.11
539.60	38911.41
539.77	39030.77
539.94	39166.52
540.11	38831.83
540.28	38911.41
540.44	39304.62
540.61	39452.07
540.78	39117.37
540.95	39075.24
541.12	39222.70
541.29	39203.97
541.46	39157.16
541.62	39461.43
541.79	39562.08
541.96	39185.25
542.13	39618.25
542.30	39459.09
542.47	39636.97
542.63	39772.72
542.80	39770.38
542.97	40081.67
543.14	40645.74
543.31	40446.80
543.48	40261.90
543.64	40615.32
543.81	40423.39
543.98	40201.04
544.15	40343.81
544.32	40896.18
544.48	40821.28
544.65	40605.95
544.82	40650.42
544.99	40350.84
545.16	40617.66
545.32	40407.01
545.49	41053.00
545.66	41001.50
545.83	40957.03
546.00	41120.87
546.16	40861.07
546.33	40706.60
546.50	40395.31
546.67	40666.81
546.83	40818.94
547.00	41315.14
547.17	40779.15
547.34	40844.69
547.50	41167.68
547.67	41486.00
547.84	40809.58
548.00	41221.52
548.17	41425.14
548.34	40975.76
548.51	41404.08
548.67	41322.16
548.84	41572.60
549.01	41247.26
549.18	41127.89
549.34	41329.18
549.51	41872.18
549.68	41455.57
549.84	41673.24
550.01	41942.40
550.18	41528.13
550.34	41638.13
550.51	41572.60
550.68	41656.85
550.84	41095.13
551.01	41813.67
551.18	41593.66
551.34	42178.79
551.51	41827.71
551.68	42373.06
551.84	41823.03
552.01	41940.06
552.18	41977.51
552.34	41654.51
552.51	42000.91
552.68	41888.57
552.84	42382.42
553.01	42389.44
553.18	42213.90
553.34	42099.22
553.51	41823.03
553.67	41921.34
553.84	42532.22
554.01	42288.80
554.17	42623.50
554.34	42864.57
554.51	42227.95
554.67	42431.57
554.84	42564.98
555.00	42962.87
555.17	41970.49
555.33	42459.66
555.50	42344.97
555.67	42899.68
555.83	42707.76
556.00	42883.30
556.16	42873.93
556.33	42590.73
556.50	42670.31
556.66	42660.94
556.83	42562.64
556.99	43199.27
557.16	42663.28
557.32	42740.52
557.49	42955.85
557.65	42705.41
557.82	42735.84
557.98	42904.36
558.15	42792.01
558.32	43072.88
558.48	42871.59
558.65	42679.67
558.81	42899.68
558.98	42745.20
559.14	42852.87
559.31	42665.63
559.47	43164.16
559.64	43133.73
559.80	43182.88
559.97	43250.76
560.13	43215.65
560.30	43084.58
560.46	43269.48
560.63	43098.62
560.79	43454.39
560.96	43475.45
561.12	43288.21
561.29	43461.41
561.45	42768.61
561.61	43178.20
561.78	43466.09
561.94	43002.66
562.11	43232.04
562.27	43536.30
562.44	43138.41
562.60	44081.65
562.77	43430.98
562.93	43721.21
563.10	43208.63
563.26	43061.18
563.42	43592.48
563.59	43374.81
563.75	43512.90
563.92	43796.10
564.08	43725.89
564.24	44186.97
564.41	43566.73
564.57	43732.91
564.74	43393.53
564.90	43512.90
565.07	43438.00
565.23	43805.47
565.39	43276.51
565.56	43997.39
565.72	44058.24
565.88	43753.97
566.05	43793.76
566.21	43526.94
566.38	43409.92
566.54	43807.81
566.70	44105.06
566.87	43966.96
567.03	43662.69
567.19	44259.53
567.36	43557.37
567.52	44076.97
567.68	43880.36
567.85	43636.95
568.01	44121.44
568.17	43817.17
568.34	43871.00
568.50	43765.68
568.66	43564.39
568.83	43941.22
568.99	43302.25
569.15	43456.73
569.32	43721.21
569.48	43531.62
569.64	44081.65
569.81	44076.97
569.97	43606.52
570.13	44051.22
570.30	43658.01
570.46	43901.43
570.62	43725.89
570.78	43697.80
570.95	43524.60
571.11	43910.79
571.27	44329.75
571.43	43955.26
571.60	43648.65
571.76	44203.36
571.92	43889.73
572.09	43964.62
572.25	43917.81
572.41	43957.60
572.57	43941.22
572.74	44327.41
572.90	43653.33
573.06	44194.00
573.22	43899.09
573.38	44215.06
573.55	43761.00
573.71	44488.90
573.87	44402.30
574.03	43966.96
574.20	44156.55
574.36	43688.44
574.52	43990.37
574.68	43924.83
574.84	44226.76
575.01	44346.13
575.17	43555.03
575.33	43924.83
575.49	44058.24
575.65	44460.82
575.82	43920.15
575.98	44250.17
576.14	44201.02
576.30	44500.61
576.46	44130.80
576.62	44603.59
576.79	44390.60
576.95	43824.19
577.11	43880.36
577.27	43945.90
577.43	44119.10
577.59	44088.67
577.75	44371.88
577.92	43924.83
578.08	43683.76
578.24	43840.57
578.40	43756.32
578.56	44011.43
578.72	43952.92
578.88	44348.47
579.04	44285.28
579.21	44362.51
579.37	44224.42
579.53	43931.86
579.69	44222.08
579.85	44041.86
580.01	44402.30
580.17	44509.97
580.33	44465.50
580.49	44596.57
580.65	44655.08
580.82	44289.96
580.98	44245.49
581.14	43990.37
581.30	44580.18
581.46	44357.83
581.62	44315.70
581.78	44336.77
581.94	44898.50
582.10	44252.51
582.26	44142.50
582.42	44252.51
582.58	44371.88
582.74	44198.68
582.90	44210.38
583.06	44659.76
583.22	44886.79
583.38	44512.31
583.54	44449.11
583.70	44727.64
583.86	44376.56
584.02	44062.93
584.18	43959.94
584.34	44037.18
584.50	44172.93
584.66	44030.16
584.82	44032.50
584.98	44425.71
585.14	44275.91
585.30	44266.55
585.46	44390.60
585.62	44198.68
585.78	44605.93
585.94	44060.58
586.10	44500.61
586.26	44439.75
586.42	44563.80
586.58	44430.39
586.74	44362.51
586.90	44467.84
587.06	44334.43
587.22	43669.72
587.38	44023.14
587.54	44769.77
587.70	44524.01
587.86	44425.71
588.02	44655.08
588.18	44261.87
588.34	44591.89
588.49	44142.50
588.65	43709.50
588.81	43999.73
588.97	44385.92
589.13	44074.63
589.29	44385.92
589.45	44137.82
589.61	44591.89
589.77	44624.65
589.93	44636.36
590.08	44610.61
590.24	45127.87
590.40	44676.15
590.56	44697.21
590.72	44371.88
590.88	44353.15
591.04	44704.23
591.20	44807.22
591.35	44832.96
591.51	44865.73
591.67	44542.74
591.83	44879.77
591.99	44435.07
592.15	44584.86
592.31	44748.70
592.46	44502.95
592.62	44514.65
592.78	44690.19
592.94	44898.50
593.10	44886.79
593.26	45088.08
593.41	44304.00
593.57	44690.19
593.73	44945.31
593.89	44809.56
594.05	44945.31
594.20	44708.91
594.36	45392.35
594.52	44580.18
594.68	44505.29
594.84	44500.61
594.99	44931.26
595.15	44701.89
595.31	44648.06
595.47	44406.98
595.62	44512.31
595.78	44758.06
595.94	45013.18
596.10	44971.05
596.25	45052.97
596.41	44692.53
596.57	45006.16
596.73	44828.28
596.88	44395.28
597.04	45024.89
597.20	44938.29
597.36	44800.19
597.51	45296.39
597.67	44800.19
597.83	45120.85
597.99	45081.06
598.14	45092.76
598.30	44671.46
598.46	44807.22
598.61	44933.60
598.77	44706.57
598.93	44278.25
599.09	44669.12
599.24	45106.80
599.40	45338.52
599.56	45076.38
599.71	45031.91
599.87	44964.03
600.03	44947.65
600.18	44498.26
600.34	44577.84
600.50	44713.59
600.65	44804.88
600.81	44470.18
600.97	44921.90
601.12	45010.84
601.28	45310.43
601.44	44376.56
601.59	44739.34
601.75	44828.28
601.91	44924.24
602.06	44690.19
602.22	44765.09
602.37	44744.02
602.53	44795.51
602.69	45003.82
602.84	44524.01
603.00	44425.71
603.16	44554.44
603.31	45069.36
603.47	44428.05
603.62	44636.36
603.78	44753.38
603.94	44676.15
604.09	45036.59
604.25	44933.60
604.40	44610.61
604.56	44804.88
604.71	44942.97
604.87	44470.18
605.03	44715.93
605.18	44573.16
605.34	44636.36
605.49	44304.00
605.65	44666.78
605.80	44507.63
605.96	44210.38
606.12	44718.28
606.27	45170.00
606.43	44446.77
606.58	44875.09
606.74	44624.65
606.89	44776.79
607.05	44725.30
607.20	44456.14
607.36	44329.75
607.51	44783.81
607.67	44568.48
607.82	44617.63
607.98	44376.56
608.13	44203.36
608.29	43833.55
608.44	44079.31
608.60	44016.11
608.75	44350.81
608.91	44076.97
609.06	44027.82
609.22	44587.21
609.37	44217.40
609.53	44229.10
609.68	44381.24
609.84	44210.38
609.99	44470.18
610.15	44451.45
610.30	44287.62
610.46	44524.01
610.61	43798.44
610.76	44194.00
610.92	44332.09
611.07	44327.41
611.23	44463.16
611.38	44449.11
611.54	44149.53
611.69	44304.00
611.84	43758.66
612.00	44133.14
612.15	43768.02
612.31	44147.18
612.46	43613.54
612.62	44149.53
612.77	43941.22
612.92	44465.50
613.08	44079.31
613.23	44549.76
613.39	44098.03
613.54	43798.44
613.69	44116.76
613.85	43992.71
614.00	44191.65
614.15	43910.79
614.31	43807.81
614.46	44149.53
614.62	44222.08
614.77	43931.86
614.92	43852.28
615.08	43807.81
615.23	43189.91
615.38	43555.03
615.54	43269.48
615.69	43508.22
615.84	43491.83
616.00	43739.93
616.15	42995.64
616.30	43665.03
616.46	43466.09
616.61	43650.99
616.76	43285.87
616.92	43143.09
617.07	42885.64
617.22	43447.36
617.37	43384.17
617.53	43562.05
617.68	43129.05
617.83	43388.85
617.99	43658.01
618.14	43274.16
618.29	43236.72
618.45	42895.00
618.60	43068.20
618.75	43028.41
618.90	43077.56
619.06	43461.41
619.21	43262.46
619.36	43309.27
619.51	42763.93
619.67	43131.39
619.82	43337.36
619.97	43316.29
620.12	42689.03
620.28	43000.32
620.43	42892.66
620.58	42934.79
620.73	42712.44
620.89	42651.58
621.04	43171.18
621.19	43026.07
621.34	43056.50
621.49	42609.45
621.65	42351.99
621.80	42747.54
621.95	42422.21
622.10	42579.03
622.25	42003.25
622.41	42326.25
622.56	42131.98
622.71	42787.33
622.86	42377.74
623.01	42569.66
623.16	42396.46
623.32	42469.02
623.47	42871.59
623.62	42497.11
623.77	41893.25
623.92	42080.49
624.07	41614.72
624.23	42066.45
624.38	41970.49
624.53	42347.31
624.68	42197.52
624.83	42232.63
624.98	42330.93
625.13	42239.65
625.29	42141.35
625.44	41968.15
625.59	41549.19
625.74	41696.64
625.89	41427.48
626.04	41193.43
626.19	41848.78
626.34	42014.96
626.49	42026.66
626.65	41565.57
626.80	42284.12
626.95	41525.78
627.10	41647.49
627.25	41902.61
627.40	42047.72
627.55	41696.64
627.70	41448.55
627.85	41102.15
628.00	41155.98
628.15	41755.16
628.30	41120.87
628.45	41596.00
628.60	41329.18
628.76	41698.98
628.91	41975.17
629.06	41186.41
629.21	41153.64
629.36	41577.28
629.51	40992.14
629.66	41233.22
629.81	40706.60
629.96	41200.45
630.11	41446.21
630.26	41263.64
630.41	41453.23
630.56	41221.52
630.71	41043.63
630.86	40631.70
631.01	41186.41
631.16	41139.60
631.31	40634.04
631.46	40498.29
631.61	40765.11
631.76	40711.28
631.91	41083.42
632.06	41113.85
632.21	41158.32
632.36	41188.75
632.51	40966.40
632.66	40631.70
632.81	40566.16
632.96	40734.68
633.10	40299.34
633.25	40601.27
633.40	40940.65
633.55	40940.65
633.70	40538.08
633.85	40570.85
634.00	40250.19
634.15	40507.65
634.30	40620.00
634.45	40456.16
634.60	40245.51
634.75	40313.39
634.90	40479.57
635.05	40306.37
635.19	40177.64
635.34	40612.98
635.49	40414.03
635.64	40194.02
635.79	39899.11
635.94	40371.90
636.09	40182.32
636.24	40381.26
636.39	39842.94
636.53	39636.97
636.68	39700.17
636.83	39887.41
636.98	40334.45
637.13	39629.95
637.28	39985.71
637.43	40121.46
637.57	40285.30
637.72	39948.26
637.87	40027.84
638.02	40065.29
638.17	39908.47
638.32	39491.86
638.46	39693.15
638.61	39934.22
638.76	39454.41
638.91	40032.52
639.06	39636.97
639.20	39634.63
639.35	39716.55
639.50	39559.73
639.65	39658.04
639.80	40116.78
639.94	39662.72
640.09	39941.24
640.24	39138.44
640.39	39086.95
640.54	39489.52
640.68	39475.48
640.83	39117.37
640.98	39475.48
641.13	38848.21
641.27	39793.79
641.42	39356.11
641.57	39054.18
641.72	39342.06
641.86	38815.44
642.01	38595.43
642.16	39002.69
642.31	38546.28
642.45	38930.13
642.60	38974.60
642.75	38616.50
642.90	39185.25
643.04	38724.16
643.19	38440.96
643.34	38925.45
643.48	38660.97
643.63	38572.03
643.78	38403.51
643.93	38459.68
644.07	38869.28
644.22	39143.12
644.37	38260.74
644.51	38429.26
644.66	38890.34
644.81	38796.72
644.95	38883.32
645.10	38775.66
645.25	38998.01
645.39	38803.74
645.54	38951.20
645.69	38452.66
645.83	38803.74
645.98	38759.27
646.13	38176.48
646.27	38588.41
646.42	38527.56
646.57	38543.94
646.71	38728.84
646.86	38511.17
647.00	38660.97
647.15	38342.66
647.30	38387.13
647.44	38181.16
647.59	37790.29
647.74	38431.60
647.88	38085.20
648.03	38333.29
648.17	38345.00
648.32	37968.17
648.47	38234.99
648.61	37888.59
648.76	38345.00
648.90	38040.73
649.05	37813.70
649.20	38047.75
649.34	37897.95
649.49	37511.77
649.63	37394.74
649.78	38064.13
649.92	37935.40
650.07	38370.74
650.21	37544.53
650.36	37441.55
650.51	37322.18
650.65	38024.34
650.80	38251.38
650.94	37881.57
651.09	37886.25
651.23	38106.26
651.38	37619.43
651.52	37474.32
651.67	37474.32
651.81	37546.87
651.96	37219.20
652.10	37221.54
652.25	36760.45
652.39	37406.44
652.54	37521.13
652.68	37401.76
652.83	37764.54
652.97	37682.62
653.12	37750.50
653.26	37408.78
653.41	37317.50
653.55	36931.31
653.70	37251.97
653.84	37235.58
653.99	37099.83
654.13	36683.22
654.27	37345.59
654.42	37057.70
654.56	36928.97
654.71	36830.67
654.85	37198.13
655.00	37401.76
655.14	36989.83
655.29	37083.45
655.43	36996.85
655.57	36652.79
655.72	36282.98
655.86	36493.63
656.01	36655.13
656.15	36666.83
656.30	36535.76
656.44	36666.83
656.58	36549.81
656.73	36339.16
656.87	36074.68
657.01	36521.72
657.16	36744.07
657.30	36470.23
657.45	36402.35
657.59	36659.81
657.73	36053.61
657.88	36205.75
658.02	36400.01
658.16	36395.33
658.31	36299.37
658.45	36608.32
658.60	36287.67
658.74	36154.26
658.88	36264.26
659.03	36280.64
659.17	36046.59
659.31	36041.91
659.46	35683.81
659.60	36236.17
659.74	36329.80
659.89	35232.08
660.03	35882.75
660.17	36044.25
660.32	35697.85
660.46	36112.13
660.60	35835.94
660.74	35777.43
660.89	35859.35
661.03	35484.86
661.17	35482.52
661.32	34981.65
661.46	35459.12
661.60	35253.15
661.74	35641.68
661.89	35028.46
662.03	35435.71
662.17	35281.24
662.31	34845.90
662.46	35201.66
662.60	35150.17
662.74	34895.05
662.88	35229.74
663.03	34934.84
663.17	34560.35
663.31	34323.96
663.45	34775.68
663.60	34618.86
663.74	34899.73
663.88	34876.32
664.02	34581.42
664.17	34813.13
664.31	34209.27
664.45	34476.09
664.59	33895.64
664.73	34253.74
664.88	34405.88
665.02	33944.79
665.16	34546.31
665.30	34293.53
665.44	34101.61
665.59	34033.73
665.73	33972.88
665.87	33858.19
666.01	33986.92
666.15	33975.22
666.29	33553.92
666.44	33897.98
666.58	33640.52
666.72	34122.67
666.86	34033.73
667.00	33888.62
667.14	33399.44
667.28	33596.05
667.43	33546.90
667.57	33446.26
667.71	33127.94
667.85	33354.97
667.99	33464.98
668.13	33029.64
668.27	33254.33
668.41	33053.05
668.56	32826.01
668.70	33366.68
668.84	32849.42
668.98	32423.44
669.12	32659.84
669.26	32919.63
669.40	32657.49
669.54	32613.02
669.68	32371.95
669.82	32374.29
669.96	32084.06
670.10	32446.85
670.25	32297.05
670.39	32488.98
670.53	31744.69
670.67	31864.05
670.81	31941.29
670.95	32039.59
671.09	31835.97
671.23	32013.85
671.37	31927.25
671.51	31718.94
671.65	31487.23
671.79	31339.77
671.93	31290.62
672.07	32077.04
672.21	31875.76
672.35	31707.24
672.49	31482.55
672.63	31679.15
672.77	31197.00
672.91	31765.75
673.05	31681.49
673.19	31157.21
673.33	31388.92
673.47	30806.13
673.61	30747.62
673.75	30724.21
673.89	30710.17
674.03	30422.28
674.17	30794.43
674.31	30438.67
674.45	30394.20
674.59	30979.33
674.73	30810.81
674.87	30026.73
675.01	30368.45
675.15	30169.51
675.29	30525.27
675.43	30005.67
675.56	30284.19
675.70	30197.59
675.84	29294.14
675.98	29537.56
676.12	29493.09
676.26	29783.32
676.40	29497.77
676.54	29947.15
676.68	29582.03
676.82	29455.64
676.96	29579.69
677.10	29284.78
677.23	29453.30
677.37	29029.66
677.51	29060.09
677.65	28596.67
677.79	27950.68
677.93	28559.22
678.07	28727.74
678.21	28074.73
678.34	28577.94
678.48	27711.94
678.62	27922.59
678.76	27747.05
678.90	27637.05
679.04	27700.24
679.18	27885.14
679.31	27552.79
679.45	27136.17
679.59	27061.27
679.73	27342.14
679.87	27297.67
680.00	27608.96
680.14	27084.68
680.28	26977.01
680.42	27103.40
680.56	26977.01
680.70	26632.96
680.83	27080.00
680.97	26768.71
681.11	26799.13
681.25	26544.02
681.39	26602.53
681.52	26494.86
681.66	26764.03
681.80	26345.07
681.94	26176.55
682.07	26185.91
682.21	26029.10
682.35	25731.85
682.49	25947.18
682.62	25895.69
682.76	26036.12
682.90	25523.54
683.04	25668.66
683.17	25603.12
683.31	25645.25
683.45	25113.95
683.59	24987.56
683.72	25020.33
683.86	24711.38
684.00	24931.39
684.13	25085.86
684.27	24863.51
684.41	24631.80
684.55	24816.70
684.68	24666.91
684.82	24741.80
684.96	24767.55
685.09	24226.89
685.23	24086.45
685.37	24369.66
685.50	23976.45
685.64	24662.22
685.78	23805.59
685.91	23910.91
686.05	23697.92
686.19	23597.28
686.32	23529.41
686.46	23311.74
686.60	23255.56
686.73	23293.01
686.87	22775.75
687.01	22810.86
687.14	23159.60
687.28	22963.00
687.42	22930.23
687.55	22455.10
687.69	22944.27
687.82	22822.56
687.96	22888.10
688.10	22403.61
688.23	22394.25
688.37	22108.70
688.50	22033.80
688.64	22097.00
688.78	22066.57
688.91	21902.73
689.05	21905.07
689.18	21860.60
689.32	21483.78
689.46	21743.58
689.59	21661.66
689.73	21860.60
689.86	21315.26
690.00	21680.38
690.13	21404.20
690.27	21249.72
690.41	21029.71
690.54	20947.79
690.68	20734.81
690.81	20587.35
690.95	20926.73
691.08	20809.70
691.22	20458.62
691.35	20842.47
691.49	20556.93
691.62	20671.61
691.76	20266.70
691.89	20439.90
692.03	20095.84
692.16	20135.63
692.30	19997.54
692.43	19796.25
692.57	19440.49
692.70	19791.57
692.84	20198.82
692.97	19585.60
693.11	19660.50
693.24	19499.00
693.38	19419.42
693.51	19393.68
693.65	19424.11
693.78	19393.68
693.92	19330.48
694.05	19147.92
694.19	19054.30
694.32	19147.92
694.45	18965.36
694.59	18637.69
694.72	18532.36
694.86	18654.07
694.99	18508.96
695.13	18850.67
695.26	18553.43
695.39	18036.17
695.53	18560.45
695.66	18394.27
695.80	18583.85
695.93	17970.63
696.07	17980.00
696.20	17862.97
696.33	17813.82
696.47	17867.65
696.60	17593.81
696.73	17635.94
696.87	17439.33
697.00	17514.23
697.14	17757.64
697.27	17525.93
697.40	17324.65
697.54	17151.45
697.67	16940.80
697.80	16975.91
697.94	16695.04
698.07	16659.93
698.21	16634.19
698.34	16622.48
698.47	16325.24
698.61	16215.23
698.74	16397.79
698.87	16362.69
699.01	16191.83
699.14	16009.26
699.27	15971.82
699.40	16212.89
699.54	16046.71
699.67	16018.63
699.80	15758.83
699.94	15786.91
700.07	15758.83
700.20	15480.30
700.34	15253.27
700.47	15543.50
700.60	15908.62
700.73	15627.76
700.87	15433.49
701.00	15506.05
701.13	15176.03
701.26	15513.07
701.40	15033.26
701.53	14930.28
701.66	14869.42
701.79	14902.19
701.93	14883.47
702.06	15014.54
702.19	14721.97
702.32	14939.64
702.46	14644.73
702.59	14427.06
702.72	14415.36
702.85	14480.89
702.99	14291.31
703.12	14331.10
703.25	14244.50
703.38	14230.46
703.51	13865.33
703.65	13865.33
703.78	13965.98
703.91	14258.54
704.04	13734.26
704.17	13752.99
704.31	13928.53
704.44	13776.39
704.57	13664.05
704.70	13575.11
704.83	13544.68
704.96	13547.02
705.10	13376.16
705.23	13650.00
>>>>>End Processed Spectral Data<<<<<
