SpectraSuite Data File
++++++++++++++++++++++++++++++++++++
Date: Fri Oct 25 11:34:26 EDT 2013
User: price-jones
Dark Spectrum Present: No
Reference Spectrum Present: No
Number of Sampled Component Spectra: 1
Spectrometers: USB2+H05261
Integration Time (usec): 100000 (USB2+H05261)
Spectra Averaged: 1 (USB2+H05261)
Boxcar Smoothing: 0 (USB2+H05261)
Correct for Electrical Dark: No (USB2+H05261)
Strobe/Lamp Enabled: No (USB2+H05261)
Correct for Detector Non-linearity: No (USB2+H05261)
Correct for Stray Light: No (USB2+H05261)
Number of Pixels in Processed Spectrum: 2048
>>>>>Begin Processed Spectral Data<<<<<
365.73	306.61
365.92	306.61
366.12	306.61
366.32	182.56
366.52	184.90
366.72	273.84
366.91	198.95
367.11	173.20
367.31	243.42
367.51	198.95
367.70	187.24
367.90	156.82
368.10	180.22
368.30	152.13
368.49	140.43
368.69	255.12
368.89	145.11
369.09	227.03
369.28	222.35
369.48	234.05
369.68	191.92
369.87	196.60
370.07	229.37
370.27	304.27
370.47	299.59
370.66	470.45
370.86	528.96
371.06	543.00
371.25	573.43
371.45	535.98
371.65	528.96
371.84	564.07
372.04	561.73
372.24	538.32
372.44	634.29
372.63	568.75
372.83	566.41
373.03	629.60
373.22	524.28
373.42	603.86
373.62	613.22
373.81	629.60
374.01	678.76
374.21	692.80
374.40	557.05
374.60	634.29
374.79	641.31
374.99	592.16
375.19	664.71
375.38	645.99
375.58	667.05
375.78	676.41
375.97	678.76
376.17	704.50
376.37	669.39
376.56	650.67
376.76	655.35
376.95	748.97
377.15	695.14
377.35	702.16
377.54	638.97
377.74	617.90
377.93	690.46
378.13	690.46
378.33	683.44
378.52	650.67
378.72	720.88
378.91	674.07
379.11	730.25
379.31	702.16
379.50	657.69
379.70	711.52
379.89	725.57
380.09	655.35
380.28	699.82
380.48	671.73
380.68	741.95
380.87	730.25
381.07	805.14
381.26	732.59
381.46	695.14
381.65	856.64
381.85	840.25
382.04	802.80
382.24	784.08
382.43	741.95
382.63	765.36
382.83	732.59
383.02	732.59
383.22	826.21
383.41	826.21
383.61	739.61
383.80	854.30
384.00	758.33
384.19	786.42
384.39	795.78
384.58	786.42
384.78	821.53
384.97	828.55
385.17	795.78
385.36	840.25
385.56	793.44
385.75	884.72
385.95	851.96
386.14	873.02
386.34	863.66
386.53	866.00
386.72	863.66
386.92	912.81
387.11	952.60
387.31	910.47
387.50	826.21
387.70	835.57
387.89	821.53
388.09	863.66
388.28	849.61
388.48	875.36
388.67	873.02
388.86	866.00
389.06	917.49
389.25	856.64
389.45	929.19
389.64	875.36
389.84	896.43
390.03	961.96
390.22	954.94
390.42	961.96
390.61	964.30
390.81	917.49
391.00	957.28
391.19	1029.84
391.39	943.24
391.58	1020.47
391.78	936.21
391.97	1064.94
392.16	926.85
392.36	1043.88
392.55	1013.45
392.75	1069.62
392.94	1060.26
393.13	968.98
393.33	1020.47
393.52	1081.33
393.71	1067.28
393.91	997.07
394.10	1081.33
394.29	1015.79
394.49	1048.56
394.68	1118.78
394.88	1153.88
395.07	1109.41
395.26	1165.59
395.46	1125.80
395.65	1149.20
395.84	1167.93
396.04	1158.57
396.23	1179.63
396.42	1191.33
396.62	1163.25
396.81	1160.91
397.00	1188.99
397.19	1123.46
397.39	1219.42
397.58	1196.01
397.77	1097.71
397.97	1200.69
398.16	1254.53
398.35	1322.40
398.55	1226.44
398.74	1221.76
398.93	1263.89
399.12	1224.10
399.32	1273.25
399.51	1263.89
399.70	1331.76
399.90	1284.95
400.09	1303.68
400.28	1317.72
400.47	1366.87
400.67	1493.26
400.86	1404.32
401.05	1406.66
401.24	1376.24
401.44	1406.66
401.63	1327.08
401.82	1404.32
402.01	1432.41
402.21	1397.30
402.40	1397.30
402.59	1460.49
402.78	1432.41
402.97	1437.09
403.17	1514.33
403.36	1507.30
403.55	1523.69
403.74	1600.93
403.93	1488.58
404.13	1493.26
404.32	1495.60
404.51	1558.80
404.70	1633.69
404.89	1511.99
405.09	1607.95
405.28	1675.82
405.47	1619.65
405.66	1636.03
405.85	1645.40
406.05	1689.87
406.24	1699.23
406.43	1650.08
406.62	1685.19
406.81	1739.02
407.00	1750.72
407.20	1792.85
407.39	1666.46
407.58	1902.86
407.77	1781.15
407.96	1778.81
408.15	1914.56
408.34	1846.68
408.54	1799.87
408.73	1844.34
408.92	1872.43
409.11	1884.13
409.30	1888.81
409.49	1909.88
409.68	1863.07
409.87	1905.20
410.07	1973.07
410.26	1975.41
410.45	1998.82
410.64	1937.96
410.83	1977.75
411.02	2069.03
411.21	2099.46
411.40	2097.12
411.59	2115.84
411.78	2188.40
411.98	2073.71
412.17	2139.25
412.36	2136.91
412.55	2188.40
412.74	2246.91
412.93	2235.21
413.12	2284.36
413.31	2324.15
413.50	2275.00
413.69	2422.45
413.88	2352.24
414.07	2415.43
414.26	2232.87
414.45	2363.94
414.64	2429.48
414.83	2530.12
415.02	2485.65
415.22	2551.18
415.41	2483.31
415.60	2466.92
415.79	2693.96
415.98	2663.53
416.17	2633.10
416.36	2518.42
416.55	2703.32
416.74	2733.75
416.93	2668.21
417.12	2675.23
417.31	2708.00
417.50	2829.71
417.69	2902.26
417.88	2888.22
418.07	2675.23
418.26	2911.63
418.45	2942.05
418.64	2991.20
418.83	2885.88
419.02	3002.91
419.21	2984.18
419.39	3019.29
419.58	3068.44
419.77	3009.93
419.96	3068.44
420.15	3087.17
420.34	3021.63
420.53	3035.67
420.72	3082.49
420.91	3045.04
421.10	3021.63
421.29	3112.91
421.48	3112.91
421.67	3075.46
421.86	3133.98
422.05	3243.98
422.24	3192.49
422.43	3253.34
422.61	3251.00
422.80	3265.05
422.99	3281.43
423.18	3318.88
423.37	3241.64
423.56	3234.62
423.75	3145.68
423.94	3229.94
424.13	3110.57
424.32	3204.19
424.50	3302.50
424.69	3349.31
424.88	3328.24
425.07	3185.47
425.26	3286.11
425.45	3332.92
425.64	3258.03
425.83	3309.52
426.01	3456.97
426.20	3368.03
426.39	3335.26
426.58	3290.79
426.77	3293.13
426.96	3335.26
427.15	3461.65
427.33	3471.01
427.52	3337.60
427.71	3407.82
427.90	3595.06
428.09	3426.54
428.28	3550.59
428.46	3501.44
428.65	3435.91
428.84	3641.87
429.03	3798.69
429.22	3564.64
429.40	3583.36
429.59	3716.77
429.78	3555.27
429.97	3536.55
430.16	3754.22
430.34	3850.18
430.53	3735.50
430.72	3684.00
430.91	3754.22
431.10	3803.37
431.28	3801.03
431.47	3868.91
431.66	3936.78
431.85	3815.07
432.03	3845.50
432.22	3777.62
432.41	3896.99
432.60	4021.04
432.79	4025.72
432.97	3999.98
433.16	3983.59
433.35	3810.39
433.54	3988.27
433.72	4102.96
433.91	4007.00
434.10	3985.93
434.28	4035.08
434.47	4032.74
434.66	4081.89
434.85	4194.24
435.03	4128.70
435.22	4168.49
435.41	4203.60
435.59	4231.69
435.78	4149.77
435.97	4337.01
436.16	4135.73
436.34	4222.33
436.53	4332.33
436.72	4241.05
436.90	4173.18
437.09	4337.01
437.28	4355.74
437.46	4355.74
437.65	4414.25
437.84	4634.26
438.02	4325.31
438.21	4367.44
438.40	4411.91
438.58	4596.81
438.77	4552.34
438.96	4500.85
439.14	4592.13
439.33	4657.67
439.52	4793.42
439.70	4784.06
439.89	4695.11
440.08	4683.41
440.26	4798.10
440.45	4802.78
440.63	4833.21
440.82	4943.21
441.01	4889.38
441.19	4945.55
441.38	4980.66
441.57	5109.39
441.75	5032.15
441.94	5107.05
442.12	5301.31
442.31	5146.84
442.50	5238.12
442.68	5231.10
442.87	5266.21
443.05	5308.34
443.24	5462.81
443.43	5296.63
443.61	5322.38
443.80	5575.16
443.98	5296.63
444.17	5020.45
444.35	5210.03
444.54	5437.06
444.73	5404.30
444.91	5298.97
445.10	5451.11
445.28	5432.38
445.47	5329.40
445.65	5343.44
445.84	5570.48
446.02	5453.45
446.21	5371.53
446.39	5364.51
446.58	5593.88
446.77	5621.97
446.95	5551.75
447.14	5605.58
447.32	5708.57
447.51	5659.42
447.69	5619.63
447.88	5565.79
448.06	5547.07
448.25	5568.13
448.43	5703.89
448.62	5614.95
448.80	5460.47
448.99	5523.66
449.17	5568.13
449.36	5680.48
449.54	5720.27
449.73	5706.23
449.91	5935.60
450.10	5813.89
450.28	5877.09
450.46	5860.70
450.65	5837.30
450.83	6022.20
451.02	5837.30
451.20	6097.10
451.39	6040.92
451.57	6083.05
451.76	5928.58
451.94	5996.45
452.13	6080.71
452.31	6169.65
452.49	6026.88
452.68	6033.90
452.86	5998.79
453.05	6033.90
453.23	6214.12
453.42	6029.22
453.60	6038.58
453.78	6235.19
453.97	6136.88
454.15	6052.63
454.34	5991.77
454.52	6293.70
454.70	6258.59
454.89	6279.66
455.07	6338.17
455.26	6359.24
455.44	6459.88
455.62	6464.56
455.81	6319.45
455.99	6483.28
456.17	6408.39
456.36	6384.98
456.54	6429.45
456.73	6693.93
456.91	6759.47
457.09	6712.66
457.28	6810.96
457.46	6640.10
457.64	6871.81
457.83	6806.28
458.01	6679.89
458.19	6815.64
458.38	6815.64
458.56	6850.75
458.74	6885.86
458.93	6939.69
459.11	7073.10
459.29	6773.51
459.48	6832.02
459.66	6965.43
459.84	6855.43
460.03	7185.44
460.21	7045.01
460.39	7068.42
460.57	7070.76
460.76	6967.77
460.94	7183.10
461.12	7213.53
461.31	7197.15
461.49	7267.36
461.67	7295.45
461.85	7304.81
462.04	7379.71
462.22	7798.66
462.40	7468.65
462.59	7241.62
462.77	7316.51
462.95	7508.44
463.13	7463.97
463.32	7449.93
463.50	7576.31
463.68	7857.18
463.86	7758.88
464.05	7548.23
464.23	7705.04
464.41	7599.72
464.59	7442.90
464.78	7859.52
464.96	7716.75
465.14	7595.04
465.32	7756.54
465.50	7840.79
465.69	7859.52
465.87	7971.86
466.05	7768.24
466.23	7705.04
466.41	7719.09
466.60	7960.16
466.78	7789.30
466.96	7822.07
467.14	7927.39
467.32	7864.20
467.51	8086.55
467.69	7964.84
467.87	7934.42
468.05	7990.59
468.23	7997.61
468.41	8124.00
468.60	7929.74
468.78	8353.37
468.96	7995.27
469.14	8175.49
469.32	8482.10
469.50	8210.60
469.69	8416.57
469.87	8353.37
470.05	8456.36
470.23	8507.85
470.41	8564.02
470.59	8454.02
470.77	8603.81
470.95	8542.96
471.14	8613.17
471.32	8526.57
471.50	8662.32
471.68	8601.47
471.86	8674.03
472.04	8638.92
472.22	9046.17
472.40	8891.70
472.58	8751.26
472.77	8868.29
472.95	9048.51
473.13	9495.55
473.31	9011.06
473.49	9060.21
473.67	9001.70
473.85	9151.49
474.03	9137.45
474.21	9291.93
474.39	9441.72
474.57	9228.73
474.75	9437.04
474.93	9661.73
475.12	9586.83
475.30	9614.92
475.48	9528.32
475.66	9757.69
475.84	9802.16
476.02	9727.27
476.20	9886.42
476.38	9982.38
476.56	10160.27
476.74	10153.24
476.92	9989.41
477.10	10127.50
477.28	10150.90
477.46	10317.08
477.64	10335.81
477.82	10537.09
478.00	10759.44
478.18	10604.97
478.36	10693.91
478.54	10981.79
478.72	10888.17
478.90	11023.92
479.08	11332.87
479.26	11318.83
479.44	11152.65
479.62	11119.89
479.80	11309.47
479.98	11302.45
480.16	11789.28
480.34	11538.84
480.52	11569.27
480.70	11604.38
480.88	11527.14
481.06	12086.53
481.24	12215.26
481.41	12086.53
481.59	12348.67
481.77	12208.23
481.95	12655.28
482.13	12421.22
482.31	12449.31
482.49	12765.28
482.67	12945.50
482.85	12709.11
483.03	13125.72
483.21	13018.06
483.39	13310.63
483.57	12924.44
483.74	13350.42
483.92	13544.68
484.10	13535.32
484.28	13760.01
484.46	13713.20
484.64	14038.53
484.82	13851.29
485.00	13994.06
485.18	14394.29
485.35	14441.11
485.53	14197.69
485.71	14478.55
485.89	14539.41
486.07	14752.40
486.25	14801.55
486.43	14995.81
486.61	14927.94
486.78	15028.58
486.96	15213.48
487.14	15555.20
487.32	15590.31
487.50	15559.88
487.68	15793.94
487.85	16074.80
488.03	16276.09
488.21	16194.17
488.39	16086.50
488.57	16613.12
488.75	16507.80
488.92	16531.20
489.10	16819.09
489.28	16926.75
489.46	16856.54
489.64	16980.59
489.81	17170.17
489.99	17198.26
490.17	17312.94
490.35	17954.25
490.53	17827.86
490.70	17914.46
490.88	17998.72
491.06	18211.71
491.24	18272.56
491.41	18216.39
491.59	18520.66
491.77	18586.19
491.95	18373.21
492.13	18515.98
492.30	18803.86
492.48	18759.39
492.66	18958.34
492.84	19147.92
493.01	19417.08
493.19	19286.01
493.37	19672.20
493.54	19880.51
493.72	19623.05
493.90	19606.67
494.08	19875.83
494.25	19777.53
494.43	20379.04
494.61	20475.01
494.79	20283.08
494.96	20465.64
495.14	20458.62
495.32	20790.98
495.49	20879.92
495.67	21008.65
495.85	20929.07
496.02	20943.11
496.20	21174.83
496.38	21472.07
496.55	21128.02
496.73	21961.25
496.91	21486.12
497.09	22019.76
497.26	21792.73
497.44	21825.50
497.62	22169.55
497.79	22558.08
497.97	22279.56
498.14	22342.75
498.32	22497.23
498.50	22813.20
498.67	23283.65
498.85	22838.95
499.03	23105.77
499.20	23201.73
499.38	23232.16
499.56	23496.64
499.73	23227.48
499.91	23477.91
500.08	23524.72
500.26	23405.36
500.44	23768.14
500.61	23718.99
500.79	23770.48
500.97	24002.19
501.14	24121.56
501.32	24283.06
501.49	24526.47
501.67	23999.85
501.84	24519.45
502.02	24313.48
502.20	24538.18
502.37	24610.73
502.55	24929.05
502.72	24694.99
502.90	24847.13
503.07	24774.57
503.25	24964.15
503.43	24924.36
503.60	25193.53
503.78	25355.02
503.95	25207.57
504.13	25270.76
504.30	25560.99
504.48	25565.67
504.65	25855.90
504.83	25577.37
505.01	25930.80
505.18	25972.92
505.36	26286.56
505.53	26068.89
505.71	26249.11
505.88	26298.26
506.06	26286.56
506.23	26150.81
506.41	26391.88
506.58	26111.02
506.76	26731.26
506.93	26834.24
507.11	26932.54
507.28	26817.86
507.46	26719.56
507.63	26895.10
507.81	27180.64
507.98	26845.94
508.16	27346.82
508.33	27159.58
508.50	27569.17
508.68	27665.13
508.85	27917.91
509.03	27496.61
509.20	27896.85
509.38	27866.42
509.55	27711.94
509.73	27929.61
509.90	28606.03
510.08	28411.76
510.25	27983.44
510.42	28140.26
510.60	28439.85
510.77	29041.37
510.95	28657.52
511.12	28432.83
511.30	28713.69
511.47	28809.65
511.64	28907.96
511.82	28933.70
511.99	28929.02
512.17	29427.56
512.34	28837.74
512.51	29544.58
512.69	29649.91
512.86	29535.22
513.04	29575.01
513.21	29937.79
513.38	29605.44
513.56	29617.14
513.73	29706.08
513.90	30015.03
514.08	29837.15
514.25	30291.21
514.43	30323.98
514.60	30433.99
514.77	29942.47
514.95	30600.16
515.12	30389.52
515.29	30347.39
515.47	30462.07
515.64	30749.96
515.81	30567.40
515.99	31028.48
516.16	30735.92
516.33	31065.93
516.51	31346.79
516.68	30721.87
516.85	31409.99
517.03	31335.09
517.20	31438.08
517.37	31491.91
517.54	31414.67
517.72	31288.28
517.89	31728.30
518.06	31529.36
518.24	31571.49
518.41	31398.29
518.58	31676.81
518.75	31665.11
518.93	32046.62
519.10	31969.38
519.27	31718.94
519.45	32060.66
519.62	32306.41
519.79	32165.98
519.96	32407.06
520.14	32601.32
520.31	32203.43
520.48	32577.92
520.65	32456.21
520.83	32608.34
521.00	33287.10
521.17	32741.75
521.34	33315.19
521.52	32720.69
521.69	32868.14
521.86	33237.95
522.03	32975.81
522.20	33706.05
522.38	33717.76
522.55	33689.67
522.72	33235.61
522.89	33511.79
523.07	33696.69
523.24	33731.80
523.41	34075.86
523.58	33888.62
523.75	34188.21
523.92	33432.21
524.10	34096.92
524.27	33984.58
524.44	34279.49
524.61	34314.59
524.78	34120.33
524.96	34433.96
525.13	34295.87
525.30	34597.80
525.47	34534.60
525.64	34623.54
525.81	34602.48
525.98	35030.80
526.16	34677.38
526.33	34848.24
526.50	35051.86
526.67	34593.12
526.84	34918.45
527.01	35360.81
527.18	35101.01
527.36	35194.64
527.53	35323.36
527.70	35227.40
527.87	35613.59
528.04	35683.81
528.21	35620.61
528.38	35662.74
528.55	35611.25
528.72	35019.10
528.89	35557.42
529.07	35985.74
529.24	35512.95
529.41	36088.72
529.58	36133.19
529.75	35929.56
529.92	36112.13
530.09	36046.59
530.26	35915.52
530.43	36275.96
530.60	35976.37
530.77	36435.12
530.94	36369.58
531.11	36510.02
531.28	36107.44
531.46	36470.23
531.63	36603.64
531.80	36900.89
531.97	36727.69
532.14	36720.66
532.31	36685.56
532.48	37205.16
532.65	36758.11
532.82	36636.41
532.99	36811.95
533.16	37134.94
533.33	37144.30
533.50	37207.50
533.67	37165.37
533.84	37139.62
534.01	36980.46
534.18	37397.08
534.35	37832.42
534.52	37340.91
534.69	37865.19
534.86	37820.72
535.03	37605.39
535.20	37471.98
535.37	37914.34
535.54	37963.49
535.71	37661.56
535.88	38342.66
536.05	37897.95
536.22	38394.15
536.38	38115.62
536.55	37818.38
536.72	37591.34
536.89	38204.56
537.06	37991.58
537.23	38562.67
537.40	37942.42
537.57	37879.23
537.74	37914.34
537.91	38677.35
538.08	38469.04
538.25	38244.35
538.42	38494.79
538.59	38637.56
538.75	38382.45
538.92	38873.96
539.09	38841.19
539.26	39014.39
539.43	38611.82
539.60	39122.05
539.77	38880.98
539.94	39019.07
540.11	38976.94
540.28	39115.03
540.44	38937.15
540.61	38845.87
540.78	38883.32
540.95	39082.27
541.12	38843.53
541.29	39108.01
541.46	39412.28
541.62	39147.80
541.79	39875.71
541.96	39187.59
542.13	39328.02
542.30	39697.83
542.47	39814.85
542.63	39599.52
542.80	40163.59
542.97	40224.45
543.14	40210.40
543.31	39950.60
543.48	39775.06
543.64	40423.39
543.81	40538.08
543.98	40018.48
544.15	40112.10
544.32	40509.99
544.48	40999.16
544.65	40453.82
544.82	40594.25
544.99	40563.82
545.16	40568.51
545.32	40788.52
545.49	40575.53
545.66	40790.86
545.83	40762.77
546.00	40643.40
546.16	41233.22
546.33	40690.21
546.50	40645.74
546.67	41207.47
546.83	40289.98
547.00	41177.04
547.17	40531.06
547.34	40762.77
547.50	41273.01
547.67	41596.00
547.84	40893.84
548.00	41483.66
548.17	41448.55
548.34	41703.67
548.51	41614.72
548.67	41563.23
548.84	41553.87
549.01	41427.48
549.18	41418.12
549.34	41755.16
549.51	41654.51
549.68	41277.69
549.84	41411.10
550.01	41427.48
550.18	41406.42
550.34	41490.68
550.51	41736.43
550.68	41567.91
550.84	41619.41
551.01	42164.75
551.18	41883.89
551.34	41846.44
551.51	41916.65
551.68	41883.89
551.84	41977.51
552.01	41921.34
552.18	41979.85
552.34	42120.28
552.51	42684.35
552.68	42094.53
552.84	42258.37
553.01	42415.19
553.18	42120.28
553.34	42534.56
553.51	42073.47
553.67	42333.27
553.84	42763.93
554.01	42670.31
554.17	42120.28
554.34	42623.50
554.51	42831.80
554.67	42880.95
554.84	43122.03
555.00	42305.18
555.17	42623.50
555.33	42843.51
555.50	43026.07
555.67	43084.58
555.83	43243.74
556.00	42941.81
556.16	43086.92
556.33	43320.98
556.50	43005.00
556.66	43316.29
556.83	42689.03
556.99	42946.49
557.16	43709.50
557.32	43618.22
557.49	43679.08
557.65	42871.59
557.82	43459.07
557.98	43229.69
558.15	43538.65
558.32	43276.51
558.48	43299.91
558.65	43538.65
558.81	43751.63
558.98	43423.96
559.14	43573.75
559.31	43550.35
559.47	43353.74
559.64	43620.56
559.80	43365.45
559.97	44011.43
560.13	43540.99
560.30	43887.39
560.46	43592.48
560.63	43475.45
560.79	43695.46
560.96	44023.14
561.12	43920.15
561.29	43990.37
561.45	43761.00
561.61	43873.34
561.78	44044.20
561.94	44069.95
562.11	43576.09
562.27	43971.64
562.44	44098.03
562.60	44034.84
562.77	43859.30
562.93	43976.33
563.10	44023.14
563.26	43871.00
563.42	44634.02
563.59	43871.00
563.75	43791.42
563.92	43990.37
564.08	44341.45
564.24	44495.92
564.41	43786.74
564.57	44182.29
564.74	43875.68
564.90	44051.22
565.07	43983.35
565.23	44245.49
565.39	44519.33
565.56	44212.72
565.72	44460.82
565.88	44133.14
566.05	44252.51
566.21	44467.84
566.38	44102.71
566.54	44449.11
566.70	44184.63
566.87	44566.14
567.03	44369.54
567.19	44409.32
567.36	44889.13
567.52	44128.46
567.68	44488.90
567.85	44830.62
568.01	44957.01
568.17	44348.47
568.34	45216.81
568.50	44769.77
568.66	44849.35
568.83	44612.95
568.99	44521.67
569.15	44942.97
569.32	44701.89
569.48	44669.12
569.64	44896.16
569.81	44456.14
569.97	44893.82
570.13	44886.79
570.30	44823.60
570.46	44861.05
570.62	44687.85
570.78	44594.23
570.95	45071.70
571.11	45354.90
571.27	44680.83
571.43	44463.16
571.60	44657.42
571.76	44711.25
571.92	45158.30
572.09	44825.94
572.25	44823.60
572.41	44748.70
572.57	44931.26
572.74	45425.12
572.90	44615.29
573.06	45006.16
573.22	44886.79
573.38	44729.98
573.55	45038.93
573.71	45069.36
573.87	45366.60
574.03	45027.23
574.20	45233.19
574.36	45467.25
574.52	45530.44
574.68	44928.92
574.84	45397.03
575.01	45385.33
575.17	45478.95
575.33	44952.33
575.49	45184.04
575.65	45270.64
575.82	45160.64
575.98	45081.06
576.14	45041.27
576.30	45397.03
576.46	45052.97
576.62	44807.22
576.79	45081.06
576.95	44685.51
577.11	45090.42
577.27	45425.12
577.43	45036.59
577.59	45469.59
577.75	44935.95
577.92	45024.89
578.08	45565.55
578.24	45315.11
578.40	45289.37
578.56	45350.22
578.72	45392.35
578.88	45329.16
579.04	44980.42
579.21	45373.63
579.37	45272.98
579.53	45106.80
579.69	45186.38
579.85	44978.07
580.01	45656.83
580.17	45343.20
580.33	45717.68
580.49	45483.63
580.65	45902.59
580.82	45539.80
580.98	45034.25
581.14	45301.07
581.30	45500.01
581.46	45397.03
581.62	45223.83
581.78	45277.66
581.94	45392.35
582.10	45230.85
582.26	45722.37
582.42	45469.59
582.58	45036.59
582.74	45333.84
582.90	45500.01
583.06	45408.73
583.22	45017.86
583.38	45455.54
583.54	45436.82
583.70	45380.65
583.86	45242.56
584.02	45132.55
584.18	45834.71
584.34	45469.59
584.50	45804.28
584.66	45537.46
584.82	45560.87
584.98	46138.98
585.14	45769.18
585.30	45507.04
585.46	45961.10
585.62	45443.84
585.78	45944.72
585.94	45151.27
586.10	45893.22
586.26	45375.97
586.42	45511.72
586.58	45701.30
586.74	45109.14
586.90	45958.76
587.06	45432.14
587.22	45614.70
587.38	45265.96
587.54	45139.57
587.70	45876.84
587.86	45420.44
588.02	45600.66
588.18	45635.77
588.34	45790.24
588.49	45808.96
588.65	45401.71
588.81	45647.47
588.97	45741.09
589.13	45989.19
589.29	45551.51
589.45	45886.20
589.61	45490.65
589.77	46026.63
589.93	46087.49
590.08	45787.90
590.24	46436.23
590.40	45918.97
590.56	46192.81
590.72	46305.16
590.88	45549.17
591.04	45855.78
591.20	46295.80
591.35	46146.00
591.51	46190.47
591.67	46382.40
591.83	45860.46
591.99	45961.10
592.15	45698.96
592.31	46382.40
592.46	45722.37
592.62	46017.27
592.78	45904.93
592.94	46230.26
593.10	46447.93
593.26	46562.62
593.41	46391.76
593.57	46298.14
593.73	46328.56
593.89	46595.38
594.05	46312.18
594.20	46628.15
594.36	46653.90
594.52	45914.29
594.68	46146.00
594.84	46155.36
594.99	46600.07
595.15	46106.21
595.31	46244.30
595.47	46246.65
595.62	46007.91
595.78	46337.93
595.94	46429.21
596.10	46307.50
596.25	46440.91
596.41	46656.24
596.57	46358.99
596.73	46483.04
596.88	46504.10
597.04	46478.36
597.20	46141.32
597.36	46574.32
597.51	46274.73
597.67	46679.64
597.83	46124.94
597.99	46562.62
598.14	46305.16
598.30	46356.65
598.46	46078.13
598.61	46672.62
598.77	46548.57
598.93	46384.74
599.09	46288.77
599.24	46866.89
599.40	46279.41
599.56	46101.53
599.71	46443.25
599.87	47009.66
600.03	46663.26
600.18	46534.53
600.34	46499.42
600.50	46609.43
600.65	46012.59
600.81	46824.76
600.97	46930.08
601.12	46415.16
601.28	46426.87
601.44	46354.31
601.59	46747.52
601.75	46499.42
601.91	46459.63
602.06	46632.83
602.22	46579.00
602.37	46447.93
602.53	46546.23
602.69	46513.47
602.84	46340.27
603.00	46389.42
603.16	46473.68
603.31	46047.70
603.47	46520.49
603.62	46082.81
603.78	46433.89
603.94	46218.56
604.09	46478.36
604.25	46550.91
604.40	46347.29
604.56	46424.53
604.71	46417.50
604.87	46295.80
605.03	46485.38
605.18	46412.82
605.34	46703.05
605.49	46150.68
605.65	46440.91
605.80	46253.67
605.96	46529.85
606.12	46120.26
606.27	46799.01
606.43	46045.36
606.58	46799.01
606.74	46284.09
606.89	46567.30
607.05	46473.68
607.20	46183.45
607.36	46326.22
607.51	46164.73
607.67	46005.57
607.82	46347.29
607.98	46454.95
608.13	46068.76
608.29	46480.70
608.44	46391.76
608.60	46377.72
608.75	46539.21
608.91	46368.35
609.06	45986.85
609.22	46192.81
609.37	46106.21
609.53	46300.48
609.68	46389.42
609.84	46384.74
609.99	46209.20
610.15	46309.84
610.30	46087.49
610.46	46066.42
610.61	46307.50
610.76	45698.96
610.92	45682.58
611.07	45827.69
611.23	45855.78
611.38	46351.97
611.54	46218.56
611.69	46246.65
611.84	46218.56
612.00	46164.73
612.15	45818.33
612.31	45846.41
612.46	45799.60
612.62	45588.95
612.77	46038.34
612.92	46265.37
613.08	45958.76
613.23	45968.12
613.39	45766.84
613.54	45607.68
613.69	46019.61
613.85	45839.39
614.00	45881.52
614.15	45773.86
614.31	45446.18
614.46	45841.73
614.62	46071.10
614.77	45642.79
614.92	46043.02
615.08	45654.49
615.23	45865.14
615.38	45923.65
615.54	45595.98
615.69	45825.35
615.84	45469.59
616.00	46082.81
616.15	45558.53
616.30	45310.43
616.46	45338.52
616.61	45148.93
616.76	45511.72
616.92	45521.08
617.07	45476.61
617.22	45102.12
617.37	44933.60
617.53	45483.63
617.68	45385.33
617.83	45254.26
617.99	45195.74
618.14	45542.14
618.29	45574.91
618.45	44844.66
618.60	45071.70
618.75	44804.88
618.90	44898.50
619.06	45270.64
619.21	45375.97
619.36	45188.72
619.51	45205.11
619.67	44954.67
619.82	45549.17
619.97	45029.57
620.12	44711.25
620.28	45001.48
620.43	45083.40
620.58	45460.23
620.73	45310.43
620.89	45099.78
621.04	45394.69
621.19	44886.79
621.34	44935.95
621.49	45127.87
621.65	44690.19
621.80	45170.00
621.95	45223.83
622.10	45059.99
622.25	44933.60
622.41	44800.19
622.56	44758.06
622.71	44982.76
622.86	44746.36
623.01	45184.04
623.16	44783.81
623.32	44961.69
623.47	45071.70
623.62	44451.45
623.77	44854.03
623.92	44573.16
624.07	44556.78
624.23	44666.78
624.38	44823.60
624.53	44465.50
624.68	44683.17
624.83	44392.94
624.98	44704.23
625.13	44301.66
625.29	44041.86
625.44	44676.15
625.59	44486.56
625.74	44659.76
625.89	44126.12
626.04	44186.97
626.19	44154.21
626.34	44280.60
626.49	44046.54
626.65	44067.61
626.80	44076.97
626.95	43796.10
627.10	43660.35
627.25	44046.54
627.40	44245.49
627.55	43873.34
627.70	43873.34
627.85	44465.50
628.00	43899.09
628.15	44224.42
628.30	43611.20
628.45	43847.60
628.60	43494.18
628.76	43852.28
628.91	43693.12
629.06	43482.47
629.21	43629.93
629.36	43372.47
629.51	43599.50
629.66	43648.65
629.81	43782.06
629.96	43929.51
630.11	43929.51
630.26	43585.46
630.41	43491.83
630.56	43416.94
630.71	43686.10
630.86	43707.16
631.01	43178.20
631.16	43154.80
631.31	43597.16
631.46	43304.59
631.61	43835.89
631.76	43613.54
631.91	43325.66
632.06	43831.21
632.21	43686.10
632.36	43320.98
632.51	43056.50
632.66	43138.41
632.81	42918.40
632.96	43339.70
633.10	42794.36
633.25	43093.94
633.40	42775.63
633.55	42822.44
633.70	43194.59
633.85	43030.75
634.00	43138.41
634.15	42707.76
634.30	43295.23
634.45	43019.05
634.60	43012.02
634.75	42693.71
634.90	43271.82
635.05	43161.82
635.19	42682.01
635.34	42824.78
635.49	42829.46
635.64	42857.55
635.79	42995.64
635.94	42712.44
636.09	42897.34
636.24	42775.63
636.39	42368.38
636.53	42792.01
636.68	42572.00
636.83	42026.66
636.98	42450.30
637.13	41897.93
637.28	42550.94
637.43	42471.36
637.57	42738.18
637.72	41762.18
637.87	42408.17
638.02	42251.35
638.17	42986.28
638.32	42059.43
638.46	41670.90
638.61	41839.42
638.76	42040.70
638.91	42377.74
639.06	41986.87
639.20	41776.22
639.35	42232.63
639.50	41790.27
639.65	41708.35
639.80	42223.26
639.94	42108.58
640.09	42319.23
640.24	41811.33
640.39	41888.57
640.54	41368.97
640.68	42007.94
640.83	42307.52
640.98	41848.78
641.13	41956.44
641.27	41874.52
641.42	41350.24
641.57	41521.10
641.72	41696.64
641.86	41603.02
642.01	41200.45
642.16	41493.02
642.31	41467.27
642.45	41874.52
642.60	40989.80
642.75	41567.91
642.90	41785.58
643.04	41336.20
643.19	41600.68
643.34	41146.62
643.48	41027.25
643.63	41462.59
643.78	41069.38
643.93	41715.37
644.07	41593.66
644.22	41284.71
644.37	41099.81
644.51	41205.13
644.66	41067.04
644.81	40994.48
644.95	41303.43
645.10	41270.67
645.25	40886.82
645.39	40755.75
645.54	41041.29
645.69	40746.39
645.83	41015.55
645.98	41022.57
646.13	40954.69
646.27	40907.88
646.42	40332.11
646.57	41125.55
646.71	41265.99
646.86	40980.44
647.00	40964.06
647.15	40921.93
647.30	40472.54
647.44	40727.66
647.59	40517.01
647.74	40528.72
647.88	40666.81
648.03	40989.80
648.17	40898.52
648.32	40935.97
648.47	40994.48
648.61	40224.45
648.76	40474.88
648.90	40311.05
649.05	40671.49
649.20	40559.14
649.34	40601.27
649.49	40760.43
649.63	40830.65
649.78	40512.33
649.92	40306.37
650.07	40706.60
650.21	40685.53
650.36	40573.19
650.51	40329.77
650.65	40304.02
650.80	40774.47
650.94	40411.69
651.09	40128.48
651.23	40137.85
651.38	39775.06
651.52	39782.09
651.67	40165.93
651.81	40601.27
651.96	40079.33
652.10	39908.47
652.25	39868.69
652.39	39913.16
652.54	39789.11
652.68	39817.19
652.83	40407.01
652.97	40264.24
653.12	39714.21
653.26	39374.83
653.41	40381.26
653.55	39910.82
653.70	39889.75
653.84	40341.47
653.99	40037.20
654.13	39594.84
654.27	39543.35
654.42	39555.05
654.56	39108.01
654.71	39714.21
654.85	39342.06
655.00	39833.58
655.14	39669.74
655.29	39714.21
655.43	39929.54
655.57	39592.50
655.72	39421.64
655.86	39438.03
656.01	39440.37
656.15	39398.24
656.30	39208.65
656.44	39503.56
656.58	39597.18
656.73	39213.34
656.87	38569.69
657.01	39005.03
657.16	39075.24
657.30	39257.81
657.45	38939.49
657.59	38780.34
657.73	38609.48
657.88	38965.24
658.02	39154.82
658.16	39480.16
658.31	39358.45
658.45	38733.53
658.60	38766.29
658.74	38623.52
658.88	38859.91
659.03	38560.33
659.17	38843.53
659.31	38373.08
659.46	38302.87
659.60	38649.27
659.74	38153.07
659.89	37853.48
660.03	38291.16
660.17	38153.07
660.32	38438.62
660.46	38139.03
660.60	37853.48
660.74	38092.22
660.89	38199.88
661.03	38045.41
661.17	37354.95
661.32	37294.10
661.46	37888.59
661.60	37766.88
661.74	37940.08
661.89	37816.04
662.03	37701.35
662.17	37549.21
662.31	37280.05
662.46	37869.87
662.60	37860.51
662.74	37567.94
662.88	37244.94
663.03	36959.40
663.17	37518.79
663.31	37195.79
663.45	37177.07
663.60	37736.46
663.74	37242.60
663.88	37038.98
664.02	37008.55
664.17	37460.27
664.31	36830.67
664.45	36685.56
664.59	36935.99
664.73	37071.75
664.88	37034.30
665.02	36458.52
665.16	36758.11
665.30	36622.36
665.44	36854.08
665.59	36116.81
665.73	36144.89
665.87	36018.50
666.01	36320.43
666.15	36734.71
666.29	36505.34
666.44	36500.65
666.58	36025.53
666.72	36201.07
666.86	36254.90
667.00	36128.51
667.14	35538.69
667.28	35405.28
667.43	35526.99
667.57	35648.70
667.71	35714.23
667.85	35938.93
667.99	35924.88
668.13	35739.98
668.27	35550.40
668.41	35288.26
668.56	34621.20
668.70	35316.34
668.84	34653.97
668.98	34845.90
669.12	35044.84
669.26	34983.99
669.40	35084.63
669.54	35058.88
669.68	35101.01
669.82	34981.65
669.96	34747.59
670.10	34504.18
670.25	34459.71
670.39	34653.97
670.53	34703.12
670.67	34693.76
670.81	35129.10
670.95	34515.88
671.09	34230.33
671.23	34321.62
671.37	34092.24
671.51	34176.50
671.65	34024.37
671.79	33797.34
671.93	33755.21
672.07	34052.45
672.21	34242.04
672.35	33488.38
672.49	33872.23
672.63	33635.84
672.77	33579.67
672.91	33628.82
673.05	33354.97
673.19	33088.15
673.33	32814.31
673.47	33053.05
673.61	33156.03
673.75	32542.81
673.89	32161.30
674.03	32208.11
674.17	32807.29
674.31	32748.78
674.45	32577.92
674.59	32737.07
674.73	32531.11
674.87	32081.72
675.01	32264.28
675.15	31709.58
675.29	31981.08
675.43	32233.86
675.56	31922.57
675.70	31969.38
675.84	31620.64
675.98	30766.34
676.12	31627.66
676.26	31601.91
676.40	31639.36
676.54	31386.58
676.68	31028.48
676.82	30820.17
676.96	31517.65
677.10	31103.38
677.23	30993.37
677.37	30998.06
677.51	30916.14
677.65	30850.60
677.79	30480.80
677.93	30574.42
678.07	30546.33
678.21	30155.46
678.34	29816.08
678.48	30099.29
678.62	30113.33
678.76	29565.65
678.90	29736.51
679.04	29656.93
679.18	30096.95
679.31	29652.25
679.45	29373.72
679.59	29308.19
679.73	29460.32
679.87	29130.31
680.00	29277.76
680.14	29284.78
680.28	29109.24
680.42	28659.86
680.56	28554.54
680.70	28648.16
680.83	28006.85
680.97	28510.07
681.11	28353.25
681.25	28301.76
681.39	27936.63
681.52	28116.86
681.66	27548.11
681.80	27517.68
681.94	27508.32
682.07	27917.91
682.21	27637.05
682.35	27498.95
682.49	27477.89
682.62	27468.53
682.76	27215.75
682.90	27468.53
683.04	27260.22
683.17	26899.78
683.31	26649.34
683.45	26618.91
683.59	26541.68
683.72	26260.81
683.86	26515.93
684.00	26221.02
684.13	26291.24
684.27	26288.90
684.41	26022.08
684.55	26279.54
684.68	26001.01
684.82	25893.35
684.96	25743.55
685.09	25827.81
685.23	25713.13
685.37	25790.36
685.50	25722.49
685.64	25390.13
685.78	25582.06
685.91	24973.52
686.05	24687.97
686.19	24510.09
686.32	24673.93
686.46	24250.29
686.60	24470.30
686.73	24652.86
686.87	24383.70
687.01	24149.65
687.14	24477.32
687.28	24123.90
687.42	24517.11
687.55	23913.25
687.69	24084.11
687.82	23527.06
687.96	23651.11
688.10	23538.77
688.23	23903.89
688.37	23487.28
688.50	23920.28
688.64	23662.82
688.78	23473.23
688.91	23262.58
689.05	23122.15
689.18	22923.21
689.32	22644.68
689.46	22808.52
689.59	22513.61
689.73	22707.88
689.86	22410.63
690.00	22544.04
690.13	22625.96
690.27	22480.85
690.41	22525.32
690.54	22183.60
690.68	21968.27
690.81	21696.77
690.95	21664.00
691.08	21818.47
691.22	21799.75
691.35	21245.04
691.49	21561.02
691.62	21647.61
691.76	21266.11
691.89	21139.72
692.03	20723.10
692.16	20975.88
692.30	20931.41
692.43	20695.02
692.57	20608.42
692.70	20732.47
692.84	20563.95
692.97	20402.45
693.11	20212.87
693.24	20102.86
693.38	20301.81
693.51	20229.25
693.65	20161.37
693.78	19861.79
693.92	19758.80
694.05	19950.73
694.19	19800.93
694.32	19728.38
694.45	19583.26
694.59	19962.43
694.72	19440.49
694.86	19573.90
694.99	19192.39
695.13	19073.03
695.26	18998.13
695.39	18803.86
695.53	18663.43
695.66	19026.21
695.80	18878.76
695.93	18504.28
696.07	18349.80
696.20	18483.21
696.33	18097.02
696.47	18167.24
696.60	18047.87
696.73	18221.07
696.87	18246.82
697.00	18232.77
697.14	17715.51
697.27	17914.46
697.40	17589.13
697.54	17586.79
697.67	17647.64
697.80	17528.27
697.94	17408.90
698.07	17399.54
698.21	17436.99
698.34	17242.73
698.47	17132.72
698.61	16699.72
698.74	16807.39
698.87	16872.92
699.01	16505.46
699.14	16531.20
699.27	16479.71
699.40	16561.63
699.54	16334.60
699.67	16542.91
699.80	16683.34
699.94	16135.65
700.07	16421.20
700.20	15946.07
700.34	15901.60
700.47	15896.92
700.60	16255.02
700.73	15964.79
700.87	15735.42
701.00	15637.12
701.13	15543.50
701.26	15583.29
701.40	15269.66
701.53	15264.97
701.66	15152.63
701.79	15044.96
701.93	14703.25
702.06	14593.24
702.19	14750.06
702.32	15094.11
702.46	14850.70
702.59	15030.92
702.72	14951.34
702.85	14867.08
702.99	14855.38
703.12	14728.99
703.25	14270.25
703.38	14295.99
703.51	14141.52
703.65	14031.51
703.78	13834.91
703.91	14008.11
704.04	13977.68
704.17	13671.07
704.31	13650.00
704.44	13905.12
704.57	13738.94
704.70	13958.96
704.83	13486.17
704.96	13289.56
705.10	13373.82
705.23	13165.51
>>>>>End Processed Spectral Data<<<<<
