SpectraSuite Data File
++++++++++++++++++++++++++++++++++++
Date: Fri Oct 25 10:47:28 EDT 2013
User: price-jones
Dark Spectrum Present: No
Reference Spectrum Present: No
Number of Sampled Component Spectra: 1
Spectrometers: USB2+H05261
Integration Time (usec): 100000 (USB2+H05261)
Spectra Averaged: 1 (USB2+H05261)
Boxcar Smoothing: 0 (USB2+H05261)
Correct for Electrical Dark: No (USB2+H05261)
Strobe/Lamp Enabled: No (USB2+H05261)
Correct for Detector Non-linearity: No (USB2+H05261)
Correct for Stray Light: No (USB2+H05261)
Number of Pixels in Processed Spectrum: 2048
>>>>>Begin Processed Spectral Data<<<<<
365.73	128.73
365.92	128.73
366.12	128.73
366.32	28.09
366.52	39.79
366.72	44.47
366.91	60.85
367.11	53.83
367.31	53.83
367.51	91.28
367.70	0.00
367.90	51.49
368.10	35.11
368.30	112.35
368.49	65.54
368.69	102.98
368.89	107.66
369.09	53.83
369.28	93.62
369.48	9.36
369.68	14.04
369.87	142.77
370.07	112.35
370.27	156.82
370.47	140.43
370.66	388.53
370.86	376.83
371.06	393.21
371.25	461.09
371.45	435.34
371.65	486.83
371.84	454.06
372.04	472.79
372.24	463.43
372.44	407.25
372.63	425.98
372.83	472.79
373.03	475.13
373.22	535.98
373.42	449.38
373.62	496.19
373.81	550.03
374.01	435.34
374.21	540.66
374.40	507.90
374.60	484.49
374.79	500.87
374.99	578.11
375.19	540.66
375.38	550.03
375.58	540.66
375.78	676.41
375.97	601.52
376.17	615.56
376.37	521.94
376.56	592.16
376.76	526.62
376.95	510.24
377.15	533.64
377.35	580.45
377.54	657.69
377.74	596.84
377.93	594.50
378.13	528.96
378.33	594.50
378.52	557.05
378.72	585.13
378.91	629.60
379.11	528.96
379.31	543.00
379.50	601.52
379.70	599.18
379.89	620.24
380.09	601.52
380.28	564.07
380.48	648.33
380.68	617.90
380.87	608.54
381.07	655.35
381.26	688.12
381.46	645.99
381.65	695.14
381.85	751.31
382.04	617.90
382.24	645.99
382.43	622.58
382.63	645.99
382.83	636.63
383.02	657.69
383.22	791.10
383.41	744.29
383.61	751.31
383.80	748.97
384.00	695.14
384.19	706.84
384.39	681.10
384.58	638.97
384.78	723.23
384.97	765.36
385.17	737.27
385.36	746.63
385.56	704.50
385.75	744.29
385.95	772.38
386.14	748.97
386.34	709.18
386.53	763.01
386.72	798.12
386.92	781.74
387.11	772.38
387.31	828.55
387.50	748.97
387.70	830.89
387.89	880.04
388.09	802.80
388.28	807.48
388.48	819.19
388.67	830.89
388.86	858.98
389.06	777.06
389.25	947.92
389.45	828.55
389.64	861.32
389.84	912.81
390.03	931.53
390.22	931.53
390.42	858.98
390.61	973.66
390.81	877.70
391.00	833.23
391.19	924.51
391.39	945.58
391.58	924.51
391.78	898.77
391.97	1004.09
392.16	945.58
392.36	1111.75
392.55	1039.20
392.75	950.26
392.94	1001.75
393.13	954.94
393.33	968.98
393.52	1029.84
393.71	1074.31
393.91	1029.84
394.10	1055.58
394.29	1013.45
394.49	1006.43
394.68	1104.73
394.88	1102.39
395.07	1081.33
395.26	1100.05
395.46	1121.12
395.65	1125.80
395.84	1146.86
396.04	1207.72
396.23	1128.14
396.42	1125.80
396.62	1114.10
396.81	1149.20
397.00	1207.72
397.19	1172.61
397.39	1179.63
397.58	1125.80
397.77	1233.46
397.97	1242.82
398.16	1172.61
398.35	1259.21
398.55	1259.21
398.74	1287.29
398.93	1320.06
399.12	1329.42
399.32	1329.42
399.51	1268.57
399.70	1308.36
399.90	1289.64
400.09	1385.60
400.28	1329.42
400.47	1427.73
400.67	1458.15
400.86	1409.00
401.05	1472.20
401.24	1446.45
401.44	1432.41
401.63	1348.15
401.82	1460.49
402.01	1462.83
402.21	1392.62
402.40	1549.43
402.59	1509.65
402.78	1488.58
402.97	1547.09
403.17	1528.37
403.36	1497.94
403.55	1586.88
403.74	1575.18
403.93	1610.29
404.13	1600.93
404.32	1575.18
404.51	1605.61
404.70	1565.82
404.89	1664.12
405.09	1715.61
405.28	1689.87
405.47	1619.65
405.66	1699.23
405.85	1694.55
406.05	1783.49
406.24	1729.66
406.43	1722.63
406.62	1666.46
406.81	1722.63
407.00	1746.04
407.20	1832.64
407.39	1788.17
407.58	1813.92
407.77	1884.13
407.96	1912.22
408.15	1994.14
408.34	1865.41
408.54	1900.52
408.73	1947.33
408.92	1998.82
409.11	2064.35
409.30	1949.67
409.49	1935.62
409.68	1984.77
409.87	2005.84
410.07	2085.42
410.26	1954.35
410.45	2010.52
410.64	2155.63
410.83	2118.18
411.02	2275.00
411.21	2167.34
411.40	2284.36
411.59	2204.78
411.78	2298.41
411.98	2165.00
412.17	2359.26
412.36	2223.51
412.55	2256.28
412.74	2466.92
412.93	2340.54
413.12	2298.41
413.31	2424.80
413.50	2469.27
413.69	2464.58
413.88	2569.91
414.07	2499.69
414.26	2548.84
414.45	2516.08
414.64	2502.03
414.83	2651.83
415.02	2682.25
415.22	2619.06
415.41	2623.74
415.60	2677.57
415.79	2750.13
415.98	2855.45
416.17	2750.13
416.36	2733.75
416.55	2773.53
416.74	2785.24
416.93	2736.09
417.12	2883.54
417.31	2930.35
417.50	2782.90
417.69	3094.19
417.88	3112.91
418.07	2956.10
418.26	2892.90
418.45	2944.39
418.64	3138.66
418.83	3136.32
419.02	3059.08
419.21	3152.70
419.39	3129.30
419.58	3164.40
419.77	3150.36
419.96	3110.57
420.15	3183.13
420.34	3246.32
420.53	3171.43
420.72	3337.60
420.91	3311.86
421.10	3297.81
421.29	3386.76
421.48	3290.79
421.67	3400.80
421.86	3213.56
422.05	3311.86
422.24	3384.41
422.43	3421.86
422.61	3325.90
422.80	3361.01
422.99	3407.82
423.18	3363.35
423.37	3604.42
423.56	3400.80
423.75	3461.65
423.94	3452.29
424.13	3204.19
424.32	3368.03
424.50	3431.23
424.69	3550.59
424.88	3585.70
425.07	3499.10
425.26	3449.95
425.45	3482.72
425.64	3391.44
425.83	3452.29
426.01	3541.23
426.20	3672.30
426.39	3447.61
426.58	3440.59
426.77	3574.00
426.96	3604.42
427.15	3581.02
427.33	3419.52
427.52	3459.31
427.71	3548.25
427.90	3655.92
428.09	3693.37
428.28	3716.77
428.46	3634.85
428.65	3679.32
428.84	3796.35
429.03	3726.13
429.22	3728.47
429.40	3688.68
429.59	3758.90
429.78	3728.47
429.97	3705.07
430.16	3646.55
430.34	3644.21
430.53	3847.84
430.72	3866.56
430.91	3822.09
431.10	3808.05
431.28	4009.34
431.47	3936.78
431.66	4042.11
431.85	3936.78
432.03	4056.15
432.22	4259.78
432.41	4056.15
432.60	4117.00
432.79	4100.62
432.97	4131.05
433.16	4243.39
433.35	4065.51
433.54	4133.39
433.72	4152.11
433.91	4201.26
434.10	4203.60
434.28	4112.32
434.47	4177.86
434.66	4374.46
434.85	4372.12
435.03	4418.93
435.22	4435.32
435.41	4444.68
435.59	4353.40
435.78	4493.83
435.97	4580.43
436.16	4505.53
436.34	4465.74
436.53	4540.64
436.72	4629.58
436.90	4472.76
437.09	4641.28
437.28	4514.89
437.46	4435.32
437.65	4505.53
437.84	4573.41
438.02	4627.24
438.21	4535.96
438.40	4582.77
438.58	4737.24
438.77	4849.59
438.96	4882.36
439.14	4837.89
439.33	4964.28
439.52	4898.74
439.70	5018.11
439.89	5081.30
440.08	5020.45
440.26	5050.88
440.45	4971.30
440.63	5177.26
440.82	5266.21
441.01	5118.75
441.19	5139.82
441.38	5245.14
441.57	5128.11
441.75	5343.44
441.94	5591.54
442.12	5479.19
442.31	5549.41
442.50	5474.51
442.68	5451.11
442.87	5743.67
443.05	5617.29
443.24	5811.55
443.43	5708.57
443.61	5570.48
443.80	5734.31
443.98	5614.95
444.17	5416.00
444.35	5633.67
444.54	5795.17
444.73	5668.78
444.91	5643.03
445.10	5633.67
445.28	5706.23
445.47	5827.93
445.65	5736.65
445.84	5692.18
446.02	5743.67
446.21	5600.90
446.39	5724.95
446.58	5846.66
446.77	5710.91
446.95	5696.86
447.14	5790.49
447.32	5809.21
447.51	5774.10
447.69	5818.57
447.88	5959.00
448.06	5841.98
448.25	5905.17
448.43	5851.34
448.62	5935.60
448.80	5956.66
448.99	6045.60
449.17	6071.35
449.36	5799.85
449.54	6160.29
449.73	6183.70
449.91	6183.70
450.10	6258.59
450.28	6237.53
450.46	6169.65
450.65	6228.17
450.83	6284.34
451.02	6218.80
451.20	6373.28
451.39	6242.21
451.57	6321.79
451.76	6230.51
451.94	6427.11
452.13	6399.02
452.31	6326.47
452.49	6249.23
452.68	6366.26
452.86	6228.17
453.05	6272.64
453.23	6434.13
453.42	6347.53
453.60	6452.86
453.78	6569.88
453.97	6267.95
454.15	6532.44
454.34	6284.34
454.52	6497.33
454.70	6483.28
454.89	6588.61
455.07	6661.16
455.26	6775.85
455.44	6754.79
455.62	6815.64
455.81	6832.02
455.99	6869.47
456.17	6796.92
456.36	6752.45
456.54	6876.49
456.73	7082.46
456.91	7080.12
457.09	7073.10
457.28	7283.75
457.46	7215.87
457.64	7176.08
457.83	7033.31
458.01	7152.68
458.19	7339.92
458.38	7162.04
458.56	7183.10
458.74	7246.30
458.93	7180.76
459.11	7250.98
459.29	7208.85
459.48	7410.14
459.66	7478.01
459.84	7372.69
460.03	7506.10
460.21	7353.96
460.39	7506.10
460.57	7386.73
460.76	7351.62
460.94	7672.28
461.12	7447.58
461.31	7637.17
461.49	7454.61
461.67	7499.08
461.85	7793.98
462.04	7644.19
462.22	7999.95
462.40	7829.09
462.59	7939.10
462.77	7716.75
462.95	8002.29
463.13	7906.33
463.32	7943.78
463.50	7974.21
463.68	7906.33
463.86	7955.48
464.05	7824.41
464.23	7868.88
464.41	7922.71
464.59	7754.19
464.78	8119.32
464.96	8119.32
465.14	7915.69
465.32	8236.35
465.50	8287.84
465.69	8248.05
465.87	8217.62
466.05	8397.84
466.23	8203.58
466.41	8163.79
466.60	8367.42
466.78	8248.05
466.96	8028.04
467.14	8336.99
467.32	8362.73
467.51	8320.60
467.69	8070.17
467.87	8482.10
468.05	8468.06
468.23	8636.58
468.41	8358.05
468.60	8372.10
468.78	8484.44
468.96	8498.49
469.14	8344.01
469.32	8458.70
469.50	8437.63
469.69	8643.60
469.87	8744.24
470.05	8732.54
470.23	8730.20
470.41	8751.26
470.59	8840.20
470.77	8732.54
470.95	8814.46
471.14	8887.01
471.32	8762.97
471.50	9074.26
471.68	9118.73
471.86	9076.60
472.04	9104.68
472.22	9460.45
472.40	9027.45
472.58	9303.63
472.77	9088.30
472.95	9345.76
473.13	9657.05
473.31	9446.40
473.49	9308.31
473.67	9425.34
473.85	9387.89
474.03	9802.16
474.21	9741.31
474.39	9947.28
474.57	9659.39
474.75	9926.21
474.93	9830.25
475.12	9958.98
475.30	9956.64
475.48	10132.18
475.66	10260.91
475.84	10043.24
476.02	10279.63
476.20	10188.35
476.38	10396.66
476.56	10729.02
476.74	10352.19
476.92	10340.49
477.10	10511.35
477.28	10785.19
477.46	10619.01
477.64	10829.66
477.82	11049.67
478.00	11112.86
478.18	11056.69
478.36	11138.61
478.54	11358.62
478.72	11180.74
478.90	11459.26
479.08	11447.56
479.26	11690.98
479.44	11847.79
479.62	11798.64
479.80	11744.81
479.98	11997.59
480.16	12313.56
480.34	12091.21
480.52	12210.57
480.70	12224.62
480.88	12257.39
481.06	12329.94
481.24	12332.28
481.41	12437.61
481.59	12849.54
481.77	12847.20
481.95	12854.22
482.13	13167.85
482.31	12882.31
482.49	13254.45
482.67	13277.86
482.85	13514.25
483.03	13568.09
483.21	13525.96
483.39	13710.86
483.57	13907.46
483.74	13689.79
483.92	13860.65
484.10	13741.29
484.28	14064.28
484.46	14214.07
484.64	14621.33
484.82	14272.59
485.00	14434.08
485.18	14860.06
485.35	14813.25
485.53	14801.55
485.71	14754.74
485.89	14820.27
486.07	15159.65
486.25	15009.86
486.43	15358.60
486.61	15681.59
486.78	15723.72
486.96	15503.71
487.14	15796.28
487.32	15868.83
487.50	16442.26
487.68	16229.27
487.85	16552.27
488.03	16737.17
488.21	16959.52
488.39	16847.18
488.57	16884.62
488.75	16891.65
488.92	17263.79
489.10	17366.78
489.28	17326.99
489.46	17631.26
489.64	17708.49
489.81	17994.04
489.99	17743.60
490.17	18071.28
490.35	18202.35
490.53	18499.59
490.70	18525.34
490.88	18663.43
491.06	18773.44
491.24	18576.83
491.41	18789.82
491.59	18796.84
491.77	19000.47
491.95	19129.20
492.13	19278.99
492.30	19674.54
492.48	19278.99
492.66	19751.78
492.84	19693.27
493.01	19737.74
493.19	19782.21
493.37	20350.96
493.54	20238.61
493.72	20407.13
493.90	20496.07
494.08	20819.07
494.25	20868.22
494.43	20879.92
494.61	21303.56
494.79	20858.85
494.96	21074.18
495.14	21078.86
495.32	21607.83
495.49	21572.72
495.67	21411.22
495.85	21790.39
496.02	21823.16
496.20	22075.93
496.38	22338.07
496.55	22214.02
496.73	22506.59
496.91	22300.62
497.09	22541.70
497.26	22689.15
497.44	22602.55
497.62	22700.86
497.79	23005.13
497.97	22970.02
498.14	23192.37
498.32	23346.84
498.50	23108.11
498.67	23548.13
498.85	23555.15
499.03	23793.89
499.20	24086.45
499.38	23768.14
499.56	23756.44
499.73	24034.96
499.91	23957.72
500.08	24479.66
500.26	24098.16
500.44	24376.68
500.61	24486.68
500.79	24149.65
500.97	24779.25
501.14	24666.91
501.32	24807.34
501.49	24903.30
501.67	24828.40
501.84	24865.85
502.02	24994.58
502.20	25209.91
502.37	25518.86
502.55	25048.41
502.72	25474.39
502.90	25406.52
503.07	25647.59
503.25	25469.71
503.43	25682.70
503.60	25722.49
503.78	26190.59
503.95	26080.59
504.13	25706.10
504.30	25972.92
504.48	26096.97
504.65	26260.81
504.83	26707.85
505.01	26862.33
505.18	26242.09
505.36	26668.06
505.53	26600.19
505.71	26951.27
505.88	27084.68
506.06	26831.90
506.23	27180.64
506.41	27103.40
506.58	27140.85
506.76	27246.18
506.93	27538.74
507.11	27438.10
507.28	27541.08
507.46	27365.54
507.63	27398.31
507.81	27803.22
507.98	27681.52
508.16	27948.34
508.33	27990.47
508.50	28367.29
508.68	27702.58
508.85	28512.41
509.03	27988.13
509.20	28748.80
509.38	28339.21
509.55	28683.27
509.73	28879.87
509.90	28594.32
510.08	28720.71
510.25	28500.70
510.42	28826.04
510.60	29209.89
510.77	28964.13
510.95	29233.29
511.12	29137.33
511.30	28814.34
511.47	29563.31
511.64	29303.51
511.82	29692.04
511.99	29736.51
512.17	29823.11
512.34	29490.75
512.51	29759.91
512.69	30323.98
512.86	30061.84
513.04	30384.83
513.21	29902.68
513.38	30347.39
513.56	30228.02
513.73	30103.97
513.90	30558.03
514.08	30157.80
514.25	30684.42
514.43	30625.91
514.60	30450.37
514.77	30686.76
514.95	30923.16
515.12	30829.54
515.29	31377.22
515.47	30995.71
515.64	31054.23
515.81	31384.24
515.99	31094.02
516.16	31552.76
516.33	31330.41
516.51	31503.61
516.68	31040.18
516.85	31098.70
517.03	31529.36
517.20	31716.60
517.37	31545.74
517.54	31908.52
517.72	31693.19
517.89	32325.14
518.06	31948.31
518.24	31931.93
518.41	31943.63
518.58	31924.91
518.75	32081.72
518.93	32793.25
519.10	32725.37
519.27	32423.44
519.45	32294.71
519.62	32910.27
519.79	32706.65
519.96	32776.86
520.14	33013.26
520.31	32760.48
520.48	32872.82
520.65	33024.96
520.83	32896.23
521.00	33209.86
521.17	33256.67
521.34	33326.89
521.52	33486.04
521.69	33549.24
521.86	33872.23
522.03	33656.90
522.20	33729.46
522.38	33713.08
522.55	33928.41
522.72	33675.63
522.89	33624.14
523.07	33848.83
523.24	33879.25
523.41	33909.68
523.58	33944.79
523.75	34684.40
523.92	34314.59
524.10	34457.37
524.27	34546.31
524.44	34513.54
524.61	34199.91
524.78	34855.26
524.96	34625.89
525.13	34934.84
525.30	35218.04
525.47	35342.09
525.64	34965.26
525.81	35222.72
525.98	34827.17
526.16	34974.63
526.33	34930.16
526.50	35442.73
526.67	35435.71
526.84	35288.26
527.01	35257.83
527.18	34923.13
527.36	35222.72
527.53	35969.35
527.70	35786.79
527.87	35648.70
528.04	35578.48
528.21	35817.22
528.38	35983.40
528.55	36034.89
528.72	35644.02
528.89	36196.38
529.07	35957.65
529.24	35669.76
529.41	36294.69
529.58	35744.66
529.75	36013.82
529.92	36119.15
530.09	36692.58
530.26	36477.25
530.43	36613.00
530.60	36084.04
530.77	36428.10
530.94	36769.82
531.11	36341.50
531.28	36804.92
531.46	36753.43
531.63	36877.48
531.80	36933.65
531.97	36854.08
532.14	36933.65
532.31	36486.61
532.48	36896.20
532.65	37310.48
532.82	37324.52
532.99	37631.13
533.16	36769.82
533.33	37317.50
533.50	37694.33
533.67	37619.43
533.84	37596.03
534.01	37317.50
534.18	37486.02
534.35	37834.76
534.52	37799.65
534.69	37846.46
534.86	38000.94
535.03	37242.60
535.20	38410.53
535.37	38368.40
535.54	38113.28
535.71	38110.94
535.88	38017.32
536.05	37832.42
536.22	38209.25
536.38	37970.51
536.55	38106.26
536.72	38295.85
536.89	38141.37
537.06	38117.96
537.23	38501.81
537.40	37991.58
537.57	38480.75
537.74	38557.99
537.91	38738.21
538.08	38340.32
538.25	38330.95
538.42	38553.30
538.59	38766.29
538.75	38574.37
538.92	38946.51
539.09	39166.52
539.26	38838.85
539.43	39103.33
539.60	38616.50
539.77	39138.44
539.94	38768.63
540.11	38555.64
540.28	39007.37
540.44	39082.27
540.61	39075.24
540.78	39232.06
540.95	39171.21
541.12	39611.23
541.29	39452.07
541.46	38892.68
541.62	39494.20
541.79	39585.48
541.96	39498.88
542.13	39431.01
542.30	39667.40
542.47	39796.13
542.63	39388.88
542.80	39716.55
542.97	39861.66
543.14	40294.66
543.31	39929.54
543.48	40072.31
543.64	40502.97
543.81	40339.13
543.98	41141.94
544.15	40165.93
544.32	39819.53
544.48	40631.70
544.65	40034.86
544.82	40144.87
544.99	40289.98
545.16	40397.65
545.32	40084.01
545.49	40926.61
545.66	40704.26
545.83	40760.43
546.00	40622.34
546.16	40720.64
546.33	40442.12
546.50	40027.84
546.67	40706.60
546.83	39878.05
547.00	40828.30
547.17	40591.91
547.34	40364.88
547.50	40807.24
547.67	41081.08
547.84	41067.04
548.00	41153.64
548.17	41113.85
548.34	41478.97
548.51	41249.60
548.67	41483.66
548.84	41495.36
549.01	41181.73
549.18	41050.66
549.34	41214.49
549.51	41706.01
549.68	42052.41
549.84	41841.76
550.01	41825.37
550.18	41502.38
550.34	41860.48
550.51	41757.50
550.68	41233.22
550.84	41053.00
551.01	41331.52
551.18	41539.83
551.34	41727.07
551.51	41797.29
551.68	41745.80
551.84	42024.32
552.01	41645.15
552.18	41916.65
552.34	41701.32
552.51	42099.22
552.68	42288.80
552.84	42246.67
553.01	42234.97
553.18	42249.01
553.34	42071.13
553.51	41642.81
553.67	42363.70
553.84	42567.32
554.01	42436.25
554.17	42724.14
554.34	42176.45
554.51	42347.31
554.67	42698.39
554.84	42686.69
555.00	42396.46
555.17	42061.77
555.33	42803.72
555.50	42361.36
555.67	42450.30
555.83	42642.22
556.00	42572.00
556.16	42752.23
556.33	42541.58
556.50	42457.32
556.66	43285.87
556.83	42375.40
556.99	43021.39
557.16	42953.51
557.32	42897.34
557.49	42677.33
557.65	42251.35
557.82	42988.62
557.98	42305.18
558.15	42705.41
558.32	43042.45
558.48	42841.17
558.65	42801.38
558.81	42532.22
558.98	42817.76
559.14	42838.83
559.31	43075.22
559.47	43161.82
559.64	43540.99
559.80	43178.20
559.97	43463.75
560.13	42932.45
560.30	43019.05
560.46	43063.52
560.63	43199.27
560.79	43248.42
560.96	43320.98
561.12	43126.71
561.29	43269.48
561.45	43019.05
561.61	43339.70
561.78	43213.31
561.94	43253.10
562.11	42969.90
562.27	43084.58
562.44	43189.91
562.60	43564.39
562.77	43414.60
562.93	43585.46
563.10	43452.05
563.26	43241.40
563.42	43679.08
563.59	43477.79
563.75	43739.93
563.92	43728.23
564.08	43641.63
564.24	44100.37
564.41	43819.51
564.57	43239.06
564.74	43611.20
564.90	43751.63
565.07	43423.96
565.23	43175.86
565.39	43407.58
565.56	43653.33
565.72	43854.62
565.88	43658.01
566.05	43592.48
566.21	43920.15
566.38	43367.79
566.54	43311.61
566.70	43873.34
566.87	43765.68
567.03	43665.03
567.19	44156.55
567.36	43744.61
567.52	43468.43
567.68	44142.50
567.85	43711.84
568.01	43880.36
568.17	43913.13
568.34	44161.23
568.50	43988.03
568.66	43976.33
568.83	43962.28
568.99	43599.50
569.15	43821.85
569.32	43962.28
569.48	43409.92
569.64	44069.95
569.81	43915.47
569.97	43732.91
570.13	43913.13
570.30	44329.75
570.46	43704.82
570.62	43768.02
570.78	44020.80
570.95	44112.08
571.11	44114.42
571.27	44205.70
571.43	44100.37
571.60	44051.22
571.76	44306.34
571.92	44009.09
572.09	44189.31
572.25	43988.03
572.41	43906.11
572.57	44257.19
572.74	44472.52
572.90	44308.68
573.06	44198.68
573.22	44343.79
573.38	44357.83
573.55	43964.62
573.71	44133.14
573.87	44081.65
574.03	43962.28
574.20	44128.46
574.36	43777.38
574.52	44240.81
574.68	44067.61
574.84	44261.87
575.01	44437.41
575.17	43936.54
575.33	43842.92
575.49	44182.29
575.65	44313.36
575.82	44758.06
575.98	44484.22
576.14	44655.08
576.30	44484.22
576.46	44322.72
576.62	44247.83
576.79	44210.38
576.95	43863.98
577.11	44051.22
577.27	44194.00
577.43	44741.68
577.59	44261.87
577.75	43966.96
577.92	43889.73
578.08	44039.52
578.24	43686.10
578.40	44292.30
578.56	44538.05
578.72	44247.83
578.88	44601.25
579.04	44573.16
579.21	43894.41
579.37	44189.31
579.53	43948.24
579.69	44259.53
579.85	44456.14
580.01	44261.87
580.17	44079.31
580.33	44617.63
580.49	44023.14
580.65	44498.26
580.82	44465.50
580.98	44243.15
581.14	44261.87
581.30	44708.91
581.46	44240.81
581.62	44292.30
581.78	44437.41
581.94	44765.09
582.10	44722.96
582.26	44215.06
582.42	44591.89
582.58	44172.93
582.74	44222.08
582.90	44399.96
583.06	44439.75
583.22	44704.23
583.38	44671.46
583.54	44320.38
583.70	43742.27
583.86	44285.28
584.02	44013.77
584.18	44575.50
584.34	44535.71
584.50	44669.12
584.66	44296.98
584.82	44142.50
584.98	44641.04
585.14	44765.09
585.30	44456.14
585.46	43908.45
585.62	44315.70
585.78	44226.76
585.94	43540.99
586.10	44292.30
586.26	44524.01
586.42	44547.42
586.58	44711.25
586.74	44334.43
586.90	44079.31
587.06	44147.18
587.22	44636.36
587.38	44119.10
587.54	44554.44
587.70	44945.31
587.86	44755.72
588.02	44140.16
588.18	44580.18
588.34	44619.97
588.49	44030.16
588.65	43922.49
588.81	44224.42
588.97	44226.76
589.13	43889.73
589.29	44809.56
589.45	44236.12
589.61	44484.22
589.77	44947.65
589.93	44844.66
590.08	44938.29
590.24	45017.86
590.40	44938.29
590.56	44903.18
590.72	44701.89
590.88	44727.64
591.04	44762.75
591.20	44699.55
591.35	44938.29
591.51	45446.18
591.67	44722.96
591.83	44832.96
591.99	44692.53
592.15	44631.68
592.31	44439.75
592.46	44823.60
592.62	44917.22
592.78	44737.00
592.94	45088.08
593.10	44634.02
593.26	44804.88
593.41	44687.85
593.57	44863.39
593.73	44900.84
593.89	44961.69
594.05	44472.52
594.20	44949.99
594.36	45162.98
594.52	44802.53
594.68	44711.25
594.84	44985.10
594.99	45083.40
595.15	45324.47
595.31	44872.75
595.47	44746.36
595.62	45123.19
595.78	44971.05
595.94	45045.95
596.10	45127.87
596.25	45195.74
596.41	44968.71
596.57	44622.31
596.73	44933.60
596.88	44849.35
597.04	44722.96
597.20	44924.24
597.36	44896.16
597.51	44968.71
597.67	44540.39
597.83	44973.39
597.99	45043.61
598.14	45095.10
598.30	44933.60
598.46	44514.65
598.61	45111.49
598.77	44814.24
598.93	45078.72
599.09	45111.49
599.24	45174.68
599.40	45055.31
599.56	45343.20
599.71	44985.10
599.87	45324.47
600.03	45008.50
600.18	44612.95
600.34	44835.30
600.50	44821.26
600.65	44505.29
600.81	45500.01
600.97	45359.58
601.12	45738.75
601.28	44917.22
601.44	45249.58
601.59	45160.64
601.75	44472.52
601.91	44720.62
602.06	44559.12
602.22	45071.70
602.37	45006.16
602.53	44898.50
602.69	44959.35
602.84	44978.07
603.00	45116.17
603.16	45041.27
603.31	44741.68
603.47	44500.61
603.62	44472.52
603.78	45254.26
603.94	44987.44
604.09	45177.02
604.25	45062.33
604.40	44591.89
604.56	45118.51
604.71	44807.22
604.87	44811.90
605.03	44697.21
605.18	45013.18
605.34	44788.49
605.49	44514.65
605.65	44957.01
605.80	44861.05
605.96	44678.49
606.12	45162.98
606.27	44975.73
606.43	44793.17
606.58	44769.77
606.74	44861.05
606.89	44837.64
607.05	45064.67
607.20	44708.91
607.36	44971.05
607.51	45092.76
607.67	44432.73
607.82	45139.57
607.98	44809.56
608.13	44348.47
608.29	44294.64
608.44	44355.49
608.60	43533.96
608.75	44432.73
608.91	44521.67
609.06	44493.58
609.22	44830.62
609.37	44493.58
609.53	44470.18
609.68	44514.65
609.84	44498.26
609.99	44889.13
610.15	44343.79
610.30	44687.85
610.46	44580.18
610.61	44385.92
610.76	44243.15
610.92	44371.88
611.07	44231.44
611.23	44222.08
611.38	44098.03
611.54	43908.45
611.69	43992.71
611.84	44088.67
612.00	44425.71
612.15	43824.19
612.31	44243.15
612.46	44198.68
612.62	44418.69
612.77	44076.97
612.92	44346.13
613.08	43910.79
613.23	43913.13
613.39	44165.91
613.54	43917.81
613.69	43571.41
613.85	44339.11
614.00	44271.23
614.15	44168.25
614.31	44334.43
614.46	44416.35
614.62	43856.96
614.77	43578.43
614.92	43950.58
615.08	43927.17
615.23	43768.02
615.38	44156.55
615.54	43435.66
615.69	43423.96
615.84	43391.19
616.00	43632.27
616.15	43597.16
616.30	43770.36
616.46	43510.56
616.61	43613.54
616.76	43629.93
616.92	43840.57
617.07	43299.91
617.22	43459.07
617.37	43199.27
617.53	43707.16
617.68	43522.26
617.83	43452.05
617.99	43501.20
618.14	43395.87
618.29	43250.76
618.45	43302.25
618.60	43192.25
618.75	43299.91
618.90	43501.20
619.06	43358.42
619.21	43330.34
619.36	43564.39
619.51	43435.66
619.67	43440.34
619.82	43578.43
619.97	43501.20
620.12	42831.80
620.28	43061.18
620.43	43255.44
620.58	43330.34
620.73	43323.32
620.89	43131.39
621.04	43239.06
621.19	42864.57
621.34	43047.13
621.49	43077.56
621.65	42611.79
621.80	43182.88
621.95	42719.46
622.10	42864.57
622.25	42887.98
622.41	42588.39
622.56	42646.90
622.71	42958.19
622.86	43192.25
623.01	42911.38
623.16	42925.42
623.32	42721.80
623.47	42658.60
623.62	42763.93
623.77	42415.19
623.92	42351.99
624.07	42347.31
624.23	42539.24
624.38	42611.79
624.53	42429.23
624.68	42976.92
624.83	42295.82
624.98	42572.00
625.13	42462.00
625.29	42754.57
625.44	41963.46
625.59	42190.50
625.74	42157.73
625.89	41972.83
626.04	41628.77
626.19	41975.17
626.34	42403.49
626.49	42045.38
626.65	42211.56
626.80	42291.14
626.95	41977.51
627.10	41827.71
627.25	42005.59
627.40	41860.48
627.55	41574.94
627.70	41610.04
627.85	41343.22
628.00	41647.49
628.15	42286.46
628.30	41832.39
628.45	41696.64
628.60	41862.82
628.76	42059.43
628.91	41787.92
629.06	41886.23
629.21	41893.25
629.36	41584.30
629.51	41144.28
629.66	41553.87
629.81	41153.64
629.96	41450.89
630.11	41935.38
630.26	41481.31
630.41	41600.68
630.56	41659.20
630.71	41841.76
630.86	41343.22
631.01	40776.81
631.16	41296.41
631.31	41443.87
631.46	40957.03
631.61	41106.83
631.76	41378.33
631.91	41233.22
632.06	41500.04
632.21	41315.14
632.36	41464.93
632.51	41006.19
632.66	41275.35
632.81	40926.61
632.96	41055.34
633.10	40514.67
633.25	40629.36
633.40	40650.42
633.55	41132.57
633.70	41020.23
633.85	41001.50
634.00	40584.89
634.15	41076.40
634.30	40992.14
634.45	40886.82
634.60	40851.71
634.75	40868.09
634.90	41364.29
635.05	40519.35
635.19	40706.60
635.34	41064.70
635.49	40858.73
635.64	40233.81
635.79	40346.15
635.94	40432.75
636.09	40470.20
636.24	40172.96
636.39	40140.19
636.53	40100.40
636.68	40046.57
636.83	40142.53
636.98	40526.38
637.13	40187.00
637.28	40278.28
637.43	40531.06
637.57	40095.72
637.72	40404.67
637.87	40217.43
638.02	40250.19
638.17	40095.72
638.32	39454.41
638.46	39819.53
638.61	39634.63
638.76	39555.05
638.91	39606.55
639.06	39871.03
639.20	40002.10
639.35	39976.35
639.50	39873.37
639.65	40058.27
639.80	40161.25
639.94	39519.95
640.09	39442.71
640.24	39885.07
640.39	39597.18
640.54	40023.16
640.68	39618.25
640.83	39784.43
640.98	39466.11
641.13	39789.11
641.27	39924.86
641.42	39592.50
641.57	39789.11
641.72	39786.77
641.86	39484.84
642.01	39585.48
642.16	39271.85
642.31	39311.64
642.45	39552.71
642.60	39473.13
642.75	38691.40
642.90	39302.28
643.04	39426.32
643.19	39325.68
643.34	39335.04
643.48	39358.45
643.63	39232.06
643.78	38740.55
643.93	38937.15
644.07	38876.30
644.22	39096.31
644.37	39002.69
644.51	38499.47
644.66	38859.91
644.81	39068.22
644.95	39014.39
645.10	39042.48
645.25	39260.15
645.39	39077.58
645.54	38925.45
645.69	38813.10
645.83	38525.22
645.98	38574.37
646.13	38885.66
646.27	38960.56
646.42	38452.66
646.57	38663.31
646.71	38998.01
646.86	38646.93
647.00	38930.13
647.15	38955.88
647.30	38890.34
647.44	38927.79
647.59	38232.65
647.74	38693.74
647.88	38314.57
648.03	38387.13
648.17	38483.09
648.32	38391.81
648.47	38279.46
648.61	38281.80
648.76	38948.85
648.90	38314.57
649.05	38230.31
649.20	38010.30
649.34	38396.49
649.49	38347.34
649.63	38242.01
649.78	38089.88
649.92	38239.67
650.07	38831.83
650.21	37731.78
650.36	38017.32
650.51	38288.82
650.65	38490.11
650.80	38455.00
650.94	38508.83
651.09	38459.68
651.23	38197.54
651.38	37549.21
651.52	37743.48
651.67	37947.11
651.81	38206.90
651.96	37862.85
652.10	37996.26
652.25	37649.86
652.39	37326.86
652.54	37677.94
652.68	37717.73
652.83	37759.86
652.97	37904.98
653.12	37837.10
653.26	37427.51
653.41	37722.41
653.55	37750.50
653.70	37261.33
653.84	37633.47
653.99	37277.71
654.13	37544.53
654.27	37350.27
654.42	37591.34
654.56	37713.05
654.71	37088.13
654.85	37240.26
655.00	37336.23
655.14	36966.42
655.29	36575.55
655.43	37024.93
655.57	37057.70
655.72	37078.77
655.86	37064.72
656.01	36797.90
656.15	36994.51
656.30	36671.51
656.44	37036.64
656.58	36825.99
656.73	36535.76
656.87	36755.77
657.01	36737.05
657.16	36549.81
657.30	36446.82
657.45	36392.99
657.59	36673.85
657.73	36547.47
657.88	36816.63
658.02	36484.27
658.16	36818.97
658.31	36795.56
658.45	36739.39
658.60	36634.06
658.74	36692.58
658.88	36566.19
659.03	36055.95
659.17	36161.28
659.31	36229.15
659.46	36133.19
659.60	36404.69
659.74	35735.30
659.89	36140.21
660.03	36046.59
660.17	36535.76
660.32	35906.16
660.46	36275.96
660.60	36360.22
660.74	35915.52
660.89	35793.81
661.03	35885.09
661.17	35606.57
661.32	35592.53
661.46	35374.86
661.60	35791.47
661.74	35927.22
661.89	35847.64
662.03	35693.17
662.17	35475.50
662.31	35407.62
662.46	35653.38
662.60	35393.58
662.74	35058.88
662.88	34965.26
663.03	35424.01
663.17	35253.15
663.31	35182.93
663.45	35058.88
663.60	34897.39
663.74	34646.95
663.88	35143.14
664.02	34714.83
664.17	34724.19
664.31	35037.82
664.45	34714.83
664.59	34782.70
664.73	34862.28
664.88	34951.22
665.02	34574.39
665.16	34452.69
665.30	34686.74
665.44	34279.49
665.59	33935.43
665.73	34550.99
665.87	33722.44
666.01	33806.70
666.15	34024.37
666.29	34162.46
666.44	34300.55
666.58	34092.24
666.72	33771.59
666.86	34082.88
667.00	34433.96
667.14	33972.88
667.28	34094.58
667.43	33340.93
667.57	33230.93
667.71	33738.82
667.85	33298.80
667.99	33750.52
668.13	33085.81
668.27	33427.53
668.41	33450.94
668.56	33422.85
668.70	33242.63
668.84	32893.89
668.98	33074.11
669.12	33179.43
669.26	32823.67
669.40	32774.52
669.54	32730.05
669.68	32828.35
669.82	33006.23
669.96	32629.41
670.10	32474.93
670.25	33027.30
670.39	32648.13
670.53	32751.12
670.67	32311.10
670.81	32503.02
670.95	32327.48
671.09	32692.60
671.23	32149.60
671.37	32364.93
671.51	31775.11
671.65	32418.76
671.79	32212.79
671.93	31672.13
672.07	31737.66
672.21	31868.73
672.35	31931.93
672.49	31819.58
672.63	31665.11
672.77	31751.71
672.91	31477.86
673.05	31676.81
673.19	31440.42
673.33	31271.90
673.47	31255.51
673.61	31110.40
673.75	30712.51
673.89	30899.75
674.03	30735.92
674.17	30806.13
674.31	31161.89
674.45	30703.15
674.59	30803.79
674.73	30766.34
674.87	30726.55
675.01	30625.91
675.15	30661.02
675.29	30642.29
675.43	30480.80
675.56	30595.48
675.70	30221.00
675.84	30204.61
675.98	29413.51
676.12	29902.68
676.26	29890.98
676.40	29834.81
676.54	30092.27
676.68	29914.39
676.82	29305.85
676.96	29542.24
677.10	29254.36
677.23	29345.64
677.37	29242.65
677.51	28886.89
677.65	29062.43
677.79	28975.83
677.93	29132.65
678.07	28800.29
678.21	28400.06
678.34	28517.09
678.48	28472.62
678.62	28725.39
678.76	28414.10
678.90	28151.96
679.04	28121.54
679.18	28409.42
679.31	27695.56
679.45	27824.29
679.59	27910.89
679.73	27552.79
679.87	27885.14
680.00	27894.50
680.14	27372.57
680.28	27466.19
680.42	27461.51
680.56	27316.39
680.70	26998.08
680.83	27016.80
680.97	26822.54
681.11	26871.69
681.25	26761.69
681.39	26513.59
681.52	27044.89
681.66	26611.89
681.80	26639.98
681.94	26621.25
682.07	26639.98
682.21	26089.95
682.35	26122.72
682.49	26232.72
682.62	26040.80
682.76	25867.60
682.90	25827.81
683.04	25486.09
683.17	25900.37
683.31	25764.62
683.45	25806.75
683.59	25682.70
683.72	25340.98
683.86	25064.80
684.00	24987.56
684.13	25504.82
684.27	25291.83
684.41	25151.40
684.55	24975.86
684.68	24816.70
684.82	24910.32
684.96	24788.61
685.09	24505.41
685.23	24514.77
685.37	24631.80
685.50	24425.83
685.64	24467.96
685.78	24393.06
685.91	24126.24
686.05	23929.64
686.19	23803.25
686.32	23538.77
686.46	23775.16
686.60	23676.86
686.73	23672.18
686.87	23073.00
687.01	23494.30
687.14	23047.26
687.28	23002.78
687.42	23098.75
687.55	22766.39
687.69	22970.02
687.82	22775.75
687.96	22759.37
688.10	22895.12
688.23	22782.77
688.37	22359.14
688.50	22277.22
688.64	22129.77
688.78	22136.79
688.91	22115.72
689.05	22284.24
689.18	22087.64
689.32	21806.77
689.46	21715.49
689.59	21994.01
689.73	22087.64
689.86	21844.22
690.00	21797.41
690.13	21701.45
690.27	21474.42
690.41	21252.06
690.54	21067.16
690.68	21025.03
690.81	20863.54
690.95	20582.67
691.08	20992.26
691.22	20973.54
691.35	20624.80
691.49	20919.71
691.62	20968.86
691.76	20521.82
691.89	20467.98
692.03	20608.42
692.16	20430.54
692.30	20292.44
692.43	20315.85
692.57	19934.34
692.70	19927.32
692.84	20025.62
692.97	19845.40
693.11	19632.41
693.24	19499.00
693.38	19580.92
693.51	19330.48
693.65	19428.79
693.78	19447.51
693.92	19501.34
694.05	19236.86
694.19	19126.86
694.32	19096.43
694.45	19009.83
694.59	19084.73
694.72	18633.00
694.86	19098.77
694.99	18567.47
695.13	18672.79
695.26	18450.44
695.39	18225.75
695.53	18380.23
695.66	18284.26
695.80	18066.60
695.93	18420.02
696.07	17727.22
696.20	18061.91
696.33	17818.50
696.47	17752.96
696.60	17844.24
696.73	17914.46
696.87	17640.62
697.00	17640.62
697.14	17731.90
697.27	17469.76
697.40	17537.63
697.54	17289.54
697.67	17174.85
697.80	17326.99
697.94	17109.32
698.07	17130.38
698.21	16903.35
698.34	17123.36
698.47	16681.00
698.61	16554.61
698.74	16678.66
698.87	16355.66
699.01	16365.03
699.14	16435.24
699.27	16226.93
699.40	16292.47
699.54	15917.98
699.67	15807.98
699.80	16187.14
699.94	16107.57
700.07	15985.86
700.20	15906.28
700.34	15756.49
700.47	15639.46
700.60	15913.30
700.73	15786.91
700.87	15648.82
701.00	15466.26
701.13	15405.41
701.26	15309.44
701.40	15536.48
701.53	15122.20
701.66	15180.71
701.79	14897.51
701.93	15016.88
702.06	14853.04
702.19	14939.64
702.32	14801.55
702.46	14672.82
702.59	14937.30
702.72	14501.96
702.85	14466.85
702.99	14881.13
703.12	14644.73
703.25	14726.65
703.38	14420.04
703.51	14324.08
703.65	14277.27
703.78	14317.06
703.91	13984.70
704.04	14216.41
704.17	14052.58
704.31	13855.97
704.44	13551.70
704.57	13472.12
704.70	13633.62
704.83	13467.44
704.96	13371.48
705.10	13797.46
705.23	13640.64
>>>>>End Processed Spectral Data<<<<<
