SpectraSuite Data File
++++++++++++++++++++++++++++++++++++
Date: Fri Oct 25 10:47:38 EDT 2013
User: price-jones
Dark Spectrum Present: No
Reference Spectrum Present: No
Number of Sampled Component Spectra: 1
Spectrometers: USB2+H05261
Integration Time (usec): 100000 (USB2+H05261)
Spectra Averaged: 1 (USB2+H05261)
Boxcar Smoothing: 0 (USB2+H05261)
Correct for Electrical Dark: No (USB2+H05261)
Strobe/Lamp Enabled: No (USB2+H05261)
Correct for Detector Non-linearity: No (USB2+H05261)
Correct for Stray Light: No (USB2+H05261)
Number of Pixels in Processed Spectrum: 2048
>>>>>Begin Processed Spectral Data<<<<<
365.73	117.03
365.92	117.03
366.12	117.03
366.32	72.56
366.52	93.62
366.72	63.19
366.91	25.75
367.11	28.09
367.31	0.00
367.51	84.26
367.70	32.77
367.90	35.11
368.10	72.56
368.30	0.00
368.49	18.72
368.69	100.64
368.89	72.56
369.09	79.58
369.28	93.62
369.48	67.88
369.68	53.83
369.87	77.24
370.07	159.16
370.27	100.64
370.47	184.90
370.66	390.87
370.86	447.04
371.06	482.15
371.25	435.34
371.45	463.43
371.65	468.11
371.84	421.30
372.04	442.36
372.24	531.30
372.44	486.83
372.63	486.83
372.83	514.92
373.03	484.49
373.22	517.26
373.42	540.66
373.62	580.45
373.81	582.79
374.01	543.00
374.21	517.26
374.40	510.24
374.60	582.79
374.79	540.66
374.99	514.92
375.19	578.11
375.38	571.09
375.58	545.34
375.78	585.13
375.97	517.26
376.17	653.01
376.37	592.16
376.56	578.11
376.76	568.75
376.95	575.77
377.15	645.99
377.35	545.34
377.54	681.10
377.74	578.11
377.93	662.37
378.13	627.26
378.33	648.33
378.52	641.31
378.72	566.41
378.91	615.56
379.11	580.45
379.31	634.29
379.50	568.75
379.70	594.50
379.89	662.37
380.09	594.50
380.28	690.46
380.48	617.90
380.68	690.46
380.87	622.58
381.07	711.52
381.26	676.41
381.46	578.11
381.65	624.92
381.85	634.29
382.04	690.46
382.24	688.12
382.43	627.26
382.63	737.27
382.83	699.82
383.02	812.17
383.22	772.38
383.41	711.52
383.61	636.63
383.80	763.01
384.00	699.82
384.19	704.50
384.39	781.74
384.58	795.78
384.78	753.65
384.97	788.76
385.17	786.42
385.36	826.21
385.56	758.33
385.75	767.70
385.95	739.61
386.14	819.19
386.34	858.98
386.53	884.72
386.72	772.38
386.92	830.89
387.11	786.42
387.31	830.89
387.50	884.72
387.70	807.48
387.89	863.66
388.09	828.55
388.28	840.25
388.48	772.38
388.67	880.04
388.86	870.68
389.06	926.85
389.25	950.26
389.45	1015.79
389.64	978.34
389.84	938.55
390.03	903.45
390.22	961.96
390.42	884.72
390.61	919.83
390.81	875.36
391.00	966.64
391.19	947.92
391.39	978.34
391.58	1006.43
391.78	992.39
391.97	992.39
392.16	912.81
392.36	1008.77
392.55	959.62
392.75	966.64
392.94	1011.11
393.13	1004.09
393.33	943.24
393.52	938.55
393.71	1022.81
393.91	1088.35
394.10	1034.52
394.29	1097.71
394.49	1071.97
394.68	1160.91
394.88	1100.05
395.07	1172.61
395.26	1153.88
395.46	1139.84
395.65	1142.18
395.84	1165.59
396.04	1137.50
396.23	1114.10
396.42	1104.73
396.62	1078.99
396.81	1217.08
397.00	1181.97
397.19	1151.54
397.39	1284.95
397.58	1210.06
397.77	1247.51
397.97	1179.63
398.16	1219.42
398.35	1254.53
398.55	1380.92
398.74	1345.81
398.93	1371.55
399.12	1294.32
399.32	1385.60
399.51	1352.83
399.70	1479.22
399.90	1516.67
400.09	1446.45
400.28	1519.01
400.47	1425.39
400.67	1469.86
400.86	1483.90
401.05	1481.56
401.24	1624.33
401.44	1406.66
401.63	1483.90
401.82	1544.75
402.01	1610.29
402.21	1586.88
402.40	1526.03
402.59	1540.07
402.78	1589.22
402.97	1645.40
403.17	1591.56
403.36	1633.69
403.55	1535.39
403.74	1671.14
403.93	1689.87
404.13	1783.49
404.32	1675.82
404.51	1736.68
404.70	1710.93
404.89	1678.16
405.09	1806.89
405.28	1795.19
405.47	1708.59
405.66	1734.34
405.85	1834.98
406.05	1839.66
406.24	1816.26
406.43	1722.63
406.62	1750.72
406.81	1968.39
407.00	1797.53
407.20	1813.92
407.39	1898.17
407.58	1989.46
407.77	1935.62
407.96	1977.75
408.15	1905.20
408.34	1884.13
408.54	1944.99
408.73	2104.14
408.92	2017.54
409.11	2104.14
409.30	2024.56
409.49	2083.08
409.68	2064.35
409.87	2031.58
410.07	2134.57
410.26	2162.66
410.45	2169.68
410.64	2186.06
410.83	2218.83
411.02	2284.36
411.21	2354.58
411.40	2197.76
411.59	2324.15
411.78	2211.81
411.98	2282.02
412.17	2338.20
412.36	2340.54
412.55	2422.45
412.74	2614.38
412.93	2429.48
413.12	2406.07
413.31	2677.57
413.50	2565.23
413.69	2558.21
413.88	2698.64
414.07	2637.78
414.26	2672.89
414.45	2705.66
414.64	2654.17
414.83	2736.09
415.02	2782.90
415.22	2794.60
415.41	2902.26
415.60	2750.13
415.79	2899.92
415.98	2897.58
416.17	2895.24
416.36	2869.50
416.55	2864.82
416.74	2874.18
416.93	2946.73
417.12	2942.05
417.31	3009.93
417.50	3023.97
417.69	3192.49
417.88	3185.47
418.07	3136.32
418.26	3169.09
418.45	3089.51
418.64	3213.56
418.83	3239.30
419.02	3281.43
419.21	3241.64
419.39	3300.16
419.58	3243.98
419.77	3171.43
419.96	3353.99
420.15	3251.00
420.34	3162.06
420.53	3344.63
420.72	3478.04
420.91	3325.90
421.10	3445.27
421.29	3604.42
421.48	3487.40
421.67	3604.42
421.86	3520.17
422.05	3550.59
422.24	3501.44
422.43	3501.44
422.61	3475.70
422.80	3611.45
422.99	3581.02
423.18	3588.04
423.37	3646.55
423.56	3630.17
423.75	3555.27
423.94	3627.83
424.13	3421.86
424.32	3424.20
424.50	3667.62
424.69	3726.13
424.88	3728.47
425.07	3522.51
425.26	3581.02
425.45	3552.93
425.64	3604.42
425.83	3637.19
426.01	3552.93
426.20	3557.61
426.39	3681.66
426.58	3599.74
426.77	3609.11
426.96	3550.59
427.15	3730.81
427.33	3803.37
427.52	3824.44
427.71	3756.56
427.90	3644.21
428.09	3775.28
428.28	3721.45
428.46	3831.46
428.65	3763.58
428.84	3779.97
429.03	4056.15
429.22	3805.71
429.40	3854.86
429.59	3861.88
429.78	3758.90
429.97	3639.53
430.16	3817.41
430.34	3911.04
430.53	3852.52
430.72	3904.01
430.91	3950.82
431.10	3911.04
431.28	4117.00
431.47	4198.92
431.66	4257.43
431.85	4145.09
432.03	4306.59
432.22	4491.49
432.41	4308.93
432.60	4308.93
432.79	4329.99
432.97	4301.90
433.16	4322.97
433.35	4149.77
433.54	4269.14
433.72	4358.08
433.91	4329.99
434.10	4388.50
434.28	4393.19
434.47	4367.44
434.66	4444.68
434.85	4510.21
435.03	4503.19
435.22	4727.88
435.41	4758.31
435.59	4718.52
435.78	4711.50
435.97	4655.33
436.16	4751.29
436.34	4732.56
436.53	4767.67
436.72	4793.42
436.90	4681.07
437.09	4760.65
437.28	4622.56
437.46	4760.65
437.65	4594.47
437.84	4678.73
438.02	4798.10
438.21	4828.53
438.40	4727.88
438.58	4929.17
438.77	4858.95
438.96	5081.30
439.14	5114.07
439.33	5146.84
439.52	5062.58
439.70	5128.11
439.89	5315.36
440.08	5252.16
440.26	5240.46
440.45	5411.32
440.63	5371.53
440.82	5474.51
441.01	5432.38
441.19	5355.15
441.38	5568.13
441.57	5675.80
441.75	5610.26
441.94	5661.76
442.12	5654.73
442.31	5762.40
442.50	5907.51
442.68	5661.76
442.87	5893.47
443.05	5678.14
443.24	6015.18
443.43	5982.41
443.61	5928.58
443.80	5870.06
443.98	5736.65
444.17	5799.85
444.35	5753.04
444.54	5949.64
444.73	6106.46
444.91	5961.34
445.10	5769.42
445.28	5900.49
445.47	5996.45
445.65	6024.54
445.84	6005.81
446.02	5849.00
446.21	5998.79
446.39	5963.68
446.58	6033.90
446.77	6104.12
446.95	5968.37
447.14	6064.33
447.32	6193.06
447.51	6057.31
447.69	6148.59
447.88	6120.50
448.06	6122.84
448.25	6230.51
448.43	6069.01
448.62	6153.27
448.80	6122.84
448.99	6209.44
449.17	6216.46
449.36	6162.63
449.54	6274.98
449.73	6436.47
449.91	6614.35
450.10	6319.45
450.28	6614.35
450.46	6389.66
450.65	6349.87
450.83	6579.25
451.02	6551.16
451.20	6464.56
451.39	6581.59
451.57	6525.41
451.76	6408.39
451.94	6579.25
452.13	6583.93
452.31	6506.69
452.49	6504.35
452.68	6630.74
452.86	6560.52
453.05	6736.06
453.23	6754.79
453.42	6656.48
453.60	6684.57
453.78	6736.06
453.97	6768.83
454.15	6832.02
454.34	6726.70
454.52	6794.58
454.70	6906.92
454.89	6815.64
455.07	6984.16
455.26	6988.84
455.44	7087.14
455.62	7084.80
455.81	7021.61
455.99	6988.84
456.17	6949.05
456.36	7082.46
456.54	7253.32
456.73	7316.51
456.91	7316.51
457.09	7311.83
457.28	7602.06
457.46	7349.28
457.64	7452.27
457.83	7295.45
458.01	7360.98
458.19	7499.08
458.38	7517.80
458.56	7620.78
458.74	7583.34
458.93	7522.48
459.11	7644.19
459.29	7592.70
459.48	7669.94
459.66	7581.00
459.84	7634.83
460.03	7772.92
460.21	7751.85
460.39	7700.36
460.57	7719.09
460.76	7801.01
460.94	8023.36
461.12	8112.30
461.31	8102.93
461.49	7901.65
461.67	7932.08
461.85	8112.30
462.04	7969.52
462.22	8514.87
462.40	7999.95
462.59	8044.42
462.77	8114.64
462.95	8294.86
463.13	8119.32
463.32	8332.31
463.50	8058.46
463.68	8124.00
463.86	8390.82
464.05	8056.12
464.23	8037.40
464.41	8383.80
464.59	8344.01
464.78	8573.38
464.96	8388.48
465.14	8196.56
465.32	8444.65
465.50	8514.87
465.69	8498.49
465.87	8484.44
466.05	8645.94
466.23	8355.71
466.41	8421.25
466.60	8667.00
466.78	8538.27
466.96	8603.81
467.14	8439.97
467.32	8479.76
467.51	8849.57
467.69	8510.19
467.87	8568.70
468.05	8872.97
468.23	8634.24
468.41	8793.39
468.60	8484.44
468.78	8823.82
468.96	8641.26
469.14	8575.72
469.32	9170.22
469.50	8702.11
469.69	9104.68
469.87	9076.60
470.05	9011.06
470.23	9020.42
470.41	9118.73
470.59	9205.33
470.77	9111.71
470.95	9186.60
471.14	9252.14
471.32	9135.11
471.50	9572.79
471.68	9430.02
471.86	9570.45
472.04	9523.64
472.22	9596.20
472.40	9217.03
472.58	9561.09
472.77	9731.95
472.95	9734.29
473.13	10167.29
473.31	9661.73
473.49	9806.84
473.67	9870.04
473.85	9727.27
474.03	10139.20
474.21	10094.73
474.39	9991.75
474.57	10099.41
474.75	10150.90
474.93	10235.16
475.12	9998.77
475.30	10207.08
475.48	10237.50
475.66	10422.41
475.84	10314.74
476.02	10363.89
476.20	10752.42
476.38	10665.82
476.56	10951.37
476.74	11084.78
476.92	11054.35
477.10	10724.33
477.28	10993.50
477.46	11054.35
477.64	11494.37
477.82	11435.86
478.00	11705.02
478.18	11316.49
478.36	11618.42
478.54	11494.37
478.72	11768.21
478.90	12018.65
479.08	11992.90
479.26	12334.62
479.44	12205.89
479.62	12285.47
479.80	12175.47
479.98	12187.17
480.16	12812.09
480.34	12461.01
480.52	12538.25
480.70	12655.28
480.88	12688.04
481.06	12765.28
481.24	12758.26
481.41	13144.45
481.59	12968.91
481.77	13446.38
481.95	13516.59
482.13	13633.62
482.31	13451.06
482.49	13575.11
482.67	13968.32
482.85	13891.08
483.03	13865.33
483.21	14230.46
483.39	14345.14
483.57	14132.15
483.74	14417.70
483.92	14401.32
484.10	14396.64
484.28	14499.62
484.46	14684.52
484.64	14977.09
484.82	14864.74
485.00	14843.68
485.18	15269.66
485.35	15412.43
485.53	14972.41
485.71	15274.34
485.89	15279.02
486.07	15152.63
486.25	15501.37
486.43	15648.82
486.61	15915.64
486.78	16381.41
486.96	16168.42
487.14	16269.06
487.32	16709.08
487.50	16704.40
487.68	16500.78
487.85	17027.40
488.03	17128.04
488.21	17343.37
488.39	17036.76
488.57	17476.78
488.75	17439.33
488.92	17568.06
489.10	17848.93
489.28	18078.30
489.46	17673.39
489.64	18174.26
489.81	18614.28
489.99	18590.88
490.17	18759.39
490.35	18925.57
490.53	18750.03
490.70	19096.43
490.88	19126.86
491.06	19403.04
491.24	19323.46
491.41	19386.66
491.59	19484.96
491.77	19779.87
491.95	19758.80
492.13	19946.05
492.30	20140.31
492.48	20027.96
492.66	20224.57
492.84	20290.10
493.01	20685.65
493.19	20212.87
493.37	20704.38
493.54	20884.60
493.72	21027.37
493.90	21167.80
494.08	21312.92
494.25	21561.02
494.43	21404.20
494.61	21764.64
494.79	21837.20
494.96	21701.45
495.14	21710.81
495.32	21771.66
495.49	22122.74
495.67	22228.07
495.85	22333.39
496.02	22661.07
496.20	22750.01
496.38	22508.93
496.55	22817.88
496.73	23419.40
496.91	23070.66
497.09	23152.58
497.26	23452.17
497.44	23349.18
497.62	23396.00
497.79	23606.64
497.97	23211.09
498.14	23751.76
498.32	23910.91
498.50	23899.21
498.67	24496.05
498.85	24077.09
499.03	24645.84
499.20	24671.59
499.38	24631.80
499.56	24809.68
499.73	24617.75
499.91	24797.98
500.08	24907.98
500.26	24924.36
500.44	24875.21
500.61	25017.99
500.79	24907.98
500.97	25284.81
501.14	25607.80
501.32	25401.83
501.49	25692.06
501.67	25542.27
501.84	25682.70
502.02	25706.10
502.20	25926.11
502.37	25675.68
502.55	26040.80
502.72	26361.45
502.90	26321.66
503.07	26195.28
503.25	26087.61
503.43	26483.16
503.60	26368.48
503.78	26366.13
503.95	26419.97
504.13	26705.51
504.30	26806.16
504.48	27028.51
504.65	27288.31
504.83	27445.12
505.01	27435.76
505.18	27257.88
505.36	27847.69
505.53	27562.15
505.71	27985.79
505.88	27817.27
506.06	27477.89
506.23	27644.07
506.41	27592.58
506.58	27564.49
506.76	27913.23
506.93	28175.37
507.11	28084.09
507.28	28079.41
507.46	28294.74
507.63	28013.87
507.81	28720.71
507.98	28407.08
508.16	28697.31
508.33	28767.52
508.50	28879.87
508.68	28933.70
508.85	29212.23
509.03	29090.52
509.20	29460.32
509.38	29371.38
509.55	29233.29
509.73	29729.48
509.90	29425.22
510.08	29465.00
510.25	29539.90
510.42	29579.69
510.60	29689.70
510.77	29715.44
510.95	29820.77
511.12	30244.40
511.30	30078.22
511.47	30768.68
511.64	30527.61
511.82	30487.82
511.99	29827.79
512.17	30637.61
512.34	30661.02
512.51	30656.34
512.69	30771.02
512.86	31175.94
513.04	31236.79
513.21	30909.11
513.38	31358.50
513.56	30857.62
513.73	31187.64
513.90	31508.29
514.08	31070.61
514.25	31428.71
514.43	31267.22
514.60	31552.76
514.77	31316.37
514.95	31805.54
515.12	31318.71
515.29	31711.92
515.47	31810.22
515.64	32280.67
515.81	32093.43
515.99	32128.53
516.16	32046.62
516.33	31728.30
516.51	32177.68
516.68	31604.25
516.85	32048.96
517.03	31943.63
517.20	32304.07
517.37	32608.34
517.54	32910.27
517.72	32849.42
517.89	32327.48
518.06	32840.06
518.24	32343.86
518.41	32388.33
518.58	32734.73
518.75	33060.07
518.93	32905.59
519.10	33455.62
519.27	33474.34
519.45	33362.00
519.62	33247.31
519.79	33144.33
519.96	33539.88
520.14	34010.32
520.31	33750.52
520.48	33921.38
520.65	33771.59
520.83	34298.21
521.00	33961.17
521.17	34019.69
521.34	34422.26
521.52	33958.83
521.69	34387.15
521.86	33989.26
522.03	34471.41
522.20	34506.52
522.38	34464.39
522.55	34684.40
522.72	34534.60
522.89	34913.77
523.07	35000.37
523.24	34684.40
523.41	34899.73
523.58	35051.86
523.75	35051.86
523.92	35068.25
524.10	35260.17
524.27	35634.66
524.44	35433.37
524.61	35112.72
524.78	35337.41
524.96	35648.70
525.13	35482.52
525.30	35924.88
525.47	35725.94
525.64	35585.50
525.81	36070.00
525.98	35934.24
526.16	35545.72
526.33	35840.62
526.50	35800.83
526.67	35707.21
526.84	35917.86
527.01	35934.24
527.18	36133.19
527.36	36301.71
527.53	36065.31
527.70	36720.66
527.87	36470.23
528.04	36828.33
528.21	36084.04
528.38	36203.41
528.55	37146.64
528.72	36720.66
528.89	36907.91
529.07	36641.09
529.24	36851.73
529.41	37230.90
529.58	36898.55
529.75	36318.09
529.92	36849.39
530.09	37273.03
530.26	37067.06
530.43	37303.46
530.60	37420.48
530.77	36947.70
530.94	37198.13
531.11	37455.59
531.28	37081.11
531.46	37357.29
531.63	38153.07
531.80	37514.11
531.97	37579.64
532.14	37621.77
532.31	37940.08
532.48	38115.62
532.65	37930.72
532.82	37769.22
532.99	38092.22
533.16	37675.60
533.33	37928.38
533.50	37975.19
533.67	38064.13
533.84	37687.31
534.01	38026.68
534.18	38408.19
534.35	38352.02
534.52	38480.75
534.69	38253.72
534.86	38923.11
535.03	38157.75
535.20	38766.29
535.37	38953.54
535.54	38796.72
535.71	39047.16
535.88	38639.90
536.05	38665.65
536.22	39180.57
536.38	39117.37
536.55	39089.29
536.72	39047.16
536.89	38483.09
537.06	38965.24
537.23	39491.86
537.40	39065.88
537.57	39278.87
537.74	39058.86
537.91	39576.12
538.08	39784.43
538.25	38958.22
538.42	39487.18
538.59	39700.17
538.75	39318.66
538.92	39505.90
539.09	39615.91
539.26	39718.89
539.43	39587.82
539.60	39674.42
539.77	39676.76
539.94	39882.73
540.11	39431.01
540.28	39587.82
540.44	39777.40
540.61	39608.89
540.78	39702.51
540.95	40175.30
541.12	39643.99
541.29	39826.56
541.46	40086.36
541.62	40217.43
541.79	39964.65
541.96	40034.86
542.13	40289.98
542.30	40081.67
542.47	40730.00
542.63	40229.13
542.80	40280.62
542.97	40713.62
543.14	41174.70
543.31	40809.58
543.48	40954.69
543.64	41825.37
543.81	41158.32
543.98	41001.50
544.15	40802.56
544.32	41324.50
544.48	41841.76
544.65	41277.69
544.82	41235.56
544.99	40589.57
545.16	41043.63
545.32	40746.39
545.49	41502.38
545.66	41383.01
545.83	41343.22
546.00	41626.43
546.16	41500.04
546.33	41380.67
546.50	41273.01
546.67	41961.12
546.83	41083.42
547.00	41249.60
547.17	41476.63
547.34	41642.81
547.50	41312.80
547.67	41865.16
547.84	41528.13
548.00	41914.31
548.17	42288.80
548.34	41757.50
548.51	42412.85
548.67	42225.60
548.84	42377.74
549.01	42000.91
549.18	42036.02
549.34	42438.59
549.51	42078.15
549.68	42700.73
549.84	42312.20
550.01	42508.81
550.18	42422.21
550.34	42136.66
550.51	42113.26
550.68	42267.73
550.84	41911.97
551.01	42476.04
551.18	42405.83
551.34	42277.10
551.51	42387.10
551.68	42541.58
551.84	43098.62
552.01	42459.66
552.18	42705.41
552.34	42415.19
552.51	42740.52
552.68	42492.43
552.84	42895.00
553.01	43019.05
553.18	42326.25
553.34	42419.87
553.51	42642.22
553.67	42934.79
553.84	43257.78
554.01	43175.86
554.17	43363.11
554.34	43299.91
554.51	43227.35
554.67	43732.91
554.84	43206.29
555.00	43063.52
555.17	42770.95
555.33	43068.20
555.50	43566.73
555.67	43143.09
555.83	43227.35
556.00	43203.95
556.16	43466.09
556.33	43543.33
556.50	43037.77
556.66	43871.00
556.83	43210.97
556.99	43812.49
557.16	43548.01
557.32	43438.00
557.49	43852.28
557.65	43910.79
557.82	43454.39
557.98	43199.27
558.15	43611.20
558.32	43320.98
558.48	43842.92
558.65	43260.12
558.81	43461.41
558.98	43636.95
559.14	43328.00
559.31	43393.53
559.47	43646.31
559.64	44219.74
559.80	44329.75
559.97	44123.78
560.13	43438.00
560.30	43936.54
560.46	43849.94
560.63	43992.71
560.79	44079.31
560.96	44189.31
561.12	44053.56
561.29	43845.26
561.45	44205.70
561.61	43995.05
561.78	44034.84
561.94	43683.76
562.11	43999.73
562.27	44009.09
562.44	44067.61
562.60	43882.70
562.77	44367.20
562.93	44378.90
563.10	43775.04
563.26	44095.69
563.42	44025.48
563.59	44486.56
563.75	44002.07
563.92	44484.22
564.08	44306.34
564.24	44596.57
564.41	44315.70
564.57	44142.50
564.74	44484.22
564.90	44765.09
565.07	44470.18
565.23	44460.82
565.39	44521.67
565.56	44332.09
565.72	44189.31
565.88	44381.24
566.05	44493.58
566.21	43910.79
566.38	44226.76
566.54	44549.76
566.70	44179.95
566.87	44601.25
567.03	44299.32
567.19	44545.08
567.36	44533.37
567.52	44334.43
567.68	44832.96
567.85	44275.91
568.01	44802.53
568.17	44657.42
568.34	44727.64
568.50	44371.88
568.66	44495.92
568.83	44748.70
568.99	44313.36
569.15	44451.45
569.32	44725.30
569.48	44767.43
569.64	44917.22
569.81	44619.97
569.97	44767.43
570.13	44531.03
570.30	44428.05
570.46	44156.55
570.62	44332.09
570.78	44619.97
570.95	44203.36
571.11	44765.09
571.27	44545.08
571.43	44842.32
571.60	45123.19
571.76	44397.62
571.92	44699.55
572.09	44439.75
572.25	44626.99
572.41	44282.94
572.57	44905.52
572.74	45116.17
572.90	44519.33
573.06	45095.10
573.22	45179.36
573.38	45010.84
573.55	44416.35
573.71	44926.58
573.87	44320.38
574.03	44538.05
574.20	44643.38
574.36	45116.17
574.52	44655.08
574.68	44636.36
574.84	44577.84
575.01	44737.00
575.17	45177.02
575.33	44671.46
575.49	44542.74
575.65	44772.11
575.82	45209.79
575.98	44631.68
576.14	45366.60
576.30	44811.90
576.46	44755.72
576.62	44500.61
576.79	44872.75
576.95	44322.72
577.11	44891.48
577.27	44987.44
577.43	44807.22
577.59	44591.89
577.75	45099.78
577.92	44624.65
578.08	44727.64
578.24	44348.47
578.40	44692.53
578.56	45228.51
578.72	44839.98
578.88	44889.13
579.04	44856.37
579.21	45031.91
579.37	44776.79
579.53	44680.83
579.69	44889.13
579.85	44891.48
580.01	44842.32
580.17	45041.27
580.33	45095.10
580.49	44961.69
580.65	45202.77
580.82	45134.89
580.98	44971.05
581.14	45027.23
581.30	44903.18
581.46	45050.63
581.62	44942.97
581.78	44825.94
581.94	45249.58
582.10	45043.61
582.26	45099.78
582.42	45055.31
582.58	44992.12
582.74	44650.40
582.90	44615.29
583.06	45029.57
583.22	45158.30
583.38	45436.82
583.54	45364.26
583.70	44847.00
583.86	44905.52
584.02	44942.97
584.18	45230.85
584.34	45223.83
584.50	45488.31
584.66	45291.71
584.82	44509.97
584.98	45450.86
585.14	44882.11
585.30	44893.82
585.46	45193.40
585.62	44596.57
585.78	45132.55
585.94	44680.83
586.10	45382.99
586.26	44788.49
586.42	45155.96
586.58	45586.61
586.74	44832.96
586.90	45198.09
587.06	45139.57
587.22	45399.37
587.38	45240.21
587.54	45598.32
587.70	45530.44
587.86	45528.10
588.02	44954.67
588.18	45584.27
588.34	44921.90
588.49	44884.45
588.65	44439.75
588.81	44744.02
588.97	44605.93
589.13	44729.98
589.29	44744.02
589.45	45165.32
589.61	45382.99
589.77	45303.41
589.93	45413.41
590.08	45593.64
590.24	45170.00
590.40	45233.19
590.56	45710.66
590.72	45518.74
590.88	45186.38
591.04	45345.54
591.20	45558.53
591.35	45478.95
591.51	45277.66
591.67	45617.04
591.83	45127.87
591.99	45504.70
592.15	44900.84
592.31	45610.02
592.46	45287.03
592.62	45167.66
592.78	45635.77
592.94	45228.51
593.10	45626.40
593.26	45184.04
593.41	45474.27
593.57	44856.37
593.73	45160.64
593.89	45357.24
594.05	45291.71
594.20	45165.32
594.36	45572.57
594.52	45474.27
594.68	45123.19
594.84	45291.71
594.99	45553.85
595.15	45497.67
595.31	45614.70
595.47	45516.40
595.62	45106.80
595.78	45331.50
595.94	45780.88
596.10	45773.86
596.25	45448.52
596.41	45542.14
596.57	45581.93
596.73	45251.92
596.88	44961.69
597.04	45380.65
597.20	45390.01
597.36	45612.36
597.51	45729.39
597.67	45289.37
597.83	45855.78
597.99	45507.04
598.14	45659.17
598.30	45628.74
598.46	45628.74
598.61	45542.14
598.77	45127.87
598.93	45516.40
599.09	45614.70
599.24	46045.36
599.40	45298.73
599.56	45366.60
599.71	45668.53
599.87	45841.73
600.03	45551.51
600.18	45261.28
600.34	45670.87
600.50	45537.46
600.65	44807.22
600.81	45862.80
600.97	45535.12
601.12	45715.34
601.28	45872.16
601.44	45289.37
601.59	45603.00
601.75	44828.28
601.91	45109.14
602.06	45364.26
602.22	45450.86
602.37	45464.91
602.53	45687.26
602.69	46036.00
602.84	45333.84
603.00	45497.67
603.16	45406.39
603.31	44828.28
603.47	45755.13
603.62	45081.06
603.78	45478.95
603.94	45242.56
604.09	45656.83
604.25	45219.15
604.40	45457.88
604.56	45174.68
604.71	45436.82
604.87	45312.77
605.03	45249.58
605.18	45116.17
605.34	45221.49
605.49	44856.37
605.65	45179.36
605.80	45003.82
605.96	45448.52
606.12	45476.61
606.27	45663.85
606.43	45132.55
606.58	45291.71
606.74	44905.52
606.89	45244.90
607.05	45394.69
607.20	45406.39
607.36	45167.66
607.51	45247.24
607.67	45216.81
607.82	45015.52
607.98	45249.58
608.13	44985.10
608.29	45151.27
608.44	45130.21
608.60	44767.43
608.75	44882.11
608.91	44477.20
609.06	44999.14
609.22	45153.62
609.37	44830.62
609.53	44563.80
609.68	44832.96
609.84	44910.20
609.99	44573.16
610.15	44844.66
610.30	44861.05
610.46	44964.03
610.61	44687.85
610.76	44891.48
610.92	44409.32
611.07	44985.10
611.23	44835.30
611.38	44788.49
611.54	44739.34
611.69	44603.59
611.84	44531.03
612.00	44921.90
612.15	44512.31
612.31	44664.44
612.46	44577.84
612.62	44598.91
612.77	45146.59
612.92	44767.43
613.08	44701.89
613.23	44713.59
613.39	44385.92
613.54	43753.97
613.69	44488.90
613.85	44472.52
614.00	44898.50
614.15	44886.79
614.31	44411.67
614.46	44758.06
614.62	44678.49
614.77	44446.77
614.92	44556.78
615.08	44421.03
615.23	44444.43
615.38	44542.74
615.54	43894.41
615.69	44549.76
615.84	44093.35
616.00	44184.63
616.15	43973.98
616.30	44266.55
616.46	44060.58
616.61	44133.14
616.76	44128.46
616.92	43711.84
617.07	44041.86
617.22	44011.43
617.37	43632.27
617.53	44067.61
617.68	44381.24
617.83	44093.35
617.99	44463.16
618.14	44067.61
618.29	43833.55
618.45	43866.32
618.60	43746.95
618.75	43964.62
618.90	43934.20
619.06	44100.37
619.21	43592.48
619.36	43735.25
619.51	43576.09
619.67	43583.12
619.82	43746.95
619.97	43878.02
620.12	43447.36
620.28	43466.09
620.43	43550.35
620.58	43873.34
620.73	43445.02
620.89	42986.28
621.04	43318.64
621.19	43892.07
621.34	42885.64
621.49	43070.54
621.65	43700.14
621.80	43501.20
621.95	43107.99
622.10	43306.93
622.25	43005.00
622.41	42902.02
622.56	43201.61
622.71	43543.33
622.86	43430.98
623.01	43313.95
623.16	42890.32
623.32	43220.33
623.47	43714.19
623.62	43234.38
623.77	43384.17
623.92	43131.39
624.07	43196.93
624.23	42462.00
624.38	42897.34
624.53	42674.99
624.68	43054.15
624.83	42792.01
624.98	42810.74
625.13	42815.42
625.29	42616.47
625.44	42979.26
625.59	42822.44
625.74	42752.23
625.89	42426.89
626.04	42326.25
626.19	42326.25
626.34	42775.63
626.49	42754.57
626.65	42541.58
626.80	42628.18
626.95	42447.96
627.10	42595.41
627.25	41958.78
627.40	41631.11
627.55	42157.73
627.70	41930.70
627.85	42181.13
628.00	42253.69
628.15	42511.15
628.30	42323.91
628.45	42389.44
628.60	42101.56
628.76	42501.79
628.91	42246.67
629.06	41778.56
629.21	41764.52
629.36	42171.77
629.51	41694.30
629.66	41893.25
629.81	41462.59
629.96	41682.60
630.11	41900.27
630.26	42185.82
630.41	41940.06
630.56	42293.48
630.71	41794.95
630.86	41708.35
631.01	41443.87
631.16	41804.31
631.31	41333.86
631.46	41043.63
631.61	41645.15
631.76	41631.11
631.91	41769.20
632.06	41481.31
632.21	41776.22
632.36	41895.59
632.51	41432.16
632.66	41270.67
632.81	41275.35
632.96	41181.73
633.10	41132.57
633.25	40781.49
633.40	41097.47
633.55	41254.28
633.70	41301.09
633.85	41401.74
634.00	41141.94
634.15	41139.60
634.30	41151.30
634.45	41088.10
634.60	40889.16
634.75	41193.43
634.90	41083.42
635.05	40816.60
635.19	40982.78
635.34	41301.09
635.49	41188.75
635.64	40985.12
635.79	40547.44
635.94	40814.26
636.09	41177.04
636.24	40779.15
636.39	40706.60
636.53	40271.26
636.68	40397.65
636.83	41193.43
636.98	40685.53
637.13	40383.60
637.28	40814.26
637.43	40706.60
637.57	40891.50
637.72	40484.25
637.87	40786.18
638.02	40844.69
638.17	40416.37
638.32	40301.68
638.46	40350.84
638.61	40783.83
638.76	40275.94
638.91	40254.87
639.06	40292.32
639.20	40725.32
639.35	40809.58
639.50	40102.74
639.65	40842.35
639.80	40524.04
639.94	40407.01
640.09	39920.18
640.24	40119.12
640.39	40147.21
640.54	39945.92
640.68	40025.50
640.83	40322.75
640.98	40182.32
641.13	39978.69
641.27	40655.11
641.42	39709.53
641.57	40121.46
641.72	40407.01
641.86	39943.58
642.01	39791.45
642.16	39842.94
642.31	39115.03
642.45	40119.12
642.60	39840.60
642.75	39201.63
642.90	39601.86
643.04	39510.58
643.19	39552.71
643.34	39784.43
643.48	39409.94
643.63	39508.24
643.78	39438.03
643.93	39250.78
644.07	39250.78
644.22	39473.13
644.37	39208.65
644.51	39388.88
644.66	39676.76
644.81	39154.82
644.95	39414.62
645.10	39398.24
645.25	39704.85
645.39	39047.16
645.54	39901.45
645.69	39194.61
645.83	39166.52
645.98	39000.35
646.13	39234.40
646.27	39255.46
646.42	38993.32
646.57	39075.24
646.71	39337.38
646.86	39243.76
647.00	39274.19
647.15	39248.44
647.30	39379.51
647.44	39115.03
647.59	38955.88
647.74	38511.17
647.88	38651.61
648.03	38450.32
648.17	39129.08
648.32	38614.16
648.47	38478.41
648.61	38382.45
648.76	38735.87
648.90	38682.03
649.05	38623.52
649.20	39175.89
649.34	39028.43
649.49	38815.44
649.63	38293.50
649.78	38457.34
649.92	38160.09
650.07	39037.80
650.21	38064.13
650.36	38653.95
650.51	38333.29
650.65	38946.51
650.80	38689.06
650.94	38817.78
651.09	38670.33
651.23	38487.77
651.38	38260.74
651.52	37996.26
651.67	38642.24
651.81	38387.13
651.96	38059.45
652.10	38197.54
652.25	37954.13
652.39	38155.41
652.54	38022.00
652.68	38169.46
652.83	38298.19
652.97	37921.36
653.12	37944.76
653.26	37930.72
653.41	38649.27
653.55	37773.91
653.70	38031.36
653.84	37647.52
653.99	38202.22
654.13	37649.86
654.27	37511.77
654.42	37879.23
654.56	37493.04
654.71	37813.70
654.85	37977.53
655.00	37380.70
655.14	37563.26
655.29	37083.45
655.43	37261.33
655.57	37160.69
655.72	37308.14
655.86	36905.57
656.01	37256.65
656.15	37303.46
656.30	37242.60
656.44	37378.36
656.58	37322.18
656.73	36938.33
656.87	37146.64
657.01	36982.80
657.16	36538.10
657.30	36596.62
657.45	37216.86
657.59	36931.31
657.73	37429.85
657.88	37230.90
658.02	36788.54
658.16	37015.57
658.31	37294.10
658.45	37151.32
658.60	36814.29
658.74	36893.86
658.88	36980.46
659.03	36739.39
659.17	36751.09
659.31	36451.50
659.46	36268.94
659.60	36498.31
659.74	36336.82
659.89	36449.16
660.03	36245.54
660.17	36364.90
660.32	36245.54
660.46	36704.28
660.60	36460.87
660.74	36411.71
660.89	36264.26
661.03	36119.15
661.17	36254.90
661.32	35468.48
661.46	35917.86
661.60	35791.47
661.74	35950.63
661.89	35695.51
662.03	35920.20
662.17	35749.34
662.31	35435.71
662.46	35871.05
662.60	35929.56
662.74	35564.44
662.88	35538.69
663.03	35328.05
663.17	35555.08
663.31	35849.99
663.45	35693.17
663.60	35491.88
663.74	34965.26
663.88	35119.74
664.02	35047.18
664.17	35309.32
664.31	34646.95
664.45	34813.13
664.59	35330.39
664.73	34993.35
664.88	35091.65
665.02	34394.17
665.16	34560.35
665.30	34843.56
665.44	34546.31
665.59	34176.50
665.73	34270.12
665.87	34639.93
666.01	34628.23
666.15	34349.70
666.29	34735.89
666.44	34859.94
666.58	34448.00
666.72	34445.66
666.86	34785.04
667.00	34394.17
667.14	34237.36
667.28	34024.37
667.43	34007.98
667.57	33724.78
667.71	33785.63
667.85	33736.48
667.99	33780.95
668.13	33621.80
668.27	33589.03
668.41	33902.66
668.56	33230.93
668.70	33603.07
668.84	33053.05
668.98	33151.35
669.12	33219.22
669.26	33305.82
669.40	33467.32
669.54	32980.49
669.68	33336.25
669.82	32732.39
669.96	33338.59
670.10	32760.48
670.25	32844.74
670.39	32903.25
670.53	32879.85
670.67	33050.70
670.81	32727.71
670.95	33020.28
671.09	33010.92
671.23	32650.47
671.37	33027.30
671.51	32554.51
671.65	32285.35
671.79	32517.06
671.93	32091.09
672.07	32161.30
672.21	32678.56
672.35	31969.38
672.49	32170.66
672.63	32343.86
672.77	31697.88
672.91	32196.41
673.05	31704.90
673.19	31786.82
673.33	31861.71
673.47	31208.70
673.61	31531.70
673.75	31321.05
673.89	31199.34
674.03	30553.35
674.17	30895.07
674.31	31278.92
674.45	31147.85
674.59	31342.11
674.73	31508.29
674.87	31157.21
675.01	30930.18
675.15	30998.06
675.29	31079.97
675.43	30998.06
675.56	30483.14
675.70	30520.59
675.84	30611.87
675.98	29336.27
676.12	29977.58
676.26	29996.31
676.40	30134.40
676.54	30122.69
676.68	29893.32
676.82	29699.06
676.96	29972.90
677.10	29656.93
677.23	29200.52
677.37	29443.94
677.51	29769.27
677.65	29338.62
677.79	28943.06
677.93	29191.16
678.07	29163.08
678.21	29029.66
678.34	28835.40
678.48	28620.07
678.62	28748.80
678.76	28732.42
678.90	28767.52
679.04	28587.30
679.18	28872.85
679.31	28210.48
679.45	28081.75
679.59	27957.70
679.73	28173.03
679.87	27894.50
680.00	27964.72
680.14	27814.93
680.28	27660.45
680.42	27344.48
680.56	27402.99
680.70	27384.27
680.83	27075.32
680.97	27255.54
681.11	27182.98
681.25	27007.44
681.39	27084.68
681.52	27164.26
681.66	26881.05
681.80	26916.16
681.94	26672.74
682.07	26541.68
682.21	25993.99
682.35	26438.69
682.49	26370.82
682.62	26436.35
682.76	26038.46
682.90	26122.72
683.04	25802.07
683.17	25986.97
683.31	25956.54
683.45	26309.96
683.59	25654.61
683.72	25673.34
683.86	25355.02
684.00	25097.56
684.13	25500.14
684.27	25312.89
684.41	25317.57
684.55	25359.70
684.68	24872.87
684.82	24999.26
684.96	24554.56
685.09	24753.51
685.23	24290.08
685.37	24842.45
685.50	24702.01
685.64	24329.87
685.78	24664.57
685.91	24690.31
686.05	24276.04
686.19	23901.55
686.32	23786.86
686.46	23747.08
686.60	23517.70
686.73	23765.80
686.87	23625.37
687.01	23178.33
687.14	23257.90
687.28	23112.79
687.42	22977.04
687.55	23096.41
687.69	23065.98
687.82	22838.95
687.96	22920.87
688.10	22419.99
688.23	22759.37
688.37	22237.43
688.50	22214.02
688.64	22455.10
688.78	22419.99
688.91	22099.34
689.05	22291.26
689.18	21912.10
689.32	21928.48
689.46	21984.65
689.59	22291.26
689.73	22225.73
689.86	21696.77
690.00	21741.24
690.13	21914.44
690.27	21509.52
690.41	21434.63
690.54	21132.70
690.68	21032.05
690.81	21048.44
690.95	20816.72
691.08	21113.97
691.22	20931.41
691.35	20861.19
691.49	20816.72
691.62	20872.90
691.76	20753.53
691.89	20631.82
692.03	20655.23
692.16	20252.66
692.30	20343.94
692.43	20250.32
692.57	20280.74
692.70	20196.48
692.84	20222.23
692.97	20025.62
693.11	19964.77
693.24	19700.29
693.38	19578.58
693.51	19604.33
693.65	19590.28
693.78	19587.94
693.92	19655.82
694.05	19379.64
694.19	19239.20
694.32	19363.25
694.45	19307.08
694.59	19159.63
694.72	19005.15
694.86	18705.56
694.99	18860.04
695.13	18602.58
695.26	18581.51
695.39	18345.12
695.53	18368.52
695.66	18377.89
695.80	18417.68
695.93	18539.38
696.07	18097.02
696.20	17984.68
696.33	18202.35
696.47	18078.30
696.60	17905.10
696.73	18143.83
696.87	17963.61
697.00	17912.12
697.14	17617.21
697.27	17617.21
697.40	17820.84
697.54	17638.28
697.67	17465.08
697.80	17198.26
697.94	17081.23
698.07	17216.98
698.21	17090.59
698.34	16905.69
698.47	16903.35
698.61	16809.73
698.74	16725.47
698.87	16844.84
699.01	16601.42
699.14	16489.07
699.27	16109.91
699.40	16451.63
699.54	16161.40
699.67	16245.66
699.80	16285.45
699.94	15941.39
700.07	16189.49
700.20	16070.12
700.34	15903.94
700.47	15906.28
700.60	15955.43
700.73	16145.02
700.87	15735.42
701.00	15674.57
701.13	15367.96
701.26	15323.49
701.40	15555.20
701.53	15374.98
701.66	15164.33
701.79	15267.31
701.93	15117.52
702.06	14815.59
702.19	14974.75
702.32	14831.97
702.46	14848.36
702.59	14930.28
702.72	14967.73
702.85	14792.19
702.99	14846.02
703.12	14712.61
703.25	14736.01
703.38	14579.20
703.51	14347.48
703.65	14384.93
703.78	14157.90
703.91	14256.20
704.04	14214.07
704.17	13884.06
704.31	14204.71
704.44	13666.39
704.57	13610.22
704.70	13642.98
704.83	13689.79
704.96	13722.56
705.10	13949.59
705.23	13624.26
>>>>>End Processed Spectral Data<<<<<
