SpectraSuite Data File
++++++++++++++++++++++++++++++++++++
Date: Fri Oct 25 10:44:01 EDT 2013
User: price-jones
Dark Spectrum Present: No
Reference Spectrum Present: No
Number of Sampled Component Spectra: 1
Spectrometers: USB2+H05261
Integration Time (usec): 100000 (USB2+H05261)
Spectra Averaged: 1 (USB2+H05261)
Boxcar Smoothing: 0 (USB2+H05261)
Correct for Electrical Dark: No (USB2+H05261)
Strobe/Lamp Enabled: No (USB2+H05261)
Correct for Detector Non-linearity: No (USB2+H05261)
Correct for Stray Light: No (USB2+H05261)
Number of Pixels in Processed Spectrum: 2048
>>>>>Begin Processed Spectral Data<<<<<
365.73	119.37
365.92	119.37
366.12	119.37
366.32	32.77
366.52	67.88
366.72	119.37
366.91	0.00
367.11	0.00
367.31	32.77
367.51	2.34
367.70	0.00
367.90	56.17
368.10	0.00
368.30	0.00
368.49	0.00
368.69	65.54
368.89	112.35
369.09	30.43
369.28	81.92
369.48	74.90
369.68	70.22
369.87	74.90
370.07	161.50
370.27	107.66
370.47	170.86
370.66	451.72
370.86	526.62
371.06	451.72
371.25	500.87
371.45	440.02
371.65	482.15
371.84	433.00
372.04	407.25
372.24	444.70
372.44	559.39
372.63	517.26
372.83	472.79
373.03	491.51
373.22	519.60
373.42	580.45
373.62	498.53
373.81	606.20
374.01	524.28
374.21	568.75
374.40	540.66
374.60	528.96
374.79	517.26
374.99	617.90
375.19	695.14
375.38	510.24
375.58	638.97
375.78	671.73
375.97	645.99
376.17	692.80
376.37	538.32
376.56	655.35
376.76	599.18
376.95	667.05
377.15	631.94
377.35	669.39
377.54	725.57
377.74	697.48
377.93	617.90
378.13	690.46
378.33	753.65
378.52	681.10
378.72	732.59
378.91	660.03
379.11	699.82
379.31	653.01
379.50	617.90
379.70	732.59
379.89	713.86
380.09	713.86
380.28	723.23
380.48	716.20
380.68	697.48
380.87	821.53
381.07	692.80
381.26	716.20
381.46	758.33
381.65	725.57
381.85	674.07
382.04	723.23
382.24	723.23
382.43	798.12
382.63	777.06
382.83	732.59
383.02	699.82
383.22	650.67
383.41	748.97
383.61	755.99
383.80	770.04
384.00	823.87
384.19	800.46
384.39	826.21
384.58	835.57
384.78	835.57
384.97	875.36
385.17	793.44
385.36	800.46
385.56	870.68
385.75	814.51
385.95	814.51
386.14	908.13
386.34	809.83
386.53	849.61
386.72	788.76
386.92	821.53
387.11	786.42
387.31	898.77
387.50	891.74
387.70	837.91
387.89	908.13
388.09	858.98
388.28	894.08
388.48	898.77
388.67	959.62
388.86	957.28
389.06	940.90
389.25	1011.11
389.45	947.92
389.64	1020.47
389.84	1074.31
390.03	1032.18
390.22	1025.15
390.42	968.98
390.61	1020.47
390.81	1050.90
391.00	1013.45
391.19	1090.69
391.39	1071.97
391.58	1128.14
391.78	1151.54
391.97	1060.26
392.16	1093.03
392.36	1039.20
392.55	1001.75
392.75	1013.45
392.94	947.92
393.13	1008.77
393.33	1074.31
393.52	1022.81
393.71	1156.22
393.91	1142.18
394.10	1118.78
394.29	1186.65
394.49	1170.27
394.68	1242.82
394.88	1128.14
395.07	1259.21
395.26	1282.61
395.46	1277.93
395.65	1380.92
395.84	1320.06
396.04	1366.87
396.23	1259.21
396.42	1228.78
396.62	1135.16
396.81	1165.59
397.00	1359.85
397.19	1207.72
397.39	1352.83
397.58	1383.26
397.77	1432.41
397.97	1497.94
398.16	1404.32
398.35	1462.83
398.55	1521.35
398.74	1493.26
398.93	1610.29
399.12	1650.08
399.32	1586.88
399.51	1643.06
399.70	1647.74
399.90	1514.33
400.09	1598.59
400.28	1703.91
400.47	1680.50
400.67	1671.14
400.86	1806.89
401.05	1689.87
401.24	1703.91
401.44	1755.40
401.63	1743.70
401.82	1790.51
402.01	1757.74
402.21	1916.90
402.40	1760.08
402.59	1771.79
402.78	1893.49
402.97	1790.51
403.17	1816.26
403.36	1980.09
403.55	1811.57
403.74	1947.33
403.93	1952.01
404.13	1994.14
404.32	1947.33
404.51	1923.92
404.70	2010.52
404.89	1996.48
405.09	2106.48
405.28	1961.37
405.47	1996.48
405.66	2017.54
405.85	2064.35
406.05	1977.75
406.24	2017.54
406.43	2094.78
406.62	2160.31
406.81	2195.42
407.00	2176.70
407.20	2125.21
407.39	2101.80
407.58	2263.30
407.77	2392.03
407.96	2368.62
408.15	2246.91
408.34	2221.17
408.54	2373.30
408.73	2349.90
408.92	2401.39
409.11	2462.24
409.30	2415.43
409.49	2401.39
409.68	2368.62
409.87	2296.07
410.07	2401.39
410.26	2382.67
410.45	2502.03
410.64	2525.44
410.83	2431.82
411.02	2647.15
411.21	2761.83
411.40	2647.15
411.59	2597.99
411.78	2672.89
411.98	2647.15
412.17	2705.66
412.36	2778.22
412.55	2764.17
412.74	2771.19
412.93	2895.24
413.12	2787.58
413.31	2909.29
413.50	2803.96
413.69	2867.16
413.88	3035.67
414.07	3033.33
414.26	3007.59
414.45	3094.19
414.64	3091.85
414.83	3070.78
415.02	3080.14
415.22	3162.06
415.41	3265.05
415.60	3194.83
415.79	3295.47
415.98	3323.56
416.17	3269.73
416.36	3309.52
416.55	3325.90
416.74	3372.71
416.93	3248.66
417.12	3328.24
417.31	3321.22
417.50	3473.36
417.69	3569.32
417.88	3482.72
418.07	3492.08
418.26	3517.83
418.45	3646.55
418.64	3602.08
418.83	3730.81
419.02	3709.75
419.21	3709.75
419.39	3751.88
419.58	3590.38
419.77	3611.45
419.96	3707.41
420.15	3693.37
420.34	3805.71
420.53	4007.00
420.72	3941.46
420.91	3932.10
421.10	3833.80
421.29	4021.04
421.48	3969.55
421.67	4037.42
421.86	3763.58
422.05	3730.81
422.24	3878.27
422.43	3899.33
422.61	3983.59
422.80	4114.66
422.99	4086.58
423.18	4093.60
423.37	4032.74
423.56	4028.06
423.75	4194.24
423.94	3983.59
424.13	3735.50
424.32	3941.46
424.50	4191.90
424.69	4102.96
424.88	4044.45
425.07	4105.30
425.26	4079.55
425.45	4053.81
425.64	4016.36
425.83	4077.21
426.01	4035.08
426.20	4138.07
426.39	4112.32
426.58	3985.93
426.77	4067.85
426.96	4100.62
427.15	4049.13
427.33	4184.88
427.52	4072.53
427.71	4283.18
427.90	4166.15
428.09	4304.25
428.28	4332.33
428.46	4210.62
428.65	4372.12
428.84	4447.02
429.03	4290.20
429.22	4269.14
429.40	4383.82
429.59	4283.18
429.78	4021.04
429.97	4070.19
430.16	4056.15
430.34	4112.32
430.53	4100.62
430.72	4306.59
430.91	4327.65
431.10	4348.72
431.28	4650.64
431.47	4753.63
431.66	4826.18
431.85	4582.77
432.03	4678.73
432.22	4788.74
432.41	4849.59
432.60	4751.29
432.79	4758.31
432.97	5053.22
433.16	5055.56
433.35	4800.44
433.54	4844.91
433.72	4741.93
433.91	4795.76
434.10	4800.44
434.28	4791.08
434.47	5090.67
434.66	5032.15
434.85	5043.85
435.03	5064.92
435.22	5121.09
435.41	5261.52
435.59	5310.68
435.78	5359.83
435.97	5198.33
436.16	5261.52
436.34	5284.93
436.53	5259.18
436.72	5156.20
436.90	5256.84
437.09	5315.36
437.28	5226.42
437.46	5254.50
437.65	5224.08
437.84	5416.00
438.02	5167.90
438.21	5366.85
438.40	5165.56
438.58	5523.66
438.77	5680.48
438.96	5465.15
439.14	5696.86
439.33	5748.36
439.52	5753.04
439.70	5865.38
439.89	5905.17
440.08	5949.64
440.26	5788.14
440.45	5970.71
440.63	6019.86
440.82	6319.45
441.01	6129.86
441.19	6118.16
441.38	6317.11
441.57	6267.95
441.75	6237.53
441.94	6506.69
442.12	6457.54
442.31	6537.12
442.50	6633.08
442.68	6546.48
442.87	6345.19
443.05	6497.33
443.24	6700.95
443.43	6675.21
443.61	6593.29
443.80	6825.00
443.98	6614.35
444.17	6448.18
444.35	6668.19
444.54	6974.80
444.73	6677.55
444.91	6506.69
445.10	6609.67
445.28	6656.48
445.47	6509.03
445.65	6684.57
445.84	6731.38
446.02	6565.20
446.21	6890.54
446.39	6707.98
446.58	6836.70
446.77	6960.75
446.95	6693.93
447.14	6881.18
447.32	6890.54
447.51	6815.64
447.69	6778.19
447.88	7012.24
448.06	6867.13
448.25	6923.30
448.43	7014.59
448.62	7075.44
448.80	7045.01
448.99	7150.34
449.17	7140.97
449.36	6993.52
449.54	7091.82
449.73	7229.91
449.91	7470.99
450.10	7253.32
450.28	7316.51
450.46	7375.03
450.65	7515.46
450.83	7515.46
451.02	7517.80
451.20	7426.52
451.39	7513.12
451.57	7250.98
451.76	7272.04
451.94	7566.95
452.13	7494.40
452.31	7454.61
452.49	7173.74
452.68	7344.60
452.86	7360.98
453.05	7510.78
453.23	7641.85
453.42	7440.56
453.60	7454.61
453.78	7691.00
453.97	7520.14
454.15	7405.46
454.34	7609.08
454.52	7840.79
454.70	7838.45
454.89	7576.31
455.07	7730.79
455.26	7960.16
455.44	8009.31
455.62	7962.50
455.81	7772.92
455.99	7988.25
456.17	8210.60
456.36	8126.34
456.54	8177.83
456.73	8065.49
456.91	8332.31
457.09	8540.61
457.28	8491.46
457.46	8219.96
457.64	8180.17
457.83	8383.80
458.01	8149.75
458.19	8643.60
458.38	8329.97
458.56	8477.42
458.74	8648.28
458.93	8435.29
459.11	8610.83
459.29	8564.02
459.48	8514.87
459.66	8477.42
459.84	8418.91
460.03	8791.05
460.21	8678.71
460.39	8854.25
460.57	8772.33
460.76	8791.05
460.94	8851.91
461.12	8870.63
461.31	8964.25
461.49	8739.56
461.67	8922.12
461.85	9214.69
462.04	8887.01
462.22	9474.49
462.40	9135.11
462.59	9069.58
462.77	9100.00
462.95	9165.54
463.13	9210.01
463.32	9085.96
463.50	9481.51
463.68	9249.80
463.86	9362.14
464.05	9186.60
464.23	9350.44
464.41	9336.40
464.59	9193.62
464.78	9647.69
464.96	9273.20
465.14	9420.66
465.32	9488.53
465.50	9516.62
465.69	9460.45
465.87	9514.28
466.05	9598.54
466.23	9348.10
466.41	9621.94
466.60	9741.31
466.78	9376.19
466.96	9446.40
467.14	9369.16
467.32	9554.07
467.51	9907.49
467.69	9614.92
467.87	9727.27
468.05	9701.52
468.23	9640.67
468.41	9781.10
468.60	9769.40
468.78	9900.47
468.96	9856.00
469.14	10083.03
469.32	10092.39
469.50	9846.63
469.69	10010.47
469.87	10017.49
470.05	10207.08
470.23	10270.27
470.41	10120.48
470.59	10146.22
470.77	10043.24
470.95	10059.62
471.14	10469.22
471.32	10377.94
471.50	10590.92
471.68	10733.70
471.86	10483.26
472.04	10719.65
472.22	10740.72
472.40	10637.73
472.58	10705.61
472.77	10913.92
472.95	10736.04
473.13	11117.54
473.31	10927.96
473.49	10895.19
473.67	10876.47
473.85	11033.29
474.03	11108.18
474.21	11283.72
474.39	11513.10
474.57	11328.19
474.75	11234.57
474.93	11475.65
475.12	11508.41
475.30	11559.91
475.48	11665.23
475.66	11672.25
475.84	11529.48
476.02	11723.74
476.20	11866.52
476.38	11850.13
476.56	12184.83
476.74	12285.47
476.92	12278.45
477.10	12194.19
477.28	12402.50
477.46	12402.50
477.64	12439.95
477.82	12751.24
478.00	12875.29
478.18	12786.35
478.36	12915.08
478.54	12996.99
478.72	12940.82
478.90	13308.29
479.08	13561.06
479.26	13385.52
479.44	13371.48
479.62	13628.94
479.80	13352.76
479.98	13804.48
480.16	14230.46
480.34	13996.40
480.52	14148.54
480.70	14122.79
480.88	13881.72
481.06	14396.64
481.24	14398.98
481.41	14448.13
481.59	14867.08
481.77	15119.86
481.95	14700.90
482.13	14970.07
482.31	14913.89
482.49	15136.24
482.67	15129.22
482.85	15463.92
483.03	15260.29
483.21	15627.76
483.39	15861.81
483.57	15763.51
483.74	16020.97
483.92	16142.67
484.10	16060.76
484.28	16503.12
484.46	16669.30
484.64	16699.72
484.82	16641.21
485.00	16636.53
485.18	16945.48
485.35	17128.04
485.53	16421.20
485.71	16592.06
485.89	16971.22
486.07	17095.27
486.25	17064.85
486.43	17069.53
486.61	17331.67
486.78	17710.83
486.96	17640.62
487.14	17987.02
487.32	18389.59
487.50	18237.45
487.68	18352.14
487.85	18855.36
488.03	19147.92
488.21	19143.24
488.39	19058.98
488.57	19335.17
488.75	19117.50
488.92	19515.39
489.10	19887.53
489.28	19908.60
489.46	20308.83
489.64	20306.49
489.81	20538.20
489.99	20554.58
490.17	20467.98
490.35	20987.58
490.53	20702.04
490.70	21268.45
490.88	21177.17
491.06	21106.95
491.24	21111.63
491.41	21282.49
491.59	21378.45
491.77	21235.68
491.95	21596.12
492.13	21682.72
492.30	22148.49
492.48	22293.60
492.66	22216.36
492.84	22202.32
493.01	22590.85
493.19	22623.62
493.37	23061.30
493.54	22820.22
493.72	23131.51
493.90	23379.61
494.08	23601.96
494.25	23819.63
494.43	23672.18
494.61	23931.98
494.79	24060.71
494.96	24243.27
495.14	23740.05
495.32	24329.87
495.49	24250.29
495.67	24404.77
495.85	24294.76
496.02	24606.05
496.20	25006.28
496.38	24903.30
496.55	25294.17
496.73	25834.83
496.91	25305.87
497.09	25738.87
497.26	25893.35
497.44	25722.49
497.62	25509.50
497.79	25790.36
497.97	25502.48
498.14	25944.84
498.32	26204.64
498.50	26448.05
498.67	26529.97
498.85	26925.52
499.03	26714.87
499.20	26969.99
499.38	26984.04
499.56	26913.82
499.73	27192.34
499.91	27267.24
500.08	26958.29
500.26	26923.18
500.44	27063.61
500.61	27002.76
500.79	27292.99
500.97	27419.38
501.14	28229.20
501.32	27903.87
501.49	27559.81
501.67	27648.75
501.84	27852.38
502.02	27826.63
502.20	28268.99
502.37	28376.66
502.55	28147.28
502.72	28872.85
502.90	28577.94
503.07	28634.11
503.25	28730.08
503.43	28837.74
503.60	28613.05
503.78	28723.05
503.95	28889.23
504.13	29191.16
504.30	29151.37
504.48	29406.49
504.65	29848.85
504.83	30155.46
505.01	29881.62
505.18	29661.61
505.36	30143.76
505.53	30340.36
505.71	30279.51
505.88	30396.54
506.06	30096.95
506.23	30459.73
506.41	30164.82
506.58	30522.93
506.76	30302.92
506.93	30714.85
507.11	30780.39
507.28	30508.88
507.46	30483.14
507.63	31019.12
507.81	30815.49
507.98	30958.27
508.16	30918.48
508.33	31204.02
508.50	31548.08
508.68	31545.74
508.85	31917.89
509.03	31342.11
509.20	31569.15
509.38	31740.00
509.55	31988.10
509.73	32095.77
509.90	32304.07
510.08	32198.75
510.25	32135.56
510.42	32676.22
510.60	32477.27
510.77	32395.35
510.95	32435.14
511.12	32870.48
511.30	32292.37
511.47	32882.19
511.64	33001.55
511.82	32917.29
511.99	32804.95
512.17	33158.37
512.34	32720.69
512.51	33081.13
512.69	33223.90
512.86	33296.46
513.04	33771.59
513.21	33577.33
513.38	33631.16
513.56	33350.29
513.73	33298.80
513.90	33766.91
514.08	33446.26
514.25	33773.93
514.43	34202.25
514.60	33769.25
514.77	34087.56
514.95	33876.91
515.12	33881.60
515.29	34480.77
515.47	34382.47
515.64	34541.63
515.81	34778.02
515.99	34515.88
516.16	34581.42
516.33	34106.29
516.51	34122.67
516.68	33851.17
516.85	33813.72
517.03	34401.19
517.20	34546.31
517.37	34876.32
517.54	35023.78
517.72	34958.24
517.89	34576.73
518.06	34412.90
518.24	34637.59
518.41	35014.41
518.58	34946.54
518.75	34979.31
518.93	35622.95
519.10	35519.97
519.27	35967.01
519.45	35915.52
519.62	35665.08
519.79	35789.13
519.96	36308.73
520.14	36290.01
520.31	35817.22
520.48	36158.94
520.65	36451.50
520.83	36690.24
521.00	36517.04
521.17	36542.78
521.34	36870.46
521.52	37095.15
521.69	37006.21
521.86	36807.26
522.03	36945.36
522.20	37092.81
522.38	37338.57
522.55	37284.73
522.72	36797.90
522.89	37125.58
523.07	37523.47
523.24	37338.57
523.41	37359.63
523.58	37282.39
523.75	37680.28
523.92	38061.79
524.10	38270.10
524.27	37921.36
524.44	38099.24
524.61	38665.65
524.78	38363.72
524.96	38085.20
525.13	38335.63
525.30	38728.84
525.47	38838.85
525.64	38616.50
525.81	38234.99
525.98	38059.45
526.16	37963.49
526.33	37897.95
526.50	38396.49
526.67	37626.45
526.84	38050.09
527.01	37717.73
527.18	38459.68
527.36	39405.26
527.53	38909.07
527.70	39154.82
527.87	38775.66
528.04	39070.56
528.21	39370.15
528.38	39051.84
528.55	39337.38
528.72	39529.31
528.89	39887.41
529.07	39597.18
529.24	39299.94
529.41	39737.62
529.58	39838.26
529.75	39421.64
529.92	39950.60
530.09	39697.83
530.26	39826.56
530.43	40060.61
530.60	39941.24
530.77	39770.38
530.94	40491.27
531.11	39927.20
531.28	40376.58
531.46	40629.36
531.63	40257.21
531.80	39976.35
531.97	39985.71
532.14	40327.43
532.31	39758.68
532.48	40210.40
532.65	40634.04
532.82	40367.22
532.99	40414.03
533.16	40364.88
533.33	40673.83
533.50	41053.00
533.67	41024.91
533.84	40491.27
534.01	40996.82
534.18	40905.54
534.35	41174.70
534.52	40512.33
534.69	41315.14
534.86	41284.71
535.03	41298.75
535.20	41481.31
535.37	41329.18
535.54	41656.85
535.71	41516.42
535.88	41612.38
536.05	41392.37
536.22	41546.85
536.38	41401.74
536.55	41338.54
536.72	40959.38
536.89	41233.22
537.06	41504.72
537.23	41832.39
537.40	41392.37
537.57	41816.01
537.74	42131.98
537.91	42171.77
538.08	42017.30
538.25	42403.49
538.42	42005.59
538.59	42078.15
538.75	41677.92
538.92	41792.61
539.09	42197.52
539.26	42251.35
539.43	41930.70
539.60	42103.90
539.77	42258.37
539.94	42298.16
540.11	42078.15
540.28	42600.09
540.44	42127.30
540.61	42218.58
540.78	42398.80
540.95	41916.65
541.12	42230.29
541.29	42316.89
541.46	42583.71
541.62	42878.61
541.79	42607.11
541.96	42213.90
542.13	42295.82
542.30	42857.55
542.47	42658.60
542.63	42522.85
542.80	42960.53
542.97	43323.32
543.14	43276.51
543.31	43372.47
543.48	43241.40
543.64	43737.59
543.81	43826.53
543.98	43505.88
544.15	43189.91
544.32	43761.00
544.48	43957.60
544.65	43817.17
544.82	43894.41
544.99	43562.05
545.16	43650.99
545.32	43234.38
545.49	44259.53
545.66	43952.92
545.83	43831.21
546.00	44058.24
546.16	43952.92
546.33	43849.94
546.50	43662.69
546.67	44238.47
546.83	44170.59
547.00	43821.85
547.17	43749.29
547.34	43786.74
547.50	43983.35
547.67	44308.68
547.84	44140.16
548.00	44811.90
548.17	44493.58
548.34	44296.98
548.51	44458.48
548.67	44512.31
548.84	44329.75
549.01	44594.23
549.18	44573.16
549.34	44575.50
549.51	44734.66
549.68	45347.88
549.84	44865.73
550.01	45038.93
550.18	44598.91
550.34	44729.98
550.51	44884.45
550.68	45174.68
550.84	44254.85
551.01	44744.02
551.18	45062.33
551.34	44898.50
551.51	44973.39
551.68	45331.50
551.84	45130.21
552.01	45191.06
552.18	44882.11
552.34	44737.00
552.51	44933.60
552.68	45024.89
552.84	45216.81
553.01	44751.04
553.18	45029.57
553.34	45148.93
553.51	45209.79
553.67	45045.95
553.84	45439.16
554.01	44889.13
554.17	45497.67
554.34	45715.34
554.51	45607.68
554.67	45799.60
554.84	45837.05
555.00	45518.74
555.17	45731.73
555.33	45312.77
555.50	45483.63
555.67	45485.97
555.83	45324.47
556.00	45474.27
556.16	45897.91
556.33	45354.90
556.50	45546.82
556.66	45720.02
556.83	45694.28
556.99	45673.21
557.16	45432.14
557.32	45689.60
557.49	45539.80
557.65	45727.05
557.82	45923.65
557.98	46115.58
558.15	45483.63
558.32	45724.71
558.48	45591.30
558.65	45418.10
558.81	45415.76
558.98	45998.55
559.14	45062.33
559.31	45677.90
559.47	45855.78
559.64	45968.12
559.80	46127.28
559.97	45972.80
560.13	45607.68
560.30	45635.77
560.46	45769.18
560.63	46394.10
560.79	46522.83
560.96	46513.47
561.12	46057.06
561.29	45928.33
561.45	46148.34
561.61	46174.09
561.78	46043.02
561.94	45635.77
562.11	46040.68
562.27	45890.88
562.44	46562.62
562.60	46394.10
562.77	46085.15
562.93	46066.42
563.10	46391.76
563.26	46195.15
563.42	46059.40
563.59	45991.53
563.75	46176.43
563.92	46679.64
564.08	46492.40
564.24	46845.82
564.41	46424.53
564.57	46260.69
564.74	46148.34
564.90	46527.51
565.07	46246.65
565.23	46342.61
565.39	45942.38
565.56	46349.63
565.72	46153.02
565.88	46239.62
566.05	46300.48
566.21	46316.86
566.38	45944.72
566.54	45914.29
566.70	46621.13
566.87	46859.87
567.03	46342.61
567.19	46962.85
567.36	46639.86
567.52	46824.76
567.68	46955.83
567.85	46333.24
568.01	46674.96
568.17	46691.35
568.34	46478.36
568.50	46574.32
568.66	46321.54
568.83	46328.56
568.99	45904.93
569.15	46504.10
569.32	46480.70
569.48	46487.72
569.64	46841.14
569.81	46625.81
569.97	46225.58
570.13	46738.16
570.30	46387.08
570.46	46330.90
570.62	46302.82
570.78	46188.13
570.95	46370.69
571.11	46747.52
571.27	46656.24
571.43	46471.34
571.60	46761.56
571.76	46382.40
571.92	46239.62
572.09	46712.41
572.25	46389.42
572.41	46855.18
572.57	46897.31
572.74	46820.08
572.90	46632.83
573.06	46543.89
573.22	46740.50
573.38	47021.36
573.55	46412.82
573.71	46913.70
573.87	46529.85
574.03	46391.76
574.20	46796.67
574.36	46698.37
574.52	46522.83
574.68	46689.01
574.84	46740.50
575.01	46850.50
575.17	46857.52
575.33	46431.55
575.49	46501.76
575.65	46658.58
575.82	46593.04
575.98	46593.04
576.14	46616.45
576.30	46955.83
576.46	46766.24
576.62	46658.58
576.79	46506.44
576.95	46457.29
577.11	46806.03
577.27	46672.62
577.43	46761.56
577.59	46227.92
577.75	46658.58
577.92	46646.88
578.08	46522.83
578.24	46651.56
578.40	46476.02
578.56	46635.17
578.72	46635.17
578.88	46782.63
579.04	46581.34
579.21	46644.54
579.37	46703.05
579.53	46768.58
579.69	46473.68
579.85	46405.80
580.01	46756.88
580.17	46298.14
580.33	46742.84
580.49	46817.74
580.65	46663.26
580.82	46611.77
580.98	46473.68
581.14	46438.57
581.30	46883.27
581.46	46728.80
581.62	46630.49
581.78	46405.80
581.94	47152.43
582.10	46775.61
582.26	46979.23
582.42	46791.99
582.58	47086.90
582.74	46323.88
582.90	46611.77
583.06	46721.77
583.22	46866.89
583.38	47028.38
583.54	46763.90
583.70	47065.83
583.86	47058.81
584.02	46768.58
584.18	46595.38
584.34	46829.44
584.50	46618.79
584.66	46499.42
584.82	46719.43
584.98	46958.17
585.14	47016.68
585.30	46218.56
585.46	46698.37
585.62	46387.08
585.78	46892.63
585.94	46897.31
586.10	46841.14
586.26	46452.61
586.42	47173.50
586.58	47063.49
586.74	46930.08
586.90	46904.34
587.06	46113.23
587.22	47079.88
587.38	46773.27
587.54	46595.38
587.70	46775.61
587.86	46944.12
588.02	46597.73
588.18	46799.01
588.34	46557.94
588.49	46082.81
588.65	46410.48
588.81	46284.09
588.97	46216.22
589.13	46377.72
589.29	46466.66
589.45	46677.30
589.61	46768.58
589.77	47351.38
589.93	46838.80
590.08	46794.33
590.24	46920.72
590.40	46983.91
590.56	47405.21
590.72	46988.60
590.88	46534.53
591.04	47213.29
591.20	47356.06
591.35	46789.65
591.51	47309.25
591.67	47042.43
591.83	46871.57
591.99	46770.93
592.15	47091.58
592.31	46944.12
592.46	47026.04
592.62	46679.64
592.78	46752.20
592.94	47054.13
593.10	46920.72
593.26	47323.29
593.41	46962.85
593.57	47004.98
593.73	46890.29
593.89	47037.75
594.05	47154.77
594.20	47044.77
594.36	47063.49
594.52	46454.95
594.68	46787.31
594.84	46689.01
594.99	47545.64
595.15	46373.03
595.31	46822.42
595.47	47365.42
595.62	46986.25
595.78	46707.73
595.94	47360.74
596.10	47122.01
596.25	47037.75
596.41	47084.56
596.57	46986.25
596.73	47068.17
596.88	46817.74
597.04	46976.89
597.20	46909.02
597.36	46726.46
597.51	47232.01
597.67	46885.61
597.83	47234.35
597.99	47356.06
598.14	47138.39
598.30	46941.78
598.46	46539.21
598.61	47271.80
598.77	46672.62
598.93	46808.37
599.09	46990.94
599.24	46974.55
599.40	47058.81
599.56	47175.84
599.71	47124.35
599.87	47152.43
600.03	47007.32
600.18	46843.48
600.34	46686.67
600.50	47131.37
600.65	47107.96
600.81	46796.67
600.97	47510.53
601.12	47065.83
601.28	47260.10
601.44	46679.64
601.59	46742.84
601.75	46490.06
601.91	46878.59
602.06	46588.36
602.22	47009.66
602.37	46660.92
602.53	46880.93
602.69	47040.09
602.84	47239.03
603.00	46607.09
603.16	47068.17
603.31	46595.38
603.47	46363.67
603.62	47098.60
603.78	47248.39
603.94	46696.03
604.09	46944.12
604.25	47065.83
604.40	46756.88
604.56	46679.64
604.71	46979.23
604.87	46597.73
605.03	46815.40
605.18	46635.17
605.34	46663.26
605.49	46508.79
605.65	46742.84
605.80	46920.72
605.96	46263.03
606.12	46567.30
606.27	47007.32
606.43	46885.61
606.58	46876.25
606.74	46897.31
606.89	46710.07
607.05	46749.86
607.20	46616.45
607.36	46476.02
607.51	46541.55
607.67	46834.12
607.82	46508.79
607.98	46340.27
608.13	46707.73
608.29	46775.61
608.44	46218.56
608.60	45902.59
608.75	46525.17
608.91	46279.41
609.06	46464.32
609.22	46506.44
609.37	46258.35
609.53	46396.44
609.68	46410.48
609.84	46593.04
609.99	46349.63
610.15	46031.32
610.30	46204.52
610.46	45879.18
610.61	46124.94
610.76	46342.61
610.92	46656.24
611.07	46394.10
611.23	46497.08
611.38	46085.15
611.54	45900.25
611.69	46120.26
611.84	45785.56
612.00	45750.45
612.15	45551.51
612.31	45984.51
612.46	45865.14
612.62	46141.32
612.77	45691.94
612.92	46356.65
613.08	45530.44
613.23	46124.94
613.39	45806.62
613.54	45242.56
613.69	45806.62
613.85	45617.04
614.00	46192.81
614.15	45841.73
614.31	45649.81
614.46	46153.02
614.62	45813.65
614.77	45640.45
614.92	45972.80
615.08	45549.17
615.23	45483.63
615.38	45567.89
615.54	45469.59
615.69	45631.08
615.84	45088.08
616.00	45366.60
616.15	45549.17
616.30	45354.90
616.46	45560.87
616.61	44917.22
616.76	45254.26
616.92	44919.56
617.07	44837.64
617.22	44484.22
617.37	45158.30
617.53	45439.16
617.68	45507.04
617.83	45350.22
617.99	45525.76
618.14	44669.12
618.29	44734.66
618.45	45125.53
618.60	44863.39
618.75	44898.50
618.90	45088.08
619.06	45081.06
619.21	45078.72
619.36	45301.07
619.51	44713.59
619.67	44797.85
619.82	45102.12
619.97	44999.14
620.12	44603.59
620.28	44175.27
620.43	44882.11
620.58	44968.71
620.73	45125.53
620.89	45041.27
621.04	44285.28
621.19	45001.48
621.34	45041.27
621.49	44692.53
621.65	44587.21
621.80	45050.63
621.95	44509.97
622.10	44584.86
622.25	44079.31
622.41	44528.69
622.56	44334.43
622.71	44500.61
622.86	44739.34
623.01	44699.55
623.16	44474.86
623.32	44013.77
623.47	44509.97
623.62	44332.09
623.77	44453.79
623.92	44402.30
624.07	44252.51
624.23	43969.30
624.38	44076.97
624.53	44081.65
624.68	43707.16
624.83	44179.95
624.98	43941.22
625.13	43330.34
625.29	44009.09
625.44	43927.17
625.59	43620.56
625.74	42986.28
625.89	43894.41
626.04	43751.63
626.19	43629.93
626.34	44086.33
626.49	44137.82
626.65	44076.97
626.80	43660.35
626.95	43585.46
627.10	43168.84
627.25	43339.70
627.40	43089.26
627.55	42686.69
627.70	43328.00
627.85	43229.69
628.00	42923.08
628.15	43342.04
628.30	43203.95
628.45	43229.69
628.60	43257.78
628.76	43468.43
628.91	43222.67
629.06	42892.66
629.21	42930.11
629.36	43044.79
629.51	42564.98
629.66	42562.64
629.81	42501.79
629.96	42946.49
630.11	42916.06
630.26	43363.11
630.41	43012.02
630.56	42855.21
630.71	42581.37
630.86	42405.83
631.01	42344.97
631.16	42796.70
631.31	42286.46
631.46	42033.68
631.61	42682.01
631.76	42445.62
631.91	42801.38
632.06	42756.91
632.21	42787.33
632.36	42628.18
632.51	42387.10
632.66	42408.17
632.81	41783.24
632.96	42384.76
633.10	42305.18
633.25	42651.58
633.40	42473.70
633.55	42773.29
633.70	42197.52
633.85	42117.94
634.00	42356.67
634.15	42197.52
634.30	41879.21
634.45	41799.63
634.60	42227.95
634.75	42031.34
634.90	41820.69
635.05	42148.37
635.19	41890.91
635.34	42557.96
635.49	41855.80
635.64	41968.15
635.79	41738.77
635.94	41731.75
636.09	41951.76
636.24	41708.35
636.39	41053.00
636.53	41904.95
636.68	41977.51
636.83	41710.69
636.98	41729.41
637.13	41668.56
637.28	41926.02
637.43	42136.66
637.57	41605.36
637.72	41478.97
637.87	42087.51
638.02	41560.89
638.17	41535.15
638.32	41493.02
638.46	41406.42
638.61	41680.26
638.76	41085.76
638.91	41474.29
639.06	41673.24
639.20	41301.09
639.35	41780.90
639.50	41441.53
639.65	41202.79
639.80	41294.07
639.94	41464.93
640.09	41003.85
640.24	41106.83
640.39	41233.22
640.54	40779.15
640.68	41043.63
640.83	41067.04
640.98	41179.39
641.13	40718.30
641.27	41247.26
641.42	40828.30
641.57	40652.76
641.72	40603.61
641.86	40818.94
642.01	39824.22
642.16	40793.20
642.31	40165.93
642.45	40856.39
642.60	40547.44
642.75	40130.83
642.90	40502.97
643.04	40610.64
643.19	40467.86
643.34	40608.29
643.48	40051.25
643.63	40479.57
643.78	40002.10
643.93	40332.11
644.07	40479.57
644.22	40266.58
644.37	40238.49
644.51	40360.20
644.66	40634.04
644.81	40402.33
644.95	40168.27
645.10	40154.23
645.25	40502.97
645.39	40275.94
645.54	40067.63
645.69	40257.21
645.83	40311.05
645.98	40388.28
646.13	39957.63
646.27	40563.82
646.42	39749.32
646.57	39672.08
646.71	39250.78
646.86	40053.59
647.00	40013.80
647.15	39562.08
647.30	39634.63
647.44	39770.38
647.59	39875.71
647.74	39831.24
647.88	39484.84
648.03	39749.32
648.17	39524.63
648.32	39533.99
648.47	39620.59
648.61	39468.45
648.76	39555.05
648.90	39374.83
649.05	39606.55
649.20	39468.45
649.34	39597.18
649.49	39248.44
649.63	39227.38
649.78	39377.17
649.92	39180.57
650.07	39718.89
650.21	39129.08
650.36	39463.77
650.51	39208.65
650.65	39739.96
650.80	39306.96
650.94	39817.19
651.09	39569.10
651.23	38948.85
651.38	39407.60
651.52	38880.98
651.67	39140.78
651.81	38838.85
651.96	38906.73
652.10	38838.85
652.25	39180.57
652.39	38565.01
652.54	38724.16
652.68	39014.39
652.83	38974.60
652.97	39100.99
653.12	38696.08
653.26	38667.99
653.41	39117.37
653.55	38691.40
653.70	38822.47
653.84	38869.28
653.99	38534.58
654.13	38401.17
654.27	38258.40
654.42	38160.09
654.56	38188.18
654.71	38447.98
654.85	38501.81
655.00	38436.28
655.14	38022.00
655.29	38014.98
655.43	38234.99
655.57	37837.10
655.72	37488.36
655.86	37750.50
656.01	37357.29
656.15	37249.63
656.30	37659.22
656.44	37684.97
656.58	38012.64
656.73	38059.45
656.87	37589.00
657.01	37804.33
657.16	38047.75
657.30	38012.64
657.45	37591.34
657.59	37223.88
657.73	37860.51
657.88	38059.45
658.02	37998.60
658.16	38220.95
658.31	37603.05
658.45	37942.42
658.60	37483.68
658.74	37530.49
658.88	37434.53
659.03	37633.47
659.17	37202.82
659.31	37528.15
659.46	37273.03
659.60	37530.49
659.74	37354.95
659.89	36837.69
660.03	36704.28
660.17	37291.76
660.32	37120.90
660.46	37731.78
660.60	37216.86
660.74	36987.49
660.89	37146.64
661.03	36301.71
661.17	36624.70
661.32	36783.86
661.46	36828.33
661.60	37067.06
661.74	37043.66
661.89	36753.43
662.03	36924.29
662.17	36687.90
662.31	36573.21
662.46	36552.15
662.60	36697.26
662.74	36479.59
662.88	36554.49
663.03	35969.35
663.17	36091.06
663.31	35878.07
663.45	35896.80
663.60	35990.42
663.74	36280.64
663.88	35868.71
664.02	36041.91
664.17	36105.10
664.31	35531.67
664.45	35910.84
664.59	35873.39
664.73	36074.68
664.88	35667.42
665.02	35402.94
665.16	35414.65
665.30	35232.08
665.44	35550.40
665.59	35353.79
665.73	35138.46
665.87	35248.47
666.01	35110.38
666.15	35243.79
666.29	35241.45
666.44	35431.03
666.58	34972.28
666.72	34904.41
666.86	35079.95
667.00	34794.40
667.14	34532.26
667.28	34316.93
667.43	34771.00
667.57	35161.87
667.71	34363.75
667.85	34518.22
667.99	34330.98
668.13	34438.64
668.27	34796.74
668.41	34174.16
668.56	34532.26
668.70	34291.19
668.84	34132.03
668.98	33804.36
669.12	33560.94
669.26	34010.32
669.40	33689.67
669.54	33771.59
669.68	33652.22
669.82	33642.86
669.96	33584.35
670.10	33553.92
670.25	33422.85
670.39	33195.82
670.53	33539.88
670.67	33242.63
670.81	32957.08
670.95	33563.28
671.09	32896.23
671.23	32596.64
671.37	32858.78
671.51	32378.97
671.65	32442.17
671.79	32692.60
671.93	32999.21
672.07	33022.62
672.21	32797.93
672.35	32767.50
672.49	32748.78
672.63	32381.31
672.77	32598.98
672.91	32481.95
673.05	32512.38
673.19	32540.47
673.33	32290.03
673.47	31840.65
673.61	32081.72
673.75	31770.43
673.89	31555.10
674.03	31503.61
674.17	31845.33
674.31	31690.85
674.45	31775.11
674.59	31330.41
674.73	32151.94
674.87	31571.49
675.01	31344.45
675.15	31321.05
675.29	30991.03
675.43	31276.58
675.56	30937.20
675.70	30874.01
675.84	31257.85
675.98	30071.20
676.12	30890.39
676.26	30965.29
676.40	30473.78
676.54	31009.76
676.68	30501.86
676.82	29846.51
676.96	30405.90
677.10	30525.27
677.23	30080.56
677.37	29851.19
677.51	29696.72
677.65	29596.07
677.79	29378.40
677.93	29198.18
678.07	29446.28
678.21	29394.79
678.34	29390.11
678.48	29450.96
678.62	28737.10
678.76	29127.97
678.90	28547.51
679.04	28751.14
679.18	28840.08
679.31	28467.94
679.45	28170.69
679.59	28437.51
679.73	28851.78
679.87	27985.79
680.00	28053.66
680.14	28154.30
680.28	28048.98
680.42	27763.43
680.56	27798.54
680.70	28294.74
680.83	28065.36
680.97	27667.47
681.11	27807.90
681.25	27639.39
681.39	27723.65
681.52	27318.73
681.66	27229.79
681.80	27187.66
681.94	27040.21
682.07	27328.10
682.21	27178.30
682.35	26906.80
682.49	26705.51
682.62	27150.21
682.76	26551.04
682.90	26363.79
683.04	26448.05
683.17	25923.77
683.31	26228.04
683.45	26057.18
683.59	26242.09
683.72	26115.70
683.86	26050.16
684.00	26031.44
684.13	25862.92
684.27	26036.12
684.41	25544.61
684.55	25357.36
684.68	25322.26
684.82	25373.75
684.96	25322.26
685.09	25139.69
685.23	25055.43
685.37	24992.24
685.50	25252.04
685.64	25085.86
685.78	24805.00
685.91	24575.62
686.05	24566.26
686.19	24163.69
686.32	23782.18
686.46	23573.88
686.60	23337.48
686.73	23424.08
686.87	23255.56
687.01	23349.18
687.14	23594.94
687.28	23166.62
687.42	23126.83
687.55	23168.96
687.69	23524.72
687.82	23339.82
687.96	23332.80
688.10	23356.21
688.23	22892.78
688.37	22654.05
688.50	22852.99
688.64	22803.84
688.78	22434.03
688.91	22677.45
689.05	22583.83
689.18	22333.39
689.32	22092.32
689.46	22260.84
689.59	22401.27
689.73	22434.03
689.86	22097.00
690.00	21820.81
690.13	22089.98
690.27	21986.99
690.41	21804.43
690.54	21715.49
690.68	21551.65
690.81	21228.66
690.95	21514.20
691.08	21130.36
691.22	21413.56
691.35	21256.75
691.49	21390.16
691.62	21486.12
691.76	21252.06
691.89	21039.08
692.03	20760.55
692.16	20732.47
692.30	20620.12
692.43	20212.87
692.57	20362.66
692.70	20292.44
692.84	20683.31
692.97	20044.35
693.11	20149.67
693.24	20023.28
693.38	20025.62
693.51	20072.43
693.65	20135.63
693.78	19824.34
693.92	19517.73
694.05	19405.38
694.19	19585.60
694.32	19384.32
694.45	19428.79
694.59	19037.92
694.72	19009.83
694.86	19131.54
694.99	18766.42
695.13	19335.17
695.26	18977.06
695.39	18649.39
695.53	19197.07
695.66	18796.84
695.80	19026.21
695.93	18565.13
696.07	18462.15
696.20	18614.28
696.33	18494.91
696.47	18391.93
696.60	18066.60
696.73	17933.18
696.87	18265.54
697.00	17940.21
697.14	17839.56
697.27	17752.96
697.40	17645.30
697.54	17654.66
697.67	17647.64
697.80	17401.88
697.94	17202.94
698.07	17076.55
698.21	17371.46
698.34	17172.51
698.47	16968.88
698.61	17011.01
698.74	16826.11
698.87	17170.17
699.01	16580.36
699.14	16439.92
699.27	16552.27
699.40	16297.15
699.54	16538.23
699.67	16423.54
699.80	16154.38
699.94	16231.62
700.07	16348.64
700.20	16418.86
700.34	16290.13
700.47	15995.22
700.60	16147.36
700.73	16184.80
700.87	16105.23
701.00	16009.26
701.13	15709.68
701.26	15470.94
701.40	15396.04
701.53	15405.41
701.66	15290.72
701.79	15255.61
701.93	15323.49
702.06	15122.20
702.19	15012.20
702.32	14855.38
702.46	14918.57
702.59	15000.49
702.72	15154.97
702.85	15056.67
702.99	14843.68
703.12	14539.41
703.25	14600.26
703.38	14368.55
703.51	14349.82
703.65	14366.21
703.78	14579.20
703.91	14214.07
704.04	14115.77
704.17	14118.11
704.31	14197.69
704.44	13984.70
704.57	14078.32
704.70	14003.43
704.83	13769.37
704.96	13757.67
705.10	13638.30
705.23	13884.06
>>>>>End Processed Spectral Data<<<<<
