SpectraSuite Data File
++++++++++++++++++++++++++++++++++++
Date: Fri Oct 25 10:44:31 EDT 2013
User: price-jones
Dark Spectrum Present: No
Reference Spectrum Present: No
Number of Sampled Component Spectra: 1
Spectrometers: USB2+H05261
Integration Time (usec): 100000 (USB2+H05261)
Spectra Averaged: 1 (USB2+H05261)
Boxcar Smoothing: 0 (USB2+H05261)
Correct for Electrical Dark: No (USB2+H05261)
Strobe/Lamp Enabled: No (USB2+H05261)
Correct for Detector Non-linearity: No (USB2+H05261)
Correct for Stray Light: No (USB2+H05261)
Number of Pixels in Processed Spectrum: 2048
>>>>>Begin Processed Spectral Data<<<<<
365.73	102.98
365.92	102.98
366.12	102.98
366.32	98.30
366.52	42.13
366.72	53.83
366.91	21.06
367.11	0.00
367.31	4.68
367.51	0.00
367.70	44.47
367.90	42.13
368.10	0.00
368.30	30.43
368.49	14.04
368.69	9.36
368.89	46.81
369.09	11.70
369.28	0.00
369.48	42.13
369.68	135.75
369.87	117.03
370.07	135.75
370.27	140.43
370.47	175.54
370.66	304.27
370.86	362.78
371.06	496.19
371.25	433.00
371.45	491.51
371.65	442.36
371.84	456.40
372.04	416.62
372.24	437.68
372.44	435.34
372.63	425.98
372.83	461.09
373.03	414.27
373.22	479.81
373.42	510.24
373.62	519.60
373.81	540.66
374.01	552.37
374.21	559.39
374.40	575.77
374.60	568.75
374.79	514.92
374.99	514.92
375.19	594.50
375.38	573.43
375.58	550.03
375.78	578.11
375.97	543.00
376.17	706.84
376.37	526.62
376.56	578.11
376.76	524.28
376.95	589.82
377.15	582.79
377.35	620.24
377.54	653.01
377.74	617.90
377.93	606.20
378.13	547.69
378.33	631.94
378.52	683.44
378.72	641.31
378.91	624.92
379.11	582.79
379.31	526.62
379.50	575.77
379.70	599.18
379.89	685.78
380.09	711.52
380.28	669.39
380.48	645.99
380.68	716.20
380.87	716.20
381.07	573.43
381.26	774.72
381.46	697.48
381.65	702.16
381.85	650.67
382.04	678.76
382.24	704.50
382.43	699.82
382.63	638.97
382.83	681.10
383.02	709.18
383.22	732.59
383.41	599.18
383.61	645.99
383.80	770.04
384.00	765.36
384.19	720.88
384.39	842.59
384.58	741.95
384.78	823.87
384.97	697.48
385.17	744.29
385.36	690.46
385.56	781.74
385.75	819.19
385.95	720.88
386.14	779.40
386.34	786.42
386.53	732.59
386.72	777.06
386.92	800.46
387.11	807.48
387.31	809.83
387.50	767.70
387.70	807.48
387.89	751.31
388.09	821.53
388.28	861.32
388.48	791.10
388.67	812.17
388.86	875.36
389.06	922.17
389.25	950.26
389.45	929.19
389.64	891.74
389.84	971.32
390.03	978.34
390.22	971.32
390.42	826.21
390.61	908.13
390.81	943.24
391.00	1015.79
391.19	964.30
391.39	964.30
391.58	978.34
391.78	945.58
391.97	1071.97
392.16	880.04
392.36	1128.14
392.55	971.32
392.75	945.58
392.94	964.30
393.13	961.96
393.33	873.02
393.52	1011.11
393.71	1078.99
393.91	1004.09
394.10	1135.16
394.29	987.71
394.49	1097.71
394.68	1163.25
394.88	1210.06
395.07	1097.71
395.26	1170.27
395.46	1057.92
395.65	1203.04
395.84	1090.69
396.04	1146.86
396.23	1160.91
396.42	1177.29
396.62	1097.71
396.81	1100.05
397.00	1064.94
397.19	1235.80
397.39	1158.57
397.58	1196.01
397.77	1228.78
397.97	1282.61
398.16	1336.45
398.35	1334.11
398.55	1308.36
398.74	1366.87
398.93	1355.17
399.12	1280.27
399.32	1336.45
399.51	1441.77
399.70	1490.92
399.90	1451.13
400.09	1380.92
400.28	1427.73
400.47	1502.62
400.67	1519.01
400.86	1434.75
401.05	1460.49
401.24	1523.69
401.44	1540.07
401.63	1563.48
401.82	1486.24
402.01	1591.56
402.21	1582.20
402.40	1556.46
402.59	1589.22
402.78	1668.80
402.97	1593.90
403.17	1626.67
403.36	1666.46
403.55	1636.03
403.74	1687.53
403.93	1650.08
404.13	1629.01
404.32	1598.59
404.51	1722.63
404.70	1729.66
404.89	1741.36
405.09	1739.02
405.28	1722.63
405.47	1722.63
405.66	1785.83
405.85	1818.60
406.05	1816.26
406.24	1781.15
406.43	1858.39
406.62	1818.60
406.81	1994.14
407.00	1959.03
407.20	1886.47
407.39	1963.71
407.58	1989.46
407.77	2064.35
407.96	2132.23
408.15	2008.18
408.34	1930.94
408.54	2073.71
408.73	2040.95
408.92	2225.85
409.11	2097.12
409.30	2111.16
409.49	2118.18
409.68	2120.53
409.87	2076.06
410.07	2129.89
410.26	2076.06
410.45	2209.47
410.64	2143.93
410.83	2312.45
411.02	2300.75
411.21	2349.90
411.40	2363.94
411.59	2420.11
411.78	2361.60
411.98	2431.82
412.17	2415.43
412.36	2389.69
412.55	2410.75
412.74	2567.57
412.93	2464.58
413.12	2429.48
413.31	2642.46
413.50	2527.78
413.69	2663.53
413.88	2750.13
414.07	2630.76
414.26	2588.63
414.45	2710.34
414.64	2902.26
414.83	2841.41
415.02	2799.28
415.22	2801.62
415.41	2839.07
415.60	2806.30
415.79	2827.37
415.98	2935.03
416.17	2963.12
416.36	2918.65
416.55	2935.03
416.74	3063.76
416.93	3033.33
417.12	3012.27
417.31	3061.42
417.50	3026.31
417.69	3178.45
417.88	3159.72
418.07	3068.44
418.26	3143.34
418.45	3251.00
418.64	3361.01
418.83	3073.12
419.02	3265.05
419.21	3194.83
419.39	3316.54
419.58	3211.22
419.77	3330.58
419.96	3293.13
420.15	3386.76
420.34	3335.26
420.53	3370.37
420.72	3424.20
420.91	3346.97
421.10	3346.97
421.29	3620.81
421.48	3545.91
421.67	3543.57
421.86	3494.42
422.05	3524.85
422.24	3517.83
422.43	3536.55
422.61	3576.34
422.80	3508.46
422.99	3695.71
423.18	3658.26
423.37	3700.39
423.56	3691.02
423.75	3669.96
423.94	3574.00
424.13	3606.77
424.32	3487.40
424.50	3728.47
424.69	3639.53
424.88	3740.18
425.07	3625.49
425.26	3506.12
425.45	3667.62
425.64	3646.55
425.83	3709.75
426.01	3684.00
426.20	3716.77
426.39	3634.85
426.58	3527.19
426.77	3611.45
426.96	3576.34
427.15	3735.50
427.33	3894.65
427.52	3754.22
427.71	3850.18
427.90	3845.50
428.09	3784.65
428.28	3859.54
428.46	3843.16
428.65	3964.87
428.84	3847.84
429.03	3943.80
429.22	3836.14
429.40	3911.04
429.59	3803.37
429.78	3651.24
429.97	3669.96
430.16	3777.62
430.34	3941.46
430.53	3892.31
430.72	3925.08
430.91	4011.68
431.10	3927.42
431.28	4063.17
431.47	4224.67
431.66	4498.51
431.85	4332.33
432.03	4404.89
432.22	4360.42
432.41	4266.80
432.60	4362.76
432.79	4285.52
432.97	4449.36
433.16	4393.19
433.35	4329.99
433.54	4421.27
433.72	4531.28
433.91	4430.63
434.10	4414.25
434.28	4458.72
434.47	4498.51
434.66	4603.83
434.85	4596.81
435.03	4496.17
435.22	4533.62
435.41	4676.39
435.59	4826.18
435.78	4697.46
435.97	4781.71
436.16	4716.18
436.34	4748.95
436.53	4723.20
436.72	4809.80
436.90	4704.48
437.09	4594.47
437.28	4650.64
437.46	4865.97
437.65	4809.80
437.84	4751.29
438.02	4725.54
438.21	4910.44
438.40	5025.13
438.58	4943.21
438.77	5121.09
438.96	4987.68
439.14	5128.11
439.33	5268.55
439.52	5193.65
439.70	5336.42
439.89	5172.58
440.08	5282.59
440.26	5331.74
440.45	5207.69
440.63	5371.53
440.82	5467.49
441.01	5645.37
441.19	5308.34
441.38	5563.45
441.57	5701.54
441.75	5603.24
441.94	5680.48
442.12	5877.09
442.31	5996.45
442.50	5834.96
442.68	5762.40
442.87	5776.44
443.05	5998.79
443.24	6038.58
443.43	5947.30
443.61	5933.26
443.80	6097.10
443.98	5757.72
444.17	5858.36
444.35	6106.46
444.54	6129.86
444.73	5968.37
444.91	5839.64
445.10	5870.06
445.28	5888.79
445.47	5940.28
445.65	5872.40
445.84	6188.38
446.02	6047.94
446.21	6211.78
446.39	6066.67
446.58	6274.98
446.77	6256.25
446.95	6162.63
447.14	6073.69
447.32	6333.49
447.51	6169.65
447.69	6136.88
447.88	6150.93
448.06	6235.19
448.25	6038.58
448.43	6181.35
448.62	6171.99
448.80	6099.44
448.99	6239.87
449.17	6242.21
449.36	6207.10
449.54	6417.75
449.73	6452.86
449.91	6546.48
450.10	6499.67
450.28	6679.89
450.46	6616.69
450.65	6677.55
450.83	6675.21
451.02	6513.71
451.20	6588.61
451.39	6754.79
451.57	6588.61
451.76	6604.99
451.94	6675.21
452.13	6733.72
452.31	6771.17
452.49	6619.04
452.68	6586.27
452.86	6588.61
453.05	6850.75
453.23	6736.06
453.42	6890.54
453.60	6789.89
453.78	6965.43
453.97	6731.38
454.15	6920.96
454.34	6806.28
454.52	7199.49
454.70	6836.70
454.89	7026.29
455.07	7040.33
455.26	7042.67
455.44	7243.96
455.62	7166.72
455.81	7265.02
455.99	7318.86
456.17	7290.77
456.36	7045.01
456.54	7389.07
456.73	7480.35
456.91	7637.17
457.09	7335.24
457.28	7559.93
457.46	7461.63
457.64	7562.27
457.83	7520.14
458.01	7618.44
458.19	7712.07
458.38	7503.76
458.56	7494.40
458.74	7707.38
458.93	7637.17
459.11	7672.28
459.29	7571.63
459.48	7630.15
459.66	7728.45
459.84	7946.12
460.03	7861.86
460.21	7878.24
460.39	8021.02
460.57	7934.42
460.76	7981.23
460.94	7946.12
461.12	8021.02
461.31	7948.46
461.49	8065.49
461.67	8217.62
461.85	8198.90
462.04	7992.93
462.22	8264.43
462.40	8423.59
462.59	8224.64
462.77	8273.79
462.95	8250.39
463.13	8308.90
463.32	8313.58
463.50	8308.90
463.68	8379.12
463.86	8297.20
464.05	8276.13
464.23	8299.54
464.41	8414.23
464.59	8334.65
464.78	8674.03
464.96	8505.51
465.14	8404.86
465.32	8374.44
465.50	8533.59
465.69	8498.49
465.87	8582.74
466.05	8557.00
466.23	8549.98
466.41	8578.06
466.60	8786.37
466.78	8381.46
466.96	8346.35
467.14	8716.16
467.32	8671.68
467.51	8894.04
467.69	8444.65
467.87	8744.24
468.05	8875.31
468.23	8746.58
468.41	8636.58
468.60	8755.94
468.78	8994.68
468.96	8753.60
469.14	9013.40
469.32	9188.94
469.50	8795.73
469.69	9088.30
469.87	9245.12
470.05	9111.71
470.23	9048.51
470.41	9114.05
470.59	9221.71
470.77	9132.77
470.95	9298.95
471.14	9614.92
471.32	9439.38
471.50	9514.28
471.68	9493.21
471.86	9582.15
472.04	9851.31
472.22	9724.93
472.40	9610.24
472.58	9610.24
472.77	9722.59
472.95	9935.57
473.13	10361.55
473.31	9701.52
473.49	9792.80
473.67	9830.25
473.85	10097.07
474.03	10129.84
474.21	10111.11
474.39	10211.76
474.57	10310.06
474.75	10265.59
474.93	10445.81
475.12	10326.44
475.30	10438.79
475.48	10380.28
475.66	10478.58
475.84	10361.55
476.02	10808.59
476.20	10731.36
476.38	10906.90
476.56	11089.46
476.74	11265.00
476.92	10958.39
477.10	11087.12
477.28	11367.98
477.46	11393.73
477.64	11494.37
477.82	11438.20
478.00	11686.29
478.18	11587.99
478.36	11667.57
478.54	11894.60
478.72	11922.69
478.90	11922.69
479.08	12112.27
479.26	12187.17
479.44	12121.63
479.62	12453.99
479.80	12662.30
479.98	12353.35
480.16	12884.65
480.34	12465.69
480.52	13085.94
480.70	12791.03
480.88	12840.18
481.06	12854.22
481.24	12891.67
481.41	13226.37
481.59	13394.89
481.77	13453.40
481.95	13610.22
482.13	13624.26
482.31	13722.56
482.49	13907.46
482.67	13781.07
482.85	14274.93
483.03	14251.52
483.21	14457.49
483.39	14317.06
483.57	14328.76
483.74	14637.71
483.92	14773.46
484.10	14373.23
484.28	14787.50
484.46	15108.16
484.64	15208.80
484.82	15096.46
485.00	15204.12
485.18	15405.41
485.35	15461.58
485.53	15143.27
485.71	15356.25
485.89	15756.49
486.07	15702.65
486.25	15962.45
486.43	15838.41
486.61	16215.23
486.78	16187.14
486.96	16418.86
487.14	16765.26
487.32	16631.85
487.50	16753.55
487.68	16833.13
487.85	17324.65
488.03	16989.95
488.21	17811.48
488.39	17516.57
488.57	17823.18
488.75	17528.27
488.92	17785.73
489.10	18134.47
489.28	18265.54
489.46	18279.58
489.64	18593.22
489.81	19166.65
489.99	19056.64
490.17	18946.64
490.35	18838.97
490.53	18944.30
490.70	19201.76
490.88	19187.71
491.06	19702.63
491.24	19360.91
491.41	19421.77
491.59	19922.64
491.77	19765.82
491.95	19686.25
492.13	19824.34
492.30	20606.08
492.48	20503.09
492.66	20247.97
492.84	20264.36
493.01	20570.97
493.19	20699.70
493.37	20971.20
493.54	21018.01
493.72	21579.74
493.90	21142.06
494.08	21722.51
494.25	21762.30
494.43	21797.41
494.61	22001.04
494.79	22017.42
494.96	21692.08
495.14	22068.91
495.32	22122.74
495.49	22115.72
495.67	22405.95
495.85	22581.49
496.02	22885.76
496.20	22717.24
496.38	22911.50
496.55	23269.61
496.73	23580.90
496.91	23400.68
497.09	23955.38
497.26	23372.59
497.44	23662.82
497.62	23520.04
497.79	23971.77
497.97	23639.41
498.14	23828.99
498.32	24212.84
498.50	24126.24
498.67	24758.19
498.85	24460.94
499.03	24760.53
499.20	24875.21
499.38	24706.70
499.56	24760.53
499.73	25092.88
499.91	25188.85
500.08	25418.22
500.26	24858.83
500.44	25151.40
500.61	25083.52
500.79	25132.67
500.97	25577.37
501.14	25465.03
501.32	25799.73
501.49	25647.59
501.67	25689.72
501.84	25886.32
502.02	25788.02
502.20	26368.48
502.37	26382.52
502.55	26089.95
502.72	26001.01
502.90	26766.37
503.07	26497.20
503.25	26345.07
503.43	26422.31
503.60	26586.15
503.78	26754.66
503.95	26363.79
504.13	27274.26
504.30	27412.35
504.48	27213.41
504.65	27484.91
504.83	27534.06
505.01	27620.66
505.18	27115.11
505.36	27913.23
505.53	27585.55
505.71	27943.66
505.88	28226.86
506.06	28109.83
506.23	28016.21
506.41	27807.90
506.58	27777.48
506.76	28002.17
506.93	28709.01
507.11	28254.95
507.28	28608.37
507.46	28496.02
507.63	28606.03
507.81	28671.56
507.98	28428.15
508.16	28727.74
508.33	29097.54
508.50	29259.04
508.68	29067.11
508.85	29340.96
509.03	29413.51
509.20	29427.56
509.38	29195.84
509.55	29975.24
509.73	29589.05
509.90	29483.73
510.08	29806.72
510.25	29834.81
510.42	29823.11
510.60	30167.16
510.77	30005.67
510.95	30113.33
511.12	30146.10
511.30	30541.65
511.47	30766.34
511.64	30752.30
511.82	30457.39
511.99	30558.03
512.17	30675.06
512.34	30455.05
512.51	31056.57
512.69	31501.27
512.86	31058.91
513.04	31243.81
513.21	31292.96
513.38	30937.20
513.56	30974.65
513.73	31124.44
513.90	31129.12
514.08	31302.32
514.25	31751.71
514.43	31604.25
514.60	31833.63
514.77	31782.13
514.95	31992.78
515.12	31840.65
515.29	32072.36
515.47	31716.60
515.64	31978.74
515.81	32072.36
515.99	32212.79
516.16	32240.88
516.33	32259.60
516.51	32311.10
516.68	32102.79
516.85	32025.55
517.03	32332.16
517.20	32437.48
517.37	32833.04
517.54	33139.65
517.72	32369.61
517.89	32680.90
518.06	32444.51
518.24	32765.16
518.41	32830.69
518.58	33090.49
518.75	32891.55
518.93	33244.97
519.10	33256.67
519.27	33151.35
519.45	32957.08
519.62	33436.89
519.79	33467.32
519.96	33727.12
520.14	34132.03
520.31	33397.10
520.48	33916.70
520.65	33977.56
520.83	34412.90
521.00	33890.96
521.17	34330.98
521.34	34267.78
521.52	33979.90
521.69	34464.39
521.86	34735.89
522.03	35002.71
522.20	34487.79
522.38	34749.93
522.55	34813.13
522.72	34663.33
522.89	34773.34
523.07	35098.67
523.24	34707.80
523.41	35384.22
523.58	35154.85
523.75	35480.18
523.92	35475.50
524.10	35952.97
524.27	35416.99
524.44	35534.01
524.61	35571.46
524.78	35730.62
524.96	35943.61
525.13	35833.60
525.30	35849.99
525.47	35936.59
525.64	36098.08
525.81	36130.85
525.98	35723.60
526.16	35777.43
526.33	35978.72
526.50	35644.02
526.67	35646.36
526.84	36346.18
527.01	36067.66
527.18	35955.31
527.36	36692.58
527.53	36751.09
527.70	36858.76
527.87	37141.96
528.04	37090.47
528.21	37010.89
528.38	36779.18
528.55	37345.59
528.72	36634.06
528.89	37123.24
529.07	36994.51
529.24	36734.71
529.41	37593.68
529.58	37163.03
529.75	37427.51
529.92	37432.19
530.09	37638.15
530.26	37429.85
530.43	37596.03
530.60	37263.67
530.77	37301.12
530.94	37766.88
531.11	37305.80
531.28	37535.17
531.46	37900.29
531.63	37642.84
531.80	37390.06
531.97	37834.76
532.14	37535.17
532.31	37521.13
532.48	37869.87
532.65	37919.02
532.82	38326.27
532.99	38059.45
533.16	37479.00
533.33	38061.79
533.50	38628.20
533.67	38181.16
533.84	38277.12
534.01	38667.99
534.18	38595.43
534.35	39124.40
534.52	38719.48
534.69	38384.79
534.86	38998.01
535.03	38824.81
535.20	39044.82
535.37	39335.04
535.54	39384.19
535.71	39026.09
535.88	38990.98
536.05	38761.61
536.22	39187.59
536.38	38990.98
536.55	38927.79
536.72	39119.71
536.89	38904.38
537.06	39124.40
537.23	39545.69
537.40	39398.24
537.57	39196.95
537.74	39636.97
537.91	39887.41
538.08	39400.58
538.25	39414.62
538.42	39519.95
538.59	39622.93
538.75	39391.22
538.92	39852.30
539.09	39854.64
539.26	39721.23
539.43	39763.36
539.60	39648.68
539.77	39601.86
539.94	40004.44
540.11	39629.95
540.28	39922.52
540.44	40039.54
540.61	40067.63
540.78	39927.20
540.95	39892.09
541.12	40128.48
541.29	39983.37
541.46	39966.99
541.62	40591.91
541.79	41146.62
541.96	39658.04
542.13	40561.48
542.30	40215.08
542.47	40301.68
542.63	40631.70
542.80	40928.95
542.97	41127.89
543.14	40900.86
543.31	41322.16
543.48	40931.29
543.64	41603.02
543.81	41368.97
543.98	41277.69
544.15	41102.15
544.32	41216.83
544.48	41652.17
544.65	41134.92
544.82	41270.67
544.99	41390.03
545.16	41464.93
545.32	41420.46
545.49	42204.54
545.66	41696.64
545.83	41926.02
546.00	42000.91
546.16	41720.05
546.33	41221.52
546.50	41186.41
546.67	41373.65
546.83	41345.56
547.00	41778.56
547.17	41588.98
547.34	41972.83
547.50	41528.13
547.67	41638.13
547.84	41968.15
548.00	42007.94
548.17	41916.65
548.34	42553.28
548.51	42588.39
548.67	42431.57
548.84	41799.63
549.01	42440.93
549.18	42124.96
549.34	42302.84
549.51	42632.86
549.68	42436.25
549.84	42635.20
550.01	42674.99
550.18	42204.54
550.34	42546.26
550.51	42452.64
550.68	42864.57
550.84	41944.74
551.01	42401.14
551.18	42550.94
551.34	42859.89
551.51	42953.51
551.68	42602.43
551.84	42799.04
552.01	42672.65
552.18	42717.12
552.34	42766.27
552.51	42976.92
552.68	42679.67
552.84	42972.24
553.01	43456.73
553.18	42815.42
553.34	43098.62
553.51	42330.93
553.67	43065.86
553.84	43278.85
554.01	43311.61
554.17	43117.35
554.34	43510.56
554.51	42955.85
554.67	43524.60
554.84	43440.34
555.00	42993.30
555.17	43225.01
555.33	43267.14
555.50	43171.18
555.67	43374.81
555.83	43196.93
556.00	43477.79
556.16	43409.92
556.33	43150.12
556.50	43077.56
556.66	43643.97
556.83	43356.08
556.99	43966.96
557.16	43737.59
557.32	43512.90
557.49	43835.89
557.65	43529.28
557.82	43711.84
557.98	44091.01
558.15	43601.84
558.32	43491.83
558.48	43562.05
558.65	43508.22
558.81	43260.12
558.98	43885.04
559.14	43744.61
559.31	43328.00
559.47	44044.20
559.64	44264.21
559.80	43807.81
559.97	43922.49
560.13	43517.58
560.30	43765.68
560.46	43887.39
560.63	43981.01
560.79	44205.70
560.96	44664.44
561.12	44032.50
561.29	43737.59
561.45	43971.64
561.61	44112.08
561.78	44414.01
561.94	44212.72
562.11	44055.90
562.27	44390.60
562.44	44105.06
562.60	44416.35
562.77	44212.72
562.93	44376.56
563.10	44385.92
563.26	43796.10
563.42	44259.53
563.59	43812.49
563.75	44016.11
563.92	44460.82
564.08	44074.63
564.24	44797.85
564.41	44306.34
564.57	44683.17
564.74	43962.28
564.90	44179.95
565.07	44531.03
565.23	44030.16
565.39	43807.81
565.56	44512.31
565.72	44039.52
565.88	44680.83
566.05	44516.99
566.21	44170.59
566.38	44243.15
566.54	44315.70
566.70	44552.10
566.87	44612.95
567.03	44247.83
567.19	44973.39
567.36	44928.92
567.52	44453.79
567.68	44638.70
567.85	44704.23
568.01	44821.26
568.17	44378.90
568.34	44797.85
568.50	44406.98
568.66	44521.67
568.83	44531.03
568.99	44519.33
569.15	44055.90
569.32	44182.29
569.48	44388.26
569.64	44861.05
569.81	44715.93
569.97	44996.80
570.13	44556.78
570.30	44804.88
570.46	44418.69
570.62	44734.66
570.78	44561.46
570.95	44362.51
571.11	44725.30
571.27	44830.62
571.43	44425.71
571.60	44458.48
571.76	44772.11
571.92	44617.63
572.09	44479.54
572.25	44587.21
572.41	44552.10
572.57	45298.73
572.74	44898.50
572.90	44968.71
573.06	44891.48
573.22	44612.95
573.38	44697.21
573.55	45027.23
573.71	44507.63
573.87	45237.87
574.03	44954.67
574.20	44776.79
574.36	44435.07
574.52	44533.37
574.68	44863.39
574.84	44931.26
575.01	44769.77
575.17	44744.02
575.33	44381.24
575.49	44545.08
575.65	45010.84
575.82	44825.94
575.98	44442.09
576.14	45476.61
576.30	44772.11
576.46	44870.41
576.62	44687.85
576.79	44975.73
576.95	44423.37
577.11	44884.45
577.27	44851.69
577.43	44989.78
577.59	44591.89
577.75	44753.38
577.92	44584.86
578.08	44514.65
578.24	44549.76
578.40	44521.67
578.56	44699.55
578.72	45095.10
578.88	45289.37
579.04	44835.30
579.21	45228.51
579.37	45237.87
579.53	44928.92
579.69	44437.41
579.85	44587.21
580.01	44924.24
580.17	44954.67
580.33	45247.24
580.49	44996.80
580.65	45284.68
580.82	45076.38
580.98	44942.97
581.14	44737.00
581.30	45361.92
581.46	44769.77
581.62	44718.28
581.78	45127.87
581.94	45375.97
582.10	44472.52
582.26	45050.63
582.42	44788.49
582.58	45265.96
582.74	45127.87
582.90	45251.92
583.06	45141.91
583.22	44898.50
583.38	45013.18
583.54	45457.88
583.70	44982.76
583.86	45036.59
584.02	44474.86
584.18	45490.65
584.34	44704.23
584.50	45069.36
584.66	44863.39
584.82	44968.71
584.98	45380.65
585.14	45118.51
585.30	45057.65
585.46	45015.52
585.62	45067.02
585.78	45069.36
585.94	44989.78
586.10	44751.04
586.26	44828.28
586.42	45116.17
586.58	45151.27
586.74	45059.99
586.90	45055.31
587.06	45106.80
587.22	45092.76
587.38	44507.63
587.54	45123.19
587.70	45244.90
587.86	44928.92
588.02	45067.02
588.18	45247.24
588.34	44910.20
588.49	44737.00
588.65	44357.83
588.81	44652.74
588.97	44891.48
589.13	44435.07
589.29	45165.32
589.45	45116.17
589.61	45277.66
589.77	45333.84
589.93	45148.93
590.08	45088.08
590.24	45181.70
590.40	45624.06
590.56	45378.31
590.72	45633.42
590.88	45001.48
591.04	45329.16
591.20	45839.39
591.35	45357.24
591.51	45469.59
591.67	45532.78
591.83	45460.23
591.99	44877.43
592.15	44811.90
592.31	45624.06
592.46	44961.69
592.62	45270.64
592.78	45289.37
592.94	45497.67
593.10	45144.25
593.26	45591.30
593.41	45106.80
593.57	45415.76
593.73	44844.66
593.89	45460.23
594.05	45265.96
594.20	45455.54
594.36	45034.25
594.52	45581.93
594.68	45347.88
594.84	45029.57
594.99	45446.18
595.15	45258.94
595.31	45453.20
595.47	45244.90
595.62	45408.73
595.78	45230.85
595.94	45586.61
596.10	45464.91
596.25	45701.30
596.41	45186.38
596.57	45886.20
596.73	45731.73
596.88	45282.34
597.04	44921.90
597.20	45745.77
597.36	45347.88
597.51	45741.09
597.67	45902.59
597.83	45661.51
597.99	45633.42
598.14	45116.17
598.30	45415.76
598.46	45584.27
598.61	45331.50
598.77	45193.40
598.93	45216.81
599.09	44940.63
599.24	45970.46
599.40	45633.42
599.56	45523.42
599.71	45558.53
599.87	45485.97
600.03	45062.33
600.18	45638.11
600.34	45076.38
600.50	45148.93
600.65	45509.38
600.81	45249.58
600.97	45624.06
601.12	45347.88
601.28	45371.28
601.44	45345.54
601.59	45408.73
601.75	45331.50
601.91	44774.45
602.06	45268.30
602.22	45242.56
602.37	45214.47
602.53	45205.11
602.69	45710.66
602.84	45425.12
603.00	45177.02
603.16	45277.66
603.31	45404.05
603.47	45092.76
603.62	45202.77
603.78	45041.27
603.94	45357.24
604.09	45490.65
604.25	45827.69
604.40	45483.63
604.56	45097.44
604.71	45478.95
604.87	44994.46
605.03	44917.22
605.18	44949.99
605.34	45202.77
605.49	45202.77
605.65	44966.37
605.80	45457.88
605.96	45303.41
606.12	45329.16
606.27	45333.84
606.43	45097.44
606.58	45537.46
606.74	45104.46
606.89	45399.37
607.05	45301.07
607.20	45338.52
607.36	44910.20
607.51	44870.41
607.67	45165.32
607.82	45270.64
607.98	44830.62
608.13	45029.57
608.29	45106.80
608.44	44652.74
608.60	44748.70
608.75	44783.81
608.91	44959.35
609.06	44715.93
609.22	45298.73
609.37	44694.87
609.53	44444.43
609.68	44634.02
609.84	44547.42
609.99	44935.95
610.15	44729.98
610.30	44715.93
610.46	44765.09
610.61	44566.14
610.76	44722.96
610.92	44758.06
611.07	45352.56
611.23	44655.08
611.38	44521.67
611.54	44795.51
611.69	44442.09
611.84	44739.34
612.00	44531.03
612.15	44411.67
612.31	45008.50
612.46	44313.36
612.62	44463.16
612.77	44505.29
612.92	44545.08
613.08	44467.84
613.23	44514.65
613.39	44526.35
613.54	44177.61
613.69	44509.97
613.85	44453.79
614.00	44390.60
614.15	44666.78
614.31	44498.26
614.46	44418.69
614.62	44451.45
614.77	44311.02
614.92	44704.23
615.08	44634.02
615.23	44095.69
615.38	44470.18
615.54	43592.48
615.69	44076.97
615.84	44552.10
616.00	43966.96
616.15	43746.95
616.30	44135.48
616.46	44142.50
616.61	43765.68
616.76	43943.56
616.92	43363.11
617.07	43840.57
617.22	43667.37
617.37	43779.72
617.53	44013.77
617.68	43957.60
617.83	43725.89
617.99	44313.36
618.14	44128.46
618.29	43988.03
618.45	43782.06
618.60	43288.21
618.75	43505.88
618.90	43819.51
619.06	43749.29
619.21	43941.22
619.36	44011.43
619.51	43847.60
619.67	43599.50
619.82	43660.35
619.97	44179.95
620.12	43548.01
620.28	43217.99
620.43	43463.75
620.58	43674.40
620.73	43281.19
620.89	43412.26
621.04	42967.55
621.19	43152.46
621.34	43398.21
621.49	43611.20
621.65	43189.91
621.80	43290.55
621.95	43105.65
622.10	43269.48
622.25	43288.21
622.41	42745.20
622.56	42948.83
622.71	43012.02
622.86	42848.19
623.01	42738.18
623.16	43203.95
623.32	42754.57
623.47	42803.72
623.62	42759.25
623.77	42878.61
623.92	42920.74
624.07	42766.27
624.23	42492.43
624.38	42649.24
624.53	42838.83
624.68	42700.73
624.83	42880.95
624.98	42934.79
625.13	42689.03
625.29	42302.84
625.44	42443.27
625.59	42319.23
625.74	42263.05
625.89	42129.64
626.04	42099.22
626.19	42033.68
626.34	42539.24
626.49	42466.68
626.65	42646.90
626.80	42139.00
626.95	42843.51
627.10	42080.49
627.25	42192.84
627.40	41876.86
627.55	41879.21
627.70	41563.23
627.85	41736.43
628.00	41364.29
628.15	41897.93
628.30	41797.29
628.45	42024.32
628.60	42043.04
628.76	42258.37
628.91	42122.62
629.06	41893.25
629.21	41755.16
629.36	41205.13
629.51	41577.28
629.66	41876.86
629.81	41556.21
629.96	41991.55
630.11	41642.81
630.26	41783.24
630.41	41752.82
630.56	41783.24
630.71	41923.68
630.86	41656.85
631.01	41352.58
631.16	41841.76
631.31	41617.07
631.46	41605.36
631.61	41296.41
631.76	41567.91
631.91	41214.49
632.06	41071.72
632.21	42157.73
632.36	41888.57
632.51	41116.19
632.66	41457.91
632.81	41074.06
632.96	41392.37
633.10	40861.07
633.25	41207.47
633.40	40891.50
633.55	41371.31
633.70	41251.94
633.85	41251.94
634.00	41085.76
634.15	40914.90
634.30	41085.76
634.45	41109.17
634.60	40893.84
634.75	41099.81
634.90	40502.97
635.05	41071.72
635.19	40615.32
635.34	40935.97
635.49	40715.96
635.64	40556.80
635.79	40418.71
635.94	40879.80
636.09	40369.56
636.24	40467.86
636.39	40149.55
636.53	40402.33
636.68	40376.58
636.83	40315.73
636.98	40893.84
637.13	40535.74
637.28	40210.40
637.43	40629.36
637.57	40577.87
637.72	40488.93
637.87	40545.10
638.02	40329.77
638.17	40446.80
638.32	40250.19
638.46	40217.43
638.61	40458.50
638.76	40114.44
638.91	40137.85
639.06	40123.80
639.20	40016.14
639.35	40318.07
639.50	40285.30
639.65	40374.24
639.80	40027.84
639.94	40495.95
640.09	40189.34
640.24	39910.82
640.39	39569.10
640.54	39428.66
640.68	39651.02
640.83	39613.57
640.98	39550.37
641.13	39548.03
641.27	39786.77
641.42	39550.37
641.57	39693.15
641.72	39456.75
641.86	39447.39
642.01	39016.73
642.16	39604.20
642.31	39049.50
642.45	39819.53
642.60	39381.85
642.75	39269.51
642.90	39391.22
643.04	39360.79
643.19	39445.05
643.34	39306.96
643.48	38782.68
643.63	39604.20
643.78	39096.31
643.93	39255.46
644.07	39491.86
644.22	39218.02
644.37	39058.86
644.51	39278.87
644.66	39583.14
644.81	39267.17
644.95	39452.07
645.10	39047.16
645.25	39482.50
645.39	39531.65
645.54	39325.68
645.69	39007.37
645.83	38754.59
645.98	39054.18
646.13	39035.45
646.27	39082.27
646.42	38651.61
646.57	38951.20
646.71	39150.14
646.86	39110.35
647.00	38995.67
647.15	39110.35
647.30	38686.71
647.44	38733.53
647.59	39274.19
647.74	38639.90
647.88	38628.20
648.03	38609.48
648.17	38817.78
648.32	38312.23
648.47	38356.70
648.61	38389.47
648.76	38436.28
648.90	38672.67
649.05	38394.15
649.20	38628.20
649.34	38714.80
649.49	38281.80
649.63	38396.49
649.78	38199.88
649.92	38010.30
650.07	38501.81
650.21	38190.52
650.36	38216.27
650.51	38148.39
650.65	38373.08
650.80	38394.15
650.94	38532.24
651.09	38223.29
651.23	38424.57
651.38	37858.17
651.52	37888.59
651.67	37841.78
651.81	37654.54
651.96	37916.68
652.10	37846.46
652.25	37633.47
652.39	37914.34
652.54	37975.19
652.68	37743.48
652.83	37811.35
652.97	37830.08
653.12	37912.00
653.26	37755.18
653.41	37586.66
653.55	37551.56
653.70	37661.56
653.84	37621.77
653.99	37787.95
654.13	37305.80
654.27	37244.94
654.42	37525.81
654.56	37361.97
654.71	37860.51
654.85	37563.26
655.00	37310.48
655.14	37490.70
655.29	36910.25
655.43	37273.03
655.57	36938.33
655.72	36975.78
655.86	37010.89
656.01	36809.61
656.15	36645.77
656.30	36605.98
656.44	37041.32
656.58	36898.55
656.73	36732.37
656.87	37144.30
657.01	37034.30
657.16	36928.97
657.30	36678.54
657.45	36992.17
657.59	36938.33
657.73	36966.42
657.88	37186.43
658.02	37106.85
658.16	37006.21
658.31	36816.63
658.45	36648.11
658.60	36442.14
658.74	36978.12
658.88	36643.43
659.03	36528.74
659.17	36648.11
659.31	36362.56
659.46	36355.54
659.60	36620.02
659.74	36601.30
659.89	36404.69
660.03	35995.10
660.17	36137.87
660.32	36229.15
660.46	36336.82
660.60	35889.77
660.74	36332.14
660.89	36257.24
661.03	35938.93
661.17	35847.64
661.32	35922.54
661.46	35161.87
661.60	35477.84
661.74	35466.14
661.89	35959.99
662.03	35637.00
662.17	35578.48
662.31	35105.70
662.46	35716.58
662.60	35838.28
662.74	35503.59
662.88	35522.31
663.03	35028.46
663.17	35007.39
663.31	34962.92
663.45	35171.23
663.60	35091.65
663.74	34733.55
663.88	34539.29
664.02	34717.17
664.17	35133.78
664.31	34993.35
664.45	34644.61
664.59	34885.68
664.73	34941.86
664.88	34843.56
665.02	34366.09
665.16	34719.51
665.30	34665.67
665.44	34349.70
665.59	34235.02
665.73	34368.43
665.87	34150.76
666.01	33933.09
666.15	34115.65
666.29	34029.05
666.44	34553.33
666.58	34340.34
666.72	34127.35
666.86	34148.42
667.00	34150.76
667.14	33656.90
667.28	33823.08
667.43	33502.43
667.57	33874.57
667.71	33521.15
667.85	33684.99
667.99	33771.59
668.13	33324.55
668.27	33413.49
668.41	33670.95
668.56	33060.07
668.70	33699.03
668.84	33156.03
668.98	33350.29
669.12	32987.51
669.26	32877.51
669.40	33205.18
669.54	33022.62
669.68	32760.48
669.82	32926.66
669.96	32694.94
670.10	32514.72
670.25	32830.69
670.39	32636.43
670.53	32500.68
670.67	31913.20
670.81	32474.93
670.95	32528.77
671.09	32144.92
671.23	32299.39
671.37	32580.26
671.51	32627.07
671.65	31880.44
671.79	32290.03
671.93	31941.29
672.07	32238.54
672.21	31419.35
672.35	32292.37
672.49	32245.56
672.63	32032.57
672.77	31814.90
672.91	31611.28
673.05	31700.22
673.19	31559.78
673.33	31409.99
673.47	31531.70
673.61	31150.19
673.75	31075.29
673.89	30883.37
674.03	31084.65
674.17	30738.26
674.31	31204.02
674.45	30604.84
674.59	30632.93
674.73	31318.71
674.87	30646.97
675.01	30794.43
675.15	30604.84
675.29	30771.02
675.43	30607.19
675.56	30455.05
675.70	30260.79
675.84	30174.19
675.98	29188.82
676.12	30164.82
676.26	30188.23
676.40	29855.87
676.54	30024.39
676.68	30015.03
676.82	29261.38
676.96	29909.71
677.10	29759.91
677.23	29502.45
677.37	29710.76
677.51	29057.75
677.65	28875.19
677.79	28615.39
677.93	28781.57
678.07	28807.31
678.21	28641.14
678.34	28575.60
678.48	28596.67
678.62	28643.48
678.76	27812.59
678.90	28095.79
679.04	28414.10
679.18	28121.54
679.31	27578.53
679.45	27669.81
679.59	27744.71
679.73	27173.62
679.87	27435.76
680.00	27679.18
680.14	27264.90
680.28	27384.27
680.42	27215.75
680.56	27672.15
680.70	27421.72
680.83	27384.27
680.97	27187.66
681.11	27550.45
681.25	26962.97
681.39	26534.65
681.52	26902.12
681.66	26792.11
681.80	26590.83
681.94	26513.59
682.07	26562.74
682.21	26635.30
682.35	25982.29
682.49	26221.02
682.62	26139.10
682.76	26169.53
682.90	25900.37
683.04	25907.39
683.17	25483.75
683.31	25343.32
683.45	25797.38
683.59	25392.47
683.72	25315.23
683.86	25488.43
684.00	25462.69
684.13	25242.68
684.27	25127.99
684.41	25039.05
684.55	24964.15
684.68	24610.73
684.82	24828.40
684.96	24765.21
685.09	25036.71
685.23	24655.20
685.37	24414.13
685.50	24428.17
685.64	24584.99
685.78	24173.05
685.91	23971.77
686.05	23749.42
686.19	23775.16
686.32	23749.42
686.46	23391.31
686.60	23318.76
686.73	23482.59
686.87	22888.10
687.01	23290.67
687.14	22878.74
687.28	23040.23
687.42	23300.03
687.55	22764.05
687.69	23199.39
687.82	23145.56
687.96	22960.66
688.10	22740.64
688.23	22483.19
688.37	22265.52
688.50	22242.11
688.64	22396.59
688.78	22176.58
688.91	22068.91
689.05	22281.90
689.18	22359.14
689.32	21696.77
689.46	21811.45
689.59	22012.74
689.73	22087.64
689.86	21788.05
690.00	21607.83
690.13	21872.31
690.27	21436.97
690.41	21209.93
690.54	21137.38
690.68	21329.30
690.81	20760.55
690.95	20830.77
691.08	20865.88
691.22	21249.72
691.35	20919.71
691.49	20922.05
691.62	20957.16
691.76	20650.55
691.89	20737.15
692.03	20585.01
692.16	20346.28
692.30	20161.37
692.43	20240.95
692.57	20093.50
692.70	19648.80
692.84	19985.83
692.97	19817.32
693.11	19901.58
693.24	19541.13
693.38	19580.92
693.51	19529.43
693.65	19861.79
693.78	19627.73
693.92	19688.59
694.05	19096.43
694.19	19419.42
694.32	19269.63
694.45	19009.83
694.59	19236.86
694.72	18665.77
694.86	18661.09
694.99	18544.06
695.13	18773.44
695.26	18616.62
695.39	18253.84
695.53	18523.00
695.66	18253.84
695.80	18434.06
695.93	18333.42
696.07	17963.61
696.20	18246.82
696.33	18078.30
696.47	17729.56
696.60	17549.34
696.73	17710.83
696.87	17603.17
697.00	17972.97
697.14	17750.62
697.27	17343.37
697.40	17495.50
697.54	17495.50
697.67	17118.68
697.80	17188.89
697.94	16980.59
698.07	17263.79
698.21	17081.23
698.34	16718.45
698.47	16805.05
698.61	16566.31
698.74	16496.10
698.87	16346.30
699.01	16411.84
699.14	16051.39
699.27	16201.19
699.40	16084.16
699.54	16252.68
699.67	16081.82
699.80	16030.33
699.94	15789.25
700.07	15936.71
700.20	15681.59
700.34	15637.12
700.47	15845.43
700.60	15983.52
700.73	15765.85
700.87	15974.16
701.00	15407.75
701.13	15229.87
701.26	15349.23
701.40	15365.62
701.53	15293.06
701.66	15161.99
701.79	15061.35
701.93	15225.18
702.06	15021.56
702.19	14810.91
702.32	14796.87
702.46	14501.96
702.59	14565.15
702.72	14789.85
702.85	14546.43
702.99	14490.26
703.12	14162.58
703.25	14193.01
703.38	14324.08
703.51	14129.81
703.65	14314.72
703.78	13900.44
703.91	13832.57
704.04	13886.40
704.17	13919.17
704.31	13923.85
704.44	13762.35
704.57	13699.16
704.70	13731.92
704.83	13614.90
704.96	13678.09
705.10	13600.85
705.23	13607.87
>>>>>End Processed Spectral Data<<<<<
