SpectraSuite Data File
++++++++++++++++++++++++++++++++++++
Date: Fri Oct 25 11:33:36 EDT 2013
User: price-jones
Dark Spectrum Present: No
Reference Spectrum Present: No
Number of Sampled Component Spectra: 1
Spectrometers: USB2+H05261
Integration Time (usec): 100000 (USB2+H05261)
Spectra Averaged: 1 (USB2+H05261)
Boxcar Smoothing: 0 (USB2+H05261)
Correct for Electrical Dark: No (USB2+H05261)
Strobe/Lamp Enabled: No (USB2+H05261)
Correct for Detector Non-linearity: No (USB2+H05261)
Correct for Stray Light: No (USB2+H05261)
Number of Pixels in Processed Spectrum: 2048
>>>>>Begin Processed Spectral Data<<<<<
365.73	257.46
365.92	257.46
366.12	257.46
366.32	229.37
366.52	142.77
366.72	220.01
366.91	182.56
367.11	189.58
367.31	180.22
367.51	124.05
367.70	259.80
367.90	215.33
368.10	128.73
368.30	149.79
368.49	194.26
368.69	229.37
368.89	229.37
369.09	156.82
369.28	198.95
369.48	173.20
369.68	245.76
369.87	194.26
370.07	259.80
370.27	311.29
370.47	376.83
370.66	454.06
370.86	470.45
371.06	517.26
371.25	622.58
371.45	557.05
371.65	573.43
371.84	594.50
372.04	566.41
372.24	540.66
372.44	615.56
372.63	561.73
372.83	568.75
373.03	545.34
373.22	648.33
373.42	634.29
373.62	676.41
373.81	671.73
374.01	725.57
374.21	697.48
374.40	592.16
374.60	695.14
374.79	636.63
374.99	653.01
375.19	571.09
375.38	610.88
375.58	643.65
375.78	695.14
375.97	690.46
376.17	760.67
376.37	667.05
376.56	676.41
376.76	650.67
376.95	582.79
377.15	685.78
377.35	739.61
377.54	702.16
377.74	657.69
377.93	645.99
378.13	704.50
378.33	699.82
378.52	793.44
378.72	716.20
378.91	711.52
379.11	603.86
379.31	674.07
379.50	667.05
379.70	727.91
379.89	725.57
380.09	718.54
380.28	744.29
380.48	765.36
380.68	690.46
380.87	702.16
381.07	653.01
381.26	847.27
381.46	826.21
381.65	720.88
381.85	753.65
382.04	777.06
382.24	828.55
382.43	802.80
382.63	716.20
382.83	763.01
383.02	828.55
383.22	767.70
383.41	863.66
383.61	793.44
383.80	826.21
384.00	802.80
384.19	826.21
384.39	812.17
384.58	842.59
384.78	837.91
384.97	908.13
385.17	805.14
385.36	755.99
385.56	786.42
385.75	854.30
385.95	858.98
386.14	800.46
386.34	861.32
386.53	910.47
386.72	786.42
386.92	903.45
387.11	882.38
387.31	889.40
387.50	851.96
387.70	866.00
387.89	903.45
388.09	868.34
388.28	926.85
388.48	926.85
388.67	926.85
388.86	924.51
389.06	954.94
389.25	873.02
389.45	964.30
389.64	976.00
389.84	931.53
390.03	898.77
390.22	983.02
390.42	980.68
390.61	971.32
390.81	1018.13
391.00	1034.52
391.19	987.71
391.39	919.83
391.58	1029.84
391.78	1090.69
391.97	1043.88
392.16	1034.52
392.36	1128.14
392.55	1128.14
392.75	1022.81
392.94	1165.59
393.13	1139.84
393.33	1086.01
393.52	959.62
393.71	1123.46
393.91	1118.78
394.10	1048.56
394.29	1121.12
394.49	1128.14
394.68	1090.69
394.88	1188.99
395.07	1123.46
395.26	1156.22
395.46	1060.26
395.65	1076.65
395.84	1179.63
396.04	1235.80
396.23	1184.31
396.42	1165.59
396.62	1242.82
396.81	1200.69
397.00	1165.59
397.19	1228.78
397.39	1259.21
397.58	1184.31
397.77	1273.25
397.97	1240.48
398.16	1301.34
398.35	1228.78
398.55	1228.78
398.74	1228.78
398.93	1310.70
399.12	1359.85
399.32	1394.96
399.51	1355.17
399.70	1282.61
399.90	1345.81
400.09	1397.30
400.28	1376.24
400.47	1331.76
400.67	1441.77
400.86	1444.11
401.05	1441.77
401.24	1418.36
401.44	1486.24
401.63	1380.92
401.82	1448.79
402.01	1366.87
402.21	1486.24
402.40	1448.79
402.59	1380.92
402.78	1474.54
402.97	1551.78
403.17	1509.65
403.36	1563.48
403.55	1495.60
403.74	1600.93
403.93	1654.76
404.13	1584.54
404.32	1472.20
404.51	1664.12
404.70	1603.27
404.89	1572.84
405.09	1614.97
405.28	1568.16
405.47	1652.42
405.66	1783.49
405.85	1799.87
406.05	1600.93
406.24	1811.57
406.43	1795.19
406.62	1778.81
406.81	1825.62
407.00	1872.43
407.20	1715.61
407.39	1755.40
407.58	1797.53
407.77	1846.68
407.96	1895.83
408.15	1954.35
408.34	1827.96
408.54	2008.18
408.73	1933.28
408.92	1944.99
409.11	2019.88
409.30	2036.27
409.49	1963.71
409.68	1980.09
409.87	2040.95
410.07	2069.03
410.26	2087.76
410.45	2094.78
410.64	2120.53
410.83	2143.93
411.02	2118.18
411.21	2267.98
411.40	2218.83
411.59	2120.53
411.78	2188.40
411.98	2186.06
412.17	2225.85
412.36	2242.23
412.55	2352.24
412.74	2249.25
412.93	2239.89
413.12	2331.17
413.31	2513.74
413.50	2345.22
413.69	2291.38
413.88	2377.98
414.07	2534.80
414.26	2658.85
414.45	2445.86
414.64	2576.93
414.83	2555.86
415.02	2576.93
415.22	2612.04
415.41	2593.31
415.60	2679.91
415.79	2787.58
415.98	2686.94
416.17	2712.68
416.36	2588.63
416.55	2663.53
416.74	2822.69
416.93	2885.88
417.12	2803.96
417.31	2787.58
417.50	2829.71
417.69	2846.09
417.88	2937.37
418.07	2906.95
418.26	2956.10
418.45	2965.46
418.64	3052.06
418.83	3009.93
419.02	3066.10
419.21	3222.92
419.39	3164.40
419.58	3035.67
419.77	3028.65
419.96	3126.96
420.15	3206.53
420.34	3126.96
420.53	3164.40
420.72	3234.62
420.91	3302.50
421.10	3225.26
421.29	3384.41
421.48	3309.52
421.67	3269.73
421.86	3412.50
422.05	3211.22
422.24	3236.96
422.43	3309.52
422.61	3344.63
422.80	3276.75
422.99	3332.92
423.18	3412.50
423.37	3398.46
423.56	3410.16
423.75	3452.29
423.94	3342.28
424.13	3157.38
424.32	3218.24
424.50	3595.06
424.69	3421.86
424.88	3471.01
425.07	3454.63
425.26	3403.14
425.45	3496.76
425.64	3377.39
425.83	3405.48
426.01	3524.85
426.20	3365.69
426.39	3414.84
426.58	3440.59
426.77	3597.40
426.96	3609.11
427.15	3520.17
427.33	3632.51
427.52	3714.43
427.71	3784.65
427.90	3641.87
428.09	3620.81
428.28	3735.50
428.46	3625.49
428.65	3627.83
428.84	3730.81
429.03	3676.98
429.22	3618.47
429.40	3644.21
429.59	3840.82
429.78	3534.21
429.97	3779.97
430.16	3784.65
430.34	3831.46
430.53	3812.73
430.72	3878.27
430.91	3878.27
431.10	3803.37
431.28	3812.73
431.47	4023.38
431.66	4053.81
431.85	4011.68
432.03	4002.32
432.22	4098.28
432.41	3833.80
432.60	3922.74
432.79	4161.47
432.97	4037.42
433.16	4273.82
433.35	3985.93
433.54	4182.54
433.72	4056.15
433.91	4285.52
434.10	4255.09
434.28	4175.52
434.47	4222.33
434.66	4430.63
434.85	4416.59
435.03	4367.44
435.22	4152.11
435.41	4489.15
435.59	4365.10
435.78	4369.78
435.97	4416.59
436.16	4444.68
436.34	4432.97
436.53	4442.34
436.72	4582.77
436.90	4325.31
437.09	4629.58
437.28	4346.37
437.46	4468.08
437.65	4540.64
437.84	4622.56
438.02	4547.66
438.21	4805.12
438.40	4564.04
438.58	4809.80
438.77	4664.69
438.96	4706.82
439.14	4936.19
439.33	4931.51
439.52	5036.83
439.70	4774.69
439.89	4992.36
440.08	5022.79
440.26	5060.24
440.45	4933.85
440.63	5067.26
440.82	5139.82
441.01	5111.73
441.19	5151.52
441.38	5287.27
441.57	5144.50
441.75	5329.40
441.94	5439.40
442.12	5469.83
442.31	5437.06
442.50	5495.58
442.68	5488.56
442.87	5643.03
443.05	5647.71
443.24	5521.32
443.43	5371.53
443.61	5610.26
443.80	5603.24
443.98	5432.38
444.17	5320.04
444.35	5638.35
444.54	5685.16
444.73	5895.81
444.91	5591.54
445.10	5624.31
445.28	5556.43
445.47	5593.88
445.65	5790.49
445.84	5741.33
446.02	5682.82
446.21	5792.83
446.39	5785.80
446.58	5734.31
446.77	5895.81
446.95	5596.22
447.14	5682.82
447.32	5846.66
447.51	5502.60
447.69	5713.25
447.88	5767.08
448.06	5839.64
448.25	5792.83
448.43	5652.39
448.62	5818.57
448.80	5900.49
448.99	5928.58
449.17	5813.89
449.36	5877.09
449.54	5844.32
449.73	6047.94
449.91	6071.35
450.10	5998.79
450.28	5991.77
450.46	6207.10
450.65	6249.23
450.83	6171.99
451.02	6104.12
451.20	6223.48
451.39	6221.14
451.57	6104.12
451.76	6146.25
451.94	6057.31
452.13	6265.61
452.31	6228.17
452.49	6120.50
452.68	6324.13
452.86	6324.13
453.05	6471.58
453.23	6293.70
453.42	6448.18
453.60	6190.72
453.78	6382.64
453.97	6431.79
454.15	6457.54
454.34	6544.14
454.52	6459.88
454.70	6707.98
454.89	6604.99
455.07	6518.39
455.26	6504.35
455.44	6846.07
455.62	6609.67
455.81	6675.21
455.99	6885.86
456.17	6682.23
456.36	6761.81
456.54	6857.77
456.73	6984.16
456.91	6965.43
457.09	7068.42
457.28	7138.63
457.46	6942.03
457.64	7136.29
457.83	7056.72
458.01	6930.33
458.19	7063.74
458.38	7030.97
458.56	7089.48
458.74	7133.95
458.93	7155.02
459.11	6937.35
459.29	7190.13
459.48	7328.22
459.66	7206.51
459.84	7250.98
460.03	7288.43
460.21	7620.78
460.39	7323.54
460.57	7445.24
460.76	7431.20
460.94	7653.55
461.12	7555.25
461.31	7550.57
461.49	7482.69
461.67	7552.91
461.85	7665.25
462.04	7424.18
462.22	8079.53
462.40	7744.83
462.59	7896.97
462.77	7786.96
462.95	7756.54
463.13	7693.34
463.32	7662.91
463.50	7913.35
463.68	7903.99
463.86	7906.33
464.05	7903.99
464.23	7929.74
464.41	7955.48
464.59	7709.72
464.78	8175.49
464.96	7985.91
465.14	7798.66
465.32	8032.72
465.50	8016.33
465.69	8219.96
465.87	8077.19
466.05	8131.02
466.23	8032.72
466.41	8334.65
466.60	8283.16
466.78	8182.51
466.96	8187.19
467.14	8060.80
467.32	8442.31
467.51	8336.99
467.69	7990.59
467.87	8463.38
468.05	8418.91
468.23	8367.42
468.41	8629.56
468.60	8456.36
468.78	8355.71
468.96	8421.25
469.14	8393.16
469.32	8702.11
469.50	8273.79
469.69	8592.11
469.87	8671.68
470.05	8791.05
470.23	8828.50
470.41	8938.51
470.59	8683.39
470.77	8858.93
470.95	8847.22
471.14	9149.15
471.32	8922.12
471.50	9018.08
471.68	9137.45
471.86	9116.39
472.04	9383.21
472.22	9226.39
472.40	9050.85
472.58	9109.36
472.77	9308.31
472.95	9483.85
473.13	9778.76
473.31	9266.18
473.49	9390.23
473.67	9348.10
473.85	9757.69
474.03	9797.48
474.21	9809.19
474.39	9776.42
474.57	9579.81
474.75	9778.76
474.93	9956.64
475.12	9975.36
475.30	9977.70
475.48	9989.41
475.66	10274.95
475.84	10197.71
476.02	10150.90
476.20	10164.95
476.38	10485.60
476.56	10382.62
476.74	10436.45
476.92	10452.83
477.10	10494.96
477.28	10661.14
477.46	10565.18
477.64	10878.81
477.82	10733.70
478.00	11042.65
478.18	10904.56
478.36	11208.83
478.54	11213.51
478.72	11342.24
478.90	11641.82
479.08	11433.52
479.26	11667.57
479.44	11693.32
479.62	11920.35
479.80	12053.76
479.98	12156.74
480.16	12435.27
480.34	12201.21
480.52	12161.42
480.70	12191.85
480.88	12156.74
481.06	12493.78
481.24	12650.60
481.41	12786.35
481.59	12475.06
481.77	12922.10
481.95	12821.45
482.13	12959.55
482.31	13006.36
482.49	13273.18
482.67	13107.00
482.85	13350.42
483.03	13762.35
483.21	13692.13
483.39	13598.51
483.57	13547.02
483.74	13841.93
483.92	13879.38
484.10	13860.65
484.28	14469.19
484.46	14576.86
484.64	14427.06
484.82	14342.80
485.00	14611.96
485.18	14733.67
485.35	15164.33
485.53	14974.75
485.71	15211.14
485.89	15370.30
486.07	15234.55
486.25	15599.67
486.43	15658.18
486.61	15655.84
486.78	15939.05
486.96	15843.09
487.14	16238.64
487.32	16046.71
487.50	16491.41
487.68	16311.19
487.85	16442.26
488.03	16800.37
488.21	17125.70
488.39	16947.82
488.57	17324.65
488.75	17238.05
488.92	17422.95
489.10	17621.89
489.28	17813.82
489.46	17717.86
489.64	17680.41
489.81	18164.90
489.99	18031.49
490.17	18181.28
490.35	18518.32
490.53	18616.62
490.70	18897.49
490.88	18405.97
491.06	18944.30
491.24	18895.14
491.41	18930.25
491.59	19234.52
491.77	19241.54
491.95	19463.90
492.13	19634.75
492.30	19632.41
492.48	20020.94
492.66	19822.00
492.84	19922.64
493.01	20013.92
493.19	20180.10
493.37	20369.68
493.54	20556.93
493.72	20680.97
493.90	20802.68
494.08	21006.31
494.25	21085.89
494.43	21034.39
494.61	21111.63
494.79	21441.65
494.96	21289.51
495.14	21605.49
495.32	21582.08
495.49	21837.20
495.67	21979.97
495.85	22064.23
496.02	22106.36
496.20	22309.99
496.38	22258.49
496.55	22480.85
496.73	22824.90
496.91	22515.95
497.09	22986.40
497.26	23065.98
497.44	22881.08
497.62	22972.36
497.79	23400.68
497.97	23143.22
498.14	23653.45
498.32	23665.16
498.50	23826.65
498.67	24063.05
498.85	23592.60
499.03	24009.22
499.20	24184.76
499.38	24264.33
499.56	24311.14
499.73	24540.52
499.91	24147.31
500.08	24807.34
500.26	24601.37
500.44	24940.75
500.61	24774.57
500.79	24760.53
500.97	24844.79
501.14	25303.53
501.32	25425.24
501.49	25275.45
501.67	25699.08
501.84	25582.06
502.02	25565.67
502.20	25628.87
502.37	25694.40
502.55	25731.85
502.72	25785.68
502.90	26164.85
503.07	25694.40
503.25	26120.38
503.43	25958.88
503.60	26153.15
503.78	26551.04
503.95	26436.35
504.13	26869.35
504.30	26801.47
504.48	26480.82
504.65	26881.05
504.83	26785.09
505.01	27054.25
505.18	27374.91
505.36	27438.10
505.53	27040.21
505.71	27548.11
505.88	27604.28
506.06	27395.97
506.23	27623.00
506.41	27857.06
506.58	27491.93
506.76	27850.03
506.93	28180.05
507.11	27843.01
507.28	28226.86
507.46	28308.78
507.63	28299.42
507.81	28254.95
507.98	28236.22
508.16	28528.79
508.33	28769.86
508.50	28662.20
508.68	28725.39
508.85	28751.14
509.03	28884.55
509.20	28872.85
509.38	29404.15
509.55	29240.31
509.73	29457.98
509.90	29420.53
510.08	29436.92
510.25	29619.48
510.42	29645.23
510.60	29965.88
510.77	29830.13
510.95	30127.38
511.12	30073.54
511.30	30183.55
511.47	29743.53
511.64	30181.21
511.82	30621.23
511.99	30174.19
512.17	31115.08
512.34	30316.96
512.51	30841.24
512.69	30747.62
512.86	30925.50
513.04	30771.02
513.21	31047.21
513.38	30806.13
513.56	30752.30
513.73	31260.20
513.90	31222.75
514.08	30939.54
514.25	31435.74
514.43	31665.11
514.60	31658.09
514.77	31274.24
514.95	31995.12
515.12	31674.47
515.29	32065.34
515.47	32009.17
515.64	32224.50
515.81	31960.02
515.99	32210.45
516.16	32194.07
516.33	31826.60
516.51	32290.03
516.68	32540.47
516.85	32842.40
517.03	32652.81
517.20	32629.41
517.37	32931.34
517.54	32580.26
517.72	32758.14
517.89	33233.27
518.06	32823.67
518.24	32917.29
518.41	32758.14
518.58	33053.05
518.75	33076.45
518.93	33464.98
519.10	33366.68
519.27	33682.65
519.45	33193.48
519.62	33605.41
519.79	33851.17
519.96	33729.46
520.14	33809.04
520.31	33439.23
520.48	34242.04
520.65	34235.02
520.83	34834.19
521.00	34462.05
521.17	34080.54
521.34	34321.62
521.52	34426.94
521.69	34387.15
521.86	34852.92
522.03	34707.80
522.20	35133.78
522.38	35449.75
522.55	35049.52
522.72	34883.34
522.89	35196.98
523.07	35674.45
523.24	35372.52
523.41	35140.80
523.58	35480.18
523.75	35990.42
523.92	35290.60
524.10	35754.02
524.27	35880.41
524.44	35108.04
524.61	35744.66
524.78	36147.23
524.96	36093.40
525.13	36346.18
525.30	36444.48
525.47	36407.03
525.64	36217.45
525.81	36039.57
525.98	36404.69
526.16	36432.78
526.33	36474.91
526.50	36793.22
526.67	36622.36
526.84	36769.82
527.01	36165.96
527.18	36629.38
527.36	36767.48
527.53	36708.96
527.70	37076.43
527.87	37427.51
528.04	37205.16
528.21	37125.58
528.38	37333.89
528.55	37315.16
528.72	36975.78
528.89	37347.93
529.07	37017.91
529.24	37158.34
529.41	37656.88
529.58	37383.04
529.75	37088.13
529.92	37425.17
530.09	37471.98
530.26	37745.82
530.43	37825.40
530.60	37443.89
530.77	37521.13
530.94	38298.19
531.11	37811.35
531.28	38450.32
531.46	38445.64
531.63	38469.04
531.80	38068.81
531.97	38443.30
532.14	38377.76
532.31	38239.67
532.48	38789.70
532.65	39051.84
532.82	38462.02
532.99	38562.67
533.16	38567.35
533.33	38834.17
533.50	39063.54
533.67	38731.18
533.84	38384.79
534.01	38983.96
534.18	38796.72
534.35	39267.17
534.52	39349.09
534.69	39332.70
534.86	39384.19
535.03	39037.80
535.20	39002.69
535.37	39721.23
535.54	39658.04
535.71	39311.64
535.88	39634.63
536.05	39566.76
536.22	39414.62
536.38	39744.64
536.55	39749.32
536.72	39393.56
536.89	39370.15
537.06	39772.72
537.23	40282.96
537.40	39805.49
537.57	40163.59
537.74	39763.36
537.91	40390.62
538.08	40280.62
538.25	39662.72
538.42	40086.36
538.59	40524.04
538.75	40491.27
538.92	40299.34
539.09	40561.48
539.26	40472.54
539.43	40514.67
539.60	41031.93
539.77	40554.46
539.94	40816.60
540.11	40786.18
540.28	41095.13
540.44	40575.53
540.61	40793.20
540.78	40500.63
540.95	40620.00
541.12	40950.01
541.29	40627.02
541.46	41085.76
541.62	40996.82
541.79	41148.96
541.96	41207.47
542.13	41277.69
542.30	41242.58
542.47	41191.09
542.63	41350.24
542.80	41785.58
542.97	41806.65
543.14	41797.29
543.31	41776.22
543.48	41598.34
543.64	42593.07
543.81	42368.38
543.98	41806.65
544.15	41478.97
544.32	41961.12
544.48	42277.10
544.65	42263.05
544.82	42342.63
544.99	41670.90
545.16	42581.37
545.32	42251.35
545.49	42682.01
545.66	42349.65
545.83	42696.05
546.00	42639.88
546.16	42429.23
546.33	42770.95
546.50	42256.03
546.67	42864.57
546.83	42532.22
547.00	42763.93
547.17	42469.02
547.34	42642.22
547.50	42792.01
547.67	43367.79
547.84	42824.78
548.00	43239.06
548.17	43344.38
548.34	43278.85
548.51	43356.08
548.67	43157.14
548.84	43075.22
549.01	43365.45
549.18	42951.17
549.34	43215.65
549.51	43737.59
549.68	43571.41
549.84	43838.23
550.01	43578.43
550.18	43330.34
550.34	43655.67
550.51	44058.24
550.68	44030.16
550.84	43122.03
551.01	43929.51
551.18	43875.68
551.34	43672.06
551.51	43878.02
551.68	43533.96
551.84	43948.24
552.01	43452.05
552.18	44236.12
552.34	43526.94
552.51	43962.28
552.68	43622.90
552.84	43929.51
553.01	44399.96
553.18	44287.62
553.34	44343.79
553.51	43650.99
553.67	44350.81
553.84	44402.30
554.01	44341.45
554.17	44069.95
554.34	44683.17
554.51	44755.72
554.67	44933.60
554.84	44739.34
555.00	44603.59
555.17	44615.29
555.33	45010.84
555.50	44776.79
555.67	44552.10
555.83	44500.61
556.00	44680.83
556.16	45366.60
556.33	45050.63
556.50	44814.24
556.66	45155.96
556.83	44699.55
556.99	45193.40
557.16	45207.45
557.32	45113.83
557.49	45198.09
557.65	44790.83
557.82	44802.53
557.98	44837.64
558.15	45280.00
558.32	44767.43
558.48	45312.77
558.65	45336.18
558.81	45586.61
558.98	45434.48
559.14	45249.58
559.31	45036.59
559.47	45106.80
559.64	45579.59
559.80	45455.54
559.97	45485.97
560.13	45170.00
560.30	45125.53
560.46	45579.59
560.63	45911.95
560.79	45560.87
560.96	45713.00
561.12	45705.98
561.29	45661.51
561.45	45720.02
561.61	45394.69
561.78	45729.39
561.94	45516.40
562.11	46028.98
562.27	46045.36
562.44	45736.41
562.60	46033.66
562.77	46003.23
562.93	45469.59
563.10	46141.32
563.26	45570.23
563.42	46272.39
563.59	45991.53
563.75	45916.63
563.92	46082.81
564.08	46026.63
564.24	45942.38
564.41	45937.69
564.57	46244.30
564.74	46136.64
564.90	45581.93
565.07	45989.19
565.23	46176.43
565.39	46202.18
565.56	46321.54
565.72	46480.70
565.88	46000.89
566.05	46153.02
566.21	46314.52
566.38	46183.45
566.54	46443.25
566.70	46445.59
566.87	46508.79
567.03	46281.75
567.19	46562.62
567.36	45993.87
567.52	46209.20
567.68	46639.86
567.85	46513.47
568.01	46796.67
568.17	46232.60
568.34	46609.43
568.50	46658.58
568.66	46342.61
568.83	46335.59
568.99	46483.04
569.15	46382.40
569.32	46710.07
569.48	46394.10
569.64	47068.17
569.81	46761.56
569.97	46906.68
570.13	46686.67
570.30	46314.52
570.46	46689.01
570.62	46848.16
570.78	46789.65
570.95	46436.23
571.11	46763.90
571.27	46897.31
571.43	46258.35
571.60	46562.62
571.76	46946.47
571.92	46557.94
572.09	46656.24
572.25	46595.38
572.41	46651.56
572.57	46808.37
572.74	47152.43
572.90	46567.30
573.06	47033.07
573.22	47288.18
573.38	47065.83
573.55	46852.84
573.71	47255.42
573.87	46791.99
574.03	47222.65
574.20	47229.67
574.36	46541.55
574.52	46927.74
574.68	47194.56
574.84	47290.52
575.01	47224.99
575.17	47269.46
575.33	47234.35
575.49	46784.97
575.65	47262.44
575.82	47084.56
575.98	46920.72
576.14	47203.92
576.30	47262.44
576.46	47093.92
576.62	47178.18
576.79	47173.50
576.95	46681.98
577.11	46836.46
577.27	46911.36
577.43	46979.23
577.59	46937.10
577.75	47372.44
577.92	47004.98
578.08	47185.20
578.24	47033.07
578.40	47187.54
578.56	47487.13
578.72	47236.69
578.88	47042.43
579.04	46885.61
579.21	46630.49
579.37	47629.90
579.53	47147.75
579.69	47012.00
579.85	46927.74
580.01	47051.79
580.17	46459.63
580.33	47562.03
580.49	47129.03
580.65	47105.62
580.82	47449.68
580.98	47072.85
581.14	47168.82
581.30	47452.02
581.46	47454.36
581.62	47161.79
581.78	47124.35
581.94	47440.32
582.10	46902.00
582.26	46939.44
582.42	47182.86
582.58	47423.93
582.74	47206.26
582.90	47416.91
583.06	47615.86
583.22	46852.84
583.38	47672.03
583.54	47178.18
583.70	47215.63
583.86	47145.41
584.02	46892.63
584.18	47920.13
584.34	47405.21
584.50	47751.61
584.66	47524.58
584.82	47604.16
584.98	47468.40
585.14	47569.05
585.30	47311.59
585.46	47578.41
585.62	46855.18
585.78	47386.49
585.94	47239.03
586.10	47751.61
586.26	47119.66
586.42	47562.03
586.58	47690.76
586.74	47484.79
586.90	47255.42
587.06	47124.35
587.22	47545.64
587.38	47260.10
587.54	47777.36
587.70	47606.50
587.86	47899.06
588.02	47484.79
588.18	47318.61
588.34	47356.06
588.49	47512.88
588.65	47562.03
588.81	47559.69
588.97	47344.36
589.13	47838.21
589.29	47622.88
589.45	47901.40
589.61	48055.88
589.77	47856.93
589.93	47716.50
590.08	47728.20
590.24	47969.28
590.40	47976.30
590.56	48268.87
590.72	47920.13
590.88	47505.85
591.04	47711.82
591.20	48025.45
591.35	48189.29
591.51	48231.42
591.67	48177.59
591.83	48432.71
591.99	48425.68
592.15	47878.00
592.31	47791.40
592.46	47746.93
592.62	47973.96
592.78	48137.80
592.94	48296.95
593.10	48259.51
593.26	48215.04
593.41	48498.24
593.57	47817.14
593.73	47959.92
593.89	48147.16
594.05	48397.60
594.20	48212.70
594.36	48172.91
594.52	48259.51
594.68	48086.31
594.84	47899.06
594.99	48332.06
595.15	48025.45
595.31	47812.46
595.47	47910.77
595.62	48421.00
595.78	48350.79
595.94	48385.89
596.10	47980.98
596.25	47985.66
596.41	48360.15
596.57	47875.66
596.73	48430.36
596.88	48261.85
597.04	47971.62
597.20	48257.17
597.36	48163.54
597.51	48788.47
597.67	48119.07
597.83	48362.49
597.99	48065.24
598.14	47973.96
598.30	48264.19
598.46	48289.93
598.61	48495.90
598.77	48252.48
598.93	48170.57
599.09	47870.98
599.24	48687.82
599.40	48449.09
599.56	48589.52
599.71	48760.38
599.87	48830.60
600.03	48044.18
600.18	48591.86
600.34	48495.90
600.50	48502.92
600.65	48313.34
600.81	49027.20
600.97	48645.69
601.12	48299.30
601.28	48491.22
601.44	48301.64
601.59	48411.64
601.75	48067.58
601.91	48451.43
602.06	48540.37
602.22	48163.54
602.37	48184.61
602.53	48514.62
602.69	48598.88
602.84	47859.27
603.00	48177.59
603.16	48498.24
603.31	48406.96
603.47	48205.67
603.62	48395.26
603.78	48121.41
603.94	48479.52
604.09	47948.21
604.25	48364.83
604.40	48296.95
604.56	48397.60
604.71	48348.45
604.87	48332.06
605.03	48252.48
605.18	48123.75
605.34	48203.33
605.49	47906.08
605.65	48069.92
605.80	48100.35
605.96	48158.86
606.12	48172.91
606.27	48390.58
606.43	48002.05
606.58	48582.50
606.74	48392.92
606.89	48215.04
607.05	48552.07
607.20	48149.50
607.36	48671.44
607.51	48254.82
607.67	48177.59
607.82	47662.67
607.98	48074.60
608.13	48140.14
608.29	48058.22
608.44	48098.01
608.60	47915.45
608.75	48177.59
608.91	47821.83
609.06	47896.72
609.22	48748.68
609.37	48074.60
609.53	48261.85
609.68	48123.75
609.84	48189.29
609.99	48020.77
610.15	48062.90
610.30	47852.25
610.46	47828.85
610.61	48425.68
610.76	47976.30
610.92	47833.53
611.07	47739.91
611.23	47529.26
611.38	48098.01
611.54	48069.92
611.69	48170.57
611.84	48140.14
612.00	47927.15
612.15	47772.67
612.31	48002.05
612.46	47536.28
612.62	47828.85
612.77	47899.06
612.92	47660.33
613.08	47606.50
613.23	47730.54
613.39	47718.84
613.54	47899.06
613.69	47716.50
613.85	47676.71
614.00	47672.03
614.15	48123.75
614.31	47744.59
614.46	47327.97
614.62	47517.56
614.77	47777.36
614.92	47590.11
615.08	47728.20
615.23	47826.51
615.38	47718.84
615.54	47854.59
615.69	47887.36
615.84	47824.17
616.00	48002.05
616.15	47606.50
616.30	48002.05
616.46	47646.29
616.61	47208.61
616.76	47489.47
616.92	47517.56
617.07	47391.17
617.22	47760.97
617.37	47114.98
617.53	47288.18
617.68	47255.42
617.83	46972.21
617.99	47524.58
618.14	47349.04
618.29	47302.23
618.45	47159.45
618.60	47337.33
618.75	47079.88
618.90	47096.26
619.06	47220.31
619.21	47332.65
619.36	47217.97
619.51	47192.22
619.67	46433.89
619.82	46995.62
619.97	47384.15
620.12	46834.12
620.28	47037.75
620.43	47084.56
620.58	47213.29
620.73	46976.89
620.89	47447.34
621.04	47175.84
621.19	47466.06
621.34	46871.57
621.49	46899.65
621.65	46724.11
621.80	47019.02
621.95	46897.31
622.10	46557.94
622.25	46777.95
622.41	46646.88
622.56	46681.98
622.71	46607.09
622.86	46511.13
623.01	46799.01
623.16	46754.54
623.32	46466.66
623.47	46614.11
623.62	46733.48
623.77	46583.68
623.92	46616.45
624.07	46616.45
624.23	46234.94
624.38	46808.37
624.53	46747.52
624.68	45991.53
624.83	46038.34
624.98	46738.16
625.13	46164.73
625.29	46347.29
625.44	46344.95
625.59	46108.55
625.74	46396.44
625.89	45790.24
626.04	46033.66
626.19	46433.89
626.34	46050.04
626.49	45738.75
626.65	46136.64
626.80	46394.10
626.95	45694.28
627.10	45546.82
627.25	46113.23
627.40	45720.02
627.55	46026.63
627.70	46021.95
627.85	46361.33
628.00	45888.54
628.15	46078.13
628.30	45773.86
628.45	45394.69
628.60	45385.33
628.76	45682.58
628.91	45631.08
629.06	45598.32
629.21	45546.82
629.36	45495.33
629.51	45492.99
629.66	45511.72
629.81	45551.51
629.96	45612.36
630.11	45471.93
630.26	45034.25
630.41	45865.14
630.56	45413.41
630.71	45530.44
630.86	45591.30
631.01	45226.17
631.16	45153.62
631.31	45525.76
631.46	45226.17
631.61	45399.37
631.76	45446.18
631.91	45680.24
632.06	45476.61
632.21	45368.94
632.36	45865.14
632.51	44985.10
632.66	45570.23
632.81	44678.49
632.96	45448.52
633.10	45301.07
633.25	45287.03
633.40	45067.02
633.55	45380.65
633.70	44762.75
633.85	44975.73
634.00	44931.26
634.15	44453.79
634.30	45221.49
634.45	44875.09
634.60	44737.00
634.75	44863.39
634.90	45001.48
635.05	45020.20
635.19	44634.02
635.34	45081.06
635.49	44442.09
635.64	44793.17
635.79	44645.72
635.94	44788.49
636.09	44966.37
636.24	44376.56
636.39	44687.85
636.53	44802.53
636.68	44404.64
636.83	44371.88
636.98	43976.33
637.13	44254.85
637.28	44060.58
637.43	43871.00
637.57	44615.29
637.72	44039.52
637.87	44191.65
638.02	44378.90
638.17	44116.76
638.32	43817.17
638.46	43445.02
638.61	43756.32
638.76	44062.93
638.91	43976.33
639.06	43917.81
639.20	43576.09
639.35	43459.07
639.50	43372.47
639.65	44137.82
639.80	44114.42
639.94	44355.49
640.09	44060.58
640.24	43807.81
640.39	43559.71
640.54	43746.95
640.68	43833.55
640.83	43711.84
640.98	43601.84
641.13	43700.14
641.27	43868.66
641.42	43709.50
641.57	43674.40
641.72	43501.20
641.86	43515.24
642.01	43110.33
642.16	43693.12
642.31	43409.92
642.45	43711.84
642.60	43189.91
642.75	43421.62
642.90	43246.08
643.04	43241.40
643.19	42969.90
643.34	43243.74
643.48	42883.30
643.63	43000.32
643.78	43604.18
643.93	43178.20
644.07	43112.67
644.22	43370.13
644.37	43281.19
644.51	43660.35
644.66	43075.22
644.81	43552.69
644.95	43175.86
645.10	43005.00
645.25	42946.49
645.39	43028.41
645.54	42784.99
645.69	42480.72
645.83	42883.30
645.98	42878.61
646.13	43115.01
646.27	42733.50
646.42	42614.13
646.57	43000.32
646.71	42934.79
646.86	42541.58
647.00	43100.97
647.15	42396.46
647.30	42646.90
647.44	42679.67
647.59	42852.87
647.74	42588.39
647.88	42424.55
648.03	42934.79
648.17	43178.20
648.32	42543.92
648.47	42714.78
648.61	42426.89
648.76	42740.52
648.90	42181.13
649.05	42267.73
649.20	42763.93
649.34	42094.53
649.49	42380.08
649.63	42349.65
649.78	42806.06
649.92	42223.26
650.07	43009.68
650.21	42415.19
650.36	42630.52
650.51	42279.44
650.65	42387.10
650.80	42342.63
650.94	41989.21
651.09	42141.35
651.23	41914.31
651.38	41811.33
651.52	41799.63
651.67	42251.35
651.81	42316.89
651.96	41570.25
652.10	41647.49
652.25	41958.78
652.39	41935.38
652.54	42059.43
652.68	41666.22
652.83	41649.83
652.97	41991.55
653.12	41677.92
653.26	41762.18
653.41	41808.99
653.55	41212.15
653.70	41617.07
653.84	41794.95
653.99	41858.14
654.13	41467.27
654.27	41504.72
654.42	41490.68
654.56	41514.08
654.71	41923.68
654.85	41773.88
655.00	41457.91
655.14	41839.42
655.29	41762.18
655.43	41535.15
655.57	41799.63
655.72	41116.19
655.86	41336.20
656.01	41139.60
656.15	40697.24
656.30	40903.20
656.44	41787.92
656.58	41172.36
656.73	41422.80
656.87	40739.36
657.01	40568.51
657.16	41088.10
657.30	40961.72
657.45	41153.64
657.59	40753.41
657.73	40744.05
657.88	40690.21
658.02	41099.81
658.16	41170.02
658.31	40666.81
658.45	40830.65
658.60	40645.74
658.74	40964.06
658.88	40954.69
659.03	40568.51
659.17	40388.28
659.31	40404.67
659.46	40332.11
659.60	40842.35
659.74	40322.75
659.89	40198.70
660.03	40142.53
660.17	40238.49
660.32	40350.84
660.46	40285.30
660.60	39754.00
660.74	40020.82
660.89	40545.10
661.03	39592.50
661.17	39798.47
661.32	39555.05
661.46	39718.89
661.60	39669.74
661.74	39922.52
661.89	39566.76
662.03	39950.60
662.17	39318.66
662.31	39456.75
662.46	39864.00
662.60	39058.86
662.74	39009.71
662.88	39124.40
663.03	38675.01
663.17	38983.96
663.31	39089.29
663.45	39152.48
663.60	39428.66
663.74	39058.86
663.88	38838.85
664.02	38899.70
664.17	39431.01
664.31	38754.59
664.45	38658.63
664.59	38621.18
664.73	38698.42
664.88	38658.63
665.02	38188.18
665.16	38319.25
665.30	38506.49
665.44	38019.66
665.59	38263.08
665.73	38225.63
665.87	37897.95
666.01	38031.36
666.15	37581.98
666.29	38321.59
666.44	38134.35
666.58	38026.68
666.72	38019.66
666.86	38064.13
667.00	38066.47
667.14	37818.38
667.28	37354.95
667.43	37434.53
667.57	37689.65
667.71	37270.69
667.85	37359.63
667.99	37509.43
668.13	37144.30
668.27	36449.16
668.41	36683.22
668.56	36601.30
668.70	37125.58
668.84	36392.99
668.98	36772.16
669.12	37308.14
669.26	36645.77
669.40	36634.06
669.54	36877.48
669.68	36395.33
669.82	36655.13
669.96	36411.71
670.10	36084.04
670.25	35985.74
670.39	35744.66
670.53	36268.94
670.67	36088.72
670.81	36411.71
670.95	36407.03
671.09	36009.14
671.23	35534.01
671.37	36278.30
671.51	35849.99
671.65	35625.29
671.79	35662.74
671.93	35840.62
672.07	36025.53
672.21	35395.92
672.35	35147.82
672.49	35243.79
672.63	35175.91
672.77	35145.48
672.91	35555.08
673.05	35304.64
673.19	34852.92
673.33	34890.37
673.47	35356.13
673.61	34637.59
673.75	34857.60
673.89	34595.46
674.03	34429.28
674.17	34359.06
674.31	34389.49
674.45	34225.65
674.59	34059.48
674.73	33752.87
674.87	34103.95
675.01	33467.32
675.15	33902.66
675.29	33558.60
675.43	33530.51
675.56	33214.54
675.70	33567.96
675.84	33448.60
675.98	32203.43
676.12	33654.56
676.26	33303.48
676.40	33060.07
676.54	32629.41
676.68	32610.68
676.82	32275.99
676.96	32573.24
677.10	32463.23
677.23	32245.56
677.37	32327.48
677.51	32746.44
677.65	32315.78
677.79	31938.95
677.93	32081.72
678.07	31952.99
678.21	31751.71
678.34	31634.68
678.48	31498.93
678.62	31370.20
678.76	31264.88
678.90	31264.88
679.04	31381.90
679.18	31344.45
679.31	31058.91
679.45	30939.54
679.59	30960.61
679.73	31241.47
679.87	30136.74
680.00	30607.19
680.14	30719.53
680.28	30635.27
680.42	30602.50
680.56	30242.06
680.70	30295.89
680.83	29926.09
680.97	29729.48
681.11	29783.32
681.25	29731.83
681.39	29275.42
681.52	29827.79
681.66	29024.98
681.80	28996.90
681.94	28657.52
682.07	28811.99
682.21	28510.07
682.35	28912.64
682.49	28664.54
682.62	28657.52
682.76	28535.81
682.90	28685.61
683.04	28865.83
683.17	28203.46
683.31	28072.39
683.45	27990.47
683.59	27740.03
683.72	27831.31
683.86	27611.30
684.00	27814.93
684.13	27805.56
684.27	27660.45
684.41	27119.79
684.55	27520.02
684.68	26969.99
684.82	27300.01
684.96	27164.26
685.09	27264.90
685.23	27271.92
685.37	27309.37
685.50	27236.81
685.64	26735.94
685.78	27000.42
685.91	26401.24
686.05	26024.42
686.19	26380.18
686.32	26235.06
686.46	25776.32
686.60	25722.49
686.73	26040.80
686.87	25806.75
687.01	25790.36
687.14	26073.57
687.28	25497.80
687.42	25425.24
687.55	25191.19
687.69	25146.72
687.82	24954.79
687.96	25149.06
688.10	25163.10
688.23	25008.62
688.37	25181.82
688.50	25111.61
688.64	24849.47
688.78	24697.33
688.91	24416.47
689.05	24425.83
689.18	24299.44
689.32	23417.06
689.46	23744.73
689.59	24074.75
689.73	24077.09
689.86	23800.91
690.00	23908.57
690.13	23644.09
690.27	23534.09
690.41	23562.17
690.54	23150.24
690.68	23503.66
690.81	23037.89
690.95	23220.45
691.08	22658.73
691.22	22764.05
691.35	22806.18
691.49	22623.62
691.62	22827.24
691.76	22101.68
691.89	22092.32
692.03	21956.57
692.16	21872.31
692.30	22082.95
692.43	21710.81
692.57	21404.20
692.70	21537.61
692.84	21823.16
692.97	21376.11
693.11	21469.73
693.24	21411.22
693.38	21085.89
693.51	20760.55
693.65	21076.52
693.78	20800.34
693.92	20905.66
694.05	20556.93
694.19	20603.74
694.32	20453.94
694.45	20746.51
694.59	20751.19
694.72	20353.30
694.86	20318.19
694.99	20217.55
695.13	19831.36
695.26	20051.37
695.39	19754.12
695.53	20091.16
695.66	19786.89
695.80	19578.58
695.93	19632.41
696.07	19274.31
696.20	19103.45
696.33	19152.60
696.47	18745.35
696.60	19417.08
696.73	19124.52
696.87	19152.60
697.00	19143.24
697.14	18597.90
697.27	18541.72
697.40	18853.02
697.54	18698.54
697.67	18628.32
697.80	18548.75
697.94	18284.26
698.07	18211.71
698.21	18033.83
698.34	17909.78
698.47	18064.25
698.61	17429.97
698.74	17734.24
698.87	17788.07
699.01	17474.44
699.14	17872.33
699.27	17268.47
699.40	17722.54
699.54	17156.13
699.67	17193.58
699.80	17018.04
699.94	16954.84
700.07	16950.16
700.20	16964.20
700.34	16580.36
700.47	16755.90
700.60	16931.44
700.73	16540.57
700.87	16486.73
701.00	16320.56
701.13	16196.51
701.26	16252.68
701.40	16142.67
701.53	15889.90
701.66	16161.40
701.79	15978.84
701.93	15754.15
702.06	15716.70
702.19	15702.65
702.32	15707.34
702.46	15758.83
702.59	15513.07
702.72	15822.02
702.85	15489.67
702.99	15220.50
703.12	15274.34
703.25	15140.93
703.38	15026.24
703.51	15026.24
703.65	14761.76
703.78	14806.23
703.91	14860.06
704.04	14436.42
704.17	14707.93
704.31	14455.15
704.44	14415.36
704.57	14225.78
704.70	14195.35
704.83	14090.02
704.96	14251.52
705.10	13832.57
705.23	13851.29
>>>>>End Processed Spectral Data<<<<<
