SpectraSuite Data File
++++++++++++++++++++++++++++++++++++
Date: Fri Oct 25 10:48:17 EDT 2013
User: price-jones
Dark Spectrum Present: No
Reference Spectrum Present: No
Number of Sampled Component Spectra: 1
Spectrometers: USB2+H05261
Integration Time (usec): 100000 (USB2+H05261)
Spectra Averaged: 1 (USB2+H05261)
Boxcar Smoothing: 0 (USB2+H05261)
Correct for Electrical Dark: No (USB2+H05261)
Strobe/Lamp Enabled: No (USB2+H05261)
Correct for Detector Non-linearity: No (USB2+H05261)
Correct for Stray Light: No (USB2+H05261)
Number of Pixels in Processed Spectrum: 2048
>>>>>Begin Processed Spectral Data<<<<<
365.73	177.88
365.92	177.88
366.12	177.88
366.32	0.00
366.52	46.81
366.72	95.96
366.91	16.38
367.11	46.81
367.31	0.00
367.51	16.38
367.70	11.70
367.90	51.49
368.10	51.49
368.30	44.47
368.49	39.79
368.69	0.00
368.89	65.54
369.09	53.83
369.28	65.54
369.48	119.37
369.68	88.94
369.87	84.26
370.07	107.66
370.27	215.33
370.47	273.84
370.66	383.85
370.86	447.04
371.06	580.45
371.25	477.47
371.45	479.81
371.65	500.87
371.84	479.81
372.04	454.06
372.24	484.49
372.44	510.24
372.63	430.66
372.83	489.17
373.03	540.66
373.22	517.26
373.42	564.07
373.62	603.86
373.81	636.63
374.01	638.97
374.21	589.82
374.40	592.16
374.60	566.41
374.79	603.86
374.99	601.52
375.19	608.54
375.38	648.33
375.58	603.86
375.78	643.65
375.97	622.58
376.17	629.60
376.37	660.03
376.56	615.56
376.76	568.75
376.95	613.22
377.15	667.05
377.35	704.50
377.54	676.41
377.74	657.69
377.93	615.56
378.13	709.18
378.33	585.13
378.52	653.01
378.72	690.46
378.91	699.82
379.11	688.12
379.31	713.86
379.50	582.79
379.70	699.82
379.89	692.80
380.09	683.44
380.28	662.37
380.48	725.57
380.68	636.63
380.87	737.27
381.07	674.07
381.26	777.06
381.46	760.67
381.65	758.33
381.85	720.88
382.04	758.33
382.24	781.74
382.43	706.84
382.63	706.84
382.83	716.20
383.02	748.97
383.22	695.14
383.41	781.74
383.61	840.25
383.80	814.51
384.00	786.42
384.19	760.67
384.39	819.19
384.58	807.48
384.78	739.61
384.97	828.55
385.17	732.59
385.36	748.97
385.56	800.46
385.75	812.17
385.95	837.91
386.14	828.55
386.34	812.17
386.53	849.61
386.72	826.21
386.92	866.00
387.11	891.74
387.31	830.89
387.50	851.96
387.70	929.19
387.89	931.53
388.09	908.13
388.28	891.74
388.48	884.72
388.67	950.26
388.86	929.19
389.06	931.53
389.25	1001.75
389.45	957.28
389.64	924.51
389.84	1090.69
390.03	1071.97
390.22	1013.45
390.42	1055.58
390.61	983.02
390.81	1057.92
391.00	987.71
391.19	1018.13
391.39	1100.05
391.58	1104.73
391.78	990.05
391.97	1062.60
392.16	966.64
392.36	1095.37
392.55	1055.58
392.75	1071.97
392.94	1093.03
393.13	1025.15
393.33	1013.45
393.52	1078.99
393.71	1050.90
393.91	1032.18
394.10	1050.90
394.29	1146.86
394.49	1184.31
394.68	1233.46
394.88	1207.72
395.07	1240.48
395.26	1233.46
395.46	1217.08
395.65	1256.87
395.84	1203.04
396.04	1224.10
396.23	1212.40
396.42	1170.27
396.62	1224.10
396.81	1219.42
397.00	1191.33
397.19	1294.32
397.39	1270.91
397.58	1345.81
397.77	1214.74
397.97	1483.90
398.16	1359.85
398.35	1327.08
398.55	1432.41
398.74	1540.07
398.93	1493.26
399.12	1519.01
399.32	1444.11
399.51	1432.41
399.70	1544.75
399.90	1519.01
400.09	1551.78
400.28	1554.12
400.47	1572.84
400.67	1563.48
400.86	1734.34
401.05	1668.80
401.24	1788.17
401.44	1678.16
401.63	1680.50
401.82	1755.40
402.01	1666.46
402.21	1762.42
402.40	1650.08
402.59	1732.00
402.78	1739.02
402.97	1739.02
403.17	1816.26
403.36	1788.17
403.55	1827.96
403.74	1844.34
403.93	1834.98
404.13	1834.98
404.32	1837.32
404.51	1900.52
404.70	1820.94
404.89	1844.34
405.09	1886.47
405.28	2092.44
405.47	1912.22
405.66	1928.60
405.85	1914.56
406.05	1884.13
406.24	1973.07
406.43	1975.41
406.62	1886.47
406.81	2150.95
407.00	2040.95
407.20	2031.58
407.39	2097.12
407.58	2050.31
407.77	2047.97
407.96	2230.53
408.15	2176.70
408.34	2202.44
408.54	2214.15
408.73	2207.13
408.92	2361.60
409.11	2363.94
409.30	2303.09
409.49	2162.66
409.68	2253.94
409.87	2244.57
410.07	2298.41
410.26	2373.30
410.45	2431.82
410.64	2385.01
410.83	2483.31
411.02	2544.16
411.21	2485.65
411.40	2544.16
411.59	2684.59
411.78	2635.44
411.98	2593.31
412.17	2649.49
412.36	2651.83
412.55	2677.57
412.74	2808.64
412.93	2747.79
413.12	2609.70
413.31	2862.48
413.50	2841.41
413.69	2881.20
413.88	2848.43
414.07	2902.26
414.26	2916.31
414.45	2977.16
414.64	2946.73
414.83	2970.14
415.02	2939.71
415.22	3054.40
415.41	3098.87
415.60	3038.02
415.79	3098.87
415.98	3234.62
416.17	3171.43
416.36	3197.17
416.55	3225.26
416.74	3316.54
416.93	3190.15
417.12	3353.99
417.31	3332.92
417.50	3232.28
417.69	3449.95
417.88	3353.99
418.07	3293.13
418.26	3400.80
418.45	3396.12
418.64	3578.68
418.83	3571.66
419.02	3400.80
419.21	3562.30
419.39	3520.17
419.58	3421.86
419.77	3641.87
419.96	3634.85
420.15	3639.53
420.34	3709.75
420.53	3667.62
420.72	3885.29
420.91	3723.79
421.10	3784.65
421.29	3990.61
421.48	3686.34
421.67	3808.05
421.86	3758.90
422.05	3730.81
422.24	3868.91
422.43	3714.43
422.61	3824.44
422.80	3939.12
422.99	3761.24
423.18	3770.60
423.37	3929.76
423.56	3918.06
423.75	3854.86
423.94	3859.54
424.13	3655.92
424.32	3705.07
424.50	3971.89
424.69	4079.55
424.88	4007.00
425.07	3894.65
425.26	3957.85
425.45	3864.22
425.64	3936.78
425.83	3901.67
426.01	3964.87
426.20	4070.19
426.39	3927.42
426.58	3943.80
426.77	3983.59
426.96	3899.33
427.15	3929.76
427.33	3967.21
427.52	4042.11
427.71	4011.68
427.90	4131.05
428.09	4093.60
428.28	4238.71
428.46	4121.68
428.65	4147.43
428.84	4212.96
429.03	4208.28
429.22	4154.45
429.40	4081.89
429.59	4107.64
429.78	3861.88
429.97	3999.98
430.16	3976.57
430.34	4156.79
430.53	4147.43
430.72	4222.33
430.91	4271.48
431.10	4355.74
431.28	4411.91
431.47	4484.47
431.66	4594.47
431.85	4524.26
432.03	4571.07
432.22	4601.49
432.41	4517.23
432.60	4627.24
432.79	4814.48
432.97	4641.28
433.16	4674.05
433.35	4634.26
433.54	4718.52
433.72	4615.54
433.91	4791.08
434.10	4655.33
434.28	4685.75
434.47	4697.46
434.66	4802.78
434.85	4952.57
435.03	5032.15
435.22	4812.14
435.41	4894.06
435.59	5015.77
435.78	4840.23
435.97	5132.79
436.16	5060.24
436.34	5057.90
436.53	5036.83
436.72	5228.76
436.90	5121.09
437.09	5160.88
437.28	5071.94
437.46	5245.14
437.65	5039.17
437.84	5111.73
438.02	4975.98
438.21	5221.74
438.40	5184.29
438.58	5186.63
438.77	5205.35
438.96	5423.02
439.14	5404.30
439.33	5619.63
439.52	5451.11
439.70	5420.68
439.89	5715.59
440.08	5612.60
440.26	5638.35
440.45	5781.12
440.63	5877.09
440.82	5926.24
441.01	5706.23
441.19	5881.77
441.38	5827.93
441.57	5849.00
441.75	6015.18
441.94	6296.04
442.12	6258.59
442.31	6291.36
442.50	6235.19
442.68	6195.40
442.87	6340.51
443.05	6389.66
443.24	6342.85
443.43	6349.87
443.61	6403.71
443.80	6485.62
443.98	6270.30
444.17	6272.64
444.35	6427.11
444.54	6619.04
444.73	6424.77
444.91	6361.58
445.10	6333.49
445.28	6277.32
445.47	6321.79
445.65	6284.34
445.84	6530.09
446.02	6588.61
446.21	6289.02
446.39	6429.45
446.58	6534.78
446.77	6583.93
446.95	6272.64
447.14	6712.66
447.32	6588.61
447.51	6567.54
447.69	6670.53
447.88	6675.21
448.06	6553.50
448.25	6649.46
448.43	6633.08
448.62	6511.37
448.80	6612.01
448.99	6562.86
449.17	6909.26
449.36	6668.19
449.54	6902.24
449.73	6857.77
449.91	7087.14
450.10	6981.82
450.28	7026.29
450.46	7150.34
450.65	6963.09
450.83	7005.22
451.02	7232.26
451.20	7126.93
451.39	7122.25
451.57	7105.87
451.76	7075.44
451.94	7073.10
452.13	7220.55
452.31	7250.98
452.49	7035.65
452.68	7073.10
452.86	7056.72
453.05	7063.74
453.23	7213.53
453.42	7286.09
453.60	7164.38
453.78	7396.09
453.97	7227.57
454.15	7386.73
454.34	7400.77
454.52	7468.65
454.70	7391.41
454.89	7463.97
455.07	7405.46
455.26	7375.03
455.44	7681.64
455.62	7634.83
455.81	7688.66
455.99	7595.04
456.17	7695.68
456.36	7660.57
456.54	7866.54
456.73	7946.12
456.91	8077.19
457.09	7887.61
457.28	8135.70
457.46	8018.68
457.64	7978.89
457.83	8025.70
458.01	7831.43
458.19	8100.59
458.38	8105.28
458.56	8156.77
458.74	8100.59
458.93	8287.84
459.11	8142.72
459.29	8208.26
459.48	8194.22
459.66	8325.29
459.84	8201.24
460.03	8564.02
460.21	8241.03
460.39	8376.78
460.57	8549.98
460.76	8517.21
460.94	8634.24
461.12	8561.68
461.31	8344.01
461.49	8456.36
461.67	8587.43
461.85	8643.60
462.04	8615.51
462.22	9163.20
462.40	8774.67
462.59	8629.56
462.77	8865.95
462.95	9006.38
463.13	8777.01
463.32	8863.61
463.50	9025.11
463.68	8821.48
463.86	8910.42
464.05	8741.90
464.23	8910.42
464.41	8894.04
464.59	8786.37
464.78	9078.94
464.96	9057.87
465.14	8835.52
465.32	9060.21
465.50	9188.94
465.69	9233.41
465.87	8961.91
466.05	9238.09
466.23	9261.50
466.41	8985.32
466.60	9146.81
466.78	9071.92
466.96	9132.77
467.14	9296.61
467.32	9130.43
467.51	9425.34
467.69	9256.82
467.87	9266.18
468.05	9472.15
468.23	9338.74
468.41	9383.21
468.60	9334.06
468.78	9563.43
468.96	9282.56
469.14	9448.74
469.32	9584.49
469.50	9455.76
469.69	9680.46
469.87	9816.21
470.05	9675.77
470.23	9682.80
470.41	9834.93
470.59	9661.73
470.77	9750.67
470.95	9827.91
471.14	10045.58
471.32	9982.38
471.50	10195.37
471.68	10293.68
471.86	10263.25
472.04	10284.31
472.22	10431.77
472.40	10291.34
472.58	10345.17
472.77	10286.65
472.95	10270.27
473.13	10750.08
473.31	10572.20
473.49	10413.04
473.67	10328.78
473.85	10593.26
474.03	10867.11
474.21	10899.87
474.39	10911.58
474.57	11040.31
474.75	10789.87
474.93	11066.05
475.12	11166.70
475.30	11468.62
475.48	11169.04
475.66	11047.33
475.84	11103.50
476.02	11208.83
476.20	11346.92
476.38	11414.79
476.56	11754.17
476.74	11536.50
476.92	11644.17
477.10	11786.94
477.28	12046.74
477.46	12140.36
477.64	12002.27
477.82	12278.45
478.00	12486.76
478.18	12545.27
478.36	12582.72
478.54	12439.95
478.72	12638.89
478.90	12996.99
479.08	12912.74
479.26	12863.58
479.44	13053.17
479.62	12905.71
479.80	13373.82
479.98	13530.64
480.16	13511.91
480.34	13380.84
480.52	13741.29
480.70	13767.03
480.88	13486.17
481.06	13673.41
481.24	13741.29
481.41	14008.11
481.59	14377.91
481.77	14148.54
481.95	14321.74
482.13	14555.79
482.31	14300.67
482.49	14789.85
482.67	14670.48
482.85	14850.70
483.03	15117.52
483.21	15112.84
483.39	15000.49
483.57	15054.33
483.74	15501.37
483.92	15363.28
484.10	15250.93
484.28	15704.99
484.46	15791.59
484.64	16350.98
484.82	15812.66
485.00	16325.24
485.18	16414.18
485.35	16287.79
485.53	16184.80
485.71	16212.89
485.89	16620.14
486.07	16538.23
486.25	16472.69
486.43	16915.05
486.61	16917.39
486.78	17036.76
486.96	17268.47
487.14	17539.97
487.32	17490.82
487.50	17855.95
487.68	18043.19
487.85	18368.52
488.03	18082.98
488.21	18223.41
488.39	18228.09
488.57	18345.12
488.75	18780.46
488.92	18850.67
489.10	19002.81
489.28	19342.19
489.46	19424.11
489.64	19393.68
489.81	19536.45
489.99	20196.48
490.17	20095.84
490.35	20137.97
490.53	19878.17
490.70	20334.57
490.88	20484.37
491.06	20645.87
491.24	20673.95
491.41	20650.55
491.59	20807.36
491.77	20643.52
491.95	21025.03
492.13	21315.26
492.30	21544.63
492.48	21537.61
492.66	21467.39
492.84	21607.83
493.01	21453.35
493.19	21764.64
493.37	21944.86
493.54	22026.78
493.72	22572.13
493.90	22319.35
494.08	22906.82
494.25	23054.28
494.43	23000.44
494.61	23009.81
494.79	23255.56
494.96	23206.41
495.14	23391.31
495.32	23435.78
495.49	23594.94
495.67	23583.24
495.85	24088.79
496.02	24421.15
496.20	24233.91
496.38	24367.32
496.55	24350.93
496.73	24517.11
496.91	24938.41
497.09	25116.29
497.26	25088.20
497.44	24751.17
497.62	24797.98
497.79	25036.71
497.97	25090.54
498.14	25233.32
498.32	25200.55
498.50	25298.85
498.67	25638.23
498.85	25745.89
499.03	26246.77
499.20	25902.71
499.38	26218.68
499.56	26150.81
499.73	26281.88
499.91	26085.27
500.08	26438.69
500.26	26338.05
500.44	26567.42
500.61	26532.31
500.79	26080.59
500.97	26857.65
501.14	27311.71
501.32	26841.26
501.49	26822.54
501.67	26923.18
501.84	27328.10
502.02	27370.22
502.20	27367.88
502.37	27615.98
502.55	27449.80
502.72	27861.74
502.90	28137.92
503.07	27644.07
503.25	28112.17
503.43	27988.13
503.60	27854.72
503.78	28194.09
503.95	28374.31
504.13	28390.70
504.30	28481.98
504.48	28374.31
504.65	28493.68
504.83	28835.40
505.01	29542.24
505.18	28676.24
505.36	29219.25
505.53	29209.89
505.71	29317.55
505.88	29209.89
506.06	29308.19
506.23	29546.92
506.41	29291.80
506.58	29722.46
506.76	29816.08
506.93	29986.94
507.11	30115.67
507.28	29778.64
507.46	29872.26
507.63	29975.24
507.81	30078.22
507.98	30075.88
508.16	30003.33
508.33	30277.17
508.50	30331.00
508.68	30614.21
508.85	30946.56
509.03	30831.88
509.20	31297.64
509.38	31232.11
509.55	31087.00
509.73	31262.54
509.90	31229.77
510.08	31784.48
510.25	31049.55
510.42	31424.03
510.60	31541.06
510.77	31407.65
510.95	31744.69
511.12	31634.68
511.30	32135.56
511.47	32348.54
511.64	32374.29
511.82	32203.43
511.99	32072.36
512.17	32217.47
512.34	32070.02
512.51	32531.11
512.69	32648.13
512.86	32931.34
513.04	32781.54
513.21	32936.02
513.38	32617.71
513.56	32563.87
513.73	32767.50
513.90	32865.80
514.08	32694.94
514.25	33064.75
514.43	33071.77
514.60	33226.24
514.77	33347.95
514.95	33631.16
515.12	33399.44
515.29	33535.20
515.47	33771.59
515.64	33813.72
515.81	33467.32
515.99	33905.00
516.16	33406.47
516.33	33844.15
516.51	33764.57
516.68	33130.28
516.85	33181.77
517.03	33858.19
517.20	34003.30
517.37	34143.74
517.54	34272.46
517.72	34211.61
517.89	33818.40
518.06	33944.79
518.24	34000.96
518.41	33928.41
518.58	34438.64
518.75	34284.17
518.93	34902.07
519.10	34611.84
519.27	35255.49
519.45	34660.99
519.62	35070.59
519.79	35456.78
519.96	35253.15
520.14	35587.85
520.31	35407.62
520.48	35229.74
520.65	35402.94
520.83	35658.06
521.00	35697.85
521.17	36114.47
521.34	36032.55
521.52	36222.13
521.69	36123.83
521.86	35873.39
522.03	36257.24
522.20	36072.34
522.38	36486.61
522.55	36091.06
522.72	36287.67
522.89	35976.37
523.07	36446.82
523.24	36818.97
523.41	36444.48
523.58	36678.54
523.75	37024.93
523.92	37092.81
524.10	36903.23
524.27	36741.73
524.44	37373.67
524.61	37675.60
524.78	37617.09
524.96	37628.79
525.13	37457.93
525.30	37439.21
525.47	37532.83
525.64	37762.20
525.81	37429.85
525.98	37165.37
526.16	37261.33
526.33	37406.44
526.50	37745.82
526.67	37148.98
526.84	37453.25
527.01	37357.29
527.18	37635.81
527.36	38000.94
527.53	38366.06
527.70	38309.89
527.87	38824.81
528.04	38260.74
528.21	38117.96
528.38	38270.10
528.55	38782.68
528.72	38993.32
528.89	39150.14
529.07	38532.24
529.24	38384.79
529.41	38855.23
529.58	38621.18
529.75	39012.05
529.92	38930.13
530.09	38990.98
530.26	38632.88
530.43	38967.58
530.60	39194.61
530.77	38836.51
530.94	39599.52
531.11	39620.59
531.28	39501.22
531.46	39428.66
531.63	39285.89
531.80	39292.91
531.97	39601.86
532.14	39274.19
532.31	39049.50
532.48	39466.11
532.65	39833.58
532.82	39620.59
532.99	39391.22
533.16	39576.12
533.33	39800.81
533.50	39966.99
533.67	40053.59
533.84	39613.57
534.01	40226.79
534.18	39927.20
534.35	40334.45
534.52	40332.11
534.69	40907.88
534.86	40545.10
535.03	40495.95
535.20	40648.08
535.37	41095.13
535.54	40708.94
535.71	40722.98
535.88	40762.77
536.05	40472.54
536.22	40699.58
536.38	40612.98
536.55	40505.31
536.72	40744.05
536.89	40264.24
537.06	40711.28
537.23	41067.04
537.40	41067.04
537.57	40996.82
537.74	41116.19
537.91	41195.77
538.08	41202.79
538.25	40802.56
538.42	41116.19
538.59	41570.25
538.75	40802.56
538.92	41207.47
539.09	41434.50
539.26	41593.66
539.43	41493.02
539.60	41509.40
539.77	41050.66
539.94	41518.76
540.11	41146.62
540.28	41469.61
540.44	41357.27
540.61	41324.50
540.78	41710.69
540.95	41427.48
541.12	41560.89
541.29	41993.89
541.46	41996.23
541.62	41490.68
541.79	42185.82
541.96	41619.41
542.13	41860.48
542.30	42064.11
542.47	42225.60
542.63	41970.49
542.80	42553.28
542.97	42335.61
543.14	43023.73
543.31	42799.04
543.48	42335.61
543.64	43662.69
543.81	42813.08
543.98	42433.91
544.15	42960.53
544.32	43185.22
544.48	43157.14
544.65	43222.67
544.82	43405.23
544.99	42515.83
545.16	43140.75
545.32	42775.63
545.49	43243.74
545.66	43330.34
545.83	43363.11
546.00	43000.32
546.16	43379.49
546.33	43030.75
546.50	43007.34
546.67	42834.14
546.83	42960.53
547.00	43171.18
547.17	43203.95
547.34	43040.11
547.50	43335.02
547.67	43461.41
547.84	43452.05
548.00	43213.31
548.17	43442.68
548.34	43477.79
548.51	44098.03
548.67	44058.24
548.84	43976.33
549.01	43871.00
549.18	43508.22
549.34	43817.17
549.51	44055.90
549.68	43962.28
549.84	44282.94
550.01	43934.20
550.18	44119.10
550.34	43686.10
550.51	44144.84
550.68	44030.16
550.84	43508.22
551.01	43838.23
551.18	43957.60
551.34	44032.50
551.51	44596.57
551.68	44502.95
551.84	44519.33
552.01	44210.38
552.18	44172.93
552.34	43812.49
552.51	44182.29
552.68	44222.08
552.84	44261.87
553.01	44683.17
553.18	43995.05
553.34	44547.42
553.51	44463.16
553.67	44538.05
553.84	44734.66
554.01	44528.69
554.17	44531.03
554.34	44971.05
554.51	45113.83
554.67	45010.84
554.84	44823.60
555.00	44800.19
555.17	44580.18
555.33	44839.98
555.50	44793.17
555.67	45263.62
555.83	45294.05
556.00	45237.87
556.16	45698.96
556.33	44685.51
556.50	44669.12
556.66	44926.58
556.83	45055.31
556.99	45443.84
557.16	45029.57
557.32	44886.79
557.49	45099.78
557.65	44463.16
557.82	45209.79
557.98	45429.80
558.15	44870.41
558.32	45097.44
558.48	44968.71
558.65	45462.57
558.81	44989.78
558.98	45191.06
559.14	45127.87
559.31	45024.89
559.47	45301.07
559.64	45563.21
559.80	45820.67
559.97	45532.78
560.13	45359.58
560.30	45235.53
560.46	45277.66
560.63	45392.35
560.79	45614.70
560.96	45860.46
561.12	45153.62
561.29	45839.39
561.45	45837.05
561.61	45310.43
561.78	45188.72
561.94	45153.62
562.11	45272.98
562.27	45642.79
562.44	45272.98
562.60	45748.11
562.77	45640.45
562.93	45195.74
563.10	45818.33
563.26	45853.44
563.42	45296.39
563.59	45607.68
563.75	45687.26
563.92	46028.98
564.08	46117.92
564.24	45549.17
564.41	45771.52
564.57	46017.27
564.74	45605.34
564.90	45940.04
565.07	46202.18
565.23	45815.99
565.39	45652.15
565.56	46012.59
565.72	45743.43
565.88	45708.32
566.05	45904.93
566.21	45539.80
566.38	45993.87
566.54	46085.15
566.70	45925.99
566.87	46445.59
567.03	46136.64
567.19	46136.64
567.36	45963.44
567.52	45478.95
567.68	46054.72
567.85	45680.24
568.01	46014.93
568.17	45925.99
568.34	46129.62
568.50	45837.05
568.66	45727.05
568.83	46167.07
568.99	45708.32
569.15	46162.39
569.32	46284.09
569.48	45558.53
569.64	45954.08
569.81	46188.13
569.97	45886.20
570.13	46073.45
570.30	45911.95
570.46	45865.14
570.62	45368.94
570.78	45944.72
570.95	45975.14
571.11	46567.30
571.27	45757.47
571.43	46021.95
571.60	46344.95
571.76	46017.27
571.92	46085.15
572.09	46307.50
572.25	46054.72
572.41	46188.13
572.57	46625.81
572.74	46738.16
572.90	46321.54
573.06	46148.34
573.22	46342.61
573.38	45794.92
573.55	46178.77
573.71	46370.69
573.87	46223.24
574.03	46124.94
574.20	46028.98
574.36	46263.03
574.52	45993.87
574.68	46368.35
574.84	46347.29
575.01	46061.74
575.17	46188.13
575.33	45734.07
575.49	46024.29
575.65	46361.33
575.82	46705.39
575.98	46057.06
576.14	46609.43
576.30	46457.29
576.46	46244.30
576.62	46150.68
576.79	46052.38
576.95	45879.18
577.11	46410.48
577.27	46031.32
577.43	46181.11
577.59	46031.32
577.75	46134.30
577.92	45698.96
578.08	46337.93
578.24	46019.61
578.40	46209.20
578.56	46183.45
578.72	46543.89
578.88	46251.33
579.04	46642.20
579.21	45869.82
579.37	46143.66
579.53	46005.57
579.69	46330.90
579.85	46340.27
580.01	47023.70
580.17	46564.96
580.33	46611.77
580.49	46656.24
580.65	46263.03
580.82	46174.09
580.98	45977.48
581.14	46019.61
581.30	46403.46
581.46	46557.94
581.62	46433.89
581.78	46117.92
581.94	46775.61
582.10	46047.70
582.26	46892.63
582.42	46330.90
582.58	46934.76
582.74	46312.18
582.90	46433.89
583.06	46520.49
583.22	46518.15
583.38	46806.03
583.54	46602.41
583.70	46181.11
583.86	46522.83
584.02	46122.60
584.18	46763.90
584.34	46190.47
584.50	46696.03
584.66	46398.78
584.82	46443.25
584.98	46712.41
585.14	46646.88
585.30	46450.27
585.46	46422.19
585.62	46190.47
585.78	46328.56
585.94	46438.57
586.10	45911.95
586.26	46099.19
586.42	46384.74
586.58	46461.97
586.74	46277.07
586.90	46146.00
587.06	46108.55
587.22	46607.09
587.38	46155.36
587.54	46712.41
587.70	46616.45
587.86	46555.60
588.02	46600.07
588.18	46850.50
588.34	46227.92
588.49	45808.96
588.65	45722.37
588.81	45968.12
588.97	45986.85
589.13	45790.24
589.29	46064.08
589.45	46078.13
589.61	46354.31
589.77	46759.22
589.93	46232.60
590.08	46660.92
590.24	46476.02
590.40	46473.68
590.56	46841.14
590.72	46717.09
590.88	46216.22
591.04	46401.12
591.20	46770.93
591.35	46911.36
591.51	47129.03
591.67	46848.16
591.83	46646.88
591.99	46366.01
592.15	46382.40
592.31	46817.74
592.46	46571.98
592.62	46609.43
592.78	46731.14
592.94	46864.55
593.10	46761.56
593.26	46637.51
593.41	46892.63
593.57	46307.50
593.73	46532.19
593.89	46791.99
594.05	46993.28
594.20	46347.29
594.36	46810.71
594.52	46609.43
594.68	46733.48
594.84	46457.29
594.99	46946.47
595.15	46459.63
595.31	46815.40
595.47	46452.61
595.62	46564.96
595.78	46869.23
595.94	46887.95
596.10	47033.07
596.25	47360.74
596.41	46836.46
596.57	46595.38
596.73	46918.38
596.88	46810.71
597.04	46756.88
597.20	46862.21
597.36	46419.84
597.51	46836.46
597.67	46700.71
597.83	46674.96
597.99	46789.65
598.14	46902.00
598.30	46487.72
598.46	46511.13
598.61	46609.43
598.77	45925.99
598.93	46632.83
599.09	46820.08
599.24	47002.64
599.40	46801.35
599.56	46794.33
599.71	46429.21
599.87	46681.98
600.03	46855.18
600.18	46511.13
600.34	46714.75
600.50	46412.82
600.65	46618.79
600.81	46855.18
600.97	46850.50
601.12	46918.38
601.28	46672.62
601.44	46953.49
601.59	46557.94
601.75	46461.97
601.91	47168.82
602.06	46176.43
602.22	46836.46
602.37	46684.33
602.53	46794.33
602.69	47091.58
602.84	46684.33
603.00	46752.20
603.16	46749.86
603.31	46960.51
603.47	46483.04
603.62	46698.37
603.78	46747.52
603.94	46197.49
604.09	46398.78
604.25	46557.94
604.40	46536.87
604.56	46894.97
604.71	46829.44
604.87	46843.48
605.03	46658.58
605.18	46913.70
605.34	46850.50
605.49	46440.91
605.65	46663.26
605.80	46897.31
605.96	46323.88
606.12	46761.56
606.27	46691.35
606.43	45979.82
606.58	46579.00
606.74	46251.33
606.89	46789.65
607.05	46272.39
607.20	46366.01
607.36	46604.75
607.51	46724.11
607.67	46241.96
607.82	46354.31
607.98	46316.86
608.13	46681.98
608.29	46602.41
608.44	46263.03
608.60	45745.77
608.75	46279.41
608.91	46122.60
609.06	46270.05
609.22	46536.87
609.37	46305.16
609.53	46075.79
609.68	46106.21
609.84	46382.40
609.99	46052.38
610.15	46286.43
610.30	46314.52
610.46	45900.25
610.61	45853.44
610.76	46256.01
610.92	45404.05
611.07	45825.35
611.23	45659.17
611.38	46047.70
611.54	45694.28
611.69	46106.21
611.84	45954.08
612.00	46328.56
612.15	45464.91
612.31	46162.39
612.46	45925.99
612.62	46206.86
612.77	45813.65
612.92	46513.47
613.08	45745.77
613.23	45738.75
613.39	45659.17
613.54	45455.54
613.69	45619.38
613.85	45954.08
614.00	45813.65
614.15	46021.95
614.31	45776.20
614.46	45778.54
614.62	45776.20
614.77	45659.17
614.92	45277.66
615.08	45214.47
615.23	45312.77
615.38	44989.78
615.54	45343.20
615.69	45102.12
615.84	45141.91
616.00	44959.35
616.15	45537.46
616.30	45549.17
616.46	45160.64
616.61	45104.46
616.76	45195.74
616.92	44994.46
617.07	44856.37
617.22	44971.05
617.37	44959.35
617.53	45624.06
617.68	45336.18
617.83	44996.80
617.99	45380.65
618.14	45626.40
618.29	44694.87
618.45	45055.31
618.60	44793.17
618.75	44830.62
618.90	44877.43
619.06	45191.06
619.21	44786.15
619.36	44802.53
619.51	44959.35
619.67	44718.28
619.82	45013.18
619.97	45158.30
620.12	44678.49
620.28	44718.28
620.43	44729.98
620.58	44837.64
620.73	44683.17
620.89	45064.67
621.04	44533.37
621.19	44320.38
621.34	44729.98
621.49	44472.52
621.65	44442.09
621.80	44622.31
621.95	44135.48
622.10	44161.23
622.25	44339.11
622.41	44133.14
622.56	44091.01
622.71	44531.03
622.86	44369.54
623.01	44549.76
623.16	44294.64
623.32	44472.52
623.47	44432.73
623.62	44460.82
623.77	44140.16
623.92	44098.03
624.07	44175.27
624.23	43613.54
624.38	43803.13
624.53	43590.14
624.68	44002.07
624.83	44004.41
624.98	44114.42
625.13	43674.40
625.29	44034.84
625.44	43915.47
625.59	43786.74
625.74	43412.26
625.89	42948.83
626.04	43482.47
626.19	43686.10
626.34	43866.32
626.49	43711.84
626.65	43386.51
626.80	43835.89
626.95	43613.54
627.10	43421.62
627.25	43718.87
627.40	42883.30
627.55	43040.11
627.70	42958.19
627.85	43033.09
628.00	43009.68
628.15	43054.15
628.30	43079.90
628.45	43227.35
628.60	43185.22
628.76	43241.40
628.91	43100.97
629.06	43185.22
629.21	43005.00
629.36	43021.39
629.51	42813.08
629.66	43021.39
629.81	42864.57
629.96	43100.97
630.11	42707.76
630.26	43199.27
630.41	43217.99
630.56	42876.27
630.71	42696.05
630.86	42607.11
631.01	42993.30
631.16	42642.22
631.31	42328.59
631.46	41982.19
631.61	42703.07
631.76	42216.24
631.91	42967.55
632.06	42880.95
632.21	42803.72
632.36	42712.44
632.51	42164.75
632.66	42534.56
632.81	42246.67
632.96	42429.23
633.10	42185.82
633.25	41954.10
633.40	42012.62
633.55	42471.36
633.70	42038.36
633.85	42415.19
634.00	42600.09
634.15	42366.04
634.30	42316.89
634.45	42157.73
634.60	41778.56
634.75	42333.27
634.90	42021.98
635.05	42284.12
635.19	41937.72
635.34	42115.60
635.49	42157.73
635.64	41811.33
635.79	41792.61
635.94	41860.48
636.09	42040.70
636.24	41911.97
636.39	41558.55
636.53	41195.77
636.68	41130.23
636.83	41345.56
636.98	41710.69
637.13	41553.87
637.28	41860.48
637.43	41787.92
637.57	41909.63
637.72	41865.16
637.87	41642.81
638.02	41588.98
638.17	41219.17
638.32	41631.11
638.46	41464.93
638.61	41572.60
638.76	41364.29
638.91	41244.92
639.06	41251.94
639.20	41434.50
639.35	41352.58
639.50	41134.92
639.65	41275.35
639.80	41432.16
639.94	41214.49
640.09	41500.04
640.24	40844.69
640.39	40980.44
640.54	40692.55
640.68	40638.72
640.83	40973.42
640.98	40519.35
641.13	40800.22
641.27	41067.04
641.42	40481.91
641.57	40538.08
641.72	40673.83
641.86	40444.46
642.01	40512.33
642.16	40748.73
642.31	40414.03
642.45	40762.77
642.60	40250.19
642.75	40837.67
642.90	40521.69
643.04	40479.57
643.19	41055.34
643.34	40800.22
643.48	40491.27
643.63	40261.90
643.78	39990.39
643.93	39955.29
644.07	40641.06
644.22	40275.94
644.37	39962.31
644.51	39943.58
644.66	40275.94
644.81	40341.47
644.95	40863.41
645.10	40142.53
645.25	40133.17
645.39	40182.32
645.54	40617.66
645.69	40189.34
645.83	40205.72
645.98	40194.02
646.13	40093.38
646.27	40144.87
646.42	39269.51
646.57	39592.50
646.71	39981.03
646.86	40191.68
647.00	39672.08
647.15	39805.49
647.30	39868.69
647.44	39690.80
647.59	39892.09
647.74	39321.00
647.88	40074.65
648.03	39372.49
648.17	39627.61
648.32	39133.76
648.47	39770.38
648.61	39414.62
648.76	39899.11
648.90	39772.72
649.05	39391.22
649.20	39629.95
649.34	39852.30
649.49	39473.13
649.63	39541.01
649.78	39442.71
649.92	39304.62
650.07	39821.87
650.21	39257.81
650.36	39484.84
650.51	38946.51
650.65	39700.17
650.80	39667.40
650.94	39782.09
651.09	39400.58
651.23	39040.14
651.38	38974.60
651.52	39227.38
651.67	38944.17
651.81	39096.31
651.96	38766.29
652.10	38969.92
652.25	38628.20
652.39	38909.07
652.54	39374.83
652.68	39082.27
652.83	38873.96
652.97	38862.26
653.12	38841.19
653.26	38630.54
653.41	38813.10
653.55	38696.08
653.70	38595.43
653.84	38574.37
653.99	38684.37
654.13	38721.82
654.27	38333.29
654.42	38550.96
654.56	38597.77
654.71	38775.66
654.85	38682.03
655.00	38501.81
655.14	38309.89
655.29	37890.93
655.43	38185.84
655.57	37853.48
655.72	37923.70
655.86	37926.04
656.01	37993.92
656.15	37474.32
656.30	37420.48
656.44	37757.52
656.58	37699.01
656.73	38096.90
656.87	37792.63
657.01	37816.04
657.16	37811.35
657.30	37598.37
657.45	37628.79
657.59	37921.36
657.73	37647.52
657.88	37642.84
658.02	37743.48
658.16	37427.51
658.31	38284.14
658.45	37986.89
658.60	38124.99
658.74	37998.60
658.88	37804.33
659.03	37612.41
659.17	37378.36
659.31	37151.32
659.46	37413.46
659.60	37251.97
659.74	36809.61
659.89	37088.13
660.03	36697.26
660.17	37113.87
660.32	36694.92
660.46	37212.18
660.60	37130.26
660.74	37483.68
660.89	37090.47
661.03	36804.92
661.17	36818.97
661.32	36636.41
661.46	36868.12
661.60	37046.00
661.74	36587.25
661.89	36648.11
662.03	37160.69
662.17	36360.22
662.31	36510.02
662.46	36893.86
662.60	36849.39
662.74	36643.43
662.88	36486.61
663.03	36456.18
663.17	35955.31
663.31	36388.31
663.45	36243.20
663.60	36046.59
663.74	35892.12
663.88	35981.06
664.02	35419.33
664.17	36170.64
664.31	35466.14
664.45	35669.76
664.59	35566.78
664.73	36020.84
664.88	35967.01
665.02	35620.61
665.16	35615.93
665.30	35723.60
665.44	35459.12
665.59	35173.57
665.73	35227.40
665.87	35260.17
666.01	35178.25
666.15	35262.51
666.29	35557.42
666.44	35285.92
666.58	35002.71
666.72	35143.14
666.86	35098.67
667.00	35470.82
667.14	35047.18
667.28	34663.33
667.43	34684.40
667.57	34897.39
667.71	34658.65
667.85	34848.24
667.99	34452.69
668.13	34146.08
668.27	34319.28
668.41	34494.82
668.56	33897.98
668.70	34342.68
668.84	33989.26
668.98	34038.41
669.12	33905.00
669.26	34448.00
669.40	33727.12
669.54	33874.57
669.68	33769.25
669.82	33958.83
669.96	33696.69
670.10	33191.14
670.25	33916.70
670.39	33862.87
670.53	33565.62
670.67	33034.32
670.81	33930.75
670.95	33287.10
671.09	33380.72
671.23	33544.56
671.37	33549.24
671.51	33064.75
671.65	33289.44
671.79	32655.15
671.93	32936.02
672.07	33228.59
672.21	32748.78
672.35	32411.74
672.49	32657.49
672.63	32706.65
672.77	32371.95
672.91	32063.00
673.05	32360.25
673.19	32374.29
673.33	32327.48
673.47	32371.95
673.61	31772.77
673.75	31908.52
673.89	31491.91
674.03	31817.24
674.17	31800.86
674.31	32130.87
674.45	31531.70
674.59	31763.41
674.73	31438.08
674.87	31927.25
675.01	31576.17
675.15	31723.62
675.29	31637.02
675.43	31646.38
675.56	31367.86
675.70	31449.78
675.84	31014.44
675.98	30143.76
676.12	31194.66
676.26	30590.80
676.40	30642.29
676.54	30375.47
676.68	30654.00
676.82	30508.88
676.96	30340.36
677.10	29979.92
677.23	30445.69
677.37	30136.74
677.51	29998.65
677.65	29935.45
677.79	29776.30
677.93	29624.16
678.07	29502.45
678.21	29333.93
678.34	29198.18
678.48	29624.16
678.62	29174.78
678.76	28938.38
678.90	29378.40
679.04	28989.88
679.18	29130.31
679.31	28856.46
679.45	28444.53
679.59	28460.91
679.73	28720.71
679.87	28538.15
680.00	28823.70
680.14	28093.45
680.28	28402.40
680.42	28137.92
680.56	28268.99
680.70	28374.31
680.83	27828.97
680.97	27569.17
681.11	27913.23
681.25	27630.02
681.39	27494.27
681.52	27693.22
681.66	27438.10
681.80	27459.16
681.94	27276.60
682.07	27292.99
682.21	27070.64
682.35	26780.41
682.49	27084.68
682.62	27108.08
682.76	26539.33
682.90	27056.59
683.04	27000.42
683.17	26583.80
683.31	26408.26
683.45	26099.31
683.59	26082.93
683.72	25813.77
683.86	25788.02
684.00	26185.91
684.13	25942.50
684.27	25886.32
684.41	25699.08
684.55	25619.50
684.68	25467.37
684.82	25462.69
684.96	25266.08
685.09	25415.88
685.23	24994.58
685.37	25130.33
685.50	25135.01
685.64	25097.56
685.78	24683.29
685.91	25240.34
686.05	25015.65
686.19	24535.84
686.32	24533.50
686.46	23840.70
686.60	24032.62
686.73	23763.46
686.87	23831.33
687.01	23541.11
687.14	23543.45
687.28	23388.97
687.42	23662.82
687.55	23098.75
687.69	23171.30
687.82	23183.01
687.96	23131.51
688.10	23049.60
688.23	23248.54
688.37	22635.32
688.50	22988.74
688.64	23073.00
688.78	22913.84
688.91	22607.23
689.05	22214.02
689.18	22583.83
689.32	22108.70
689.46	22260.84
689.59	22284.24
689.73	22394.25
689.86	21947.20
690.00	22026.78
690.13	22331.05
690.27	21825.50
690.41	22094.66
690.54	21844.22
690.68	21422.92
690.81	21553.99
690.95	21497.82
691.08	21556.33
691.22	21319.94
691.35	21432.29
691.49	21113.97
691.62	21228.66
691.76	21301.22
691.89	21247.38
692.03	20896.30
692.16	20783.96
692.30	21069.50
692.43	20924.39
692.57	20723.10
692.70	20556.93
692.84	20629.48
692.97	20374.36
693.11	20243.29
693.24	20304.15
693.38	20030.30
693.51	19824.34
693.65	20100.52
693.78	20140.31
693.92	20109.88
694.05	19470.92
694.19	19583.26
694.32	19714.33
694.45	19417.08
694.59	19236.86
694.72	19133.88
694.86	19070.68
694.99	19030.90
695.13	18853.02
695.26	18827.27
695.39	18614.28
695.53	18473.85
695.66	18436.40
695.80	18796.84
695.93	18616.62
696.07	18445.76
696.20	18757.05
696.33	18593.22
696.47	18476.19
696.60	18251.50
696.73	18270.22
696.87	18298.31
697.00	17968.29
697.14	17996.38
697.27	18090.00
697.40	18068.94
697.54	17561.04
697.67	17638.28
697.80	17659.34
697.94	17476.78
698.07	17252.09
698.21	17263.79
698.34	17329.33
698.47	17331.67
698.61	16592.06
698.74	16793.34
698.87	17081.23
699.01	16671.64
699.14	16889.31
699.27	16959.52
699.40	16943.14
699.54	16592.06
699.67	16498.44
699.80	16372.05
699.94	16133.31
700.07	16432.90
700.20	16051.39
700.34	16226.93
700.47	16168.42
700.60	16238.64
700.73	16203.53
700.87	16123.95
701.00	15653.50
701.13	15793.94
701.26	16006.92
701.40	15772.87
701.53	15693.29
701.66	15576.27
701.79	15456.90
701.93	15239.23
702.06	15253.27
702.19	15176.03
702.32	15133.90
702.46	15122.20
702.59	15061.35
702.72	14970.07
702.85	15157.31
702.99	14869.42
703.12	15066.03
703.25	14782.82
703.38	14600.26
703.51	14930.28
703.65	14415.36
703.78	14546.43
703.91	14518.34
704.04	14389.61
704.17	14551.11
704.31	14171.94
704.44	14251.52
704.57	13989.38
704.70	13956.61
704.83	13650.00
704.96	13886.40
705.10	13788.10
705.23	13970.66
>>>>>End Processed Spectral Data<<<<<
