SpectraSuite Data File
++++++++++++++++++++++++++++++++++++
Date: Fri Oct 25 10:47:17 EDT 2013
User: price-jones
Dark Spectrum Present: No
Reference Spectrum Present: No
Number of Sampled Component Spectra: 1
Spectrometers: USB2+H05261
Integration Time (usec): 100000 (USB2+H05261)
Spectra Averaged: 1 (USB2+H05261)
Boxcar Smoothing: 0 (USB2+H05261)
Correct for Electrical Dark: No (USB2+H05261)
Strobe/Lamp Enabled: No (USB2+H05261)
Correct for Detector Non-linearity: No (USB2+H05261)
Correct for Stray Light: No (USB2+H05261)
Number of Pixels in Processed Spectrum: 2048
>>>>>Begin Processed Spectral Data<<<<<
365.73	105.32
365.92	105.32
366.12	105.32
366.32	53.83
366.52	0.00
366.72	49.15
366.91	107.66
367.11	70.22
367.31	16.38
367.51	37.45
367.70	0.00
367.90	74.90
368.10	4.68
368.30	23.41
368.49	44.47
368.69	16.38
368.89	18.72
369.09	72.56
369.28	77.24
369.48	7.02
369.68	70.22
369.87	46.81
370.07	84.26
370.27	145.11
370.47	236.39
370.66	393.21
370.86	418.96
371.06	451.72
371.25	479.81
371.45	372.15
371.65	440.02
371.84	367.46
372.04	482.15
372.24	491.51
372.44	472.79
372.63	496.19
372.83	526.62
373.03	454.06
373.22	484.49
373.42	486.83
373.62	543.00
373.81	465.77
374.01	475.13
374.21	458.74
374.40	575.77
374.60	533.64
374.79	517.26
374.99	554.71
375.19	489.17
375.38	517.26
375.58	475.13
375.78	547.69
375.97	557.05
376.17	587.47
376.37	538.32
376.56	538.32
376.76	550.03
376.95	533.64
377.15	610.88
377.35	580.45
377.54	615.56
377.74	582.79
377.93	660.03
378.13	547.69
378.33	613.22
378.52	594.50
378.72	587.47
378.91	608.54
379.11	617.90
379.31	636.63
379.50	650.67
379.70	620.24
379.89	702.16
380.09	596.84
380.28	643.65
380.48	627.26
380.68	571.09
380.87	615.56
381.07	660.03
381.26	660.03
381.46	641.31
381.65	543.00
381.85	589.82
382.04	664.71
382.24	627.26
382.43	650.67
382.63	678.76
382.83	634.29
383.02	767.70
383.22	734.93
383.41	634.29
383.61	643.65
383.80	709.18
384.00	755.99
384.19	737.27
384.39	760.67
384.58	697.48
384.78	751.31
384.97	716.20
385.17	657.69
385.36	763.01
385.56	674.07
385.75	699.82
385.95	826.21
386.14	763.01
386.34	741.95
386.53	758.33
386.72	755.99
386.92	908.13
387.11	751.31
387.31	866.00
387.50	704.50
387.70	770.04
387.89	734.93
388.09	800.46
388.28	880.04
388.48	795.78
388.67	779.40
388.86	873.02
389.06	887.06
389.25	882.38
389.45	870.68
389.64	781.74
389.84	910.47
390.03	915.15
390.22	835.57
390.42	877.70
390.61	791.10
390.81	875.36
391.00	957.28
391.19	945.58
391.39	905.79
391.58	919.83
391.78	1048.56
391.97	926.85
392.16	863.66
392.36	959.62
392.55	947.92
392.75	954.94
392.94	940.90
393.13	980.68
393.33	856.64
393.52	901.11
393.71	905.79
393.91	957.28
394.10	1053.24
394.29	1069.62
394.49	1015.79
394.68	1011.11
394.88	1097.71
395.07	1097.71
395.26	1006.43
395.46	1146.86
395.65	1109.41
395.84	1132.82
396.04	1160.91
396.23	1076.65
396.42	1071.97
396.62	1055.58
396.81	1100.05
397.00	1125.80
397.19	1118.78
397.39	1158.57
397.58	1156.22
397.77	1219.42
397.97	1219.42
398.16	1132.82
398.35	1198.35
398.55	1221.76
398.74	1191.33
398.93	1174.95
399.12	1228.78
399.32	1224.10
399.51	1221.76
399.70	1254.53
399.90	1249.85
400.09	1308.36
400.28	1324.74
400.47	1350.49
400.67	1474.54
400.86	1313.04
401.05	1467.52
401.24	1416.02
401.44	1432.41
401.63	1390.28
401.82	1427.73
402.01	1390.28
402.21	1434.75
402.40	1394.96
402.59	1451.13
402.78	1481.56
402.97	1434.75
403.17	1451.13
403.36	1434.75
403.55	1535.39
403.74	1540.07
403.93	1474.54
404.13	1633.69
404.32	1572.84
404.51	1579.86
404.70	1575.18
404.89	1666.46
405.09	1526.03
405.28	1696.89
405.47	1757.74
405.66	1668.80
405.85	1736.68
406.05	1743.70
406.24	1694.55
406.43	1659.44
406.62	1720.29
406.81	1748.38
407.00	1722.63
407.20	1746.04
407.39	1776.47
407.58	1774.13
407.77	1811.57
407.96	1933.28
408.15	1853.70
408.34	1872.43
408.54	1900.52
408.73	1832.64
408.92	1830.30
409.11	1954.35
409.30	1963.71
409.49	1881.79
409.68	1912.22
409.87	2008.18
410.07	1970.73
410.26	1937.96
410.45	2092.44
410.64	2115.84
410.83	2012.86
411.02	2069.03
411.21	2097.12
411.40	2129.89
411.59	2230.53
411.78	2146.27
411.98	2132.23
412.17	2169.68
412.36	2099.46
412.55	2307.77
412.74	2267.98
412.93	2298.41
413.12	2176.70
413.31	2403.73
413.50	2382.67
413.69	2373.30
413.88	2424.80
414.07	2375.64
414.26	2576.93
414.45	2457.56
414.64	2448.20
414.83	2562.89
415.02	2745.45
415.22	2619.06
415.41	2677.57
415.60	2612.04
415.79	2672.89
415.98	2759.49
416.17	2724.38
416.36	2726.72
416.55	2633.10
416.74	2663.53
416.93	2698.64
417.12	2829.71
417.31	2813.32
417.50	2822.69
417.69	3059.08
417.88	2972.48
418.07	2939.71
418.26	2960.78
418.45	2949.08
418.64	3023.97
418.83	3066.10
419.02	2888.22
419.21	3103.55
419.39	3016.95
419.58	3028.65
419.77	2967.80
419.96	2923.33
420.15	3201.85
420.34	3138.66
420.53	3220.58
420.72	3110.57
420.91	3201.85
421.10	3269.73
421.29	3337.60
421.48	3108.23
421.67	3286.11
421.86	3122.27
422.05	3276.75
422.24	3290.79
422.43	3316.54
422.61	3344.63
422.80	3487.40
422.99	3356.33
423.18	3391.44
423.37	3318.88
423.56	3449.95
423.75	3295.47
423.94	3398.46
424.13	3129.30
424.32	3103.55
424.50	3400.80
424.69	3318.88
424.88	3375.05
425.07	3384.41
425.26	3379.73
425.45	3405.48
425.64	3400.80
425.83	3377.39
426.01	3452.29
426.20	3599.74
426.39	3459.31
426.58	3295.47
426.77	3506.12
426.96	3571.66
427.15	3459.31
427.33	3435.91
427.52	3442.93
427.71	3417.18
427.90	3595.06
428.09	3543.57
428.28	3658.26
428.46	3522.51
428.65	3541.23
428.84	3705.07
429.03	3815.07
429.22	3618.47
429.40	3653.58
429.59	3545.91
429.78	3473.36
429.97	3585.70
430.16	3599.74
430.34	3651.24
430.53	3751.88
430.72	3620.81
430.91	3838.48
431.10	3794.01
431.28	3873.59
431.47	3908.69
431.66	3967.21
431.85	3946.14
432.03	4014.02
432.22	3976.57
432.41	3934.44
432.60	4014.02
432.79	4025.72
432.97	4007.00
433.16	4037.42
433.35	4072.53
433.54	4173.18
433.72	4191.90
433.91	4091.26
434.10	4124.02
434.28	4245.73
434.47	4119.34
434.66	4320.63
434.85	4156.79
435.03	4227.01
435.22	4332.33
435.41	4386.16
435.59	4341.69
435.78	4409.57
435.97	4381.48
436.16	4381.48
436.34	4365.10
436.53	4327.65
436.72	4526.60
436.90	4276.16
437.09	4524.26
437.28	4271.48
437.46	4479.79
437.65	4379.14
437.84	4505.53
438.02	4542.98
438.21	4627.24
438.40	4468.08
438.58	4709.16
438.77	4725.54
438.96	4667.03
439.14	4830.87
439.33	4748.95
439.52	4826.18
439.70	4830.87
439.89	4940.87
440.08	4954.91
440.26	4877.68
440.45	4903.42
440.63	4931.51
440.82	5104.71
441.01	5172.58
441.19	5238.12
441.38	5128.11
441.57	5137.48
441.75	5418.34
441.94	5313.02
442.12	5343.44
442.31	5483.88
442.50	5437.06
442.68	5418.34
442.87	5542.39
443.05	5453.45
443.24	5533.03
443.43	5331.74
443.61	5472.17
443.80	5626.65
443.98	5343.44
444.17	5289.61
444.35	5453.45
444.54	5586.86
444.73	5540.05
444.91	5577.50
445.10	5565.79
445.28	5724.95
445.47	5556.43
445.65	5666.44
445.84	5521.32
446.02	5614.95
446.21	5577.50
446.39	5717.93
446.58	5673.46
446.77	5671.12
446.95	5586.86
447.14	5603.24
447.32	5832.62
447.51	5764.74
447.69	5743.67
447.88	5584.52
448.06	5591.54
448.25	5710.91
448.43	5865.38
448.62	5617.29
448.80	5647.71
448.99	5877.09
449.17	5834.96
449.36	5612.60
449.54	5949.64
449.73	6017.52
449.91	6010.50
450.10	6225.82
450.28	6076.03
450.46	6043.26
450.65	6085.39
450.83	6171.99
451.02	6197.74
451.20	6324.13
451.39	6249.23
451.57	6176.67
451.76	6043.26
451.94	6120.50
452.13	6296.04
452.31	6267.95
452.49	6188.38
452.68	6312.42
452.86	6221.14
453.05	6267.95
453.23	6307.74
453.42	6256.25
453.60	6373.28
453.78	6328.81
453.97	6387.32
454.15	6251.57
454.34	6333.49
454.52	6326.47
454.70	6417.75
454.89	6534.78
455.07	6518.39
455.26	6593.29
455.44	6764.15
455.62	6726.70
455.81	6609.67
455.99	6707.98
456.17	6686.91
456.36	6759.47
456.54	6822.66
456.73	6813.30
456.91	7070.76
457.09	6764.15
457.28	7229.91
457.46	6888.20
457.64	6857.77
457.83	6995.86
458.01	6916.28
458.19	7180.76
458.38	6956.07
458.56	7276.73
458.74	7037.99
458.93	6984.16
459.11	7101.19
459.29	7260.34
459.48	7433.54
459.66	7157.36
459.84	7236.94
460.03	7159.70
460.21	7288.43
460.39	7199.49
460.57	7349.28
460.76	7543.55
460.94	7445.24
461.12	7260.34
461.31	7482.69
461.49	7449.93
461.67	7588.02
461.85	7613.76
462.04	7620.78
462.22	8067.83
462.40	7606.74
462.59	7625.47
462.77	7742.49
462.95	7700.36
463.13	7611.42
463.32	7681.64
463.50	7777.60
463.68	7815.05
463.86	7770.58
464.05	7742.49
464.23	7859.52
464.41	7864.20
464.59	7653.55
464.78	7983.57
464.96	7915.69
465.14	7796.32
465.32	7957.82
465.50	7896.97
465.69	8116.98
465.87	7920.37
466.05	7845.48
466.23	7908.67
466.41	8168.47
466.60	8049.10
466.78	8116.98
466.96	7964.84
467.14	8102.93
467.32	8336.99
467.51	8341.67
467.69	8072.51
467.87	8241.03
468.05	8334.65
468.23	8327.63
468.41	8109.96
468.60	8273.79
468.78	8425.93
468.96	8423.59
469.14	8676.37
469.32	8318.26
469.50	8390.82
469.69	8407.20
469.87	8477.42
470.05	8533.59
470.23	8596.79
470.41	8662.32
470.59	8744.24
470.77	8638.92
470.95	8812.12
471.14	8734.88
471.32	8634.24
471.50	8954.89
471.68	8903.40
471.86	9057.87
472.04	9022.77
472.22	9064.89
472.40	8947.87
472.58	8992.34
472.77	9224.05
472.95	9142.13
473.13	9486.19
473.31	9266.18
473.49	9018.08
473.67	9104.68
473.85	9308.31
474.03	9359.80
474.21	9661.73
474.39	9661.73
474.57	9699.18
474.75	9603.22
474.93	9863.02
475.12	9575.13
475.30	9928.55
475.48	9755.35
475.66	10005.79
475.84	9860.68
476.02	10111.11
476.20	9944.94
476.38	10303.04
476.56	10513.69
476.74	10487.94
476.92	10223.46
477.10	10263.25
477.28	10455.17
477.46	10698.59
477.64	10803.91
477.82	10726.68
478.00	11000.52
478.18	10906.90
478.36	10956.05
478.54	11012.22
478.72	11070.73
478.90	11356.28
479.08	11438.20
479.26	11510.75
479.44	11606.72
479.62	11440.54
479.80	11520.12
479.98	11470.97
480.16	11906.31
480.34	11843.11
480.52	11838.43
480.70	11864.18
480.88	11988.22
481.06	12112.27
481.24	12320.58
481.41	12409.52
481.59	12446.97
481.77	12926.78
481.95	12622.51
482.13	12786.35
482.31	12821.45
482.49	12786.35
482.67	13184.24
482.85	13228.71
483.03	13053.17
483.21	13291.90
483.39	13458.08
483.57	13488.51
483.74	13755.33
483.92	13778.73
484.10	13827.88
484.28	13994.06
484.46	14160.24
484.64	14237.48
484.82	14143.86
485.00	14150.88
485.18	14558.13
485.35	14810.91
485.53	14530.05
485.71	14539.41
485.89	14949.00
486.07	14768.78
486.25	14899.85
486.43	15126.88
486.61	15056.67
486.78	15417.11
486.96	15433.49
487.14	15634.78
487.32	15541.16
487.50	15896.92
487.68	15941.39
487.85	16294.81
488.03	16383.75
488.21	16547.59
488.39	16498.44
488.57	16765.26
488.75	16858.88
488.92	16994.63
489.10	17303.58
489.28	16959.52
489.46	17518.91
489.64	17209.96
489.81	17647.64
489.99	17837.22
490.17	17764.67
490.35	17898.08
490.53	17886.37
490.70	18003.40
490.88	18071.28
491.06	18480.87
491.24	18361.50
491.41	18696.20
491.59	18534.70
491.77	18670.45
491.95	18750.03
492.13	18857.70
492.30	19414.74
492.48	19295.38
492.66	19187.71
492.84	19204.10
493.01	19321.12
493.19	19564.54
493.37	19969.45
493.54	19768.16
493.72	20109.88
493.90	19707.31
494.08	20346.28
494.25	20767.57
494.43	20533.52
494.61	20493.73
494.79	20365.00
494.96	20634.16
495.14	20896.30
495.32	21106.95
495.49	21132.70
495.67	21160.78
495.85	21245.04
496.02	21345.69
496.20	21900.39
496.38	21893.37
496.55	21776.34
496.73	22113.38
496.91	21678.04
497.09	22389.56
497.26	22302.96
497.44	22314.67
497.62	22232.75
497.79	22541.70
497.97	22759.37
498.14	22576.81
498.32	22520.63
498.50	22916.19
498.67	23323.44
498.85	23274.29
499.03	23271.95
499.20	23716.65
499.38	23363.23
499.56	23557.49
499.73	23922.62
499.91	23800.91
500.08	23796.23
500.26	23412.38
500.44	23864.10
500.61	24025.60
500.79	23920.28
500.97	23854.74
501.14	24437.53
501.32	24393.06
501.49	24622.44
501.67	24423.49
501.84	24652.86
502.02	24601.37
502.20	25102.25
502.37	25350.34
502.55	25069.48
502.72	25319.92
502.90	25200.55
503.07	24987.56
503.25	25329.28
503.43	25106.93
503.60	25486.09
503.78	25511.84
503.95	25448.64
504.13	25979.95
504.30	25860.58
504.48	25703.76
504.65	25886.32
504.83	26256.13
505.01	26356.77
505.18	26321.66
505.36	26218.68
505.53	26352.09
505.71	26492.52
505.88	26677.43
506.06	26422.31
506.23	26462.10
506.41	26462.10
506.58	26852.97
506.76	26670.40
506.93	27091.70
507.11	27119.79
507.28	27129.15
507.46	27197.02
507.63	27042.55
507.81	27358.52
507.98	27143.19
508.16	27115.11
508.33	27304.69
508.50	27473.21
508.68	27606.62
508.85	28182.39
509.03	28027.92
509.20	28128.56
509.38	28383.68
509.55	28460.91
509.73	28629.43
509.90	28617.73
510.08	28332.18
510.25	28610.71
510.42	28823.70
510.60	28500.70
510.77	28575.60
510.95	29130.31
511.12	28636.45
511.30	29060.09
511.47	29137.33
511.64	29067.11
511.82	29336.27
511.99	28905.62
512.17	29551.60
512.34	28912.64
512.51	29369.04
512.69	29631.18
512.86	29490.75
513.04	29750.55
513.21	29645.23
513.38	29708.42
513.56	29949.50
513.73	29479.05
513.90	29982.26
514.08	30218.66
514.25	30225.68
514.43	30122.69
514.60	30309.94
514.77	30284.19
514.95	30443.35
515.12	30450.37
515.29	30511.22
515.47	30845.92
515.64	30768.68
515.81	30417.60
515.99	30651.66
516.16	30976.99
516.33	31089.34
516.51	30941.88
516.68	30979.33
516.85	30710.17
517.03	31070.61
517.20	31220.41
517.37	30937.20
517.54	31714.26
517.72	31367.86
517.89	31342.11
518.06	31634.68
518.24	31620.64
518.41	31527.02
518.58	31630.00
518.75	31686.17
518.93	32119.17
519.10	31826.60
519.27	32322.80
519.45	31887.46
519.62	32254.92
519.79	32329.82
519.96	32325.14
520.14	32606.00
520.31	32343.86
520.48	32804.95
520.65	32432.80
520.83	32943.04
521.00	33046.02
521.17	32818.99
521.34	32854.10
521.52	32968.79
521.69	32910.27
521.86	33195.82
522.03	33158.37
522.20	33270.72
522.38	33212.20
522.55	33301.14
522.72	33371.36
522.89	33347.95
523.07	33441.57
523.24	33263.69
523.41	33720.10
523.58	33621.80
523.75	33996.28
523.92	33757.55
524.10	34295.87
524.27	34251.40
524.44	34164.80
524.61	34162.46
524.78	34019.69
524.96	34555.67
525.13	34270.12
525.30	34305.23
525.47	34822.49
525.64	34204.59
525.81	34771.00
525.98	34951.22
526.16	34295.87
526.33	34499.50
526.50	34768.66
526.67	34700.78
526.84	34600.14
527.01	34520.56
527.18	34724.19
527.36	35622.95
527.53	35398.26
527.70	35405.28
527.87	35077.61
528.04	35175.91
528.21	35129.10
528.38	35218.04
528.55	35550.40
528.72	35587.85
528.89	35697.85
529.07	35475.50
529.24	35857.01
529.41	35372.52
529.58	35541.03
529.75	35814.88
529.92	35681.47
530.09	35480.18
530.26	35690.83
530.43	35967.01
530.60	35669.76
530.77	36147.23
530.94	36662.15
531.11	36350.86
531.28	36037.23
531.46	36360.22
531.63	36961.74
531.80	36470.23
531.97	36217.45
532.14	36765.14
532.31	36432.78
532.48	36980.46
532.65	36458.52
532.82	36692.58
532.99	36779.18
533.16	36402.35
533.33	36954.72
533.50	37029.62
533.67	36404.69
533.84	37216.86
534.01	37209.84
534.18	36603.64
534.35	37486.02
534.52	37193.45
534.69	36912.59
534.86	37354.95
535.03	37029.62
535.20	37591.34
535.37	37329.20
535.54	37570.28
535.71	37647.52
535.88	37352.61
536.05	37633.47
536.22	37811.35
536.38	37476.66
536.55	38082.86
536.72	38115.62
536.89	37368.99
537.06	37453.25
537.23	37865.19
537.40	37830.08
537.57	37776.25
537.74	38073.49
537.91	38265.42
538.08	38309.89
538.25	37902.64
538.42	38202.22
538.59	38286.48
538.75	38103.92
538.92	38424.57
539.09	38426.92
539.26	38651.61
539.43	38246.69
539.60	38803.74
539.77	38288.82
539.94	38417.55
540.11	38565.01
540.28	38424.57
540.44	38471.39
540.61	38719.48
540.78	38436.28
540.95	38888.00
541.12	38396.49
541.29	39030.77
541.46	38939.49
541.62	38918.43
541.79	39037.80
541.96	38574.37
542.13	39002.69
542.30	38962.90
542.47	38902.04
542.63	39058.86
542.80	39262.49
542.97	39786.77
543.14	39962.31
543.31	39473.13
543.48	39690.80
543.64	39800.81
543.81	40598.93
543.98	39812.51
544.15	40055.93
544.32	40004.44
544.48	39948.26
544.65	39702.51
544.82	40016.14
544.99	39690.80
545.16	39716.55
545.32	39831.24
545.49	39885.07
545.66	39899.11
545.83	40285.30
546.00	40341.47
546.16	40048.91
546.33	39943.58
546.50	40067.63
546.67	40720.64
546.83	39962.31
547.00	40250.19
547.17	40210.40
547.34	40418.71
547.50	40842.35
547.67	40502.97
547.84	40645.74
548.00	40744.05
548.17	40549.78
548.34	40547.44
548.51	40989.80
548.67	40877.46
548.84	40765.11
549.01	41134.92
549.18	40645.74
549.34	41181.73
549.51	40900.86
549.68	41277.69
549.84	41123.21
550.01	41214.49
550.18	41013.21
550.34	41226.20
550.51	40889.16
550.68	41127.89
550.84	40898.52
551.01	41434.50
551.18	41179.39
551.34	41144.28
551.51	41319.82
551.68	41469.61
551.84	41631.11
552.01	41060.02
552.18	41890.91
552.34	41392.37
552.51	41743.45
552.68	41787.92
552.84	41762.18
553.01	41834.74
553.18	41397.06
553.34	41682.60
553.51	41448.55
553.67	41523.44
553.84	42319.23
554.01	41860.48
554.17	42036.02
554.34	42131.98
554.51	41904.95
554.67	42204.54
554.84	42007.94
555.00	41603.02
555.17	41951.76
555.33	42485.40
555.50	41975.17
555.67	42139.00
555.83	42052.41
556.00	42183.48
556.16	42590.73
556.33	42637.54
556.50	41918.99
556.66	42487.74
556.83	42527.53
556.99	42227.95
557.16	42637.54
557.32	42174.11
557.49	42347.31
557.65	42068.79
557.82	42274.76
557.98	42148.37
558.15	42279.44
558.32	42667.97
558.48	42550.94
558.65	42799.04
558.81	42679.67
558.98	42122.62
559.14	42593.07
559.31	42527.53
559.47	42763.93
559.64	42700.73
559.80	42548.60
559.97	42703.07
560.13	42450.30
560.30	42464.34
560.46	42777.97
560.63	42845.85
560.79	42878.61
560.96	43477.79
561.12	42597.75
561.29	42567.32
561.45	43145.44
561.61	42770.95
561.78	42855.21
561.94	42902.02
562.11	42850.53
562.27	42986.28
562.44	43136.07
562.60	43103.31
562.77	43189.91
562.93	42930.11
563.10	43583.12
563.26	42852.87
563.42	42880.95
563.59	42789.67
563.75	42979.26
563.92	43175.86
564.08	43189.91
564.24	43119.69
564.41	43379.49
564.57	43227.35
564.74	43290.55
564.90	43576.09
565.07	43704.82
565.23	43438.00
565.39	43189.91
565.56	43433.32
565.72	43182.88
565.88	43189.91
566.05	42976.92
566.21	43346.72
566.38	43510.56
566.54	43199.27
566.70	43704.82
566.87	43452.05
567.03	43416.94
567.19	43658.01
567.36	43313.95
567.52	43220.33
567.68	43943.56
567.85	43096.28
568.01	43435.66
568.17	43510.56
568.34	43966.96
568.50	43316.29
568.66	43222.67
568.83	43845.26
568.99	43194.59
569.15	43606.52
569.32	43398.21
569.48	43320.98
569.64	43571.41
569.81	43653.33
569.97	43377.15
570.13	43281.19
570.30	43463.75
570.46	43491.83
570.62	43473.11
570.78	43686.10
570.95	43379.49
571.11	43639.29
571.27	43557.37
571.43	43531.62
571.60	43730.57
571.76	43196.93
571.92	43578.43
572.09	43969.30
572.25	43817.17
572.41	43316.29
572.57	43789.08
572.74	44371.88
572.90	43730.57
573.06	43838.23
573.22	43248.42
573.38	44067.61
573.55	43283.53
573.71	44158.89
573.87	43655.67
574.03	43604.18
574.20	43618.22
574.36	43768.02
574.52	44023.14
574.68	44123.78
574.84	43746.95
575.01	43447.36
575.17	43896.75
575.33	43590.14
575.49	43501.20
575.65	44039.52
575.82	43915.47
575.98	43856.96
576.14	44018.46
576.30	43952.92
576.46	43613.54
576.62	43730.57
576.79	43793.76
576.95	43693.12
577.11	43882.70
577.27	44046.54
577.43	44006.75
577.59	43646.31
577.75	44163.57
577.92	43548.01
578.08	44076.97
578.24	43758.66
578.40	43863.98
578.56	44189.31
578.72	43454.39
578.88	44212.72
579.04	44121.44
579.21	44133.14
579.37	43758.66
579.53	43421.62
579.69	43594.82
579.85	43924.83
580.01	44044.20
580.17	44245.49
580.33	44053.56
580.49	43945.90
580.65	44002.07
580.82	43981.01
580.98	43952.92
581.14	44121.44
581.30	44079.31
581.46	44107.40
581.62	44062.93
581.78	43789.08
581.94	44243.15
582.10	43906.11
582.26	43739.93
582.42	44198.68
582.58	44194.00
582.74	43398.21
582.90	44278.25
583.06	43988.03
583.22	44055.90
583.38	44142.50
583.54	44147.18
583.70	43641.63
583.86	43751.63
584.02	43627.59
584.18	44154.21
584.34	44524.01
584.50	44233.78
584.66	44116.76
584.82	43983.35
584.98	44105.06
585.14	44671.46
585.30	44247.83
585.46	43756.32
585.62	43751.63
585.78	43496.52
585.94	43995.05
586.10	43730.57
586.26	44025.48
586.42	44011.43
586.58	44287.62
586.74	43613.54
586.90	44299.32
587.06	43735.25
587.22	43835.89
587.38	43536.30
587.54	44170.59
587.70	44289.96
587.86	44294.64
588.02	44313.36
588.18	44154.21
588.34	43948.24
588.49	43913.13
588.65	43775.04
588.81	43917.81
588.97	43931.86
589.13	44149.53
589.29	43840.57
589.45	44318.04
589.61	44177.61
589.77	44545.08
589.93	44271.23
590.08	44123.78
590.24	44500.61
590.40	44320.38
590.56	44474.86
590.72	44418.69
590.88	44289.96
591.04	43892.07
591.20	44404.64
591.35	44781.47
591.51	44624.65
591.67	44678.49
591.83	44641.04
591.99	44474.86
592.15	44456.14
592.31	44315.70
592.46	44123.78
592.62	44107.40
592.78	44343.79
592.94	44524.01
593.10	44175.27
593.26	44568.48
593.41	44252.51
593.57	44044.20
593.73	44289.96
593.89	44844.66
594.05	44233.78
594.20	44294.64
594.36	44732.32
594.52	44659.76
594.68	44566.14
594.84	44179.95
594.99	44987.44
595.15	44821.26
595.31	44502.95
595.47	44435.07
595.62	44306.34
595.78	44603.59
595.94	44699.55
596.10	44720.62
596.25	44451.45
596.41	44552.10
596.57	44416.35
596.73	44884.45
596.88	44758.06
597.04	44442.09
597.20	44402.30
597.36	44395.28
597.51	44772.11
597.67	44765.09
597.83	44722.96
597.99	44673.81
598.14	44854.03
598.30	44755.72
598.46	44423.37
598.61	44680.83
598.77	44516.99
598.93	44451.45
599.09	44617.63
599.24	45214.47
599.40	44713.59
599.56	44942.97
599.71	44994.46
599.87	45188.72
600.03	44980.42
600.18	44498.26
600.34	44289.96
600.50	44882.11
600.65	44435.07
600.81	45483.63
600.97	44491.24
601.12	45226.17
601.28	44650.40
601.44	44493.58
601.59	44446.77
601.75	44315.70
601.91	44491.24
602.06	44027.82
602.22	44619.97
602.37	44479.54
602.53	44596.57
602.69	44839.98
602.84	44566.14
603.00	44355.49
603.16	45078.72
603.31	44421.03
603.47	44521.67
603.62	44378.90
603.78	44226.76
603.94	44615.29
604.09	44886.79
604.25	44547.42
604.40	44479.54
604.56	44488.90
604.71	44685.51
604.87	44224.42
605.03	44570.82
605.18	44025.48
605.34	44409.32
605.49	44135.48
605.65	44622.31
605.80	44179.95
605.96	44456.14
606.12	44619.97
606.27	44884.45
606.43	44772.11
606.58	44584.86
606.74	44259.53
606.89	44435.07
607.05	44350.81
607.20	44224.42
607.36	44425.71
607.51	44495.92
607.67	44898.50
607.82	44421.03
607.98	44446.77
608.13	44430.39
608.29	43868.66
608.44	44093.35
608.60	43461.41
608.75	43861.64
608.91	43800.79
609.06	44414.01
609.22	44603.59
609.37	44011.43
609.53	44493.58
609.68	44102.71
609.84	44467.84
609.99	44289.96
610.15	44421.03
610.30	44194.00
610.46	44039.52
610.61	43803.13
610.76	43948.24
610.92	44074.63
611.07	43880.36
611.23	43922.49
611.38	44299.32
611.54	43367.79
611.69	43718.87
611.84	43669.72
612.00	43639.29
612.15	43948.24
612.31	43681.42
612.46	44215.06
612.62	43800.79
612.77	44009.09
612.92	43473.11
613.08	43959.94
613.23	43791.42
613.39	43959.94
613.54	43735.25
613.69	43337.36
613.85	43285.87
614.00	43903.77
614.15	44388.26
614.31	43957.60
614.46	43927.17
614.62	43896.75
614.77	43948.24
614.92	43124.37
615.08	43445.02
615.23	43529.28
615.38	43494.18
615.54	43304.59
615.69	43023.73
615.84	43269.48
616.00	43250.76
616.15	43564.39
616.30	43885.04
616.46	42969.90
616.61	42855.21
616.76	42909.04
616.92	43508.22
617.07	43323.32
617.22	43105.65
617.37	43187.56
617.53	43555.03
617.68	43262.46
617.83	43185.22
617.99	43683.76
618.14	43145.44
618.29	43122.03
618.45	42923.08
618.60	43072.88
618.75	43611.20
618.90	43115.01
619.06	43332.68
619.21	43370.13
619.36	43133.73
619.51	42717.12
619.67	42892.66
619.82	42862.23
619.97	43145.44
620.12	42698.39
620.28	42817.76
620.43	42710.10
620.58	42801.38
620.73	42653.92
620.89	42497.11
621.04	42389.44
621.19	42852.87
621.34	43096.28
621.49	42674.99
621.65	42951.17
621.80	42766.27
621.95	42546.26
622.10	42607.11
622.25	42691.37
622.41	42274.76
622.56	42232.63
622.71	42997.98
622.86	42618.81
623.01	42717.12
623.16	42564.98
623.32	42433.91
623.47	42377.74
623.62	42866.91
623.77	42029.00
623.92	42361.36
624.07	42309.86
624.23	42106.24
624.38	41481.31
624.53	42178.79
624.68	41759.84
624.83	42052.41
624.98	42401.14
625.13	41783.24
625.29	42181.13
625.44	42136.66
625.59	41949.42
625.74	41830.05
625.89	41823.03
626.04	41696.64
626.19	41972.83
626.34	41764.52
626.49	42085.17
626.65	41422.80
626.80	42195.18
626.95	41652.17
627.10	41493.02
627.25	41209.81
627.40	41778.56
627.55	41397.06
627.70	41106.83
627.85	41446.21
628.00	41448.55
628.15	41469.61
628.30	41563.23
628.45	41638.13
628.60	41640.47
628.76	41811.33
628.91	41556.21
629.06	41385.35
629.21	41361.95
629.36	40797.88
629.51	40961.72
629.66	41338.54
629.81	41102.15
629.96	41069.38
630.11	41125.55
630.26	41738.77
630.41	40982.78
630.56	41600.68
630.71	40971.08
630.86	40690.21
631.01	41092.79
631.16	40978.10
631.31	41127.89
631.46	40678.51
631.61	40985.12
631.76	41146.62
631.91	41055.34
632.06	41006.19
632.21	41064.70
632.36	41053.00
632.51	40713.62
632.66	40800.22
632.81	40491.27
632.96	40973.42
633.10	40439.78
633.25	40182.32
633.40	40509.99
633.55	40465.52
633.70	40739.36
633.85	40364.88
634.00	40521.69
634.15	40561.48
634.30	40509.99
634.45	40505.31
634.60	40371.90
634.75	40222.11
634.90	40552.12
635.05	40641.06
635.19	40404.67
635.34	40453.82
635.49	40706.60
635.64	39948.26
635.79	39690.80
635.94	40353.18
636.09	40449.14
636.24	40252.53
636.39	39545.69
636.53	39615.91
636.68	39842.94
636.83	39931.88
636.98	39835.92
637.13	40009.12
637.28	40046.57
637.43	40123.80
637.57	40013.80
637.72	39824.22
637.87	39955.29
638.02	39985.71
638.17	39938.90
638.32	40154.23
638.46	39620.59
638.61	39732.93
638.76	39449.73
638.91	39924.86
639.06	39629.95
639.20	39583.14
639.35	40051.25
639.50	39690.80
639.65	39454.41
639.80	40055.93
639.94	38969.92
640.09	39541.01
640.24	39133.76
640.39	39309.30
640.54	39618.25
640.68	39655.70
640.83	39157.16
640.98	39360.79
641.13	39194.61
641.27	39906.13
641.42	38895.02
641.57	39351.43
641.72	39175.89
641.86	39091.63
642.01	38885.66
642.16	39180.57
642.31	38532.24
642.45	38986.30
642.60	39016.73
642.75	38738.21
642.90	38888.00
643.04	38918.43
643.19	38859.91
643.34	38806.08
643.48	39091.63
643.63	38770.97
643.78	38778.00
643.93	38614.16
644.07	38389.47
644.22	38925.45
644.37	38572.03
644.51	38789.70
644.66	38529.90
644.81	38586.07
644.95	38885.66
645.10	38752.25
645.25	39005.03
645.39	39058.86
645.54	38801.40
645.69	38497.13
645.83	38398.83
645.98	38712.46
646.13	38590.75
646.27	38738.21
646.42	38342.66
646.57	38632.88
646.71	38469.04
646.86	38838.85
647.00	38529.90
647.15	38443.30
647.30	38532.24
647.44	38120.31
647.59	38003.28
647.74	38199.88
647.88	38082.86
648.03	37984.55
648.17	38211.59
648.32	37954.13
648.47	37769.22
648.61	37811.35
648.76	38382.45
648.90	38445.64
649.05	38265.42
649.20	38359.04
649.34	38359.04
649.49	37560.92
649.63	38117.96
649.78	37816.04
649.92	38045.41
650.07	38167.12
650.21	38171.80
650.36	37673.26
650.51	37663.90
650.65	37811.35
650.80	37734.12
650.94	38323.93
651.09	37830.08
651.23	37551.56
651.38	37500.06
651.52	37296.44
651.67	37558.58
651.81	38045.41
651.96	37399.42
652.10	37804.33
652.25	37553.90
652.39	37680.28
652.54	37514.11
652.68	38040.73
652.83	37729.44
652.97	37904.98
653.12	37493.04
653.26	37663.90
653.41	37111.53
653.55	37076.43
653.70	37387.72
653.84	37130.26
653.99	37481.34
654.13	37549.21
654.27	37163.03
654.42	36968.76
654.56	37408.78
654.71	37399.42
654.85	36924.29
655.00	37205.16
655.14	36580.23
655.29	36449.16
655.43	36732.37
655.57	36989.83
655.72	36823.65
655.86	37195.79
656.01	37188.77
656.15	36605.98
656.30	36825.99
656.44	36385.97
656.58	36374.27
656.73	36680.88
656.87	36460.87
657.01	36802.58
657.16	36638.75
657.30	36030.21
657.45	36737.05
657.59	36517.04
657.73	36133.19
657.88	36409.37
658.02	36535.76
658.16	35950.63
658.31	36605.98
658.45	36793.22
658.60	36465.55
658.74	35967.01
658.88	36507.68
659.03	35725.94
659.17	35922.54
659.31	36027.87
659.46	35871.05
659.60	35578.48
659.74	35959.99
659.89	35817.22
660.03	35576.14
660.17	36046.59
660.32	35803.17
660.46	35906.16
660.60	35922.54
660.74	36074.68
660.89	35959.99
661.03	35644.02
661.17	35370.18
661.32	35281.24
661.46	35000.37
661.60	35248.47
661.74	35218.04
661.89	35393.58
662.03	35496.56
662.17	35646.36
662.31	34981.65
662.46	35489.54
662.60	35690.83
662.74	35225.06
662.88	35005.05
663.03	35028.46
663.17	35470.82
663.31	34834.19
663.45	34953.56
663.60	34899.73
663.74	34522.90
663.88	34609.50
664.02	34401.19
664.17	34845.90
664.31	34534.60
664.45	34604.82
664.59	34735.89
664.73	34548.65
664.88	34501.84
665.02	34054.79
665.16	34469.07
665.30	33874.57
665.44	33954.15
665.59	33628.82
665.73	33504.77
665.87	33780.95
666.01	33621.80
666.15	34125.01
666.29	34195.23
666.44	34047.77
666.58	33764.57
666.72	33734.14
666.86	33722.44
667.00	34000.96
667.14	33675.63
667.28	33586.69
667.43	33443.91
667.57	33390.08
667.71	33242.63
667.85	33446.26
667.99	33315.19
668.13	32914.95
668.27	32985.17
668.41	33156.03
668.56	32746.44
668.70	32882.19
668.84	33186.46
668.98	33041.34
669.12	32573.24
669.26	32891.55
669.40	32877.51
669.54	32891.55
669.68	33134.96
669.82	32477.27
669.96	32477.27
670.10	32224.50
670.25	32517.06
670.39	32828.35
670.53	32545.15
670.67	32280.67
670.81	32407.06
670.95	32421.10
671.09	32210.45
671.23	32130.87
671.37	32481.95
671.51	32367.27
671.65	32374.29
671.79	31992.78
671.93	32100.45
672.07	31941.29
672.21	31751.71
672.35	31538.72
672.49	32203.43
672.63	31924.91
672.77	31269.56
672.91	31573.83
673.05	31431.05
673.19	31222.75
673.33	31220.41
673.47	30813.15
673.61	30721.87
673.75	31225.09
673.89	30845.92
674.03	30913.80
674.17	30581.44
674.31	30834.22
674.45	30611.87
674.59	30967.63
674.73	30962.95
674.87	30452.71
675.01	30501.86
675.15	30707.83
675.29	30651.66
675.43	30700.81
675.56	30876.35
675.70	30078.22
675.84	29935.45
675.98	29359.68
676.12	29862.90
676.26	29759.91
676.40	29422.87
676.54	29525.86
676.68	28868.17
676.82	28992.22
676.96	29186.48
677.10	29036.69
677.23	29179.46
677.37	29013.28
677.51	28629.43
677.65	29312.87
677.79	28428.15
677.93	28533.47
678.07	28847.10
678.21	28386.02
678.34	28301.76
678.48	28166.01
678.62	28404.74
678.76	28276.01
678.90	28058.34
679.04	28137.92
679.18	28173.03
679.31	27737.69
679.45	28037.28
679.59	27772.80
679.73	27693.22
679.87	27454.48
680.00	27658.11
680.14	27466.19
680.28	27309.37
680.42	26986.38
680.56	27084.68
680.70	27166.60
680.83	27143.19
680.97	26689.13
681.11	26480.82
681.25	26326.35
681.39	26607.21
681.52	26986.38
681.66	26749.98
681.80	26443.37
681.94	26139.10
682.07	26162.51
682.21	26178.89
682.35	26073.57
682.49	26045.48
682.62	25797.38
682.76	25951.86
682.90	25867.60
683.04	25839.51
683.17	25996.33
683.31	25549.29
683.45	25720.15
683.59	25811.43
683.72	25156.08
683.86	25013.31
684.00	25043.73
684.13	24915.00
684.27	25127.99
684.41	24964.15
684.55	24718.40
684.68	24594.35
684.82	24692.65
684.96	24364.98
685.09	24542.86
685.23	24278.38
685.37	24383.70
685.50	24608.39
685.64	24142.63
685.78	24126.24
685.91	24194.12
686.05	23974.11
686.19	23578.56
686.32	23828.99
686.46	23456.85
686.60	23508.34
686.73	23253.22
686.87	23580.90
687.01	23367.91
687.14	23253.22
687.28	22920.87
687.42	22801.50
687.55	22834.27
687.69	22742.99
687.82	22635.32
687.96	22628.30
688.10	22581.49
688.23	22483.19
688.37	22256.15
688.50	21905.07
688.64	22171.89
688.78	21865.28
688.91	21743.58
689.05	22209.34
689.18	21991.67
689.32	21734.21
689.46	21869.97
689.59	21994.01
689.73	21898.05
689.86	21642.93
690.00	21408.88
690.13	21724.85
690.27	21645.27
690.41	21458.03
690.54	20996.95
690.68	21013.33
690.81	21001.63
690.95	20847.15
691.08	20858.85
691.22	20360.32
691.35	20706.72
691.49	20856.51
691.62	20503.09
691.76	20744.17
691.89	20273.72
692.03	20208.19
692.16	20032.65
692.30	20109.88
692.43	20245.63
692.57	19885.19
692.70	19772.85
692.84	19651.14
692.97	19669.86
693.11	19346.87
693.24	19344.53
693.38	19304.74
693.51	19321.12
693.65	19484.96
693.78	19323.46
693.92	19206.44
694.05	19271.97
694.19	19419.42
694.32	19105.79
694.45	19190.05
694.59	18782.80
694.72	19058.98
694.86	18724.29
694.99	18853.02
695.13	18286.61
695.26	18207.03
695.39	18200.01
695.53	18209.37
695.66	18291.29
695.80	18125.11
695.93	18228.09
696.07	17954.25
696.20	17841.90
696.33	17701.47
696.47	17638.28
696.60	17380.82
696.73	17607.85
696.87	17806.80
697.00	17467.42
697.14	17444.01
697.27	17586.79
697.40	17462.74
697.54	17291.88
697.67	17308.26
697.80	17174.85
697.94	16985.27
698.07	17060.16
698.21	16954.84
698.34	16748.87
698.47	16985.27
698.61	16376.73
698.74	16294.81
698.87	16404.81
699.01	16533.54
699.14	16217.57
699.27	16390.77
699.40	16350.98
699.54	16065.44
699.67	16039.69
699.80	15651.16
699.94	16189.49
700.07	15969.48
700.20	15880.53
700.34	15672.23
700.47	15716.70
700.60	15934.37
700.73	15562.22
700.87	15637.12
701.00	15475.62
701.13	15272.00
701.26	15211.14
701.40	15356.25
701.53	15140.93
701.66	15218.16
701.79	14913.89
701.93	15023.90
702.06	14747.72
702.19	14890.49
702.32	14810.91
702.46	14565.15
702.59	14588.56
702.72	14370.89
702.85	14611.96
702.99	14445.79
703.12	14328.76
703.25	14274.93
703.38	14218.75
703.51	14176.62
703.65	14162.58
703.78	14223.44
703.91	14057.26
704.04	14190.67
704.17	14008.11
704.31	13834.91
704.44	13544.68
704.57	13462.76
704.70	13429.99
704.83	13525.96
704.96	13633.62
705.10	13708.52
705.23	13659.37
>>>>>End Processed Spectral Data<<<<<
