SpectraSuite Data File
++++++++++++++++++++++++++++++++++++
Date: Fri Oct 25 10:44:04 EDT 2013
User: price-jones
Dark Spectrum Present: No
Reference Spectrum Present: No
Number of Sampled Component Spectra: 1
Spectrometers: USB2+H05261
Integration Time (usec): 100000 (USB2+H05261)
Spectra Averaged: 1 (USB2+H05261)
Boxcar Smoothing: 0 (USB2+H05261)
Correct for Electrical Dark: No (USB2+H05261)
Strobe/Lamp Enabled: No (USB2+H05261)
Correct for Detector Non-linearity: No (USB2+H05261)
Correct for Stray Light: No (USB2+H05261)
Number of Pixels in Processed Spectrum: 2048
>>>>>Begin Processed Spectral Data<<<<<
365.73	114.69
365.92	114.69
366.12	114.69
366.32	9.36
366.52	23.41
366.72	60.85
366.91	0.00
367.11	32.77
367.31	30.43
367.51	60.85
367.70	2.34
367.90	86.60
368.10	9.36
368.30	14.04
368.49	0.00
368.69	56.17
368.89	16.38
369.09	105.32
369.28	28.09
369.48	58.51
369.68	56.17
369.87	112.35
370.07	51.49
370.27	112.35
370.47	131.07
370.66	400.23
370.86	458.74
371.06	528.96
371.25	521.94
371.45	477.47
371.65	444.70
371.84	433.00
372.04	367.46
372.24	545.34
372.44	482.15
372.63	559.39
372.83	486.83
373.03	524.28
373.22	573.43
373.42	585.13
373.62	559.39
373.81	575.77
374.01	589.82
374.21	568.75
374.40	594.50
374.60	603.86
374.79	596.84
374.99	627.26
375.19	622.58
375.38	613.22
375.58	615.56
375.78	643.65
375.97	566.41
376.17	650.67
376.37	615.56
376.56	629.60
376.76	669.39
376.95	608.54
377.15	599.18
377.35	624.92
377.54	704.50
377.74	671.73
377.93	674.07
378.13	650.67
378.33	620.24
378.52	704.50
378.72	695.14
378.91	620.24
379.11	599.18
379.31	681.10
379.50	641.31
379.70	730.25
379.89	723.23
380.09	676.41
380.28	711.52
380.48	681.10
380.68	713.86
380.87	727.91
381.07	716.20
381.26	716.20
381.46	777.06
381.65	744.29
381.85	739.61
382.04	669.39
382.24	741.95
382.43	653.01
382.63	688.12
382.83	631.94
383.02	674.07
383.22	732.59
383.41	760.67
383.61	781.74
383.80	798.12
384.00	809.83
384.19	730.25
384.39	851.96
384.58	786.42
384.78	882.38
384.97	887.06
385.17	891.74
385.36	830.89
385.56	770.04
385.75	816.85
385.95	854.30
386.14	868.34
386.34	741.95
386.53	863.66
386.72	910.47
386.92	1043.88
387.11	851.96
387.31	924.51
387.50	858.98
387.70	842.59
387.89	910.47
388.09	873.02
388.28	947.92
388.48	950.26
388.67	1013.45
388.86	933.87
389.06	994.73
389.25	1015.79
389.45	1015.79
389.64	997.07
389.84	1025.15
390.03	1057.92
390.22	1020.47
390.42	940.90
390.61	978.34
390.81	999.41
391.00	1013.45
391.19	1081.33
391.39	1086.01
391.58	1146.86
391.78	1048.56
391.97	1043.88
392.16	971.32
392.36	1137.50
392.55	1090.69
392.75	1078.99
392.94	1025.15
393.13	1067.28
393.33	1055.58
393.52	1015.79
393.71	1177.29
393.91	1153.88
394.10	1097.71
394.29	1111.75
394.49	1268.57
394.68	1270.91
394.88	1200.69
395.07	1266.23
395.26	1273.25
395.46	1210.06
395.65	1303.68
395.84	1313.04
396.04	1233.46
396.23	1231.12
396.42	1224.10
396.62	1205.38
396.81	1188.99
397.00	1247.51
397.19	1350.49
397.39	1425.39
397.58	1425.39
397.77	1413.68
397.97	1458.15
398.16	1474.54
398.35	1514.33
398.55	1519.01
398.74	1565.82
398.93	1549.43
399.12	1563.48
399.32	1610.29
399.51	1540.07
399.70	1654.76
399.90	1675.82
400.09	1682.85
400.28	1741.36
400.47	1664.12
400.67	1750.72
400.86	1699.23
401.05	1834.98
401.24	1909.88
401.44	1781.15
401.63	1778.81
401.82	1816.26
402.01	1820.94
402.21	1902.86
402.40	1785.83
402.59	1900.52
402.78	1750.72
402.97	1877.11
403.17	1860.73
403.36	1891.15
403.55	1912.22
403.74	1975.41
403.93	1886.47
404.13	1921.58
404.32	1947.33
404.51	1942.64
404.70	1914.56
404.89	1830.30
405.09	2057.33
405.28	2078.40
405.47	2045.63
405.66	2083.08
405.85	2092.44
406.05	2022.22
406.24	2076.06
406.43	2005.84
406.62	2223.51
406.81	2345.22
407.00	2141.59
407.20	2076.06
407.39	2148.61
407.58	2162.66
407.77	2293.72
407.96	2307.77
408.15	2324.15
408.34	2370.96
408.54	2326.49
408.73	2380.32
408.92	2464.58
409.11	2476.29
409.30	2455.22
409.49	2286.70
409.68	2370.96
409.87	2296.07
410.07	2377.98
410.26	2504.37
410.45	2616.72
410.64	2352.24
410.83	2569.91
411.02	2569.91
411.21	2715.02
411.40	2705.66
411.59	2752.47
411.78	2738.43
411.98	2665.87
412.17	2808.64
412.36	2775.88
412.55	2766.51
412.74	2806.30
412.93	2808.64
413.12	2780.56
413.31	3005.25
413.50	2846.09
413.69	2846.09
413.88	3033.33
414.07	3133.98
414.26	3063.76
414.45	3080.14
414.64	2963.12
414.83	3157.38
415.02	3159.72
415.22	3171.43
415.41	3351.65
415.60	3215.90
415.79	3293.13
415.98	3342.28
416.17	3449.95
416.36	3307.18
416.55	3309.52
416.74	3300.16
416.93	3330.58
417.12	3515.48
417.31	3412.50
417.50	3400.80
417.69	3592.72
417.88	3660.60
418.07	3473.36
418.26	3674.64
418.45	3719.11
418.64	3735.50
418.83	3796.35
419.02	3681.66
419.21	3571.66
419.39	3798.69
419.58	3604.42
419.77	3630.17
419.96	3702.73
420.15	3770.60
420.34	3770.60
420.53	3836.14
420.72	3908.69
420.91	3882.95
421.10	3969.55
421.29	4163.81
421.48	4004.66
421.67	4004.66
421.86	3889.97
422.05	4021.04
422.24	3838.48
422.43	3864.22
422.61	3995.29
422.80	4081.89
422.99	4035.08
423.18	4100.62
423.37	4189.56
423.56	4093.60
423.75	4119.34
423.94	4060.83
424.13	3892.31
424.32	3950.82
424.50	4203.60
424.69	4102.96
424.88	4383.82
425.07	4074.87
425.26	4128.70
425.45	4152.11
425.64	4205.94
425.83	4131.05
426.01	4149.77
426.20	4175.52
426.39	4283.18
426.58	4112.32
426.77	4053.81
426.96	4058.49
427.15	4168.49
427.33	4095.94
427.52	4241.05
427.71	4395.53
427.90	4212.96
428.09	4283.18
428.28	4390.84
428.46	4271.48
428.65	4435.32
428.84	4430.63
429.03	4437.66
429.22	4308.93
429.40	4411.91
429.59	4241.05
429.78	4035.08
429.97	3918.06
430.16	4201.26
430.34	4290.20
430.53	4327.65
430.72	4287.86
430.91	4365.10
431.10	4400.21
431.28	4837.89
431.47	4798.10
431.66	4748.95
431.85	4798.10
432.03	4854.27
432.22	4917.47
432.41	4788.74
432.60	4844.91
432.79	4924.49
432.97	4971.30
433.16	4774.69
433.35	4777.03
433.54	4788.74
433.72	4856.61
433.91	4741.93
434.10	4891.72
434.28	4835.55
434.47	4910.44
434.66	5100.03
434.85	5060.24
435.03	5163.22
435.22	4875.34
435.41	5289.61
435.59	5163.22
435.78	5359.83
435.97	5254.50
436.16	5320.04
436.34	5294.29
436.53	5369.19
436.72	5617.29
436.90	5170.24
437.09	5479.19
437.28	5329.40
437.46	5397.28
437.65	5411.32
437.84	5324.72
438.02	5315.36
438.21	5416.00
438.40	5193.65
438.58	5767.08
438.77	5650.05
438.96	5561.11
439.14	5736.65
439.33	5893.47
439.52	5771.76
439.70	5820.91
439.89	5949.64
440.08	5872.40
440.26	5947.30
440.45	5895.81
440.63	6015.18
440.82	6122.84
441.01	6111.14
441.19	6179.01
441.38	6272.64
441.57	6321.79
441.75	6312.42
441.94	6509.03
442.12	6464.56
442.31	6581.59
442.50	6583.93
442.68	6511.37
442.87	6663.51
443.05	6530.09
443.24	6572.22
443.43	6691.59
443.61	6775.85
443.80	6883.52
443.98	6473.92
444.17	6490.31
444.35	6876.49
444.54	6832.02
444.73	6937.35
444.91	6729.04
445.10	6626.06
445.28	6619.04
445.47	6736.06
445.65	6633.08
445.84	6712.66
446.02	6698.61
446.21	6855.43
446.39	6780.53
446.58	7045.01
446.77	6942.03
446.95	6717.34
447.14	6958.41
447.32	7052.03
447.51	7056.72
447.69	6958.41
447.88	6977.14
448.06	6960.75
448.25	6988.84
448.43	6984.16
448.62	6855.43
448.80	7077.78
448.99	7117.57
449.17	7056.72
449.36	7162.04
449.54	7260.34
449.73	7435.88
449.91	7520.14
450.10	7522.48
450.28	7595.04
450.46	7555.25
450.65	7442.90
450.83	7419.50
451.02	7527.16
451.20	7569.29
451.39	7496.74
451.57	7543.55
451.76	7445.24
451.94	7470.99
452.13	7669.94
452.31	7449.93
452.49	7377.37
452.68	7618.44
452.86	7566.95
453.05	7702.70
453.23	7543.55
453.42	7536.52
453.60	7578.65
453.78	7754.19
453.97	7588.02
454.15	7693.34
454.34	7662.91
454.52	7819.73
454.70	8046.76
454.89	7880.58
455.07	7796.32
455.26	7978.89
455.44	8109.96
455.62	7864.20
455.81	8131.02
455.99	8088.89
456.17	8290.18
456.36	8114.64
456.54	8116.98
456.73	8243.37
456.91	8362.73
457.09	8498.49
457.28	8617.85
457.46	8210.60
457.64	8521.89
457.83	8367.42
458.01	8407.20
458.19	8498.49
458.38	8606.15
458.56	8470.40
458.74	8554.66
458.93	8561.68
459.11	8711.47
459.29	8716.16
459.48	8655.30
459.66	8599.13
459.84	8699.77
460.03	9121.07
460.21	8791.05
460.39	8856.59
460.57	8819.14
460.76	8814.46
460.94	8938.51
461.12	8971.27
461.31	9170.22
461.49	8861.27
461.67	9071.92
461.85	9139.79
462.04	8997.02
462.22	9617.26
462.40	9282.56
462.59	9200.65
462.77	9107.02
462.95	9376.19
463.13	9357.46
463.32	9266.18
463.50	9221.71
463.68	9202.99
463.86	9263.84
464.05	9202.99
464.23	9355.12
464.41	9268.52
464.59	9252.14
464.78	9741.31
464.96	9378.53
465.14	9380.87
465.32	9638.33
465.50	9509.60
465.69	9837.27
465.87	9530.66
466.05	9441.72
466.23	9413.63
466.41	9418.32
466.60	9645.35
466.78	9364.48
466.96	9441.72
467.14	9647.69
467.32	9638.33
467.51	9823.23
467.69	9748.33
467.87	9816.21
468.05	9926.21
468.23	9741.31
468.41	9905.15
468.60	9947.28
468.78	9919.19
468.96	9848.97
469.14	10015.15
469.32	10223.46
469.50	10036.22
469.69	9947.28
469.87	10080.69
470.05	10153.24
470.23	10284.31
470.41	10230.48
470.59	10417.72
470.77	10115.80
470.95	10427.09
471.14	10469.22
471.32	10249.21
471.50	10590.92
471.68	10712.63
471.86	10733.70
472.04	10707.95
472.22	10862.43
472.40	10829.66
472.58	10944.34
472.77	10717.31
472.95	10843.70
473.13	11133.93
473.31	10801.57
473.49	10890.51
473.67	10878.81
473.85	10995.84
474.03	11384.37
474.21	11169.04
474.39	11318.83
474.57	11267.34
474.75	11712.04
474.93	11552.88
475.12	11234.57
475.30	11545.86
475.48	11566.93
475.66	11733.11
475.84	11541.18
476.02	11833.75
476.20	11946.09
476.38	12236.32
476.56	12287.81
476.74	12430.59
476.92	12163.76
477.10	12280.79
477.28	12564.00
477.46	12435.27
477.64	12643.57
477.82	12975.93
478.00	12915.08
478.18	12784.01
478.36	12863.58
478.54	13039.12
478.72	13146.79
478.90	13254.45
479.08	13376.16
479.26	13617.24
479.44	13790.44
479.62	13731.92
479.80	13841.93
479.98	14047.90
480.16	14150.88
480.34	14258.54
480.52	14420.04
480.70	14272.59
480.88	14328.76
481.06	14562.81
481.24	14494.94
481.41	14714.95
481.59	14949.00
481.77	15049.64
481.95	14740.69
482.13	15044.96
482.31	15103.48
482.49	15274.34
482.67	15166.67
482.85	15475.62
483.03	15501.37
483.21	15541.16
483.39	16039.69
483.57	15763.51
483.74	16142.67
483.92	16042.03
484.10	15960.11
484.28	16470.35
484.46	16472.69
484.64	16966.54
484.82	16556.95
485.00	16807.39
485.18	16650.57
485.35	17212.30
485.53	16655.25
485.71	16943.14
485.89	16767.60
486.07	16919.73
486.25	17422.95
486.43	17584.44
486.61	17703.81
486.78	17664.02
486.96	17867.65
487.14	18267.88
487.32	18473.85
487.50	18331.08
487.68	19051.96
487.85	18827.27
488.03	19201.76
488.21	18974.72
488.39	19197.07
488.57	19293.04
488.75	19197.07
488.92	19889.87
489.10	19756.46
489.28	20086.48
489.46	20430.54
489.64	20187.12
489.81	20924.39
489.99	20809.70
490.17	21305.90
490.35	21263.77
490.53	21254.40
490.70	21179.51
490.88	21436.97
491.06	21490.80
491.24	21584.42
491.41	21649.96
491.59	21605.49
491.77	21792.73
491.95	21717.83
492.13	22207.00
492.30	22061.89
492.48	22607.23
492.66	22485.53
492.84	22703.20
493.01	23094.07
493.19	22501.91
493.37	23080.02
493.54	22841.29
493.72	23379.61
493.90	23428.76
494.08	23676.86
494.25	24119.22
494.43	23910.91
494.61	24016.24
494.79	24315.83
494.96	24098.16
495.14	24381.36
495.32	24355.61
495.49	24538.18
495.67	24790.95
495.85	24929.05
496.02	24971.18
496.20	25156.08
496.38	25715.47
496.55	25212.25
496.73	26001.01
496.91	25570.35
497.09	25802.07
497.26	26148.46
497.44	25998.67
497.62	26457.42
497.79	26265.49
497.97	26096.97
498.14	26235.06
498.32	26501.89
498.50	26394.22
498.67	26906.80
498.85	26586.15
499.03	26831.90
499.20	27288.31
499.38	27325.75
499.56	27014.46
499.73	27452.14
499.91	27288.31
500.08	27557.47
500.26	26953.61
500.44	27311.71
500.61	27363.20
500.79	27344.48
500.97	27618.32
501.14	28002.17
501.32	27828.97
501.49	28004.51
501.67	28074.73
501.84	28379.00
502.02	28439.85
502.20	28484.32
502.37	28535.81
502.55	28659.86
502.72	28797.95
502.90	28753.48
503.07	28945.41
503.25	29160.73
503.43	28840.08
503.60	28898.59
503.78	28730.08
503.95	28870.51
504.13	29446.28
504.30	29703.74
504.48	29219.25
504.65	29942.47
504.83	29947.15
505.01	29993.97
505.18	30230.36
505.36	30256.11
505.53	30244.40
505.71	30749.96
505.88	30476.12
506.06	30288.87
506.23	30586.12
506.41	30539.31
506.58	30642.29
506.76	30359.09
506.93	30897.41
507.11	30782.73
507.28	31042.53
507.46	30888.05
507.63	31087.00
507.81	31002.74
507.98	30909.11
508.16	31395.95
508.33	31686.17
508.50	31660.43
508.68	31611.28
508.85	32093.43
509.03	32161.30
509.20	32156.62
509.38	32421.10
509.55	31960.02
509.73	31831.29
509.90	32257.26
510.08	32037.25
510.25	32287.69
510.42	32512.38
510.60	32561.53
510.77	32929.00
510.95	33181.77
511.12	32933.68
511.30	33242.63
511.47	33188.80
511.64	32980.49
511.82	33076.45
511.99	32975.81
512.17	33378.38
512.34	32776.86
512.51	33916.70
512.69	33670.95
512.86	33677.97
513.04	34059.48
513.21	34064.16
513.38	33596.05
513.56	33731.80
513.73	33483.70
513.90	34017.35
514.08	33907.34
514.25	33961.17
514.43	34199.91
514.60	33769.25
514.77	34541.63
514.95	34803.77
515.12	34164.80
515.29	34831.85
515.47	35037.82
515.64	34614.18
515.81	34843.56
515.99	34703.12
516.16	34562.69
516.33	34703.12
516.51	34581.42
516.68	34136.71
516.85	34206.93
517.03	34417.58
517.20	34836.53
517.37	35026.12
517.54	35543.38
517.72	34951.22
517.89	35037.82
518.06	34492.47
518.24	35063.57
518.41	35234.42
518.58	35470.82
518.75	35431.03
518.93	36023.19
519.10	35728.28
519.27	35941.27
519.45	35938.93
519.62	36421.08
519.79	36041.91
519.96	36212.77
520.14	36535.76
520.31	36596.62
520.48	36161.28
520.65	36165.96
520.83	37029.62
521.00	36795.56
521.17	37261.33
521.34	36957.06
521.52	37209.84
521.69	37240.26
521.86	37139.62
522.03	37329.20
522.20	37368.99
522.38	37399.42
522.55	37366.65
522.72	37326.86
522.89	37373.67
523.07	37507.08
523.24	37364.31
523.41	38181.16
523.58	37944.76
523.75	38586.07
523.92	38728.84
524.10	38347.34
524.27	38029.02
524.44	38096.90
524.61	38614.16
524.78	38934.81
524.96	38504.15
525.13	38822.47
525.30	38728.84
525.47	38937.15
525.64	38761.61
525.81	38653.95
525.98	38469.04
526.16	38265.42
526.33	37986.89
526.50	38237.33
526.67	37787.95
526.84	38038.39
527.01	38487.77
527.18	38775.66
527.36	39255.46
527.53	39115.03
527.70	39185.25
527.87	39838.26
528.04	39756.34
528.21	39166.52
528.38	39583.14
528.55	39615.91
528.72	40091.04
528.89	39910.82
529.07	39875.71
529.24	39906.13
529.41	39880.39
529.58	39999.76
529.75	39838.26
529.92	39835.92
530.09	40048.91
530.26	40383.60
530.43	40142.53
530.60	39985.71
530.77	40147.21
530.94	40318.07
531.11	40622.34
531.28	40519.35
531.46	40521.69
531.63	40861.07
531.80	40744.05
531.97	40168.27
532.14	40299.34
532.31	40072.31
532.48	40367.22
532.65	40994.48
532.82	40378.92
532.99	41120.87
533.16	40318.07
533.33	41301.09
533.50	41170.02
533.67	41333.86
533.84	40891.50
534.01	41282.37
534.18	41345.56
534.35	41390.03
534.52	40952.35
534.69	41567.91
534.86	41539.83
535.03	41132.57
535.20	42258.37
535.37	41794.95
535.54	41600.68
535.71	41797.29
535.88	41460.25
536.05	41448.55
536.22	41329.18
536.38	42029.00
536.55	42031.34
536.72	41757.50
536.89	41399.40
537.06	41649.83
537.23	42368.38
537.40	42574.34
537.57	42546.26
537.74	42375.40
537.91	42326.25
538.08	42541.58
538.25	41638.13
538.42	41874.52
538.59	42607.11
538.75	41921.34
538.92	42281.78
539.09	42686.69
539.26	42635.20
539.43	42284.12
539.60	42532.22
539.77	41979.85
539.94	42471.36
540.11	42440.93
540.28	42415.19
540.44	42740.52
540.61	42389.44
540.78	42672.65
540.95	42789.67
541.12	42529.87
541.29	42770.95
541.46	42674.99
541.62	43213.31
541.79	42836.48
541.96	42340.29
542.13	42422.21
542.30	42864.57
542.47	43232.04
542.63	42866.91
542.80	43171.18
542.97	43573.75
543.14	43618.22
543.31	43271.82
543.48	43826.53
543.64	44058.24
543.81	43941.22
543.98	43835.89
544.15	43634.61
544.32	43995.05
544.48	44306.34
544.65	44224.42
544.82	43517.58
544.99	43812.49
545.16	44083.99
545.32	43529.28
545.49	44304.00
545.66	44491.24
545.83	43938.88
546.00	44196.34
546.16	44109.74
546.33	44292.30
546.50	44222.08
546.67	44430.39
546.83	43725.89
547.00	44376.56
547.17	44495.92
547.34	44280.60
547.50	44095.69
547.67	44636.36
547.84	44580.18
548.00	44751.04
548.17	44631.68
548.34	44947.65
548.51	44839.98
548.67	45052.97
548.84	45085.74
549.01	44615.29
549.18	45031.91
549.34	44786.15
549.51	45022.54
549.68	45022.54
549.84	45010.84
550.01	45247.24
550.18	45193.40
550.34	45062.33
550.51	44708.91
550.68	44751.04
550.84	44699.55
551.01	45581.93
551.18	45017.86
551.34	45368.94
551.51	45394.69
551.68	45497.67
551.84	45471.93
552.01	45090.42
552.18	45284.68
552.34	45223.83
552.51	45106.80
552.68	44957.01
552.84	45469.59
553.01	45808.96
553.18	45521.08
553.34	45202.77
553.51	45523.42
553.67	45553.85
553.84	45635.77
554.01	45649.81
554.17	45923.65
554.34	46045.36
554.51	45478.95
554.67	45893.22
554.84	46089.83
555.00	45247.24
555.17	45619.38
555.33	45886.20
555.50	45949.40
555.67	45228.51
555.83	45415.76
556.00	45607.68
556.16	46085.15
556.33	45729.39
556.50	45668.53
556.66	45705.98
556.83	45488.31
556.99	46305.16
557.16	45911.95
557.32	45677.90
557.49	45600.66
557.65	45530.44
557.82	45804.28
557.98	45610.02
558.15	46162.39
558.32	46014.93
558.48	46024.29
558.65	45900.25
558.81	45897.91
558.98	45722.37
559.14	46230.26
559.31	46284.09
559.47	45933.01
559.64	46246.65
559.80	46286.43
559.97	46227.92
560.13	46005.57
560.30	46288.77
560.46	46281.75
560.63	46419.84
560.79	46719.43
560.96	47016.68
561.12	46103.87
561.29	46646.88
561.45	46515.81
561.61	46525.17
561.78	46155.36
561.94	46045.36
562.11	46403.46
562.27	46101.53
562.44	46405.80
562.60	46443.25
562.77	46754.54
562.93	46080.47
563.10	46806.03
563.26	46436.23
563.42	46375.37
563.59	46361.33
563.75	46815.40
563.92	46707.73
564.08	46995.62
564.24	46838.80
564.41	46649.22
564.57	46443.25
564.74	46499.42
564.90	46859.87
565.07	46948.81
565.23	46408.14
565.39	46691.35
565.56	46813.05
565.72	46302.82
565.88	46330.90
566.05	46719.43
566.21	46429.21
566.38	46494.74
566.54	46831.78
566.70	46918.38
566.87	46892.63
567.03	46473.68
567.19	46897.31
567.36	46855.18
567.52	46696.03
567.68	46590.70
567.85	46712.41
568.01	46894.97
568.17	46705.39
568.34	47030.72
568.50	46761.56
568.66	46583.68
568.83	47157.11
568.99	46305.16
569.15	46557.94
569.32	46775.61
569.48	46099.19
569.64	47140.73
569.81	46717.09
569.97	46887.95
570.13	46698.37
570.30	46569.64
570.46	46733.48
570.62	46232.60
570.78	46274.73
570.95	46583.68
571.11	47133.71
571.27	46665.60
571.43	46351.97
571.60	46384.74
571.76	46653.90
571.92	46852.84
572.09	46927.74
572.25	46953.49
572.41	46726.46
572.57	46878.59
572.74	47269.46
572.90	46939.44
573.06	47283.50
573.22	47056.47
573.38	46644.54
573.55	46728.80
573.71	47370.10
573.87	47044.77
574.03	47056.47
574.20	46892.63
574.36	47028.38
574.52	47119.66
574.68	47105.62
574.84	46972.21
575.01	46787.31
575.17	46794.33
575.33	46820.08
575.49	46403.46
575.65	46511.13
575.82	46852.84
575.98	46590.70
576.14	46885.61
576.30	47054.13
576.46	46965.19
576.62	46506.44
576.79	46639.86
576.95	46724.11
577.11	47016.68
577.27	46932.42
577.43	46806.03
577.59	46794.33
577.75	46583.68
577.92	46548.57
578.08	46621.13
578.24	46417.50
578.40	47056.47
578.56	46995.62
578.72	47136.05
578.88	47372.44
579.04	47248.39
579.21	46724.11
579.37	46871.57
579.53	47224.99
579.69	46567.30
579.85	46894.97
580.01	47192.22
580.17	46717.09
580.33	46934.76
580.49	47014.34
580.65	46944.12
580.82	46923.06
580.98	46686.67
581.14	46586.02
581.30	47145.41
581.46	47089.24
581.62	46925.40
581.78	46927.74
581.94	47498.83
582.10	46934.76
582.26	47086.90
582.42	47255.42
582.58	46902.00
582.74	47035.41
582.90	47445.00
583.06	47370.10
583.22	47096.26
583.38	47342.02
583.54	47299.89
583.70	47131.37
583.86	47180.52
584.02	46852.84
584.18	46995.62
584.34	47079.88
584.50	46721.77
584.66	46866.89
584.82	47014.34
584.98	46939.44
585.14	47180.52
585.30	47344.36
585.46	46972.21
585.62	46590.70
585.78	47262.44
585.94	46667.94
586.10	46838.80
586.26	46890.29
586.42	47004.98
586.58	47566.71
586.74	46951.15
586.90	46824.76
587.06	46808.37
587.22	47093.92
587.38	46962.85
587.54	47161.79
587.70	47093.92
587.86	47077.54
588.02	47365.42
588.18	47026.04
588.34	46845.82
588.49	46272.39
588.65	46106.21
588.81	46293.46
588.97	46773.27
589.13	46532.19
589.29	46686.67
589.45	46703.05
589.61	47274.14
589.77	47220.31
589.93	46597.73
590.08	47194.56
590.24	47374.78
590.40	47220.31
590.56	47487.13
590.72	47442.66
590.88	47040.09
591.04	47292.86
591.20	47323.29
591.35	47463.72
591.51	47716.50
591.67	47526.92
591.83	47040.09
591.99	47175.84
592.15	46962.85
592.31	46902.00
592.46	46969.87
592.62	46841.14
592.78	47058.81
592.94	47260.10
593.10	47234.35
593.26	47344.36
593.41	47185.20
593.57	46890.29
593.73	46925.40
593.89	47269.46
594.05	47054.13
594.20	47437.98
594.36	47058.81
594.52	46588.36
594.68	47012.00
594.84	47131.37
594.99	47143.07
595.15	47194.56
595.31	47372.44
595.47	46548.57
595.62	47236.69
595.78	46911.36
595.94	47210.95
596.10	47332.65
596.25	47276.48
596.41	47182.86
596.57	47213.29
596.73	47564.37
596.88	46761.56
597.04	47405.21
597.20	46880.93
597.36	47068.17
597.51	47517.56
597.67	46838.80
597.83	47639.26
597.99	47494.15
598.14	47070.51
598.30	47180.52
598.46	47253.08
598.61	47143.07
598.77	46986.25
598.93	47004.98
599.09	47185.20
599.24	47920.13
599.40	47571.39
599.56	47388.83
599.71	47285.84
599.87	47304.57
600.03	47004.98
600.18	47180.52
600.34	47285.84
600.50	46799.01
600.65	46845.82
600.81	47370.10
600.97	47243.71
601.12	47016.68
601.28	47213.29
601.44	47643.94
601.59	46951.15
601.75	47449.68
601.91	47049.45
602.06	46707.73
602.22	47065.83
602.37	47065.83
602.53	47299.89
602.69	47206.26
602.84	47133.71
603.00	47077.54
603.16	47232.01
603.31	47002.64
603.47	47224.99
603.62	47288.18
603.78	47110.30
603.94	46862.21
604.09	47459.04
604.25	47716.50
604.40	47290.52
604.56	46749.86
604.71	47447.34
604.87	46548.57
605.03	46941.78
605.18	46782.63
605.34	47227.33
605.49	46658.58
605.65	46880.93
605.80	47126.69
605.96	47437.98
606.12	46967.53
606.27	47353.72
606.43	46810.71
606.58	47033.07
606.74	46890.29
606.89	46796.67
607.05	47229.67
607.20	47119.66
607.36	47395.85
607.51	47342.02
607.67	46794.33
607.82	46899.65
607.98	46583.68
608.13	46869.23
608.29	46244.30
608.44	46635.17
608.60	46616.45
608.75	46670.28
608.91	46656.24
609.06	46363.67
609.22	47234.35
609.37	46681.98
609.53	46398.78
609.68	46885.61
609.84	46513.47
609.99	46508.79
610.15	46281.75
610.30	46103.87
610.46	46469.00
610.61	46206.86
610.76	46431.55
610.92	46644.54
611.07	46974.55
611.23	46302.82
611.38	46433.89
611.54	46314.52
611.69	46279.41
611.84	46323.88
612.00	46150.68
612.15	46457.29
612.31	46415.16
612.46	45837.05
612.62	46417.50
612.77	46183.45
612.92	46635.17
613.08	46014.93
613.23	46354.31
613.39	46064.08
613.54	45916.63
613.69	45914.29
613.85	45972.80
614.00	46394.10
614.15	45834.71
614.31	46080.47
614.46	46057.06
614.62	46120.26
614.77	46239.62
614.92	46033.66
615.08	46281.75
615.23	45773.86
615.38	45605.34
615.54	45645.13
615.69	45584.27
615.84	45546.82
616.00	45713.00
616.15	45560.87
616.30	45450.86
616.46	45701.30
616.61	45233.19
616.76	45352.56
616.92	45256.60
617.07	45329.16
617.22	45265.96
617.37	45202.77
617.53	46122.60
617.68	45661.51
617.83	45516.40
617.99	45574.91
618.14	45755.13
618.29	45338.52
618.45	45354.90
618.60	45041.27
618.75	45085.74
618.90	44992.12
619.06	45270.64
619.21	45593.64
619.36	45710.66
619.51	45181.70
619.67	45413.41
619.82	45670.87
619.97	45778.54
620.12	45380.65
620.28	44479.54
620.43	45193.40
620.58	45027.23
620.73	45067.02
620.89	45425.12
621.04	45371.28
621.19	45024.89
621.34	44828.28
621.49	45137.23
621.65	44994.46
621.80	44856.37
621.95	44821.26
622.10	44353.15
622.25	44486.56
622.41	44414.01
622.56	44772.11
622.71	44495.92
622.86	44648.06
623.01	44360.17
623.16	44236.12
623.32	44006.75
623.47	44615.29
623.62	44304.00
623.77	44493.58
623.92	44727.64
624.07	44449.11
624.23	44091.01
624.38	44156.55
624.53	44109.74
624.68	44399.96
624.83	44273.57
624.98	44259.53
625.13	43770.36
625.29	43393.53
625.44	43931.86
625.59	43896.75
625.74	43775.04
625.89	43093.94
626.04	43789.08
626.19	44320.38
626.34	43730.57
626.49	43793.76
626.65	43335.02
626.80	43826.53
626.95	43861.64
627.10	43863.98
627.25	43805.47
627.40	43393.53
627.55	43335.02
627.70	43480.13
627.85	43044.79
628.00	43634.61
628.15	43695.46
628.30	43299.91
628.45	43646.31
628.60	43981.01
628.76	43484.81
628.91	43536.30
629.06	43365.45
629.21	43161.82
629.36	43005.00
629.51	42946.49
629.66	43302.25
629.81	43213.31
629.96	42941.81
630.11	43470.77
630.26	42806.06
630.41	43136.07
630.56	43342.04
630.71	42780.31
630.86	43065.86
631.01	42955.85
631.16	42944.15
631.31	42604.77
631.46	42040.70
631.61	42485.40
631.76	42759.25
631.91	43033.09
632.06	42967.55
632.21	42754.57
632.36	43110.33
632.51	42630.52
632.66	42457.32
632.81	42059.43
632.96	42880.95
633.10	42597.75
633.25	42850.53
633.40	42616.47
633.55	42672.65
633.70	42511.15
633.85	42691.37
634.00	42518.17
634.15	42541.58
634.30	42377.74
634.45	42012.62
634.60	42279.44
634.75	42260.71
634.90	42174.11
635.05	42120.28
635.19	41977.51
635.34	42473.70
635.49	42277.10
635.64	42293.48
635.79	41909.63
635.94	42209.22
636.09	41830.05
636.24	41926.02
636.39	42234.97
636.53	42351.99
636.68	41769.20
636.83	41991.55
636.98	42307.52
637.13	41776.22
637.28	41869.84
637.43	41940.06
637.57	41886.23
637.72	41811.33
637.87	41727.07
638.02	42319.23
638.17	42527.53
638.32	41928.36
638.46	41661.54
638.61	41474.29
638.76	41436.84
638.91	41390.03
639.06	41647.49
639.20	41593.66
639.35	42059.43
639.50	41523.44
639.65	41776.22
639.80	41275.35
639.94	41659.20
640.09	41139.60
640.24	41209.81
640.39	40711.28
640.54	41254.28
640.68	41165.34
640.83	41022.57
640.98	41256.62
641.13	40980.44
641.27	41490.68
641.42	41064.70
641.57	40727.66
641.72	40959.38
641.86	40980.44
642.01	40514.67
642.16	40491.27
642.31	40542.76
642.45	40636.38
642.60	40643.40
642.75	40879.80
642.90	40882.14
643.04	41275.35
643.19	40685.53
643.34	40591.91
643.48	40914.90
643.63	40549.78
643.78	40753.41
643.93	40631.70
644.07	40882.14
644.22	40498.29
644.37	40325.09
644.51	40786.18
644.66	40594.25
644.81	40769.79
644.95	40605.95
645.10	40486.59
645.25	40285.30
645.39	40561.48
645.54	40598.93
645.69	40430.41
645.83	40540.42
645.98	40107.42
646.13	40407.01
646.27	40378.92
646.42	40119.12
646.57	39889.75
646.71	40259.55
646.86	40102.74
647.00	40336.79
647.15	40280.62
647.30	39480.16
647.44	39955.29
647.59	39880.39
647.74	40095.72
647.88	39803.15
648.03	40072.31
648.17	40002.10
648.32	39789.11
648.47	39966.99
648.61	39196.95
648.76	39676.76
648.90	40006.78
649.05	39725.91
649.20	39866.34
649.34	39271.85
649.49	39433.35
649.63	39576.12
649.78	39470.79
649.92	39321.00
650.07	39969.33
650.21	39997.41
650.36	40257.21
650.51	39482.50
650.65	39723.57
650.80	39693.15
650.94	39627.61
651.09	39222.70
651.23	39648.68
651.38	39236.74
651.52	39098.65
651.67	39065.88
651.81	38979.28
651.96	39079.92
652.10	39129.08
652.25	38768.63
652.39	39143.12
652.54	38958.22
652.68	39412.28
652.83	39000.35
652.97	39529.31
653.12	39072.90
653.26	38160.09
653.41	39002.69
653.55	38880.98
653.70	39021.41
653.84	38778.00
653.99	38824.81
654.13	38845.87
654.27	38562.67
654.42	38782.68
654.56	38515.86
654.71	38871.62
654.85	38773.31
655.00	38146.05
655.14	38321.59
655.29	38141.37
655.43	38445.64
655.57	37844.12
655.72	38211.59
655.86	37919.02
656.01	37694.33
656.15	37755.18
656.30	37872.21
656.44	38218.61
656.58	37713.05
656.73	38014.98
656.87	37787.95
657.01	38017.32
657.16	38038.39
657.30	37581.98
657.45	37771.57
657.59	37801.99
657.73	37699.01
657.88	38335.63
658.02	38206.90
658.16	38216.27
658.31	38330.95
658.45	38026.68
658.60	37727.10
658.74	37790.29
658.88	37855.82
659.03	37855.82
659.17	37261.33
659.31	37397.08
659.46	37722.41
659.60	37460.27
659.74	37511.77
659.89	37436.87
660.03	37244.94
660.17	37048.34
660.32	37151.32
660.46	37514.11
660.60	37380.70
660.74	37022.59
660.89	37109.19
661.03	36692.58
661.17	36474.91
661.32	36961.74
661.46	36554.49
661.60	36718.32
661.74	36634.06
661.89	37151.32
662.03	37090.47
662.17	36528.74
662.31	36247.88
662.46	36924.29
662.60	36613.00
662.74	36474.91
662.88	36369.58
663.03	36191.70
663.17	36774.50
663.31	35651.04
663.45	36629.38
663.60	36313.41
663.74	36299.37
663.88	36243.20
664.02	36070.00
664.17	36416.40
664.31	35826.58
664.45	35831.26
664.59	35922.54
664.73	35522.31
664.88	35676.79
665.02	35374.86
665.16	35934.24
665.30	35489.54
665.44	35548.06
665.59	35356.13
665.73	35466.14
665.87	35519.97
666.01	35253.15
666.15	35257.83
666.29	34923.13
666.44	35225.06
666.58	35002.71
666.72	34976.97
666.86	34775.68
667.00	35309.32
667.14	34813.13
667.28	34649.29
667.43	35140.80
667.57	34918.45
667.71	34834.19
667.85	34883.34
667.99	34558.01
668.13	34876.32
668.27	34412.90
668.41	34710.14
668.56	34345.02
668.70	34607.16
668.84	34019.69
668.98	34291.19
669.12	33858.19
669.26	34155.44
669.40	33984.58
669.54	34064.16
669.68	33813.72
669.82	33425.19
669.96	33701.37
670.10	33593.71
670.25	33900.32
670.39	33600.73
670.53	33462.64
670.67	33495.41
670.81	33975.22
670.95	33617.11
671.09	33277.74
671.23	33149.01
671.37	33118.58
671.51	33179.43
671.65	32987.51
671.79	32479.61
671.93	32931.34
672.07	32968.79
672.21	33214.54
672.35	32779.20
672.49	33048.36
672.63	33064.75
672.77	32498.34
672.91	32772.18
673.05	32519.40
673.19	32325.14
673.33	31988.10
673.47	32369.61
673.61	32306.41
673.75	32140.24
673.89	31922.57
674.03	31985.76
674.17	31496.59
674.31	31803.20
674.45	31637.02
674.59	31658.09
674.73	32102.79
674.87	31571.49
675.01	31466.16
675.15	31660.43
675.29	31466.16
675.43	31400.63
675.56	31498.93
675.70	31087.00
675.84	31117.42
675.98	29860.55
676.12	31180.62
676.26	30768.68
676.40	30904.43
676.54	30738.26
676.68	31173.60
676.82	30356.75
676.96	30700.81
677.10	30361.43
677.23	30134.40
677.37	30099.29
677.51	30120.35
677.65	29579.69
677.79	29748.21
677.93	29647.57
678.07	29483.73
678.21	29163.08
678.34	29516.50
678.48	29752.89
678.62	28847.10
678.76	29247.33
678.90	28914.98
679.04	28697.31
679.18	28835.40
679.31	28650.50
679.45	28610.71
679.59	28542.83
679.73	28510.07
679.87	28285.37
680.00	28706.67
680.14	28400.06
680.28	28397.72
680.42	28414.10
680.56	28030.26
680.70	27805.56
680.83	27913.23
680.97	28084.09
681.11	27374.91
681.25	27721.30
681.39	27786.84
681.52	27637.05
681.66	27257.88
681.80	27498.95
681.94	27328.10
682.07	27243.84
682.21	26927.86
682.35	27016.80
682.49	26820.20
682.62	27026.17
682.76	26733.60
682.90	26565.08
683.04	26534.65
683.17	26352.09
683.31	26534.65
683.45	26405.92
683.59	26260.81
683.72	25991.65
683.86	25916.75
684.00	25933.14
684.13	25844.20
684.27	25855.90
684.41	25556.31
684.55	25804.41
684.68	25390.13
684.82	25846.54
684.96	25336.30
685.09	25397.15
685.23	25544.61
685.37	24802.66
685.50	24915.00
685.64	24959.47
685.78	24947.77
685.91	24512.43
686.05	24367.32
686.19	24114.54
686.32	24322.85
686.46	23513.02
686.60	23545.79
686.73	23480.25
686.87	23342.16
687.01	23475.57
687.14	23236.84
687.28	23417.06
687.42	23281.31
687.55	23548.13
687.69	23468.55
687.82	23103.43
687.96	23372.59
688.10	23082.36
688.23	23271.95
688.37	22899.80
688.50	23115.13
688.64	22614.26
688.78	22934.91
688.91	22623.62
689.05	22614.26
689.18	22469.14
689.32	22057.21
689.46	22356.80
689.59	22494.89
689.73	22525.32
689.86	22459.78
690.00	22230.41
690.13	22403.61
690.27	22167.21
690.41	21781.03
690.54	21558.67
690.68	21362.07
690.81	21561.02
690.95	21668.68
691.08	21537.61
691.22	21422.92
691.35	21633.57
691.49	21469.73
691.62	21516.54
691.76	21034.39
691.89	20947.79
692.03	20980.56
692.16	20940.77
692.30	20430.54
692.43	20730.12
692.57	20545.22
692.70	20219.89
692.84	20168.40
692.97	20334.57
693.11	20400.11
693.24	20086.48
693.38	20023.28
693.51	20004.56
693.65	20156.69
693.78	19946.05
693.92	19908.60
694.05	20121.59
694.19	19660.50
694.32	19782.21
694.45	19644.12
694.59	19283.67
694.72	19398.36
694.86	19040.26
694.99	18806.20
695.13	19037.92
695.26	18888.12
695.39	18827.27
695.53	18995.79
695.66	19070.68
695.80	19068.34
695.93	18752.37
696.07	18527.68
696.20	18773.44
696.33	18597.90
696.47	18527.68
696.60	18094.68
696.73	17991.70
696.87	18326.39
697.00	18136.81
697.14	18052.55
697.27	17905.10
697.40	17682.75
697.54	17731.90
697.67	17429.97
697.80	17532.95
697.94	17565.72
698.07	17282.52
698.21	17390.18
698.34	17411.25
698.47	17296.56
698.61	16802.71
698.74	17011.01
698.87	16936.12
699.01	16751.21
699.14	16636.53
699.27	16535.88
699.40	16945.48
699.54	16666.95
699.67	16191.83
699.80	16458.65
699.94	16294.81
700.07	16512.48
700.20	16320.56
700.34	16208.21
700.47	16142.67
700.60	16556.95
700.73	16105.23
700.87	15927.35
701.00	15606.69
701.13	15836.06
701.26	15669.89
701.40	15674.57
701.53	15274.34
701.66	15534.14
701.79	15489.67
701.93	15529.45
702.06	15293.06
702.19	15019.22
702.32	15133.90
702.46	15154.97
702.59	14831.97
702.72	14995.81
702.85	15068.37
702.99	14932.62
703.12	14941.98
703.25	14532.39
703.38	14588.56
703.51	14394.29
703.65	14408.34
703.78	14766.44
703.91	14485.58
704.04	14347.48
704.17	14427.06
704.31	14242.16
704.44	14218.75
704.57	14092.37
704.70	14118.11
704.83	13874.70
704.96	13928.53
705.10	14010.45
705.23	13907.46
>>>>>End Processed Spectral Data<<<<<
