SpectraSuite Data File
++++++++++++++++++++++++++++++++++++
Date: Fri Oct 25 10:47:00 EDT 2013
User: price-jones
Dark Spectrum Present: No
Reference Spectrum Present: No
Number of Sampled Component Spectra: 1
Spectrometers: USB2+H05261
Integration Time (usec): 100000 (USB2+H05261)
Spectra Averaged: 1 (USB2+H05261)
Boxcar Smoothing: 0 (USB2+H05261)
Correct for Electrical Dark: No (USB2+H05261)
Strobe/Lamp Enabled: No (USB2+H05261)
Correct for Detector Non-linearity: No (USB2+H05261)
Correct for Stray Light: No (USB2+H05261)
Number of Pixels in Processed Spectrum: 2048
>>>>>Begin Processed Spectral Data<<<<<
365.73	91.28
365.92	91.28
366.12	91.28
366.32	39.79
366.52	49.15
366.72	39.79
366.91	53.83
367.11	32.77
367.31	0.00
367.51	11.70
367.70	46.81
367.90	91.28
368.10	93.62
368.30	51.49
368.49	7.02
368.69	56.17
368.89	30.43
369.09	81.92
369.28	128.73
369.48	126.39
369.68	105.32
369.87	142.77
370.07	23.41
370.27	88.94
370.47	112.35
370.66	409.59
370.86	477.47
371.06	482.15
371.25	411.93
371.45	456.40
371.65	479.81
371.84	477.47
372.04	367.46
372.24	524.28
372.44	430.66
372.63	498.53
372.83	491.51
373.03	484.49
373.22	444.70
373.42	491.51
373.62	440.02
373.81	468.11
374.01	585.13
374.21	524.28
374.40	482.15
374.60	571.09
374.79	589.82
374.99	629.60
375.19	566.41
375.38	608.54
375.58	643.65
375.78	528.96
375.97	573.43
376.17	741.95
376.37	634.29
376.56	517.26
376.76	510.24
376.95	594.50
377.15	641.31
377.35	594.50
377.54	573.43
377.74	603.86
377.93	676.41
378.13	732.59
378.33	669.39
378.52	683.44
378.72	643.65
378.91	648.33
379.11	643.65
379.31	617.90
379.50	596.84
379.70	676.41
379.89	617.90
380.09	634.29
380.28	559.39
380.48	634.29
380.68	629.60
380.87	711.52
381.07	641.31
381.26	709.18
381.46	697.48
381.65	678.76
381.85	664.71
382.04	690.46
382.24	702.16
382.43	641.31
382.63	723.23
382.83	690.46
383.02	730.25
383.22	812.17
383.41	748.97
383.61	746.63
383.80	788.76
384.00	758.33
384.19	739.61
384.39	767.70
384.58	725.57
384.78	805.14
384.97	765.36
385.17	842.59
385.36	835.57
385.56	777.06
385.75	716.20
385.95	716.20
386.14	840.25
386.34	828.55
386.53	770.04
386.72	856.64
386.92	763.01
387.11	849.61
387.31	847.27
387.50	746.63
387.70	847.27
387.89	870.68
388.09	896.43
388.28	809.83
388.48	863.66
388.67	894.08
388.86	875.36
389.06	875.36
389.25	926.85
389.45	884.72
389.64	940.90
389.84	954.94
390.03	891.74
390.22	1064.94
390.42	924.51
390.61	952.60
390.81	931.53
391.00	933.87
391.19	1032.18
391.39	1034.52
391.58	947.92
391.78	1032.18
391.97	1053.24
392.16	997.07
392.36	992.39
392.55	983.02
392.75	1053.24
392.94	1015.79
393.13	1018.13
393.33	968.98
393.52	1004.09
393.71	1013.45
393.91	1132.82
394.10	1167.93
394.29	973.66
394.49	1137.50
394.68	1139.84
394.88	1198.35
395.07	1233.46
395.26	1142.18
395.46	1137.50
395.65	1158.57
395.84	1188.99
396.04	1240.48
396.23	1156.22
396.42	1139.84
396.62	1212.40
396.81	1217.08
397.00	1233.46
397.19	1188.99
397.39	1270.91
397.58	1308.36
397.77	1362.19
397.97	1343.47
398.16	1348.15
398.35	1315.38
398.55	1392.62
398.74	1366.87
398.93	1497.94
399.12	1324.74
399.32	1277.93
399.51	1399.64
399.70	1441.77
399.90	1526.03
400.09	1479.22
400.28	1523.69
400.47	1460.49
400.67	1554.12
400.86	1490.92
401.05	1570.50
401.24	1441.77
401.44	1509.65
401.63	1631.35
401.82	1666.46
402.01	1523.69
402.21	1575.18
402.40	1542.41
402.59	1713.27
402.78	1633.69
402.97	1556.46
403.17	1689.87
403.36	1596.25
403.55	1692.21
403.74	1692.21
403.93	1659.44
404.13	1689.87
404.32	1834.98
404.51	1727.32
404.70	1673.48
404.89	1736.68
405.09	1813.92
405.28	1867.75
405.47	1785.83
405.66	1834.98
405.85	1774.13
406.05	1694.55
406.24	1818.60
406.43	1783.49
406.62	1919.24
406.81	2097.12
407.00	1907.54
407.20	1900.52
407.39	1956.69
407.58	1905.20
407.77	2057.33
407.96	2040.95
408.15	2099.46
408.34	1996.48
408.54	2125.21
408.73	2139.25
408.92	2134.57
409.11	2087.76
409.30	2223.51
409.49	2017.54
409.68	2141.59
409.87	2029.24
410.07	2319.47
410.26	2237.55
410.45	2291.38
410.64	2359.26
410.83	2160.31
411.02	2349.90
411.21	2354.58
411.40	2403.73
411.59	2436.50
411.78	2377.98
411.98	2424.80
412.17	2487.99
412.36	2328.83
412.55	2455.22
412.74	2527.78
412.93	2516.08
413.12	2558.21
413.31	2637.78
413.50	2562.89
413.69	2684.59
413.88	2691.62
414.07	2717.36
414.26	2717.36
414.45	2663.53
414.64	2843.75
414.83	2897.58
415.02	2883.54
415.22	2832.05
415.41	2890.56
415.60	2928.01
415.79	2984.18
415.98	3054.40
416.17	2916.31
416.36	2970.14
416.55	3009.93
416.74	3112.91
416.93	3117.59
417.12	3112.91
417.31	3108.23
417.50	3176.11
417.69	3215.90
417.88	3204.19
418.07	3183.13
418.26	3248.66
418.45	3155.04
418.64	3246.32
418.83	3201.85
419.02	3302.50
419.21	3295.47
419.39	3403.14
419.58	3361.01
419.77	3370.37
419.96	3267.39
420.15	3454.63
420.34	3459.31
420.53	3529.53
420.72	3543.57
420.91	3513.14
421.10	3641.87
421.29	3667.62
421.48	3588.04
421.67	3543.57
421.86	3524.85
422.05	3709.75
422.24	3637.19
422.43	3583.36
422.61	3585.70
422.80	3648.90
422.99	3646.55
423.18	3679.32
423.37	3693.37
423.56	3658.26
423.75	3585.70
423.94	3653.58
424.13	3473.36
424.32	3648.90
424.50	3777.62
424.69	3908.69
424.88	3777.62
425.07	3691.02
425.26	3641.87
425.45	3705.07
425.64	3803.37
425.83	3639.53
426.01	3789.33
426.20	3873.59
426.39	3803.37
426.58	3646.55
426.77	3719.11
426.96	3779.97
427.15	3857.20
427.33	3836.14
427.52	3770.60
427.71	3805.71
427.90	3974.23
428.09	3981.25
428.28	4058.49
428.46	3908.69
428.65	3953.16
428.84	4208.28
429.03	4152.11
429.22	3801.03
429.40	3857.20
429.59	3981.25
429.78	3864.22
429.97	3801.03
430.16	3843.16
430.34	3904.01
430.53	3983.59
430.72	4037.42
430.91	4014.02
431.10	4168.49
431.28	4290.20
431.47	4308.93
431.66	4383.82
431.85	4339.35
432.03	4421.27
432.22	4416.59
432.41	4259.78
432.60	4489.15
432.79	4320.63
432.97	4262.12
433.16	4484.47
433.35	4374.46
433.54	4407.23
433.72	4449.36
433.91	4489.15
434.10	4592.13
434.28	4652.98
434.47	4489.15
434.66	4545.32
434.85	4564.04
435.03	4688.09
435.22	4629.58
435.41	4685.75
435.59	4760.65
435.78	4791.08
435.97	4933.85
436.16	4732.56
436.34	4800.44
436.53	4784.06
436.72	4889.38
436.90	4772.35
437.09	4837.89
437.28	4772.35
437.46	4894.06
437.65	4807.46
437.84	4975.98
438.02	4973.64
438.21	4992.36
438.40	4975.98
438.58	4999.38
438.77	5048.54
438.96	5188.97
439.14	5177.26
439.33	5348.12
439.52	5303.65
439.70	5416.00
439.89	5441.75
440.08	5497.92
440.26	5341.10
440.45	5334.08
440.63	5458.13
440.82	5628.99
441.01	5628.99
441.19	5582.18
441.38	5551.75
441.57	5738.99
441.75	5858.36
441.94	5912.19
442.12	5748.36
442.31	5830.27
442.50	5846.66
442.68	5902.83
442.87	5923.90
443.05	5930.92
443.24	6029.22
443.43	6026.88
443.61	6200.08
443.80	6179.01
443.98	5902.83
444.17	5811.55
444.35	6061.99
444.54	6296.04
444.73	5970.71
444.91	6148.59
445.10	6162.63
445.28	6076.03
445.47	6001.13
445.65	5996.45
445.84	6113.48
446.02	6174.33
446.21	6150.93
446.39	6136.88
446.58	6143.91
446.77	6188.38
446.95	6157.95
447.14	6296.04
447.32	6392.00
447.51	6249.23
447.69	6267.95
447.88	6286.68
448.06	6209.44
448.25	6129.86
448.43	6282.00
448.62	6424.77
448.80	6256.25
448.99	6321.79
449.17	6471.58
449.36	6338.17
449.54	6574.56
449.73	6572.22
449.91	6614.35
450.10	6633.08
450.28	6670.53
450.46	6808.62
450.65	6715.00
450.83	6731.38
451.02	6630.74
451.20	6787.55
451.39	6906.92
451.57	6677.55
451.76	6696.27
451.94	6665.85
452.13	6876.49
452.31	6630.74
452.49	6733.72
452.68	6876.49
452.86	6913.94
453.05	6775.85
453.23	6839.05
453.42	6822.66
453.60	6782.87
453.78	6829.68
453.97	6761.81
454.15	6927.99
454.34	6827.34
454.52	7075.44
454.70	7061.40
454.89	6986.50
455.07	7066.08
455.26	7276.73
455.44	7311.83
455.62	7213.53
455.81	7241.62
455.99	7283.75
456.17	7475.67
456.36	7431.20
456.54	7417.16
456.73	7431.20
456.91	7592.70
457.09	7344.60
457.28	7796.32
457.46	7538.87
457.64	7644.19
457.83	7728.45
458.01	7564.61
458.19	7599.72
458.38	7723.77
458.56	7695.68
458.74	7875.90
458.93	7875.90
459.11	7880.58
459.29	7726.11
459.48	7833.77
459.66	7672.28
459.84	7911.01
460.03	8025.70
460.21	7999.95
460.39	8011.65
460.57	7962.50
460.76	8016.33
460.94	8098.25
461.12	7955.48
461.31	8224.64
461.49	8086.55
461.67	8074.85
461.85	8255.07
462.04	8313.58
462.22	8779.35
462.40	8489.12
462.59	8348.69
462.77	8269.11
462.95	8407.20
463.13	8451.67
463.32	8290.18
463.50	8432.95
463.68	8381.46
463.86	8582.74
464.05	8189.53
464.23	8397.84
464.41	8229.32
464.59	8318.26
464.78	8667.00
464.96	8610.83
465.14	8425.93
465.32	8671.68
465.50	8587.43
465.69	8706.79
465.87	8727.86
466.05	8655.30
466.23	8870.63
466.41	8882.33
466.60	8837.86
466.78	8678.71
466.96	8769.99
467.14	8732.54
467.32	8777.01
467.51	8966.59
467.69	8641.26
467.87	8924.46
468.05	9043.83
468.23	8844.88
468.41	9078.94
468.60	8894.04
468.78	9064.89
468.96	9097.66
469.14	9226.39
469.32	9118.73
469.50	8802.75
469.69	9083.62
469.87	9338.74
470.05	9266.18
470.23	9254.48
470.41	9212.35
470.59	9453.42
470.77	9341.08
470.95	9521.30
471.14	9528.32
471.32	9465.13
471.50	9703.86
471.68	9757.69
471.86	9811.53
472.04	9600.88
472.22	9987.07
472.40	9610.24
472.58	10052.60
472.77	9792.80
472.95	9940.26
473.13	10382.62
473.31	9963.66
473.49	10078.35
473.67	9970.68
473.85	10101.75
474.03	10127.50
474.21	10387.30
474.39	10239.84
474.57	10457.51
474.75	10693.91
474.93	10501.98
475.12	10630.71
475.30	10848.38
475.48	10476.24
475.66	10642.42
475.84	10602.63
476.02	10633.05
476.20	10963.07
476.38	10927.96
476.56	11564.59
476.74	11061.37
476.92	11145.63
477.10	11185.42
477.28	11541.18
477.46	11344.58
477.64	11463.94
477.82	11372.66
478.00	11815.02
478.18	11707.36
478.36	11948.43
478.54	11955.46
478.72	12154.40
478.90	12409.52
479.08	12414.20
479.26	12407.18
479.44	12348.67
479.62	12503.14
479.80	12585.06
479.98	12643.57
480.16	12858.90
480.34	12741.88
480.52	13006.36
480.70	12922.10
480.88	12938.48
481.06	13233.39
481.24	13282.54
481.41	13233.39
481.59	13488.51
481.77	13514.25
481.95	13528.30
482.13	13977.68
482.31	13886.40
482.49	14476.21
482.67	14101.73
482.85	14209.39
483.03	14284.29
483.21	14340.46
483.39	14593.24
483.57	14738.35
483.74	14637.71
483.92	14864.74
484.10	14796.87
484.28	15218.16
484.46	15185.40
484.64	15431.15
484.82	15314.13
485.00	15222.84
485.18	15716.70
485.35	15946.07
485.53	15573.92
485.71	15309.44
485.89	15690.95
486.07	15688.61
486.25	15763.51
486.43	16046.71
486.61	16283.11
486.78	16791.00
486.96	16365.03
487.14	17137.40
487.32	16856.54
487.50	17060.16
487.68	16938.46
487.85	17561.04
488.03	17359.75
488.21	17631.26
488.39	17914.46
488.57	17666.36
488.75	17741.26
488.92	18134.47
489.10	18382.57
489.28	18431.72
489.46	18572.15
489.64	18621.30
489.81	19089.41
489.99	18876.42
490.17	19391.34
490.35	19250.91
490.53	19201.76
490.70	19632.41
490.88	19536.45
491.06	20058.39
491.24	20273.72
491.41	19847.74
491.59	20018.60
491.77	19829.02
491.95	19887.53
492.13	20133.29
492.30	20809.70
492.48	20636.50
492.66	20746.51
492.84	21083.55
493.01	21064.82
493.19	20879.92
493.37	21462.71
493.54	21060.14
493.72	21348.03
493.90	21413.56
494.08	21752.94
494.25	21774.00
494.43	22307.65
494.61	22242.11
494.79	22300.62
494.96	22279.56
495.14	22562.76
495.32	22628.30
495.49	22595.53
495.67	22609.58
495.85	22794.48
496.02	23082.36
496.20	23342.16
496.38	23417.06
496.55	23241.52
496.73	23800.91
496.91	23601.96
497.09	23454.51
497.26	23997.51
497.44	23718.99
497.62	24327.53
497.79	24175.39
497.97	23969.43
498.14	24098.16
498.32	24151.99
498.50	24561.58
498.67	24713.72
498.85	25048.41
499.03	24945.43
499.20	24915.00
499.38	25085.86
499.56	25399.49
499.73	24959.47
499.91	25195.87
500.08	25331.62
500.26	25355.02
500.44	25671.00
500.61	25710.78
500.79	25415.88
500.97	26176.55
501.14	26455.08
501.32	26064.21
501.49	25867.60
501.67	26122.72
501.84	26211.66
502.02	26403.58
502.20	26504.23
502.37	26827.22
502.55	26691.47
502.72	26838.92
502.90	26665.72
503.07	26761.69
503.25	26815.52
503.43	26998.08
503.60	26752.32
503.78	26904.46
503.95	27234.47
504.13	27175.96
504.30	27693.22
504.48	27218.09
504.65	27873.44
504.83	27779.82
505.01	27807.90
505.18	27906.21
505.36	28315.80
505.53	28177.71
505.71	28622.41
505.88	28336.87
506.06	28261.97
506.23	28271.33
506.41	28126.22
506.58	28669.22
506.76	28472.62
506.93	28584.96
507.11	28966.47
507.28	28790.93
507.46	28947.75
507.63	28589.64
507.81	29130.31
507.98	28884.55
508.16	29397.13
508.33	29291.80
508.50	29205.20
508.68	29984.60
508.85	29909.71
509.03	29757.57
509.20	29558.63
509.38	29872.26
509.55	29855.87
509.73	30218.66
509.90	29968.22
510.08	29921.41
510.25	30316.96
510.42	30143.76
510.60	30345.05
510.77	30670.38
510.95	30595.48
511.12	30808.47
511.30	30466.75
511.47	31119.76
511.64	31096.36
511.82	31335.09
511.99	31028.48
512.17	30843.58
512.34	30962.95
512.51	31438.08
512.69	31442.76
512.86	31660.43
513.04	31651.06
513.21	31676.81
513.38	31782.13
513.56	31702.56
513.73	31620.64
513.90	31840.65
514.08	31915.54
514.25	31906.18
514.43	32013.85
514.60	31997.46
514.77	32149.60
514.95	32273.65
515.12	32002.14
515.29	32470.25
515.47	32783.88
515.64	32587.28
515.81	32802.61
515.99	32783.88
516.16	32758.14
516.33	32872.82
516.51	32790.91
516.68	32470.25
516.85	32149.60
517.03	32334.50
517.20	32540.47
517.37	32800.27
517.54	33312.84
517.72	33165.39
517.89	33216.88
518.06	33123.26
518.24	33137.30
518.41	33277.74
518.58	33273.06
518.75	32980.49
518.93	33968.19
519.10	33383.06
519.27	33893.30
519.45	33909.68
519.62	33769.25
519.79	34440.98
519.96	34525.24
520.14	34607.16
520.31	34382.47
520.48	34553.33
520.65	34429.28
520.83	34895.05
521.00	34600.14
521.17	34939.52
521.34	34766.32
521.52	34649.29
521.69	34834.19
521.86	35164.21
522.03	35260.17
522.20	34969.94
522.38	35302.30
522.55	35283.58
522.72	35115.06
522.89	35316.34
523.07	35655.72
523.24	35283.58
523.41	35917.86
523.58	35470.82
523.75	35978.72
523.92	35700.19
524.10	35974.03
524.27	36130.85
524.44	36123.83
524.61	35857.01
524.78	36252.56
524.96	36484.27
525.13	36418.74
525.30	36730.03
525.47	37057.70
525.64	36524.06
525.81	36336.82
525.98	36486.61
526.16	36437.46
526.33	36154.26
526.50	36926.63
526.67	35936.59
526.84	36327.45
527.01	36442.14
527.18	37081.11
527.36	37078.77
527.53	37263.67
527.70	37247.29
527.87	37198.13
528.04	37141.96
528.21	37247.29
528.38	37123.24
528.55	37680.28
528.72	37481.34
528.89	38103.92
529.07	37991.58
529.24	37354.95
529.41	37748.16
529.58	37556.24
529.75	37649.86
529.92	37532.83
530.09	37748.16
530.26	37872.21
530.43	38389.47
530.60	38150.73
530.77	38188.18
530.94	38251.38
531.11	37759.86
531.28	38263.08
531.46	38639.90
531.63	38436.28
531.80	38368.40
531.97	38157.75
532.14	38675.01
532.31	38366.06
532.48	38382.45
532.65	38445.64
532.82	38401.17
532.99	38410.53
533.16	38724.16
533.33	38707.78
533.50	38759.27
533.67	39166.52
533.84	38831.83
534.01	38827.15
534.18	39035.45
534.35	39112.69
534.52	38993.32
534.69	39416.96
534.86	39309.30
535.03	38930.13
535.20	39873.37
535.37	39452.07
535.54	40041.88
535.71	39372.49
535.88	39194.61
536.05	39700.17
536.22	39555.05
536.38	39721.23
536.55	39704.85
536.72	39812.51
536.89	39147.80
537.06	40109.76
537.23	40016.14
537.40	40058.27
537.57	40060.61
537.74	39739.96
537.91	40147.21
538.08	40147.21
538.25	39672.08
538.42	40334.45
538.59	40341.47
538.75	39526.97
538.92	40313.39
539.09	40411.69
539.26	40304.02
539.43	40287.64
539.60	40493.61
539.77	40048.91
539.94	40463.18
540.11	40229.13
540.28	40392.97
540.44	40521.69
540.61	40275.94
540.78	40360.20
540.95	41001.50
541.12	40900.86
541.29	40947.67
541.46	40348.50
541.62	40669.15
541.79	40746.39
541.96	40722.98
542.13	40652.76
542.30	41155.98
542.47	40751.07
542.63	40608.29
542.80	40945.33
542.97	41298.75
543.14	41282.37
543.31	41551.53
543.48	41165.34
543.64	42192.84
543.81	41713.03
543.98	41553.87
544.15	41600.68
544.32	41848.78
544.48	41837.08
544.65	41673.24
544.82	42010.28
544.99	41481.31
545.16	41979.85
545.32	41715.37
545.49	41928.36
545.66	42302.84
545.83	41844.10
546.00	42436.25
546.16	41818.35
546.33	41937.72
546.50	41642.81
546.67	42361.36
546.83	41977.51
547.00	42515.83
547.17	42220.92
547.34	42117.94
547.50	42344.97
547.67	42600.09
547.84	42127.30
548.00	42309.86
548.17	42824.78
548.34	42738.18
548.51	42848.19
548.67	42600.09
548.84	42590.73
549.01	42244.33
549.18	42717.12
549.34	42913.72
549.51	42822.44
549.68	42728.82
549.84	43180.54
550.01	42904.36
550.18	42983.94
550.34	43143.09
550.51	43351.40
550.68	43152.46
550.84	42466.68
551.01	43629.93
551.18	42951.17
551.34	43421.62
551.51	43065.86
551.68	43203.95
551.84	42827.12
552.01	43295.23
552.18	43454.39
552.34	42972.24
552.51	43332.68
552.68	43398.21
552.84	43243.74
553.01	43723.55
553.18	43374.81
553.34	43672.06
553.51	43145.44
553.67	43885.04
553.84	44048.88
554.01	44259.53
554.17	43601.84
554.34	43988.03
554.51	43686.10
554.67	43658.01
554.84	43709.50
555.00	43718.87
555.17	43791.42
555.33	43931.86
555.50	43709.50
555.67	43934.20
555.83	43985.69
556.00	43966.96
556.16	44289.96
556.33	44037.18
556.50	44109.74
556.66	44786.15
556.83	44053.56
556.99	44311.02
557.16	44306.34
557.32	43908.45
557.49	44385.92
557.65	43765.68
557.82	43957.60
557.98	44236.12
558.15	43765.68
558.32	44388.26
558.48	44296.98
558.65	43950.58
558.81	44435.07
558.98	44683.17
559.14	44250.17
559.31	44205.70
559.47	44566.14
559.64	44774.45
559.80	44580.18
559.97	44524.01
560.13	44091.01
560.30	44109.74
560.46	44444.43
560.63	44676.15
560.79	44477.20
560.96	44861.05
561.12	44626.99
561.29	44449.11
561.45	44744.02
561.61	44779.13
561.78	45034.25
561.94	44601.25
562.11	44617.63
562.27	44643.38
562.44	44477.20
562.60	44783.81
562.77	44900.84
562.93	44772.11
563.10	44907.86
563.26	44793.17
563.42	44818.92
563.59	45022.54
563.75	44552.10
563.92	45439.16
564.08	45010.84
564.24	44870.41
564.41	44875.09
564.57	44952.33
564.74	44619.97
564.90	45125.53
565.07	45006.16
565.23	45155.96
565.39	44851.69
565.56	44940.63
565.72	45067.02
565.88	45181.70
566.05	45174.68
566.21	44814.24
566.38	44554.44
566.54	44624.65
566.70	44952.33
566.87	45825.35
567.03	45153.62
567.19	45621.72
567.36	44964.03
567.52	44865.73
567.68	45347.88
567.85	45581.93
568.01	45443.84
568.17	44945.31
568.34	45263.62
568.50	44896.16
568.66	44947.65
568.83	45397.03
568.99	45155.96
569.15	45191.06
569.32	45413.41
569.48	45055.31
569.64	45509.38
569.81	45441.50
569.97	45078.72
570.13	45598.32
570.30	45209.79
570.46	44755.72
570.62	45055.31
570.78	45214.47
570.95	45074.04
571.11	45270.64
571.27	45038.93
571.43	44772.11
571.60	45614.70
571.76	45338.52
571.92	44905.52
572.09	45280.00
572.25	44842.32
572.41	45251.92
572.57	45425.12
572.74	45659.17
572.90	45294.05
573.06	45549.17
573.22	45474.27
573.38	45097.44
573.55	44917.22
573.71	45469.59
573.87	45507.04
574.03	45127.87
574.20	45057.65
574.36	44657.42
574.52	45640.45
574.68	45689.60
574.84	45317.45
575.01	45296.39
575.17	45195.74
575.33	45586.61
575.49	45113.83
575.65	45682.58
575.82	45230.85
575.98	45565.55
576.14	45902.59
576.30	45364.26
576.46	45455.54
576.62	45514.06
576.79	45600.66
576.95	44734.66
577.11	45343.20
577.27	45123.19
577.43	45469.59
577.59	45862.80
577.75	45357.24
577.92	45015.52
578.08	45139.57
578.24	45291.71
578.40	45130.21
578.56	45275.32
578.72	45453.20
578.88	45219.15
579.04	45528.10
579.21	45492.99
579.37	45413.41
579.53	45649.81
579.69	45422.78
579.85	45614.70
580.01	45558.53
580.17	45610.02
580.33	45432.14
580.49	45645.13
580.65	45420.44
580.82	45308.09
580.98	45312.77
581.14	44949.99
581.30	45574.91
581.46	45778.54
581.62	45741.09
581.78	45394.69
581.94	46059.40
582.10	45570.23
582.26	45769.18
582.42	45485.97
582.58	46092.17
582.74	45408.73
582.90	45883.86
583.06	45832.37
583.22	45752.79
583.38	46178.77
583.54	46047.70
583.70	45460.23
583.86	45151.27
584.02	45326.81
584.18	45357.24
584.34	45514.06
584.50	45982.16
584.66	45436.82
584.82	45694.28
584.98	46012.59
585.14	45724.71
585.30	45841.73
585.46	45308.09
585.62	45263.62
585.78	45375.97
585.94	45111.49
586.10	45219.15
586.26	45343.20
586.42	45280.00
586.58	45539.80
586.74	45617.04
586.90	45453.20
587.06	45448.52
587.22	45722.37
587.38	45322.13
587.54	45755.13
587.70	45647.47
587.86	45544.48
588.02	45717.68
588.18	45963.44
588.34	45427.46
588.49	45184.04
588.65	45476.61
588.81	45315.11
588.97	45701.30
589.13	45329.16
589.29	45385.33
589.45	45673.21
589.61	45752.79
589.77	45986.85
589.93	45729.39
590.08	45844.07
590.24	45797.26
590.40	46064.08
590.56	46279.41
590.72	45638.11
590.88	45418.10
591.04	45886.20
591.20	46143.66
591.35	45703.64
591.51	45947.06
591.67	45703.64
591.83	45680.24
591.99	45731.73
592.15	45514.06
592.31	46213.88
592.46	45703.64
592.62	45551.51
592.78	46000.89
592.94	46337.93
593.10	45649.81
593.26	45872.16
593.41	45722.37
593.57	45832.37
593.73	45759.81
593.89	45911.95
594.05	45851.09
594.20	45167.66
594.36	45902.59
594.52	45619.38
594.68	45940.04
594.84	45811.31
594.99	46424.53
595.15	45970.46
595.31	46349.63
595.47	46197.49
595.62	45677.90
595.78	45614.70
595.94	46059.40
596.10	45963.44
596.25	46178.77
596.41	45790.24
596.57	46019.61
596.73	46127.28
596.88	45626.40
597.04	45490.65
597.20	45598.32
597.36	46096.85
597.51	45996.21
597.67	46007.91
597.83	46237.28
597.99	46024.29
598.14	46014.93
598.30	45497.67
598.46	45708.32
598.61	45698.96
598.77	45766.84
598.93	45766.84
599.09	45851.09
599.24	46241.96
599.40	46256.01
599.56	45848.75
599.71	46253.67
599.87	46061.74
600.03	45659.17
600.18	46003.23
600.34	46010.25
600.50	46351.97
600.65	46024.29
600.81	46351.97
600.97	45911.95
601.12	46312.18
601.28	46169.41
601.44	45848.75
601.59	45841.73
601.75	45677.90
601.91	45923.65
602.06	45956.42
602.22	45862.80
602.37	46106.21
602.53	45619.38
602.69	46003.23
602.84	45839.39
603.00	45567.89
603.16	45460.23
603.31	45879.18
603.47	45780.88
603.62	45638.11
603.78	45617.04
603.94	46099.19
604.09	46038.34
604.25	46143.66
604.40	45778.54
604.56	46078.13
604.71	46096.85
604.87	45893.22
605.03	45717.68
605.18	45378.31
605.34	46103.87
605.49	45958.76
605.65	45862.80
605.80	45565.55
605.96	45914.29
606.12	45752.79
606.27	45942.38
606.43	45996.21
606.58	46021.95
606.74	45586.61
606.89	45680.24
607.05	46003.23
607.20	45628.74
607.36	45851.09
607.51	45441.50
607.67	45965.78
607.82	45846.41
607.98	45656.83
608.13	45921.31
608.29	45432.14
608.44	45188.72
608.60	45015.52
608.75	45659.17
608.91	45261.28
609.06	45291.71
609.22	45251.92
609.37	45542.14
609.53	45635.77
609.68	45942.38
609.84	45401.71
609.99	45282.34
610.15	45392.35
610.30	45401.71
610.46	45612.36
610.61	45261.28
610.76	45359.58
610.92	45090.42
611.07	45441.50
611.23	45162.98
611.38	45764.49
611.54	45324.47
611.69	44706.57
611.84	45064.67
612.00	45081.06
612.15	45001.48
612.31	44903.18
612.46	45090.42
612.62	45223.83
612.77	44739.34
612.92	45198.09
613.08	44596.57
613.23	45219.15
613.39	45294.05
613.54	44863.39
613.69	44694.87
613.85	44914.88
614.00	44825.94
614.15	45198.09
614.31	44804.88
614.46	45436.82
614.62	45254.26
614.77	44818.92
614.92	45006.16
615.08	44832.96
615.23	44673.81
615.38	44921.90
615.54	44715.93
615.69	44802.53
615.84	44982.76
616.00	44399.96
616.15	44762.75
616.30	44587.21
616.46	44528.69
616.61	44212.72
616.76	44582.52
616.92	44428.05
617.07	44531.03
617.22	43768.02
617.37	44332.09
617.53	44289.96
617.68	44177.61
617.83	44783.81
617.99	44591.89
618.14	44949.99
618.29	44416.35
618.45	44327.41
618.60	44383.58
618.75	44807.22
618.90	44243.15
619.06	44568.48
619.21	43863.98
619.36	44839.98
619.51	44119.10
619.67	44254.85
619.82	44240.81
619.97	43814.83
620.12	44100.37
620.28	43611.20
620.43	43833.55
620.58	44114.42
620.73	44067.61
620.89	44074.63
621.04	44004.41
621.19	44037.18
621.34	44074.63
621.49	43636.95
621.65	44086.33
621.80	43709.50
621.95	43650.99
622.10	44114.42
622.25	43798.44
622.41	43892.07
622.56	43416.94
622.71	43669.72
622.86	43732.91
623.01	43969.30
623.16	44037.18
623.32	43922.49
623.47	44018.46
623.62	43866.32
623.77	43391.19
623.92	43363.11
624.07	42740.52
624.23	43145.44
624.38	43217.99
624.53	42775.63
624.68	43065.86
624.83	43573.75
624.98	43248.42
625.13	43311.61
625.29	43299.91
625.44	43271.82
625.59	42794.36
625.74	42672.65
625.89	42426.89
626.04	42902.02
626.19	42869.25
626.34	42871.59
626.49	43161.82
626.65	42890.32
626.80	43297.57
626.95	42703.07
627.10	42981.60
627.25	42887.98
627.40	42660.94
627.55	42347.31
627.70	42124.96
627.85	42059.43
628.00	42279.44
628.15	43028.41
628.30	42775.63
628.45	42665.63
628.60	42616.47
628.76	42906.70
628.91	42937.13
629.06	42693.71
629.21	42705.41
629.36	42237.31
629.51	42625.84
629.66	42401.14
629.81	42590.73
629.96	41879.21
630.11	42181.13
630.26	42527.53
630.41	42604.77
630.56	42181.13
630.71	42457.32
630.86	42258.37
631.01	42263.05
631.16	42469.02
631.31	42153.05
631.46	41918.99
631.61	42314.55
631.76	41773.88
631.91	41759.84
632.06	41780.90
632.21	41975.17
632.36	42136.66
632.51	41961.12
632.66	42452.64
632.81	41511.74
632.96	41858.14
633.10	41504.72
633.25	41345.56
633.40	41514.08
633.55	41675.58
633.70	41794.95
633.85	41600.68
634.00	41649.83
634.15	42054.75
634.30	41425.14
634.45	42029.00
634.60	41198.11
634.75	41209.81
634.90	41411.10
635.05	41855.80
635.19	41633.45
635.34	41895.59
635.49	41340.88
635.64	41544.51
635.79	41170.02
635.94	41237.90
636.09	41265.99
636.24	41097.47
636.39	41195.77
636.53	41036.61
636.68	40746.39
636.83	40788.52
636.98	41392.37
637.13	40910.22
637.28	41113.85
637.43	41205.13
637.57	41148.96
637.72	41251.94
637.87	40926.61
638.02	40961.72
638.17	40999.16
638.32	40414.03
638.46	40247.85
638.61	40624.68
638.76	40495.95
638.91	40722.98
639.06	40769.79
639.20	40800.22
639.35	41050.66
639.50	40596.59
639.65	40835.33
639.80	41165.34
639.94	40734.68
640.09	40465.52
640.24	40451.48
640.39	40261.90
640.54	40989.80
640.68	40348.50
640.83	40725.32
640.98	40189.34
641.13	40020.82
641.27	40582.55
641.42	39910.82
641.57	40708.94
641.72	40645.74
641.86	40044.23
642.01	39669.74
642.16	39866.34
642.31	39800.81
642.45	40360.20
642.60	39407.60
642.75	40032.52
642.90	40289.98
643.04	39545.69
643.19	40062.95
643.34	39817.19
643.48	40107.42
643.63	40011.46
643.78	39215.68
643.93	39536.33
644.07	39367.81
644.22	39828.90
644.37	39431.01
644.51	39746.98
644.66	39613.57
644.81	39913.16
644.95	39643.99
645.10	39749.32
645.25	39311.64
645.39	39580.80
645.54	40093.38
645.69	39548.03
645.83	39374.83
645.98	39323.34
646.13	39938.90
646.27	39552.71
646.42	39468.45
646.57	39431.01
646.71	39615.91
646.86	39412.28
647.00	39232.06
647.15	39484.84
647.30	39566.76
647.44	39515.26
647.59	39445.05
647.74	38995.67
647.88	39206.31
648.03	39306.96
648.17	39271.85
648.32	39040.14
648.47	39044.82
648.61	38995.67
648.76	39002.69
648.90	39342.06
649.05	39014.39
649.20	39257.81
649.34	39044.82
649.49	38897.36
649.63	39564.42
649.78	38740.55
649.92	38836.51
650.07	39288.23
650.21	38806.08
650.36	39140.78
650.51	38756.93
650.65	39215.68
650.80	39014.39
650.94	39306.96
651.09	38925.45
651.23	38698.42
651.38	38684.37
651.52	38384.79
651.67	38611.82
651.81	38574.37
651.96	38377.76
652.10	38354.36
652.25	38199.88
652.39	38106.26
652.54	38384.79
652.68	38913.75
652.83	38902.04
652.97	38490.11
653.12	38462.02
653.26	38433.94
653.41	38260.74
653.55	38625.86
653.70	37855.82
653.84	38279.46
653.99	38164.78
654.13	38686.71
654.27	38370.74
654.42	38319.25
654.56	38082.86
654.71	38569.69
654.85	38031.36
655.00	38312.23
655.14	37399.42
655.29	37322.18
655.43	37502.40
655.57	37638.15
655.72	37762.20
655.86	37558.58
656.01	37434.53
656.15	37165.37
656.30	37289.42
656.44	37418.14
656.58	37249.63
656.73	37296.44
656.87	37364.31
657.01	37457.93
657.16	37607.73
657.30	37078.77
657.45	37631.13
657.59	37329.20
657.73	37034.30
657.88	37177.07
658.02	37441.55
658.16	37832.42
658.31	37493.04
658.45	37570.28
658.60	37198.13
658.74	37104.51
658.88	37418.14
659.03	36975.78
659.17	36870.46
659.31	37174.73
659.46	36809.61
659.60	36985.15
659.74	36685.56
659.89	36737.05
660.03	36744.07
660.17	36584.91
660.32	36535.76
660.46	36907.91
660.60	36783.86
660.74	36669.17
660.89	36928.97
661.03	36322.77
661.17	36678.54
661.32	35882.75
661.46	36477.25
661.60	36130.85
661.74	36257.24
661.89	36165.96
662.03	35782.11
662.17	36091.06
662.31	35814.88
662.46	36282.98
662.60	36168.30
662.74	35983.40
662.88	35604.23
663.03	35735.30
663.17	35885.09
663.31	35559.76
663.45	35629.98
663.60	35723.60
663.74	35473.16
663.88	35281.24
664.02	35615.93
664.17	35864.03
664.31	35220.38
664.45	34955.90
664.59	35328.05
664.73	35213.36
664.88	35211.02
665.02	35470.82
665.16	35407.62
665.30	34988.67
665.44	34953.56
665.59	34691.42
665.73	34651.63
665.87	34663.33
666.01	34855.26
666.15	35108.04
666.29	34675.04
666.44	34691.42
666.58	34979.31
666.72	34522.90
666.86	34377.79
667.00	34724.19
667.14	34223.31
667.28	34574.39
667.43	34129.69
667.57	34513.54
667.71	34235.02
667.85	33937.77
667.99	34099.26
668.13	33963.51
668.27	33905.00
668.41	33766.91
668.56	33455.62
668.70	33881.60
668.84	33731.80
668.98	33502.43
669.12	33766.91
669.26	33935.43
669.40	33783.29
669.54	33254.33
669.68	33502.43
669.82	33464.98
669.96	33156.03
670.10	32985.17
670.25	33558.60
670.39	33706.05
670.53	33397.10
670.67	33406.47
670.81	33177.09
670.95	32863.46
671.09	32985.17
671.23	32816.65
671.37	33010.92
671.51	32818.99
671.65	32547.49
671.79	32474.93
671.93	32156.62
672.07	32662.18
672.21	32524.08
672.35	32486.64
672.49	32601.32
672.63	32498.34
672.77	31901.50
672.91	32283.01
673.05	31777.45
673.19	31817.24
673.33	31995.12
673.47	31597.23
673.61	31344.45
673.75	31391.26
673.89	31606.59
674.03	31105.72
674.17	31171.25
674.31	31435.74
674.45	31803.20
674.59	31388.92
674.73	31754.05
674.87	31197.00
675.01	31489.57
675.15	31704.90
675.29	31545.74
675.43	31288.28
675.56	31194.66
675.70	31021.46
675.84	30719.53
675.98	29752.89
676.12	30429.30
676.26	30632.93
676.40	30476.12
676.54	30211.64
676.68	29975.24
676.82	29472.03
676.96	30148.44
677.10	29890.98
677.23	29652.25
677.37	29591.39
677.51	29584.37
677.65	29420.53
677.79	29195.84
677.93	29600.76
678.07	29392.45
678.21	28790.93
678.34	29165.42
678.48	28924.34
678.62	28968.81
678.76	28772.21
678.90	28589.64
679.04	28879.87
679.18	28718.37
679.31	28470.28
679.45	28573.26
679.59	28095.79
679.73	27868.76
679.87	28184.73
680.00	27775.14
680.14	27868.76
680.28	27735.35
680.42	27627.68
680.56	27775.14
680.70	27428.74
680.83	27583.21
680.97	27140.85
681.11	27175.96
681.25	27225.11
681.39	27449.80
681.52	27461.51
681.66	27578.53
681.80	27377.25
681.94	27061.27
682.07	26892.76
682.21	26590.83
682.35	26721.90
682.49	26422.31
682.62	26593.17
682.76	26712.53
682.90	26099.31
683.04	26424.65
683.17	26059.52
683.31	26349.75
683.45	26061.87
683.59	26209.32
683.72	25656.95
683.86	25441.62
684.00	25448.64
684.13	25776.32
684.27	25797.38
684.41	25450.99
684.55	25652.27
684.68	25369.07
684.82	25242.68
684.96	25333.96
685.09	24826.06
685.23	25179.48
685.37	24650.52
685.50	24709.04
685.64	24662.22
685.78	24748.82
685.91	24561.58
686.05	24533.50
686.19	24159.01
686.32	24339.23
686.46	23833.68
686.60	23704.95
686.73	23807.93
686.87	23543.45
687.01	23534.09
687.14	23314.08
687.28	23180.67
687.42	23393.65
687.55	23082.36
687.69	23264.92
687.82	23325.78
687.96	23236.84
688.10	23094.07
688.23	22721.92
688.37	22546.38
688.50	22544.04
688.64	22424.67
688.78	22654.05
688.91	22569.79
689.05	22813.20
689.18	22499.57
689.32	21930.82
689.46	22581.49
689.59	22251.47
689.73	22237.43
689.86	21998.70
690.00	21975.29
690.13	22085.30
690.27	21926.14
690.41	21914.44
690.54	21158.44
690.68	21621.87
690.81	20973.54
690.95	20980.56
691.08	20891.62
691.22	21282.49
691.35	21198.23
691.49	21401.86
691.62	21380.79
691.76	21191.21
691.89	20849.49
692.03	20781.62
692.16	20692.68
692.30	20769.91
692.43	20442.24
692.57	20390.75
692.70	20203.50
692.84	20535.86
692.97	20128.61
693.11	20046.69
693.24	20212.87
693.38	19908.60
693.51	19864.13
693.65	19997.54
693.78	19913.28
693.92	19711.99
694.05	19604.33
694.19	19454.53
694.32	19520.07
694.45	19501.34
694.59	19157.28
694.72	19140.90
694.86	18911.53
694.99	18834.29
695.13	18944.30
695.26	18637.69
695.39	18642.37
695.53	18597.90
695.66	18401.29
695.80	18553.43
695.93	18003.40
696.07	18237.45
696.20	18214.05
696.33	18237.45
696.47	18017.44
696.60	18209.37
696.73	18080.64
696.87	17727.22
697.00	17944.89
697.14	17792.75
697.27	17547.00
697.40	17907.44
697.54	17558.70
697.67	17530.61
697.80	17853.61
697.94	17657.00
698.07	17200.60
698.21	17266.13
698.34	17224.00
698.47	17247.41
698.61	16788.66
698.74	16713.77
698.87	16697.38
699.01	16854.20
699.14	16580.36
699.27	16376.73
699.40	16498.44
699.54	16383.75
699.67	16170.76
699.80	16365.03
699.94	16116.93
700.07	16271.40
700.20	16271.40
700.34	16044.37
700.47	15988.20
700.60	15941.39
700.73	16224.59
700.87	15803.30
701.00	15772.87
701.13	15730.74
701.26	15506.05
701.40	15379.66
701.53	15623.08
701.66	15356.25
701.79	15379.66
701.93	15087.09
702.06	15049.64
702.19	15185.40
702.32	15154.97
702.46	14834.32
702.59	14750.06
702.72	14839.00
702.85	14806.23
702.99	14951.34
703.12	14998.15
703.25	14841.34
703.38	14647.07
703.51	14710.27
703.65	14459.83
703.78	14537.07
703.91	14345.14
704.04	14406.00
704.17	14300.67
704.31	14066.62
704.44	13898.10
704.57	13970.66
704.70	13710.86
704.83	13858.31
704.96	13724.90
705.10	13987.04
705.23	13760.01
>>>>>End Processed Spectral Data<<<<<
