SpectraSuite Data File
++++++++++++++++++++++++++++++++++++
Date: Fri Oct 25 10:43:26 EDT 2013
User: price-jones
Dark Spectrum Present: No
Reference Spectrum Present: No
Number of Sampled Component Spectra: 1
Spectrometers: USB2+H05261
Integration Time (usec): 100000 (USB2+H05261)
Spectra Averaged: 1 (USB2+H05261)
Boxcar Smoothing: 0 (USB2+H05261)
Correct for Electrical Dark: No (USB2+H05261)
Strobe/Lamp Enabled: No (USB2+H05261)
Correct for Detector Non-linearity: No (USB2+H05261)
Correct for Stray Light: No (USB2+H05261)
Number of Pixels in Processed Spectrum: 2048
>>>>>Begin Processed Spectral Data<<<<<
365.73	138.09
365.92	138.09
366.12	138.09
366.32	117.03
366.52	0.00
366.72	32.77
366.91	67.88
367.11	0.00
367.31	0.00
367.51	79.58
367.70	30.43
367.90	58.51
368.10	100.64
368.30	60.85
368.49	77.24
368.69	21.06
368.89	28.09
369.09	30.43
369.28	0.00
369.48	23.41
369.68	93.62
369.87	128.73
370.07	39.79
370.27	98.30
370.47	149.79
370.66	358.10
370.86	428.32
371.06	535.98
371.25	489.17
371.45	409.59
371.65	526.62
371.84	416.62
372.04	381.51
372.24	540.66
372.44	517.26
372.63	496.19
372.83	599.18
373.03	416.62
373.22	489.17
373.42	510.24
373.62	531.30
373.81	521.94
374.01	503.22
374.21	477.47
374.40	571.09
374.60	538.32
374.79	561.73
374.99	507.90
375.19	557.05
375.38	566.41
375.58	573.43
375.78	589.82
375.97	573.43
376.17	601.52
376.37	624.92
376.56	589.82
376.76	655.35
376.95	599.18
377.15	585.13
377.35	706.84
377.54	575.77
377.74	585.13
377.93	587.47
378.13	697.48
378.33	592.16
378.52	650.67
378.72	699.82
378.91	636.63
379.11	690.46
379.31	634.29
379.50	592.16
379.70	620.24
379.89	727.91
380.09	657.69
380.28	655.35
380.48	704.50
380.68	660.03
380.87	664.71
381.07	699.82
381.26	723.23
381.46	695.14
381.65	690.46
381.85	718.54
382.04	653.01
382.24	727.91
382.43	753.65
382.63	678.76
382.83	723.23
383.02	720.88
383.22	746.63
383.41	631.94
383.61	760.67
383.80	774.72
384.00	772.38
384.19	748.97
384.39	748.97
384.58	791.10
384.78	746.63
384.97	746.63
385.17	704.50
385.36	730.25
385.56	744.29
385.75	746.63
385.95	877.70
386.14	858.98
386.34	819.19
386.53	826.21
386.72	760.67
386.92	896.43
387.11	891.74
387.31	772.38
387.50	772.38
387.70	814.51
387.89	917.49
388.09	828.55
388.28	861.32
388.48	875.36
388.67	903.45
388.86	924.51
389.06	947.92
389.25	973.66
389.45	915.15
389.64	966.64
389.84	973.66
390.03	950.26
390.22	1064.94
390.42	964.30
390.61	952.60
390.81	919.83
391.00	1036.86
391.19	1071.97
391.39	971.32
391.58	936.21
391.78	973.66
391.97	1081.33
392.16	1013.45
392.36	1011.11
392.55	1006.43
392.75	976.00
392.94	912.81
393.13	1048.56
393.33	980.68
393.52	1013.45
393.71	1069.62
393.91	1078.99
394.10	980.68
394.29	1064.94
394.49	1090.69
394.68	1231.12
394.88	1212.40
395.07	1221.76
395.26	1198.35
395.46	1214.74
395.65	1174.95
395.84	1219.42
396.04	1252.19
396.23	1132.82
396.42	1172.61
396.62	1294.32
396.81	1219.42
397.00	1203.04
397.19	1273.25
397.39	1282.61
397.58	1357.51
397.77	1348.15
397.97	1383.26
398.16	1399.64
398.35	1387.94
398.55	1357.51
398.74	1469.86
398.93	1577.52
399.12	1411.34
399.32	1444.11
399.51	1558.80
399.70	1455.81
399.90	1596.25
400.09	1533.05
400.28	1607.95
400.47	1586.88
400.67	1579.86
400.86	1629.01
401.05	1624.33
401.24	1678.16
401.44	1659.44
401.63	1673.48
401.82	1629.01
402.01	1666.46
402.21	1664.12
402.40	1682.85
402.59	1739.02
402.78	1743.70
402.97	1734.34
403.17	1837.32
403.36	1734.34
403.55	1708.59
403.74	1708.59
403.93	1760.08
404.13	1760.08
404.32	1804.55
404.51	1804.55
404.70	1858.39
404.89	1783.49
405.09	1923.92
405.28	1937.96
405.47	1909.88
405.66	1926.26
405.85	1905.20
406.05	1959.03
406.24	2015.20
406.43	1846.68
406.62	1921.58
406.81	2033.93
407.00	2054.99
407.20	1989.46
407.39	2108.82
407.58	2010.52
407.77	2150.95
407.96	2132.23
408.15	2043.29
408.34	2104.14
408.54	2172.02
408.73	2209.47
408.92	2230.53
409.11	2221.17
409.30	2237.55
409.49	2310.11
409.68	2300.75
409.87	2230.53
410.07	2284.36
410.26	2305.43
410.45	2305.43
410.64	2326.49
410.83	2471.61
411.02	2502.03
411.21	2385.01
411.40	2499.69
411.59	2509.05
411.78	2654.17
411.98	2478.63
412.17	2569.91
412.36	2616.72
412.55	2764.17
412.74	2663.53
412.93	2626.08
413.12	2705.66
413.31	2813.32
413.50	2761.83
413.69	2649.49
413.88	2761.83
414.07	2850.77
414.26	2895.24
414.45	2977.16
414.64	2916.31
414.83	2993.55
415.02	3066.10
415.22	3038.02
415.41	3021.63
415.60	3028.65
415.79	3136.32
415.98	3152.70
416.17	3199.51
416.36	3187.81
416.55	3229.94
416.74	3164.40
416.93	3143.34
417.12	3220.58
417.31	3199.51
417.50	3332.92
417.69	3428.88
417.88	3372.71
418.07	3330.58
418.26	3194.83
418.45	3290.79
418.64	3545.91
418.83	3492.08
419.02	3517.83
419.21	3513.14
419.39	3541.23
419.58	3414.84
419.77	3496.76
419.96	3595.06
420.15	3494.42
420.34	3487.40
420.53	3606.77
420.72	3763.58
420.91	3770.60
421.10	3688.68
421.29	3798.69
421.48	3707.41
421.67	3889.97
421.86	3611.45
422.05	3838.48
422.24	3810.39
422.43	3784.65
422.61	3829.12
422.80	3854.86
422.99	3859.54
423.18	3798.69
423.37	4051.47
423.56	3880.61
423.75	3772.94
423.94	3822.09
424.13	3679.32
424.32	3822.09
424.50	3868.91
424.69	4049.13
424.88	3950.82
425.07	3758.90
425.26	3854.86
425.45	3857.20
425.64	3763.58
425.83	3791.67
426.01	3826.78
426.20	3861.88
426.39	3908.69
426.58	3815.07
426.77	3899.33
426.96	3941.46
427.15	3878.27
427.33	3950.82
427.52	3976.57
427.71	4124.02
427.90	4049.13
428.09	4088.92
428.28	4145.09
428.46	4161.47
428.65	3929.76
428.84	4208.28
429.03	4184.88
429.22	4018.70
429.40	4154.45
429.59	4077.21
429.78	3892.31
429.97	3868.91
430.16	3927.42
430.34	4086.58
430.53	4070.19
430.72	4236.37
430.91	4063.17
431.10	4128.70
431.28	4444.68
431.47	4608.51
431.66	4514.89
431.85	4423.61
432.03	4447.02
432.22	4578.09
432.41	4575.75
432.60	4608.51
432.79	4449.36
432.97	4603.83
433.16	4765.33
433.35	4493.83
433.54	4514.89
433.72	4547.66
433.91	4706.82
434.10	4720.86
434.28	4610.86
434.47	4671.71
434.66	4786.40
434.85	4765.33
435.03	4826.18
435.22	4861.29
435.41	5078.96
435.59	4861.29
435.78	4973.64
435.97	5041.51
436.16	5018.11
436.34	4975.98
436.53	5146.84
436.72	5153.86
436.90	4861.29
437.09	4992.36
437.28	4926.83
437.46	5043.85
437.65	5088.32
437.84	5050.88
438.02	5210.03
438.21	4975.98
438.40	4908.10
438.58	5205.35
438.77	5116.41
438.96	5352.81
439.14	5542.39
439.33	5504.94
439.52	5603.24
439.70	5507.28
439.89	5603.24
440.08	5626.65
440.26	5504.94
440.45	5530.69
440.63	5673.46
440.82	5893.47
441.01	5767.08
441.19	5767.08
441.38	5820.91
441.57	5884.11
441.75	5996.45
441.94	5898.15
442.12	6162.63
442.31	6363.92
442.50	6078.37
442.68	6188.38
442.87	6052.63
443.05	6211.78
443.24	6382.64
443.43	6399.02
443.61	6340.51
443.80	6415.41
443.98	6153.27
444.17	6033.90
444.35	6438.81
444.54	6382.64
444.73	6382.64
444.91	6422.43
445.10	6230.51
445.28	6319.45
445.47	6370.94
445.65	6155.61
445.84	6143.91
446.02	6619.04
446.21	6506.69
446.39	6352.21
446.58	6370.94
446.77	6413.07
446.95	6551.16
447.14	6494.99
447.32	6623.72
447.51	6448.18
447.69	6548.82
447.88	6684.57
448.06	6614.35
448.25	6630.74
448.43	6546.48
448.62	6579.25
448.80	6658.82
448.99	6502.01
449.17	6616.69
449.36	6464.56
449.54	6827.34
449.73	6853.09
449.91	6977.14
450.10	7089.48
450.28	7054.37
450.46	7112.89
450.65	7075.44
450.83	7082.46
451.02	6916.28
451.20	7131.61
451.39	6965.43
451.57	6981.82
451.76	7014.59
451.94	7049.69
452.13	7122.25
452.31	6956.07
452.49	6949.05
452.68	7117.57
452.86	7049.69
453.05	7274.38
453.23	7269.70
453.42	7108.21
453.60	7173.74
453.78	7302.47
453.97	7220.55
454.15	7159.70
454.34	7241.62
454.52	7321.20
454.70	7503.76
454.89	7187.79
455.07	7213.53
455.26	7466.31
455.44	7428.86
455.62	7428.86
455.81	7468.65
455.99	7517.80
456.17	7545.89
456.36	7808.03
456.54	7707.38
456.73	7840.79
456.91	8067.83
457.09	7819.73
457.28	7960.16
457.46	7803.35
457.64	8058.46
457.83	7936.76
458.01	7712.07
458.19	7772.92
458.38	7812.71
458.56	8046.76
458.74	8219.96
458.93	7873.56
459.11	8131.02
459.29	8060.80
459.48	8208.26
459.66	8156.77
459.84	8308.90
460.03	8063.15
460.21	8252.73
460.39	8243.37
460.57	8311.24
460.76	8362.73
460.94	8500.83
461.12	8475.08
461.31	8362.73
461.49	8505.51
461.67	8564.02
461.85	8589.77
462.04	8580.40
462.22	9125.75
462.40	8772.33
462.59	8737.22
462.77	8854.25
462.95	9121.07
463.13	8662.32
463.32	8777.01
463.50	8690.41
463.68	8847.22
463.86	8894.04
464.05	8606.15
464.23	8826.16
464.41	8566.36
464.59	8681.05
464.78	9053.19
464.96	8830.84
465.14	8746.58
465.32	9006.38
465.50	9083.62
465.69	9158.52
465.87	8950.21
466.05	9069.58
466.23	9011.06
466.41	9001.70
466.60	9100.00
466.78	9022.77
466.96	9078.94
467.14	9015.74
467.32	9128.09
467.51	9320.01
467.69	9050.85
467.87	9394.91
468.05	9263.84
468.23	9240.44
468.41	9312.99
468.60	9301.29
468.78	9617.26
468.96	9277.88
469.14	9406.61
469.32	9462.79
469.50	9217.03
469.69	9404.27
469.87	9493.21
470.05	9612.58
470.23	9631.30
470.41	9668.75
470.59	9703.86
470.77	9675.77
470.95	9839.61
471.14	9844.29
471.32	9757.69
471.50	10031.54
471.68	10181.33
471.86	9956.64
472.04	10057.28
472.22	10396.66
472.40	9928.55
472.58	10153.24
472.77	10237.50
472.95	10321.76
473.13	10326.44
473.31	10218.78
473.49	10204.74
473.67	10375.59
473.85	10469.22
474.03	10548.79
474.21	10703.27
474.39	10724.33
474.57	10705.61
474.75	10726.68
474.93	11075.42
475.12	10801.57
475.30	10902.22
475.48	11089.46
475.66	10942.00
475.84	11145.63
476.02	11206.48
476.20	11056.69
476.38	11314.15
476.56	11571.61
476.74	11585.65
476.92	11477.99
477.10	11480.33
477.28	11943.75
477.46	11740.13
477.64	12039.72
477.82	12100.57
478.00	12320.58
478.18	12175.47
478.36	12308.88
478.54	12320.58
478.72	12503.14
478.90	12299.52
479.08	12776.98
479.26	12854.22
479.44	12727.83
479.62	12875.29
479.80	12837.84
479.98	12966.57
480.16	13465.10
480.34	13102.32
480.52	13366.80
480.70	13497.87
480.88	13411.27
481.06	13467.44
481.24	13549.36
481.41	13813.84
481.59	14176.62
481.77	14249.18
481.95	14207.05
482.13	14352.16
482.31	14083.00
482.49	14691.54
482.67	14478.55
482.85	14726.65
483.03	14766.44
483.21	14913.89
483.39	15164.33
483.57	14988.79
483.74	15082.41
483.92	15264.97
484.10	14932.62
484.28	15435.83
484.46	15812.66
484.64	16098.20
484.82	15721.38
485.00	15702.65
485.18	15831.38
485.35	16058.42
485.53	15712.02
485.71	15803.30
485.89	16266.72
486.07	16023.31
486.25	16470.35
486.43	16671.64
486.61	16629.51
486.78	17193.58
486.96	16748.87
487.14	17525.93
487.32	17411.25
487.50	17745.94
487.68	17612.53
487.85	17748.28
488.03	18024.47
488.21	18176.60
488.39	18415.34
488.57	18312.35
488.75	18466.83
488.92	18525.34
489.10	18998.13
489.28	19082.39
489.46	19501.34
489.64	19234.52
489.81	19644.12
489.99	19569.22
490.17	19634.75
490.35	19868.81
490.53	19903.92
490.70	20027.96
490.88	20095.84
491.06	20362.66
491.24	20346.28
491.41	20201.16
491.59	20313.51
491.77	20524.16
491.95	20290.10
492.13	20732.47
492.30	21296.53
492.48	21249.72
492.66	21418.24
492.84	21345.69
493.01	21935.50
493.19	21558.67
493.37	21502.50
493.54	21930.82
493.72	21827.84
493.90	22005.72
494.08	22436.38
494.25	22752.35
494.43	22581.49
494.61	22731.28
494.79	23005.13
494.96	23150.24
495.14	22855.33
495.32	23185.35
495.49	23253.22
495.67	23648.77
495.85	23777.50
496.02	23501.32
496.20	23414.72
496.38	23601.96
496.55	23981.13
496.73	24531.15
496.91	24360.30
497.09	24285.40
497.26	24959.47
497.44	24500.73
497.62	25048.41
497.79	24917.34
497.97	24833.08
498.14	24971.18
498.32	24900.96
498.50	25387.79
498.67	25671.00
498.85	25717.81
499.03	25490.77
499.20	25542.27
499.38	25795.04
499.56	25687.38
499.73	25680.36
499.91	25851.22
500.08	26403.58
500.26	25638.23
500.44	26132.08
500.61	25914.41
500.79	26228.04
500.97	26625.93
501.14	26986.38
501.32	26529.97
501.49	26441.03
501.67	26768.71
501.84	26768.71
502.02	26810.84
502.20	27522.36
502.37	27152.55
502.55	26951.27
502.72	27634.71
502.90	27283.62
503.07	27241.50
503.25	27557.47
503.43	28056.00
503.60	27529.38
503.78	27531.72
503.95	27330.44
504.13	28320.48
504.30	28060.68
504.48	27662.79
504.65	28137.92
504.83	28313.46
505.01	28280.69
505.18	28697.31
505.36	28886.89
505.53	28753.48
505.71	29003.92
505.88	29284.78
506.06	29062.43
506.23	29252.02
506.41	28879.87
506.58	29223.93
506.76	28968.81
506.93	29378.40
507.11	29422.87
507.28	29369.04
507.46	29446.28
507.63	29331.59
507.81	29408.83
507.98	29486.07
508.16	29795.02
508.33	29977.58
508.50	29921.41
508.68	30450.37
508.85	30426.96
509.03	30342.70
509.20	30565.06
509.38	31091.68
509.55	30419.94
509.73	30539.31
509.90	31014.44
510.08	30885.71
510.25	30764.00
510.42	30927.84
510.60	30813.15
510.77	31421.69
510.95	31477.86
511.12	31314.03
511.30	31618.30
511.47	31630.00
511.64	31510.63
511.82	31627.66
511.99	31662.77
512.17	31861.71
512.34	31562.12
512.51	31751.71
512.69	31772.77
512.86	31709.58
513.04	32378.97
513.21	32254.92
513.38	32760.48
513.56	32130.87
513.73	32165.98
513.90	32570.90
514.08	32411.74
514.25	32561.53
514.43	32833.04
514.60	33102.20
514.77	32584.94
514.95	33060.07
515.12	33172.41
515.29	33221.56
515.47	33266.03
515.64	33556.26
515.81	33472.00
515.99	33170.07
516.16	33291.78
516.33	33202.84
516.51	33319.87
516.68	32589.62
516.85	32652.81
517.03	32973.47
517.20	33139.65
517.37	33551.58
517.54	33928.41
517.72	33532.86
517.89	32989.85
518.06	33502.43
518.24	33436.89
518.41	33317.53
518.58	33649.88
518.75	33921.38
518.93	33785.63
519.10	34295.87
519.27	34288.85
519.45	34211.61
519.62	34433.96
519.79	34646.95
519.96	34955.90
520.14	35264.85
520.31	34852.92
520.48	35173.57
520.65	34836.53
520.83	35424.01
521.00	35524.65
521.17	35718.92
521.34	35620.61
521.52	35379.54
521.69	35580.82
521.86	35878.07
522.03	35735.30
522.20	35821.90
522.38	35543.38
522.55	35913.18
522.72	35672.10
522.89	35852.33
523.07	36243.20
523.24	36147.23
523.41	36367.24
523.58	36313.41
523.75	36687.90
523.92	36430.44
524.10	36659.81
524.27	36524.06
524.44	36306.39
524.61	36671.51
524.78	36526.40
524.96	36645.77
525.13	36708.96
525.30	37553.90
525.47	37366.65
525.64	37055.36
525.81	36854.08
525.98	36835.35
526.16	36715.98
526.33	36795.56
526.50	36725.35
526.67	36510.02
526.84	36903.23
527.01	36921.95
527.18	37198.13
527.36	37413.46
527.53	37567.94
527.70	37773.91
527.87	37696.67
528.04	37713.05
528.21	37633.47
528.38	37516.45
528.55	38188.18
528.72	38132.01
528.89	38408.19
529.07	37764.54
529.24	38148.39
529.41	38223.29
529.58	38391.81
529.75	38148.39
529.92	38300.53
530.09	38511.17
530.26	38286.48
530.43	38831.83
530.60	38576.71
530.77	38541.60
530.94	38630.54
531.11	38401.17
531.28	38539.26
531.46	38656.29
531.63	38871.62
531.80	38452.66
531.97	38632.88
532.14	38286.48
532.31	38600.12
532.48	38506.49
532.65	39084.61
532.82	38880.98
532.99	39496.54
533.16	39164.18
533.33	39112.69
533.50	39592.50
533.67	39407.60
533.84	39295.25
534.01	39353.77
534.18	39285.89
534.35	39889.75
534.52	39299.94
534.69	39859.32
534.86	39758.68
535.03	39379.51
535.20	40224.45
535.37	40659.79
535.54	40414.03
535.71	40147.21
535.88	39969.33
536.05	40074.65
536.22	40011.46
536.38	40121.46
536.55	40039.54
536.72	39833.58
536.89	39948.26
537.06	40217.43
537.23	40758.09
537.40	39651.02
537.57	40048.91
537.74	40231.47
537.91	40594.25
538.08	40444.46
538.25	40278.28
538.42	40414.03
538.59	40832.99
538.75	40407.01
538.92	40535.74
539.09	40549.78
539.26	40509.99
539.43	40608.29
539.60	40952.35
539.77	40629.36
539.94	40584.89
540.11	40451.48
540.28	41074.06
540.44	40641.06
540.61	41048.32
540.78	40893.84
540.95	41144.28
541.12	40935.97
541.29	40882.14
541.46	41083.42
541.62	41317.48
541.79	40921.93
541.96	40832.99
542.13	41233.22
542.30	41242.58
542.47	41567.91
542.63	41179.39
542.80	41329.18
542.97	41401.74
543.14	41839.42
543.31	41895.59
543.48	42052.41
543.64	41717.71
543.81	42295.82
543.98	41921.34
544.15	42115.60
544.32	42391.78
544.48	42368.38
544.65	41998.57
544.82	42068.79
544.99	42291.14
545.16	42279.44
545.32	42117.94
545.49	42679.67
545.66	42623.50
545.83	42368.38
546.00	42504.13
546.16	42747.54
546.33	42319.23
546.50	41951.76
546.67	42923.08
546.83	41738.77
547.00	42953.51
547.17	42450.30
547.34	42408.17
547.50	42880.95
547.67	42827.12
547.84	42770.95
548.00	42803.72
548.17	43150.12
548.34	43065.86
548.51	43248.42
548.67	43026.07
548.84	43000.32
549.01	42752.23
549.18	43002.66
549.34	43171.18
549.51	42883.30
549.68	43227.35
549.84	43367.79
550.01	43342.04
550.18	43182.88
550.34	43328.00
550.51	43213.31
550.68	43393.53
550.84	42745.20
551.01	43140.75
551.18	43316.29
551.34	43454.39
551.51	43653.33
551.68	43571.41
551.84	43814.83
552.01	43206.29
552.18	43847.60
552.34	43339.70
552.51	43615.88
552.68	43655.67
552.84	43805.47
553.01	43913.13
553.18	43524.60
553.34	43695.46
553.51	43686.10
553.67	43978.67
553.84	44105.06
554.01	44231.44
554.17	44306.34
554.34	43950.58
554.51	43817.17
554.67	43744.61
554.84	43697.80
555.00	43768.02
555.17	43550.35
555.33	43983.35
555.50	44446.77
555.67	43608.86
555.83	44055.90
556.00	44210.38
556.16	44329.75
556.33	44219.74
556.50	44418.69
556.66	44505.29
556.83	43896.75
556.99	43976.33
557.16	44161.23
557.32	44016.11
557.49	44463.16
557.65	44392.94
557.82	44294.64
557.98	44521.67
558.15	44210.38
558.32	44516.99
558.48	44329.75
558.65	44259.53
558.81	44648.06
558.98	44374.22
559.14	44575.50
559.31	44350.81
559.47	44442.09
559.64	44809.56
559.80	44861.05
559.97	44687.85
560.13	44409.32
560.30	44765.09
560.46	44765.09
560.63	44931.26
560.79	44842.32
560.96	44912.54
561.12	44821.26
561.29	44760.40
561.45	45123.19
561.61	44676.15
561.78	44655.08
561.94	44467.84
562.11	44795.51
562.27	44816.58
562.44	44910.20
562.60	44980.42
562.77	45034.25
562.93	44662.10
563.10	44711.25
563.26	44858.71
563.42	44999.14
563.59	44657.42
563.75	45027.23
563.92	45067.02
564.08	44926.58
564.24	45088.08
564.41	45097.44
564.57	44872.75
564.74	45441.50
564.90	44739.34
565.07	45029.57
565.23	45188.72
565.39	44676.15
565.56	45109.14
565.72	44966.37
565.88	44804.88
566.05	44837.64
566.21	45404.05
566.38	45036.59
566.54	45006.16
566.70	45294.05
566.87	45467.25
567.03	45221.49
567.19	45553.85
567.36	45258.94
567.52	45209.79
567.68	45617.04
567.85	44971.05
568.01	45202.77
568.17	45022.54
568.34	44980.42
568.50	45315.11
568.66	45139.57
568.83	44732.32
568.99	44971.05
569.15	45291.71
569.32	45390.01
569.48	45193.40
569.64	45172.34
569.81	45453.20
569.97	45312.77
570.13	45193.40
570.30	44905.52
570.46	45310.43
570.62	45097.44
570.78	44851.69
570.95	44755.72
571.11	45263.62
571.27	45144.25
571.43	45064.67
571.60	44931.26
571.76	44903.18
571.92	45390.01
572.09	45476.61
572.25	45495.33
572.41	45441.50
572.57	45696.62
572.74	45839.39
572.90	45118.51
573.06	45865.14
573.22	45624.06
573.38	45610.02
573.55	45085.74
573.71	45205.11
573.87	45439.16
574.03	45347.88
574.20	45387.67
574.36	45270.64
574.52	45514.06
574.68	45390.01
574.84	45705.98
575.01	45268.30
575.17	45207.45
575.33	45500.01
575.49	45502.35
575.65	45333.84
575.82	45127.87
575.98	45375.97
576.14	45563.21
576.30	45638.11
576.46	45776.20
576.62	45303.41
576.79	45546.82
576.95	45500.01
577.11	45659.17
577.27	45345.54
577.43	45247.24
577.59	45551.51
577.75	45492.99
577.92	45504.70
578.08	45474.27
578.24	45373.63
578.40	45244.90
578.56	45397.03
578.72	45317.45
578.88	45755.13
579.04	45799.60
579.21	45446.18
579.37	45539.80
579.53	44924.24
579.69	44982.76
579.85	45200.43
580.01	45497.67
580.17	45347.88
580.33	45663.85
580.49	45305.75
580.65	45375.97
580.82	45399.37
580.98	45401.71
581.14	45265.96
581.30	45804.28
581.46	45392.35
581.62	45731.73
581.78	45689.60
581.94	46230.26
582.10	45488.31
582.26	45581.93
582.42	45607.68
582.58	45626.40
582.74	45666.19
582.90	45748.11
583.06	45703.64
583.22	45801.94
583.38	45947.06
583.54	45661.51
583.70	45942.38
583.86	45963.44
584.02	45385.33
584.18	45750.45
584.34	45340.86
584.50	45556.19
584.66	45528.10
584.82	45401.71
584.98	45982.16
585.14	45488.31
585.30	45984.51
585.46	45614.70
585.62	45687.26
585.78	45797.26
585.94	45301.07
586.10	44924.24
586.26	45350.22
586.42	46003.23
586.58	45682.58
586.74	45640.45
586.90	45277.66
587.06	45481.29
587.22	45935.35
587.38	45815.99
587.54	45507.04
587.70	45743.43
587.86	45537.46
588.02	45518.74
588.18	45787.90
588.34	45467.25
588.49	45184.04
588.65	44722.96
588.81	45139.57
588.97	45254.26
589.13	44772.11
589.29	45404.05
589.45	45113.83
589.61	45523.42
589.77	45902.59
589.93	45652.15
590.08	45705.98
590.24	45727.05
590.40	45942.38
590.56	45687.26
590.72	45532.78
590.88	45687.26
591.04	45521.08
591.20	46218.56
591.35	45727.05
591.51	46447.93
591.67	45858.12
591.83	45827.69
591.99	45579.59
592.15	46110.89
592.31	45820.67
592.46	45965.78
592.62	45624.06
592.78	46057.06
592.94	45600.66
593.10	45502.35
593.26	46007.91
593.41	45834.71
593.57	45778.54
593.73	45371.28
593.89	45874.50
594.05	45975.14
594.20	45853.44
594.36	45703.64
594.52	46047.70
594.68	46085.15
594.84	45595.98
594.99	46155.36
595.15	45624.06
595.31	45766.84
595.47	46028.98
595.62	45893.22
595.78	46197.49
595.94	46160.05
596.10	45904.93
596.25	45708.32
596.41	45361.92
596.57	45418.10
596.73	45785.56
596.88	45677.90
597.04	45844.07
597.20	45532.78
597.36	45858.12
597.51	45865.14
597.67	45790.24
597.83	45595.98
597.99	45968.12
598.14	45869.82
598.30	45813.65
598.46	45481.29
598.61	45748.11
598.77	45965.78
598.93	45815.99
599.09	46047.70
599.24	46375.37
599.40	46082.81
599.56	45961.10
599.71	45806.62
599.87	45888.54
600.03	45654.49
600.18	45399.37
600.34	45624.06
600.50	45677.90
600.65	45801.94
600.81	46263.03
600.97	45998.55
601.12	46153.02
601.28	45858.12
601.44	45792.58
601.59	45778.54
601.75	45734.07
601.91	45574.91
602.06	45748.11
602.22	45867.48
602.37	46033.66
602.53	45799.60
602.69	45893.22
602.84	45415.76
603.00	45581.93
603.16	45528.10
603.31	45937.69
603.47	45614.70
603.62	45401.71
603.78	45600.66
603.94	45923.65
604.09	46000.89
604.25	45832.37
604.40	45490.65
604.56	45502.35
604.71	45855.78
604.87	45867.48
605.03	45605.34
605.18	45394.69
605.34	45874.50
605.49	45158.30
605.65	45483.63
605.80	45415.76
605.96	45535.12
606.12	45911.95
606.27	45691.94
606.43	45865.14
606.58	45584.27
606.74	45869.82
606.89	45579.59
607.05	45638.11
607.20	45705.98
607.36	45364.26
607.51	45827.69
607.67	45727.05
607.82	45530.44
607.98	45563.21
608.13	45095.10
608.29	45104.46
608.44	44949.99
608.60	45331.50
608.75	45579.59
608.91	45528.10
609.06	45296.39
609.22	45537.46
609.37	45464.91
609.53	45539.80
609.68	45390.01
609.84	45336.18
609.99	45195.74
610.15	45207.45
610.30	44624.65
610.46	44914.88
610.61	45219.15
610.76	45336.18
610.92	45378.31
611.07	45361.92
611.23	45116.17
611.38	45432.14
611.54	45177.02
611.69	44769.77
611.84	45233.19
612.00	44818.92
612.15	44938.29
612.31	45265.96
612.46	45144.25
612.62	45071.70
612.77	44851.69
612.92	45052.97
613.08	44879.77
613.23	44961.69
613.39	44547.42
613.54	44629.34
613.69	44601.25
613.85	44371.88
614.00	44828.28
614.15	44744.02
614.31	44655.08
614.46	44659.76
614.62	44825.94
614.77	44531.03
614.92	44811.90
615.08	44278.25
615.23	44573.16
615.38	44891.48
615.54	44217.40
615.69	44556.78
615.84	44067.61
616.00	44390.60
616.15	44390.60
616.30	44509.97
616.46	44114.42
616.61	43763.34
616.76	44299.32
616.92	43580.78
617.07	44430.39
617.22	44275.91
617.37	44318.04
617.53	44037.18
617.68	44299.32
617.83	44011.43
617.99	44142.50
618.14	44133.14
618.29	43976.33
618.45	43981.01
618.60	43796.10
618.75	43695.46
618.90	43260.12
619.06	43796.10
619.21	43959.94
619.36	44046.54
619.51	43604.18
619.67	44023.14
619.82	43805.47
619.97	43882.70
620.12	43777.38
620.28	43721.21
620.43	43601.84
620.58	43725.89
620.73	43765.68
620.89	43730.57
621.04	44046.54
621.19	43592.48
621.34	43878.02
621.49	43510.56
621.65	43784.40
621.80	44037.18
621.95	43409.92
622.10	43456.73
622.25	43400.55
622.41	43409.92
622.56	43381.83
622.71	43468.43
622.86	43496.52
623.01	43461.41
623.16	43264.80
623.32	43147.78
623.47	43241.40
623.62	43529.28
623.77	42670.31
623.92	43210.97
624.07	42824.78
624.23	43196.93
624.38	42827.12
624.53	43047.13
624.68	43463.75
624.83	43178.20
624.98	42990.96
625.13	42890.32
625.29	42878.61
625.44	42988.62
625.59	42541.58
625.74	42550.94
625.89	42731.16
626.04	42590.73
626.19	42529.87
626.34	42632.86
626.49	42609.45
626.65	42227.95
626.80	43019.05
626.95	42026.66
627.10	41794.95
627.25	42148.37
627.40	42274.76
627.55	42110.92
627.70	42256.03
627.85	42436.25
628.00	42300.50
628.15	42696.05
628.30	42600.09
628.45	42508.81
628.60	42319.23
628.76	41846.44
628.91	42019.64
629.06	42052.41
629.21	41848.78
629.36	41649.83
629.51	41476.63
629.66	42038.36
629.81	41701.32
629.96	42045.38
630.11	41909.63
630.26	42197.52
630.41	41731.75
630.56	41565.57
630.71	41521.10
630.86	41942.40
631.01	41579.62
631.16	41572.60
631.31	40968.74
631.46	41610.04
631.61	41333.86
631.76	41556.21
631.91	41942.40
632.06	41790.27
632.21	41727.07
632.36	41596.00
632.51	41127.89
632.66	41471.95
632.81	41226.20
632.96	41537.49
633.10	41528.13
633.25	41181.73
633.40	41928.36
633.55	41502.38
633.70	41291.73
633.85	41762.18
634.00	41413.44
634.15	41347.90
634.30	41251.94
634.45	41261.30
634.60	40947.67
634.75	40978.10
634.90	40889.16
635.05	40966.40
635.19	41146.62
635.34	41144.28
635.49	40931.29
635.64	40889.16
635.79	40975.76
635.94	40636.38
636.09	41010.87
636.24	40112.10
636.39	40526.38
636.53	40603.61
636.68	40479.57
636.83	40467.86
636.98	40575.53
637.13	40697.24
637.28	40891.50
637.43	40610.64
637.57	40896.18
637.72	40767.45
637.87	40760.43
638.02	40226.79
638.17	40687.87
638.32	40240.83
638.46	40060.61
638.61	40470.20
638.76	40210.40
638.91	40605.95
639.06	40299.34
639.20	40187.00
639.35	40474.88
639.50	40259.55
639.65	40060.61
639.80	40289.98
639.94	40411.69
640.09	40172.96
640.24	40327.43
640.39	39835.92
640.54	39889.75
640.68	39868.69
640.83	39828.90
640.98	40215.08
641.13	39868.69
641.27	40018.48
641.42	39821.87
641.57	39992.73
641.72	39868.69
641.86	39405.26
642.01	39482.50
642.16	39842.94
642.31	39576.12
642.45	39566.76
642.60	39079.92
642.75	39665.06
642.90	39662.72
643.04	39700.17
643.19	39466.11
643.34	39798.47
643.48	39323.34
643.63	39552.71
643.78	39569.10
643.93	39192.27
644.07	39187.59
644.22	39297.59
644.37	39358.45
644.51	39093.97
644.66	38941.83
644.81	39613.57
644.95	39508.24
645.10	39091.63
645.25	39512.92
645.39	38923.11
645.54	39585.48
645.69	39171.21
645.83	39328.02
645.98	39054.18
646.13	39009.71
646.27	38946.51
646.42	38738.21
646.57	39075.24
646.71	39033.11
646.86	39000.35
647.00	39119.71
647.15	38911.41
647.30	39269.51
647.44	38932.47
647.59	38759.27
647.74	38424.57
647.88	38590.75
648.03	38993.32
648.17	38560.33
648.32	38939.49
648.47	38389.47
648.61	38162.43
648.76	38635.22
648.90	38775.66
649.05	38520.54
649.20	38670.33
649.34	38817.78
649.49	38330.95
649.63	38141.37
649.78	38288.82
649.92	38433.94
650.07	38567.35
650.21	38621.18
650.36	38003.28
650.51	38445.64
650.65	38782.68
650.80	38691.40
650.94	38433.94
651.09	38450.32
651.23	38075.84
651.38	38052.43
651.52	37603.05
651.67	37598.37
651.81	38139.03
651.96	37823.06
652.10	38124.99
652.25	37635.81
652.39	38366.06
652.54	38471.39
652.68	37816.04
652.83	38068.81
652.97	38197.54
653.12	38036.05
653.26	37654.54
653.41	38106.26
653.55	37893.27
653.70	38455.00
653.84	37996.26
653.99	37621.77
654.13	38022.00
654.27	37530.49
654.42	37429.85
654.56	37757.52
654.71	37450.91
654.85	37577.30
655.00	37654.54
655.14	37294.10
655.29	37312.82
655.43	37373.67
655.57	37055.36
655.72	37074.09
655.86	37144.30
656.01	37081.11
656.15	36767.48
656.30	36971.10
656.44	36973.44
656.58	37134.94
656.73	37036.64
656.87	37144.30
657.01	37228.56
657.16	36940.68
657.30	36598.96
657.45	36893.86
657.59	36701.94
657.73	36755.77
657.88	36758.11
658.02	37333.89
658.16	36875.14
658.31	36893.86
658.45	37022.59
658.60	36797.90
658.74	37038.98
658.88	36692.58
659.03	36891.52
659.17	36194.04
659.31	36517.04
659.46	35957.65
659.60	36505.34
659.74	36671.51
659.89	36016.16
660.03	36538.10
660.17	36751.09
660.32	36093.40
660.46	35779.77
660.60	36182.34
660.74	36084.04
660.89	36170.64
661.03	35531.67
661.17	36423.42
661.32	35981.06
661.46	36247.88
661.60	35592.53
661.74	35014.41
661.89	35641.68
662.03	35889.77
662.17	35489.54
662.31	35901.48
662.46	35852.33
662.60	35620.61
662.74	35484.86
662.88	35653.38
663.03	35110.38
663.17	35086.97
663.31	35016.75
663.45	35587.85
663.60	35168.89
663.74	34918.45
663.88	35157.19
664.02	34913.77
664.17	35126.76
664.31	34955.90
664.45	34995.69
664.59	34902.07
664.73	34876.32
664.88	34810.79
665.02	34258.42
665.16	34373.11
665.30	34293.53
665.44	34436.30
665.59	34225.65
665.73	34375.45
665.87	33813.72
666.01	34345.02
666.15	34309.91
666.29	34113.31
666.44	34845.90
666.58	34352.04
666.72	33893.30
666.86	34125.01
667.00	34146.08
667.14	34012.66
667.28	33687.33
667.43	34253.74
667.57	33851.17
667.71	34068.84
667.85	33539.88
667.99	34125.01
668.13	33940.11
668.27	33596.05
668.41	33483.70
668.56	33563.28
668.70	33336.25
668.84	32978.15
668.98	33266.03
669.12	33495.41
669.26	33261.35
669.40	33010.92
669.54	32884.53
669.68	32818.99
669.82	32931.34
669.96	32769.84
670.10	32615.37
670.25	32638.77
670.39	32107.47
670.53	32608.34
670.67	32285.35
670.81	32484.30
670.95	32233.86
671.09	32439.82
671.23	32079.38
671.37	31796.18
671.51	32147.26
671.65	32591.96
671.79	31810.22
671.93	31625.32
672.07	31983.42
672.21	31934.27
672.35	32109.81
672.49	31756.39
672.63	31842.99
672.77	31578.51
672.91	31438.08
673.05	31728.30
673.19	31519.99
673.33	31630.00
673.47	31349.14
673.61	30981.67
673.75	31419.35
673.89	30991.03
674.03	31030.82
674.17	31211.04
674.31	30965.29
674.45	30644.63
674.59	30925.50
674.73	30850.60
674.87	30754.64
675.01	30618.89
675.15	30724.21
675.29	30469.09
675.43	30560.37
675.56	30714.85
675.70	30164.82
675.84	30410.58
675.98	29249.67
676.12	30153.12
676.26	29961.20
676.40	30050.14
676.54	29949.50
676.68	29837.15
676.82	29399.47
676.96	29649.91
677.10	29769.27
677.23	29296.49
677.37	29376.06
677.51	29144.35
677.65	29067.11
677.79	28865.83
677.93	28603.69
678.07	28699.65
678.21	28236.22
678.34	28690.29
678.48	28390.70
678.62	28006.85
678.76	27990.47
678.90	28137.92
679.04	28116.86
679.18	28163.67
679.31	27768.12
679.45	28002.17
679.59	27964.72
679.73	27740.03
679.87	27557.47
680.00	27623.00
680.14	27782.16
680.28	27388.95
680.42	27283.62
680.56	27267.24
680.70	27431.08
680.83	27608.96
680.97	26721.90
681.11	26965.31
681.25	26867.01
681.39	27044.89
681.52	26925.52
681.66	26621.25
681.80	26874.03
681.94	26272.51
682.07	26174.21
682.21	26398.90
682.35	26080.59
682.49	26050.16
682.62	25788.02
682.76	25797.38
682.90	26075.91
683.04	25926.11
683.17	25963.56
683.31	25692.06
683.45	25446.30
683.59	25439.28
683.72	25376.09
683.86	25750.57
684.00	25139.69
684.13	24950.11
684.27	24814.36
684.41	24884.58
684.55	24849.47
684.68	24723.08
684.82	24702.01
684.96	24744.14
685.09	24599.03
685.23	24350.93
685.37	24699.67
685.50	24287.74
685.64	24390.72
685.78	24404.77
685.91	23899.21
686.05	23889.85
686.19	23569.19
686.32	23403.02
686.46	23091.73
686.60	23175.98
686.73	23094.07
686.87	23063.64
687.01	23091.73
687.14	22696.17
687.28	23194.71
687.42	22642.34
687.55	23007.47
687.69	23012.15
687.82	22698.52
687.96	22745.33
688.10	22728.94
688.23	22345.09
688.37	22574.47
688.50	22427.01
688.64	22452.76
688.78	22419.99
688.91	21865.28
689.05	21795.07
689.18	21774.00
689.32	21729.53
689.46	21546.97
689.59	21682.72
689.73	21930.82
689.86	21539.95
690.00	21317.60
690.13	21443.99
690.27	21177.17
690.41	21032.05
690.54	21090.57
690.68	21085.89
690.81	21341.00
690.95	20786.30
691.08	20975.88
691.22	20992.26
691.35	20830.77
691.49	20929.07
691.62	20851.83
691.76	20442.24
691.89	20496.07
692.03	20439.90
692.16	20222.23
692.30	20250.32
692.43	20222.23
692.57	20067.75
692.70	19871.15
692.84	19826.68
692.97	19552.84
693.11	19648.80
693.24	19534.11
693.38	19154.94
693.51	19454.53
693.65	19374.95
693.78	19225.16
693.92	19262.61
694.05	19470.92
694.19	19157.28
694.32	19019.19
694.45	18920.89
694.59	18888.12
694.72	18820.25
694.86	18911.53
694.99	18434.06
695.13	18633.00
695.26	18429.38
695.39	18263.20
695.53	18349.80
695.66	18705.56
695.80	18403.63
695.93	18279.58
696.07	18178.94
696.20	18335.76
696.33	18340.44
696.47	17874.67
696.60	17745.94
696.73	17570.40
696.87	17724.88
697.00	17514.23
697.14	17462.74
697.27	17104.64
697.40	17383.16
697.54	16879.94
697.67	16861.22
697.80	17158.47
697.94	17001.65
698.07	16865.90
698.21	16893.99
698.34	16980.59
698.47	16926.75
698.61	16746.53
698.74	16629.51
698.87	16795.68
699.01	16318.22
699.14	16458.65
699.27	16273.74
699.40	16325.24
699.54	15873.51
699.67	15950.75
699.80	15999.90
699.94	15866.49
700.07	15901.60
700.20	15789.25
700.34	15934.37
700.47	15784.57
700.60	15611.37
700.73	15681.59
700.87	15435.83
701.00	15330.51
701.13	15400.72
701.26	15304.76
701.40	15075.39
701.53	15119.86
701.66	15208.80
701.79	15019.22
701.93	15075.39
702.06	14956.02
702.19	14918.57
702.32	14593.24
702.46	14813.25
702.59	14689.20
702.72	14707.93
702.85	14672.82
702.99	14525.36
703.12	14480.89
703.25	14310.04
703.38	14382.59
703.51	14382.59
703.65	14066.62
703.78	14307.69
703.91	13912.14
704.04	13734.26
704.17	13783.41
704.31	13923.85
704.44	13427.65
704.57	13521.27
704.70	13535.32
704.83	13425.31
704.96	13762.35
705.10	13540.00
705.23	13446.38
>>>>>End Processed Spectral Data<<<<<
