SpectraSuite Data File
++++++++++++++++++++++++++++++++++++
Date: Fri Oct 25 10:47:09 EDT 2013
User: price-jones
Dark Spectrum Present: No
Reference Spectrum Present: No
Number of Sampled Component Spectra: 1
Spectrometers: USB2+H05261
Integration Time (usec): 100000 (USB2+H05261)
Spectra Averaged: 1 (USB2+H05261)
Boxcar Smoothing: 0 (USB2+H05261)
Correct for Electrical Dark: No (USB2+H05261)
Strobe/Lamp Enabled: No (USB2+H05261)
Correct for Detector Non-linearity: No (USB2+H05261)
Correct for Stray Light: No (USB2+H05261)
Number of Pixels in Processed Spectrum: 2048
>>>>>Begin Processed Spectral Data<<<<<
365.73	166.18
365.92	166.18
366.12	166.18
366.32	32.77
366.52	18.72
366.72	28.09
366.91	23.41
367.11	42.13
367.31	72.56
367.51	65.54
367.70	46.81
367.90	74.90
368.10	46.81
368.30	7.02
368.49	65.54
368.69	147.45
368.89	105.32
369.09	65.54
369.28	30.43
369.48	110.01
369.68	112.35
369.87	74.90
370.07	131.07
370.27	168.52
370.47	194.26
370.66	346.40
370.86	376.83
371.06	374.49
371.25	489.17
371.45	430.66
371.65	381.51
371.84	498.53
372.04	386.19
372.24	496.19
372.44	559.39
372.63	451.72
372.83	458.74
373.03	428.32
373.22	498.53
373.42	477.47
373.62	526.62
373.81	510.24
374.01	543.00
374.21	557.05
374.40	578.11
374.60	561.73
374.79	587.47
374.99	507.90
375.19	653.01
375.38	645.99
375.58	543.00
375.78	573.43
375.97	547.69
376.17	617.90
376.37	498.53
376.56	566.41
376.76	507.90
376.95	582.79
377.15	585.13
377.35	512.58
377.54	561.73
377.74	629.60
377.93	573.43
378.13	648.33
378.33	599.18
378.52	587.47
378.72	667.05
378.91	641.31
379.11	643.65
379.31	613.22
379.50	547.69
379.70	650.67
379.89	690.46
380.09	606.20
380.28	641.31
380.48	603.86
380.68	622.58
380.87	580.45
381.07	660.03
381.26	678.76
381.46	575.77
381.65	601.52
381.85	730.25
382.04	702.16
382.24	720.88
382.43	631.94
382.63	699.82
382.83	704.50
383.02	774.72
383.22	723.23
383.41	737.27
383.61	720.88
383.80	741.95
384.00	713.86
384.19	741.95
384.39	702.16
384.58	711.52
384.78	751.31
384.97	753.65
385.17	732.59
385.36	772.38
385.56	755.99
385.75	725.57
385.95	786.42
386.14	755.99
386.34	706.84
386.53	826.21
386.72	727.91
386.92	847.27
387.11	837.91
387.31	821.53
387.50	739.61
387.70	786.42
387.89	807.48
388.09	760.67
388.28	786.42
388.48	821.53
388.67	765.36
388.86	819.19
389.06	828.55
389.25	870.68
389.45	912.81
389.64	833.23
389.84	938.55
390.03	823.87
390.22	884.72
390.42	901.11
390.61	938.55
390.81	891.74
391.00	887.06
391.19	959.62
391.39	990.05
391.58	910.47
391.78	938.55
391.97	1039.20
392.16	915.15
392.36	992.39
392.55	1011.11
392.75	961.96
392.94	966.64
393.13	903.45
393.33	954.94
393.52	1011.11
393.71	1011.11
393.91	1015.79
394.10	1071.97
394.29	1027.50
394.49	1111.75
394.68	1071.97
394.88	1095.37
395.07	1114.10
395.26	985.37
395.46	1067.28
395.65	1071.97
395.84	1107.07
396.04	1196.01
396.23	1142.18
396.42	1076.65
396.62	1078.99
396.81	1160.91
397.00	1156.22
397.19	1217.08
397.39	1193.67
397.58	1174.95
397.77	1205.38
397.97	1219.42
398.16	1226.44
398.35	1205.38
398.55	1163.25
398.74	1242.82
398.93	1287.29
399.12	1329.42
399.32	1306.02
399.51	1240.48
399.70	1303.68
399.90	1315.38
400.09	1425.39
400.28	1425.39
400.47	1357.51
400.67	1366.87
400.86	1394.96
401.05	1376.24
401.24	1455.81
401.44	1448.79
401.63	1430.07
401.82	1490.92
402.01	1526.03
402.21	1385.60
402.40	1624.33
402.59	1586.88
402.78	1561.14
402.97	1551.78
403.17	1502.62
403.36	1593.90
403.55	1516.67
403.74	1554.12
403.93	1685.19
404.13	1521.35
404.32	1629.01
404.51	1558.80
404.70	1633.69
404.89	1696.89
405.09	1664.12
405.28	1671.14
405.47	1750.72
405.66	1708.59
405.85	1692.21
406.05	1750.72
406.24	1732.00
406.43	1664.12
406.62	1790.51
406.81	1832.64
407.00	1809.23
407.20	1811.57
407.39	1825.62
407.58	1811.57
407.77	1846.68
407.96	1879.45
408.15	1973.07
408.34	1980.09
408.54	1980.09
408.73	1980.09
408.92	1872.43
409.11	2029.24
409.30	2036.27
409.49	1991.80
409.68	2022.22
409.87	1998.82
410.07	2141.59
410.26	2115.84
410.45	2167.34
410.64	2132.23
410.83	2127.55
411.02	2216.49
411.21	2263.30
411.40	2260.96
411.59	2214.15
411.78	2293.72
411.98	2279.68
412.17	2335.85
412.36	2289.04
412.55	2363.94
412.74	2410.75
412.93	2410.75
413.12	2389.69
413.31	2532.46
413.50	2410.75
413.69	2387.35
413.88	2551.18
414.07	2445.86
414.26	2464.58
414.45	2637.78
414.64	2586.29
414.83	2700.98
415.02	2583.95
415.22	2754.81
415.41	2705.66
415.60	2684.59
415.79	2764.17
415.98	2818.00
416.17	2698.64
416.36	2750.13
416.55	2829.71
416.74	2897.58
416.93	2843.75
417.12	2855.45
417.31	2850.77
417.50	2876.52
417.69	3042.70
417.88	2963.12
418.07	3056.74
418.26	3077.80
418.45	3045.04
418.64	3173.77
418.83	3204.19
419.02	3096.53
419.21	3141.00
419.39	3155.04
419.58	3141.00
419.77	3089.51
419.96	3192.49
420.15	3288.45
420.34	3241.64
420.53	3204.19
420.72	3283.77
420.91	3276.75
421.10	3300.16
421.29	3344.63
421.48	3300.16
421.67	3330.58
421.86	3171.43
422.05	3321.22
422.24	3318.88
422.43	3314.20
422.61	3358.67
422.80	3379.73
422.99	3398.46
423.18	3393.78
423.37	3501.44
423.56	3555.27
423.75	3403.14
423.94	3393.78
424.13	3206.53
424.32	3353.99
424.50	3536.55
424.69	3550.59
424.88	3564.64
425.07	3473.36
425.26	3393.78
425.45	3466.33
425.64	3487.40
425.83	3447.61
426.01	3534.21
426.20	3545.91
426.39	3543.57
426.58	3513.14
426.77	3463.99
426.96	3534.21
427.15	3517.83
427.33	3606.77
427.52	3583.36
427.71	3749.54
427.90	3606.77
428.09	3742.52
428.28	3648.90
428.46	3660.60
428.65	3758.90
428.84	3859.54
429.03	3779.97
429.22	3688.68
429.40	3875.93
429.59	3770.60
429.78	3634.85
429.97	3679.32
430.16	3616.13
430.34	3707.41
430.53	3672.30
430.72	3777.62
430.91	3726.13
431.10	3943.80
431.28	3999.98
431.47	4060.83
431.66	4004.66
431.85	4004.66
432.03	4095.94
432.22	4191.90
432.41	3992.95
432.60	4037.42
432.79	4236.37
432.97	4252.75
433.16	4304.25
433.35	4102.96
433.54	4414.25
433.72	4241.05
433.91	4093.60
434.10	4255.09
434.28	4301.90
434.47	4369.78
434.66	4322.97
434.85	4479.79
435.03	4428.29
435.22	4414.25
435.41	4674.05
435.59	4477.44
435.78	4259.78
435.97	4449.36
436.16	4498.51
436.34	4409.57
436.53	4416.59
436.72	4648.30
436.90	4657.67
437.09	4507.87
437.28	4449.36
437.46	4461.06
437.65	4554.68
437.84	4545.32
438.02	4573.41
438.21	4554.68
438.40	4657.67
438.58	4739.58
438.77	4861.29
438.96	4681.07
439.14	4835.55
439.33	4990.02
439.52	5039.17
439.70	4992.36
439.89	5177.26
440.08	5055.56
440.26	4973.64
440.45	5067.26
440.63	5210.03
440.82	5369.19
441.01	5256.84
441.19	5181.95
441.38	5469.83
441.57	5392.59
441.75	5554.09
441.94	5621.97
442.12	5586.86
442.31	5596.22
442.50	5593.88
442.68	5584.52
442.87	5582.18
443.05	5724.95
443.24	5544.73
443.43	5650.05
443.61	5614.95
443.80	5919.21
443.98	5577.50
444.17	5533.03
444.35	5797.51
444.54	5738.99
444.73	5603.24
444.91	5575.16
445.10	5701.54
445.28	5664.10
445.47	5743.67
445.65	5518.98
445.84	5804.53
446.02	5846.66
446.21	5870.06
446.39	5757.72
446.58	5874.74
446.77	5884.11
446.95	5680.48
447.14	5825.59
447.32	5809.21
447.51	5886.45
447.69	5827.93
447.88	5954.32
448.06	5968.37
448.25	5849.00
448.43	5989.43
448.62	5944.96
448.80	5940.28
448.99	5837.30
449.17	6073.69
449.36	6015.18
449.54	6038.58
449.73	6214.12
449.91	6277.32
450.10	6202.42
450.28	6300.72
450.46	6443.49
450.65	6289.02
450.83	6270.30
451.02	6277.32
451.20	6361.58
451.39	6377.96
451.57	6389.66
451.76	6209.44
451.94	6328.81
452.13	6274.98
452.31	6235.19
452.49	6256.25
452.68	6438.81
452.86	6382.64
453.05	6459.88
453.23	6438.81
453.42	6478.60
453.60	6408.39
453.78	6494.99
453.97	6476.26
454.15	6478.60
454.34	6438.81
454.52	6686.91
454.70	6651.80
454.89	6518.39
455.07	6722.02
455.26	6843.73
455.44	6867.13
455.62	6878.83
455.81	6825.00
455.99	6857.77
456.17	7028.63
456.36	6813.30
456.54	6993.52
456.73	7016.93
456.91	7108.21
457.09	7204.17
457.28	7143.32
457.46	7101.19
457.64	7307.15
457.83	7201.83
458.01	7236.94
458.19	7222.89
458.38	7255.66
458.56	7356.30
458.74	7243.96
458.93	7124.59
459.11	7382.05
459.29	7265.02
459.48	7349.28
459.66	7300.13
459.84	7576.31
460.03	7651.21
460.21	7461.63
460.39	7442.90
460.57	7569.29
460.76	7463.97
460.94	7541.21
461.12	7641.85
461.31	7733.13
461.49	7529.50
461.67	7592.70
461.85	7782.28
462.04	7620.78
462.22	8126.34
462.40	7885.26
462.59	7719.09
462.77	7861.86
462.95	7894.63
463.13	7932.08
463.32	7978.89
463.50	7929.74
463.68	7772.92
463.86	8039.74
464.05	7925.05
464.23	7871.22
464.41	8051.44
464.59	7918.03
464.78	8238.69
464.96	8133.36
465.14	8011.65
465.32	8194.22
465.50	8257.41
465.69	8306.56
465.87	8163.79
466.05	8304.22
466.23	8021.02
466.41	8182.51
466.60	8437.63
466.78	8215.28
466.96	8271.45
467.14	8189.53
467.32	8329.97
467.51	8512.53
467.69	8386.14
467.87	8280.82
468.05	8475.08
468.23	8454.02
468.41	8311.24
468.60	8500.83
468.78	8657.64
468.96	8503.17
469.14	8613.17
469.32	8641.26
469.50	8505.51
469.69	8706.79
469.87	8865.95
470.05	8781.69
470.23	8800.41
470.41	8760.63
470.59	8961.91
470.77	9013.40
470.95	9074.26
471.14	8966.59
471.32	8882.33
471.50	9200.65
471.68	9263.84
471.86	9135.11
472.04	9198.31
472.22	9252.14
472.40	9085.96
472.58	9277.88
472.77	9181.92
472.95	9453.42
473.13	9708.54
473.31	9324.69
473.49	9298.95
473.67	9551.73
473.85	9591.52
474.03	9895.78
474.21	9856.00
474.39	9893.44
474.57	9710.88
474.75	9980.04
474.93	10022.17
475.12	10113.45
475.30	10085.37
475.48	9980.04
475.66	10171.97
475.84	9968.34
476.02	10427.09
476.20	10148.56
476.38	10450.49
476.56	10693.91
476.74	10513.69
476.92	10562.84
477.10	10693.91
477.28	10693.91
477.46	10942.00
477.64	11052.01
477.82	10965.41
478.00	11166.70
478.18	11176.06
478.36	11316.49
478.54	11353.94
478.72	11569.27
478.90	11438.20
479.08	11686.29
479.26	11623.10
479.44	11847.79
479.62	11803.32
479.80	11910.99
479.98	12112.27
480.16	12203.55
480.34	12028.01
480.52	12381.43
480.70	12395.48
480.88	12152.06
481.06	12053.76
481.24	12421.22
481.41	12608.47
481.59	13001.68
481.77	12961.89
481.95	12950.18
482.13	12886.99
482.31	12926.78
482.49	13364.46
482.67	13158.49
482.85	13437.02
483.03	13547.02
483.21	13542.34
483.39	13727.24
483.57	13884.06
483.74	13954.27
483.92	14029.17
484.10	14139.18
484.28	14394.29
484.46	14764.10
484.64	14773.46
484.82	14422.38
485.00	14499.62
485.18	14684.52
485.35	14991.13
485.53	14754.74
485.71	14981.77
485.89	15243.91
486.07	15260.29
486.25	15309.44
486.43	15187.74
486.61	15545.84
486.78	15662.86
486.96	15592.65
487.14	15985.86
487.32	15974.16
487.50	16353.32
487.68	16547.59
487.85	16585.04
488.03	16638.87
488.21	16964.20
488.39	16779.30
488.57	16828.45
488.75	17041.44
488.92	17226.34
489.10	17745.94
489.28	17547.00
489.46	17727.22
489.64	17628.92
489.81	18242.14
489.99	18225.75
490.17	18396.61
490.35	18328.74
490.53	18298.31
490.70	18595.56
490.88	18572.15
491.06	18745.35
491.24	19096.43
491.41	18747.69
491.59	19147.92
491.77	18871.74
491.95	19332.82
492.13	19328.14
492.30	19534.11
492.48	19435.81
492.66	19714.33
492.84	19655.82
493.01	19941.36
493.19	19906.26
493.37	20212.87
493.54	20194.14
493.72	20627.14
493.90	20510.11
494.08	20685.65
494.25	21064.82
494.43	20879.92
494.61	20950.14
494.79	21305.90
494.96	21282.49
495.14	21177.17
495.32	21479.10
495.49	21525.91
495.67	21446.33
495.85	22029.12
496.02	21858.26
496.20	21935.50
496.38	21937.84
496.55	22008.06
496.73	22597.87
496.91	22148.49
497.09	22787.46
497.26	22946.61
497.44	22637.66
497.62	22904.48
497.79	23321.10
497.97	23180.67
498.14	23049.60
498.32	23145.56
498.50	23417.06
498.67	23690.90
498.85	23625.37
499.03	23756.44
499.20	23939.00
499.38	24205.82
499.56	23997.51
499.73	23819.63
499.91	24084.11
500.08	24676.27
500.26	24280.72
500.44	24512.43
500.61	24219.86
500.79	24196.46
500.97	24812.02
501.14	24950.11
501.32	24884.58
501.49	24947.77
501.67	25193.53
501.84	25216.93
502.02	25315.23
502.20	25153.74
502.37	25261.40
502.55	25376.09
502.72	25514.18
502.90	25539.93
503.07	25750.57
503.25	25996.33
503.43	25642.91
503.60	25846.54
503.78	25975.27
503.95	25905.05
504.13	26298.26
504.30	26312.30
504.48	26256.13
504.65	26757.00
504.83	26328.69
505.01	26740.62
505.18	26616.57
505.36	26373.16
505.53	26539.33
505.71	27056.59
505.88	26920.84
506.06	26934.88
506.23	27140.85
506.41	26813.18
506.58	27140.85
506.76	27604.28
506.93	27491.93
507.11	27400.65
507.28	27800.88
507.46	27831.31
507.63	27868.76
507.81	27892.16
507.98	27946.00
508.16	27793.86
508.33	28278.35
508.50	27765.78
508.68	28060.68
508.85	28084.09
509.03	28247.93
509.20	28767.52
509.38	28840.08
509.55	29181.80
509.73	28697.31
509.90	28713.69
510.08	28701.99
510.25	28755.82
510.42	28919.66
510.60	29137.33
510.77	29130.31
510.95	29156.05
511.12	29050.73
511.30	29207.55
511.47	29532.88
511.64	29509.47
511.82	29799.70
511.99	29668.63
512.17	29673.31
512.34	29582.03
512.51	29853.53
512.69	30221.00
512.86	29919.07
513.04	30419.94
513.21	30253.76
513.38	30504.20
513.56	30422.28
513.73	30195.25
513.90	30382.49
514.08	30852.94
514.25	30888.05
514.43	30885.71
514.60	30726.55
514.77	30806.13
514.95	30920.82
515.12	30998.06
515.29	30668.04
515.47	31512.97
515.64	31194.66
515.81	30946.56
515.99	31098.70
516.16	31063.59
516.33	31398.29
516.51	31442.76
516.68	31264.88
516.85	31321.05
517.03	31571.49
517.20	31527.02
517.37	31594.89
517.54	31667.45
517.72	31889.80
517.89	31730.64
518.06	32065.34
518.24	31821.92
518.41	31805.54
518.58	32325.14
518.75	32346.20
518.93	32423.44
519.10	32187.05
519.27	32334.50
519.45	32678.56
519.62	32964.10
519.79	33170.07
519.96	32938.36
520.14	33170.07
520.31	32954.74
520.48	32914.95
520.65	33200.50
520.83	32772.18
521.00	33069.43
521.17	33207.52
521.34	33212.20
521.52	33785.63
521.69	33509.45
521.86	33652.22
522.03	33476.68
522.20	33605.41
522.38	33589.03
522.55	34045.43
522.72	33771.59
522.89	34071.18
523.07	33841.81
523.24	33818.40
523.41	33998.62
523.58	33984.58
523.75	34555.67
523.92	34569.71
524.10	34941.86
524.27	34567.37
524.44	34541.63
524.61	34590.78
524.78	34939.52
524.96	34899.73
525.13	34983.99
525.30	35264.85
525.47	35278.89
525.64	34955.90
525.81	35070.59
525.98	35040.16
526.16	34852.92
526.33	35007.39
526.50	35157.19
526.67	34925.47
526.84	35208.68
527.01	35161.87
527.18	35894.46
527.36	35824.24
527.53	35566.78
527.70	35578.48
527.87	36030.21
528.04	35718.92
528.21	35491.88
528.38	35896.80
528.55	36196.38
528.72	36121.49
528.89	36215.11
529.07	35906.16
529.24	36275.96
529.41	36020.84
529.58	36294.69
529.75	36046.59
529.92	36533.42
530.09	36414.05
530.26	36404.69
530.43	36257.24
530.60	36079.36
530.77	36350.86
530.94	37148.98
531.11	36779.18
531.28	36685.56
531.46	37373.67
531.63	36940.68
531.80	37062.38
531.97	36627.04
532.14	37010.89
532.31	37085.79
532.48	36903.23
532.65	37282.39
532.82	37191.11
532.99	37188.77
533.16	37214.52
533.33	37263.67
533.50	37471.98
533.67	37282.39
533.84	37390.06
534.01	37202.82
534.18	37638.15
534.35	37483.68
534.52	37610.07
534.69	37794.97
534.86	37621.77
535.03	37659.22
535.20	38087.54
535.37	38239.67
535.54	38124.99
535.71	37909.66
535.88	38068.81
536.05	38026.68
536.22	38085.20
536.38	38382.45
536.55	38309.89
536.72	38340.32
536.89	38204.56
537.06	37851.14
537.23	38124.99
537.40	38501.81
537.57	38354.36
537.74	38490.11
537.91	38602.46
538.08	38808.42
538.25	38213.93
538.42	38974.60
538.59	38754.59
538.75	38749.91
538.92	38806.08
539.09	39012.05
539.26	39175.89
539.43	38553.30
539.60	38780.34
539.77	39337.38
539.94	39112.69
540.11	39079.92
540.28	39096.31
540.44	39421.64
540.61	39096.31
540.78	39061.20
540.95	39423.98
541.12	38902.04
541.29	39482.50
541.46	39070.56
541.62	39529.31
541.79	39569.10
541.96	38944.17
542.13	39323.34
542.30	39550.37
542.47	39786.77
542.63	39669.74
542.80	39889.75
542.97	39775.06
543.14	40392.97
543.31	40172.96
543.48	40456.16
543.64	40561.48
543.81	40016.14
543.98	40184.66
544.15	40505.31
544.32	40531.06
544.48	40608.29
544.65	40407.01
544.82	40512.33
544.99	40109.76
545.16	40790.86
545.32	40685.53
545.49	40390.62
545.66	40634.04
545.83	40629.36
546.00	40989.80
546.16	40870.43
546.33	40814.26
546.50	40364.88
546.67	40517.01
546.83	40196.36
547.00	40671.49
547.17	40847.03
547.34	40933.63
547.50	41148.96
547.67	41298.75
547.84	41085.76
548.00	41050.66
548.17	41074.06
548.34	41212.15
548.51	41200.45
548.67	41256.62
548.84	41368.97
549.01	41464.93
549.18	41525.78
549.34	41411.10
549.51	41717.71
549.68	41682.60
549.84	41397.06
550.01	41846.44
550.18	41581.96
550.34	41607.70
550.51	41497.70
550.68	41509.40
550.84	41275.35
551.01	42344.97
551.18	41844.10
551.34	41481.31
551.51	41785.58
551.68	42024.32
551.84	42005.59
552.01	42223.26
552.18	41682.60
552.34	41467.27
552.51	41661.54
552.68	41736.43
552.84	41706.01
553.01	42052.41
553.18	42349.65
553.34	42241.99
553.51	41769.20
553.67	42143.69
553.84	42494.77
554.01	42511.15
554.17	42621.16
554.34	42576.69
554.51	42682.01
554.67	42267.73
554.84	42462.00
555.00	42330.93
555.17	42499.45
555.33	42707.76
555.50	43028.41
555.67	42630.52
555.83	42508.81
556.00	42588.39
556.16	43075.22
556.33	42597.75
556.50	42871.59
556.66	43178.20
556.83	42752.23
556.99	42703.07
557.16	42726.48
557.32	42712.44
557.49	43086.92
557.65	42539.24
557.82	42878.61
557.98	42557.96
558.15	43215.65
558.32	42904.36
558.48	42763.93
558.65	43026.07
558.81	43147.78
558.98	43105.65
559.14	43269.48
559.31	42646.90
559.47	42824.78
559.64	43199.27
559.80	43365.45
559.97	43168.84
560.13	42967.55
560.30	43140.75
560.46	43143.09
560.63	43325.66
560.79	43189.91
560.96	43393.53
561.12	43313.95
561.29	43782.06
561.45	43171.18
561.61	43229.69
561.78	43332.68
561.94	42955.85
562.11	43201.61
562.27	43379.49
562.44	43545.67
562.60	43707.16
562.77	43620.56
562.93	43426.30
563.10	43505.88
563.26	43138.41
563.42	43955.26
563.59	43248.42
563.75	43592.48
563.92	43824.19
564.08	43468.43
564.24	43782.06
564.41	44170.59
564.57	43494.18
564.74	43936.54
564.90	43943.56
565.07	43768.02
565.23	43629.93
565.39	43707.16
565.56	43655.67
565.72	43625.25
565.88	43414.60
566.05	43559.71
566.21	43784.40
566.38	43442.68
566.54	44079.31
566.70	44526.35
566.87	44648.06
567.03	43824.19
567.19	44325.07
567.36	43852.28
567.52	43578.43
567.68	44086.33
567.85	43819.51
568.01	44215.06
568.17	43831.21
568.34	43962.28
568.50	44011.43
568.66	43690.78
568.83	43983.35
568.99	43470.77
569.15	44311.02
569.32	44032.50
569.48	43517.58
569.64	44404.64
569.81	44034.84
569.97	44083.99
570.13	44325.07
570.30	43899.09
570.46	43714.19
570.62	43583.12
570.78	43714.19
570.95	43271.82
571.11	44210.38
571.27	43758.66
571.43	44346.13
571.60	44198.68
571.76	44304.00
571.92	43910.79
572.09	44236.12
572.25	43969.30
572.41	44137.82
572.57	44151.87
572.74	44484.22
572.90	44540.39
573.06	44151.87
573.22	44009.09
573.38	43885.04
573.55	44266.55
573.71	44062.93
573.87	44179.95
574.03	43742.27
574.20	43859.30
574.36	43896.75
574.52	44385.92
574.68	44086.33
574.84	43880.36
575.01	43945.90
575.17	43906.11
575.33	43997.39
575.49	44402.30
575.65	44203.36
575.82	44875.09
575.98	44217.40
576.14	44699.55
576.30	44378.90
576.46	44196.34
576.62	43887.39
576.79	44289.96
576.95	43613.54
577.11	44392.94
577.27	44112.08
577.43	44669.12
577.59	44453.79
577.75	44414.01
577.92	43903.77
578.08	44102.71
578.24	43978.67
578.40	44430.39
578.56	44437.41
578.72	44268.89
578.88	44751.04
579.04	44301.66
579.21	44446.77
579.37	44034.84
579.53	44140.16
579.69	44526.35
579.85	44280.60
580.01	44697.21
580.17	44690.19
580.33	44729.98
580.49	44636.36
580.65	44275.91
580.82	44385.92
580.98	44580.18
581.14	43964.62
581.30	44126.12
581.46	44477.20
581.62	44285.28
581.78	44371.88
581.94	45001.48
582.10	44477.20
582.26	44575.50
582.42	44287.62
582.58	44552.10
582.74	44404.64
582.90	44491.24
583.06	44914.88
583.22	44477.20
583.38	44514.65
583.54	44268.89
583.70	44587.21
583.86	44287.62
584.02	44222.08
584.18	44949.99
584.34	44254.85
584.50	44755.72
584.66	44470.18
584.82	44561.46
584.98	44713.59
585.14	44720.62
585.30	44636.36
585.46	44437.41
585.62	44076.97
585.78	44409.32
585.94	44432.73
586.10	44596.57
586.26	44130.80
586.42	44196.34
586.58	44935.95
586.74	44636.36
586.90	44734.66
587.06	44175.27
587.22	44774.45
587.38	44708.91
587.54	44753.38
587.70	44816.58
587.86	45027.23
588.02	44804.88
588.18	44870.41
588.34	44839.98
588.49	44226.76
588.65	44184.63
588.81	43950.58
588.97	44645.72
589.13	44198.68
589.29	44566.14
589.45	44669.12
589.61	44699.55
589.77	44739.34
589.93	44521.67
590.08	44959.35
590.24	44891.48
590.40	44858.71
590.56	44648.06
590.72	45074.04
590.88	44821.26
591.04	45076.38
591.20	44982.76
591.35	44737.00
591.51	44905.52
591.67	44938.29
591.83	44811.90
591.99	44617.63
592.15	45048.29
592.31	44811.90
592.46	44821.26
592.62	44524.01
592.78	45170.00
592.94	45209.79
593.10	44931.26
593.26	44966.37
593.41	44964.03
593.57	44650.40
593.73	44746.36
593.89	44935.95
594.05	44861.05
594.20	44744.02
594.36	45130.21
594.52	44886.79
594.68	44811.90
594.84	44912.54
594.99	45226.17
595.15	44973.39
595.31	44835.30
595.47	44994.46
595.62	44751.04
595.78	45043.61
595.94	45649.81
596.10	44835.30
596.25	44842.32
596.41	44889.13
596.57	44870.41
596.73	45050.63
596.88	44882.11
597.04	44821.26
597.20	44954.67
597.36	44919.56
597.51	45043.61
597.67	45209.79
597.83	45167.66
597.99	44732.32
598.14	45059.99
598.30	45027.23
598.46	44655.08
598.61	44917.22
598.77	44706.57
598.93	44713.59
599.09	44732.32
599.24	45553.85
599.40	45134.89
599.56	45610.02
599.71	44954.67
599.87	45331.50
600.03	44961.69
600.18	44575.50
600.34	45132.55
600.50	45263.62
600.65	44779.13
600.81	45333.84
600.97	45441.50
601.12	45237.87
601.28	45181.70
601.44	45120.85
601.59	44992.12
601.75	44830.62
601.91	45099.78
602.06	45013.18
602.22	44849.35
602.37	44802.53
602.53	45076.38
602.69	45380.65
602.84	44664.44
603.00	45031.91
603.16	45008.50
603.31	44919.56
603.47	44451.45
603.62	44423.37
603.78	45120.85
603.94	45160.64
604.09	45352.56
604.25	44657.42
604.40	45322.13
604.56	45205.11
604.71	45340.86
604.87	44776.79
605.03	44949.99
605.18	44725.30
605.34	45137.23
605.49	44472.52
605.65	45067.02
605.80	44851.69
605.96	44947.65
606.12	44914.88
606.27	44905.52
606.43	44619.97
606.58	44886.79
606.74	44645.72
606.89	44516.99
607.05	44828.28
607.20	44673.81
607.36	45020.20
607.51	45109.14
607.67	45090.42
607.82	44535.71
607.98	44919.56
608.13	44205.70
608.29	44666.78
608.44	44076.97
608.60	44208.04
608.75	44903.18
608.91	43882.70
609.06	44308.68
609.22	44844.66
609.37	44236.12
609.53	44751.04
609.68	44945.31
609.84	44561.46
609.99	44779.13
610.15	44790.83
610.30	44830.62
610.46	44409.32
610.61	44119.10
610.76	44643.38
610.92	44147.18
611.07	43957.60
611.23	44437.41
611.38	44395.28
611.54	44596.57
611.69	44285.28
611.84	44296.98
612.00	44147.18
612.15	44091.01
612.31	44327.41
612.46	44397.62
612.62	44320.38
612.77	44282.94
612.92	44002.07
613.08	43871.00
613.23	44245.49
613.39	43824.19
613.54	44292.30
613.69	44013.77
613.85	44128.46
614.00	44083.99
614.15	44135.48
614.31	44259.53
614.46	44687.85
614.62	44086.33
614.77	44320.38
614.92	43700.14
615.08	43716.53
615.23	43840.57
615.38	43880.36
615.54	43674.40
615.69	43803.13
615.84	43803.13
616.00	43388.85
616.15	43990.37
616.30	43847.60
616.46	43690.78
616.61	43653.33
616.76	43700.14
616.92	43658.01
617.07	43908.45
617.22	43442.68
617.37	43040.11
617.53	43997.39
617.68	44306.34
617.83	43564.39
617.99	44027.82
618.14	44100.37
618.29	43889.73
618.45	43358.42
618.60	43641.63
618.75	43552.69
618.90	43583.12
619.06	43686.10
619.21	43601.84
619.36	43672.06
619.51	43358.42
619.67	43147.78
619.82	43620.56
619.97	43302.25
620.12	43194.59
620.28	42464.34
620.43	43306.93
620.58	43346.72
620.73	43077.56
620.89	42871.59
621.04	43335.02
621.19	42939.47
621.34	43206.29
621.49	42845.85
621.65	43061.18
621.80	43157.14
621.95	42866.91
622.10	43206.29
622.25	42733.50
622.41	42684.35
622.56	42557.96
622.71	43098.62
622.86	42691.37
623.01	42916.06
623.16	42679.67
623.32	42593.07
623.47	43203.95
623.62	43016.71
623.77	42057.09
623.92	42459.66
624.07	42784.99
624.23	42672.65
624.38	42302.84
624.53	42337.95
624.68	42267.73
624.83	42857.55
624.98	42581.37
625.13	42253.69
625.29	42211.56
625.44	42333.27
625.59	41881.55
625.74	42260.71
625.89	41853.46
626.04	41514.08
626.19	42174.11
626.34	42227.95
626.49	42258.37
626.65	41921.34
626.80	42239.65
626.95	41893.25
627.10	41743.45
627.25	41563.23
627.40	41876.86
627.55	41509.40
627.70	41635.79
627.85	41546.85
628.00	42005.59
628.15	41895.59
628.30	42122.62
628.45	41958.78
628.60	41750.48
628.76	42244.33
628.91	41436.84
629.06	41986.87
629.21	41954.10
629.36	41289.39
629.51	41404.08
629.66	41448.55
629.81	40921.93
629.96	41198.11
630.11	41195.77
630.26	41638.13
630.41	41741.11
630.56	41415.78
630.71	41530.47
630.86	40844.69
631.01	41340.88
631.16	41411.10
631.31	41151.30
631.46	40744.05
631.61	41223.86
631.76	41265.99
631.91	41642.81
632.06	40828.30
632.21	41432.16
632.36	41490.68
632.51	41223.86
632.66	41177.04
632.81	41064.70
632.96	41221.52
633.10	40641.06
633.25	41195.77
633.40	40748.73
633.55	41015.55
633.70	40755.75
633.85	40940.65
634.00	40779.15
634.15	40898.52
634.30	40622.34
634.45	40959.38
634.60	40741.71
634.75	41130.23
634.90	41088.10
635.05	40875.12
635.19	40746.39
635.34	40959.38
635.49	40741.71
635.64	40294.66
635.79	40254.87
635.94	40151.89
636.09	40617.66
636.24	40395.31
636.39	40048.91
636.53	40016.14
636.68	40194.02
636.83	40329.77
636.98	40341.47
637.13	39941.24
637.28	40399.99
637.43	40191.68
637.57	40538.08
637.72	40428.07
637.87	40320.41
638.02	40013.80
638.17	39871.03
638.32	40191.68
638.46	39777.40
638.61	39613.57
638.76	39421.64
638.91	39964.65
639.06	39356.11
639.20	40060.61
639.35	40013.80
639.50	40044.23
639.65	39765.70
639.80	40095.72
639.94	39906.13
640.09	39613.57
640.24	39922.52
640.39	39477.82
640.54	39782.09
640.68	39810.17
640.83	39482.50
640.98	39405.26
641.13	39023.75
641.27	39917.84
641.42	39679.10
641.57	39725.91
641.72	39714.21
641.86	39669.74
642.01	39154.82
642.16	39313.98
642.31	39033.11
642.45	39002.69
642.60	39367.81
642.75	39082.27
642.90	39321.00
643.04	39070.56
643.19	39400.58
643.34	39571.44
643.48	38951.20
643.63	39129.08
643.78	38962.90
643.93	39203.97
644.07	39117.37
644.22	38913.75
644.37	38513.52
644.51	38932.47
644.66	38403.51
644.81	39012.05
644.95	39150.14
645.10	38986.30
645.25	39119.71
645.39	39246.10
645.54	39220.36
645.69	38792.04
645.83	38789.70
645.98	38618.84
646.13	38918.43
646.27	38763.95
646.42	39047.16
646.57	38614.16
646.71	38724.16
646.86	39079.92
647.00	38565.01
647.15	38394.15
647.30	38934.81
647.44	39103.33
647.59	38211.59
647.74	38258.40
647.88	38742.89
648.03	38361.38
648.17	38646.93
648.32	38340.32
648.47	38845.87
648.61	38260.74
648.76	38686.71
648.90	38213.93
649.05	38146.05
649.20	38227.97
649.34	38061.79
649.49	38206.90
649.63	38398.83
649.78	38497.13
649.92	38307.55
650.07	38335.63
650.21	37869.87
650.36	37993.92
650.51	38040.73
650.65	38389.47
650.80	38375.42
650.94	38546.28
651.09	38022.00
651.23	37738.80
651.38	37883.91
651.52	37448.57
651.67	38249.03
651.81	37954.13
651.96	37764.54
652.10	38038.39
652.25	37174.73
652.39	37251.97
652.54	37827.74
652.68	37926.04
652.83	38195.20
652.97	38293.50
653.12	37635.81
653.26	37902.64
653.41	37872.21
653.55	37834.76
653.70	37291.76
653.84	37589.00
653.99	37640.50
654.13	37696.67
654.27	37230.90
654.42	37757.52
654.56	37521.13
654.71	37949.45
654.85	37432.19
655.00	37556.24
655.14	37483.68
655.29	36863.44
655.43	36938.33
655.57	37088.13
655.72	36954.72
655.86	36711.30
656.01	36999.19
656.15	36943.02
656.30	37263.67
656.44	36914.93
656.58	36992.17
656.73	36907.91
656.87	36753.43
657.01	36886.84
657.16	36825.99
657.30	36605.98
657.45	36786.20
657.59	36519.38
657.73	36484.27
657.88	36552.15
658.02	36669.17
658.16	36769.82
658.31	36657.47
658.45	36751.09
658.60	36671.51
658.74	36596.62
658.88	36793.22
659.03	36325.11
659.17	36233.83
659.31	36172.98
659.46	36271.28
659.60	36030.21
659.74	36268.94
659.89	35737.64
660.03	35775.09
660.17	36416.40
660.32	35693.17
660.46	35936.59
660.60	36280.64
660.74	35840.62
660.89	35978.72
661.03	35878.07
661.17	35398.26
661.32	35342.09
661.46	35526.99
661.60	35346.77
661.74	35700.19
661.89	35470.82
662.03	35559.76
662.17	35419.33
662.31	35332.73
662.46	35627.63
662.60	35580.82
662.74	35707.21
662.88	35196.98
663.03	35702.53
663.17	35234.42
663.31	34948.88
663.45	35122.08
663.60	34892.71
663.74	35014.41
663.88	35077.61
664.02	34649.29
664.17	34831.85
664.31	34555.67
664.45	34452.69
664.59	34754.61
664.73	34754.61
664.88	34541.63
665.02	34326.30
665.16	34075.86
665.30	34206.93
665.44	34448.00
665.59	33956.49
665.73	34558.01
665.87	34059.48
666.01	34136.71
666.15	33998.62
666.29	33972.88
666.44	34319.28
666.58	33823.08
666.72	34038.41
666.86	34169.48
667.00	34059.48
667.14	34249.06
667.28	34092.24
667.43	33809.04
667.57	33919.04
667.71	33647.54
667.85	33722.44
667.99	33748.18
668.13	33242.63
668.27	33373.70
668.41	33727.12
668.56	33441.57
668.70	33303.48
668.84	33170.07
668.98	33282.42
669.12	32987.51
669.26	33282.42
669.40	32779.20
669.54	32938.36
669.68	33036.66
669.82	32730.05
669.96	32561.53
670.10	32769.84
670.25	33170.07
670.39	32823.67
670.53	32788.56
670.67	32826.01
670.81	32297.05
670.95	32428.12
671.09	32451.53
671.23	31992.78
671.37	32606.00
671.51	32247.90
671.65	32315.78
671.79	32383.65
671.93	31800.86
672.07	32027.89
672.21	32266.63
672.35	32091.09
672.49	31487.23
672.63	32107.47
672.77	31660.43
672.91	31487.23
673.05	31515.31
673.19	31445.10
673.33	31180.62
673.47	31283.60
673.61	31522.34
673.75	31470.84
673.89	30855.28
674.03	30689.10
674.17	31072.95
674.31	31007.42
674.45	30813.15
674.59	31192.32
674.73	30752.30
674.87	30895.07
675.01	30855.28
675.15	30576.76
675.29	30962.95
675.43	30740.60
675.56	30780.39
675.70	30459.73
675.84	30410.58
675.98	29076.48
676.12	30136.74
676.26	30050.14
676.40	29624.16
676.54	29682.67
676.68	29441.60
676.82	29404.15
676.96	29486.07
677.10	29198.18
677.23	29369.04
677.37	29394.79
677.51	29331.59
677.65	29219.25
677.79	28999.24
677.93	28779.23
678.07	28582.62
678.21	28395.38
678.34	28687.95
678.48	28418.78
678.62	28577.94
678.76	28416.44
678.90	28489.00
679.04	28533.47
679.18	28439.85
679.31	27896.85
679.45	27461.51
679.59	27442.78
679.73	27637.05
679.87	27810.25
680.00	27871.10
680.14	27627.68
680.28	27543.42
680.42	27349.16
680.56	27136.17
680.70	27337.46
680.83	27133.83
680.97	27065.96
681.11	27173.62
681.25	26995.74
681.39	26682.11
681.52	27049.57
681.66	26817.86
681.80	26553.38
681.94	26541.68
682.07	26122.72
682.21	26270.17
682.35	26541.68
682.49	26354.43
682.62	26101.65
682.76	25846.54
682.90	25858.24
683.04	26054.84
683.17	25996.33
683.31	25675.68
683.45	25600.78
683.59	25535.24
683.72	25474.39
683.86	25387.79
684.00	24985.22
684.13	25453.33
684.27	25020.33
684.41	25338.64
684.55	24968.84
684.68	24542.86
684.82	25099.90
684.96	24713.72
685.09	24397.74
685.23	24636.48
685.37	24594.35
685.50	24407.11
685.64	24320.51
685.78	24372.00
685.91	24079.43
686.05	23686.22
686.19	23718.99
686.32	23803.25
686.46	23906.23
686.60	23826.65
686.73	23323.44
686.87	23625.37
687.01	23283.65
687.14	23253.22
687.28	22965.34
687.42	23129.17
687.55	22745.33
687.69	23002.78
687.82	22810.86
687.96	22958.31
688.10	22745.33
688.23	22773.41
688.37	22441.06
688.50	22012.74
688.64	22331.05
688.78	22225.73
688.91	21970.61
689.05	22214.02
689.18	21621.87
689.32	21965.93
689.46	21832.52
689.59	22050.19
689.73	22284.24
689.86	21844.22
690.00	21591.44
690.13	21493.14
690.27	21202.91
690.41	21324.62
690.54	20905.66
690.68	21167.80
690.81	21198.23
690.95	20685.65
691.08	20662.25
691.22	20795.66
691.35	20503.09
691.49	21149.08
691.62	20917.37
691.76	20858.85
691.89	20432.88
692.03	20355.64
692.16	20084.14
692.30	20233.93
692.43	20271.38
692.57	19910.94
692.70	20058.39
692.84	19915.62
692.97	19604.33
693.11	20006.90
693.24	19644.12
693.38	19611.35
693.51	19573.90
693.65	19541.13
693.78	19342.19
693.92	19311.76
694.05	19215.80
694.19	19129.20
694.32	19054.30
694.45	19264.95
694.59	18904.51
694.72	19096.43
694.86	18986.43
694.99	18658.75
695.13	18651.73
695.26	18757.05
695.39	18181.28
695.53	18277.24
695.66	18422.36
695.80	18150.85
695.93	18391.93
696.07	18169.58
696.20	18111.07
696.33	17994.04
696.47	17951.91
696.60	17982.34
696.73	17612.53
696.87	17762.33
697.00	17680.41
697.14	17713.17
697.27	17547.00
697.40	17874.67
697.54	17692.11
697.67	17355.07
697.80	17158.47
697.94	17153.79
698.07	16917.39
698.21	16847.18
698.34	16929.09
698.47	17027.40
698.61	16446.94
698.74	16470.35
698.87	16556.95
699.01	16355.66
699.14	16332.26
699.27	16393.11
699.40	16341.62
699.54	15744.78
699.67	15798.62
699.80	16145.02
699.94	15810.32
700.07	16203.53
700.20	15749.46
700.34	15672.23
700.47	15960.11
700.60	15878.19
700.73	15852.45
700.87	15543.50
701.00	15559.88
701.13	15358.60
701.26	15328.17
701.40	15229.87
701.53	15192.42
701.66	15236.89
701.79	15007.52
701.93	14846.02
702.06	14946.66
702.19	14553.45
702.32	14726.65
702.46	14523.02
702.59	14593.24
702.72	14548.77
702.85	14794.53
702.99	14644.73
703.12	14635.37
703.25	14366.21
703.38	14408.34
703.51	14207.05
703.65	14005.77
703.78	14190.67
703.91	14122.79
704.04	14193.01
704.17	13877.04
704.31	14115.77
704.44	13781.07
704.57	13664.05
704.70	13635.96
704.83	13612.56
704.96	13710.86
705.10	13865.33
705.23	13556.38
>>>>>End Processed Spectral Data<<<<<
