SpectraSuite Data File
++++++++++++++++++++++++++++++++++++
Date: Fri Oct 25 10:43:37 EDT 2013
User: price-jones
Dark Spectrum Present: No
Reference Spectrum Present: No
Number of Sampled Component Spectra: 1
Spectrometers: USB2+H05261
Integration Time (usec): 100000 (USB2+H05261)
Spectra Averaged: 1 (USB2+H05261)
Boxcar Smoothing: 0 (USB2+H05261)
Correct for Electrical Dark: No (USB2+H05261)
Strobe/Lamp Enabled: No (USB2+H05261)
Correct for Detector Non-linearity: No (USB2+H05261)
Correct for Stray Light: No (USB2+H05261)
Number of Pixels in Processed Spectrum: 2048
>>>>>Begin Processed Spectral Data<<<<<
365.73	121.71
365.92	121.71
366.12	121.71
366.32	11.70
366.52	0.00
366.72	119.37
366.91	30.43
367.11	49.15
367.31	21.06
367.51	7.02
367.70	51.49
367.90	16.38
368.10	37.45
368.30	28.09
368.49	35.11
368.69	9.36
368.89	77.24
369.09	0.00
369.28	65.54
369.48	65.54
369.68	112.35
369.87	65.54
370.07	67.88
370.27	107.66
370.47	184.90
370.66	351.08
370.86	454.06
371.06	451.72
371.25	482.15
371.45	409.59
371.65	491.51
371.84	362.78
372.04	423.64
372.24	423.64
372.44	512.58
372.63	587.47
372.83	603.86
373.03	564.07
373.22	540.66
373.42	559.39
373.62	582.79
373.81	585.13
374.01	557.05
374.21	561.73
374.40	573.43
374.60	582.79
374.79	550.03
374.99	578.11
375.19	650.67
375.38	629.60
375.58	631.94
375.78	510.24
375.97	620.24
376.17	606.20
376.37	638.97
376.56	669.39
376.76	500.87
376.95	620.24
377.15	671.73
377.35	620.24
377.54	660.03
377.74	720.88
377.93	669.39
378.13	622.58
378.33	681.10
378.52	678.76
378.72	690.46
378.91	713.86
379.11	678.76
379.31	643.65
379.50	737.27
379.70	641.31
379.89	660.03
380.09	636.63
380.28	692.80
380.48	718.54
380.68	681.10
380.87	660.03
381.07	688.12
381.26	641.31
381.46	653.01
381.65	709.18
381.85	739.61
382.04	748.97
382.24	667.05
382.43	692.80
382.63	578.11
382.83	624.92
383.02	744.29
383.22	709.18
383.41	786.42
383.61	758.33
383.80	835.57
384.00	856.64
384.19	805.14
384.39	812.17
384.58	760.67
384.78	830.89
384.97	870.68
385.17	767.70
385.36	777.06
385.56	819.19
385.75	737.27
385.95	788.76
386.14	791.10
386.34	830.89
386.53	777.06
386.72	866.00
386.92	968.98
387.11	856.64
387.31	947.92
387.50	866.00
387.70	891.74
387.89	779.40
388.09	887.06
388.28	854.30
388.48	908.13
388.67	901.11
388.86	976.00
389.06	924.51
389.25	973.66
389.45	1018.13
389.64	1041.54
389.84	945.58
390.03	1025.15
390.22	1022.81
390.42	1034.52
390.61	994.73
390.81	1060.26
391.00	1055.58
391.19	1109.41
391.39	1006.43
391.58	1100.05
391.78	1090.69
391.97	1032.18
392.16	1050.90
392.36	1097.71
392.55	1057.92
392.75	1020.47
392.94	971.32
393.13	1013.45
393.33	1034.52
393.52	1032.18
393.71	1111.75
393.91	1022.81
394.10	1156.22
394.29	1170.27
394.49	1156.22
394.68	1217.08
394.88	1235.80
395.07	1198.35
395.26	1294.32
395.46	1212.40
395.65	1247.51
395.84	1221.76
396.04	1259.21
396.23	1207.72
396.42	1025.15
396.62	1156.22
396.81	1205.38
397.00	1263.89
397.19	1284.95
397.39	1280.27
397.58	1392.62
397.77	1460.49
397.97	1439.43
398.16	1385.60
398.35	1504.96
398.55	1439.43
398.74	1514.33
398.93	1544.75
399.12	1572.84
399.32	1502.62
399.51	1561.14
399.70	1598.59
399.90	1645.40
400.09	1582.20
400.28	1710.93
400.47	1652.42
400.67	1692.21
400.86	1717.95
401.05	1678.16
401.24	1755.40
401.44	1713.27
401.63	1762.42
401.82	1827.96
402.01	1741.36
402.21	1736.68
402.40	1790.51
402.59	1837.32
402.78	1750.72
402.97	1867.75
403.17	1771.79
403.36	1743.70
403.55	1863.07
403.74	1895.83
403.93	1944.99
404.13	1893.49
404.32	1912.22
404.51	1933.28
404.70	1984.77
404.89	1980.09
405.09	1994.14
405.28	1956.69
405.47	1909.88
405.66	1933.28
405.85	2029.24
406.05	2017.54
406.24	2104.14
406.43	2106.48
406.62	2113.50
406.81	2157.97
407.00	2134.57
407.20	2265.64
407.39	2251.60
407.58	2214.15
407.77	2134.57
407.96	2230.53
408.15	2352.24
408.34	2270.32
408.54	2291.38
408.73	2284.36
408.92	2251.60
409.11	2403.73
409.30	2282.02
409.49	2356.92
409.68	2286.70
409.87	2279.68
410.07	2363.94
410.26	2464.58
410.45	2326.49
410.64	2504.37
410.83	2644.81
411.02	2602.68
411.21	2682.25
411.40	2588.63
411.59	2679.91
411.78	2619.06
411.98	2621.40
412.17	2818.00
412.36	2715.02
412.55	2745.45
412.74	2853.11
412.93	2803.96
413.12	2810.98
413.31	2935.03
413.50	2953.76
413.69	2839.07
413.88	2888.22
414.07	2825.03
414.26	2984.18
414.45	2932.69
414.64	3061.42
414.83	3042.70
415.02	3201.85
415.22	3218.24
415.41	3330.58
415.60	3098.87
415.79	3173.77
415.98	3382.07
416.17	3225.26
416.36	3204.19
416.55	3363.35
416.74	3218.24
416.93	3211.22
417.12	3276.75
417.31	3283.77
417.50	3445.27
417.69	3611.45
417.88	3377.39
418.07	3534.21
418.26	3412.50
418.45	3492.08
418.64	3646.55
418.83	3534.21
419.02	3588.04
419.21	3606.77
419.39	3574.00
419.58	3644.21
419.77	3599.74
419.96	3740.18
420.15	3742.52
420.34	3770.60
420.53	3829.12
420.72	3896.99
420.91	3904.01
421.10	3887.63
421.29	4021.04
421.48	3824.44
421.67	3941.46
421.86	3798.69
422.05	3765.92
422.24	3850.18
422.43	3824.44
422.61	3967.21
422.80	3901.67
422.99	3953.16
423.18	3922.74
423.37	3995.29
423.56	4049.13
423.75	3969.55
423.94	3878.27
424.13	3852.52
424.32	3850.18
424.50	4049.13
424.69	4168.49
424.88	4032.74
425.07	4037.42
425.26	4023.38
425.45	4032.74
425.64	4023.38
425.83	3953.16
426.01	4128.70
426.20	4056.15
426.39	3969.55
426.58	4142.75
426.77	3852.52
426.96	3859.54
427.15	4009.34
427.33	4180.20
427.52	4074.87
427.71	4152.11
427.90	4187.22
428.09	4236.37
428.28	4306.59
428.46	4257.43
428.65	4222.33
428.84	4411.91
429.03	4344.03
429.22	4191.90
429.40	4180.20
429.59	4070.19
429.78	4124.02
429.97	4002.32
430.16	3974.23
430.34	4056.15
430.53	4315.95
430.72	4121.68
430.91	4360.42
431.10	4271.48
431.28	4603.83
431.47	4690.43
431.66	4774.69
431.85	4636.60
432.03	4648.30
432.22	4676.39
432.41	4535.96
432.60	4758.31
432.79	4809.80
432.97	4882.36
433.16	4716.18
433.35	4788.74
433.54	4798.10
433.72	4660.01
433.91	4699.80
434.10	4779.37
434.28	4842.57
434.47	4938.53
434.66	4910.44
434.85	5060.24
435.03	5020.45
435.22	4999.38
435.41	5135.14
435.59	5235.78
435.78	5219.39
435.97	5226.42
436.16	5235.78
436.34	5167.90
436.53	5170.24
436.72	5369.19
436.90	5191.31
437.09	5408.98
437.28	5235.78
437.46	5123.43
437.65	5301.31
437.84	5226.42
438.02	5291.95
438.21	5275.57
438.40	5172.58
438.58	5231.10
438.77	5420.68
438.96	5633.67
439.14	5493.24
439.33	5713.25
439.52	5720.27
439.70	5647.71
439.89	5762.40
440.08	5717.93
440.26	5863.04
440.45	5879.43
440.63	6113.48
440.82	6029.22
441.01	6024.54
441.19	6129.86
441.38	6097.10
441.57	6181.35
441.75	6298.38
441.94	6314.77
442.12	6251.57
442.31	6242.21
442.50	6356.90
442.68	6368.60
442.87	6438.81
443.05	6459.88
443.24	6448.18
443.43	6504.35
443.61	6504.35
443.80	6757.13
443.98	6338.17
444.17	6445.84
444.35	6464.56
444.54	6745.42
444.73	6640.10
444.91	6494.99
445.10	6593.29
445.28	6555.84
445.47	6431.79
445.65	6642.44
445.84	6567.54
446.02	6642.44
446.21	6752.45
446.39	6710.32
446.58	6628.40
446.77	6820.32
446.95	6799.26
447.14	6743.08
447.32	6832.02
447.51	6829.68
447.69	6853.09
447.88	6909.26
448.06	6825.00
448.25	6904.58
448.43	6810.96
448.62	6682.23
448.80	6747.76
448.99	6738.40
449.17	6951.39
449.36	6930.33
449.54	7049.69
449.73	7213.53
449.91	7143.32
450.10	7157.36
450.28	7246.30
450.46	7248.64
450.65	7368.01
450.83	7232.26
451.02	7213.53
451.20	7346.94
451.39	7316.51
451.57	7325.88
451.76	7328.22
451.94	7377.37
452.13	7407.80
452.31	7279.07
452.49	7227.57
452.68	7375.03
452.86	7363.33
453.05	7290.77
453.23	7548.23
453.42	7438.22
453.60	7550.57
453.78	7672.28
453.97	7433.54
454.15	7456.95
454.34	7702.70
454.52	7501.42
454.70	7438.22
454.89	7737.81
455.07	7833.77
455.26	7777.60
455.44	7719.09
455.62	7892.29
455.81	7836.11
455.99	7934.42
456.17	8028.04
456.36	7798.66
456.54	8006.97
456.73	8116.98
456.91	8238.69
457.09	8259.75
457.28	8418.91
457.46	8184.85
457.64	8191.88
457.83	8329.97
458.01	8142.72
458.19	8557.00
458.38	8222.30
458.56	8280.82
458.74	8374.44
458.93	8524.23
459.11	8477.42
459.29	8461.04
459.48	8535.93
459.66	8503.17
459.84	8568.70
460.03	8828.50
460.21	8638.92
460.39	8519.55
460.57	8648.28
460.76	8610.83
460.94	8702.11
461.12	8908.08
461.31	8751.26
461.49	8793.39
461.67	8603.81
461.85	9050.85
462.04	8924.46
462.22	9380.87
462.40	9055.53
462.59	9008.72
462.77	8971.27
462.95	9008.72
463.13	9046.17
463.32	9027.45
463.50	9275.54
463.68	9430.02
463.86	9039.15
464.05	9062.55
464.23	9212.35
464.41	9195.96
464.59	9092.98
464.78	9263.84
464.96	9249.80
465.14	8926.80
465.32	9188.94
465.50	9425.34
465.69	9418.32
465.87	9514.28
466.05	9444.06
466.23	9282.56
466.41	9191.28
466.60	9320.01
466.78	9348.10
466.96	9437.04
467.14	9493.21
467.32	9558.75
467.51	9682.80
467.69	9366.82
467.87	9589.17
468.05	9500.23
468.23	9626.62
468.41	9469.81
468.60	9799.82
468.78	9652.37
468.96	9558.75
469.14	9753.01
469.32	9940.26
469.50	9802.16
469.69	9968.34
469.87	9996.43
470.05	9905.15
470.23	9966.00
470.41	9893.44
470.59	9870.04
470.77	9914.51
470.95	10073.67
471.14	10157.92
471.32	10242.18
471.50	10356.87
471.68	10523.05
471.86	10506.66
472.04	10586.24
472.22	10651.78
472.40	10478.58
472.58	10366.23
472.77	10494.96
472.95	10782.85
473.13	11070.73
473.31	10679.86
473.49	10668.16
473.67	10604.97
473.85	10934.98
474.03	11250.96
474.21	11229.89
474.39	11211.17
474.57	11286.06
474.75	11169.04
474.93	11325.85
475.12	11180.74
475.30	11482.67
475.48	11552.88
475.66	11470.97
475.84	11487.35
476.02	11590.33
476.20	11559.91
476.38	11559.91
476.56	12126.32
476.74	11812.68
476.92	11676.93
477.10	11932.05
477.28	12299.52
477.46	12432.93
477.64	12465.69
477.82	12489.10
478.00	12636.55
478.18	12713.79
478.36	12748.90
478.54	12821.45
478.72	12872.95
478.90	12987.63
479.08	13214.66
479.26	13188.92
479.44	13394.89
479.62	13549.36
479.80	13214.66
479.98	13682.77
480.16	13937.89
480.34	13792.78
480.52	13785.76
480.70	13909.80
480.88	13724.90
481.06	14120.45
481.24	14153.22
481.41	14303.01
481.59	14366.21
481.77	14658.78
481.95	14689.20
482.13	14801.55
482.31	14686.86
482.49	15087.09
482.67	14979.43
482.85	14836.66
483.03	15461.58
483.21	15372.64
483.39	15414.77
483.57	15412.43
483.74	15557.54
483.92	15822.02
484.10	15522.43
484.28	16271.40
484.46	16308.85
484.64	16498.44
484.82	16203.53
485.00	16458.65
485.18	16255.02
485.35	16573.33
485.53	16561.63
485.71	16311.19
485.89	16278.43
486.07	16683.34
486.25	16854.20
486.43	17280.18
486.61	17025.06
486.78	17355.07
486.96	17441.67
487.14	17635.94
487.32	17809.14
487.50	18143.83
487.68	18363.84
487.85	18740.67
488.03	18689.18
488.21	18649.39
488.39	18665.77
488.57	19206.44
488.75	19087.07
488.92	19428.79
489.10	19424.11
489.28	19524.75
489.46	19840.72
489.64	19882.85
489.81	20575.65
489.99	20510.11
490.17	20573.31
490.35	20669.27
490.53	20524.16
490.70	20819.07
490.88	20912.69
491.06	21207.59
491.24	20788.64
491.41	21219.30
491.59	21039.08
491.77	20819.07
491.95	21277.81
492.13	21617.19
492.30	21855.92
492.48	21874.65
492.66	21921.46
492.84	22359.14
493.01	22504.25
493.19	22314.67
493.37	22597.87
493.54	22403.61
493.72	22836.61
493.90	23108.11
494.08	23360.89
494.25	23386.63
494.43	23817.29
494.61	23662.82
494.79	23590.26
494.96	23578.56
495.14	24058.37
495.32	24081.77
495.49	23585.58
495.67	23772.82
495.85	24577.97
496.02	24484.34
496.20	24561.58
496.38	24556.90
496.55	24833.08
496.73	25245.02
496.91	25193.53
497.09	24753.51
497.26	25226.29
497.44	25579.71
497.62	25392.47
497.79	25642.91
497.97	25694.40
498.14	25895.69
498.32	25865.26
498.50	25853.56
498.67	26380.18
498.85	26424.65
499.03	26373.16
499.20	26885.73
499.38	26604.87
499.56	26677.43
499.73	26897.44
499.91	26998.08
500.08	26859.99
500.26	26630.62
500.44	27068.30
500.61	27065.96
500.79	26810.84
500.97	26920.84
501.14	27667.47
501.32	26892.76
501.49	27300.01
501.67	27580.87
501.84	27662.79
502.02	27847.69
502.20	27948.34
502.37	28187.07
502.55	28044.30
502.72	27948.34
502.90	28308.78
503.07	27810.25
503.25	28554.54
503.43	28332.18
503.60	28507.72
503.78	28217.50
503.95	28119.20
504.13	28758.16
504.30	28973.49
504.48	28945.41
504.65	29261.38
504.83	29139.67
505.01	29378.40
505.18	29347.98
505.36	30127.38
505.53	29832.47
505.71	30213.98
505.88	30382.49
506.06	29652.25
506.23	30099.29
506.41	29832.47
506.58	30127.38
506.76	30115.67
506.93	30658.68
507.11	30333.34
507.28	30424.62
507.46	30043.12
507.63	30684.42
507.81	30698.47
507.98	30644.63
508.16	30698.47
508.33	30794.43
508.50	30888.05
508.68	31297.64
508.85	31253.17
509.03	31269.56
509.20	31213.38
509.38	31381.90
509.55	31615.96
509.73	31723.62
509.90	31683.83
510.08	31777.45
510.25	31875.76
510.42	31510.63
510.60	31971.72
510.77	32203.43
510.95	32514.72
511.12	32165.98
511.30	32706.65
511.47	32629.41
511.64	32533.45
511.82	32737.07
511.99	32587.28
512.17	32716.01
512.34	32411.74
512.51	33003.89
512.69	32821.33
512.86	32940.70
513.04	33099.86
513.21	33415.83
513.38	32947.72
513.56	32903.25
513.73	33273.06
513.90	33450.94
514.08	33624.14
514.25	33326.89
514.43	33464.98
514.60	33544.56
514.77	33558.60
514.95	33965.85
515.12	33516.47
515.29	34218.63
515.47	34192.89
515.64	34492.47
515.81	33963.51
515.99	34473.75
516.16	34127.35
516.33	34160.12
516.51	34087.56
516.68	33563.28
516.85	33340.93
517.03	33998.62
517.20	34436.30
517.37	34806.11
517.54	34766.32
517.72	34621.20
517.89	34204.59
518.06	33930.75
518.24	34635.25
518.41	34504.18
518.58	34602.48
518.75	35000.37
518.93	35161.87
519.10	35227.40
519.27	35503.59
519.45	35351.45
519.62	35552.74
519.79	35765.73
519.96	35983.40
520.14	35742.32
520.31	35737.64
520.48	35749.34
520.65	35875.73
520.83	36170.64
521.00	36362.56
521.17	36517.04
521.34	36610.66
521.52	36734.71
521.69	36573.21
521.86	36718.32
522.03	36425.76
522.20	36678.54
522.38	36950.04
522.55	36928.97
522.72	36804.92
522.89	36505.34
523.07	37310.48
523.24	36748.75
523.41	37179.41
523.58	37017.91
523.75	37640.50
523.92	37371.33
524.10	37558.58
524.27	37432.19
524.44	37684.97
524.61	37633.47
524.78	37521.13
524.96	38113.28
525.13	38047.75
525.30	37886.25
525.47	38443.30
525.64	37776.25
525.81	37675.60
525.98	37446.23
526.16	37963.49
526.33	37654.54
526.50	37806.67
526.67	37584.32
526.84	37413.46
527.01	38007.96
527.18	37909.66
527.36	38455.00
527.53	38342.66
527.70	39229.72
527.87	38478.41
528.04	38604.80
528.21	38899.70
528.38	39089.29
528.55	38522.88
528.72	38878.64
528.89	39103.33
529.07	39175.89
529.24	39147.80
529.41	39454.41
529.58	39072.90
529.75	39475.48
529.92	38857.57
530.09	39597.18
530.26	39505.90
530.43	39501.22
530.60	39606.55
530.77	39576.12
530.94	39971.67
531.11	39768.04
531.28	40048.91
531.46	39789.11
531.63	39814.85
531.80	39683.78
531.97	39721.23
532.14	40128.48
532.31	39613.57
532.48	39899.11
532.65	40329.77
532.82	39920.18
532.99	40243.17
533.16	40034.86
533.33	40479.57
533.50	40643.40
533.67	40292.32
533.84	40030.18
534.01	40650.42
534.18	40795.54
534.35	40926.61
534.52	40531.06
534.69	40828.30
534.86	41464.93
535.03	40872.78
535.20	41249.60
535.37	41074.06
535.54	40847.03
535.71	41015.55
535.88	41195.77
536.05	41053.00
536.22	41132.57
536.38	41144.28
536.55	41333.86
536.72	41006.19
536.89	40940.65
537.06	41153.64
537.23	41518.76
537.40	41460.25
537.57	41055.34
537.74	41507.06
537.91	41874.52
538.08	41703.67
538.25	41799.63
538.42	41591.32
538.59	41668.56
538.75	41493.02
538.92	41392.37
539.09	41670.90
539.26	41787.92
539.43	41823.03
539.60	41596.00
539.77	41794.95
539.94	41668.56
540.11	41841.76
540.28	41799.63
540.44	41792.61
540.61	41876.86
540.78	41652.17
540.95	41549.19
541.12	41706.01
541.29	42202.20
541.46	42038.36
541.62	42129.64
541.79	42644.56
541.96	42185.82
542.13	42340.29
542.30	42614.13
542.47	42429.23
542.63	42239.65
542.80	42415.19
542.97	42822.44
543.14	42770.95
543.31	42770.95
543.48	42890.32
543.64	43428.64
543.81	43150.12
543.98	42656.26
544.15	42845.85
544.32	43538.65
544.48	43566.73
544.65	42995.64
544.82	43351.40
544.99	42969.90
545.16	43180.54
545.32	42955.85
545.49	43915.47
545.66	44100.37
545.83	43438.00
546.00	43402.89
546.16	43243.74
546.33	43302.25
546.50	43414.60
546.67	43655.67
546.83	42756.91
547.00	43735.25
547.17	43643.97
547.34	43234.38
547.50	43931.86
547.67	43430.98
547.84	43868.66
548.00	43634.61
548.17	44222.08
548.34	43924.83
548.51	44252.51
548.67	44535.71
548.84	44226.76
549.01	43943.56
549.18	43917.81
549.34	44327.41
549.51	44638.70
549.68	44098.03
549.84	44137.82
550.01	44406.98
550.18	44418.69
550.34	44198.68
550.51	44390.60
550.68	44229.10
550.84	43835.89
551.01	44215.06
551.18	44472.52
551.34	44339.11
551.51	44451.45
551.68	44369.54
551.84	44580.18
552.01	44332.09
552.18	44238.47
552.34	44121.44
552.51	44509.97
552.68	44676.15
552.84	44718.28
553.01	44966.37
553.18	44942.97
553.34	44872.75
553.51	44629.34
553.67	44615.29
553.84	45132.55
554.01	45001.48
554.17	45532.78
554.34	45626.40
554.51	44790.83
554.67	45361.92
554.84	44811.90
555.00	44816.58
555.17	45113.83
555.33	45223.83
555.50	45099.78
555.67	45010.84
555.83	45067.02
556.00	45184.04
556.16	45186.38
556.33	45111.49
556.50	44626.99
556.66	45308.09
556.83	44868.07
556.99	45151.27
557.16	45237.87
557.32	45635.77
557.49	45581.93
557.65	45474.27
557.82	45418.10
557.98	45631.08
558.15	45694.28
558.32	45352.56
558.48	45031.91
558.65	45184.04
558.81	45413.41
558.98	45081.06
559.14	45303.41
559.31	45198.09
559.47	45429.80
559.64	45490.65
559.80	45481.29
559.97	45839.39
560.13	45116.17
560.30	45439.16
560.46	45942.38
560.63	45495.33
560.79	45691.94
560.96	45275.32
561.12	45530.44
561.29	45860.46
561.45	45825.35
561.61	45497.67
561.78	45474.27
561.94	45738.75
562.11	45490.65
562.27	45724.71
562.44	45930.67
562.60	46218.56
562.77	45799.60
562.93	45394.69
563.10	46143.66
563.26	45724.71
563.42	46087.49
563.59	45780.88
563.75	45972.80
563.92	45879.18
564.08	45949.40
564.24	46396.44
564.41	46014.93
564.57	45930.67
564.74	45935.35
564.90	46014.93
565.07	45661.51
565.23	45862.80
565.39	45610.02
565.56	46010.25
565.72	45605.34
565.88	45610.02
566.05	45481.29
566.21	45942.38
566.38	45497.67
566.54	45743.43
566.70	45947.06
566.87	46471.34
567.03	46344.95
567.19	46337.93
567.36	46150.68
567.52	45874.50
567.68	46120.26
567.85	46040.68
568.01	45940.04
568.17	46169.41
568.34	46471.34
568.50	45837.05
568.66	45645.13
568.83	46089.83
568.99	45677.90
569.15	46377.72
569.32	45841.73
569.48	46206.86
569.64	46553.26
569.81	46230.26
569.97	46347.29
570.13	45958.76
570.30	45586.61
570.46	46007.91
570.62	45844.07
570.78	45361.92
570.95	45832.37
571.11	45989.19
571.27	45659.17
571.43	46028.98
571.60	46522.83
571.76	46436.23
571.92	45755.13
572.09	46181.11
572.25	46454.95
572.41	46529.85
572.57	46312.18
572.74	45963.44
572.90	46155.36
573.06	46293.46
573.22	46028.98
573.38	46127.28
573.55	46066.42
573.71	46363.67
573.87	46232.60
574.03	46096.85
574.20	45879.18
574.36	46054.72
574.52	46555.60
574.68	46377.72
574.84	46436.23
575.01	46227.92
575.17	46373.03
575.33	46267.71
575.49	45993.87
575.65	46501.76
575.82	46415.16
575.98	46012.59
576.14	46490.06
576.30	46429.21
576.46	46361.33
576.62	46686.67
576.79	45787.90
576.95	45961.10
577.11	46483.04
577.27	46354.31
577.43	46150.68
577.59	46387.08
577.75	46117.92
577.92	45603.00
578.08	46153.02
578.24	46150.68
578.40	46195.15
578.56	46230.26
578.72	45886.20
578.88	46469.00
579.04	46569.64
579.21	46052.38
579.37	45998.55
579.53	46281.75
579.69	45965.78
579.85	45998.55
580.01	46623.47
580.17	46375.37
580.33	46188.13
580.49	46443.25
580.65	46241.96
580.82	46291.12
580.98	46621.13
581.14	46014.93
581.30	46541.55
581.46	46248.99
581.62	46330.90
581.78	46366.01
581.94	46728.80
582.10	46274.73
582.26	46740.50
582.42	46773.27
582.58	46588.36
582.74	45982.16
582.90	46597.73
583.06	46911.36
583.22	46274.73
583.38	46518.15
583.54	46443.25
583.70	46494.74
583.86	45968.12
584.02	46485.38
584.18	46485.38
584.34	46155.36
584.50	46433.89
584.66	46419.84
584.82	46223.24
584.98	46431.55
585.14	46546.23
585.30	46398.78
585.46	46181.11
585.62	45909.61
585.78	45923.65
585.94	46312.18
586.10	46440.91
586.26	45928.33
586.42	46768.58
586.58	46621.13
586.74	46178.77
586.90	46073.45
587.06	46199.83
587.22	46391.76
587.38	46368.35
587.54	46351.97
587.70	46586.02
587.86	46483.04
588.02	46237.28
588.18	46256.01
588.34	46415.16
588.49	45937.69
588.65	45745.77
588.81	45970.46
588.97	46136.64
589.13	46333.24
589.29	45818.33
589.45	46085.15
589.61	46050.04
589.77	46614.11
589.93	46574.32
590.08	46344.95
590.24	46457.29
590.40	46979.23
590.56	46979.23
590.72	46754.54
590.88	46480.70
591.04	46660.92
591.20	47075.19
591.35	46555.60
591.51	46808.37
591.67	46300.48
591.83	46316.86
591.99	46068.76
592.15	46195.15
592.31	46447.93
592.46	46281.75
592.62	46707.73
592.78	47133.71
592.94	46794.33
593.10	46351.97
593.26	46791.99
593.41	46803.69
593.57	46466.66
593.73	46791.99
593.89	46424.53
594.05	46787.31
594.20	46447.93
594.36	46478.36
594.52	46272.39
594.68	46562.62
594.84	46820.08
594.99	46370.69
595.15	46450.27
595.31	46913.70
595.47	46595.38
595.62	46810.71
595.78	46658.58
595.94	46761.56
596.10	46597.73
596.25	46335.59
596.41	46726.46
596.57	46487.72
596.73	46436.23
596.88	46665.60
597.04	46373.03
597.20	46267.71
597.36	46904.34
597.51	46934.76
597.67	46719.43
597.83	46436.23
597.99	46864.55
598.14	46773.27
598.30	46579.00
598.46	46501.76
598.61	46391.76
598.77	46358.99
598.93	46607.09
599.09	46684.33
599.24	46948.81
599.40	47119.66
599.56	46780.29
599.71	46246.65
599.87	46763.90
600.03	46494.74
600.18	46433.89
600.34	46361.33
600.50	46291.12
600.65	46050.04
600.81	46518.15
600.97	46520.49
601.12	46756.88
601.28	46789.65
601.44	46534.53
601.59	46391.76
601.75	46354.31
601.91	46471.34
602.06	46452.61
602.22	46604.75
602.37	46321.54
602.53	46738.16
602.69	46330.90
602.84	46405.80
603.00	46120.26
603.16	46918.38
603.31	46485.38
603.47	46518.15
603.62	46342.61
603.78	46506.44
603.94	46831.78
604.09	46672.62
604.25	46740.50
604.40	46454.95
604.56	46490.06
604.71	46806.03
604.87	46553.26
605.03	46747.52
605.18	46312.18
605.34	46366.01
605.49	46052.38
605.65	46513.47
605.80	46553.26
605.96	46461.97
606.12	46256.01
606.27	46513.47
606.43	46380.06
606.58	46478.36
606.74	45900.25
606.89	46731.14
607.05	46089.83
607.20	46312.18
607.36	46412.82
607.51	46667.94
607.67	46237.28
607.82	46347.29
607.98	46223.24
608.13	46068.76
608.29	45612.36
608.44	45925.99
608.60	45734.07
608.75	46033.66
608.91	46153.02
609.06	45773.86
609.22	45844.07
609.37	46005.57
609.53	46270.05
609.68	45883.86
609.84	46366.01
609.99	45813.65
610.15	45684.92
610.30	45586.61
610.46	45710.66
610.61	45708.32
610.76	45895.56
610.92	45965.78
611.07	45907.27
611.23	45839.39
611.38	45876.84
611.54	45705.98
611.69	45565.55
611.84	45626.40
612.00	45453.20
612.15	45654.49
612.31	46108.55
612.46	45361.92
612.62	46124.94
612.77	45911.95
612.92	45902.59
613.08	45652.15
613.23	45586.61
613.39	45179.36
613.54	44987.44
613.69	45567.89
613.85	45038.93
614.00	45727.05
614.15	45647.47
614.31	45794.92
614.46	45308.09
614.62	45705.98
614.77	45261.28
614.92	45017.86
615.08	44781.47
615.23	45244.90
615.38	45364.26
615.54	45120.85
615.69	45137.23
615.84	45162.98
616.00	45481.29
616.15	44952.33
616.30	45146.59
616.46	45223.83
616.61	45240.21
616.76	44942.97
616.92	44954.67
617.07	45003.82
617.22	45158.30
617.37	44650.40
617.53	44968.71
617.68	45284.68
617.83	45027.23
617.99	44566.14
618.14	45317.45
618.29	44678.49
618.45	44091.01
618.60	44294.64
618.75	44348.47
618.90	44467.84
619.06	44540.39
619.21	44634.02
619.36	44903.18
619.51	44137.82
619.67	44594.23
619.82	44381.24
619.97	44694.87
620.12	44708.91
620.28	44451.45
620.43	44313.36
620.58	44683.17
620.73	44355.49
620.89	44119.10
621.04	44374.22
621.19	44133.14
621.34	44409.32
621.49	44224.42
621.65	44250.17
621.80	44507.63
621.95	44163.57
622.10	44151.87
622.25	44083.99
622.41	44142.50
622.56	44055.90
622.71	44126.12
622.86	44030.16
623.01	44271.23
623.16	43875.68
623.32	44126.12
623.47	43854.62
623.62	44119.10
623.77	43559.71
623.92	43667.37
624.07	43845.26
624.23	43606.52
624.38	43608.86
624.53	43463.75
624.68	43793.76
624.83	43452.05
624.98	43758.66
625.13	43246.08
625.29	43861.64
625.44	43381.83
625.59	43115.01
625.74	43208.63
625.89	43384.17
626.04	43433.32
626.19	42838.83
626.34	43290.55
626.49	43161.82
626.65	42752.23
626.80	43512.90
626.95	42852.87
627.10	42852.87
627.25	42646.90
627.40	43166.50
627.55	42408.17
627.70	42880.95
627.85	42918.40
628.00	42974.58
628.15	42909.04
628.30	42897.34
628.45	43604.18
628.60	42911.38
628.76	42976.92
628.91	42705.41
629.06	42574.34
629.21	42572.00
629.36	42506.47
629.51	42251.35
629.66	42625.84
629.81	42501.79
629.96	42822.44
630.11	42576.69
630.26	42291.14
630.41	42480.72
630.56	42579.03
630.71	42342.63
630.86	42354.33
631.01	42103.90
631.16	42127.30
631.31	41982.19
631.46	41909.63
631.61	42562.64
631.76	42005.59
631.91	41914.31
632.06	42377.74
632.21	42005.59
632.36	42363.70
632.51	42223.26
632.66	42382.42
632.81	42223.26
632.96	42398.80
633.10	42347.31
633.25	42543.92
633.40	41986.87
633.55	42183.48
633.70	41794.95
633.85	41790.27
634.00	42188.16
634.15	42253.69
634.30	41698.98
634.45	41558.55
634.60	41724.73
634.75	41436.84
634.90	41617.07
635.05	41689.62
635.19	41551.53
635.34	42239.65
635.49	41825.37
635.64	41706.01
635.79	41553.87
635.94	41460.25
636.09	41317.48
636.24	41123.21
636.39	40877.46
636.53	41282.37
636.68	41710.69
636.83	41443.87
636.98	41539.83
637.13	41214.49
637.28	41771.54
637.43	41488.34
637.57	41596.00
637.72	41486.00
637.87	41291.73
638.02	41160.66
638.17	41621.75
638.32	41261.30
638.46	41411.10
638.61	41172.36
638.76	41148.96
638.91	41158.32
639.06	40753.41
639.20	40947.67
639.35	41420.46
639.50	41010.87
639.65	40919.59
639.80	41174.70
639.94	40790.86
640.09	40905.54
640.24	40107.42
640.39	40493.61
640.54	40591.91
640.68	40158.91
640.83	40327.43
640.98	40591.91
641.13	40470.20
641.27	40577.87
641.42	40725.32
641.57	40231.47
641.72	40620.00
641.86	40608.29
642.01	40498.29
642.16	40027.84
642.31	40187.00
642.45	40687.87
642.60	39636.97
642.75	40172.96
642.90	40245.51
643.04	40093.38
643.19	40287.64
643.34	40236.15
643.48	39878.05
643.63	40140.19
643.78	39842.94
643.93	40346.15
644.07	39442.71
644.22	40016.14
644.37	39768.04
644.51	39889.75
644.66	39473.13
644.81	40194.02
644.95	40109.76
645.10	40032.52
645.25	40264.24
645.39	39817.19
645.54	39866.34
645.69	39353.77
645.83	39571.44
645.98	39494.20
646.13	39651.02
646.27	39775.06
646.42	39353.77
646.57	39583.14
646.71	39477.82
646.86	39447.39
647.00	40027.84
647.15	39257.81
647.30	39548.03
647.44	39234.40
647.59	39679.10
647.74	39536.33
647.88	39037.80
648.03	39255.46
648.17	39196.95
648.32	39374.83
648.47	39042.48
648.61	39166.52
648.76	39636.97
648.90	39159.50
649.05	38663.31
649.20	39194.61
649.34	38983.96
649.49	38691.40
649.63	39225.04
649.78	39360.79
649.92	39051.84
650.07	39227.38
650.21	39093.97
650.36	39051.84
650.51	38909.07
650.65	39440.37
650.80	39367.81
650.94	39079.92
651.09	38689.06
651.23	38998.01
651.38	38770.97
651.52	38675.01
651.67	38073.49
651.81	38419.89
651.96	38368.40
652.10	38899.70
652.25	38527.56
652.39	39201.63
652.54	38810.76
652.68	38319.25
652.83	38635.22
652.97	38740.55
653.12	38773.31
653.26	37902.64
653.41	38270.10
653.55	38337.98
653.70	38576.71
653.84	38085.20
653.99	38094.56
654.13	38185.84
654.27	37935.40
654.42	38160.09
654.56	38328.61
654.71	38227.97
654.85	38143.71
655.00	38431.60
655.14	38263.08
655.29	37776.25
655.43	37612.41
655.57	37240.26
655.72	37589.00
655.86	37677.94
656.01	37270.69
656.15	37078.77
656.30	37553.90
656.44	37312.82
656.58	37511.77
656.73	37535.17
656.87	37195.79
657.01	37118.56
657.16	37308.14
657.30	37289.42
657.45	36776.84
657.59	37399.42
657.73	37347.93
657.88	37762.20
658.02	37914.34
658.16	37890.93
658.31	37841.78
658.45	37610.07
658.60	37153.66
658.74	37298.78
658.88	37130.26
659.03	37336.23
659.17	37069.40
659.31	36786.20
659.46	36732.37
659.60	36886.84
659.74	37111.53
659.89	36704.28
660.03	36788.54
660.17	36753.43
660.32	36968.76
660.46	37013.23
660.60	36556.83
660.74	36325.11
660.89	36568.53
661.03	36172.98
661.17	36194.04
661.32	36589.59
661.46	36414.05
661.60	36147.23
661.74	36297.03
661.89	36254.90
662.03	36350.86
662.17	36512.36
662.31	36215.11
662.46	36456.18
662.60	36390.65
662.74	36261.92
662.88	36350.86
663.03	35737.64
663.17	36109.78
663.31	35838.28
663.45	36041.91
663.60	35798.49
663.74	35639.34
663.88	35882.75
664.02	35522.31
664.17	35543.38
664.31	35934.24
664.45	35639.34
664.59	35718.92
664.73	35431.03
664.88	35618.27
665.02	34958.24
665.16	34768.66
665.30	34845.90
665.44	35023.78
665.59	34628.23
665.73	34937.18
665.87	34590.78
666.01	34593.12
666.15	34892.71
666.29	34562.69
666.44	34771.00
666.58	34773.34
666.72	34775.68
666.86	34567.37
667.00	34651.63
667.14	34335.66
667.28	34569.71
667.43	34522.90
667.57	34649.29
667.71	34518.22
667.85	34174.16
667.99	34270.12
668.13	34539.29
668.27	34270.12
668.41	34389.49
668.56	34216.29
668.70	33996.28
668.84	33699.03
668.98	33661.58
669.12	33797.34
669.26	33530.51
669.40	33729.46
669.54	33750.52
669.68	33556.26
669.82	33266.03
669.96	32943.04
670.10	33369.02
670.25	33212.20
670.39	32891.55
670.53	33034.32
670.67	33071.77
670.81	33275.40
670.95	32727.71
671.09	32610.68
671.23	32620.05
671.37	32950.06
671.51	32755.80
671.65	32669.20
671.79	32072.36
671.93	32662.18
672.07	32184.71
672.21	32219.81
672.35	32257.26
672.49	32329.82
672.63	32037.25
672.77	32013.85
672.91	32128.53
673.05	32266.63
673.19	31842.99
673.33	31868.73
673.47	31894.48
673.61	31679.15
673.75	31271.90
673.89	31470.84
674.03	31510.63
674.17	31810.22
674.31	31070.61
674.45	31503.61
674.59	31386.58
674.73	31639.36
674.87	31384.24
675.01	31185.30
675.15	30775.70
675.29	31164.23
675.43	30810.81
675.56	31033.16
675.70	30536.97
675.84	30717.19
675.98	29771.61
676.12	30031.41
676.26	30438.67
676.40	30501.86
676.54	30272.49
676.68	30382.49
676.82	29474.37
676.96	30286.53
677.10	29869.92
677.23	29963.54
677.37	29624.16
677.51	29745.87
677.65	29376.06
677.79	28982.85
677.93	29408.83
678.07	29074.13
678.21	28793.27
678.34	28954.77
678.48	28692.63
678.62	28294.74
678.76	28793.27
678.90	28531.13
679.04	28491.34
679.18	28671.56
679.31	28472.62
679.45	28081.75
679.59	28102.81
679.73	28266.65
679.87	27971.74
680.00	28205.80
680.14	27814.93
680.28	27875.78
680.42	27447.46
680.56	27674.49
680.70	27648.75
680.83	27269.58
680.97	27793.86
681.11	27328.10
681.25	27274.26
681.39	27318.73
681.52	27147.87
681.66	26789.77
681.80	27232.13
681.94	26960.63
682.07	26422.31
682.21	26803.82
682.35	26567.42
682.49	26621.25
682.62	26733.60
682.76	26462.10
682.90	26267.83
683.04	26106.34
683.17	26033.78
683.31	25921.43
683.45	25989.31
683.59	25811.43
683.72	25598.44
683.86	25921.43
684.00	25682.70
684.13	25181.82
684.27	25432.26
684.41	25172.46
684.55	24989.90
684.68	25223.95
684.82	25174.80
684.96	25013.31
685.09	25151.40
685.23	24690.31
685.37	24364.98
685.50	24566.26
685.64	24624.78
685.78	24566.26
685.91	24381.36
686.05	24011.56
686.19	24046.66
686.32	24006.87
686.46	23307.05
686.60	23250.88
686.73	23433.44
686.87	23414.72
687.01	23241.52
687.14	23166.62
687.28	22906.82
687.42	23484.94
687.55	23026.19
687.69	22909.16
687.82	23276.63
687.96	22902.14
688.10	22731.28
688.23	22689.15
688.37	22518.29
688.50	22597.87
688.64	22597.87
688.78	22595.53
688.91	22319.35
689.05	22108.70
689.18	22157.85
689.32	21844.22
689.46	22228.07
689.59	22445.74
689.73	21975.29
689.86	21968.27
690.00	21724.85
690.13	21853.58
690.27	21427.60
690.41	21364.41
690.54	21212.28
690.68	21394.84
690.81	21422.92
690.95	21282.49
691.08	21266.11
691.22	21144.40
691.35	21149.08
691.49	21032.05
691.62	20772.25
691.76	20711.40
691.89	20854.17
692.03	20716.08
692.16	20444.58
692.30	20517.14
692.43	20175.42
692.57	20362.66
692.70	20175.42
692.84	19985.83
692.97	19836.04
693.11	19737.74
693.24	19580.92
693.38	19559.86
693.51	19819.66
693.65	19454.53
693.78	19583.26
693.92	19543.47
694.05	19648.80
694.19	19346.87
694.32	19384.32
694.45	19421.77
694.59	19173.67
694.72	18890.46
694.86	19094.09
694.99	18740.67
695.13	18836.63
695.26	18541.72
695.39	18815.57
695.53	18670.45
695.66	18799.18
695.80	18600.24
695.93	18457.46
696.07	18370.86
696.20	18185.96
696.33	18410.65
696.47	18146.17
696.60	18066.60
696.73	17907.44
696.87	17682.75
697.00	17612.53
697.14	17593.81
697.27	17219.32
697.40	17453.37
697.54	17577.42
697.67	17282.52
697.80	17256.77
697.94	17027.40
698.07	17341.03
698.21	17118.68
698.34	17156.13
698.47	16996.97
698.61	17034.42
698.74	16683.34
698.87	17235.70
699.01	16816.75
699.14	16566.31
699.27	16177.78
699.40	16339.28
699.54	16334.60
699.67	16065.44
699.80	16152.04
699.94	16044.37
700.07	16341.62
700.20	16341.62
700.34	15901.60
700.47	15990.54
700.60	16051.39
700.73	15910.96
700.87	15948.41
701.00	15700.31
701.13	15606.69
701.26	15489.67
701.40	15506.05
701.53	15187.74
701.66	15447.54
701.79	15194.76
701.93	14965.39
702.06	15005.17
702.19	14801.55
702.32	14958.36
702.46	14920.92
702.59	15192.42
702.72	14775.80
702.85	14806.23
702.99	14633.03
703.12	14609.62
703.25	14403.66
703.38	14413.02
703.51	14501.96
703.65	14181.31
703.78	14303.01
703.91	14223.44
704.04	13977.68
704.17	14310.04
704.31	14008.11
704.44	14242.16
704.57	13942.57
704.70	14176.62
704.83	13657.03
704.96	13944.91
705.10	13607.87
705.23	13706.18
>>>>>End Processed Spectral Data<<<<<
