SpectraSuite Data File
++++++++++++++++++++++++++++++++++++
Date: Fri Oct 25 11:33:23 EDT 2013
User: price-jones
Dark Spectrum Present: No
Reference Spectrum Present: No
Number of Sampled Component Spectra: 1
Spectrometers: USB2+H05261
Integration Time (usec): 100000 (USB2+H05261)
Spectra Averaged: 1 (USB2+H05261)
Boxcar Smoothing: 0 (USB2+H05261)
Correct for Electrical Dark: No (USB2+H05261)
Strobe/Lamp Enabled: No (USB2+H05261)
Correct for Detector Non-linearity: No (USB2+H05261)
Correct for Stray Light: No (USB2+H05261)
Number of Pixels in Processed Spectrum: 2048
>>>>>Begin Processed Spectral Data<<<<<
365.73	325.33
365.92	325.33
366.12	325.33
366.32	234.05
366.52	140.43
366.72	161.50
366.91	198.95
367.11	135.75
367.31	91.28
367.51	168.52
367.70	142.77
367.90	187.24
368.10	161.50
368.30	229.37
368.49	149.79
368.69	212.99
368.89	187.24
369.09	156.82
369.28	229.37
369.48	203.63
369.68	238.73
369.87	227.03
370.07	198.95
370.27	238.73
370.47	248.10
370.66	433.00
370.86	519.60
371.06	512.58
371.25	519.60
371.45	568.75
371.65	533.64
371.84	554.71
372.04	578.11
372.24	566.41
372.44	641.31
372.63	566.41
372.83	575.77
373.03	608.54
373.22	613.22
373.42	575.77
373.62	645.99
373.81	627.26
374.01	613.22
374.21	664.71
374.40	655.35
374.60	713.86
374.79	676.41
374.99	645.99
375.19	667.05
375.38	660.03
375.58	713.86
375.78	622.58
375.97	725.57
376.17	730.25
376.37	653.01
376.56	657.69
376.76	692.80
376.95	683.44
377.15	774.72
377.35	713.86
377.54	737.27
377.74	744.29
377.93	683.44
378.13	629.60
378.33	711.52
378.52	653.01
378.72	688.12
378.91	723.23
379.11	664.71
379.31	723.23
379.50	669.39
379.70	748.97
379.89	777.06
380.09	770.04
380.28	767.70
380.48	683.44
380.68	688.12
380.87	753.65
381.07	751.31
381.26	765.36
381.46	723.23
381.65	751.31
381.85	716.20
382.04	711.52
382.24	805.14
382.43	819.19
382.63	791.10
382.83	751.31
383.02	753.65
383.22	774.72
383.41	755.99
383.61	868.34
383.80	882.38
384.00	868.34
384.19	791.10
384.39	828.55
384.58	837.91
384.78	767.70
384.97	791.10
385.17	819.19
385.36	805.14
385.56	840.25
385.75	877.70
385.95	805.14
386.14	875.36
386.34	828.55
386.53	816.85
386.72	784.08
386.92	924.51
387.11	837.91
387.31	933.87
387.50	819.19
387.70	847.27
387.89	889.40
388.09	861.32
388.28	954.94
388.48	898.77
388.67	910.47
388.86	964.30
389.06	858.98
389.25	954.94
389.45	950.26
389.64	945.58
389.84	1043.88
390.03	1064.94
390.22	990.05
390.42	964.30
390.61	936.21
390.81	952.60
391.00	992.39
391.19	1008.77
391.39	971.32
391.58	952.60
391.78	1050.90
391.97	1032.18
392.16	1022.81
392.36	1046.22
392.55	1083.67
392.75	1128.14
392.94	1043.88
393.13	1111.75
393.33	1048.56
393.52	1039.20
393.71	1107.07
393.91	1086.01
394.10	1135.16
394.29	1104.73
394.49	1123.46
394.68	1081.33
394.88	1170.27
395.07	1116.44
395.26	1130.48
395.46	1118.78
395.65	1137.50
395.84	1184.31
396.04	1144.52
396.23	1245.16
396.42	1186.65
396.62	1221.76
396.81	1228.78
397.00	1174.95
397.19	1196.01
397.39	1188.99
397.58	1219.42
397.77	1184.31
397.97	1282.61
398.16	1289.64
398.35	1282.61
398.55	1275.59
398.74	1362.19
398.93	1284.95
399.12	1324.74
399.32	1306.02
399.51	1273.25
399.70	1378.58
399.90	1324.74
400.09	1425.39
400.28	1355.17
400.47	1378.58
400.67	1387.94
400.86	1439.43
401.05	1413.68
401.24	1502.62
401.44	1444.11
401.63	1497.94
401.82	1430.07
402.01	1540.07
402.21	1586.88
402.40	1481.56
402.59	1486.24
402.78	1530.71
402.97	1519.01
403.17	1476.88
403.36	1537.73
403.55	1549.43
403.74	1568.16
403.93	1643.06
404.13	1593.90
404.32	1589.22
404.51	1519.01
404.70	1736.68
404.89	1671.14
405.09	1706.25
405.28	1652.42
405.47	1699.23
405.66	1713.27
405.85	1668.80
406.05	1671.14
406.24	1717.95
406.43	1729.66
406.62	1783.49
406.81	1881.79
407.00	1757.74
407.20	1888.81
407.39	1849.02
407.58	1874.77
407.77	1856.04
407.96	1905.20
408.15	1994.14
408.34	1895.83
408.54	1921.58
408.73	1898.17
408.92	1914.56
409.11	2031.58
409.30	1947.33
409.49	1933.28
409.68	2047.97
409.87	2064.35
410.07	2029.24
410.26	2071.37
410.45	1959.03
410.64	2031.58
410.83	2101.80
411.02	2059.67
411.21	2256.28
411.40	2097.12
411.59	2169.68
411.78	2153.29
411.98	2258.62
412.17	2235.21
412.36	2284.36
412.55	2342.88
412.74	2326.49
412.93	2375.64
413.12	2291.38
413.31	2420.11
413.50	2422.45
413.69	2347.56
413.88	2548.84
414.07	2443.52
414.26	2558.21
414.45	2434.16
414.64	2441.18
414.83	2511.39
415.02	2600.34
415.22	2628.42
415.41	2787.58
415.60	2780.56
415.79	2715.02
415.98	2803.96
416.17	2787.58
416.36	2717.36
416.55	2850.77
416.74	2839.07
416.93	2789.92
417.12	2780.56
417.31	2869.50
417.50	2841.41
417.69	3066.10
417.88	2953.76
418.07	2965.46
418.26	3014.61
418.45	3040.36
418.64	3098.87
418.83	3042.70
419.02	3054.40
419.21	3091.85
419.39	3150.36
419.58	2981.84
419.77	3077.80
419.96	3178.45
420.15	3103.55
420.34	3248.66
420.53	3281.43
420.72	3143.34
420.91	3164.40
421.10	3274.41
421.29	3269.73
421.48	3300.16
421.67	3272.07
421.86	3283.77
422.05	3372.71
422.24	3318.88
422.43	3328.24
422.61	3417.18
422.80	3557.61
422.99	3265.05
423.18	3389.10
423.37	3356.33
423.56	3445.27
423.75	3440.59
423.94	3342.28
424.13	3258.03
424.32	3269.73
424.50	3449.95
424.69	3461.65
424.88	3581.02
425.07	3442.93
425.26	3328.24
425.45	3456.97
425.64	3382.07
425.83	3365.69
426.01	3403.14
426.20	3592.72
426.39	3618.47
426.58	3494.42
426.77	3375.05
426.96	3515.48
427.15	3599.74
427.33	3466.33
427.52	3581.02
427.71	3623.15
427.90	3597.40
428.09	3569.32
428.28	3716.77
428.46	3702.73
428.65	3779.97
428.84	3763.58
429.03	3796.35
429.22	3700.39
429.40	3765.92
429.59	3740.18
429.78	3761.24
429.97	3625.49
430.16	3646.55
430.34	3871.25
430.53	3946.14
430.72	3896.99
430.91	3911.04
431.10	3871.25
431.28	3960.19
431.47	4025.72
431.66	4065.51
431.85	3964.87
432.03	4056.15
432.22	4117.00
432.41	4102.96
432.60	4009.34
432.79	4131.05
432.97	4072.53
433.16	4236.37
433.35	4210.62
433.54	4121.68
433.72	4119.34
433.91	4217.65
434.10	4189.56
434.28	4142.75
434.47	4234.03
434.66	4311.27
434.85	4329.99
435.03	4400.21
435.22	4348.72
435.41	4498.51
435.59	4334.67
435.78	4461.06
435.97	4468.08
436.16	4517.23
436.34	4339.35
436.53	4404.89
436.72	4554.68
436.90	4468.08
437.09	4613.20
437.28	4507.87
437.46	4430.63
437.65	4589.79
437.84	4671.71
438.02	4580.43
438.21	4643.62
438.40	4751.29
438.58	4746.61
438.77	4809.80
438.96	4774.69
439.14	4894.06
439.33	4875.34
439.52	4959.60
439.70	4954.91
439.89	5111.73
440.08	4903.42
440.26	5046.20
440.45	5090.67
440.63	5200.67
440.82	5121.09
441.01	5172.58
441.19	5151.52
441.38	5322.38
441.57	5242.80
441.75	5383.23
441.94	5390.25
442.12	5380.89
442.31	5565.79
442.50	5523.66
442.68	5530.69
442.87	5413.66
443.05	5472.17
443.24	5617.29
443.43	5462.81
443.61	5626.65
443.80	5556.43
443.98	5638.35
444.17	5380.89
444.35	5659.42
444.54	5645.37
444.73	5582.18
444.91	5673.46
445.10	5661.76
445.28	5860.70
445.47	5664.10
445.65	5741.33
445.84	5900.49
446.02	5881.77
446.21	5701.54
446.39	5778.78
446.58	5741.33
446.77	5811.55
446.95	5645.37
447.14	5689.84
447.32	5905.17
447.51	5767.08
447.69	5645.37
447.88	5741.33
448.06	5785.80
448.25	5734.31
448.43	5998.79
448.62	5748.36
448.80	5851.34
448.99	5970.71
449.17	5980.07
449.36	6064.33
449.54	6012.84
449.73	6157.95
449.91	6256.25
450.10	6118.16
450.28	6221.14
450.46	6296.04
450.65	6242.21
450.83	6118.16
451.02	6164.97
451.20	6162.63
451.39	6129.86
451.57	6277.32
451.76	6211.78
451.94	6445.84
452.13	6389.66
452.31	6307.74
452.49	6218.80
452.68	6406.05
452.86	6310.08
453.05	6429.45
453.23	6464.56
453.42	6209.44
453.60	6368.60
453.78	6415.41
453.97	6413.07
454.15	6452.86
454.34	6555.84
454.52	6537.12
454.70	6539.46
454.89	6478.60
455.07	6691.59
455.26	6736.06
455.44	6672.87
455.62	6747.76
455.81	6698.61
455.99	6785.21
456.17	6817.98
456.36	6799.26
456.54	6651.80
456.73	6885.86
456.91	7082.46
457.09	7187.79
457.28	7185.44
457.46	7073.10
457.64	7166.72
457.83	7213.53
458.01	6806.28
458.19	7201.83
458.38	7335.24
458.56	7232.26
458.74	7126.93
458.93	7335.24
459.11	7215.87
459.29	7426.52
459.48	7339.92
459.66	7227.57
459.84	7487.37
460.03	7569.29
460.21	7344.60
460.39	7335.24
460.57	7613.76
460.76	7658.23
460.94	7569.29
461.12	7644.19
461.31	7606.74
461.49	7623.12
461.67	7452.27
461.85	7688.66
462.04	7698.02
462.22	8182.51
462.40	8042.08
462.59	7733.13
462.77	7918.03
462.95	7955.48
463.13	7634.83
463.32	7871.22
463.50	8051.44
463.68	7974.21
463.86	7995.27
464.05	7908.67
464.23	8098.25
464.41	8086.55
464.59	7705.04
464.78	8229.32
464.96	8072.51
465.14	8154.43
465.32	8124.00
465.50	8248.05
465.69	8154.43
465.87	8023.36
466.05	8203.58
466.23	8184.85
466.41	8304.22
466.60	8507.85
466.78	8159.11
466.96	8184.85
467.14	8217.62
467.32	8369.76
467.51	8437.63
467.69	8299.54
467.87	8402.52
468.05	8559.34
468.23	8442.31
468.41	8500.83
468.60	8596.79
468.78	8741.90
468.96	8631.90
469.14	8767.65
469.32	8692.75
469.50	8484.44
469.69	8667.00
469.87	8685.73
470.05	8800.41
470.23	8844.88
470.41	9013.40
470.59	9055.53
470.77	8847.22
470.95	8844.88
471.14	9078.94
471.32	8690.41
471.50	9062.55
471.68	8919.78
471.86	9032.13
472.04	9195.96
472.22	9291.93
472.40	9240.44
472.58	9142.13
472.77	9448.74
472.95	9366.82
473.13	9654.71
473.31	9451.08
473.49	9493.21
473.67	9357.46
473.85	9322.35
474.03	9818.55
474.21	9750.67
474.39	9902.81
474.57	9769.40
474.75	10073.67
474.93	9991.75
475.12	9954.30
475.30	10214.10
475.48	10108.77
475.66	10057.28
475.84	10242.18
476.02	10291.34
476.20	10298.36
476.38	10324.10
476.56	10766.46
476.74	10670.50
476.92	10661.14
477.10	10572.20
477.28	10832.00
477.46	10827.32
477.64	10876.47
477.82	11274.36
478.00	11461.60
478.18	11124.57
478.36	11255.64
478.54	11337.56
478.72	11353.94
478.90	11517.78
479.08	11793.96
479.26	11786.94
479.44	11667.57
479.62	12037.38
479.80	12070.14
479.98	11978.86
480.16	12301.86
480.34	12290.15
480.52	12592.08
480.70	12496.12
480.88	12252.70
481.06	12421.22
481.24	12620.17
481.41	12683.36
481.59	12812.09
481.77	12886.99
481.95	13076.57
482.13	13104.66
482.31	12856.56
482.49	13462.76
482.67	13397.23
482.85	13617.24
483.03	13650.00
483.21	13647.66
483.39	13834.91
483.57	13584.47
483.74	13729.58
483.92	14052.58
484.10	13961.30
484.28	14384.93
484.46	14595.58
484.64	14808.57
484.82	14703.25
485.00	14796.87
485.18	14831.97
485.35	15229.87
485.53	15054.33
485.71	15192.42
485.89	15372.64
486.07	15330.51
486.25	15419.45
486.43	15735.42
486.61	15782.23
486.78	15953.09
486.96	16189.49
487.14	15983.52
487.32	16414.18
487.50	16554.61
487.68	16631.85
487.85	16603.76
488.03	16697.38
488.21	17132.72
488.39	17163.15
488.57	17163.15
488.75	17268.47
488.92	17664.02
489.10	17823.18
489.28	17633.60
489.46	17905.10
489.64	17642.96
489.81	18359.16
489.99	18492.57
490.17	18249.16
490.35	18422.36
490.53	18902.17
490.70	18803.86
490.88	18441.08
491.06	19124.52
491.24	19080.05
491.41	19206.44
491.59	19541.13
491.77	19517.73
491.95	19639.44
492.13	19576.24
492.30	19864.13
492.48	19885.19
492.66	19950.73
492.84	19983.49
493.01	20273.72
493.19	20397.77
493.37	20397.77
493.54	20706.72
493.72	20767.57
493.90	20500.75
494.08	21212.28
494.25	21310.58
494.43	20826.09
494.61	21310.58
494.79	21378.45
494.96	21336.32
495.14	21532.93
495.32	21818.47
495.49	21886.35
495.67	22012.74
495.85	22001.04
496.02	22368.50
496.20	22750.01
496.38	22728.94
496.55	22735.96
496.73	22995.76
496.91	22721.92
497.09	22941.93
497.26	23152.58
497.44	22860.01
497.62	23309.40
497.79	23597.28
497.97	23323.44
498.14	23910.91
498.32	24231.57
498.50	23786.86
498.67	24283.06
498.85	24278.38
499.03	24332.21
499.20	24449.24
499.38	24432.85
499.56	24453.92
499.73	24580.31
499.91	24917.34
500.08	24879.89
500.26	24793.29
500.44	24786.27
500.61	24769.89
500.79	24797.98
500.97	24861.17
501.14	25542.27
501.32	25722.49
501.49	25516.52
501.67	25490.77
501.84	25858.24
502.02	25818.45
502.20	25507.16
502.37	25895.69
502.55	25879.30
502.72	25898.03
502.90	26342.73
503.07	26101.65
503.25	26422.31
503.43	26396.56
503.60	26689.13
503.78	26611.89
503.95	26593.17
504.13	26773.39
504.30	26871.69
504.48	26731.26
504.65	27058.93
504.83	27229.79
505.01	27463.85
505.18	27021.48
505.36	27213.41
505.53	27267.24
505.71	27630.02
505.88	27604.28
506.06	27569.17
506.23	27686.20
506.41	27679.18
506.58	28009.19
506.76	28065.36
506.93	28360.27
507.11	28133.24
507.28	28299.42
507.46	28119.20
507.63	28346.23
507.81	29024.98
507.98	28744.12
508.16	28603.69
508.33	28591.98
508.50	29322.23
508.68	29156.05
508.85	29104.56
509.03	28931.36
509.20	29333.93
509.38	29420.53
509.55	29425.22
509.73	29626.50
509.90	29645.23
510.08	29895.66
510.25	29532.88
510.42	29979.92
510.60	29638.20
510.77	29790.34
510.95	30441.01
511.12	30080.56
511.30	30127.38
511.47	30403.56
511.64	30108.65
511.82	30478.46
511.99	30445.69
512.17	30696.13
512.34	30754.64
512.51	31122.10
512.69	31098.70
512.86	31070.61
513.04	31159.55
513.21	31091.68
513.38	31337.43
513.56	31101.04
513.73	31372.54
513.90	31276.58
514.08	30852.94
514.25	31571.49
514.43	31302.32
514.60	31962.36
514.77	31779.79
514.95	31796.18
515.12	31934.27
515.29	31800.86
515.47	32423.44
515.64	32027.89
515.81	32109.81
515.99	32950.06
516.16	32694.94
516.33	32559.19
516.51	32842.40
516.68	32182.37
516.85	32706.65
517.03	32734.73
517.20	33067.09
517.37	32802.61
517.54	32685.58
517.72	33181.77
517.89	33284.76
518.06	33195.82
518.24	33219.22
518.41	33240.29
518.58	33706.05
518.75	33191.14
518.93	33481.36
519.10	33432.21
519.27	33991.60
519.45	33802.02
519.62	33584.35
519.79	34057.14
519.96	34000.96
520.14	34450.35
520.31	34267.78
520.48	34146.08
520.65	34202.25
520.83	34855.26
521.00	34646.95
521.17	34501.84
521.34	34609.50
521.52	34782.70
521.69	34728.87
521.86	34998.03
522.03	34859.94
522.20	35117.40
522.38	35515.29
522.55	35311.66
522.72	35470.82
522.89	35475.50
523.07	35578.48
523.24	35147.82
523.41	35405.28
523.58	35452.09
523.75	35945.95
523.92	35601.89
524.10	35859.35
524.27	35896.80
524.44	35842.96
524.61	36144.89
524.78	36070.00
524.96	36133.19
525.13	36077.02
525.30	36584.91
525.47	36238.51
525.64	36212.77
525.81	36723.01
525.98	36414.05
526.16	36760.45
526.33	36631.72
526.50	36327.45
526.67	36463.21
526.84	36825.99
527.01	36549.81
527.18	37165.37
527.36	37141.96
527.53	37366.65
527.70	37338.57
527.87	37298.78
528.04	37034.30
528.21	37378.36
528.38	37266.01
528.55	37514.11
528.72	37483.68
528.89	37436.87
529.07	37324.52
529.24	37106.85
529.41	37507.08
529.58	37745.82
529.75	37916.68
529.92	37855.82
530.09	37879.23
530.26	37916.68
530.43	38005.62
530.60	38033.71
530.77	37855.82
530.94	37975.19
531.11	38302.87
531.28	38155.41
531.46	38380.10
531.63	38770.97
531.80	38401.17
531.97	38192.86
532.14	38546.28
532.31	38443.30
532.48	38756.93
532.65	38803.74
532.82	38611.82
532.99	38691.40
533.16	38682.03
533.33	39077.58
533.50	39058.86
533.67	39143.12
533.84	38939.49
534.01	39000.35
534.18	39311.64
534.35	39578.46
534.52	39318.66
534.69	39772.72
534.86	39892.09
535.03	39569.10
535.20	40051.25
535.37	39782.09
535.54	40184.66
535.71	39882.73
535.88	40030.18
536.05	39873.37
536.22	39931.88
536.38	40039.54
536.55	40182.32
536.72	40091.04
536.89	39887.41
537.06	39674.42
537.23	40320.41
537.40	39948.26
537.57	40388.28
537.74	40325.09
537.91	40762.77
538.08	40549.78
538.25	40540.42
538.42	40605.95
538.59	40526.38
538.75	40315.73
538.92	41031.93
539.09	40617.66
539.26	40657.45
539.43	40837.67
539.60	41053.00
539.77	40549.78
539.94	41474.29
540.11	40484.25
540.28	41209.81
540.44	41102.15
540.61	41036.61
540.78	41057.68
540.95	41280.03
541.12	41069.38
541.29	40968.74
541.46	41256.62
541.62	41343.22
541.79	41668.56
541.96	40968.74
542.13	41048.32
542.30	41464.93
542.47	41591.32
542.63	41514.08
542.80	42143.69
542.97	42251.35
543.14	42487.74
543.31	42141.35
543.48	41820.69
543.64	42462.00
543.81	42452.64
543.98	41926.02
544.15	42209.22
544.32	43217.99
544.48	42855.21
544.65	42878.61
544.82	42653.92
544.99	42293.48
545.16	42838.83
545.32	42403.49
545.49	43035.43
545.66	42969.90
545.83	43023.73
546.00	43016.71
546.16	42684.35
546.33	42920.74
546.50	42689.03
546.67	42887.98
546.83	42733.50
547.00	43047.13
547.17	42726.48
547.34	43019.05
547.50	43414.60
547.67	43969.30
547.84	43040.11
548.00	43346.72
548.17	44046.54
548.34	43871.00
548.51	43693.12
548.67	43512.90
548.84	43669.72
549.01	43297.57
549.18	43578.43
549.34	43805.47
549.51	44023.14
549.68	43545.67
549.84	43559.71
550.01	44018.46
550.18	43676.74
550.34	43768.02
550.51	43992.71
550.68	44151.87
550.84	43700.14
551.01	44296.98
551.18	43917.81
551.34	44002.07
551.51	44205.70
551.68	44229.10
551.84	44006.75
552.01	44032.50
552.18	44334.43
552.34	44086.33
552.51	44378.90
552.68	44245.49
552.84	44758.06
553.01	44498.26
553.18	44428.05
553.34	44886.79
553.51	44465.50
553.67	44603.59
553.84	44516.99
554.01	44978.07
554.17	44568.48
554.34	45170.00
554.51	44744.02
554.67	44781.47
554.84	45064.67
555.00	45153.62
555.17	44559.12
555.33	45148.93
555.50	45057.65
555.67	45209.79
555.83	45387.67
556.00	45212.13
556.16	45715.34
556.33	45326.81
556.50	45024.89
556.66	45043.61
556.83	44968.71
556.99	45146.59
557.16	45277.66
557.32	45610.02
557.49	45111.49
557.65	45270.64
557.82	45289.37
557.98	45497.67
558.15	45254.26
558.32	45631.08
558.48	45326.81
558.65	45663.85
558.81	45701.30
558.98	45673.21
559.14	45420.44
559.31	45818.33
559.47	45785.56
559.64	45914.29
559.80	45359.58
559.97	45509.38
560.13	45811.31
560.30	46108.55
560.46	45830.03
560.63	45862.80
560.79	46185.79
560.96	45780.88
561.12	46337.93
561.29	45949.40
561.45	46305.16
561.61	45851.09
561.78	45713.00
561.94	45769.18
562.11	45544.48
562.27	45783.22
562.44	45844.07
562.60	46403.46
562.77	46256.01
562.93	45925.99
563.10	46447.93
563.26	46024.29
563.42	46433.89
563.59	45975.14
563.75	46153.02
563.92	46321.54
564.08	46557.94
564.24	46483.04
564.41	46440.91
564.57	46300.48
564.74	46426.87
564.90	46073.45
565.07	45991.53
565.23	46775.61
565.39	46447.93
565.56	46508.79
565.72	46412.82
565.88	46667.94
566.05	46607.09
566.21	46600.07
566.38	46714.75
566.54	46389.42
566.70	46670.28
566.87	46513.47
567.03	46361.33
567.19	46586.02
567.36	46738.16
567.52	46665.60
567.68	46801.35
567.85	47110.30
568.01	46878.59
568.17	46906.68
568.34	46644.54
568.50	46693.69
568.66	46934.76
568.83	46883.27
568.99	46923.06
569.15	46632.83
569.32	46609.43
569.48	46326.22
569.64	46843.48
569.81	46866.89
569.97	47058.81
570.13	47208.61
570.30	46674.96
570.46	47054.13
570.62	47143.07
570.78	46614.11
570.95	46899.65
571.11	47063.49
571.27	47311.59
571.43	46843.48
571.60	46609.43
571.76	46909.02
571.92	46838.80
572.09	46902.00
572.25	46820.08
572.41	47217.97
572.57	47173.50
572.74	47566.71
572.90	47316.27
573.06	47164.14
573.22	47386.49
573.38	47290.52
573.55	46791.99
573.71	47480.11
573.87	47454.36
574.03	47122.01
574.20	47573.73
574.36	47026.04
574.52	47433.30
574.68	47154.77
574.84	47709.48
575.01	47363.08
575.17	47079.88
575.33	47526.92
575.49	47182.86
575.65	47381.80
575.82	46873.91
575.98	47086.90
576.14	47501.17
576.30	47351.38
576.46	47419.25
576.62	47402.87
576.79	47306.91
576.95	47152.43
577.11	47210.95
577.27	47344.36
577.43	47566.71
577.59	47501.17
577.75	47473.09
577.92	46958.17
578.08	47562.03
578.24	47236.69
578.40	47559.69
578.56	47356.06
578.72	47777.36
578.88	47459.04
579.04	47519.90
579.21	47475.43
579.37	47484.79
579.53	47435.64
579.69	47316.27
579.85	47250.74
580.01	47405.21
580.17	47445.00
580.33	47489.47
580.49	47566.71
580.65	47447.34
580.82	47547.98
580.98	47342.02
581.14	47311.59
581.30	47679.05
581.46	47033.07
581.62	47346.70
581.78	47217.97
581.94	47613.52
582.10	47564.37
582.26	47866.30
582.42	47735.23
582.58	47405.21
582.74	47264.78
582.90	48011.41
583.06	47964.60
583.22	47517.56
583.38	47533.94
583.54	47838.21
583.70	47889.70
583.86	47868.64
584.02	47629.90
584.18	47777.36
584.34	47756.29
584.50	47847.57
584.66	48011.41
584.82	47721.18
584.98	47852.25
585.14	48030.13
585.30	47353.72
585.46	47419.25
585.62	47262.44
585.78	47634.58
585.94	47356.06
586.10	47608.84
586.26	47098.60
586.42	47613.52
586.58	47686.07
586.74	47732.89
586.90	47676.71
587.06	47398.19
587.22	47973.96
587.38	47482.45
587.54	47936.51
587.70	48502.92
587.86	47807.78
588.02	47690.76
588.18	47859.27
588.34	47976.30
588.49	47896.72
588.65	47543.30
588.81	47920.13
588.97	47861.61
589.13	47880.34
589.29	47927.15
589.45	47917.79
589.61	47880.34
589.77	48030.13
589.93	47746.93
590.08	47866.30
590.24	48327.38
590.40	48643.35
590.56	48048.86
590.72	47892.04
590.88	47833.53
591.04	47681.39
591.20	48296.95
591.35	48212.70
591.51	48542.71
591.67	48514.62
591.83	48266.53
591.99	48149.50
592.15	48067.58
592.31	48435.05
592.46	48325.04
592.62	48271.21
592.78	48184.61
592.94	48610.59
593.10	48629.31
593.26	48238.44
593.41	48339.08
593.57	48060.56
593.73	48231.42
593.89	48694.85
594.05	48222.06
594.20	48678.46
594.36	48729.95
594.52	48388.24
594.68	48425.68
594.84	48034.81
594.99	48650.38
595.15	48142.48
595.31	48531.01
595.47	48196.31
595.62	48336.74
595.78	48299.30
595.94	48493.56
596.10	48486.54
596.25	48851.66
596.41	48580.16
596.57	48580.16
596.73	48795.49
596.88	48542.71
597.04	48879.75
597.20	48456.11
597.36	48254.82
597.51	48446.75
597.67	48456.11
597.83	48357.81
597.99	48240.78
598.14	48467.81
598.30	48418.66
598.46	48238.44
598.61	48289.93
598.77	48559.09
598.93	48233.76
599.09	48870.39
599.24	48596.54
599.40	48446.75
599.56	48531.01
599.71	48715.91
599.87	49092.74
600.03	48753.36
600.18	48584.84
600.34	48500.58
600.50	48580.16
600.65	48877.41
600.81	48755.70
600.97	48748.68
601.12	48280.57
601.28	48692.50
601.44	48545.05
601.59	48582.50
601.75	48346.11
601.91	48549.73
602.06	48715.91
602.22	48676.12
602.37	48343.77
602.53	48657.40
602.69	48594.20
602.84	48477.18
603.00	48392.92
603.16	48863.36
603.31	48816.55
603.47	49022.52
603.62	48505.26
603.78	48509.94
603.94	48521.65
604.09	48554.41
604.25	48369.51
604.40	48547.39
604.56	48823.58
604.71	48608.25
604.87	48467.81
605.03	48320.36
605.18	48779.10
605.34	48783.79
605.49	48477.18
605.65	48683.14
605.80	48222.06
605.96	48486.54
606.12	48491.22
606.27	48491.22
606.43	48285.25
606.58	48783.79
606.74	48580.16
606.89	48439.73
607.05	48404.62
607.20	48772.08
607.36	48142.48
607.51	48545.05
607.67	48051.20
607.82	48439.73
607.98	48638.67
608.13	48516.96
608.29	47983.32
608.44	48261.85
608.60	48268.87
608.75	48343.77
608.91	48339.08
609.06	48477.18
609.22	48456.11
609.37	48215.04
609.53	48168.22
609.68	48486.54
609.84	48149.50
609.99	48217.38
610.15	48350.79
610.30	48589.52
610.46	48332.06
610.61	48165.88
610.76	48484.20
610.92	48250.14
611.07	47870.98
611.23	47732.89
611.38	48311.00
611.54	48268.87
611.69	48273.55
611.84	48313.34
612.00	47903.74
612.15	47847.57
612.31	48280.57
612.46	47807.78
612.62	47952.90
612.77	47948.21
612.92	48296.95
613.08	47686.07
613.23	47606.50
613.39	48051.20
613.54	47892.04
613.69	48222.06
613.85	48268.87
614.00	48236.10
614.15	48296.95
614.31	47739.91
614.46	47938.85
614.62	47899.06
614.77	47536.28
614.92	47896.72
615.08	47796.08
615.23	47938.85
615.38	47908.43
615.54	48069.92
615.69	47791.40
615.84	48067.58
616.00	47845.23
616.15	47955.24
616.30	47873.32
616.46	47646.29
616.61	47756.29
616.76	47585.43
616.92	47927.15
617.07	47639.26
617.22	47473.09
617.37	47189.88
617.53	48301.64
617.68	47896.72
617.83	47339.68
617.99	47931.83
618.14	47856.93
618.29	47367.76
618.45	47433.30
618.60	47229.67
618.75	46534.53
618.90	47304.57
619.06	47229.67
619.21	47342.02
619.36	47817.14
619.51	47339.68
619.67	47304.57
619.82	47236.69
619.97	47679.05
620.12	47325.63
620.28	47217.97
620.43	47559.69
620.58	47695.44
620.73	47309.25
620.89	47571.39
621.04	47449.68
621.19	46948.81
621.34	47285.84
621.49	47255.42
621.65	47445.00
621.80	47475.43
621.95	47246.05
622.10	47021.36
622.25	47173.50
622.41	46848.16
622.56	46822.42
622.71	46965.19
622.86	47421.59
623.01	47267.12
623.16	46726.46
623.32	47386.49
623.47	46726.46
623.62	46836.46
623.77	47173.50
623.92	46955.83
624.07	47042.43
624.23	47070.51
624.38	46937.10
624.53	46436.23
624.68	46380.06
624.83	46356.65
624.98	46635.17
625.13	46665.60
625.29	46581.34
625.44	46398.78
625.59	46370.69
625.74	46569.64
625.89	46424.53
626.04	46307.50
626.19	46281.75
626.34	46344.95
626.49	46066.42
626.65	46213.88
626.80	46426.87
626.95	46127.28
627.10	46000.89
627.25	46344.95
627.40	46604.75
627.55	46340.27
627.70	46436.23
627.85	46454.95
628.00	46223.24
628.15	46698.37
628.30	45600.66
628.45	45996.21
628.60	45750.45
628.76	45879.18
628.91	45914.29
629.06	46038.34
629.21	45790.24
629.36	46129.62
629.51	45708.32
629.66	46361.33
629.81	45834.71
629.96	45909.61
630.11	45546.82
630.26	45691.94
630.41	45748.11
630.56	45336.18
630.71	45743.43
630.86	45762.15
631.01	45635.77
631.16	45677.90
631.31	45563.21
631.46	45790.24
631.61	45790.24
631.76	45551.51
631.91	45776.20
632.06	45928.33
632.21	46197.49
632.36	45914.29
632.51	45209.79
632.66	45736.41
632.81	45654.49
632.96	45612.36
633.10	45214.47
633.25	45717.68
633.40	45626.40
633.55	45052.97
633.70	45146.59
633.85	45399.37
634.00	45024.89
634.15	45097.44
634.30	44978.07
634.45	44982.76
634.60	45408.73
634.75	45104.46
634.90	45488.31
635.05	45413.41
635.19	45111.49
635.34	45368.94
635.49	45155.96
635.64	44776.79
635.79	45350.22
635.94	45525.76
636.09	45261.28
636.24	45408.73
636.39	44737.00
636.53	44596.57
636.68	44610.61
636.83	44566.14
636.98	44589.55
637.13	44619.97
637.28	44739.34
637.43	44582.52
637.57	44641.04
637.72	44151.87
637.87	44772.11
638.02	44432.73
638.17	44657.42
638.32	44626.99
638.46	44055.90
638.61	44037.18
638.76	44292.30
638.91	43955.26
639.06	44301.66
639.20	43957.60
639.35	44205.70
639.50	44100.37
639.65	43941.22
639.80	44261.87
639.94	44762.75
640.09	44170.59
640.24	44509.97
640.39	43777.38
640.54	44266.55
640.68	44109.74
640.83	44112.08
640.98	43866.32
641.13	43590.14
641.27	44287.62
641.42	44102.71
641.57	43913.13
641.72	43824.19
641.86	43721.21
642.01	43461.41
642.16	43704.82
642.31	43093.94
642.45	43611.20
642.60	43421.62
642.75	43353.74
642.90	43861.64
643.04	43618.22
643.19	43543.33
643.34	43318.64
643.48	43159.48
643.63	43555.03
643.78	43349.06
643.93	43772.70
644.07	43538.65
644.22	43480.13
644.37	43442.68
644.51	43409.92
644.66	43400.55
644.81	43419.28
644.95	43313.95
645.10	43330.34
645.25	43042.45
645.39	43328.00
645.54	43005.00
645.69	42974.58
645.83	43040.11
645.98	42719.46
646.13	43260.12
646.27	43225.01
646.42	42864.57
646.57	42972.24
646.71	43409.92
646.86	43040.11
647.00	42773.29
647.15	42958.19
647.30	42850.53
647.44	42834.14
647.59	43075.22
647.74	43061.18
647.88	43290.55
648.03	43248.42
648.17	43119.69
648.32	43178.20
648.47	43178.20
648.61	42576.69
648.76	42777.97
648.90	42485.40
649.05	42433.91
649.20	42855.21
649.34	42806.06
649.49	42593.07
649.63	42644.56
649.78	42696.05
649.92	43077.56
650.07	42696.05
650.21	42649.24
650.36	42995.64
650.51	42773.29
650.65	42817.76
650.80	42859.89
650.94	42499.45
651.09	42644.56
651.23	42106.24
651.38	42281.78
651.52	42089.85
651.67	42412.85
651.81	42129.64
651.96	42639.88
652.10	41729.41
652.25	41881.55
652.39	42195.18
652.54	42181.13
652.68	41949.42
652.83	42052.41
652.97	42581.37
653.12	41535.15
653.26	41783.24
653.41	41881.55
653.55	42167.09
653.70	42167.09
653.84	41867.50
653.99	42625.84
654.13	41881.55
654.27	41968.15
654.42	41874.52
654.56	41897.93
654.71	41944.74
654.85	41757.50
655.00	42223.26
655.14	41993.89
655.29	42237.31
655.43	41694.30
655.57	41893.25
655.72	41654.51
655.86	41537.49
656.01	41223.86
656.15	41265.99
656.30	41460.25
656.44	41801.97
656.58	41621.75
656.73	41794.95
656.87	41226.20
657.01	41488.34
657.16	41216.83
657.30	41750.48
657.45	41364.29
657.59	41172.36
657.73	40718.30
657.88	42012.62
658.02	41322.16
658.16	41581.96
658.31	41226.20
658.45	41212.15
658.60	40561.48
658.74	40978.10
658.88	40751.07
659.03	40615.32
659.17	41118.53
659.31	40392.97
659.46	40842.35
659.60	40746.39
659.74	40594.25
659.89	40191.68
660.03	40271.26
660.17	40554.46
660.32	40421.05
660.46	40409.35
660.60	40208.06
660.74	40163.59
660.89	40381.26
661.03	40133.17
661.17	39672.08
661.32	40247.85
661.46	40196.36
661.60	40247.85
661.74	39833.58
661.89	39838.26
662.03	39828.90
662.17	39913.16
662.31	39573.78
662.46	39859.32
662.60	39948.26
662.74	39356.11
662.88	39138.44
663.03	39510.58
663.17	39166.52
663.31	39433.35
663.45	39328.02
663.60	39412.28
663.74	39264.83
663.88	39372.49
664.02	39105.67
664.17	39241.42
664.31	38810.76
664.45	38944.17
664.59	38916.09
664.73	38616.50
664.88	39239.08
665.02	38436.28
665.16	38541.60
665.30	38581.39
665.44	38785.02
665.59	38284.14
665.73	38438.62
665.87	37916.68
666.01	38452.66
666.15	38490.11
666.29	38443.30
666.44	38553.30
666.58	38579.05
666.72	38204.56
666.86	38089.88
667.00	38059.45
667.14	38110.94
667.28	38089.88
667.43	37675.60
667.57	37673.26
667.71	37951.79
667.85	38110.94
667.99	37558.58
668.13	37343.25
668.27	37020.25
668.41	37427.51
668.56	37137.28
668.70	37027.28
668.84	37170.05
668.98	37109.19
669.12	37123.24
669.26	36952.38
669.40	37017.91
669.54	36943.02
669.68	36701.94
669.82	36503.00
669.96	36676.19
670.10	36252.56
670.25	36299.37
670.39	36540.44
670.53	36617.68
670.67	36591.94
670.81	36638.75
670.95	36479.59
671.09	36229.15
671.23	35959.99
671.37	36151.91
671.51	36161.28
671.65	35997.44
671.79	36034.89
671.93	36013.82
672.07	35707.21
672.21	35798.49
672.35	35697.85
672.49	35234.42
672.63	35384.22
672.77	35161.87
672.91	35735.30
673.05	35253.15
673.19	35377.20
673.33	34923.13
673.47	34576.73
673.61	34817.81
673.75	34520.56
673.89	34827.17
674.03	34340.34
674.17	34302.89
674.31	34696.10
674.45	34478.43
674.59	34579.07
674.73	33780.95
674.87	33928.41
675.01	33993.94
675.15	33582.01
675.29	33902.66
675.43	33743.50
675.56	34012.66
675.70	33642.86
675.84	33352.63
675.98	32760.48
676.12	33329.23
676.26	33642.86
676.40	32947.72
676.54	32870.48
676.68	32968.79
676.82	32797.93
676.96	32844.74
677.10	33259.01
677.23	32816.65
677.37	32615.37
677.51	32479.61
677.65	32283.01
677.79	32535.79
677.93	32254.92
678.07	32266.63
678.21	32355.57
678.34	31679.15
678.48	31763.41
678.62	31828.95
678.76	31714.26
678.90	31566.81
679.04	31192.32
679.18	31812.56
679.31	31257.85
679.45	31328.07
679.59	30848.26
679.73	30815.49
679.87	30724.21
680.00	30960.61
680.14	30572.08
680.28	30885.71
680.42	31101.04
680.56	30878.69
680.70	30115.67
680.83	30155.46
680.97	30202.27
681.11	30347.39
681.25	30017.37
681.39	29881.62
681.52	29399.47
681.66	29441.60
681.80	28978.17
681.94	29123.29
682.07	29186.48
682.21	28797.95
682.35	29123.29
682.49	29041.37
682.62	28886.89
682.76	29174.78
682.90	28905.62
683.04	28449.21
683.17	28517.09
683.31	28758.16
683.45	28549.85
683.59	28259.63
683.72	27725.99
683.86	27819.61
684.00	27990.47
684.13	27929.61
684.27	27452.14
684.41	27924.93
684.55	27356.18
684.68	27122.13
684.82	27447.46
684.96	27424.06
685.09	27405.33
685.23	27571.51
685.37	27597.26
685.50	27377.25
685.64	26852.97
685.78	26522.95
685.91	26714.87
686.05	26401.24
686.19	26019.74
686.32	26511.25
686.46	26242.09
686.60	26075.91
686.73	25944.84
686.87	26214.00
687.01	25846.54
687.14	25930.80
687.28	25617.16
687.42	25940.16
687.55	25383.11
687.69	25748.23
687.82	25198.21
687.96	25102.25
688.10	25245.02
688.23	25104.59
688.37	25247.36
688.50	25092.88
688.64	24863.51
688.78	24629.46
688.91	24652.86
689.05	24346.25
689.18	24240.93
689.32	23566.85
689.46	24105.18
689.59	24140.29
689.73	24381.36
689.86	24088.79
690.00	23871.12
690.13	23618.35
690.27	23709.63
690.41	23852.40
690.54	23384.29
690.68	23178.33
690.81	23239.18
690.95	23021.51
691.08	23150.24
691.22	22632.98
691.35	22932.57
691.49	23096.41
691.62	22941.93
691.76	22478.50
691.89	22396.59
692.03	22207.00
692.16	22375.52
692.30	22452.76
692.43	21921.46
692.57	21912.10
692.70	22052.53
692.84	22094.66
692.97	21682.72
693.11	21579.74
693.24	21266.11
693.38	21369.09
693.51	20889.28
693.65	21259.09
693.78	20982.90
693.92	20835.45
694.05	20809.70
694.19	20816.72
694.32	20575.65
694.45	20819.07
694.59	21120.99
694.72	20671.61
694.86	20238.61
694.99	20475.01
695.13	20201.16
695.26	20308.83
695.39	20032.65
695.53	19765.82
695.66	19908.60
695.80	19791.57
695.93	19447.51
696.07	19587.94
696.20	19379.64
696.33	18963.02
696.47	19168.99
696.60	19068.34
696.73	19269.63
696.87	19297.72
697.00	19143.24
697.14	19159.63
697.27	18642.37
697.40	18427.04
697.54	18944.30
697.67	18581.51
697.80	18665.77
697.94	18354.48
698.07	18228.09
698.21	18202.35
698.34	18153.20
698.47	17788.07
698.61	17699.13
698.74	17980.00
698.87	17806.80
699.01	17692.11
699.14	17647.64
699.27	17591.47
699.40	17408.90
699.54	17523.59
699.67	17427.63
699.80	17572.74
699.94	17193.58
700.07	17202.94
700.20	17046.12
700.34	16971.22
700.47	16695.04
700.60	17128.04
700.73	16751.21
700.87	16573.33
701.00	16580.36
701.13	16283.11
701.26	16276.09
701.40	16262.04
701.53	16035.01
701.66	16226.93
701.79	16123.95
701.93	15892.24
702.06	15838.41
702.19	15793.94
702.32	15833.72
702.46	15585.63
702.59	15747.12
702.72	15606.69
702.85	15435.83
702.99	15452.22
703.12	15328.17
703.25	15225.18
703.38	15330.51
703.51	15318.81
703.65	15080.07
703.78	14871.76
703.91	14597.92
704.04	14534.73
704.17	14455.15
704.31	14651.75
704.44	14633.03
704.57	14349.82
704.70	14328.76
704.83	14490.26
704.96	14347.48
705.10	13877.04
705.23	13907.46
>>>>>End Processed Spectral Data<<<<<
