SpectraSuite Data File
++++++++++++++++++++++++++++++++++++
Date: Fri Oct 25 10:46:54 EDT 2013
User: price-jones
Dark Spectrum Present: No
Reference Spectrum Present: No
Number of Sampled Component Spectra: 1
Spectrometers: USB2+H05261
Integration Time (usec): 100000 (USB2+H05261)
Spectra Averaged: 1 (USB2+H05261)
Boxcar Smoothing: 0 (USB2+H05261)
Correct for Electrical Dark: No (USB2+H05261)
Strobe/Lamp Enabled: No (USB2+H05261)
Correct for Detector Non-linearity: No (USB2+H05261)
Correct for Stray Light: No (USB2+H05261)
Number of Pixels in Processed Spectrum: 2048
>>>>>Begin Processed Spectral Data<<<<<
365.73	140.43
365.92	140.43
366.12	140.43
366.32	79.58
366.52	67.88
366.72	102.98
366.91	70.22
367.11	23.41
367.31	0.00
367.51	2.34
367.70	2.34
367.90	30.43
368.10	79.58
368.30	51.49
368.49	84.26
368.69	23.41
368.89	32.77
369.09	51.49
369.28	67.88
369.48	133.41
369.68	63.19
369.87	114.69
370.07	107.66
370.27	142.77
370.47	156.82
370.66	320.65
370.86	411.93
371.06	479.81
371.25	521.94
371.45	374.49
371.65	521.94
371.84	425.98
372.04	461.09
372.24	482.15
372.44	411.93
372.63	599.18
372.83	561.73
373.03	547.69
373.22	498.53
373.42	470.45
373.62	554.71
373.81	557.05
374.01	596.84
374.21	538.32
374.40	557.05
374.60	564.07
374.79	543.00
374.99	641.31
375.19	592.16
375.38	681.10
375.58	608.54
375.78	657.69
375.97	636.63
376.17	638.97
376.37	641.31
376.56	678.76
376.76	610.88
376.95	683.44
377.15	568.75
377.35	676.41
377.54	620.24
377.74	638.97
377.93	692.80
378.13	678.76
378.33	704.50
378.52	582.79
378.72	823.87
378.91	667.05
379.11	725.57
379.31	706.84
379.50	636.63
379.70	671.73
379.89	688.12
380.09	669.39
380.28	727.91
380.48	669.39
380.68	685.78
380.87	784.08
381.07	713.86
381.26	671.73
381.46	723.23
381.65	744.29
381.85	711.52
382.04	690.46
382.24	653.01
382.43	671.73
382.63	653.01
382.83	777.06
383.02	763.01
383.22	730.25
383.41	697.48
383.61	737.27
383.80	919.83
384.00	709.18
384.19	842.59
384.39	812.17
384.58	821.53
384.78	814.51
384.97	800.46
385.17	800.46
385.36	819.19
385.56	887.06
385.75	823.87
385.95	779.40
386.14	840.25
386.34	835.57
386.53	915.15
386.72	786.42
386.92	863.66
387.11	887.06
387.31	924.51
387.50	903.45
387.70	826.21
387.89	933.87
388.09	875.36
388.28	798.12
388.48	891.74
388.67	849.61
388.86	896.43
389.06	924.51
389.25	964.30
389.45	1020.47
389.64	992.39
389.84	891.74
390.03	1043.88
390.22	1013.45
390.42	954.94
390.61	980.68
390.81	1034.52
391.00	1036.86
391.19	1090.69
391.39	1135.16
391.58	1015.79
391.78	943.24
391.97	1001.75
392.16	1015.79
392.36	1121.12
392.55	1060.26
392.75	1022.81
392.94	1036.86
393.13	1081.33
393.33	994.73
393.52	1081.33
393.71	1011.11
393.91	1130.48
394.10	1029.84
394.29	1137.50
394.49	1235.80
394.68	1179.63
394.88	1128.14
395.07	1299.00
395.26	1196.01
395.46	1207.72
395.65	1306.02
395.84	1231.12
396.04	1310.70
396.23	1165.59
396.42	1179.63
396.62	1167.93
396.81	1219.42
397.00	1226.44
397.19	1336.45
397.39	1310.70
397.58	1376.24
397.77	1455.81
397.97	1479.22
398.16	1420.71
398.35	1385.60
398.55	1439.43
398.74	1390.28
398.93	1446.45
399.12	1458.15
399.32	1502.62
399.51	1441.77
399.70	1568.16
399.90	1511.99
400.09	1668.80
400.28	1577.52
400.47	1645.40
400.67	1528.37
400.86	1680.50
401.05	1591.56
401.24	1701.57
401.44	1645.40
401.63	1715.61
401.82	1753.06
402.01	1666.46
402.21	1743.70
402.40	1652.42
402.59	1659.44
402.78	1724.97
402.97	1732.00
403.17	1743.70
403.36	1732.00
403.55	1867.75
403.74	1844.34
403.93	1830.30
404.13	1795.19
404.32	1774.13
404.51	1858.39
404.70	2003.50
404.89	1816.26
405.09	1966.05
405.28	1994.14
405.47	1970.73
405.66	1937.96
405.85	1994.14
406.05	1956.69
406.24	2022.22
406.43	2017.54
406.62	1975.41
406.81	2120.53
407.00	1933.28
407.20	2012.86
407.39	2047.97
407.58	2127.55
407.77	2165.00
407.96	2080.74
408.15	2188.40
408.34	2291.38
408.54	2211.81
408.73	2307.77
408.92	2218.83
409.11	2258.62
409.30	2363.94
409.49	2284.36
409.68	2193.08
409.87	2214.15
410.07	2267.98
410.26	2305.43
410.45	2429.48
410.64	2380.32
410.83	2457.56
411.02	2581.61
411.21	2569.91
411.40	2572.25
411.59	2513.74
411.78	2525.44
411.98	2607.36
412.17	2579.27
412.36	2724.38
412.55	2614.38
412.74	2644.81
412.93	2698.64
413.12	2621.40
413.31	2679.91
413.50	2754.81
413.69	2808.64
413.88	2963.12
414.07	2857.79
414.26	2937.37
414.45	2867.16
414.64	3047.38
414.83	3009.93
415.02	3026.31
415.22	3028.65
415.41	3007.59
415.60	3150.36
415.79	3023.97
415.98	3183.13
416.17	3178.45
416.36	3075.46
416.55	3138.66
416.74	3232.28
416.93	3110.57
417.12	3232.28
417.31	3246.32
417.50	3286.11
417.69	3494.42
417.88	3494.42
418.07	3447.61
418.26	3515.48
418.45	3431.23
418.64	3536.55
418.83	3499.10
419.02	3461.65
419.21	3487.40
419.39	3499.10
419.58	3449.95
419.77	3452.29
419.96	3623.15
420.15	3581.02
420.34	3599.74
420.53	3726.13
420.72	3705.07
420.91	3698.05
421.10	3815.07
421.29	3747.20
421.48	3784.65
421.67	3882.95
421.86	3763.58
422.05	3651.24
422.24	3810.39
422.43	3880.61
422.61	3794.01
422.80	3819.75
422.99	3918.06
423.18	3772.94
423.37	3978.91
423.56	3887.63
423.75	3957.85
423.94	4011.68
424.13	3585.70
424.32	3826.78
424.50	4004.66
424.69	3880.61
424.88	3985.93
425.07	3955.51
425.26	3861.88
425.45	3894.65
425.64	3836.14
425.83	3894.65
426.01	3971.89
426.20	3880.61
426.39	3847.84
426.58	3953.16
426.77	3918.06
426.96	3913.38
427.15	3901.67
427.33	4140.41
427.52	4077.21
427.71	4121.68
427.90	3950.82
428.09	4058.49
428.28	4102.96
428.46	4023.38
428.65	4042.11
428.84	4093.60
429.03	4271.48
429.22	3988.27
429.40	4154.45
429.59	4032.74
429.78	3875.93
429.97	3953.16
430.16	4039.76
430.34	4088.92
430.53	4175.52
430.72	4287.86
430.91	4173.18
431.10	4283.18
431.28	4622.56
431.47	4489.15
431.66	4477.44
431.85	4500.85
432.03	4547.66
432.22	4669.37
432.41	4552.34
432.60	4531.28
432.79	4519.57
432.97	4645.96
433.16	4725.54
433.35	4486.81
433.54	4550.00
433.72	4652.98
433.91	4615.54
434.10	4730.22
434.28	4814.48
434.47	4671.71
434.66	4903.42
434.85	4917.47
435.03	4896.40
435.22	4910.44
435.41	4929.17
435.59	4966.62
435.78	5095.35
435.97	5095.35
436.16	4947.89
436.34	5085.98
436.53	4961.94
436.72	5226.42
436.90	5015.77
437.09	5097.69
437.28	4915.12
437.46	5078.96
437.65	5041.51
437.84	5114.07
438.02	5123.43
438.21	5083.64
438.40	5107.05
438.58	5350.46
438.77	5394.93
438.96	5242.80
439.14	5364.51
439.33	5563.45
439.52	5600.90
439.70	5472.17
439.89	5575.16
440.08	5713.25
440.26	5680.48
440.45	5533.03
440.63	5743.67
440.82	5914.53
441.01	5867.72
441.19	5977.73
441.38	5851.34
441.57	6085.39
441.75	6017.52
441.94	6277.32
442.12	6136.88
442.31	6352.21
442.50	6349.87
442.68	6282.00
442.87	6183.70
443.05	6284.34
443.24	6356.90
443.43	6310.08
443.61	6401.37
443.80	6647.12
443.98	6244.55
444.17	6054.97
444.35	6441.15
444.54	6490.31
444.73	6368.60
444.91	6392.00
445.10	6389.66
445.28	6413.07
445.47	6401.37
445.65	6366.26
445.84	6436.47
446.02	6530.09
446.21	6436.47
446.39	6525.41
446.58	6595.63
446.77	6532.44
446.95	6509.03
447.14	6513.71
447.32	6771.17
447.51	6693.93
447.69	6434.13
447.88	6616.69
448.06	6541.80
448.25	6429.45
448.43	6614.35
448.62	6593.29
448.80	6485.62
448.99	6548.82
449.17	6672.87
449.36	6607.33
449.54	6803.94
449.73	6747.76
449.91	6935.01
450.10	6967.77
450.28	7136.29
450.46	6953.73
450.65	7232.26
450.83	7019.27
451.02	7101.19
451.20	7047.35
451.39	7283.75
451.57	7176.08
451.76	7126.93
451.94	7126.93
452.13	7187.79
452.31	6944.37
452.49	6977.14
452.68	7129.27
452.86	7152.68
453.05	7089.48
453.23	7117.57
453.42	7197.15
453.60	7187.79
453.78	7372.69
453.97	7192.47
454.15	7236.94
454.34	7356.30
454.52	7520.14
454.70	7461.63
454.89	7435.88
455.07	7417.16
455.26	7499.08
455.44	7632.49
455.62	7627.81
455.81	7728.45
455.99	7566.95
456.17	7683.98
456.36	7803.35
456.54	7908.67
456.73	7906.33
456.91	7896.97
457.09	8056.12
457.28	8219.96
457.46	7955.48
457.64	8053.78
457.83	8234.00
458.01	7801.01
458.19	7831.43
458.38	8114.64
458.56	8016.33
458.74	8276.13
458.93	7922.71
459.11	8444.65
459.29	8149.75
459.48	8149.75
459.66	7997.61
459.84	8292.52
460.03	8212.94
460.21	8346.35
460.39	8313.58
460.57	8287.84
460.76	8327.63
460.94	8571.04
461.12	8657.64
461.31	8718.50
461.49	8329.97
461.67	8507.85
461.85	8671.68
462.04	8713.81
462.22	9305.97
462.40	8655.30
462.59	8718.50
462.77	8784.03
462.95	8746.58
463.13	8889.35
463.32	8755.94
463.50	8936.17
463.68	9015.74
463.86	8674.03
464.05	8769.99
464.23	8739.56
464.41	9210.01
464.59	8795.73
464.78	9135.11
464.96	8924.46
465.14	9050.85
465.32	9123.41
465.50	9207.67
465.69	9317.67
465.87	9006.38
466.05	9263.84
466.23	9252.14
466.41	9160.86
466.60	9202.99
466.78	9053.19
466.96	9198.31
467.14	9104.68
467.32	9195.96
467.51	9469.81
467.69	9081.28
467.87	9418.32
468.05	9408.95
468.23	9392.57
468.41	9291.93
468.60	9572.79
468.78	9504.92
468.96	9497.89
469.14	9511.94
469.32	9453.42
469.50	9057.87
469.69	9689.82
469.87	9708.54
470.05	9933.23
470.23	9619.60
470.41	9610.24
470.59	9722.59
470.77	9713.22
470.95	10036.22
471.14	9888.76
471.32	9767.06
471.50	10024.51
471.68	10296.02
471.86	10216.44
472.04	10277.29
472.22	10466.88
472.40	10015.15
472.58	10253.89
472.77	10310.06
472.95	10443.47
473.13	10583.90
473.31	10492.62
473.49	10450.49
473.67	10551.14
473.85	10485.60
474.03	10869.45
474.21	10689.23
474.39	10934.98
474.57	10958.39
474.75	10956.05
474.93	11225.21
475.12	10953.71
475.30	11293.08
475.48	11112.86
475.66	11255.64
475.84	11218.19
476.02	11159.67
476.20	11290.74
476.38	11499.05
476.56	11733.11
476.74	11723.74
476.92	11672.25
477.10	11707.36
477.28	12004.61
477.46	12114.61
477.64	11955.46
477.82	12458.67
478.00	12475.06
478.18	12386.12
478.36	12353.35
478.54	12727.83
478.72	12608.47
478.90	12734.85
479.08	12938.48
479.26	13027.42
479.44	12964.23
479.62	13123.38
479.80	13062.53
479.98	13610.22
480.16	13462.76
480.34	13554.04
480.52	13565.74
480.70	13701.50
480.88	13242.75
481.06	13659.37
481.24	13544.68
481.41	14010.45
481.59	14129.81
481.77	14214.07
481.95	14207.05
482.13	14338.12
482.31	14335.78
482.49	14682.18
482.67	14679.84
482.85	14707.93
483.03	14925.60
483.21	14995.81
483.39	15152.63
483.57	15089.43
483.74	15297.74
483.92	15328.17
484.10	15473.28
484.28	15639.46
484.46	15719.04
484.64	16102.89
484.82	16002.24
485.00	15990.54
485.18	16006.92
485.35	16414.18
485.53	15955.43
485.71	16194.17
485.89	16418.86
486.07	16322.90
486.25	16329.92
486.43	16542.91
486.61	16800.37
486.78	16905.69
486.96	17427.63
487.14	17736.58
487.32	17479.12
487.50	18075.96
487.68	17855.95
487.85	18167.24
488.03	18380.23
488.21	18501.93
488.39	18663.43
488.57	18410.65
488.75	18841.31
488.92	18977.06
489.10	19290.70
489.28	19363.25
489.46	19421.77
489.64	19424.11
489.81	20245.63
489.99	19894.55
490.17	20023.28
490.35	20144.99
490.53	20107.54
490.70	20262.02
490.88	20465.64
491.06	20671.61
491.24	20547.56
491.41	20594.37
491.59	20723.10
491.77	20610.76
491.95	21036.74
492.13	21399.52
492.30	21221.64
492.48	21633.57
492.66	21504.84
492.84	21479.10
493.01	21949.54
493.19	21994.01
493.37	22127.42
493.54	22157.85
493.72	22508.93
493.90	22204.66
494.08	22572.13
494.25	22946.61
494.43	23105.77
494.61	23283.65
494.79	23159.60
494.96	23213.43
495.14	23255.56
495.32	23679.20
495.49	23527.06
495.67	23463.87
495.85	23807.93
496.02	24044.32
496.20	24465.62
496.38	24280.72
496.55	24418.81
496.73	24613.07
496.91	24521.79
497.09	24671.59
497.26	24793.29
497.44	24959.47
497.62	24884.58
497.79	25291.83
497.97	24854.15
498.14	25439.28
498.32	25518.86
498.50	25249.70
498.67	26010.37
498.85	25465.03
499.03	25638.23
499.20	25893.35
499.38	26033.78
499.56	25862.92
499.73	26190.59
499.91	26483.16
500.08	26267.83
500.26	25759.94
500.44	26600.19
500.61	26663.38
500.79	26490.18
500.97	27077.66
501.14	26871.69
501.32	27407.67
501.49	26967.65
501.67	26984.04
501.84	27187.66
502.02	27194.68
502.20	27398.31
502.37	27756.41
502.55	27772.80
502.72	27620.66
502.90	28154.30
503.07	27819.61
503.25	28060.68
503.43	28044.30
503.60	28093.45
503.78	28034.94
503.95	27550.45
504.13	28268.99
504.30	28315.80
504.48	28587.30
504.65	28381.34
504.83	28643.48
505.01	28741.78
505.18	29158.39
505.36	29053.07
505.53	29053.07
505.71	29394.79
505.88	29598.41
506.06	29062.43
506.23	29734.17
506.41	29376.06
506.58	29362.02
506.76	29682.67
506.93	30064.18
507.11	29844.17
507.28	29804.38
507.46	29394.79
507.63	29696.72
507.81	30012.69
507.98	30106.31
508.16	30614.21
508.33	30574.42
508.50	30637.61
508.68	30574.42
508.85	31234.45
509.03	30948.90
509.20	31089.34
509.38	31271.90
509.55	31173.60
509.73	31042.53
509.90	31112.74
510.08	31189.98
510.25	31374.88
510.42	31199.34
510.60	31431.05
510.77	31747.03
510.95	31821.92
511.12	31871.07
511.30	31606.59
511.47	32018.53
511.64	32060.66
511.82	32474.93
511.99	32233.86
512.17	32442.17
512.34	32065.34
512.51	32348.54
512.69	32556.85
512.86	32519.40
513.04	32914.95
513.21	32708.99
513.38	32739.41
513.56	32830.69
513.73	32741.75
513.90	32910.27
514.08	32760.48
514.25	33027.30
514.43	32971.13
514.60	33469.66
514.77	33088.15
514.95	33350.29
515.12	33151.35
515.29	33624.14
515.47	33706.05
515.64	34066.50
515.81	33722.44
515.99	33560.94
516.16	33450.94
516.33	33240.29
516.51	33303.48
516.68	33418.17
516.85	33043.68
517.03	33525.83
517.20	33792.65
517.37	34370.77
517.54	34223.31
517.72	34253.74
517.89	33923.72
518.06	33975.22
518.24	34064.16
518.41	34059.48
518.58	34382.47
518.75	34534.60
518.93	34883.34
519.10	34471.41
519.27	35398.26
519.45	34988.67
519.62	35292.94
519.79	34789.72
519.96	35367.84
520.14	35225.06
520.31	35077.61
520.48	35356.13
520.65	35065.91
520.83	35531.67
521.00	36062.97
521.17	35782.11
521.34	35964.67
521.52	36156.60
521.69	36561.51
521.86	36051.27
522.03	36048.93
522.20	36095.74
522.38	36568.53
522.55	36346.18
522.72	35983.40
522.89	36376.61
523.07	36631.72
523.24	36556.83
523.41	36840.03
523.58	36545.12
523.75	37074.09
523.92	37324.52
524.10	37083.45
524.27	37050.68
524.44	37081.11
524.61	37228.56
524.78	37652.20
524.96	37443.89
525.13	37633.47
525.30	37399.42
525.47	37855.82
525.64	37631.13
525.81	37441.55
525.98	37383.04
526.16	37221.54
526.33	37200.47
526.50	37546.87
526.67	37102.17
526.84	37394.74
527.01	37092.81
527.18	37783.27
527.36	37748.16
527.53	37893.27
527.70	38944.17
527.87	38197.54
528.04	38391.81
528.21	38541.60
528.38	38335.63
528.55	38628.20
528.72	38998.01
528.89	38862.26
529.07	38749.91
529.24	38169.46
529.41	38930.13
529.58	38356.70
529.75	38417.55
529.92	38941.83
530.09	38892.68
530.26	39187.59
530.43	39203.97
530.60	38810.76
530.77	39140.78
530.94	39215.68
531.11	39372.49
531.28	39089.29
531.46	39138.44
531.63	39007.37
531.80	39562.08
531.97	39461.43
532.14	39606.55
532.31	39330.36
532.48	39225.04
532.65	39999.76
532.82	39196.95
532.99	39552.71
533.16	39704.85
533.33	39742.30
533.50	39936.56
533.67	40435.10
533.84	39576.12
534.01	39737.62
534.18	39686.12
534.35	40030.18
534.52	40304.02
534.69	40378.92
534.86	40502.97
535.03	40348.50
535.20	40006.78
535.37	40917.25
535.54	40727.66
535.71	41029.59
535.88	40397.65
536.05	40444.46
536.22	40774.47
536.38	40563.82
536.55	40236.15
536.72	40814.26
536.89	40282.96
537.06	40935.97
537.23	41209.81
537.40	41106.83
537.57	40744.05
537.74	41404.08
537.91	41317.48
538.08	41214.49
538.25	40631.70
538.42	41038.95
538.59	41020.23
538.75	41062.36
538.92	41043.63
539.09	41539.83
539.26	41294.07
539.43	41329.18
539.60	41418.12
539.77	41521.10
539.94	41406.42
540.11	41474.29
540.28	41666.22
540.44	41324.50
540.61	41689.62
540.78	41146.62
540.95	41633.45
541.12	41298.75
541.29	41460.25
541.46	41820.69
541.62	41661.54
541.79	42206.88
541.96	41549.19
542.13	41794.95
542.30	42139.00
542.47	41748.14
542.63	42043.04
542.80	42288.80
542.97	42429.23
543.14	43033.09
543.31	42637.54
543.48	42534.56
543.64	42885.64
543.81	42941.81
543.98	42794.36
544.15	42572.00
544.32	42909.04
544.48	42810.74
544.65	42848.19
544.82	43206.29
544.99	42263.05
545.16	43210.97
545.32	42436.25
545.49	43122.03
545.66	43653.33
545.83	43161.82
546.00	43611.20
546.16	43016.71
546.33	42838.83
546.50	43093.94
546.67	43391.19
546.83	42792.01
547.00	43337.36
547.17	43285.87
547.34	42660.94
547.50	43154.80
547.67	43697.80
547.84	43782.06
548.00	43688.44
548.17	43662.69
548.34	43779.72
548.51	43625.25
548.67	44273.57
548.84	43887.39
549.01	43604.18
549.18	43702.48
549.34	43971.64
549.51	44039.52
549.68	43819.51
549.84	43892.07
550.01	43938.88
550.18	43983.35
550.34	44107.40
550.51	44053.56
550.68	43863.98
550.84	43789.08
551.01	44032.50
551.18	44060.58
551.34	43931.86
551.51	44245.49
551.68	44664.44
551.84	44362.51
552.01	44121.44
552.18	44531.03
552.34	43875.68
552.51	44591.89
552.68	44418.69
552.84	44715.93
553.01	44816.58
553.18	44533.37
553.34	44371.88
553.51	44505.29
553.67	44208.04
553.84	45001.48
554.01	44720.62
554.17	44615.29
554.34	45036.59
554.51	45186.38
554.67	44634.02
554.84	44755.72
555.00	44505.29
555.17	44863.39
555.33	44839.98
555.50	44971.05
555.67	45099.78
555.83	44598.91
556.00	44910.20
556.16	45474.27
556.33	44828.28
556.50	44973.39
556.66	45392.35
556.83	44905.52
556.99	45390.01
557.16	45476.61
557.32	45038.93
557.49	44968.71
557.65	44722.96
557.82	44966.37
557.98	45085.74
558.15	45118.51
558.32	45404.05
558.48	45254.26
558.65	45048.29
558.81	44973.39
558.98	44910.20
559.14	44954.67
559.31	45188.72
559.47	45567.89
559.64	45708.32
559.80	45649.81
559.97	45331.50
560.13	44964.03
560.30	44966.37
560.46	45368.94
560.63	45577.25
560.79	46138.98
560.96	45914.29
561.12	45612.36
561.29	45701.30
561.45	45308.09
561.61	45109.14
561.78	45628.74
561.94	45247.24
562.11	45329.16
562.27	45448.52
562.44	45102.12
562.60	45773.86
562.77	45970.46
562.93	45588.95
563.10	45677.90
563.26	45195.74
563.42	45855.78
563.59	45631.08
563.75	46059.40
563.92	45839.39
564.08	45715.34
564.24	45649.81
564.41	45656.83
564.57	45785.56
564.74	45642.79
564.90	46052.38
565.07	46078.13
565.23	45659.17
565.39	45848.75
565.56	45862.80
565.72	45434.48
565.88	45570.23
566.05	45654.49
566.21	46141.32
566.38	45830.03
566.54	45902.59
566.70	46071.10
566.87	46288.77
567.03	46038.34
567.19	46267.71
567.36	46087.49
567.52	45766.84
567.68	46377.72
567.85	45815.99
568.01	45989.19
568.17	45837.05
568.34	46415.16
568.50	45874.50
568.66	46192.81
568.83	45624.06
568.99	45811.31
569.15	45902.59
569.32	46164.73
569.48	45368.94
569.64	46241.96
569.81	46057.06
569.97	46169.41
570.13	46026.63
570.30	45942.38
570.46	45713.00
570.62	45989.19
570.78	45441.50
570.95	45846.41
571.11	46499.42
571.27	45621.72
571.43	46005.57
571.60	46188.13
571.76	45731.73
571.92	45610.02
572.09	45918.97
572.25	46251.33
572.41	45790.24
572.57	46560.28
572.74	46429.21
572.90	46424.53
573.06	46237.28
573.22	46176.43
573.38	46082.81
573.55	46260.69
573.71	46223.24
573.87	46019.61
574.03	46089.83
574.20	46078.13
574.36	46160.05
574.52	45965.78
574.68	45935.35
574.84	46153.02
575.01	45937.69
575.17	46230.26
575.33	46005.57
575.49	45698.96
575.65	45860.46
575.82	46681.98
575.98	46017.27
576.14	46602.41
576.30	46298.14
576.46	46103.87
576.62	46553.26
576.79	46043.02
576.95	45776.20
577.11	46576.66
577.27	46490.06
577.43	45986.85
577.59	46387.08
577.75	46183.45
577.92	46021.95
578.08	45914.29
578.24	46195.15
578.40	46375.37
578.56	46178.77
578.72	46461.97
578.88	46506.44
579.04	46885.61
579.21	46204.52
579.37	46043.02
579.53	46260.69
579.69	45876.84
579.85	46396.44
580.01	46660.92
580.17	46143.66
580.33	46485.38
580.49	46834.12
580.65	46461.97
580.82	46377.72
580.98	46178.77
581.14	46522.83
581.30	46511.13
581.46	46197.49
581.62	46426.87
581.78	46387.08
581.94	46508.79
582.10	46038.34
582.26	46766.24
582.42	46590.70
582.58	46469.00
582.74	46326.22
582.90	45949.40
583.06	46464.32
583.22	46546.23
583.38	46595.38
583.54	46307.50
583.70	46590.70
583.86	46288.77
584.02	46057.06
584.18	46878.59
584.34	46380.06
584.50	46529.85
584.66	46267.71
584.82	45839.39
584.98	46756.88
585.14	46831.78
585.30	46384.74
585.46	46862.21
585.62	45993.87
585.78	46204.52
585.94	46274.73
586.10	45993.87
586.26	46499.42
586.42	46684.33
586.58	46628.15
586.74	46656.24
586.90	46621.13
587.06	46408.14
587.22	46553.26
587.38	46260.69
587.54	46693.69
587.70	46604.75
587.86	46340.27
588.02	46550.91
588.18	46770.93
588.34	46412.82
588.49	46368.35
588.65	45968.12
588.81	46028.98
588.97	46192.81
589.13	46003.23
589.29	46113.23
589.45	46642.20
589.61	46492.40
589.77	46363.67
589.93	46513.47
590.08	46754.54
590.24	46511.13
590.40	46684.33
590.56	46653.90
590.72	46965.19
590.88	46096.85
591.04	46663.26
591.20	46979.23
591.35	46621.13
591.51	47033.07
591.67	46380.06
591.83	46501.76
591.99	46274.73
592.15	46237.28
592.31	46906.68
592.46	46665.60
592.62	46557.94
592.78	46330.90
592.94	46740.50
593.10	46796.67
593.26	46415.16
593.41	46366.01
593.57	46791.99
593.73	46396.44
593.89	46693.69
594.05	46244.30
594.20	46618.79
594.36	46848.16
594.52	46562.62
594.68	46443.25
594.84	46398.78
594.99	47007.32
595.15	46586.02
595.31	46621.13
595.47	46520.49
595.62	46766.24
595.78	46714.75
595.94	47100.94
596.10	46864.55
596.25	46916.04
596.41	46656.24
596.57	46749.86
596.73	46635.17
596.88	46473.68
597.04	46909.02
597.20	46632.83
597.36	46808.37
597.51	46597.73
597.67	46515.81
597.83	46543.89
597.99	46848.16
598.14	46447.93
598.30	46403.46
598.46	46426.87
598.61	46693.69
598.77	46487.72
598.93	46876.25
599.09	46820.08
599.24	46768.58
599.40	46918.38
599.56	46859.87
599.71	46887.95
599.87	46941.78
600.03	46651.56
600.18	46939.44
600.34	46806.03
600.50	46838.80
600.65	46752.20
600.81	46894.97
600.97	47047.11
601.12	47187.54
601.28	46644.54
601.44	46827.10
601.59	46831.78
601.75	46623.47
601.91	46754.54
602.06	46415.16
602.22	46649.22
602.37	46445.59
602.53	46808.37
602.69	46593.04
602.84	46752.20
603.00	46433.89
603.16	46569.64
603.31	46611.77
603.47	46443.25
603.62	46391.76
603.78	46370.69
603.94	46567.30
604.09	46679.64
604.25	46525.17
604.40	46677.30
604.56	46721.77
604.71	46906.68
604.87	46370.69
605.03	46897.31
605.18	46553.26
605.34	46703.05
605.49	46546.23
605.65	46679.64
605.80	46543.89
605.96	46759.22
606.12	46520.49
606.27	46646.88
606.43	46284.09
606.58	46686.67
606.74	46178.77
606.89	46529.85
607.05	46394.10
607.20	46588.36
607.36	46579.00
607.51	46490.06
607.67	46560.28
607.82	46230.26
607.98	46281.75
608.13	46579.00
608.29	46438.57
608.44	46043.02
608.60	45825.35
608.75	45993.87
608.91	46066.42
609.06	46012.59
609.22	46490.06
609.37	46122.60
609.53	46454.95
609.68	46087.49
609.84	46258.35
609.99	45839.39
610.15	46284.09
610.30	46040.68
610.46	45876.84
610.61	45750.45
610.76	46312.18
610.92	46113.23
611.07	45893.22
611.23	45837.05
611.38	46103.87
611.54	45764.49
611.69	45757.47
611.84	46019.61
612.00	45872.16
612.15	45467.25
612.31	45867.48
612.46	45954.08
612.62	45724.71
612.77	45584.27
612.92	46370.69
613.08	45750.45
613.23	45720.02
613.39	45694.28
613.54	45530.44
613.69	45457.88
613.85	45645.13
614.00	45181.70
614.15	45310.43
614.31	45844.07
614.46	46106.21
614.62	45516.40
614.77	45715.34
614.92	45614.70
615.08	45876.84
615.23	45696.62
615.38	45408.73
615.54	45284.68
615.69	45074.04
615.84	45022.54
616.00	45268.30
616.15	45364.26
616.30	45181.70
616.46	45265.96
616.61	44931.26
616.76	45567.89
616.92	44992.12
617.07	45277.66
617.22	45139.57
617.37	45057.65
617.53	45120.85
617.68	45097.44
617.83	45132.55
617.99	45083.40
618.14	45177.02
618.29	44528.69
618.45	44729.98
618.60	45010.84
618.75	44861.05
618.90	44942.97
619.06	44662.10
619.21	45162.98
619.36	44706.57
619.51	45008.50
619.67	44495.92
619.82	44856.37
619.97	44760.40
620.12	44362.51
620.28	44659.76
620.43	44718.28
620.58	44996.80
620.73	44435.07
620.89	44563.80
621.04	45036.59
621.19	44870.41
621.34	44442.09
621.49	44746.36
621.65	44580.18
621.80	44254.85
621.95	44273.57
622.10	44802.53
622.25	44170.59
622.41	44336.77
622.56	44376.56
622.71	44659.76
622.86	44465.50
623.01	44383.58
623.16	44444.43
623.32	44254.85
623.47	44680.83
623.62	44238.47
623.77	44053.56
623.92	44156.55
624.07	43828.87
624.23	44086.33
624.38	43765.68
624.53	43775.04
624.68	43550.35
624.83	44369.54
624.98	43913.13
625.13	44259.53
625.29	43847.60
625.44	44357.83
625.59	43756.32
625.74	43393.53
625.89	43508.22
626.04	43033.09
626.19	43737.59
626.34	43793.76
626.49	43716.53
626.65	43955.26
626.80	43597.16
626.95	43091.60
627.10	43124.37
627.25	43381.83
627.40	43276.51
627.55	42780.31
627.70	42506.47
627.85	43243.74
628.00	43110.33
628.15	43026.07
628.30	42962.87
628.45	43445.02
628.60	43468.43
628.76	43199.27
628.91	43477.79
629.06	43559.71
629.21	43225.01
629.36	43353.74
629.51	42932.45
629.66	42754.57
629.81	42588.39
629.96	42632.86
630.11	42738.18
630.26	42920.74
630.41	43044.79
630.56	42930.11
630.71	43533.96
630.86	42780.31
631.01	42611.79
631.16	42803.72
631.31	42536.90
631.46	42377.74
631.61	42747.54
631.76	42607.11
631.91	42457.32
632.06	42492.43
632.21	42522.85
632.36	42464.34
632.51	42377.74
632.66	42115.60
632.81	42143.69
632.96	42508.81
633.10	42307.52
633.25	42370.72
633.40	42241.99
633.55	42295.82
633.70	41984.53
633.85	42197.52
634.00	42415.19
634.15	42108.58
634.30	42286.46
634.45	42108.58
634.60	42499.45
634.75	42373.06
634.90	42075.81
635.05	41621.75
635.19	41565.57
635.34	42471.36
635.49	42162.41
635.64	42342.63
635.79	41673.24
635.94	41937.72
636.09	41544.51
636.24	41738.77
636.39	41502.38
636.53	41661.54
636.68	41291.73
636.83	41642.81
636.98	42127.30
637.13	41586.64
637.28	41429.82
637.43	41579.62
637.57	41930.70
637.72	41787.92
637.87	41443.87
638.02	41787.92
638.17	41881.55
638.32	41556.21
638.46	41172.36
638.61	41390.03
638.76	41001.50
638.91	41132.57
639.06	41312.80
639.20	41469.61
639.35	41284.71
639.50	41137.26
639.65	41352.58
639.80	41408.76
639.94	41174.70
640.09	41195.77
640.24	40676.17
640.39	40968.74
640.54	40465.52
640.68	40896.18
640.83	41287.05
640.98	41123.21
641.13	40737.02
641.27	41045.97
641.42	40715.96
641.57	40849.37
641.72	40737.02
641.86	40465.52
642.01	40327.43
642.16	40491.27
642.31	40325.09
642.45	40793.20
642.60	40156.57
642.75	40268.92
642.90	40203.38
643.04	40760.43
643.19	40449.14
643.34	40306.37
643.48	40629.36
643.63	40465.52
643.78	40472.54
643.93	40615.32
644.07	40254.87
644.22	40554.46
644.37	40381.26
644.51	40435.10
644.66	40397.65
644.81	40203.38
644.95	40250.19
645.10	40402.33
645.25	40114.44
645.39	40369.56
645.54	40367.22
645.69	40163.59
645.83	39461.43
645.98	39952.94
646.13	40252.53
646.27	40147.21
646.42	40304.02
646.57	39805.49
646.71	39887.41
646.86	39868.69
647.00	40268.92
647.15	39964.65
647.30	39894.43
647.44	39772.72
647.59	39512.92
647.74	39711.87
647.88	39611.23
648.03	39541.01
648.17	39985.71
648.32	39524.63
648.47	39707.19
648.61	39725.91
648.76	39997.41
648.90	39651.02
649.05	39920.18
649.20	39889.75
649.34	39941.24
649.49	39232.06
649.63	39222.70
649.78	39641.65
649.92	39433.35
650.07	39730.59
650.21	39119.71
650.36	39782.09
650.51	38873.96
650.65	39559.73
650.80	39522.29
650.94	39365.47
651.09	39182.91
651.23	39412.28
651.38	39019.07
651.52	38815.44
651.67	38895.02
651.81	39012.05
651.96	38862.26
652.10	39196.95
652.25	38796.72
652.39	39154.82
652.54	39098.65
652.68	39061.20
652.83	39143.12
652.97	39016.73
653.12	38845.87
653.26	38738.21
653.41	38827.15
653.55	38534.58
653.70	38761.61
653.84	38993.32
653.99	38799.06
654.13	38728.84
654.27	38494.79
654.42	38700.76
654.56	38398.83
654.71	38827.15
654.85	39100.99
655.00	38279.46
655.14	38181.16
655.29	38096.90
655.43	38340.32
655.57	37479.00
655.72	37741.14
655.86	37755.18
656.01	37710.71
656.15	37954.13
656.30	37841.78
656.44	37682.62
656.58	37912.00
656.73	37654.54
656.87	38291.16
657.01	37462.61
657.16	37493.04
657.30	38033.71
657.45	37736.46
657.59	37392.40
657.73	37343.25
657.88	37986.89
658.02	37556.24
658.16	37769.22
658.31	37642.84
658.45	37612.41
658.60	37226.22
658.74	37659.22
658.88	37312.82
659.03	37614.75
659.17	37457.93
659.31	37493.04
659.46	37022.59
659.60	37340.91
659.74	37958.81
659.89	37284.73
660.03	37003.87
660.17	37380.70
660.32	36727.69
660.46	37071.75
660.60	36978.12
660.74	37104.51
660.89	36704.28
661.03	36748.75
661.17	36900.89
661.32	36704.28
661.46	36706.62
661.60	36610.66
661.74	36706.62
661.89	36797.90
662.03	36800.24
662.17	36334.48
662.31	36189.36
662.46	36418.74
662.60	36526.40
662.74	36748.75
662.88	36259.58
663.03	36243.20
663.17	36552.15
663.31	35644.02
663.45	36243.20
663.60	35931.90
663.74	36027.87
663.88	36210.43
664.02	35992.76
664.17	36264.26
664.31	35655.72
664.45	35632.32
664.59	36271.28
664.73	35648.70
664.88	35721.26
665.02	35587.85
665.16	35658.06
665.30	35501.25
665.44	35508.27
665.59	34850.58
665.73	35239.11
665.87	35002.71
666.01	35646.36
666.15	34930.16
666.29	35189.95
666.44	35166.55
666.58	35147.82
666.72	35084.63
666.86	35416.99
667.00	35201.66
667.14	34878.66
667.28	34735.89
667.43	34192.89
667.57	34824.83
667.71	34656.31
667.85	34543.97
667.99	34616.52
668.13	34534.60
668.27	34609.50
668.41	34827.17
668.56	34532.26
668.70	34560.35
668.84	34497.16
668.98	33853.51
669.12	33912.02
669.26	34431.62
669.40	34045.43
669.54	33717.76
669.68	33780.95
669.82	33825.42
669.96	33773.93
670.10	33947.13
670.25	34026.71
670.39	34017.35
670.53	33720.10
670.67	33326.89
670.81	33816.06
670.95	33841.81
671.09	33525.83
671.23	33090.49
671.37	33640.52
671.51	33574.98
671.65	32872.82
671.79	32914.95
671.93	33008.58
672.07	33233.27
672.21	33324.55
672.35	32322.80
672.49	32938.36
672.63	32409.40
672.77	32589.62
672.91	32250.24
673.05	32474.93
673.19	32264.28
673.33	32456.21
673.47	32112.15
673.61	32081.72
673.75	32315.78
673.89	31791.50
674.03	31440.42
674.17	31587.87
674.31	31814.90
674.45	32039.59
674.59	31868.73
674.73	31969.38
674.87	31693.19
675.01	31330.41
675.15	31557.44
675.29	31945.97
675.43	31402.97
675.56	31594.89
675.70	31023.80
675.84	31133.81
675.98	30029.07
676.12	31213.38
676.26	30960.61
676.40	30499.52
676.54	30806.13
676.68	30583.78
676.82	30005.67
676.96	30422.28
677.10	30202.27
677.23	30249.08
677.37	29888.64
677.51	30136.74
677.65	29722.46
677.79	29659.27
677.93	29860.55
678.07	29319.89
678.21	29303.51
678.34	29736.51
678.48	29680.33
678.62	29434.58
678.76	29369.04
678.90	29331.59
679.04	29095.20
679.18	29488.41
679.31	28795.61
679.45	28582.62
679.59	28306.44
679.73	28559.22
679.87	28346.23
680.00	28051.32
680.14	28259.63
680.28	28114.52
680.42	27878.12
680.56	28222.18
680.70	28280.69
680.83	27978.76
680.97	27950.68
681.11	28072.39
681.25	27438.10
681.39	27704.92
681.52	27728.33
681.66	27356.18
681.80	27367.88
681.94	27421.72
682.07	27131.49
682.21	27082.34
682.35	27000.42
682.49	26960.63
682.62	27005.10
682.76	26448.05
682.90	26661.04
683.04	26506.57
683.17	26717.22
683.31	26342.73
683.45	26464.44
683.59	26349.75
683.72	25954.20
683.86	26258.47
684.00	25481.41
684.13	25883.98
684.27	25605.46
684.41	25663.97
684.55	25568.01
684.68	25453.33
684.82	25305.87
684.96	25254.38
685.09	25453.33
685.23	25345.66
685.37	25027.35
685.50	25406.52
685.64	25123.31
685.78	24805.00
685.91	24627.12
686.05	24687.97
686.19	24306.46
686.32	24343.91
686.46	24049.00
686.60	24156.67
686.73	23833.68
686.87	23634.73
687.01	23967.09
687.14	23381.95
687.28	23323.44
687.42	23449.83
687.55	23608.98
687.69	23412.38
687.82	23171.30
687.96	23417.06
688.10	23105.77
688.23	23295.35
688.37	23194.71
688.50	22714.90
688.64	23005.13
688.78	23035.55
688.91	22848.31
689.05	22562.76
689.18	22602.55
689.32	22031.46
689.46	22611.92
689.59	22340.41
689.73	22272.54
689.86	22663.41
690.00	22024.44
690.13	22347.44
690.27	22281.90
690.41	21895.71
690.54	21303.56
690.68	21591.44
690.81	21586.76
690.95	21324.62
691.08	21209.93
691.22	21116.31
691.35	21301.22
691.49	21525.91
691.62	21507.18
691.76	21439.31
691.89	21069.50
692.03	21120.99
692.16	20840.13
692.30	20994.61
692.43	20893.96
692.57	20545.22
692.70	20542.88
692.84	20299.47
692.97	20631.82
693.11	20116.90
693.24	20060.73
693.38	20437.56
693.51	19981.15
693.65	20081.80
693.78	20027.96
693.92	20088.82
694.05	19740.08
694.19	20020.94
694.32	19714.33
694.45	19410.06
694.59	19470.92
694.72	19288.35
694.86	19337.51
694.99	19199.41
695.13	19030.90
695.26	19131.54
695.39	18672.79
695.53	18829.61
695.66	18972.38
695.80	18778.12
695.93	18616.62
696.07	18527.68
696.20	18548.75
696.33	18497.25
696.47	18546.40
696.60	18286.61
696.73	18389.59
696.87	17928.50
697.00	18127.45
697.14	17804.46
697.27	17909.78
697.40	18216.39
697.54	17825.52
697.67	17647.64
697.80	17448.69
697.94	17703.81
698.07	17436.99
698.21	17043.78
698.34	17507.21
698.47	17425.29
698.61	17083.57
698.74	16952.50
698.87	16968.88
699.01	16982.93
699.14	16664.61
699.27	16762.92
699.40	16615.46
699.54	16713.77
699.67	16290.13
699.80	16512.48
699.94	16369.71
700.07	16599.08
700.20	16205.87
700.34	16079.48
700.47	16121.61
700.60	16128.63
700.73	16332.26
700.87	16063.10
701.00	15719.04
701.13	15880.53
701.26	15871.17
701.40	15854.79
701.53	15534.14
701.66	15564.56
701.79	15328.17
701.93	15318.81
702.06	15094.11
702.19	15382.00
702.32	15346.89
702.46	15119.86
702.59	15126.88
702.72	15204.12
702.85	14977.09
702.99	15140.93
703.12	15089.43
703.25	14700.90
703.38	14679.84
703.51	14878.79
703.65	14516.00
703.78	14293.65
703.91	14317.06
704.04	14457.49
704.17	14375.57
704.31	14181.31
704.44	14092.37
704.57	14188.33
704.70	14015.13
704.83	14211.73
704.96	13888.74
705.10	14054.92
705.23	13958.96
>>>>>End Processed Spectral Data<<<<<
