SpectraSuite Data File
++++++++++++++++++++++++++++++++++++
Date: Fri Oct 25 11:34:36 EDT 2013
User: price-jones
Dark Spectrum Present: No
Reference Spectrum Present: No
Number of Sampled Component Spectra: 1
Spectrometers: USB2+H05261
Integration Time (usec): 100000 (USB2+H05261)
Spectra Averaged: 1 (USB2+H05261)
Boxcar Smoothing: 0 (USB2+H05261)
Correct for Electrical Dark: No (USB2+H05261)
Strobe/Lamp Enabled: No (USB2+H05261)
Correct for Detector Non-linearity: No (USB2+H05261)
Correct for Stray Light: No (USB2+H05261)
Number of Pixels in Processed Spectrum: 2048
>>>>>Begin Processed Spectral Data<<<<<
365.73	290.23
365.92	290.23
366.12	290.23
366.32	236.39
366.52	173.20
366.72	182.56
366.91	196.60
367.11	189.58
367.31	203.63
367.51	145.11
367.70	105.32
367.90	166.18
368.10	196.60
368.30	217.67
368.49	145.11
368.69	180.22
368.89	224.69
369.09	220.01
369.28	257.46
369.48	142.77
369.68	182.56
369.87	259.80
370.07	262.14
370.27	325.33
370.47	313.63
370.66	507.90
370.86	517.26
371.06	512.58
371.25	592.16
371.45	500.87
371.65	524.28
371.84	543.00
372.04	540.66
372.24	528.96
372.44	636.63
372.63	674.07
372.83	505.56
373.03	627.26
373.22	582.79
373.42	538.32
373.62	566.41
373.81	578.11
374.01	624.92
374.21	624.92
374.40	601.52
374.60	648.33
374.79	571.09
374.99	580.45
375.19	615.56
375.38	660.03
375.58	615.56
375.78	690.46
375.97	711.52
376.17	720.88
376.37	627.26
376.56	702.16
376.76	627.26
376.95	690.46
377.15	638.97
377.35	718.54
377.54	681.10
377.74	617.90
377.93	702.16
378.13	645.99
378.33	664.71
378.52	608.54
378.72	706.84
378.91	664.71
379.11	685.78
379.31	638.97
379.50	676.41
379.70	770.04
379.89	765.36
380.09	739.61
380.28	723.23
380.48	695.14
380.68	744.29
380.87	744.29
381.07	732.59
381.26	678.76
381.46	674.07
381.65	655.35
381.85	695.14
382.04	781.74
382.24	758.33
382.43	746.63
382.63	777.06
382.83	788.76
383.02	816.85
383.22	798.12
383.41	809.83
383.61	774.72
383.80	868.34
384.00	774.72
384.19	706.84
384.39	737.27
384.58	791.10
384.78	795.78
384.97	763.01
385.17	828.55
385.36	821.53
385.56	823.87
385.75	777.06
385.95	851.96
386.14	795.78
386.34	861.32
386.53	891.74
386.72	725.57
386.92	896.43
387.11	816.85
387.31	919.83
387.50	887.06
387.70	936.21
387.89	844.93
388.09	894.08
388.28	863.66
388.48	875.36
388.67	931.53
388.86	898.77
389.06	877.70
389.25	990.05
389.45	919.83
389.64	947.92
389.84	957.28
390.03	973.66
390.22	990.05
390.42	940.90
390.61	950.26
390.81	968.98
391.00	943.24
391.19	985.37
391.39	898.77
391.58	952.60
391.78	938.55
391.97	1027.50
392.16	999.41
392.36	1057.92
392.55	1032.18
392.75	931.53
392.94	1050.90
393.13	994.73
393.33	1067.28
393.52	1011.11
393.71	1050.90
393.91	997.07
394.10	994.73
394.29	1093.03
394.49	968.98
394.68	1069.62
394.88	1055.58
395.07	1163.25
395.26	1067.28
395.46	1125.80
395.65	1060.26
395.84	1172.61
396.04	1198.35
396.23	1118.78
396.42	1097.71
396.62	1200.69
396.81	1167.93
397.00	1219.42
397.19	1193.67
397.39	1207.72
397.58	1217.08
397.77	1172.61
397.97	1259.21
398.16	1207.72
398.35	1097.71
398.55	1198.35
398.74	1224.10
398.93	1200.69
399.12	1219.42
399.32	1174.95
399.51	1287.29
399.70	1322.40
399.90	1324.74
400.09	1247.51
400.28	1310.70
400.47	1242.82
400.67	1418.36
400.86	1380.92
401.05	1350.49
401.24	1357.51
401.44	1441.77
401.63	1390.28
401.82	1401.98
402.01	1383.26
402.21	1338.79
402.40	1371.55
402.59	1378.58
402.78	1535.39
402.97	1441.77
403.17	1504.96
403.36	1434.75
403.55	1493.26
403.74	1495.60
403.93	1523.69
404.13	1579.86
404.32	1603.27
404.51	1563.48
404.70	1561.14
404.89	1593.90
405.09	1614.97
405.28	1650.08
405.47	1603.27
405.66	1556.46
405.85	1584.54
406.05	1753.06
406.24	1673.48
406.43	1687.53
406.62	1736.68
406.81	1776.47
407.00	1694.55
407.20	1762.42
407.39	1713.27
407.58	1687.53
407.77	1825.62
407.96	1750.72
408.15	1872.43
408.34	1797.53
408.54	1783.49
408.73	1708.59
408.92	1851.36
409.11	1888.81
409.30	1820.94
409.49	1909.88
409.68	1956.69
409.87	1827.96
410.07	1886.47
410.26	2017.54
410.45	1907.54
410.64	1930.94
410.83	1991.80
411.02	1952.01
411.21	2017.54
411.40	2031.58
411.59	2090.10
411.78	2256.28
411.98	2080.74
412.17	2104.14
412.36	2232.87
412.55	2150.95
412.74	2303.09
412.93	2197.76
413.12	2190.74
413.31	2202.44
413.50	2157.97
413.69	2282.02
413.88	2368.62
414.07	2286.70
414.26	2300.75
414.45	2300.75
414.64	2487.99
414.83	2546.50
415.02	2389.69
415.22	2497.35
415.41	2534.80
415.60	2506.71
415.79	2523.10
415.98	2689.28
416.17	2665.87
416.36	2635.44
416.55	2462.24
416.74	2663.53
416.93	2621.40
417.12	2693.96
417.31	2581.61
417.50	2644.81
417.69	2789.92
417.88	2768.85
418.07	2818.00
418.26	2757.15
418.45	2836.73
418.64	3056.74
418.83	2972.48
419.02	3000.57
419.21	2932.69
419.39	2928.01
419.58	2951.42
419.77	2935.03
419.96	2965.46
420.15	2944.39
420.34	3007.59
420.53	3075.46
420.72	3105.89
420.91	2974.82
421.10	3052.06
421.29	3105.89
421.48	3145.68
421.67	3131.64
421.86	3009.93
422.05	3220.58
422.24	3169.09
422.43	3185.47
422.61	3185.47
422.80	3274.41
422.99	3129.30
423.18	3304.84
423.37	3276.75
423.56	3251.00
423.75	3267.39
423.94	3066.10
424.13	3002.91
424.32	3098.87
424.50	3283.77
424.69	3293.13
424.88	3274.41
425.07	3372.71
425.26	3225.26
425.45	3328.24
425.64	3328.24
425.83	3258.03
426.01	3286.11
426.20	3325.90
426.39	3293.13
426.58	3323.56
426.77	3274.41
426.96	3382.07
427.15	3353.99
427.33	3368.03
427.52	3496.76
427.71	3365.69
427.90	3382.07
428.09	3454.63
428.28	3421.86
428.46	3588.04
428.65	3405.48
428.84	3506.12
429.03	3566.98
429.22	3419.52
429.40	3538.89
429.59	3702.73
429.78	3487.40
429.97	3433.57
430.16	3529.53
430.34	3716.77
430.53	3588.04
430.72	3751.88
430.91	3583.36
431.10	3651.24
431.28	3653.58
431.47	3735.50
431.66	3873.59
431.85	3667.62
432.03	3705.07
432.22	3871.25
432.41	3784.65
432.60	3859.54
432.79	3854.86
432.97	3911.04
433.16	3922.74
433.35	3880.61
433.54	3894.65
433.72	3941.46
433.91	3939.12
434.10	4044.45
434.28	3974.23
434.47	4021.04
434.66	3941.46
434.85	4065.51
435.03	4044.45
435.22	4147.43
435.41	4257.43
435.59	4074.87
435.78	4154.45
435.97	4070.19
436.16	4219.99
436.34	4189.56
436.53	4301.90
436.72	4365.10
436.90	4145.09
437.09	4374.46
437.28	4196.58
437.46	4294.88
437.65	4362.76
437.84	4339.35
438.02	4376.80
438.21	4276.16
438.40	4379.14
438.58	4542.98
438.77	4571.07
438.96	4484.47
439.14	4547.66
439.33	4727.88
439.52	4779.37
439.70	4535.96
439.89	4727.88
440.08	4629.58
440.26	4798.10
440.45	4788.74
440.63	4807.46
440.82	4861.29
441.01	4875.34
441.19	4933.85
441.38	4919.81
441.57	5013.43
441.75	4901.08
441.94	5214.71
442.12	5004.07
442.31	5263.86
442.50	5205.35
442.68	5114.07
442.87	5069.60
443.05	5191.31
443.24	5249.82
443.43	5212.37
443.61	5263.86
443.80	5387.91
443.98	5247.48
444.17	5111.73
444.35	5212.37
444.54	5301.31
444.73	5294.29
444.91	5322.38
445.10	5259.18
445.28	5413.66
445.47	5399.62
445.65	5256.84
445.84	5406.64
446.02	5427.70
446.21	5614.95
446.39	5364.51
446.58	5547.07
446.77	5563.45
446.95	5338.76
447.14	5563.45
447.32	5516.64
447.51	5589.20
447.69	5404.30
447.88	5572.82
448.06	5502.60
448.25	5493.24
448.43	5713.25
448.62	5643.03
448.80	5528.35
448.99	5657.07
449.17	5621.97
449.36	5540.05
449.54	5680.48
449.73	5832.62
449.91	5727.29
450.10	5612.60
450.28	5788.14
450.46	5991.77
450.65	5874.74
450.83	5851.34
451.02	5809.21
451.20	5914.53
451.39	5760.06
451.57	5907.51
451.76	5849.00
451.94	5977.73
452.13	5989.43
452.31	5905.17
452.49	5919.21
452.68	5956.66
452.86	5991.77
453.05	6108.80
453.23	6092.41
453.42	6001.13
453.60	6038.58
453.78	6066.67
453.97	6019.86
454.15	5977.73
454.34	6106.46
454.52	6284.34
454.70	6246.89
454.89	6249.23
455.07	6031.56
455.26	6305.40
455.44	6314.77
455.62	6394.34
455.81	6099.44
455.99	6436.47
456.17	6471.58
456.36	6506.69
456.54	6345.19
456.73	6476.26
456.91	6689.25
457.09	6658.82
457.28	6789.89
457.46	6590.95
457.64	6679.89
457.83	6665.85
458.01	6792.23
458.19	6860.11
458.38	6719.68
458.56	6815.64
458.74	6829.68
458.93	6789.89
459.11	6832.02
459.29	6857.77
459.48	6911.60
459.66	6942.03
459.84	6967.77
460.03	7225.23
460.21	6946.71
460.39	7105.87
460.57	7049.69
460.76	7206.51
460.94	7173.74
461.12	7124.59
461.31	7063.74
461.49	7056.72
461.67	7232.26
461.85	7243.96
462.04	7187.79
462.22	7653.55
462.40	7351.62
462.59	7339.92
462.77	7524.82
462.95	7412.48
463.13	7391.41
463.32	7372.69
463.50	7356.30
463.68	7513.12
463.86	7445.24
464.05	7470.99
464.23	7595.04
464.41	7564.61
464.59	7382.05
464.78	7782.28
464.96	7578.65
465.14	7449.93
465.32	7838.45
465.50	7702.70
465.69	7817.39
465.87	7730.79
466.05	7672.28
466.23	7662.91
466.41	7742.49
466.60	7978.89
466.78	7726.11
466.96	7789.30
467.14	7861.86
467.32	7705.04
467.51	7943.78
467.69	7758.88
467.87	7985.91
468.05	7920.37
468.23	7929.74
468.41	7866.54
468.60	8039.74
468.78	8060.80
468.96	8025.70
469.14	8131.02
469.32	8266.77
469.50	8212.94
469.69	8339.33
469.87	8166.13
470.05	8243.37
470.23	8306.56
470.41	8299.54
470.59	8573.38
470.77	8301.88
470.95	8475.08
471.14	8568.70
471.32	8311.24
471.50	8519.55
471.68	8615.51
471.86	8741.90
472.04	8739.56
472.22	8678.71
472.40	8624.87
472.58	8706.79
472.77	8767.65
472.95	8830.84
473.13	8957.23
473.31	8943.19
473.49	9191.28
473.67	8833.18
473.85	8872.97
474.03	9039.15
474.21	9118.73
474.39	9430.02
474.57	9212.35
474.75	9273.20
474.93	9472.15
475.12	9369.16
475.30	9584.49
475.48	9444.06
475.66	9820.89
475.84	9614.92
476.02	9671.09
476.20	9734.29
476.38	9884.08
476.56	9928.55
476.74	9818.55
476.92	10066.64
477.10	9935.57
477.28	10127.50
477.46	10169.63
477.64	10190.69
477.82	10368.57
478.00	10637.73
478.18	10551.14
478.36	10675.18
478.54	10703.27
478.72	11080.10
478.90	10841.36
479.08	10981.79
479.26	11068.39
479.44	11157.33
479.62	11075.42
479.80	11225.21
479.98	11166.70
480.16	11772.89
480.34	11449.90
480.52	11585.65
480.70	11578.63
480.88	11515.44
481.06	11552.88
481.24	11838.43
481.41	12063.12
481.59	12210.57
481.77	12035.03
481.95	12236.32
482.13	12145.04
482.31	12233.98
482.49	12470.37
482.67	12496.12
482.85	12547.61
483.03	12798.05
483.21	13043.81
483.39	12755.92
483.57	12966.57
483.74	13291.90
483.92	13357.44
484.10	13298.92
484.28	13614.90
484.46	13640.64
484.64	13930.87
484.82	13823.20
485.00	14050.24
485.18	14047.90
485.35	14544.09
485.53	14235.14
485.71	14303.01
485.89	14728.99
486.07	14572.18
486.25	14626.01
486.43	14607.28
486.61	14581.54
486.78	14967.73
486.96	15075.39
487.14	14972.41
487.32	15260.29
487.50	15510.73
487.68	15590.31
487.85	15599.67
488.03	15653.50
488.21	16233.96
488.39	16107.57
488.57	16470.35
488.75	16196.51
488.92	16538.23
489.10	16760.58
489.28	16491.41
489.46	16854.20
489.64	17020.38
489.81	17137.40
489.99	17167.83
490.17	17397.20
490.35	17343.37
490.53	17366.78
490.70	17673.39
490.88	17617.21
491.06	17755.30
491.24	17891.06
491.41	17956.59
491.59	18356.82
491.77	18150.85
491.95	18279.58
492.13	18214.05
492.30	18359.16
492.48	18429.38
492.66	18876.42
492.84	18810.89
493.01	19063.66
493.19	19241.54
493.37	18923.23
493.54	19398.36
493.72	19325.80
493.90	19541.13
494.08	19517.73
494.25	19744.76
494.43	19742.42
494.61	19852.42
494.79	20205.84
494.96	19754.12
495.14	20350.96
495.32	20372.02
495.49	20542.88
495.67	20634.16
495.85	20657.57
496.02	20952.48
496.20	21092.91
496.38	21298.88
496.55	21132.70
496.73	21425.26
496.91	21322.28
497.09	21546.97
497.26	21687.40
497.44	21865.28
497.62	21846.56
497.79	22054.87
497.97	22066.57
498.14	22192.96
498.32	22356.80
498.50	22562.76
498.67	22822.56
498.85	23019.17
499.03	22862.35
499.20	22553.40
499.38	23035.55
499.56	22822.56
499.73	22860.01
499.91	23543.45
500.08	23454.51
500.26	23147.90
500.44	23175.98
500.61	23405.36
500.79	23445.15
500.97	23648.77
501.14	23927.30
501.32	23990.49
501.49	23871.12
501.67	23978.79
501.84	24116.88
502.02	24233.91
502.20	24034.96
502.37	24261.99
502.55	24339.23
502.72	24414.13
502.90	24549.88
503.07	24542.86
503.25	24493.71
503.43	24435.19
503.60	25055.43
503.78	24973.52
503.95	24781.59
504.13	24882.24
504.30	25090.54
504.48	25235.66
504.65	25359.70
504.83	25532.90
505.01	25319.92
505.18	25984.63
505.36	25596.10
505.53	25745.89
505.71	25764.62
505.88	25666.31
506.06	25982.29
506.23	26230.38
506.41	25860.58
506.58	26120.38
506.76	26501.89
506.93	26314.64
507.11	26258.47
507.28	26623.59
507.46	26579.12
507.63	26450.39
507.81	26668.06
507.98	26859.99
508.16	26670.40
508.33	26806.16
508.50	27143.19
508.68	27136.17
508.85	27489.59
509.03	27611.30
509.20	27297.67
509.38	27585.55
509.55	27688.54
509.73	27513.00
509.90	27625.34
510.08	27428.74
510.25	27751.73
510.42	28053.66
510.60	27950.68
510.77	28308.78
510.95	28533.47
511.12	28273.67
511.30	28456.23
511.47	28769.86
511.64	27976.42
511.82	28645.82
511.99	28772.21
512.17	28814.34
512.34	28472.62
512.51	28971.15
512.69	29525.86
512.86	28996.90
513.04	29195.84
513.21	28992.22
513.38	29228.61
513.56	29436.92
513.73	29322.23
513.90	29387.77
514.08	29738.85
514.25	29788.00
514.43	29797.36
514.60	29673.31
514.77	29954.18
514.95	29813.74
515.12	29755.23
515.29	29827.79
515.47	30405.90
515.64	30153.12
515.81	29696.72
515.99	30436.33
516.16	30478.46
516.33	30679.74
516.51	30824.86
516.68	30670.38
516.85	30426.96
517.03	30792.09
517.20	30686.76
517.37	30888.05
517.54	31187.64
517.72	31065.93
517.89	31189.98
518.06	30925.50
518.24	31351.48
518.41	31248.49
518.58	31461.48
518.75	30984.01
518.93	31466.16
519.10	31592.55
519.27	31842.99
519.45	31704.90
519.62	31686.17
519.79	31735.32
519.96	31737.66
520.14	32180.03
520.31	31810.22
520.48	32472.59
520.65	32156.62
520.83	32655.15
521.00	32320.46
521.17	32362.59
521.34	32327.48
521.52	32634.09
521.69	32748.78
521.86	32669.20
522.03	32870.48
522.20	32992.19
522.38	33188.80
522.55	33081.13
522.72	33102.20
522.89	33291.78
523.07	33268.37
523.24	33420.51
523.41	33645.20
523.58	32861.12
523.75	33336.25
523.92	33525.83
524.10	33799.68
524.27	33500.09
524.44	33890.96
524.61	34178.84
524.78	33940.11
524.96	33844.15
525.13	34146.08
525.30	33886.28
525.47	34007.98
525.64	34139.05
525.81	34604.82
525.98	34323.96
526.16	34321.62
526.33	33923.72
526.50	34679.72
526.67	34068.84
526.84	34660.99
527.01	34778.02
527.18	34429.28
527.36	34735.89
527.53	34660.99
527.70	35180.59
527.87	35283.58
528.04	34307.57
528.21	35278.89
528.38	35077.61
528.55	35131.44
528.72	34693.76
528.89	35014.41
529.07	35424.01
529.24	35143.14
529.41	35793.81
529.58	35391.24
529.75	35133.78
529.92	35622.95
530.09	35337.41
530.26	35704.87
530.43	35552.74
530.60	35189.95
530.77	35328.05
530.94	35758.70
531.11	35688.49
531.28	35594.87
531.46	36044.25
531.63	36346.18
531.80	35639.34
531.97	36486.61
532.14	35999.78
532.31	36271.28
532.48	36376.61
532.65	36470.23
532.82	36243.20
532.99	36062.97
533.16	36210.43
533.33	36662.15
533.50	36353.20
533.67	36774.50
533.84	36704.28
534.01	36870.46
534.18	36964.08
534.35	37055.36
534.52	37078.77
534.69	37291.76
534.86	37476.66
535.03	37174.73
535.20	36980.46
535.37	37411.12
535.54	37338.57
535.71	37319.84
535.88	37354.95
536.05	37282.39
536.22	37603.05
536.38	37811.35
536.55	37385.38
536.72	37371.33
536.89	37291.76
537.06	37624.11
537.23	37862.85
537.40	37715.39
537.57	37801.99
537.74	37589.00
537.91	38038.39
538.08	37970.51
538.25	37633.47
538.42	37975.19
538.59	38417.55
538.75	38246.69
538.92	38258.40
539.09	38747.57
539.26	38242.01
539.43	37851.14
539.60	38389.47
539.77	38415.21
539.94	38328.61
540.11	38525.22
540.28	38499.47
540.44	38780.34
540.61	38323.93
540.78	38656.29
540.95	39023.75
541.12	38373.08
541.29	39061.20
541.46	38979.28
541.62	38838.85
541.79	38815.44
541.96	38595.43
542.13	38541.60
542.30	38852.89
542.47	39100.99
542.63	39147.80
542.80	39536.33
542.97	39346.75
543.14	39768.04
543.31	39533.99
543.48	39438.03
543.64	39672.08
543.81	39716.55
543.98	40170.61
544.15	39557.39
544.32	39718.89
544.48	40360.20
544.65	40055.93
544.82	39903.79
544.99	39824.22
545.16	40189.34
545.32	39852.30
545.49	40411.69
545.66	40086.36
545.83	40149.55
546.00	39985.71
546.16	40275.94
546.33	40491.27
546.50	39885.07
546.67	40526.38
546.83	39824.22
547.00	40596.59
547.17	40292.32
547.34	40715.96
547.50	40381.26
547.67	40659.79
547.84	40598.93
548.00	40627.02
548.17	40978.10
548.34	40687.87
548.51	41205.13
548.67	41275.35
548.84	41020.23
549.01	40903.20
549.18	40713.62
549.34	41095.13
549.51	41401.74
549.68	41155.98
549.84	40973.42
550.01	41570.25
550.18	40931.29
550.34	41102.15
550.51	41244.92
550.68	41249.60
550.84	40910.22
551.01	41867.50
551.18	41329.18
551.34	41425.14
551.51	41675.58
551.68	41455.57
551.84	41698.98
552.01	41724.73
552.18	41556.21
552.34	41359.61
552.51	41518.76
552.68	41010.87
552.84	41790.27
553.01	41565.57
553.18	42080.49
553.34	41652.17
553.51	41869.84
553.67	41600.68
553.84	42192.84
554.01	41888.57
554.17	42190.50
554.34	42382.42
554.51	42227.95
554.67	42225.60
554.84	42323.91
555.00	42391.78
555.17	41909.63
555.33	42485.40
555.50	42529.87
555.67	42548.60
555.83	42377.74
556.00	41942.40
556.16	42712.44
556.33	42646.90
556.50	42389.44
556.66	42349.65
556.83	42384.76
556.99	42864.57
557.16	42836.48
557.32	42836.48
557.49	43264.80
557.65	42714.78
557.82	42733.50
557.98	42808.40
558.15	42646.90
558.32	42918.40
558.48	42958.19
558.65	42579.03
558.81	42602.43
558.98	42864.57
559.14	43133.73
559.31	43065.86
559.47	43089.26
559.64	43407.58
559.80	42990.96
559.97	43166.50
560.13	42906.70
560.30	42787.33
560.46	43367.79
560.63	43283.53
560.79	43175.86
560.96	43253.10
561.12	42981.60
561.29	43136.07
561.45	43601.84
561.61	43115.01
561.78	43342.04
561.94	43285.87
562.11	43452.05
562.27	43449.70
562.44	43583.12
562.60	43475.45
562.77	43531.62
562.93	43201.61
563.10	43915.47
563.26	43325.66
563.42	43753.97
563.59	43217.99
563.75	43337.36
563.92	43292.89
564.08	43950.58
564.24	43938.88
564.41	43522.26
564.57	43681.42
564.74	43723.55
564.90	43566.73
565.07	43337.36
565.23	43508.22
565.39	43791.42
565.56	43552.69
565.72	43569.07
565.88	44051.22
566.05	44034.84
566.21	43973.98
566.38	43913.13
566.54	43587.80
566.70	43854.62
566.87	43672.06
567.03	43906.11
567.19	44116.76
567.36	44215.06
567.52	43943.56
567.68	43931.86
567.85	44041.86
568.01	44147.18
568.17	43814.83
568.34	44130.80
568.50	44285.28
568.66	43880.36
568.83	43658.01
568.99	43746.95
569.15	44069.95
569.32	43962.28
569.48	44023.14
569.64	44112.08
569.81	44182.29
569.97	44222.08
570.13	44477.20
570.30	44002.07
570.46	44102.71
570.62	44327.41
570.78	43887.39
570.95	43908.45
571.11	44676.15
571.27	44299.32
571.43	44233.78
571.60	44116.76
571.76	44226.76
571.92	44144.84
572.09	44030.16
572.25	44189.31
572.41	44442.09
572.57	44608.27
572.74	45134.89
572.90	43969.30
573.06	44287.62
573.22	44444.43
573.38	44786.15
573.55	44308.68
573.71	44870.41
573.87	44753.38
574.03	44912.54
574.20	44760.40
574.36	44566.14
574.52	44732.32
574.68	44521.67
574.84	44460.82
575.01	44793.17
575.17	44704.23
575.33	44397.62
575.49	44486.56
575.65	44540.39
575.82	44545.08
575.98	44439.75
576.14	44854.03
576.30	44921.90
576.46	44767.43
576.62	44552.10
576.79	44655.08
576.95	44559.12
577.11	44219.74
577.27	44411.67
577.43	44458.48
577.59	44591.89
577.75	44224.42
577.92	44655.08
578.08	44737.00
578.24	44741.68
578.40	45268.30
578.56	44582.52
578.72	44626.99
578.88	44989.78
579.04	44795.51
579.21	44765.09
579.37	44863.39
579.53	44364.85
579.69	44535.71
579.85	44804.88
580.01	44821.26
580.17	45254.26
580.33	44872.75
580.49	44924.24
580.65	44687.85
580.82	44655.08
580.98	44889.13
581.14	44687.85
581.30	44549.76
581.46	44863.39
581.62	44818.92
581.78	44479.54
581.94	44594.23
582.10	45041.27
582.26	45324.47
582.42	44886.79
582.58	44748.70
582.74	44746.36
582.90	45146.59
583.06	45277.66
583.22	45357.24
583.38	45153.62
583.54	45186.38
583.70	44858.71
583.86	44919.56
584.02	45160.64
584.18	45146.59
584.34	44816.58
584.50	45113.83
584.66	45172.34
584.82	44938.29
584.98	45345.54
585.14	44898.50
585.30	44526.35
585.46	45090.42
585.62	44788.49
585.78	44793.17
585.94	44617.63
586.10	44364.85
586.26	44479.54
586.42	44842.32
586.58	45067.02
586.74	44657.42
586.90	44945.31
587.06	44655.08
587.22	45478.95
587.38	45125.53
587.54	45036.59
587.70	45249.58
587.86	45109.14
588.02	44676.15
588.18	44914.88
588.34	45202.77
588.49	44718.28
588.65	45055.31
588.81	45195.74
588.97	45043.61
589.13	45350.22
589.29	44797.85
589.45	45443.84
589.61	45413.41
589.77	45263.62
589.93	45537.46
590.08	45265.96
590.24	45624.06
590.40	45600.66
590.56	45904.93
590.72	45006.16
590.88	45088.08
591.04	45429.80
591.20	45698.96
591.35	45652.15
591.51	45565.55
591.67	45830.03
591.83	45453.20
591.99	45380.65
592.15	45478.95
592.31	45268.30
592.46	45474.27
592.62	45139.57
592.78	45301.07
592.94	45588.95
593.10	45621.72
593.26	45621.72
593.41	45703.64
593.57	45347.88
593.73	46064.08
593.89	46218.56
594.05	45893.22
594.20	45476.61
594.36	46057.06
594.52	45511.72
594.68	45656.83
594.84	45455.54
594.99	45642.79
595.15	45607.68
595.31	45834.71
595.47	45764.49
595.62	45790.24
595.78	45209.79
595.94	45844.07
596.10	45820.67
596.25	46078.13
596.41	46007.91
596.57	45521.08
596.73	45771.52
596.88	45521.08
597.04	45925.99
597.20	45776.20
597.36	45397.03
597.51	45975.14
597.67	45528.10
597.83	45727.05
597.99	45563.21
598.14	45556.19
598.30	45490.65
598.46	45689.60
598.61	46127.28
598.77	46085.15
598.93	45928.33
599.09	45617.04
599.24	46010.25
599.40	45956.42
599.56	45918.97
599.71	46494.74
599.87	46522.83
600.03	46150.68
600.18	45949.40
600.34	45865.14
600.50	46127.28
600.65	45773.86
600.81	46230.26
600.97	46028.98
601.12	46162.39
601.28	45757.47
601.44	45958.76
601.59	45944.72
601.75	45495.33
601.91	46363.67
602.06	45535.12
602.22	46579.00
602.37	45921.31
602.53	46293.46
602.69	46124.94
602.84	45668.53
603.00	45677.90
603.16	45986.85
603.31	45949.40
603.47	45839.39
603.62	45808.96
603.78	46263.03
603.94	46305.16
604.09	45621.72
604.25	45598.32
604.40	45216.81
604.56	45731.73
604.71	45993.87
604.87	46031.32
605.03	45750.45
605.18	45652.15
605.34	45703.64
605.49	45642.79
605.65	45902.59
605.80	45799.60
605.96	45703.64
606.12	45909.61
606.27	45820.67
606.43	45766.84
606.58	45968.12
606.74	45734.07
606.89	45771.52
607.05	45818.33
607.20	45883.86
607.36	45783.22
607.51	45530.44
607.67	45614.70
607.82	45350.22
607.98	45743.43
608.13	45432.14
608.29	45837.05
608.44	45991.53
608.60	45750.45
608.75	45425.12
608.91	45642.79
609.06	45036.59
609.22	45874.50
609.37	45408.73
609.53	45853.44
609.68	45907.27
609.84	45677.90
609.99	45289.37
610.15	45652.15
610.30	45401.71
610.46	45333.84
610.61	45406.39
610.76	45853.44
610.92	45401.71
611.07	45191.06
611.23	45429.80
611.38	45661.51
611.54	45532.78
611.69	45741.09
611.84	45448.52
612.00	45401.71
612.15	45429.80
612.31	45331.50
612.46	44971.05
612.62	45572.57
612.77	45059.99
612.92	45815.99
613.08	45219.15
613.23	45195.74
613.39	45406.39
613.54	44769.77
613.69	45235.53
613.85	45158.30
614.00	44968.71
614.15	45546.82
614.31	45240.21
614.46	44907.86
614.62	45085.74
614.77	45186.38
614.92	45535.12
615.08	44926.58
615.23	45010.84
615.38	45212.13
615.54	45050.63
615.69	45219.15
615.84	45191.06
616.00	45132.55
616.15	45352.56
616.30	45474.27
616.46	45172.34
616.61	44889.13
616.76	45099.78
616.92	44725.30
617.07	45064.67
617.22	44804.88
617.37	44718.28
617.53	44662.10
617.68	45298.73
617.83	44278.25
617.99	45179.36
618.14	45172.34
618.29	44755.72
618.45	44765.09
618.60	44332.09
618.75	44701.89
618.90	44467.84
619.06	44804.88
619.21	44140.16
619.36	45067.02
619.51	44664.44
619.67	44591.89
619.82	44479.54
619.97	44664.44
620.12	44399.96
620.28	44215.06
620.43	44809.56
620.58	44638.70
620.73	44811.90
620.89	44786.15
621.04	45022.54
621.19	44612.95
621.34	44744.02
621.49	44435.07
621.65	44533.37
621.80	44566.14
621.95	44388.26
622.10	44399.96
622.25	44526.35
622.41	44191.65
622.56	44081.65
622.71	44392.94
622.86	44414.01
623.01	44257.19
623.16	44404.64
623.32	44437.41
623.47	44184.63
623.62	44217.40
623.77	44191.65
623.92	44514.65
624.07	43992.71
624.23	44360.17
624.38	44044.20
624.53	43931.86
624.68	43501.20
624.83	43770.36
624.98	44186.97
625.13	43540.99
625.29	43702.48
625.44	44191.65
625.59	43985.69
625.74	44069.95
625.89	43732.91
626.04	43538.65
626.19	43723.55
626.34	43351.40
626.49	43423.96
626.65	43435.66
626.80	43571.41
626.95	43363.11
627.10	42691.37
627.25	43526.94
627.40	43463.75
627.55	43578.43
627.70	43175.86
627.85	43894.41
628.00	43278.85
628.15	43416.94
628.30	42857.55
628.45	43145.44
628.60	43091.60
628.76	42859.89
628.91	43304.59
629.06	42850.53
629.21	43292.89
629.36	43365.45
629.51	43161.82
629.66	43325.66
629.81	43047.13
629.96	43168.84
630.11	43131.39
630.26	42672.65
630.41	42925.42
630.56	42763.93
630.71	42836.48
630.86	42742.86
631.01	42841.17
631.16	43079.90
631.31	42848.19
631.46	42689.03
631.61	42550.94
631.76	43124.37
631.91	42789.67
632.06	42899.68
632.21	42852.87
632.36	43412.26
632.51	42525.19
632.66	42817.76
632.81	42817.76
632.96	42043.04
633.10	42164.75
633.25	42349.65
633.40	42412.85
633.55	42541.58
633.70	42815.42
633.85	42349.65
634.00	42735.84
634.15	42263.05
634.30	42567.32
634.45	42438.59
634.60	42106.24
634.75	42251.35
634.90	42597.75
635.05	42667.97
635.19	42396.46
635.34	42295.82
635.49	42230.29
635.64	41928.36
635.79	42368.38
635.94	42136.66
636.09	42459.66
636.24	42227.95
636.39	42052.41
636.53	41904.95
636.68	41841.76
636.83	41818.35
636.98	41567.91
637.13	41743.45
637.28	41759.84
637.43	41715.37
637.57	42227.95
637.72	41961.12
637.87	41670.90
638.02	41998.57
638.17	42019.64
638.32	41900.27
638.46	41563.23
638.61	41965.81
638.76	41584.30
638.91	41663.88
639.06	41092.79
639.20	41434.50
639.35	41078.74
639.50	41535.15
639.65	41816.01
639.80	42085.17
639.94	41607.70
640.09	41347.90
640.24	41691.96
640.39	41289.39
640.54	41294.07
640.68	41230.88
640.83	41734.09
640.98	41062.36
641.13	40882.14
641.27	41670.90
641.42	41104.49
641.57	40999.16
641.72	41205.13
641.86	41322.16
642.01	40722.98
642.16	41085.76
642.31	40725.32
642.45	41125.55
642.60	40540.42
642.75	41104.49
642.90	41109.17
643.04	40797.88
643.19	40556.80
643.34	40435.10
643.48	40282.96
643.63	40818.94
643.78	40790.86
643.93	40772.13
644.07	40964.06
644.22	41139.60
644.37	40620.00
644.51	40947.67
644.66	41041.29
644.81	40643.40
644.95	40821.28
645.10	40638.72
645.25	40322.75
645.39	40084.01
645.54	39962.31
645.69	40194.02
645.83	40072.31
645.98	40243.17
646.13	40278.28
646.27	40524.04
646.42	40252.53
646.57	40168.27
646.71	40081.67
646.86	40407.01
647.00	40297.00
647.15	40423.39
647.30	40170.61
647.44	40250.19
647.59	39915.50
647.74	40079.33
647.88	40538.08
648.03	40444.46
648.17	40538.08
648.32	40205.72
648.47	40381.26
648.61	40308.71
648.76	39791.45
648.90	39920.18
649.05	39477.82
649.20	40079.33
649.34	40210.40
649.49	40011.46
649.63	40275.94
649.78	40355.52
649.92	40016.14
650.07	39945.92
650.21	40023.16
650.36	39693.15
650.51	39835.92
650.65	40095.72
650.80	40076.99
650.94	40189.34
651.09	39655.70
651.23	39140.78
651.38	39239.08
651.52	39482.50
651.67	39131.42
651.81	39349.09
651.96	39763.36
652.10	39000.35
652.25	39730.59
652.39	39388.88
652.54	39505.90
652.68	39564.42
652.83	39318.66
652.97	39533.99
653.12	39445.05
653.26	38913.75
653.41	39157.16
653.55	39199.29
653.70	39578.46
653.84	39288.23
653.99	39405.26
654.13	39302.28
654.27	39143.12
654.42	39321.00
654.56	38717.14
654.71	38756.93
654.85	39526.97
655.00	39449.73
655.14	39316.32
655.29	39000.35
655.43	39229.72
655.57	38986.30
655.72	38759.27
655.86	38895.02
656.01	38848.21
656.15	38827.15
656.30	38653.95
656.44	39075.24
656.58	39079.92
656.73	38925.45
656.87	38667.99
657.01	38513.52
657.16	38859.91
657.30	38398.83
657.45	38857.57
657.59	38230.31
657.73	38155.41
657.88	38361.38
658.02	38382.45
658.16	38916.09
658.31	39007.37
658.45	38267.76
658.60	38394.15
658.74	38204.56
658.88	38096.90
659.03	38239.67
659.17	38110.94
659.31	38157.75
659.46	37755.18
659.60	38143.71
659.74	38047.75
659.89	37539.85
660.03	37441.55
660.17	37766.88
660.32	37757.52
660.46	37806.67
660.60	37261.33
660.74	37921.36
660.89	37759.86
661.03	37415.80
661.17	37134.94
661.32	37638.15
661.46	37303.46
661.60	37366.65
661.74	37368.99
661.89	37495.38
662.03	37212.18
662.17	37242.60
662.31	37247.29
662.46	37223.88
662.60	36896.20
662.74	37001.53
662.88	36374.27
663.03	36727.69
663.17	36622.36
663.31	36821.31
663.45	36444.48
663.60	36966.42
663.74	36952.38
663.88	36861.10
664.02	36577.89
664.17	36500.65
664.31	36706.62
664.45	36308.73
664.59	36479.59
664.73	36332.14
664.88	36460.87
665.02	35665.08
665.16	36081.70
665.30	36526.40
665.44	36318.09
665.59	35723.60
665.73	35468.48
665.87	35576.14
666.01	36290.01
666.15	35952.97
666.29	35945.95
666.44	36238.51
666.58	35831.26
666.72	35835.94
666.86	35608.91
667.00	35793.81
667.14	35529.33
667.28	35449.75
667.43	35206.34
667.57	35517.63
667.71	35796.15
667.85	36039.57
667.99	34944.20
668.13	35302.30
668.27	34864.62
668.41	34771.00
668.56	34677.38
668.70	34649.29
668.84	34391.83
668.98	34150.76
669.12	34565.03
669.26	34749.93
669.40	34558.01
669.54	34782.70
669.68	34167.14
669.82	34387.15
669.96	34054.79
670.10	33844.15
670.25	34031.39
670.39	34050.11
670.53	34232.68
670.67	33827.76
670.81	34047.77
670.95	34267.78
671.09	33556.26
671.23	33813.72
671.37	33996.28
671.51	33619.46
671.65	33362.00
671.79	33853.51
671.93	33584.35
672.07	33617.11
672.21	33284.76
672.35	32929.00
672.49	33067.09
672.63	33329.23
672.77	33048.36
672.91	32875.16
673.05	32512.38
673.19	33069.43
673.33	32589.62
673.47	32800.27
673.61	32711.33
673.75	32613.02
673.89	32196.41
674.03	32404.72
674.17	32023.21
674.31	32339.18
674.45	32137.90
674.59	32144.92
674.73	32180.03
674.87	31644.04
675.01	31754.05
675.15	31718.94
675.29	31379.56
675.43	31105.72
675.56	31470.84
675.70	31204.02
675.84	31346.79
675.98	30352.07
676.12	31262.54
676.26	31557.44
676.40	31119.76
676.54	30927.84
676.68	30693.79
676.82	30101.63
676.96	30883.37
677.10	30637.61
677.23	30541.65
677.37	30499.52
677.51	30415.26
677.65	30110.99
677.79	29752.89
677.93	29942.47
678.07	30249.08
678.21	29582.03
678.34	29876.94
678.48	29778.64
678.62	29591.39
678.76	29769.27
678.90	29460.32
679.04	29263.72
679.18	29310.53
679.31	29188.82
679.45	28875.19
679.59	29062.43
679.73	28933.70
679.87	28856.46
680.00	29013.28
680.14	28493.68
680.28	28465.60
680.42	28596.67
680.56	28301.76
680.70	28231.54
680.83	27718.96
680.97	27754.07
681.11	28247.93
681.25	27637.05
681.39	27740.03
681.52	27669.81
681.66	27110.43
681.80	26965.31
681.94	26909.14
682.07	26977.01
682.21	26817.86
682.35	26726.58
682.49	26960.63
682.62	26693.81
682.76	26754.66
682.90	26974.67
683.04	26621.25
683.17	26845.94
683.31	26270.17
683.45	26490.18
683.59	26050.16
683.72	26045.48
683.86	26199.96
684.00	25825.47
684.13	25872.28
684.27	25785.68
684.41	25752.91
684.55	25656.95
684.68	25708.44
684.82	25591.42
684.96	25139.69
685.09	25277.79
685.23	25046.07
685.37	25245.02
685.50	25532.90
685.64	25411.20
685.78	24809.68
685.91	24858.83
686.05	24580.31
686.19	24362.64
686.32	24414.13
686.46	24327.53
686.60	24252.63
686.73	24238.59
686.87	24107.52
687.01	24184.76
687.14	24180.07
687.28	24123.90
687.42	23431.10
687.55	23779.84
687.69	23782.18
687.82	23161.94
687.96	23484.94
688.10	23318.76
688.23	23456.85
688.37	23370.25
688.50	23171.30
688.64	23068.32
688.78	23040.23
688.91	23000.44
689.05	22874.06
689.18	22698.52
689.32	22211.68
689.46	22143.81
689.59	22335.73
689.73	22590.85
689.86	22597.87
690.00	22221.05
690.13	22302.96
690.27	21568.04
690.41	21834.86
690.54	21844.22
690.68	21797.41
690.81	21558.67
690.95	21378.45
691.08	21572.72
691.22	21191.21
691.35	21256.75
691.49	21369.09
691.62	21312.92
691.76	20748.85
691.89	20781.62
692.03	20467.98
692.16	20119.24
692.30	20582.67
692.43	20524.16
692.57	20311.17
692.70	20318.19
692.84	20294.79
692.97	19894.55
693.11	20070.09
693.24	19901.58
693.38	19948.39
693.51	19779.87
693.65	19805.61
693.78	19508.37
693.92	19363.25
694.05	19360.91
694.19	19257.93
694.32	19440.49
694.45	19733.06
694.59	19637.09
694.72	19449.85
694.86	19346.87
694.99	19110.47
695.13	19164.31
695.26	18841.31
695.39	18532.36
695.53	18471.51
695.66	18569.81
695.80	18602.58
695.93	18274.90
696.07	18090.00
696.20	17949.57
696.33	17809.14
696.47	17790.41
696.60	17954.25
696.73	17764.67
696.87	17649.98
697.00	17734.24
697.14	17816.16
697.27	17547.00
697.40	17413.59
697.54	17270.81
697.67	17488.48
697.80	17181.87
697.94	16992.29
698.07	17371.46
698.21	17231.02
698.34	17142.08
698.47	17109.32
698.61	16301.83
698.74	16772.28
698.87	16620.14
699.01	16369.71
699.14	16271.40
699.27	16435.24
699.40	16414.18
699.54	16187.14
699.67	16077.14
699.80	16294.81
699.94	15826.70
700.07	15939.05
700.20	16154.38
700.34	15777.55
700.47	15871.17
700.60	15796.28
700.73	15669.89
700.87	15503.71
701.00	15328.17
701.13	15473.28
701.26	15096.46
701.40	14902.19
701.53	15002.83
701.66	15185.40
701.79	15002.83
701.93	14878.79
702.06	14396.64
702.19	14565.15
702.32	14780.48
702.46	14663.46
702.59	14714.95
702.72	14626.01
702.85	14628.35
702.99	14427.06
703.12	14394.29
703.25	14293.65
703.38	14010.45
703.51	13984.70
703.65	13837.25
703.78	13720.22
703.91	13713.20
704.04	13614.90
704.17	13729.58
704.31	13823.20
704.44	13373.82
704.57	13399.57
704.70	13329.35
704.83	13212.32
704.96	13266.16
705.10	13334.03
705.23	13268.50
>>>>>End Processed Spectral Data<<<<<
