SpectraSuite Data File
++++++++++++++++++++++++++++++++++++
Date: Fri Oct 25 11:33:26 EDT 2013
User: price-jones
Dark Spectrum Present: No
Reference Spectrum Present: No
Number of Sampled Component Spectra: 1
Spectrometers: USB2+H05261
Integration Time (usec): 100000 (USB2+H05261)
Spectra Averaged: 1 (USB2+H05261)
Boxcar Smoothing: 0 (USB2+H05261)
Correct for Electrical Dark: No (USB2+H05261)
Strobe/Lamp Enabled: No (USB2+H05261)
Correct for Detector Non-linearity: No (USB2+H05261)
Correct for Stray Light: No (USB2+H05261)
Number of Pixels in Processed Spectrum: 2048
>>>>>Begin Processed Spectral Data<<<<<
365.73	278.52
365.92	278.52
366.12	278.52
366.32	198.95
366.52	227.03
366.72	140.43
366.91	175.54
367.11	191.92
367.31	135.75
367.51	191.92
367.70	182.56
367.90	212.99
368.10	154.48
368.30	142.77
368.49	166.18
368.69	182.56
368.89	145.11
369.09	168.52
369.28	189.58
369.48	252.78
369.68	224.69
369.87	292.57
370.07	264.48
370.27	280.86
370.47	346.40
370.66	449.38
370.86	528.96
371.06	484.49
371.25	512.58
371.45	524.28
371.65	535.98
371.84	585.13
372.04	489.17
372.24	524.28
372.44	634.29
372.63	589.82
372.83	535.98
373.03	568.75
373.22	667.05
373.42	636.63
373.62	599.18
373.81	657.69
374.01	603.86
374.21	653.01
374.40	641.31
374.60	699.82
374.79	638.97
374.99	781.74
375.19	650.67
375.38	657.69
375.58	683.44
375.78	622.58
375.97	645.99
376.17	695.14
376.37	669.39
376.56	629.60
376.76	648.33
376.95	674.07
377.15	763.01
377.35	702.16
377.54	692.80
377.74	732.59
377.93	765.36
378.13	692.80
378.33	676.41
378.52	695.14
378.72	711.52
378.91	688.12
379.11	713.86
379.31	711.52
379.50	753.65
379.70	786.42
379.89	781.74
380.09	713.86
380.28	718.54
380.48	727.91
380.68	730.25
380.87	784.08
381.07	767.70
381.26	767.70
381.46	760.67
381.65	777.06
381.85	777.06
382.04	791.10
382.24	744.29
382.43	774.72
382.63	720.88
382.83	823.87
383.02	706.84
383.22	795.78
383.41	793.44
383.61	807.48
383.80	732.59
384.00	833.23
384.19	727.91
384.39	802.80
384.58	779.40
384.78	830.89
384.97	809.83
385.17	833.23
385.36	901.11
385.56	774.72
385.75	819.19
385.95	800.46
386.14	814.51
386.34	795.78
386.53	753.65
386.72	933.87
386.92	840.25
387.11	887.06
387.31	898.77
387.50	774.72
387.70	903.45
387.89	868.34
388.09	896.43
388.28	875.36
388.48	903.45
388.67	950.26
388.86	901.11
389.06	828.55
389.25	901.11
389.45	947.92
389.64	968.98
389.84	943.24
390.03	1004.09
390.22	910.47
390.42	877.70
390.61	966.64
390.81	1041.54
391.00	959.62
391.19	983.02
391.39	1008.77
391.58	1008.77
391.78	1018.13
391.97	1018.13
392.16	971.32
392.36	1118.78
392.55	1100.05
392.75	1041.54
392.94	1048.56
393.13	1074.31
393.33	1088.35
393.52	1020.47
393.71	1130.48
393.91	1071.97
394.10	1088.35
394.29	1076.65
394.49	1128.14
394.68	1111.75
394.88	1109.41
395.07	1121.12
395.26	1121.12
395.46	1153.88
395.65	1132.82
395.84	1233.46
396.04	1228.78
396.23	1245.16
396.42	1135.16
396.62	1160.91
396.81	1212.40
397.00	1188.99
397.19	1163.25
397.39	1205.38
397.58	1177.29
397.77	1193.67
397.97	1299.00
398.16	1226.44
398.35	1273.25
398.55	1275.59
398.74	1296.66
398.93	1268.57
399.12	1247.51
399.32	1284.95
399.51	1310.70
399.70	1336.45
399.90	1387.94
400.09	1273.25
400.28	1357.51
400.47	1296.66
400.67	1446.45
400.86	1409.00
401.05	1423.05
401.24	1432.41
401.44	1399.64
401.63	1462.83
401.82	1413.68
402.01	1448.79
402.21	1453.47
402.40	1469.86
402.59	1540.07
402.78	1490.92
402.97	1488.58
403.17	1533.05
403.36	1657.10
403.55	1565.82
403.74	1619.65
403.93	1617.31
404.13	1598.59
404.32	1577.52
404.51	1654.76
404.70	1600.93
404.89	1607.95
405.09	1673.48
405.28	1736.68
405.47	1591.56
405.66	1668.80
405.85	1680.50
406.05	1849.02
406.24	1750.72
406.43	1699.23
406.62	1748.38
406.81	1954.35
407.00	1785.83
407.20	1729.66
407.39	1797.53
407.58	1818.60
407.77	1898.17
407.96	1881.79
408.15	1961.37
408.34	1963.71
408.54	1923.92
408.73	1865.41
408.92	1968.39
409.11	1980.09
409.30	2090.10
409.49	1968.39
409.68	2001.16
409.87	1998.82
410.07	2054.99
410.26	2019.88
410.45	2092.44
410.64	2050.31
410.83	2143.93
411.02	2132.23
411.21	2218.83
411.40	2172.02
411.59	2211.81
411.78	2188.40
411.98	2106.48
412.17	2197.76
412.36	2326.49
412.55	2279.68
412.74	2413.09
412.93	2342.88
413.12	2359.26
413.31	2497.35
413.50	2466.92
413.69	2300.75
413.88	2420.11
414.07	2434.16
414.26	2485.65
414.45	2516.08
414.64	2553.52
414.83	2567.57
415.02	2588.63
415.22	2663.53
415.41	2642.46
415.60	2609.70
415.79	2635.44
415.98	2738.43
416.17	2768.85
416.36	2801.62
416.55	2806.30
416.74	2832.05
416.93	2827.37
417.12	2850.77
417.31	2867.16
417.50	2892.90
417.69	2878.86
417.88	2827.37
418.07	2988.86
418.26	2949.08
418.45	2930.35
418.64	3096.53
418.83	3021.63
419.02	2993.55
419.21	3159.72
419.39	3115.25
419.58	3232.28
419.77	3173.77
419.96	3220.58
420.15	3136.32
420.34	3283.77
420.53	3150.36
420.72	3201.85
420.91	3258.03
421.10	3229.94
421.29	3438.25
421.48	3171.43
421.67	3236.96
421.86	3211.22
422.05	3293.13
422.24	3375.05
422.43	3222.92
422.61	3377.39
422.80	3384.41
422.99	3421.86
423.18	3309.52
423.37	3407.82
423.56	3506.12
423.75	3473.36
423.94	3309.52
424.13	3215.90
424.32	3267.39
424.50	3452.29
424.69	3574.00
424.88	3417.18
425.07	3403.14
425.26	3419.52
425.45	3428.88
425.64	3417.18
425.83	3520.17
426.01	3559.95
426.20	3449.95
426.39	3524.85
426.58	3435.91
426.77	3452.29
426.96	3609.11
427.15	3592.72
427.33	3620.81
427.52	3630.17
427.71	3721.45
427.90	3569.32
428.09	3592.72
428.28	3705.07
428.46	3700.39
428.65	3552.93
428.84	3850.18
429.03	3911.04
429.22	3702.73
429.40	3786.99
429.59	3705.07
429.78	3658.26
429.97	3627.83
430.16	3758.90
430.34	3871.25
430.53	3948.48
430.72	3873.59
430.91	3892.31
431.10	3845.50
431.28	4039.76
431.47	3981.25
431.66	4098.28
431.85	3871.25
432.03	4119.34
432.22	4117.00
432.41	4102.96
432.60	4016.36
432.79	4072.53
432.97	4173.18
433.16	4217.65
433.35	4046.79
433.54	4212.96
433.72	4285.52
433.91	4236.37
434.10	4166.15
434.28	4173.18
434.47	4131.05
434.66	4311.27
434.85	4360.42
435.03	4552.34
435.22	4395.53
435.41	4442.34
435.59	4381.48
435.78	4411.91
435.97	4278.50
436.16	4306.59
436.34	4423.61
436.53	4395.53
436.72	4491.49
436.90	4437.66
437.09	4524.26
437.28	4423.61
437.46	4484.47
437.65	4582.77
437.84	4685.75
438.02	4655.33
438.21	4554.68
438.40	4547.66
438.58	4713.84
438.77	4711.50
438.96	4606.17
439.14	4842.57
439.33	4884.70
439.52	5015.77
439.70	5001.72
439.89	4945.55
440.08	5025.13
440.26	5060.24
440.45	4943.21
440.63	5226.42
440.82	5188.97
441.01	5088.32
441.19	5238.12
441.38	5249.82
441.57	5280.25
441.75	5226.42
441.94	5392.59
442.12	5530.69
442.31	5474.51
442.50	5577.50
442.68	5324.72
442.87	5535.37
443.05	5540.05
443.24	5481.53
443.43	5591.54
443.61	5596.22
443.80	5724.95
443.98	5523.66
444.17	5350.46
444.35	5612.60
444.54	5717.93
444.73	5659.42
444.91	5699.20
445.10	5549.41
445.28	5713.25
445.47	5640.69
445.65	5717.93
445.84	5834.96
446.02	5762.40
446.21	5790.49
446.39	5767.08
446.58	5689.84
446.77	5802.19
446.95	5584.52
447.14	5626.65
447.32	5830.27
447.51	5877.09
447.69	5905.17
447.88	5771.76
448.06	5879.43
448.25	5846.66
448.43	5741.33
448.62	5771.76
448.80	5942.62
448.99	5802.19
449.17	5968.37
449.36	5940.28
449.54	6057.31
449.73	5912.19
449.91	6188.38
450.10	6071.35
450.28	6134.54
450.46	6043.26
450.65	6195.40
450.83	6132.20
451.02	6132.20
451.20	6108.80
451.39	6230.51
451.57	6230.51
451.76	6038.58
451.94	6200.08
452.13	6296.04
452.31	6375.62
452.49	6171.99
452.68	6349.87
452.86	6431.79
453.05	6298.38
453.23	6511.37
453.42	6347.53
453.60	6328.81
453.78	6614.35
453.97	6319.45
454.15	6551.16
454.34	6567.54
454.52	6473.92
454.70	6579.25
454.89	6394.34
455.07	6658.82
455.26	6548.82
455.44	6682.23
455.62	6782.87
455.81	6722.02
455.99	6703.29
456.17	6825.00
456.36	6853.09
456.54	6719.68
456.73	7042.67
456.91	6988.84
457.09	7042.67
457.28	7026.29
457.46	6867.13
457.64	7028.63
457.83	7026.29
458.01	6956.07
458.19	7410.14
458.38	7157.36
458.56	7155.02
458.74	7143.32
458.93	7145.66
459.11	7258.00
459.29	7286.09
459.48	7304.81
459.66	7239.28
459.84	7351.62
460.03	7405.46
460.21	7283.75
460.39	7302.47
460.57	7559.93
460.76	7456.95
460.94	7737.81
461.12	7557.59
461.31	7515.46
461.49	7503.76
461.67	7569.29
461.85	7557.59
462.04	7719.09
462.22	8011.65
462.40	7714.41
462.59	7754.19
462.77	7805.69
462.95	7829.09
463.13	7840.79
463.32	7906.33
463.50	7946.12
463.68	7882.92
463.86	7960.16
464.05	7896.97
464.23	8006.97
464.41	8035.06
464.59	7906.33
464.78	8032.72
464.96	7829.09
465.14	7981.23
465.32	7995.27
465.50	8231.66
465.69	8252.73
465.87	8098.25
466.05	8067.83
466.23	8063.15
466.41	8203.58
466.60	8561.68
466.78	8198.90
466.96	8145.06
467.14	8161.45
467.32	8210.60
467.51	8306.56
467.69	8131.02
467.87	8468.06
468.05	8416.57
468.23	8135.70
468.41	8463.38
468.60	8531.25
468.78	8641.26
468.96	8360.39
469.14	8617.85
469.32	8685.73
469.50	8631.90
469.69	8814.46
469.87	8992.34
470.05	8821.48
470.23	8748.92
470.41	8919.78
470.59	9174.90
470.77	8917.44
470.95	8973.61
471.14	9011.06
471.32	8968.93
471.50	9200.65
471.68	8968.93
471.86	9121.07
472.04	9404.27
472.22	9397.25
472.40	9212.35
472.58	9233.41
472.77	9437.04
472.95	9462.79
473.13	9731.95
473.31	9371.50
473.49	9621.94
473.67	9430.02
473.85	9502.58
474.03	9764.72
474.21	9668.75
474.39	9834.93
474.57	9874.72
474.75	9898.13
474.93	9923.87
475.12	9991.75
475.30	9902.81
475.48	9949.62
475.66	10223.46
475.84	10197.71
476.02	10242.18
476.20	10141.54
476.38	10443.47
476.56	10602.63
476.74	10553.48
476.92	10417.72
477.10	10532.41
477.28	10991.16
477.46	10565.18
477.64	10792.21
477.82	11014.56
478.00	11103.50
478.18	11236.91
478.36	11070.73
478.54	11548.20
478.72	11346.92
478.90	11658.21
479.08	11529.48
479.26	11800.98
479.44	11672.25
479.62	12025.67
479.80	11793.96
479.98	12065.46
480.16	12498.46
480.34	12290.15
480.52	12381.43
480.70	12294.83
480.88	12325.26
481.06	12346.33
481.24	12482.08
481.41	12585.06
481.59	12802.73
481.77	12823.80
481.95	12898.69
482.13	13158.49
482.31	12992.31
482.49	13420.63
482.67	13305.95
482.85	13591.49
483.03	13858.31
483.21	13528.30
483.39	14017.47
483.57	13839.59
483.74	14125.13
483.92	14331.10
484.10	14033.85
484.28	14305.35
484.46	14785.16
484.64	14621.33
484.82	14537.07
485.00	14932.62
485.18	14843.68
485.35	14998.15
485.53	15005.17
485.71	15197.10
485.89	15573.92
486.07	15279.02
486.25	15529.45
486.43	15580.95
486.61	15470.94
486.78	15913.30
486.96	15880.53
487.14	16063.10
487.32	16355.66
487.50	16475.03
487.68	16442.26
487.85	16662.27
488.03	17013.35
488.21	17064.85
488.39	17301.24
488.57	17261.45
488.75	17006.33
488.92	17394.86
489.10	17626.57
489.28	17610.19
489.46	17914.46
489.64	18108.72
489.81	18155.54
489.99	18424.70
490.17	18073.62
490.35	18675.13
490.53	18490.23
490.70	18820.25
490.88	18930.25
491.06	18925.57
491.24	18813.23
491.41	19009.83
491.59	19484.96
491.77	19433.47
491.95	19702.63
492.13	19606.67
492.30	19264.95
492.48	19618.37
492.66	20027.96
492.84	20009.24
493.01	20271.38
493.19	20175.42
493.37	20491.39
493.54	20971.20
493.72	20577.99
493.90	20599.05
494.08	21275.47
494.25	21046.10
494.43	21078.86
494.61	21165.46
494.79	21275.47
494.96	21174.83
495.14	21556.33
495.32	22099.34
495.49	22101.68
495.67	22097.00
495.85	21666.34
496.02	22195.30
496.20	22621.28
496.38	22429.35
496.55	22368.50
496.73	23075.34
496.91	22888.10
497.09	22878.74
497.26	22881.08
497.44	22897.46
497.62	23330.46
497.79	23676.86
497.97	23744.73
498.14	23447.49
498.32	23735.37
498.50	23524.72
498.67	24336.89
498.85	23953.04
499.03	24283.06
499.20	24278.38
499.38	24404.77
499.56	24287.74
499.73	24613.07
499.91	24699.67
500.08	24783.93
500.26	24767.55
500.44	24933.73
500.61	25135.01
500.79	24940.75
500.97	25245.02
501.14	25355.02
501.32	25420.56
501.49	25385.45
501.67	25514.18
501.84	25504.82
502.02	25762.28
502.20	25687.38
502.37	25914.41
502.55	25797.38
502.72	26230.38
502.90	26078.25
503.07	25886.32
503.25	25972.92
503.43	26419.97
503.60	27012.12
503.78	26668.06
503.95	26309.96
504.13	26438.69
504.30	27103.40
504.48	26265.49
504.65	26953.61
504.83	26948.93
505.01	27428.74
505.18	27126.81
505.36	27435.76
505.53	27433.42
505.71	27438.10
505.88	27611.30
506.06	27360.86
506.23	27730.67
506.41	27641.73
506.58	27765.78
506.76	28203.46
506.93	28240.90
507.11	27857.06
507.28	28432.83
507.46	28362.61
507.63	28479.64
507.81	28662.20
507.98	28070.04
508.16	28980.51
508.33	28854.12
508.50	28959.45
508.68	29092.86
508.85	29312.87
509.03	29301.17
509.20	29198.18
509.38	29539.90
509.55	29347.98
509.73	29535.22
509.90	29656.93
510.08	29474.37
510.25	29432.24
510.42	30000.99
510.60	29984.60
510.77	29881.62
510.95	30380.15
511.12	30396.54
511.30	30382.49
511.47	30129.72
511.64	30143.76
511.82	30459.73
511.99	30576.76
512.17	30597.82
512.34	30487.82
512.51	30740.60
512.69	30986.35
512.86	31012.10
513.04	31028.48
513.21	31346.79
513.38	31211.04
513.56	31529.36
513.73	31342.11
513.90	31580.85
514.08	31496.59
514.25	31625.32
514.43	31435.74
514.60	31805.54
514.77	31431.05
514.95	31812.56
515.12	32060.66
515.29	32135.56
515.47	32121.51
515.64	32320.46
515.81	32093.43
515.99	32261.94
516.16	32704.31
516.33	32563.87
516.51	32402.38
516.68	32659.84
516.85	32245.56
517.03	32929.00
517.20	32877.51
517.37	32919.63
517.54	33235.61
517.72	33214.54
517.89	33127.94
518.06	32940.70
518.24	32924.32
518.41	33104.54
518.58	33251.99
518.75	33116.24
518.93	33729.46
519.10	33453.28
519.27	33631.16
519.45	33696.69
519.62	34195.23
519.79	33940.11
519.96	34223.31
520.14	34242.04
520.31	34113.31
520.48	33572.64
520.65	34127.35
520.83	34658.65
521.00	34405.88
521.17	34548.65
521.34	34665.67
521.52	35033.14
521.69	34855.26
521.86	34653.97
522.03	34710.14
522.20	34719.51
522.38	34827.17
522.55	35325.71
522.72	35321.02
522.89	35299.96
523.07	35573.80
523.24	35302.30
523.41	35737.64
523.58	35608.91
523.75	35747.00
523.92	35264.85
524.10	35225.06
524.27	35866.37
524.44	35569.12
524.61	35775.09
524.78	36163.62
524.96	35648.70
525.13	36224.47
525.30	36980.46
525.47	36610.66
525.64	35931.90
525.81	36751.09
525.98	36360.22
526.16	36201.07
526.33	36627.04
526.50	36552.15
526.67	36299.37
526.84	36802.58
527.01	36954.72
527.18	36898.55
527.36	36816.63
527.53	37076.43
527.70	37141.96
527.87	37326.86
528.04	37200.47
528.21	37322.18
528.38	37305.80
528.55	37296.44
528.72	37420.48
528.89	37670.92
529.07	37560.92
529.24	37104.51
529.41	37504.74
529.58	37762.20
529.75	37071.75
529.92	37881.57
530.09	37661.56
530.26	37792.63
530.43	38078.18
530.60	37659.22
530.77	37450.91
530.94	37963.49
531.11	37982.21
531.28	37940.08
531.46	38197.54
531.63	38410.53
531.80	38085.20
531.97	38628.20
532.14	38242.01
532.31	38422.23
532.48	38508.83
532.65	38944.17
532.82	38967.58
532.99	38721.82
533.16	38447.98
533.33	38855.23
533.50	39026.09
533.67	38831.83
533.84	38820.13
534.01	39271.85
534.18	38986.30
534.35	39473.13
534.52	39543.35
534.69	39662.72
534.86	39276.53
535.03	39452.07
535.20	39531.65
535.37	39498.88
535.54	39936.56
535.71	39529.31
535.88	39906.13
536.05	39817.19
536.22	40163.59
536.38	40126.14
536.55	40102.74
536.72	39648.68
536.89	39945.92
537.06	39871.03
537.23	40210.40
537.40	40182.32
537.57	39653.36
537.74	40222.11
537.91	40355.52
538.08	40271.26
538.25	40563.82
538.42	40390.62
538.59	40914.90
538.75	40196.36
538.92	40542.76
539.09	40596.59
539.26	40620.00
539.43	40442.12
539.60	40598.93
539.77	40671.49
539.94	41390.03
540.11	41057.68
540.28	40814.26
540.44	40713.62
540.61	41237.90
540.78	41022.57
540.95	40926.61
541.12	41113.85
541.29	41404.08
541.46	41130.23
541.62	40910.22
541.79	41310.46
541.96	40669.15
542.13	41703.67
542.30	41123.21
542.47	41347.90
542.63	41251.94
542.80	42014.96
542.97	41874.52
543.14	42071.13
543.31	42047.72
543.48	42211.56
543.64	42532.22
543.81	42307.52
543.98	42206.88
544.15	42387.10
544.32	42487.74
544.48	42913.72
544.65	42843.51
544.82	42546.26
544.99	42239.65
545.16	42459.66
545.32	42625.84
545.49	43077.56
545.66	42859.89
545.83	43000.32
546.00	42944.15
546.16	42660.94
546.33	42920.74
546.50	42452.64
546.67	42604.77
546.83	42216.24
547.00	42780.31
547.17	42607.11
547.34	43037.77
547.50	43519.92
547.67	43531.62
547.84	43222.67
548.00	43370.13
548.17	43833.55
548.34	43576.09
548.51	43749.29
548.67	43519.92
548.84	43159.48
549.01	43365.45
549.18	43941.22
549.34	43971.64
549.51	43686.10
549.68	43545.67
549.84	43501.20
550.01	43622.90
550.18	43688.44
550.34	44126.12
550.51	43735.25
550.68	43863.98
550.84	43288.21
551.01	43784.40
551.18	43576.09
551.34	43983.35
551.51	44114.42
551.68	43966.96
551.84	44203.36
552.01	43929.51
552.18	44020.80
552.34	44215.06
552.51	44273.57
552.68	44002.07
552.84	43842.92
553.01	44626.99
553.18	44589.55
553.34	44329.75
553.51	44428.05
553.67	43992.71
553.84	44928.92
554.01	44713.59
554.17	44540.39
554.34	44685.51
554.51	44622.31
554.67	45050.63
554.84	44568.48
555.00	44383.58
555.17	44439.75
555.33	44776.79
555.50	44928.92
555.67	44788.49
555.83	45184.04
556.00	45031.91
556.16	45455.54
556.33	44966.37
556.50	45090.42
556.66	45010.84
556.83	45076.38
556.99	45233.19
557.16	45258.94
557.32	45333.84
557.49	45708.32
557.65	45179.36
557.82	45490.65
557.98	45277.66
558.15	45394.69
558.32	45329.16
558.48	44980.42
558.65	45366.60
558.81	45214.47
558.98	44889.13
559.14	45471.93
559.31	45607.68
559.47	45485.97
559.64	45642.79
559.80	45455.54
559.97	45521.08
560.13	45488.31
560.30	45790.24
560.46	45921.31
560.63	45848.75
560.79	45904.93
560.96	46211.54
561.12	45813.65
561.29	45776.20
561.45	45652.15
561.61	46138.98
561.78	45883.86
561.94	46143.66
562.11	45483.63
562.27	45570.23
562.44	45876.84
562.60	45951.74
562.77	45970.46
562.93	45839.39
563.10	46036.00
563.26	46199.83
563.42	46155.36
563.59	46274.73
563.75	46251.33
563.92	46302.82
564.08	46328.56
564.24	46164.73
564.41	46279.41
564.57	46525.17
564.74	46288.77
564.90	46251.33
565.07	46316.86
565.23	46450.27
565.39	46176.43
565.56	46803.69
565.72	46469.00
565.88	46459.63
566.05	46314.52
566.21	46583.68
566.38	46387.08
566.54	46539.21
566.70	46518.15
566.87	46504.10
567.03	46632.83
567.19	46380.06
567.36	46473.68
567.52	46438.57
567.68	46796.67
567.85	46588.36
568.01	47004.98
568.17	46831.78
568.34	46831.78
568.50	46368.35
568.66	46429.21
568.83	46689.01
568.99	46763.90
569.15	46571.98
569.32	46260.69
569.48	46567.30
569.64	47248.39
569.81	46492.40
569.97	46843.48
570.13	46930.08
570.30	46454.95
570.46	46403.46
570.62	46635.17
570.78	47004.98
570.95	46817.74
571.11	47119.66
571.27	46717.09
571.43	46684.33
571.60	46571.98
571.76	46752.20
571.92	46527.51
572.09	47012.00
572.25	46681.98
572.41	46665.60
572.57	46766.24
572.74	47302.23
572.90	47091.58
573.06	46920.72
573.22	47393.51
573.38	47236.69
573.55	47201.58
573.71	47222.65
573.87	47131.37
574.03	47246.05
574.20	47604.16
574.36	47112.64
574.52	47143.07
574.68	47164.14
574.84	46944.12
575.01	47295.21
575.17	47250.74
575.33	47227.33
575.49	47363.08
575.65	46962.85
575.82	47243.71
575.98	46918.38
576.14	47473.09
576.30	47400.53
576.46	47187.54
576.62	47342.02
576.79	47423.93
576.95	46887.95
577.11	47437.98
577.27	47491.81
577.43	47468.40
577.59	47236.69
577.75	47033.07
577.92	47114.98
578.08	47082.22
578.24	47323.29
578.40	47746.93
578.56	46934.76
578.72	47632.24
578.88	47386.49
579.04	47629.90
579.21	47309.25
579.37	47557.35
579.53	47423.93
579.69	47189.88
579.85	47356.06
580.01	47143.07
580.17	47475.43
580.33	47508.19
580.49	47529.26
580.65	47255.42
580.82	47667.35
580.98	47304.57
581.14	46733.48
581.30	47468.40
581.46	47409.89
581.62	47395.85
581.78	46960.51
581.94	47674.37
582.10	47337.33
582.26	47814.80
582.42	47512.88
582.58	47386.49
582.74	47526.92
582.90	47428.62
583.06	47756.29
583.22	47470.75
583.38	47468.40
583.54	47395.85
583.70	47704.80
583.86	47700.12
584.02	47356.06
584.18	47894.38
584.34	47613.52
584.50	48013.75
584.66	47569.05
584.82	47583.09
584.98	47730.54
585.14	47760.97
585.30	46939.44
585.46	47639.26
585.62	47543.30
585.78	47580.75
585.94	47430.96
586.10	47199.24
586.26	47342.02
586.42	47473.09
586.58	47767.99
586.74	47700.12
586.90	47859.27
587.06	47732.89
587.22	47915.45
587.38	47494.15
587.54	47789.06
587.70	48315.68
587.86	47416.91
588.02	47164.14
588.18	47494.15
588.34	47618.20
588.49	47430.96
588.65	47428.62
588.81	47604.16
588.97	47842.89
589.13	48069.92
589.29	47714.16
589.45	48013.75
589.61	47924.81
589.77	47854.59
589.93	47789.06
590.08	48133.12
590.24	47908.43
590.40	48233.76
590.56	48303.98
590.72	47922.47
590.88	47887.36
591.04	47540.96
591.20	48210.35
591.35	47814.80
591.51	48718.25
591.67	48303.98
591.83	48472.49
591.99	48168.22
592.15	48250.14
592.31	47995.03
592.46	47917.79
592.62	48226.74
592.78	48648.03
592.94	48491.22
593.10	48584.84
593.26	48559.09
593.41	48203.33
593.57	48278.23
593.73	48390.58
593.89	48278.23
594.05	48486.54
594.20	48371.85
594.36	48278.23
594.52	48275.89
594.68	48067.58
594.84	48217.38
594.99	48748.68
595.15	48451.43
595.31	48418.66
595.47	48273.55
595.62	48196.31
595.78	48367.17
595.94	48374.19
596.10	48746.34
596.25	48531.01
596.41	49006.14
596.57	48545.05
596.73	47995.03
596.88	48250.14
597.04	48683.14
597.20	48722.93
597.36	48559.09
597.51	48502.92
597.67	48343.77
597.83	48402.28
597.99	48399.94
598.14	48687.82
598.30	48332.06
598.46	48126.10
598.61	48767.40
598.77	48526.33
598.93	48119.07
599.09	48296.95
599.24	48865.70
599.40	48399.94
599.56	48704.21
599.71	49008.48
599.87	48938.26
600.03	49057.63
600.18	48561.44
600.34	48453.77
600.50	48900.81
600.65	48535.69
600.81	48673.78
600.97	48839.96
601.12	48662.08
601.28	48507.60
601.44	48423.34
601.59	48512.28
601.75	48608.25
601.91	48816.55
602.06	48788.47
602.22	48954.64
602.37	48748.68
602.53	48535.69
602.69	48641.01
602.84	48411.64
603.00	48528.67
603.16	48486.54
603.31	48612.93
603.47	48940.60
603.62	48479.52
603.78	48797.83
603.94	48460.79
604.09	48299.30
604.25	48479.52
604.40	48512.28
604.56	48559.09
604.71	48879.75
604.87	48493.56
605.03	48463.13
605.18	48533.35
605.34	48900.81
605.49	48170.57
605.65	48875.07
605.80	48362.49
605.96	48329.72
606.12	48425.68
606.27	48367.17
606.43	48465.47
606.58	48285.25
606.74	48037.16
606.89	48498.24
607.05	48713.57
607.20	48456.11
607.36	48477.18
607.51	48619.95
607.67	48250.14
607.82	48065.24
607.98	48348.45
608.13	47969.28
608.29	48402.28
608.44	48353.13
608.60	48540.37
608.75	48596.54
608.91	48069.92
609.06	48215.04
609.22	48512.28
609.37	48629.31
609.53	48453.77
609.68	48498.24
609.84	47969.28
609.99	48488.88
610.15	48098.01
610.30	48715.91
610.46	47896.72
610.61	48753.36
610.76	48208.01
610.92	47887.36
611.07	47662.67
611.23	47756.29
611.38	48048.86
611.54	48069.92
611.69	48701.87
611.84	48311.00
612.00	48074.60
612.15	47763.31
612.31	48453.77
612.46	47566.71
612.62	47828.85
612.77	47943.53
612.92	48247.80
613.08	47562.03
613.23	47847.57
613.39	47704.80
613.54	47735.23
613.69	47859.27
613.85	47629.90
614.00	47569.05
614.15	47770.33
614.31	47800.76
614.46	47491.81
614.62	47695.44
614.77	47260.10
614.92	47407.55
615.08	47545.64
615.23	47519.90
615.38	47763.31
615.54	47475.43
615.69	47800.76
615.84	47400.53
616.00	47847.57
616.15	47611.18
616.30	47578.41
616.46	47433.30
616.61	47482.45
616.76	47714.16
616.92	47924.81
617.07	48027.79
617.22	47519.90
617.37	47363.08
617.53	47744.59
617.68	47512.88
617.83	47283.50
617.99	47697.78
618.14	47580.75
618.29	47419.25
618.45	47182.86
618.60	47033.07
618.75	47061.15
618.90	46803.69
619.06	47288.18
619.21	47253.08
619.36	47629.90
619.51	47517.56
619.67	47100.94
619.82	47157.11
619.97	47524.58
620.12	46976.89
620.28	47014.34
620.43	47765.65
620.58	47114.98
620.73	47119.66
620.89	47391.17
621.04	47119.66
621.19	47222.65
621.34	47208.61
621.49	46803.69
621.65	47114.98
621.80	47030.72
621.95	47119.66
622.10	47367.76
622.25	47185.20
622.41	46686.67
622.56	46829.44
622.71	47131.37
622.86	47023.70
623.01	46951.15
623.16	46920.72
623.32	46693.69
623.47	46829.44
623.62	46452.61
623.77	46920.72
623.92	46983.91
624.07	46728.80
624.23	46663.26
624.38	47051.79
624.53	46689.01
624.68	46211.54
624.83	46403.46
624.98	46850.50
625.13	46366.01
625.29	46405.80
625.44	46728.80
625.59	46349.63
625.74	46574.32
625.89	46415.16
626.04	46506.44
626.19	46569.64
626.34	45785.56
626.49	46223.24
626.65	46225.58
626.80	46298.14
626.95	45820.67
627.10	45951.74
627.25	46546.23
627.40	46431.55
627.55	45958.76
627.70	46380.06
627.85	46363.67
628.00	46487.72
628.15	46623.47
628.30	45326.81
628.45	45858.12
628.60	45598.32
628.76	45963.44
628.91	46188.13
629.06	45460.23
629.21	45631.08
629.36	45869.82
629.51	45731.73
629.66	45916.63
629.81	46073.45
629.96	45722.37
630.11	45382.99
630.26	45277.66
630.41	45626.40
630.56	45736.41
630.71	45474.27
630.86	45404.05
631.01	45315.11
631.16	45514.06
631.31	45336.18
631.46	45464.91
631.61	45823.01
631.76	45492.99
631.91	45539.80
632.06	45783.22
632.21	45759.81
632.36	45717.68
632.51	45092.76
632.66	45551.51
632.81	45184.04
632.96	45605.34
633.10	45287.03
633.25	45528.10
633.40	45523.42
633.55	45855.78
633.70	44832.96
633.85	44746.36
634.00	44811.90
634.15	45127.87
634.30	44624.65
634.45	45158.30
634.60	44622.31
634.75	45177.02
634.90	45092.76
635.05	45284.68
635.19	45153.62
635.34	44893.82
635.49	45029.57
635.64	45137.23
635.79	45064.67
635.94	45244.90
636.09	45104.46
636.24	45092.76
636.39	44760.40
636.53	44945.31
636.68	44528.69
636.83	44254.85
636.98	44886.79
637.13	44568.48
637.28	44568.48
637.43	44069.95
637.57	44315.70
637.72	44552.10
637.87	44385.92
638.02	44491.24
638.17	44725.30
638.32	44594.23
638.46	43934.20
638.61	44364.85
638.76	44587.21
638.91	44259.53
639.06	43833.55
639.20	43971.64
639.35	44112.08
639.50	43789.08
639.65	43971.64
639.80	44163.57
639.94	44381.24
640.09	44348.47
640.24	44348.47
640.39	43868.66
640.54	43320.98
640.68	44261.87
640.83	44191.65
640.98	43650.99
641.13	43821.85
641.27	43725.89
641.42	43952.92
641.57	44018.46
641.72	43978.67
641.86	43569.07
642.01	43718.87
642.16	44151.87
642.31	43241.40
642.45	44083.99
642.60	42948.83
642.75	43426.30
642.90	43817.17
643.04	43660.35
643.19	43821.85
643.34	43498.86
643.48	42981.60
643.63	43634.61
643.78	43447.36
643.93	43585.46
644.07	43388.85
644.22	43615.88
644.37	43206.29
644.51	43201.61
644.66	43688.44
644.81	43166.50
644.95	43592.48
645.10	43239.06
645.25	43129.05
645.39	43161.82
645.54	43234.38
645.69	42967.55
645.83	43093.94
645.98	42803.72
646.13	42932.45
646.27	43000.32
646.42	42777.97
646.57	43185.22
646.71	43185.22
646.86	42920.74
647.00	43454.39
647.15	43281.19
647.30	42941.81
647.44	42586.05
647.59	42710.10
647.74	43171.18
647.88	43061.18
648.03	43047.13
648.17	43299.91
648.32	43346.72
648.47	42864.57
648.61	42710.10
648.76	42810.74
648.90	42466.68
649.05	42890.32
649.20	42623.50
649.34	42979.26
649.49	42759.25
649.63	42972.24
649.78	42986.28
649.92	42572.00
650.07	42913.72
650.21	42794.36
650.36	43119.69
650.51	42424.55
650.65	42967.55
650.80	42831.80
650.94	42579.03
651.09	42670.31
651.23	42220.92
651.38	41930.70
651.52	41598.34
651.67	42452.64
651.81	42326.25
651.96	42244.33
652.10	41893.25
652.25	41918.99
652.39	41818.35
652.54	42073.47
652.68	41947.08
652.83	41928.36
652.97	42513.49
653.12	41724.73
653.26	41918.99
653.41	42000.91
653.55	41968.15
653.70	42305.18
653.84	42146.03
653.99	42073.47
654.13	41998.57
654.27	41867.50
654.42	41888.57
654.56	41745.80
654.71	41876.86
654.85	41888.57
655.00	42029.00
655.14	41460.25
655.29	42405.83
655.43	41916.65
655.57	41331.52
655.72	41273.01
655.86	41422.80
656.01	41153.64
656.15	41282.37
656.30	41401.74
656.44	41411.10
656.58	41682.60
656.73	41226.20
656.87	41085.76
657.01	41092.79
657.16	41387.69
657.30	41429.82
657.45	41256.62
657.59	40772.13
657.73	40865.75
657.88	40921.93
658.02	41572.60
658.16	41261.30
658.31	40835.33
658.45	41357.27
658.60	40797.88
658.74	41317.48
658.88	41408.76
659.03	40641.06
659.17	40488.93
659.31	40381.26
659.46	40282.96
659.60	40456.16
659.74	40378.92
659.89	40655.11
660.03	40170.61
660.17	40392.97
660.32	40542.76
660.46	40065.29
660.60	40196.36
660.74	40392.97
660.89	40009.12
661.03	39721.23
661.17	39742.30
661.32	39793.79
661.46	40931.29
661.60	39665.06
661.74	40051.25
661.89	39789.11
662.03	39746.98
662.17	39349.09
662.31	39646.33
662.46	39936.56
662.60	39646.33
662.74	39248.44
662.88	39218.02
663.03	39079.92
663.17	39438.03
663.31	38895.02
663.45	39042.48
663.60	39613.57
663.74	39365.47
663.88	38948.85
664.02	39091.63
664.17	39285.89
664.31	38909.07
664.45	39164.18
664.59	39035.45
664.73	38754.59
664.88	38623.52
665.02	38806.08
665.16	38548.62
665.30	38747.57
665.44	38878.64
665.59	38195.20
665.73	38700.76
665.87	38279.46
666.01	38139.03
666.15	38438.62
666.29	37979.87
666.44	38127.33
666.58	37940.08
666.72	38309.89
666.86	37710.71
667.00	37797.31
667.14	37893.27
667.28	37479.00
667.43	37675.60
667.57	38071.15
667.71	37699.01
667.85	37755.18
667.99	37635.81
668.13	37544.53
668.27	37038.98
668.41	37354.95
668.56	37165.37
668.70	36992.17
668.84	36683.22
668.98	37029.62
669.12	37078.77
669.26	36521.72
669.40	37226.22
669.54	37015.57
669.68	37170.05
669.82	36804.92
669.96	36627.04
670.10	36437.46
670.25	36266.60
670.39	36247.88
670.53	36648.11
670.67	35934.24
670.81	36697.26
670.95	36400.01
671.09	36009.14
671.23	36018.50
671.37	36299.37
671.51	36053.61
671.65	36098.08
671.79	35943.61
671.93	35679.13
672.07	36184.68
672.21	35482.52
672.35	35335.07
672.49	35480.18
672.63	35342.09
672.77	35381.88
672.91	35604.23
673.05	35218.04
673.19	34979.31
673.33	34864.62
673.47	34930.16
673.61	34787.38
673.75	34710.14
673.89	34534.60
674.03	34478.43
674.17	34433.96
674.31	34244.38
674.45	34148.42
674.59	34225.65
674.73	34429.28
674.87	33640.52
675.01	34024.37
675.15	33806.70
675.29	33593.71
675.43	33710.74
675.56	34043.09
675.70	33846.49
675.84	33177.09
675.98	32430.46
676.12	33656.90
676.26	33649.88
676.40	33099.86
676.54	32865.80
676.68	32816.65
676.82	32517.06
676.96	32879.85
677.10	32833.04
677.23	32650.47
677.37	32936.02
677.51	32268.97
677.65	32615.37
677.79	32266.63
677.93	32030.23
678.07	32254.92
678.21	31868.73
678.34	31826.60
678.48	31688.51
678.62	31740.00
678.76	31604.25
678.90	31299.98
679.04	31489.57
679.18	31653.40
679.31	31402.97
679.45	31166.57
679.59	30824.86
679.73	31040.18
679.87	30483.14
680.00	30546.33
680.14	30888.05
680.28	30536.97
680.42	30522.93
680.56	30354.41
680.70	29947.15
680.83	30139.08
680.97	29839.49
681.11	30176.53
681.25	29780.98
681.39	29539.90
681.52	29560.97
681.66	29270.74
681.80	28776.89
681.94	28989.88
682.07	28987.53
682.21	28772.21
682.35	28889.23
682.49	28711.35
682.62	28865.83
682.76	28643.48
682.90	28659.86
683.04	28540.49
683.17	28603.69
683.31	28329.84
683.45	28013.87
683.59	27988.13
683.72	27871.10
683.86	27990.47
684.00	27999.83
684.13	27435.76
684.27	27709.60
684.41	27374.91
684.55	27569.17
684.68	27271.92
684.82	27180.64
684.96	27721.30
685.09	27103.40
685.23	27269.58
685.37	27201.71
685.50	27035.53
685.64	27288.31
685.78	26817.86
685.91	26602.53
686.05	26363.79
686.19	25834.83
686.32	26103.99
686.46	25731.85
686.60	26167.19
686.73	25935.48
686.87	25532.90
687.01	26022.08
687.14	25872.28
687.28	25443.96
687.42	25975.27
687.55	25350.34
687.69	25230.98
687.82	25219.27
687.96	25116.29
688.10	25095.22
688.23	25544.61
688.37	25071.82
688.50	24996.92
688.64	24879.89
688.78	24929.05
688.91	24402.43
689.05	24629.46
689.18	24449.24
689.32	23988.15
689.46	23772.82
689.59	23917.93
689.73	23920.28
689.86	23754.10
690.00	24034.96
690.13	24046.66
690.27	23335.14
690.41	23758.78
690.54	23154.92
690.68	23005.13
690.81	22965.34
690.95	23012.15
691.08	22895.12
691.22	22803.84
691.35	22815.54
691.49	23173.64
691.62	23159.60
691.76	22354.46
691.89	22551.06
692.03	22174.24
692.16	21720.17
692.30	22078.27
692.43	22176.58
692.57	21750.60
692.70	21546.97
692.84	21591.44
692.97	21462.71
693.11	21664.00
693.24	21383.13
693.38	21261.43
693.51	21221.64
693.65	20891.62
693.78	21039.08
693.92	21022.69
694.05	20980.56
694.19	20912.69
694.32	20596.71
694.45	20893.96
694.59	20678.63
694.72	20695.02
694.86	20570.97
694.99	20264.36
695.13	20236.27
695.26	20091.16
695.39	19866.47
695.53	19814.98
695.66	19939.02
695.80	19625.39
695.93	19737.74
696.07	19365.59
696.20	19330.48
696.33	19030.90
696.47	19215.80
696.60	19208.78
696.73	19253.25
696.87	19487.30
697.00	19105.79
697.14	18881.10
697.27	18661.09
697.40	18794.50
697.54	18644.71
697.67	18569.81
697.80	18684.50
697.94	18480.87
698.07	18310.01
698.21	18457.46
698.34	18225.75
698.47	18127.45
698.61	17425.29
698.74	17675.73
698.87	17694.45
699.01	17572.74
699.14	17570.40
699.27	17614.87
699.40	17619.55
699.54	17467.42
699.67	17610.19
699.80	17469.76
699.94	17088.25
700.07	17266.13
700.20	16826.11
700.34	16975.91
700.47	17104.64
700.60	17289.54
700.73	16872.92
700.87	16334.60
701.00	16273.74
701.13	16037.35
701.26	16238.64
701.40	16255.02
701.53	16035.01
701.66	16020.97
701.79	16035.01
701.93	16042.03
702.06	15555.20
702.19	15749.46
702.32	15793.94
702.46	15786.91
702.59	16107.57
702.72	15674.57
702.85	15564.56
702.99	15456.90
703.12	15632.44
703.25	15290.72
703.38	15215.82
703.51	15187.74
703.65	14934.96
703.78	14501.96
703.91	14759.42
704.04	14705.59
704.17	14537.07
704.31	14640.05
704.44	14684.52
704.57	14670.48
704.70	14438.76
704.83	14314.72
704.96	14052.58
705.10	14092.37
705.23	14181.31
>>>>>End Processed Spectral Data<<<<<
