SpectraSuite Data File
++++++++++++++++++++++++++++++++++++
Date: Fri Oct 25 10:44:08 EDT 2013
User: price-jones
Dark Spectrum Present: No
Reference Spectrum Present: No
Number of Sampled Component Spectra: 1
Spectrometers: USB2+H05261
Integration Time (usec): 100000 (USB2+H05261)
Spectra Averaged: 1 (USB2+H05261)
Boxcar Smoothing: 0 (USB2+H05261)
Correct for Electrical Dark: No (USB2+H05261)
Strobe/Lamp Enabled: No (USB2+H05261)
Correct for Detector Non-linearity: No (USB2+H05261)
Correct for Stray Light: No (USB2+H05261)
Number of Pixels in Processed Spectrum: 2048
>>>>>Begin Processed Spectral Data<<<<<
365.73	173.20
365.92	173.20
366.12	173.20
366.32	35.11
366.52	16.38
366.72	49.15
366.91	11.70
367.11	60.85
367.31	18.72
367.51	0.00
367.70	0.00
367.90	39.79
368.10	44.47
368.30	25.75
368.49	86.60
368.69	105.32
368.89	67.88
369.09	0.00
369.28	53.83
369.48	30.43
369.68	42.13
369.87	86.60
370.07	187.24
370.27	175.54
370.47	168.52
370.66	353.42
370.86	414.27
371.06	442.36
371.25	486.83
371.45	402.57
371.65	433.00
371.84	465.77
372.04	484.49
372.24	475.13
372.44	479.81
372.63	498.53
372.83	472.79
373.03	493.85
373.22	505.56
373.42	479.81
373.62	531.30
373.81	538.32
374.01	587.47
374.21	594.50
374.40	526.62
374.60	559.39
374.79	524.28
374.99	578.11
375.19	634.29
375.38	669.39
375.58	603.86
375.78	596.84
375.97	608.54
376.17	648.33
376.37	526.62
376.56	603.86
376.76	550.03
376.95	624.92
377.15	610.88
377.35	617.90
377.54	667.05
377.74	648.33
377.93	669.39
378.13	669.39
378.33	695.14
378.52	657.69
378.72	695.14
378.91	748.97
379.11	641.31
379.31	671.73
379.50	603.86
379.70	692.80
379.89	683.44
380.09	667.05
380.28	676.41
380.48	676.41
380.68	748.97
380.87	671.73
381.07	716.20
381.26	702.16
381.46	770.04
381.65	709.18
381.85	664.71
382.04	741.95
382.24	669.39
382.43	720.88
382.63	608.54
382.83	683.44
383.02	755.99
383.22	746.63
383.41	636.63
383.61	645.99
383.80	795.78
384.00	741.95
384.19	765.36
384.39	830.89
384.58	821.53
384.78	866.00
384.97	758.33
385.17	826.21
385.36	641.31
385.56	861.32
385.75	868.34
385.95	847.27
386.14	784.08
386.34	840.25
386.53	844.93
386.72	814.51
386.92	851.96
387.11	858.98
387.31	856.64
387.50	837.91
387.70	795.78
387.89	896.43
388.09	898.77
388.28	830.89
388.48	894.08
388.67	931.53
388.86	877.70
389.06	945.58
389.25	950.26
389.45	915.15
389.64	1095.37
389.84	1048.56
390.03	1008.77
390.22	961.96
390.42	994.73
390.61	994.73
390.81	1006.43
391.00	1128.14
391.19	1041.54
391.39	1071.97
391.58	1041.54
391.78	1034.52
391.97	1090.69
392.16	1071.97
392.36	1062.60
392.55	1020.47
392.75	1022.81
392.94	978.34
393.13	931.53
393.33	997.07
393.52	1053.24
393.71	1177.29
393.91	1167.93
394.10	1184.31
394.29	1163.25
394.49	1200.69
394.68	1191.33
394.88	1259.21
395.07	1254.53
395.26	1132.82
395.46	1207.72
395.65	1273.25
395.84	1287.29
396.04	1345.81
396.23	1135.16
396.42	1142.18
396.62	1160.91
396.81	1151.54
397.00	1214.74
397.19	1273.25
397.39	1224.10
397.58	1397.30
397.77	1366.87
397.97	1509.65
398.16	1383.26
398.35	1469.86
398.55	1394.96
398.74	1413.68
398.93	1561.14
399.12	1469.86
399.32	1427.73
399.51	1556.46
399.70	1561.14
399.90	1563.48
400.09	1701.57
400.28	1600.93
400.47	1493.26
400.67	1694.55
400.86	1570.50
401.05	1671.14
401.24	1717.95
401.44	1692.21
401.63	1790.51
401.82	1724.97
402.01	1589.22
402.21	1732.00
402.40	1769.44
402.59	1837.32
402.78	1650.08
402.97	1724.97
403.17	1757.74
403.36	1858.39
403.55	1870.09
403.74	1888.81
403.93	1832.64
404.13	1886.47
404.32	1900.52
404.51	1827.96
404.70	1895.83
404.89	1849.02
405.09	1966.05
405.28	1968.39
405.47	1856.04
405.66	1930.94
405.85	1916.90
406.05	1919.24
406.24	2015.20
406.43	1973.07
406.62	2038.61
406.81	2113.50
407.00	1987.11
407.20	2017.54
407.39	2101.80
407.58	2160.31
407.77	2101.80
407.96	2260.96
408.15	2267.98
408.34	2118.18
408.54	2223.51
408.73	2300.75
408.92	2296.07
409.11	2190.74
409.30	2265.64
409.49	2293.72
409.68	2263.30
409.87	2211.81
410.07	2314.79
410.26	2396.71
410.45	2296.07
410.64	2422.45
410.83	2300.75
411.02	2544.16
411.21	2464.58
411.40	2583.95
411.59	2668.21
411.78	2469.27
411.98	2539.48
412.17	2677.57
412.36	2602.68
412.55	2675.23
412.74	2628.42
412.93	2705.66
413.12	2658.85
413.31	2862.48
413.50	2881.20
413.69	2944.39
413.88	3026.31
414.07	2850.77
414.26	3016.95
414.45	2928.01
414.64	2892.90
414.83	3129.30
415.02	3105.89
415.22	3016.95
415.41	3126.96
415.60	3035.67
415.79	3211.22
415.98	3220.58
416.17	3061.42
416.36	3229.94
416.55	3155.04
416.74	3236.96
416.93	3269.73
417.12	3382.07
417.31	3190.15
417.50	3143.34
417.69	3353.99
417.88	3361.01
418.07	3531.87
418.26	3482.72
418.45	3456.97
418.64	3651.24
418.83	3592.72
419.02	3461.65
419.21	3494.42
419.39	3599.74
419.58	3545.91
419.77	3632.51
419.96	3646.55
420.15	3581.02
420.34	3676.98
420.53	3667.62
420.72	3817.41
420.91	3871.25
421.10	3920.40
421.29	3777.62
421.48	3641.87
421.67	3758.90
421.86	3751.88
422.05	3655.92
422.24	3775.28
422.43	3728.47
422.61	3857.20
422.80	3894.65
422.99	3953.16
423.18	3847.84
423.37	3899.33
423.56	3941.46
423.75	4025.72
423.94	4021.04
424.13	3559.95
424.32	3758.90
424.50	3925.08
424.69	4086.58
424.88	3981.25
425.07	3873.59
425.26	3882.95
425.45	3882.95
425.64	3906.35
425.83	3887.63
426.01	4037.42
426.20	4112.32
426.39	4093.60
426.58	3978.91
426.77	3932.10
426.96	3964.87
427.15	3934.44
427.33	3955.51
427.52	4081.89
427.71	4056.15
427.90	4149.77
428.09	4124.02
428.28	4105.30
428.46	4081.89
428.65	4217.65
428.84	4318.29
429.03	4175.52
429.22	3971.89
429.40	4063.17
429.59	4215.30
429.78	3943.80
429.97	3936.78
430.16	3943.80
430.34	4140.41
430.53	4095.94
430.72	4259.78
430.91	4091.26
431.10	4351.06
431.28	4416.59
431.47	4545.32
431.66	4613.20
431.85	4493.83
432.03	4622.56
432.22	4622.56
432.41	4688.09
432.60	4791.08
432.79	4599.15
432.97	4725.54
433.16	4699.80
433.35	4554.68
433.54	4531.28
433.72	4755.97
433.91	4568.73
434.10	4798.10
434.28	4821.50
434.47	4774.69
434.66	4821.50
434.85	4983.00
435.03	5015.77
435.22	4910.44
435.41	5095.35
435.59	5069.60
435.78	5179.61
435.97	5107.05
436.16	5102.37
436.34	4959.60
436.53	5050.88
436.72	5268.55
436.90	5034.49
437.09	5291.95
437.28	5041.51
437.46	5008.75
437.65	5303.65
437.84	5242.80
438.02	4961.94
438.21	5144.50
438.40	5137.48
438.58	5420.68
438.77	5357.49
438.96	5376.21
439.14	5561.11
439.33	5570.48
439.52	5558.77
439.70	5678.14
439.89	5748.36
440.08	5547.07
440.26	5734.31
440.45	5724.95
440.63	5867.72
440.82	5902.83
441.01	5888.79
441.19	6038.58
441.38	6024.54
441.57	6003.47
441.75	6272.64
441.94	6253.91
442.12	6265.61
442.31	6202.42
442.50	6221.14
442.68	6232.85
442.87	6270.30
443.05	6438.81
443.24	6464.56
443.43	6406.05
443.61	6487.96
443.80	6677.55
443.98	6328.81
444.17	6050.28
444.35	6445.84
444.54	6473.92
444.73	6497.33
444.91	6466.90
445.10	6494.99
445.28	6384.98
445.47	6513.71
445.65	6494.99
445.84	6424.77
446.02	6612.01
446.21	6452.86
446.39	6562.86
446.58	6607.33
446.77	6715.00
446.95	6686.91
447.14	6560.52
447.32	6672.87
447.51	6700.95
447.69	6612.01
447.88	6492.65
448.06	6644.78
448.25	6619.04
448.43	6693.93
448.62	6820.32
448.80	6576.91
448.99	6913.94
449.17	6995.86
449.36	6768.83
449.54	6963.09
449.73	7037.99
449.91	7183.10
450.10	7059.06
450.28	7112.89
450.46	7213.53
450.65	7009.90
450.83	6949.05
451.02	7148.00
451.20	7295.45
451.39	7232.26
451.57	7068.42
451.76	7206.51
451.94	7070.76
452.13	7162.04
452.31	7143.32
452.49	7091.82
452.68	7082.46
452.86	6927.99
453.05	7066.08
453.23	7536.52
453.42	7267.36
453.60	7300.13
453.78	7513.12
453.97	7138.63
454.15	7316.51
454.34	7243.96
454.52	7592.70
454.70	7370.35
454.89	7548.23
455.07	7396.09
455.26	7440.56
455.44	7503.76
455.62	7744.83
455.81	7854.84
455.99	7756.54
456.17	7810.37
456.36	7485.03
456.54	7836.11
456.73	7735.47
456.91	8159.11
457.09	8095.91
457.28	8025.70
457.46	8042.08
457.64	8098.25
457.83	8084.21
458.01	8077.19
458.19	8212.94
458.38	7861.86
458.56	8217.62
458.74	8402.52
458.93	8093.57
459.11	8201.24
459.29	8065.49
459.48	8102.93
459.66	8222.30
459.84	8315.92
460.03	8500.83
460.21	8388.48
460.39	8491.46
460.57	8755.94
460.76	8568.70
460.94	8645.94
461.12	8486.78
461.31	8386.14
461.49	8491.46
461.67	8578.06
461.85	8695.09
462.04	8627.21
462.22	9303.63
462.40	8945.53
462.59	8737.22
462.77	8802.75
462.95	8994.68
463.13	8802.75
463.32	8877.65
463.50	8865.95
463.68	8903.40
463.86	9181.92
464.05	9004.04
464.23	8833.18
464.41	9013.40
464.59	8926.80
464.78	9221.71
464.96	9095.32
465.14	9095.32
465.32	9177.24
465.50	9116.39
465.69	9219.37
465.87	9172.56
466.05	9116.39
466.23	9055.53
466.41	9193.62
466.60	9371.50
466.78	9097.66
466.96	9027.45
467.14	9041.49
467.32	9390.23
467.51	9444.06
467.69	9256.82
467.87	9268.52
468.05	9362.14
468.23	9495.55
468.41	9355.12
468.60	9329.38
468.78	9610.24
468.96	9635.99
469.14	9607.90
469.32	9788.12
469.50	9226.39
469.69	9694.50
469.87	9753.01
470.05	9727.27
470.23	9942.60
470.41	9764.72
470.59	10019.83
470.77	9820.89
470.95	9984.73
471.14	9984.73
471.32	9886.42
471.50	10246.87
471.68	10118.14
471.86	10038.56
472.04	10401.34
472.22	10450.49
472.40	10122.82
472.58	10319.42
472.77	10410.70
472.95	10480.92
473.13	10883.49
473.31	10516.03
473.49	10399.00
473.67	10436.45
473.85	10780.51
474.03	10736.04
474.21	10806.25
474.39	10970.09
474.57	10970.09
474.75	10920.94
474.93	11115.20
475.12	11110.52
475.30	11241.59
475.48	11197.12
475.66	11215.85
475.84	11236.91
476.02	11463.94
476.20	11417.13
476.38	11744.81
476.56	11616.08
476.74	11838.43
476.92	11707.36
477.10	11709.70
477.28	12053.76
477.46	12095.89
477.64	12500.80
477.82	12306.54
478.00	12762.94
478.18	12486.76
478.36	12709.11
478.54	12521.87
478.72	12425.90
478.90	12791.03
479.08	13022.74
479.26	13146.79
479.44	13062.53
479.62	13046.15
479.80	13221.69
479.98	13584.47
480.16	13408.93
480.34	13444.04
480.52	13671.07
480.70	13717.88
480.88	13628.94
481.06	13806.82
481.24	13884.06
481.41	14068.96
481.59	14445.79
481.77	14207.05
481.95	14494.94
482.13	14345.14
482.31	14661.12
482.49	14923.26
482.67	14752.40
482.85	15194.76
483.03	15110.50
483.21	15407.75
483.39	15304.76
483.57	15311.78
483.74	15602.01
483.92	15838.41
484.10	15522.43
484.28	15653.50
484.46	16156.72
484.64	16119.27
484.82	16058.42
485.00	16063.10
485.18	16587.38
485.35	16650.57
485.53	16219.91
485.71	16276.09
485.89	16360.34
486.07	16318.22
486.25	16404.81
486.43	16465.67
486.61	16929.09
486.78	17109.32
486.96	17331.67
487.14	17645.30
487.32	17481.46
487.50	17844.24
487.68	18181.28
487.85	18111.07
488.03	18181.28
488.21	18824.93
488.39	18340.44
488.57	18799.18
488.75	18787.48
488.92	19058.98
489.10	19318.78
489.28	19316.44
489.46	19646.46
489.64	19590.28
489.81	19817.32
489.99	20009.24
490.17	20168.40
490.35	20355.64
490.53	20184.78
490.70	20613.10
490.88	20372.02
491.06	20636.50
491.24	20727.78
491.41	20582.67
491.59	20767.57
491.77	20608.42
491.95	20947.79
492.13	21357.39
492.30	21586.76
492.48	21783.37
492.66	21502.50
492.84	21467.39
493.01	21874.65
493.19	21717.83
493.37	22207.00
493.54	22204.66
493.72	22363.82
493.90	23019.17
494.08	22740.64
494.25	23105.77
494.43	22892.78
494.61	23417.06
494.79	23035.55
494.96	23295.35
495.14	23365.57
495.32	23534.09
495.49	23548.13
495.67	23861.76
495.85	23714.31
496.02	23931.98
496.20	24390.72
496.38	23960.06
496.55	24301.78
496.73	25116.29
496.91	24950.11
497.09	25198.21
497.26	24863.51
497.44	25254.38
497.62	25385.45
497.79	25322.26
497.97	25191.19
498.14	25113.95
498.32	25525.88
498.50	25741.21
498.67	25797.38
498.85	25891.01
499.03	26216.34
499.20	26061.87
499.38	26288.90
499.56	26356.77
499.73	26508.91
499.91	26024.42
500.08	26387.20
500.26	26031.44
500.44	26253.79
500.61	26651.68
500.79	26637.64
500.97	27012.12
501.14	26834.24
501.32	26848.29
501.49	27133.83
501.67	27131.49
501.84	27414.69
502.02	27501.29
502.20	27728.33
502.37	27641.73
502.55	28088.77
502.72	27597.26
502.90	27763.43
503.07	27974.08
503.25	28074.73
503.43	27653.43
503.60	28100.47
503.78	28056.00
503.95	28063.02
504.13	28496.02
504.30	28561.56
504.48	28547.51
504.65	29146.69
504.83	28835.40
505.01	29235.63
505.18	28807.31
505.36	29233.29
505.53	29347.98
505.71	29670.97
505.88	29558.63
506.06	29570.33
506.23	29656.93
506.41	29603.10
506.58	29656.93
506.76	29989.28
506.93	30506.54
507.11	29598.41
507.28	29867.58
507.46	29631.18
507.63	30015.03
507.81	29921.41
507.98	30405.90
508.16	30113.33
508.33	30520.59
508.50	30731.23
508.68	30850.60
508.85	30988.69
509.03	31164.23
509.20	30834.22
509.38	30855.28
509.55	30888.05
509.73	31065.93
509.90	31061.25
510.08	31199.34
510.25	31124.44
510.42	31964.70
510.60	31646.38
510.77	31440.42
510.95	31758.73
511.12	31630.00
511.30	31880.44
511.47	32208.11
511.64	31882.78
511.82	32329.82
511.99	32205.77
512.17	31957.67
512.34	32154.28
512.51	32493.66
512.69	32868.14
512.86	32467.91
513.04	32907.93
513.21	32811.97
513.38	32708.99
513.56	32847.08
513.73	32334.50
513.90	32645.79
514.08	32989.85
514.25	32999.21
514.43	33090.49
514.60	33198.16
514.77	33062.41
514.95	33336.25
515.12	33336.25
515.29	33380.72
515.47	33989.26
515.64	33809.04
515.81	33684.99
515.99	33989.26
516.16	33603.07
516.33	33139.65
516.51	33591.37
516.68	33472.00
516.85	33406.47
517.03	33532.86
517.20	33280.08
517.37	34010.32
517.54	34586.10
517.72	34087.56
517.89	34092.24
518.06	33916.70
518.24	34087.56
518.41	33963.51
518.58	34291.19
518.75	34220.97
518.93	34602.48
519.10	34646.95
519.27	35065.91
519.45	35105.70
519.62	35000.37
519.79	35372.52
519.96	35143.14
520.14	35211.02
520.31	35178.25
520.48	35754.02
520.65	35267.19
520.83	35674.45
521.00	35875.73
521.17	35990.42
521.34	36037.23
521.52	36130.85
521.69	36048.93
521.86	36350.86
522.03	36095.74
522.20	36016.16
522.38	36203.41
522.55	36187.02
522.72	36109.78
522.89	36390.65
523.07	36701.94
523.24	36285.33
523.41	37008.55
523.58	36517.04
523.75	37116.22
523.92	36790.88
524.10	37591.34
524.27	37656.88
524.44	37198.13
524.61	37455.59
524.78	37457.93
524.96	37553.90
525.13	37776.25
525.30	37794.97
525.47	37933.06
525.64	37483.68
525.81	37500.06
525.98	37333.89
526.16	37340.91
526.33	37139.62
526.50	37738.80
526.67	37193.45
526.84	37230.90
527.01	37418.14
527.18	37663.90
527.36	38232.65
527.53	38436.28
527.70	38309.89
527.87	38192.86
528.04	38359.04
528.21	38548.62
528.38	38279.46
528.55	38930.13
528.72	38375.42
528.89	39138.44
529.07	38625.86
529.24	38562.67
529.41	38557.99
529.58	38766.29
529.75	38384.79
529.92	38803.74
530.09	38988.64
530.26	39016.73
530.43	39276.53
530.60	38721.82
530.77	38923.11
530.94	39098.65
531.11	39054.18
531.28	39210.99
531.46	39686.12
531.63	39524.63
531.80	39421.64
531.97	38972.26
532.14	39159.50
532.31	39274.19
532.48	39449.73
532.65	39503.56
532.82	39564.42
532.99	39742.30
533.16	39859.32
533.33	40023.16
533.50	40144.87
533.67	40224.45
533.84	39576.12
534.01	40182.32
534.18	40020.82
534.35	40250.19
534.52	39906.13
534.69	40418.71
534.86	40781.49
535.03	40212.74
535.20	40762.77
535.37	40739.36
535.54	41120.87
535.71	40690.21
535.88	40521.69
536.05	40701.92
536.22	40769.79
536.38	40444.46
536.55	40491.27
536.72	40708.94
536.89	40608.29
537.06	40699.58
537.23	40701.92
537.40	41085.76
537.57	41216.83
537.74	41448.55
537.91	41144.28
538.08	40919.59
538.25	40889.16
538.42	41186.41
538.59	40940.65
538.75	40889.16
538.92	41375.99
539.09	41645.15
539.26	41083.42
539.43	41256.62
539.60	41397.06
539.77	41053.00
539.94	41893.25
540.11	40884.48
540.28	41277.69
540.44	41464.93
540.61	41476.63
540.78	41645.15
540.95	41095.13
541.12	41324.50
541.29	41647.49
541.46	41743.45
541.62	41769.20
541.79	42171.77
541.96	41549.19
542.13	41890.91
542.30	42265.39
542.47	41481.31
542.63	41956.44
542.80	41872.18
542.97	42529.87
543.14	42892.66
543.31	42504.13
543.48	42246.67
543.64	42792.01
543.81	42967.55
543.98	42789.67
544.15	42543.92
544.32	42415.19
544.48	43264.80
544.65	42836.48
544.82	43171.18
544.99	42810.74
545.16	42883.30
545.32	43019.05
545.49	43302.25
545.66	43515.24
545.83	43082.24
546.00	43358.42
546.16	43129.05
546.33	43082.24
546.50	42686.69
546.67	43285.87
546.83	42628.18
547.00	43077.56
547.17	43047.13
547.34	42976.92
547.50	42976.92
547.67	43608.86
547.84	43536.30
548.00	43342.04
548.17	43728.23
548.34	43236.72
548.51	44215.06
548.67	43606.52
548.84	44109.74
549.01	43594.82
549.18	43751.63
549.34	43995.05
549.51	43868.66
549.68	43782.06
549.84	43704.82
550.01	44198.68
550.18	43653.33
550.34	44119.10
550.51	43880.36
550.68	43473.11
550.84	43599.50
551.01	43842.92
551.18	44421.03
551.34	44402.30
551.51	44432.73
551.68	44130.80
551.84	44825.94
552.01	43929.51
552.18	44046.54
552.34	43756.32
552.51	44296.98
552.68	44076.97
552.84	44535.71
553.01	44797.85
553.18	44563.80
553.34	44409.32
553.51	44215.06
553.67	44631.68
553.84	44788.49
554.01	44847.00
554.17	44816.58
554.34	44989.78
554.51	44655.08
554.67	44514.65
554.84	44580.18
555.00	44430.39
555.17	44589.55
555.33	44729.98
555.50	44601.25
555.67	44580.18
555.83	44432.73
556.00	45010.84
556.16	44994.46
556.33	44744.02
556.50	44699.55
556.66	44807.22
556.83	44062.93
556.99	45038.93
557.16	45387.67
557.32	45167.66
557.49	44893.82
557.65	44762.75
557.82	45088.08
557.98	45301.07
558.15	45230.85
558.32	44835.30
558.48	44802.53
558.65	44861.05
558.81	45013.18
558.98	44753.38
559.14	45153.62
559.31	45148.93
559.47	45202.77
559.64	45448.52
559.80	45130.21
559.97	45338.52
560.13	44832.96
560.30	45415.76
560.46	45921.31
560.63	45188.72
560.79	45612.36
560.96	45724.71
561.12	45378.31
561.29	45172.34
561.45	45078.72
561.61	45191.06
561.78	45099.78
561.94	44870.41
562.11	45020.20
562.27	45099.78
562.44	45649.81
562.60	45900.25
562.77	45839.39
562.93	45549.17
563.10	45808.96
563.26	45305.75
563.42	45591.30
563.59	45375.97
563.75	45284.68
563.92	45736.41
564.08	45624.06
564.24	46021.95
564.41	45434.48
564.57	45762.15
564.74	45659.17
564.90	45488.31
565.07	45963.44
565.23	45600.66
565.39	45645.13
565.56	45918.97
565.72	45542.14
565.88	45556.19
566.05	45397.03
566.21	45553.85
566.38	45923.65
566.54	45612.36
566.70	46146.00
566.87	46300.48
567.03	45621.72
567.19	45951.74
567.36	45544.48
567.52	45848.75
567.68	45855.78
567.85	45787.90
568.01	45921.31
568.17	45710.66
568.34	45897.91
568.50	45535.12
568.66	45649.81
568.83	45701.30
568.99	45443.84
569.15	45553.85
569.32	45755.13
569.48	45530.44
569.64	46082.81
569.81	45982.16
569.97	45890.88
570.13	45893.22
570.30	45181.70
570.46	45584.27
570.62	45867.48
570.78	45516.40
570.95	45593.64
571.11	46103.87
571.27	45467.25
571.43	45605.34
571.60	45986.85
571.76	45748.11
571.92	45731.73
572.09	45640.45
572.25	45771.52
572.41	45902.59
572.57	46028.98
572.74	46387.08
572.90	46066.42
573.06	45879.18
573.22	45979.82
573.38	46232.60
573.55	45738.75
573.71	45893.22
573.87	46454.95
574.03	46150.68
574.20	46033.66
574.36	45982.16
574.52	45752.79
574.68	45968.12
574.84	45970.46
575.01	45818.33
575.17	45886.20
575.33	45476.61
575.49	45853.44
575.65	46244.30
575.82	45673.21
575.98	45907.27
576.14	46658.58
576.30	46073.45
576.46	45841.73
576.62	45846.41
576.79	45748.11
576.95	46176.43
577.11	45439.16
577.27	46471.34
577.43	46054.72
577.59	46281.75
577.75	46028.98
577.92	45888.54
578.08	46014.93
578.24	45649.81
578.40	45858.12
578.56	46115.58
578.72	46113.23
578.88	45925.99
579.04	46223.24
579.21	45586.61
579.37	46146.00
579.53	46436.23
579.69	46014.93
579.85	45841.73
580.01	45902.59
580.17	46377.72
580.33	46607.09
580.49	46068.76
580.65	46408.14
580.82	46197.49
580.98	45691.94
581.14	45902.59
581.30	46464.32
581.46	45769.18
581.62	46108.55
581.78	46497.08
581.94	46305.16
582.10	46010.25
582.26	46333.24
582.42	46419.84
582.58	46403.46
582.74	46120.26
582.90	46260.69
583.06	46457.29
583.22	46471.34
583.38	46148.34
583.54	46625.81
583.70	46265.37
583.86	46138.98
584.02	45872.16
584.18	46344.95
584.34	46157.70
584.50	46045.36
584.66	46000.89
584.82	45481.29
584.98	46520.49
585.14	46167.07
585.30	46073.45
585.46	46513.47
585.62	45799.60
585.78	46234.94
585.94	45560.87
586.10	45799.60
586.26	45748.11
586.42	46548.57
586.58	46461.97
586.74	46220.90
586.90	46040.68
587.06	46277.07
587.22	46237.28
587.38	45914.29
587.54	46321.54
587.70	46623.47
587.86	46127.28
588.02	46230.26
588.18	46300.48
588.34	45834.71
588.49	45638.11
588.65	45698.96
588.81	45509.38
588.97	45965.78
589.13	45977.48
589.29	45907.27
589.45	46036.00
589.61	46057.06
589.77	46373.03
589.93	46040.68
590.08	46513.47
590.24	46469.00
590.40	46618.79
590.56	46665.60
590.72	46204.52
590.88	46162.39
591.04	46307.50
591.20	46564.96
591.35	46452.61
591.51	46721.77
591.67	46602.41
591.83	46312.18
591.99	46576.66
592.15	46344.95
592.31	46642.20
592.46	46246.65
592.62	46497.08
592.78	46529.85
592.94	46665.60
593.10	46719.43
593.26	46199.83
593.41	46415.16
593.57	46628.15
593.73	46115.58
593.89	46417.50
594.05	46417.50
594.20	46649.22
594.36	46859.87
594.52	45902.59
594.68	46136.64
594.84	46272.39
594.99	46405.80
595.15	46190.47
595.31	46536.87
595.47	46375.37
595.62	46099.19
595.78	46410.48
595.94	46663.26
596.10	46485.38
596.25	46471.34
596.41	46452.61
596.57	46705.39
596.73	46326.22
596.88	46279.41
597.04	46171.75
597.20	46518.15
597.36	46274.73
597.51	46574.32
597.67	46632.83
597.83	46635.17
597.99	46686.67
598.14	46466.66
598.30	46494.74
598.46	46569.64
598.61	46756.88
598.77	46007.91
598.93	46047.70
599.09	46499.42
599.24	47089.24
599.40	46443.25
599.56	46494.74
599.71	46686.67
599.87	46518.15
600.03	46632.83
600.18	46443.25
600.34	46052.38
600.50	46171.75
600.65	46508.79
600.81	46377.72
600.97	46604.75
601.12	46707.73
601.28	46302.82
601.44	46520.49
601.59	46178.77
601.75	45998.55
601.91	46000.89
602.06	46347.29
602.22	46202.18
602.37	46527.51
602.53	45869.82
602.69	46586.02
602.84	46096.85
603.00	46384.74
603.16	46466.66
603.31	46396.44
603.47	46511.13
603.62	46195.15
603.78	46581.34
603.94	46167.07
604.09	46241.96
604.25	45944.72
604.40	46614.11
604.56	46288.77
604.71	46887.95
604.87	46036.00
605.03	46373.03
605.18	45827.69
605.34	46246.65
605.49	45862.80
605.65	46106.21
605.80	46490.06
605.96	46138.98
606.12	45890.88
606.27	46515.81
606.43	46188.13
606.58	46131.96
606.74	46195.15
606.89	46459.63
607.05	46408.14
607.20	45918.97
607.36	46089.83
607.51	46106.21
607.67	46253.67
607.82	46117.92
607.98	46265.37
608.13	46234.94
608.29	45778.54
608.44	45794.92
608.60	45284.68
608.75	45603.00
608.91	45869.82
609.06	45907.27
609.22	46211.54
609.37	45766.84
609.53	45935.35
609.68	45635.77
609.84	45652.15
609.99	45455.54
610.15	45755.13
610.30	45549.17
610.46	45153.62
610.61	45705.98
610.76	45928.33
610.92	45958.76
611.07	45900.25
611.23	46354.31
611.38	45471.93
611.54	46087.49
611.69	45593.64
611.84	45413.41
612.00	45368.94
612.15	45268.30
612.31	45230.85
612.46	45619.38
612.62	45371.28
612.77	45368.94
612.92	45544.48
613.08	45282.34
613.23	45853.44
613.39	45441.50
613.54	44907.86
613.69	45666.19
613.85	45207.45
614.00	45345.54
614.15	45556.19
614.31	45420.44
614.46	45546.82
614.62	45556.19
614.77	45296.39
614.92	45162.98
615.08	45240.21
615.23	45277.66
615.38	45188.72
615.54	45195.74
615.69	45069.36
615.84	44847.00
616.00	45123.19
616.15	44973.39
616.30	44830.62
616.46	44980.42
616.61	44669.12
616.76	44964.03
616.92	44278.25
617.07	44596.57
617.22	44659.76
617.37	44835.30
617.53	45076.38
617.68	44802.53
617.83	44851.69
617.99	44673.81
618.14	44800.19
618.29	45071.70
618.45	44519.33
618.60	44421.03
618.75	44039.52
618.90	44512.31
619.06	44437.41
619.21	44378.90
619.36	44858.71
619.51	44865.73
619.67	44411.67
619.82	44671.46
619.97	44357.83
620.12	44289.96
620.28	43903.77
620.43	44301.66
620.58	44210.38
620.73	44582.52
620.89	44243.15
621.04	44378.90
621.19	44428.05
621.34	44179.95
621.49	44135.48
621.65	44306.34
621.80	44058.24
621.95	43957.60
622.10	43831.21
622.25	43583.12
622.41	43674.40
622.56	44119.10
622.71	44247.83
622.86	44374.22
623.01	43999.73
623.16	43868.66
623.32	43789.08
623.47	44016.11
623.62	43690.78
623.77	43540.99
623.92	43885.04
624.07	43709.50
624.23	43246.08
624.38	43466.09
624.53	43508.22
624.68	43761.00
624.83	43459.07
624.98	43749.29
625.13	43042.45
625.29	43569.07
625.44	43475.45
625.59	42918.40
625.74	42948.83
625.89	42827.12
626.04	43079.90
626.19	43302.25
626.34	43363.11
626.49	43131.39
626.65	43416.94
626.80	43386.51
626.95	43243.74
627.10	43250.76
627.25	43058.84
627.40	42574.34
627.55	42508.81
627.70	42424.55
627.85	42494.77
628.00	42859.89
628.15	42836.48
628.30	42841.17
628.45	42803.72
628.60	42934.79
628.76	42815.42
628.91	42981.60
629.06	42838.83
629.21	42946.49
629.36	42754.57
629.51	42504.13
629.66	42284.12
629.81	42213.90
629.96	42307.52
630.11	42412.85
630.26	42501.79
630.41	42635.20
630.56	42124.96
630.71	42600.09
630.86	42326.25
631.01	42146.03
631.16	42232.63
631.31	42057.09
631.46	42155.39
631.61	42115.60
631.76	42253.69
631.91	42003.25
632.06	42293.48
632.21	42117.94
632.36	42342.63
632.51	41621.75
632.66	41895.59
632.81	41713.03
632.96	41937.72
633.10	41696.64
633.25	41944.74
633.40	42094.53
633.55	42295.82
633.70	41614.72
633.85	41926.02
634.00	42279.44
634.15	42064.11
634.30	41794.95
634.45	41687.28
634.60	41757.50
634.75	41790.27
634.90	41727.07
635.05	41727.07
635.19	41277.69
635.34	41675.58
635.49	41689.62
635.64	41198.11
635.79	41280.03
635.94	41701.32
636.09	40961.72
636.24	41275.35
636.39	41315.14
636.53	41474.29
636.68	41158.32
636.83	41275.35
636.98	41404.08
637.13	41352.58
637.28	41181.73
637.43	41586.64
637.57	41427.48
637.72	41495.36
637.87	41287.05
638.02	41422.80
638.17	41177.04
638.32	41310.46
638.46	40919.59
638.61	40914.90
638.76	40636.38
638.91	40821.28
639.06	41413.44
639.20	41069.38
639.35	41181.73
639.50	40671.49
639.65	41336.20
639.80	40973.42
639.94	40727.66
640.09	40968.74
640.24	40718.30
640.39	40032.52
640.54	40521.69
640.68	40390.62
640.83	40725.32
640.98	40610.64
641.13	40779.15
641.27	40804.90
641.42	40514.67
641.57	40610.64
641.72	40732.34
641.86	40046.57
642.01	40423.39
642.16	39824.22
642.31	39831.24
642.45	40390.62
642.60	40058.27
642.75	39889.75
642.90	40072.31
643.04	40568.51
643.19	39978.69
643.34	40055.93
643.48	40355.52
643.63	39962.31
643.78	39683.78
643.93	39931.88
644.07	40081.67
644.22	39686.12
644.37	39463.77
644.51	40222.11
644.66	39992.73
644.81	40236.15
644.95	39915.50
645.10	40215.08
645.25	39948.26
645.39	39969.33
645.54	39667.40
645.69	39557.39
645.83	39789.11
645.98	39281.21
646.13	39452.07
646.27	39278.87
646.42	39433.35
646.57	39559.73
646.71	39321.00
646.86	39440.37
647.00	39847.62
647.15	39428.66
647.30	39620.59
647.44	39089.29
647.59	39466.11
647.74	39533.99
647.88	39325.68
648.03	39768.04
648.17	39210.99
648.32	39119.71
648.47	39227.38
648.61	39037.80
648.76	39681.44
648.90	39203.97
649.05	39173.55
649.20	38937.15
649.34	39124.40
649.49	39056.52
649.63	38726.50
649.78	38932.47
649.92	38829.49
650.07	39133.76
650.21	39136.10
650.36	39091.63
650.51	38663.31
650.65	39199.29
650.80	39321.00
650.94	39180.57
651.09	38740.55
651.23	38665.65
651.38	39288.23
651.52	38501.81
651.67	38941.83
651.81	38459.68
651.96	38480.75
652.10	38426.92
652.25	38141.37
652.39	38532.24
652.54	38356.70
652.68	38576.71
652.83	38705.44
652.97	38684.37
653.12	38733.53
653.26	38480.75
653.41	38431.60
653.55	38408.19
653.70	38295.85
653.84	38403.51
653.99	38497.13
654.13	38096.90
654.27	38103.92
654.42	37895.61
654.56	37949.45
654.71	37799.65
654.85	38026.68
655.00	38415.21
655.14	37809.01
655.29	37333.89
655.43	37652.20
655.57	37699.01
655.72	37455.59
655.86	37656.88
656.01	36994.51
656.15	36992.17
656.30	37467.30
656.44	37563.26
656.58	37689.65
656.73	37415.80
656.87	37532.83
657.01	37436.87
657.16	37596.03
657.30	37034.30
657.45	36954.72
657.59	37621.77
657.73	37270.69
657.88	37809.01
658.02	37706.03
658.16	37497.72
658.31	37591.34
658.45	37418.14
658.60	37219.20
658.74	37572.62
658.88	37347.93
659.03	37228.56
659.17	37399.42
659.31	36964.08
659.46	36891.52
659.60	37078.77
659.74	36783.86
659.89	36268.94
660.03	36837.69
660.17	36814.29
660.32	37085.79
660.46	37301.12
660.60	36479.59
660.74	36395.33
660.89	36603.64
661.03	36100.42
661.17	36292.35
661.32	36027.87
661.46	36570.87
661.60	36392.99
661.74	36252.56
661.89	36294.69
662.03	36477.25
662.17	36044.25
662.31	36224.47
662.46	36369.58
662.60	36444.48
662.74	36161.28
662.88	36009.14
663.03	35615.93
663.17	35849.99
663.31	35667.42
663.45	36163.62
663.60	35524.65
663.74	35660.40
663.88	35583.16
664.02	35583.16
664.17	35765.73
664.31	35218.04
664.45	35414.65
664.59	35288.26
664.73	35744.66
664.88	35353.79
665.02	35101.01
665.16	35126.76
665.30	35421.67
665.44	34927.81
665.59	34813.13
665.73	34958.24
665.87	34904.41
666.01	34707.80
666.15	34845.90
666.29	34815.47
666.44	34991.01
666.58	34548.65
666.72	34998.03
666.86	34546.31
667.00	34923.13
667.14	33989.26
667.28	33998.62
667.43	34092.24
667.57	34663.33
667.71	34188.21
667.85	34328.64
667.99	33860.53
668.13	34120.33
668.27	34480.77
668.41	34265.44
668.56	33900.32
668.70	33986.92
668.84	33858.19
668.98	33364.34
669.12	33493.07
669.26	33715.42
669.40	33537.54
669.54	33649.88
669.68	33209.86
669.82	33298.80
669.96	33305.82
670.10	33558.60
670.25	33102.20
670.39	33153.69
670.53	32762.82
670.67	32945.38
670.81	33418.17
670.95	32790.91
671.09	32968.79
671.23	32924.32
671.37	32968.79
671.51	32570.90
671.65	32826.01
671.79	32329.82
671.93	32549.83
672.07	32980.49
672.21	32706.65
672.35	32177.68
672.49	32856.44
672.63	32510.04
672.77	31899.16
672.91	32133.21
673.05	32144.92
673.19	32430.46
673.33	32151.94
673.47	31859.37
673.61	31868.73
673.75	31461.48
673.89	31704.90
674.03	31536.38
674.17	31089.34
674.31	31339.77
674.45	31168.91
674.59	31367.86
674.73	31786.82
674.87	31222.75
675.01	30775.70
675.15	31082.31
675.29	31271.90
675.43	30824.86
675.56	31370.20
675.70	30939.54
675.84	30778.04
675.98	30183.55
676.12	30962.95
676.26	30703.15
676.40	30579.10
676.54	30485.48
676.68	30443.35
676.82	29780.98
676.96	30085.25
677.10	30068.86
677.23	29680.33
677.37	29900.34
677.51	29685.01
677.65	29635.86
677.79	29287.12
677.93	29373.72
678.07	29104.56
678.21	28907.96
678.34	28936.04
678.48	28776.89
678.62	28896.25
678.76	28711.35
678.90	28507.72
679.04	28205.80
679.18	28453.89
679.31	28491.34
679.45	27875.78
679.59	28105.15
679.73	27901.53
679.87	28072.39
680.00	27985.79
680.14	27934.29
680.28	27765.78
680.42	28386.02
680.56	27835.99
680.70	27594.92
680.83	27566.83
680.97	27716.62
681.11	27681.52
681.25	27412.35
681.39	27395.97
681.52	27515.34
681.66	27185.32
681.80	27248.52
681.94	26944.25
682.07	26843.60
682.21	26771.05
682.35	27218.09
682.49	26607.21
682.62	26555.72
682.76	26328.69
682.90	26272.51
683.04	26099.31
683.17	25748.23
683.31	26153.15
683.45	25757.60
683.59	25862.92
683.72	25785.68
683.86	25781.00
684.00	25855.90
684.13	25694.40
684.27	25596.10
684.41	25514.18
684.55	25156.08
684.68	25329.28
684.82	25188.85
684.96	25067.14
685.09	24870.53
685.23	24966.49
685.37	24793.29
685.50	24847.13
685.64	24720.74
685.78	24250.29
685.91	24191.78
686.05	24322.85
686.19	23871.12
686.32	24243.27
686.46	23922.62
686.60	23536.43
686.73	23232.16
686.87	23351.52
687.01	23400.68
687.14	23276.63
687.28	23330.46
687.42	23147.90
687.55	23103.43
687.69	23367.91
687.82	23091.73
687.96	23073.00
688.10	23281.31
688.23	22654.05
688.37	22628.30
688.50	22569.79
688.64	22677.45
688.78	22403.61
688.91	22258.49
689.05	22684.47
689.18	22284.24
689.32	21909.75
689.46	22209.34
689.59	22288.92
689.73	22092.32
689.86	21795.07
690.00	21853.58
690.13	21858.26
690.27	21790.39
690.41	21488.46
690.54	21500.16
690.68	21348.03
690.81	21013.33
690.95	21453.35
691.08	21144.40
691.22	21088.23
691.35	21104.61
691.49	21081.21
691.62	21205.25
691.76	21053.12
691.89	21057.80
692.03	20589.69
692.16	20374.36
692.30	20451.60
692.43	20517.14
692.57	20257.34
692.70	19964.77
692.84	20292.44
692.97	20107.54
693.11	19889.87
693.24	19857.10
693.38	19894.55
693.51	20074.77
693.65	20163.72
693.78	19878.17
693.92	20067.75
694.05	19414.74
694.19	19676.88
694.32	19185.37
694.45	19089.41
694.59	18979.40
694.72	19232.18
694.86	18918.55
694.99	18775.78
695.13	18937.27
695.26	18885.78
695.39	18441.08
695.53	18754.71
695.66	19108.13
695.80	18785.14
695.93	18600.24
696.07	18223.41
696.20	18523.00
696.33	18164.90
696.47	18462.15
696.60	18155.54
696.73	17951.91
696.87	18022.12
697.00	17762.33
697.14	17675.73
697.27	17619.55
697.40	17771.69
697.54	17554.02
697.67	17357.41
697.80	17352.73
697.94	17235.70
698.07	17256.77
698.21	16901.01
698.34	16938.46
698.47	16915.05
698.61	16758.24
698.74	16659.93
698.87	16952.50
699.01	16596.74
699.14	16545.25
699.27	16484.39
699.40	16538.23
699.54	16294.81
699.67	16290.13
699.80	16177.78
699.94	16152.04
700.07	16374.39
700.20	15990.54
700.34	16072.46
700.47	16404.81
700.60	15920.32
700.73	15915.64
700.87	15784.57
701.00	15534.14
701.13	15686.27
701.26	15616.05
701.40	15183.06
701.53	15274.34
701.66	15386.68
701.79	15103.48
701.93	15257.95
702.06	14916.23
702.19	15016.88
702.32	15026.24
702.46	14654.09
702.59	15051.99
702.72	14806.23
702.85	14869.42
702.99	14848.36
703.12	14668.14
703.25	14387.27
703.38	14328.76
703.51	14366.21
703.65	14525.36
703.78	14523.02
703.91	14256.20
704.04	14209.39
704.17	14108.75
704.31	14150.88
704.44	14015.13
704.57	13839.59
704.70	13949.59
704.83	14050.24
704.96	13617.24
705.10	13872.36
705.23	13544.68
>>>>>End Processed Spectral Data<<<<<
