SpectraSuite Data File
++++++++++++++++++++++++++++++++++++
Date: Fri Oct 25 10:43:44 EDT 2013
User: price-jones
Dark Spectrum Present: No
Reference Spectrum Present: No
Number of Sampled Component Spectra: 1
Spectrometers: USB2+H05261
Integration Time (usec): 100000 (USB2+H05261)
Spectra Averaged: 1 (USB2+H05261)
Boxcar Smoothing: 0 (USB2+H05261)
Correct for Electrical Dark: No (USB2+H05261)
Strobe/Lamp Enabled: No (USB2+H05261)
Correct for Detector Non-linearity: No (USB2+H05261)
Correct for Stray Light: No (USB2+H05261)
Number of Pixels in Processed Spectrum: 2048
>>>>>Begin Processed Spectral Data<<<<<
365.73	124.05
365.92	124.05
366.12	124.05
366.32	37.45
366.52	18.72
366.72	56.17
366.91	42.13
367.11	67.88
367.31	21.06
367.51	30.43
367.70	53.83
367.90	25.75
368.10	4.68
368.30	49.15
368.49	9.36
368.69	51.49
368.89	72.56
369.09	58.51
369.28	2.34
369.48	95.96
369.68	23.41
369.87	102.98
370.07	46.81
370.27	156.82
370.47	212.99
370.66	390.87
370.86	435.34
371.06	435.34
371.25	468.11
371.45	409.59
371.65	409.59
371.84	470.45
372.04	526.62
372.24	528.96
372.44	505.56
372.63	613.22
372.83	531.30
373.03	489.17
373.22	454.06
373.42	571.09
373.62	543.00
373.81	425.98
374.01	461.09
374.21	606.20
374.40	606.20
374.60	528.96
374.79	547.69
374.99	496.19
375.19	671.73
375.38	573.43
375.58	660.03
375.78	622.58
375.97	617.90
376.17	606.20
376.37	603.86
376.56	629.60
376.76	566.41
376.95	624.92
377.15	580.45
377.35	704.50
377.54	730.25
377.74	608.54
377.93	638.97
378.13	645.99
378.33	594.50
378.52	650.67
378.72	683.44
378.91	664.71
379.11	671.73
379.31	610.88
379.50	643.65
379.70	669.39
379.89	730.25
380.09	627.26
380.28	727.91
380.48	706.84
380.68	688.12
380.87	765.36
381.07	734.93
381.26	615.56
381.46	732.59
381.65	690.46
381.85	671.73
382.04	718.54
382.24	699.82
382.43	702.16
382.63	695.14
382.83	671.73
383.02	758.33
383.22	716.20
383.41	746.63
383.61	774.72
383.80	732.59
384.00	770.04
384.19	734.93
384.39	779.40
384.58	826.21
384.78	833.23
384.97	791.10
385.17	816.85
385.36	786.42
385.56	772.38
385.75	835.57
385.95	809.83
386.14	833.23
386.34	882.38
386.53	784.08
386.72	802.80
386.92	896.43
387.11	795.78
387.31	887.06
387.50	929.19
387.70	870.68
387.89	875.36
388.09	844.93
388.28	770.04
388.48	891.74
388.67	873.02
388.86	915.15
389.06	929.19
389.25	987.71
389.45	968.98
389.64	980.68
389.84	1008.77
390.03	1018.13
390.22	880.04
390.42	1020.47
390.61	943.24
390.81	1109.41
391.00	1043.88
391.19	1027.50
391.39	997.07
391.58	1057.92
391.78	973.66
391.97	1064.94
392.16	1032.18
392.36	983.02
392.55	1004.09
392.75	1100.05
392.94	959.62
393.13	945.58
393.33	1078.99
393.52	1001.75
393.71	1067.28
393.91	1093.03
394.10	1125.80
394.29	1153.88
394.49	1153.88
394.68	1181.97
394.88	1095.37
395.07	1341.13
395.26	1165.59
395.46	1207.72
395.65	1261.55
395.84	1142.18
396.04	1287.29
396.23	1069.62
396.42	1177.29
396.62	1109.41
396.81	1193.67
397.00	1200.69
397.19	1371.55
397.39	1362.19
397.58	1432.41
397.77	1401.98
397.97	1352.83
398.16	1373.89
398.35	1423.05
398.55	1427.73
398.74	1556.46
398.93	1544.75
399.12	1434.75
399.32	1418.36
399.51	1504.96
399.70	1549.43
399.90	1526.03
400.09	1565.82
400.28	1514.33
400.47	1582.20
400.67	1685.19
400.86	1734.34
401.05	1652.42
401.24	1680.50
401.44	1638.38
401.63	1664.12
401.82	1703.91
402.01	1638.38
402.21	1692.21
402.40	1830.30
402.59	1703.91
402.78	1760.08
402.97	1736.68
403.17	1863.07
403.36	1746.04
403.55	1865.41
403.74	1853.70
403.93	1884.13
404.13	1891.15
404.32	1834.98
404.51	1867.75
404.70	1923.92
404.89	1937.96
405.09	1912.22
405.28	1994.14
405.47	1952.01
405.66	1970.73
405.85	1926.26
406.05	2033.93
406.24	1921.58
406.43	1975.41
406.62	2120.53
406.81	2160.31
407.00	1970.73
407.20	1991.80
407.39	2094.78
407.58	2118.18
407.77	2106.48
407.96	2165.00
408.15	2272.66
408.34	2225.85
408.54	2289.04
408.73	2253.94
408.92	2298.41
409.11	2310.11
409.30	2251.60
409.49	2204.78
409.68	2230.53
409.87	2319.47
410.07	2270.32
410.26	2387.35
410.45	2319.47
410.64	2347.56
410.83	2520.76
411.02	2422.45
411.21	2509.05
411.40	2640.12
411.59	2509.05
411.78	2633.10
411.98	2572.25
412.17	2677.57
412.36	2710.34
412.55	2700.98
412.74	2806.30
412.93	2616.72
413.12	2672.89
413.31	2822.69
413.50	2743.11
413.69	2909.29
413.88	2904.60
414.07	2768.85
414.26	2883.54
414.45	2911.63
414.64	2885.88
414.83	2918.65
415.02	3056.74
415.22	3016.95
415.41	3012.27
415.60	3049.72
415.79	3194.83
415.98	3281.43
416.17	3194.83
416.36	3028.65
416.55	3208.87
416.74	3274.41
416.93	3206.53
417.12	3342.28
417.31	3258.03
417.50	3349.31
417.69	3506.12
417.88	3337.60
418.07	3412.50
418.26	3475.70
418.45	3407.82
418.64	3499.10
418.83	3485.06
419.02	3571.66
419.21	3581.02
419.39	3648.90
419.58	3475.70
419.77	3564.64
419.96	3623.15
420.15	3581.02
420.34	3581.02
420.53	3749.54
420.72	3772.94
420.91	3798.69
421.10	3779.97
421.29	3885.29
421.48	3751.88
421.67	3908.69
421.86	3747.20
422.05	3749.54
422.24	3861.88
422.43	3698.05
422.61	3700.39
422.80	3859.54
422.99	3904.01
423.18	3992.95
423.37	3946.14
423.56	3953.16
423.75	3808.05
423.94	3812.73
424.13	3740.18
424.32	3779.97
424.50	3927.42
424.69	3904.01
424.88	4025.72
425.07	3925.08
425.26	3985.93
425.45	3887.63
425.64	3934.44
425.83	3819.75
426.01	4037.42
426.20	4016.36
426.39	4002.32
426.58	3885.29
426.77	3824.44
426.96	4007.00
427.15	3918.06
427.33	4112.32
427.52	4070.19
427.71	4023.38
427.90	4091.26
428.09	4152.11
428.28	4250.41
428.46	4166.15
428.65	4102.96
428.84	4266.80
429.03	4119.34
429.22	4159.13
429.40	4121.68
429.59	3873.59
429.78	3936.78
429.97	3983.59
430.16	4002.32
430.34	4117.00
430.53	4124.02
430.72	4201.26
430.91	4168.49
431.10	4243.39
431.28	4493.83
431.47	4517.23
431.66	4596.81
431.85	4472.76
432.03	4664.69
432.22	4704.48
432.41	4545.32
432.60	4542.98
432.79	4578.09
432.97	4765.33
433.16	4741.93
433.35	4547.66
433.54	4779.37
433.72	4732.56
433.91	4507.87
434.10	4678.73
434.28	4744.27
434.47	4664.69
434.66	4856.61
434.85	4961.94
435.03	5022.79
435.22	4898.74
435.41	5170.24
435.59	5123.43
435.78	5062.58
435.97	5184.29
436.16	5022.79
436.34	5118.75
436.53	5181.95
436.72	5132.79
436.90	5095.35
437.09	5146.84
437.28	5004.07
437.46	5081.30
437.65	5125.77
437.84	5305.99
438.02	5081.30
438.21	5142.16
438.40	5123.43
438.58	5252.16
438.77	5277.91
438.96	5338.76
439.14	5500.26
439.33	5631.33
439.52	5689.84
439.70	5547.07
439.89	5666.44
440.08	5542.39
440.26	5692.18
440.45	5734.31
440.63	5750.70
440.82	5926.24
441.01	5940.28
441.19	5951.98
441.38	5895.81
441.57	6085.39
441.75	6155.61
441.94	6300.72
442.12	6167.31
442.31	6326.47
442.50	6328.81
442.68	6162.63
442.87	6284.34
443.05	6277.32
443.24	6537.12
443.43	6342.85
443.61	6572.22
443.80	6633.08
443.98	6354.55
444.17	6132.20
444.35	6342.85
444.54	6616.69
444.73	6483.28
444.91	6473.92
445.10	6443.49
445.28	6523.07
445.47	6340.51
445.65	6359.24
445.84	6420.09
446.02	6392.00
446.21	6560.52
446.39	6457.54
446.58	6476.26
446.77	6715.00
446.95	6544.14
447.14	6630.74
447.32	6719.68
447.51	6663.51
447.69	6562.86
447.88	6525.41
448.06	6651.80
448.25	6668.19
448.43	6651.80
448.62	6691.59
448.80	6682.23
448.99	6689.25
449.17	6717.34
449.36	6836.70
449.54	6871.81
449.73	6995.86
449.91	7082.46
450.10	7162.04
450.28	7349.28
450.46	7033.31
450.65	7035.65
450.83	7094.16
451.02	7068.42
451.20	7222.89
451.39	7145.66
451.57	7103.53
451.76	7213.53
451.94	7108.21
452.13	7405.46
452.31	7372.69
452.49	7059.06
452.68	7250.98
452.86	7178.42
453.05	7213.53
453.23	7456.95
453.42	7241.62
453.60	7183.10
453.78	7356.30
453.97	7302.47
454.15	7405.46
454.34	7311.83
454.52	7426.52
454.70	7487.37
454.89	7454.61
455.07	7428.86
455.26	7407.80
455.44	7824.41
455.62	7653.55
455.81	7695.68
455.99	7852.50
456.17	7756.54
456.36	7719.09
456.54	7747.17
456.73	7957.82
456.91	8168.47
457.09	7864.20
457.28	8355.71
457.46	7878.24
457.64	8051.44
457.83	7960.16
458.01	8079.53
458.19	8255.07
458.38	8035.06
458.56	8234.00
458.74	8262.09
458.93	8131.02
459.11	8278.47
459.29	8124.00
459.48	8276.13
459.66	8112.30
459.84	8444.65
460.03	8468.06
460.21	8184.85
460.39	8580.40
460.57	8512.53
460.76	8634.24
460.94	8524.23
461.12	8671.68
461.31	8559.34
461.49	8681.05
461.67	8702.11
461.85	8709.13
462.04	8629.56
462.22	9036.81
462.40	8961.91
462.59	8922.12
462.77	8894.04
462.95	8819.14
463.13	8805.10
463.32	8837.86
463.50	9020.42
463.68	9088.30
463.86	9022.77
464.05	8791.05
464.23	8980.64
464.41	9074.26
464.59	8896.38
464.78	9217.03
464.96	8887.01
465.14	9015.74
465.32	9032.13
465.50	9235.75
465.69	9214.69
465.87	9172.56
466.05	9057.87
466.23	9069.58
466.41	9104.68
466.60	9322.35
466.78	8985.32
466.96	9163.20
467.14	9144.47
467.32	9165.54
467.51	9401.93
467.69	8999.36
467.87	9481.51
468.05	9315.33
468.23	9387.89
468.41	9390.23
468.60	9462.79
468.78	9561.09
468.96	9364.48
469.14	9806.84
469.32	9928.55
469.50	9399.59
469.69	9544.70
469.87	9760.03
470.05	9717.90
470.23	9872.38
470.41	9797.48
470.59	9844.29
470.77	9825.57
470.95	9825.57
471.14	9989.41
471.32	9692.16
471.50	9879.40
471.68	10296.02
471.86	10148.56
472.04	10443.47
472.22	10417.72
472.40	10237.50
472.58	10143.88
472.77	10239.84
472.95	10373.25
473.13	10867.11
473.31	10532.41
473.49	10457.51
473.67	10499.64
473.85	10532.41
474.03	10810.93
474.21	10839.02
474.39	11047.33
474.57	10958.39
474.75	10934.98
474.93	11026.26
475.12	11255.64
475.30	11201.80
475.48	11047.33
475.66	11337.56
475.84	11269.68
476.02	11267.34
476.20	11482.67
476.38	11662.89
476.56	11707.36
476.74	11676.93
476.92	11716.72
477.10	11690.98
477.28	12226.96
477.46	11960.14
477.64	12306.54
477.82	12435.27
478.00	12538.25
478.18	12343.99
478.36	12793.37
478.54	12659.96
478.72	12697.41
478.90	12671.66
479.08	12699.75
479.26	13111.68
479.44	13036.78
479.62	12938.48
479.80	13308.29
479.98	13401.91
480.16	13671.07
480.34	13376.16
480.52	13511.91
480.70	13561.06
480.88	13474.46
481.06	13867.67
481.24	13642.98
481.41	14106.41
481.59	14265.57
481.77	14305.35
481.95	14300.67
482.13	14663.46
482.31	14511.32
482.49	14979.43
482.67	14761.76
482.85	14913.89
483.03	14951.34
483.21	15115.18
483.39	15290.72
483.57	15524.77
483.74	15274.34
483.92	15527.11
484.10	15147.95
484.28	15917.98
484.46	15899.26
484.64	16287.79
484.82	15892.24
485.00	15908.62
485.18	16002.24
485.35	16636.53
485.53	15894.58
485.71	16322.90
485.89	16350.98
486.07	16079.48
486.25	16744.19
486.43	16793.34
486.61	16912.71
486.78	17003.99
486.96	17298.90
487.14	17853.61
487.32	17474.44
487.50	18075.96
487.68	18024.47
487.85	18211.71
488.03	18523.00
488.21	18469.17
488.39	18462.15
488.57	18448.10
488.75	18569.81
488.92	18951.32
489.10	19325.80
489.28	19302.40
489.46	19412.40
489.64	19323.46
489.81	20233.93
489.99	19967.11
490.17	19690.93
490.35	20470.33
490.53	20058.39
490.70	20236.27
490.88	20453.94
491.06	20695.02
491.24	20533.52
491.41	20451.60
491.59	20641.18
491.77	20709.06
491.95	20952.48
492.13	21273.13
492.30	21345.69
492.48	21591.44
492.66	21467.39
492.84	21750.60
493.01	22082.95
493.19	21970.61
493.37	22260.84
493.54	22235.09
493.72	22047.85
493.90	22366.16
494.08	23014.49
494.25	22977.04
494.43	23096.41
494.61	23293.01
494.79	23220.45
494.96	23381.95
495.14	23487.28
495.32	23489.62
495.49	23480.25
495.67	23810.27
495.85	24074.75
496.02	24285.40
496.20	24226.89
496.38	24367.32
496.55	24493.71
496.73	24826.06
496.91	24821.38
497.09	24917.34
497.26	24938.41
497.44	25008.62
497.62	25076.50
497.79	25221.61
497.97	25380.77
498.14	25406.52
498.32	25252.04
498.50	25788.02
498.67	25633.55
498.85	25963.56
499.03	26387.20
499.20	26111.02
499.38	26239.75
499.56	25940.16
499.73	26066.55
499.91	26333.37
500.08	26698.49
500.26	26384.86
500.44	26567.42
500.61	26436.35
500.79	26527.63
500.97	26600.19
501.14	27253.20
501.32	27026.17
501.49	26899.78
501.67	26782.75
501.84	27264.90
502.02	27101.06
502.20	27667.47
502.37	27522.36
502.55	27861.74
502.72	27906.21
502.90	27599.60
503.07	27943.66
503.25	28091.11
503.43	27992.81
503.60	28252.61
503.78	27814.93
503.95	28032.60
504.13	28175.37
504.30	28409.42
504.48	28687.95
504.65	28774.55
504.83	28952.43
505.01	28870.51
505.18	28914.98
505.36	29252.02
505.53	29280.10
505.71	29504.79
505.88	29542.24
506.06	28989.88
506.23	29378.40
506.41	29202.86
506.58	29656.93
506.76	29876.94
506.93	29970.56
507.11	29701.40
507.28	29890.98
507.46	30017.37
507.63	29696.72
507.81	30136.74
507.98	29797.36
508.16	30150.78
508.33	30492.50
508.50	30459.73
508.68	30600.16
508.85	30857.62
509.03	30815.49
509.20	31033.16
509.38	31360.84
509.55	31096.36
509.73	31211.04
509.90	31487.23
510.08	31175.94
510.25	31281.26
510.42	31475.52
510.60	31934.27
510.77	31585.53
510.95	31782.13
511.12	31796.18
511.30	31831.29
511.47	32481.95
511.64	32311.10
511.82	32315.78
511.99	31793.84
512.17	32266.63
512.34	32442.17
512.51	32371.95
512.69	32484.30
512.86	32177.68
513.04	32999.21
513.21	32540.47
513.38	32231.52
513.56	32842.40
513.73	32833.04
513.90	33263.69
514.08	32947.72
514.25	32708.99
514.43	33036.66
514.60	32872.82
514.77	33347.95
514.95	33464.98
515.12	33282.42
515.29	33893.30
515.47	33839.47
515.64	33902.66
515.81	33692.01
515.99	33738.82
516.16	34043.09
516.33	33612.43
516.51	33645.20
516.68	33153.69
516.85	33500.09
517.03	33502.43
517.20	34071.18
517.37	34057.14
517.54	34263.10
517.72	33893.30
517.89	33479.02
518.06	34010.32
518.24	34040.75
518.41	34153.10
518.58	34483.11
518.75	34419.92
518.93	34873.98
519.10	34609.50
519.27	35185.27
519.45	34415.24
519.62	35098.67
519.79	35304.64
519.96	35473.16
520.14	35112.72
520.31	35374.86
520.48	35449.75
520.65	35318.68
520.83	35641.68
521.00	35599.55
521.17	35629.98
521.34	36074.68
521.52	35784.45
521.69	35838.28
521.86	36261.92
522.03	36465.55
522.20	35674.45
522.38	36315.75
522.55	36236.17
522.72	36362.56
522.89	36257.24
523.07	36388.31
523.24	36397.67
523.41	36914.93
523.58	36402.35
523.75	37558.58
523.92	37034.30
524.10	37118.56
524.27	37195.79
524.44	37223.88
524.61	37050.68
524.78	37371.33
524.96	37420.48
525.13	37392.40
525.30	37450.91
525.47	37589.00
525.64	37535.17
525.81	37378.36
525.98	37532.83
526.16	37177.07
526.33	37406.44
526.50	37640.50
526.67	36961.74
526.84	37289.42
527.01	37528.15
527.18	37682.62
527.36	38146.05
527.53	37909.66
527.70	38251.38
527.87	38209.25
528.04	38136.69
528.21	38045.41
528.38	38122.65
528.55	38733.53
528.72	38852.89
528.89	38829.49
529.07	38834.17
529.24	38595.43
529.41	38852.89
529.58	38424.57
529.75	38684.37
529.92	38660.97
530.09	38733.53
530.26	38801.40
530.43	39075.24
530.60	39044.82
530.77	38904.38
530.94	39150.14
531.11	39522.29
531.28	39384.19
531.46	39213.34
531.63	39391.22
531.80	39100.99
531.97	39171.21
532.14	39005.03
532.31	39096.31
532.48	39225.04
532.65	39695.49
532.82	39299.94
532.99	39538.67
533.16	39473.13
533.33	40018.48
533.50	39971.67
533.67	39978.69
533.84	39716.55
534.01	40187.00
534.18	40065.29
534.35	40074.65
534.52	39667.40
534.69	39840.60
534.86	40285.30
535.03	40463.18
535.20	40568.51
535.37	40854.05
535.54	40545.10
535.71	40385.94
535.88	40762.77
536.05	40823.62
536.22	40652.76
536.38	40772.13
536.55	40336.79
536.72	40739.36
536.89	40587.23
537.06	40315.73
537.23	40861.07
537.40	40954.69
537.57	41003.85
537.74	41354.93
537.91	41331.52
538.08	40832.99
538.25	40957.03
538.42	41034.27
538.59	41151.30
538.75	41008.53
538.92	40673.83
539.09	41270.67
539.26	41345.56
539.43	41347.90
539.60	41275.35
539.77	41167.68
539.94	41514.08
540.11	41511.74
540.28	41371.31
540.44	41596.00
540.61	40842.35
540.78	40849.37
540.95	41591.32
541.12	41486.00
541.29	41619.41
541.46	41677.92
541.62	41933.04
541.79	42169.43
541.96	41486.00
542.13	41869.84
542.30	41883.89
542.47	41872.18
542.63	42300.50
542.80	41879.21
542.97	42305.18
543.14	42611.79
543.31	42183.48
543.48	42674.99
543.64	43028.41
543.81	42328.59
543.98	42656.26
544.15	42340.29
544.32	43009.68
544.48	43058.84
544.65	43063.52
544.82	42415.19
544.99	42302.84
545.16	42581.37
545.32	42504.13
545.49	43313.95
545.66	42700.73
545.83	43166.50
546.00	43054.15
546.16	42686.69
546.33	42665.63
546.50	42616.47
546.67	43019.05
546.83	43058.84
547.00	43129.05
547.17	43105.65
547.34	43049.47
547.50	43604.18
547.67	43344.38
547.84	43618.22
548.00	43136.07
548.17	43428.64
548.34	43416.94
548.51	44196.34
548.67	44037.18
548.84	43447.36
549.01	43695.46
549.18	43571.41
549.34	43697.80
549.51	43562.05
549.68	43868.66
549.84	43842.92
550.01	43969.30
550.18	43538.65
550.34	43758.66
550.51	43746.95
550.68	43999.73
550.84	43381.83
551.01	44289.96
551.18	43966.96
551.34	44004.41
551.51	44369.54
551.68	44105.06
551.84	44397.62
552.01	44011.43
552.18	44395.28
552.34	44392.94
552.51	44191.65
552.68	44037.18
552.84	44170.59
553.01	44194.00
553.18	43978.67
553.34	44184.63
553.51	44245.49
553.67	44182.29
553.84	44486.56
554.01	44435.07
554.17	45048.29
554.34	44671.46
554.51	45219.15
554.67	44231.44
554.84	44622.31
555.00	44247.83
555.17	44914.88
555.33	44453.79
555.50	44409.32
555.67	44643.38
555.83	44655.08
556.00	44753.38
556.16	44999.14
556.33	44109.74
556.50	44589.55
556.66	44783.81
556.83	44926.58
556.99	45043.61
557.16	45057.65
557.32	44538.05
557.49	45237.87
557.65	44816.58
557.82	44692.53
557.98	45064.67
558.15	45184.04
558.32	44919.56
558.48	45085.74
558.65	44900.84
558.81	45057.65
558.98	44786.15
559.14	45120.85
559.31	44741.68
559.47	45490.65
559.64	45013.18
559.80	44938.29
559.97	45542.14
560.13	45017.86
560.30	45134.89
560.46	45095.10
560.63	45319.79
560.79	45701.30
560.96	45584.27
561.12	44966.37
561.29	44973.39
561.45	45350.22
561.61	45247.24
561.78	45450.86
561.94	45095.10
562.11	45083.40
562.27	45193.40
562.44	45450.86
562.60	45474.27
562.77	45535.12
562.93	45359.58
563.10	45464.91
563.26	45280.00
563.42	45734.07
563.59	45406.39
563.75	45221.49
563.92	45528.10
564.08	45574.91
564.24	45518.74
564.41	45631.08
564.57	45179.36
564.74	45263.62
564.90	45720.02
565.07	45614.70
565.23	45207.45
565.39	45661.51
565.56	45553.85
565.72	45160.64
565.88	45626.40
566.05	45319.79
566.21	45516.40
566.38	45839.39
566.54	45652.15
566.70	45581.93
566.87	45886.20
567.03	45687.26
567.19	46358.99
567.36	46017.27
567.52	45993.87
567.68	45860.46
567.85	45717.68
568.01	45722.37
568.17	45741.09
568.34	45996.21
568.50	45507.04
568.66	45469.59
568.83	45682.58
568.99	45663.85
569.15	45687.26
569.32	45404.05
569.48	45305.75
569.64	46197.49
569.81	45521.08
569.97	45621.72
570.13	45724.71
570.30	45352.56
570.46	45469.59
570.62	45214.47
570.78	45668.53
570.95	45539.80
571.11	45998.55
571.27	45748.11
571.43	45813.65
571.60	45689.60
571.76	45876.84
571.92	45991.53
572.09	45935.35
572.25	45904.93
572.41	46064.08
572.57	45951.74
572.74	46405.80
572.90	46485.38
573.06	45958.76
573.22	46312.18
573.38	45635.77
573.55	45619.38
573.71	46281.75
573.87	46068.76
574.03	46071.10
574.20	45890.88
574.36	45610.02
574.52	45815.99
574.68	46005.57
574.84	45839.39
575.01	45993.87
575.17	46012.59
575.33	45890.88
575.49	45638.11
575.65	46188.13
575.82	45900.25
575.98	45797.26
576.14	46014.93
576.30	45916.63
576.46	45860.46
576.62	45998.55
576.79	45553.85
576.95	45872.16
577.11	46007.91
577.27	45757.47
577.43	45813.65
577.59	45485.97
577.75	45614.70
577.92	45635.77
578.08	45727.05
578.24	45584.27
578.40	45443.84
578.56	45881.52
578.72	46244.30
578.88	45911.95
579.04	46028.98
579.21	45490.65
579.37	45888.54
579.53	46148.34
579.69	46000.89
579.85	45820.67
580.01	46300.48
580.17	45764.49
580.33	45492.99
580.49	46108.55
580.65	46237.28
580.82	45925.99
580.98	46319.20
581.14	46094.51
581.30	46099.19
581.46	45897.91
581.62	46080.47
581.78	46281.75
581.94	46216.22
582.10	46113.23
582.26	46546.23
582.42	45675.55
582.58	46253.67
582.74	46153.02
582.90	46134.30
583.06	46160.05
583.22	45888.54
583.38	46595.38
583.54	46351.97
583.70	46426.87
583.86	46099.19
584.02	45937.69
584.18	46691.35
584.34	46021.95
584.50	46099.19
584.66	45731.73
584.82	45965.78
584.98	46607.09
585.14	45832.37
585.30	46087.49
585.46	46141.32
585.62	45670.87
585.78	45567.89
585.94	45591.30
586.10	45792.58
586.26	45717.68
586.42	46075.79
586.58	46211.54
586.74	46092.17
586.90	46248.99
587.06	46171.75
587.22	46160.05
587.38	46136.64
587.54	46005.57
587.70	45998.55
587.86	45949.40
588.02	46021.95
588.18	46546.23
588.34	45705.98
588.49	45478.95
588.65	45162.98
588.81	45270.64
588.97	45631.08
589.13	45518.74
589.29	45825.35
589.45	46148.34
589.61	45720.02
589.77	46408.14
589.93	46593.04
590.08	45986.85
590.24	46234.94
590.40	46295.80
590.56	46330.90
590.72	45977.48
590.88	46190.47
591.04	46246.65
591.20	46321.54
591.35	46461.97
591.51	46541.55
591.67	45703.64
591.83	46199.83
591.99	46106.21
592.15	45853.44
592.31	46286.43
592.46	46401.12
592.62	46192.81
592.78	46340.27
592.94	46342.61
593.10	46019.61
593.26	46656.24
593.41	46897.31
593.57	45776.20
593.73	45869.82
593.89	46150.68
594.05	46209.20
594.20	46469.00
594.36	46534.53
594.52	46483.04
594.68	46354.31
594.84	46281.75
594.99	46028.98
595.15	46066.42
595.31	46204.52
595.47	46267.71
595.62	46466.66
595.78	46190.47
595.94	46342.61
596.10	46696.03
596.25	46511.13
596.41	45907.27
596.57	45743.43
596.73	46380.06
596.88	45944.72
597.04	46199.83
597.20	46272.39
597.36	46213.88
597.51	46700.71
597.67	46326.22
597.83	46286.43
597.99	46691.35
598.14	46663.26
598.30	45862.80
598.46	46148.34
598.61	46351.97
598.77	45832.37
598.93	46471.34
599.09	46560.28
599.24	46607.09
599.40	46670.28
599.56	46721.77
599.71	46096.85
599.87	46515.81
600.03	46202.18
600.18	46333.24
600.34	46473.68
600.50	46043.02
600.65	46047.70
600.81	46234.94
600.97	46522.83
601.12	46499.42
601.28	46155.36
601.44	46178.77
601.59	46305.16
601.75	46241.96
601.91	46153.02
602.06	45525.76
602.22	46780.29
602.37	46192.81
602.53	46597.73
602.69	46410.48
602.84	46218.56
603.00	46000.89
603.16	46337.93
603.31	46391.76
603.47	45989.19
603.62	46124.94
603.78	46251.33
603.94	46461.97
604.09	46195.15
604.25	46373.03
604.40	46110.89
604.56	46071.10
604.71	46309.84
604.87	46373.03
605.03	46351.97
605.18	46075.79
605.34	46368.35
605.49	45801.94
605.65	46146.00
605.80	46054.72
605.96	46344.95
606.12	46450.27
606.27	46447.93
606.43	46040.68
606.58	46162.39
606.74	46471.34
606.89	46356.65
607.05	45851.09
607.20	45542.14
607.36	46129.62
607.51	46703.05
607.67	46005.57
607.82	46127.28
607.98	45846.41
608.13	45551.51
608.29	45855.78
608.44	45869.82
608.60	45251.92
608.75	46131.96
608.91	46150.68
609.06	45865.14
609.22	45958.76
609.37	46153.02
609.53	45813.65
609.68	45832.37
609.84	45886.20
609.99	45666.19
610.15	45528.10
610.30	45595.98
610.46	45322.13
610.61	45240.21
610.76	45823.01
610.92	45434.48
611.07	45446.18
611.23	45787.90
611.38	45453.20
611.54	45586.61
611.69	45057.65
611.84	44891.48
612.00	45055.31
612.15	45134.89
612.31	45621.72
612.46	45315.11
612.62	45434.48
612.77	45375.97
612.92	45488.31
613.08	45102.12
613.23	45048.29
613.39	44875.09
613.54	44645.72
613.69	45188.72
613.85	45013.18
614.00	45062.33
614.15	45209.79
614.31	45305.75
614.46	45621.72
614.62	44957.01
614.77	45413.41
614.92	45010.84
615.08	45113.83
615.23	44814.24
615.38	44809.56
615.54	44727.64
615.69	44713.59
615.84	44966.37
616.00	45078.72
616.15	44608.27
616.30	45123.19
616.46	44832.96
616.61	44912.54
616.76	44769.77
616.92	44538.05
617.07	44189.31
617.22	44350.81
617.37	44580.18
617.53	44954.67
617.68	44823.60
617.83	45062.33
617.99	44783.81
618.14	44502.95
618.29	44151.87
618.45	44582.52
618.60	44329.75
618.75	44332.09
618.90	44114.42
619.06	44222.08
619.21	44531.03
619.36	44580.18
619.51	44308.68
619.67	44201.02
619.82	44608.27
619.97	44498.26
620.12	43831.21
620.28	43756.32
620.43	44498.26
620.58	44252.51
620.73	44598.91
620.89	43971.64
621.04	43945.90
621.19	44409.32
621.34	44161.23
621.49	44334.43
621.65	43929.51
621.80	44430.39
621.95	43786.74
622.10	44271.23
622.25	43915.47
622.41	43779.72
622.56	43936.54
622.71	44268.89
622.86	44257.19
623.01	43714.19
623.16	43459.07
623.32	43969.30
623.47	43814.83
623.62	43772.70
623.77	43587.80
623.92	43594.82
624.07	43529.28
624.23	43601.84
624.38	43126.71
624.53	43323.32
624.68	43477.79
624.83	43597.16
624.98	43555.03
625.13	42859.89
625.29	43075.22
625.44	43147.78
625.59	42717.12
625.74	42951.17
625.89	43119.69
626.04	42864.57
626.19	42857.55
626.34	43157.14
626.49	42944.15
626.65	42873.93
626.80	43037.77
626.95	43023.73
627.10	42660.94
627.25	43021.39
627.40	42721.80
627.55	42447.96
627.70	42536.90
627.85	42913.72
628.00	42930.11
628.15	42586.05
628.30	43098.62
628.45	42941.81
628.60	43185.22
628.76	42796.70
628.91	42593.07
629.06	42216.24
629.21	42522.85
629.36	42021.98
629.51	42174.11
629.66	42651.58
629.81	42431.57
629.96	42263.05
630.11	42059.43
630.26	42593.07
630.41	42518.17
630.56	42305.18
630.71	42293.48
630.86	42532.22
631.01	41794.95
631.16	41832.39
631.31	42127.30
631.46	41233.22
631.61	42092.19
631.76	41813.67
631.91	42581.37
632.06	42234.97
632.21	42094.53
632.36	42190.50
632.51	41478.97
632.66	41748.14
632.81	41598.34
632.96	41691.96
633.10	41663.88
633.25	41446.21
633.40	41867.50
633.55	41846.44
633.70	41605.36
633.85	41837.08
634.00	41713.03
634.15	41918.99
634.30	41523.44
634.45	41291.73
634.60	41490.68
634.75	41614.72
634.90	41535.15
635.05	41284.71
635.19	41205.13
635.34	41727.07
635.49	41621.75
635.64	41757.50
635.79	41476.63
635.94	41137.26
636.09	41411.10
636.24	41013.21
636.39	41195.77
636.53	40898.52
636.68	41144.28
636.83	41193.43
636.98	41298.75
637.13	41083.42
637.28	41525.78
637.43	41776.22
637.57	41151.30
637.72	40825.96
637.87	41071.72
638.02	41095.13
638.17	41146.62
638.32	41352.58
638.46	40617.66
638.61	40531.06
638.76	41027.25
638.91	40610.64
639.06	40718.30
639.20	40868.09
639.35	41062.36
639.50	40722.98
639.65	41280.03
639.80	40758.09
639.94	40540.42
640.09	40479.57
640.24	40339.13
640.39	40594.25
640.54	40388.28
640.68	40687.87
640.83	40369.56
640.98	39889.75
641.13	40079.33
641.27	40381.26
641.42	39908.47
641.57	40517.01
641.72	40278.28
641.86	40573.19
642.01	40353.18
642.16	40395.31
642.31	39754.00
642.45	40416.37
642.60	39601.86
642.75	40292.32
642.90	39941.24
643.04	40170.61
643.19	39908.47
643.34	39833.58
643.48	40091.04
643.63	40182.32
643.78	39899.11
643.93	39959.97
644.07	39901.45
644.22	39667.40
644.37	39482.50
644.51	39402.92
644.66	39339.72
644.81	39770.38
644.95	39887.41
645.10	39658.04
645.25	39730.59
645.39	39831.24
645.54	39234.40
645.69	39433.35
645.83	39716.55
645.98	39372.49
646.13	39505.90
646.27	39735.27
646.42	39372.49
646.57	39423.98
646.71	39328.02
646.86	39241.42
647.00	39047.16
647.15	39119.71
647.30	39475.48
647.44	39271.85
647.59	39306.96
647.74	38859.91
647.88	38960.56
648.03	39222.70
648.17	39189.93
648.32	39269.51
648.47	38862.26
648.61	38864.60
648.76	39056.52
648.90	39065.88
649.05	38899.70
649.20	39136.10
649.34	38958.22
649.49	38506.49
649.63	38836.51
649.78	38815.44
649.92	39065.88
650.07	39182.91
650.21	38714.80
650.36	39145.46
650.51	38686.71
650.65	39218.02
650.80	39552.71
650.94	38850.55
651.09	39093.97
651.23	38082.86
651.38	38667.99
651.52	38359.04
651.67	38309.89
651.81	38321.59
651.96	38562.67
652.10	38333.29
652.25	38787.36
652.39	38019.66
652.54	38567.35
652.68	38525.22
652.83	38384.79
652.97	38326.27
653.12	38153.07
653.26	38370.74
653.41	37979.87
653.55	38436.28
653.70	38022.00
653.84	38455.00
653.99	37680.28
654.13	37614.75
654.27	37811.35
654.42	38132.01
654.56	38122.65
654.71	38064.13
654.85	37886.25
655.00	38061.79
655.14	37869.87
655.29	37336.23
655.43	37635.81
655.57	37453.25
655.72	37324.52
655.86	37654.54
656.01	37523.47
656.15	36928.97
656.30	36844.71
656.44	37277.71
656.58	37378.36
656.73	37493.04
656.87	37228.56
657.01	37385.38
657.16	37626.45
657.30	36795.56
657.45	36823.65
657.59	37106.85
657.73	37418.14
657.88	37191.11
658.02	37448.57
658.16	37858.17
658.31	37429.85
658.45	37406.44
658.60	36961.74
658.74	37263.67
658.88	37205.16
659.03	37310.48
659.17	36610.66
659.31	36821.31
659.46	36535.76
659.60	37188.77
659.74	36664.49
659.89	36336.82
660.03	36430.44
660.17	36875.14
660.32	36680.88
660.46	36744.07
660.60	36711.30
660.74	36086.38
660.89	36477.25
661.03	36172.98
661.17	36011.48
661.32	36414.05
661.46	36325.11
661.60	35538.69
661.74	36053.61
661.89	35915.52
662.03	36364.90
662.17	35903.82
662.31	35831.26
662.46	36105.10
662.60	36081.70
662.74	36025.53
662.88	35847.64
663.03	35749.34
663.17	35901.48
663.31	35503.59
663.45	35536.35
663.60	35735.30
663.74	35676.79
663.88	35559.76
664.02	35377.20
664.17	35625.29
664.31	35140.80
664.45	34998.03
664.59	34998.03
664.73	35164.21
664.88	35278.89
665.02	34754.61
665.16	35115.06
665.30	34995.69
665.44	35276.55
665.59	34452.69
665.73	35063.57
665.87	34693.76
666.01	34873.98
666.15	34733.55
666.29	34983.99
666.44	34869.30
666.58	34478.43
666.72	34398.85
666.86	34192.89
667.00	34171.82
667.14	34181.18
667.28	34183.52
667.43	34260.76
667.57	34572.05
667.71	33926.07
667.85	34436.30
667.99	34312.25
668.13	33802.02
668.27	34188.21
668.41	34525.24
668.56	33883.94
668.70	34068.84
668.84	33436.89
668.98	33558.60
669.12	33266.03
669.26	33530.51
669.40	33397.10
669.54	33296.46
669.68	33495.41
669.82	33001.55
669.96	33022.62
670.10	32903.25
670.25	33612.43
670.39	33010.92
670.53	32896.23
670.67	32907.93
670.81	32835.38
670.95	32744.09
671.09	33095.18
671.23	32758.14
671.37	32465.57
671.51	32648.13
671.65	32875.16
671.79	32636.43
671.93	32568.55
672.07	32613.02
672.21	32268.97
672.35	32369.61
672.49	32086.40
672.63	32472.59
672.77	32107.47
672.91	31917.89
673.05	31861.71
673.19	31641.70
673.33	31424.03
673.47	31482.55
673.61	31880.44
673.75	31182.96
673.89	30951.24
674.03	31108.06
674.17	31651.06
674.31	31391.26
674.45	31330.41
674.59	31503.61
674.73	31344.45
674.87	31440.42
675.01	31309.35
675.15	30909.11
675.29	30773.36
675.43	30806.13
675.56	30904.43
675.70	30932.52
675.84	30527.61
675.98	29603.10
676.12	30520.59
676.26	30246.74
676.40	29993.97
676.54	30546.33
676.68	30087.59
676.82	29862.90
676.96	29778.64
677.10	30183.55
677.23	29741.19
677.37	29881.62
677.51	29558.63
677.65	29228.61
677.79	29319.89
677.93	29422.87
678.07	28723.05
678.21	28952.43
678.34	28570.92
678.48	28500.70
678.62	28505.38
678.76	28673.90
678.90	28500.70
679.04	28102.81
679.18	28535.81
679.31	28016.21
679.45	28081.75
679.59	28112.17
679.73	27854.72
679.87	28053.66
680.00	28163.67
680.14	28245.58
680.28	28044.30
680.42	27566.83
680.56	27438.10
680.70	27468.53
680.83	27484.91
680.97	27505.98
681.11	27047.23
681.25	27468.53
681.39	27087.02
681.52	27185.32
681.66	26852.97
681.80	26560.40
681.94	26492.52
682.07	26803.82
682.21	26520.61
682.35	26338.05
682.49	26340.39
682.62	26361.45
682.76	25942.50
682.90	25914.41
683.04	26223.36
683.17	25778.66
683.31	25605.46
683.45	26024.42
683.59	25603.12
683.72	25619.50
683.86	25617.16
684.00	25659.29
684.13	25490.77
684.27	25326.94
684.41	25046.07
684.55	25331.62
684.68	25266.08
684.82	24875.21
684.96	24816.70
685.09	25139.69
685.23	24617.75
685.37	24643.50
685.50	24893.94
685.64	24727.76
685.78	24575.62
685.91	24016.24
686.05	24006.87
686.19	23744.73
686.32	23850.06
686.46	23709.63
686.60	23543.45
686.73	23597.28
686.87	23309.40
687.01	23571.54
687.14	22970.02
687.28	23033.21
687.42	22925.55
687.55	22925.55
687.69	23255.56
687.82	23133.86
687.96	22642.34
688.10	22590.85
688.23	22778.09
688.37	22464.46
688.50	22630.64
688.64	22551.06
688.78	22567.45
688.91	22302.96
689.05	22216.36
689.18	21970.61
689.32	21640.59
689.46	22082.95
689.59	22068.91
689.73	22328.71
689.86	21862.94
690.00	21619.53
690.13	21991.67
690.27	21561.02
690.41	21451.01
690.54	21249.72
690.68	21125.68
690.81	21308.24
690.95	21123.33
691.08	20922.05
691.22	20875.24
691.35	20999.29
691.49	21029.71
691.62	20781.62
691.76	20847.15
691.89	20559.27
692.03	20498.41
692.16	20620.12
692.30	20255.00
692.43	20088.82
692.57	19953.07
692.70	20016.26
692.84	19711.99
692.97	19840.72
693.11	19538.79
693.24	19623.05
693.38	19569.22
693.51	19957.75
693.65	19786.89
693.78	19424.11
693.92	19513.05
694.05	19225.16
694.19	19309.42
694.32	19192.39
694.45	19454.53
694.59	19190.05
694.72	19171.33
694.86	18768.76
694.99	18630.66
695.13	18733.65
695.26	18719.60
695.39	18434.06
695.53	18780.46
695.66	18532.36
695.80	18412.99
695.93	18436.40
696.07	18307.67
696.20	18340.44
696.33	18097.02
696.47	18031.49
696.60	17947.23
696.73	17893.40
696.87	17781.05
697.00	17738.92
697.14	17607.85
697.27	17413.59
697.40	17177.19
697.54	17160.81
697.67	17025.06
697.80	17212.30
697.94	17263.79
698.07	16982.93
698.21	17020.38
698.34	16950.16
698.47	17109.32
698.61	16645.89
698.74	17015.69
698.87	16559.29
699.01	16561.63
699.14	16365.03
699.27	16126.29
699.40	16046.71
699.54	16336.94
699.67	16161.40
699.80	16063.10
699.94	15969.48
700.07	15999.90
700.20	16027.99
700.34	15978.84
700.47	16091.18
700.60	15782.23
700.73	16161.40
700.87	15756.49
701.00	15749.46
701.13	15632.44
701.26	15342.21
701.40	15396.04
701.53	15288.38
701.66	15190.08
701.79	15382.00
701.93	15002.83
702.06	14743.03
702.19	14778.14
702.32	14710.27
702.46	14862.40
702.59	14876.44
702.72	14719.63
702.85	14714.95
702.99	14705.59
703.12	14471.53
703.25	14401.32
703.38	14326.42
703.51	14455.15
703.65	14354.51
703.78	14054.92
703.91	14005.77
704.04	13809.16
704.17	13912.14
704.31	13958.96
704.44	13919.17
704.57	13921.51
704.70	13769.37
704.83	13549.36
704.96	13437.02
705.10	13661.71
705.23	13540.00
>>>>>End Processed Spectral Data<<<<<
