SpectraSuite Data File
++++++++++++++++++++++++++++++++++++
Date: Fri Oct 25 11:34:31 EDT 2013
User: price-jones
Dark Spectrum Present: No
Reference Spectrum Present: No
Number of Sampled Component Spectra: 1
Spectrometers: USB2+H05261
Integration Time (usec): 100000 (USB2+H05261)
Spectra Averaged: 1 (USB2+H05261)
Boxcar Smoothing: 0 (USB2+H05261)
Correct for Electrical Dark: No (USB2+H05261)
Strobe/Lamp Enabled: No (USB2+H05261)
Correct for Detector Non-linearity: No (USB2+H05261)
Correct for Stray Light: No (USB2+H05261)
Number of Pixels in Processed Spectrum: 2048
>>>>>Begin Processed Spectral Data<<<<<
365.73	245.76
365.92	245.76
366.12	245.76
366.32	215.33
366.52	142.77
366.72	184.90
366.91	147.45
367.11	173.20
367.31	198.95
367.51	229.37
367.70	107.66
367.90	159.16
368.10	175.54
368.30	283.20
368.49	138.09
368.69	236.39
368.89	149.79
369.09	166.18
369.28	248.10
369.48	222.35
369.68	269.16
369.87	205.97
370.07	205.97
370.27	285.55
370.47	330.02
370.66	489.17
370.86	528.96
371.06	557.05
371.25	580.45
371.45	519.60
371.65	573.43
371.84	512.58
372.04	552.37
372.24	631.94
372.44	538.32
372.63	578.11
372.83	561.73
373.03	559.39
373.22	547.69
373.42	524.28
373.62	624.92
373.81	641.31
374.01	629.60
374.21	681.10
374.40	667.05
374.60	627.26
374.79	599.18
374.99	741.95
375.19	683.44
375.38	655.35
375.58	624.92
375.78	653.01
375.97	655.35
376.17	716.20
376.37	564.07
376.56	641.31
376.76	648.33
376.95	629.60
377.15	720.88
377.35	704.50
377.54	683.44
377.74	697.48
377.93	667.05
378.13	653.01
378.33	674.07
378.52	660.03
378.72	699.82
378.91	737.27
379.11	681.10
379.31	704.50
379.50	676.41
379.70	720.88
379.89	763.01
380.09	669.39
380.28	690.46
380.48	716.20
380.68	812.17
380.87	634.29
381.07	791.10
381.26	718.54
381.46	798.12
381.65	704.50
381.85	767.70
382.04	763.01
382.24	779.40
382.43	786.42
382.63	784.08
382.83	784.08
383.02	777.06
383.22	847.27
383.41	732.59
383.61	819.19
383.80	784.08
384.00	723.23
384.19	784.08
384.39	805.14
384.58	786.42
384.78	809.83
384.97	784.08
385.17	833.23
385.36	784.08
385.56	772.38
385.75	767.70
385.95	791.10
386.14	800.46
386.34	866.00
386.53	816.85
386.72	777.06
386.92	912.81
387.11	826.21
387.31	856.64
387.50	863.66
387.70	903.45
387.89	950.26
388.09	858.98
388.28	858.98
388.48	826.21
388.67	891.74
388.86	976.00
389.06	922.17
389.25	889.40
389.45	926.85
389.64	877.70
389.84	884.72
390.03	947.92
390.22	959.62
390.42	947.92
390.61	971.32
390.81	983.02
391.00	933.87
391.19	1053.24
391.39	1008.77
391.58	1039.20
391.78	924.51
391.97	896.43
392.16	983.02
392.36	1043.88
392.55	1036.86
392.75	976.00
392.94	1029.84
393.13	1083.67
393.33	1074.31
393.52	1053.24
393.71	1046.22
393.91	1053.24
394.10	1050.90
394.29	976.00
394.49	1046.22
394.68	1109.41
394.88	1102.39
395.07	1153.88
395.26	1177.29
395.46	1076.65
395.65	1158.57
395.84	1130.48
396.04	1151.54
396.23	1158.57
396.42	1228.78
396.62	1254.53
396.81	1142.18
397.00	1149.20
397.19	1221.76
397.39	1191.33
397.58	1212.40
397.77	1249.85
397.97	1172.61
398.16	1228.78
398.35	1198.35
398.55	1261.55
398.74	1228.78
398.93	1256.87
399.12	1256.87
399.32	1188.99
399.51	1256.87
399.70	1277.93
399.90	1310.70
400.09	1301.34
400.28	1364.53
400.47	1247.51
400.67	1275.59
400.86	1359.85
401.05	1416.02
401.24	1359.85
401.44	1371.55
401.63	1378.58
401.82	1469.86
402.01	1352.83
402.21	1453.47
402.40	1448.79
402.59	1439.43
402.78	1387.94
402.97	1483.90
403.17	1446.45
403.36	1467.52
403.55	1544.75
403.74	1570.50
403.93	1458.15
404.13	1474.54
404.32	1528.37
404.51	1596.25
404.70	1504.96
404.89	1568.16
405.09	1593.90
405.28	1561.14
405.47	1561.14
405.66	1521.35
405.85	1614.97
406.05	1629.01
406.24	1703.91
406.43	1696.89
406.62	1788.17
406.81	1682.85
407.00	1743.70
407.20	1708.59
407.39	1753.06
407.58	1839.66
407.77	1771.79
407.96	1732.00
408.15	1753.06
408.34	1834.98
408.54	1785.83
408.73	1701.57
408.92	1823.28
409.11	1926.26
409.30	1898.17
409.49	1954.35
409.68	1884.13
409.87	2097.12
410.07	1909.88
410.26	2029.24
410.45	1975.41
410.64	2022.22
410.83	2111.16
411.02	2062.01
411.21	2167.34
411.40	2153.29
411.59	2132.23
411.78	2181.38
411.98	2134.57
412.17	2134.57
412.36	2169.68
412.55	2183.72
412.74	2225.85
412.93	2277.34
413.12	2289.04
413.31	2272.66
413.50	2286.70
413.69	2394.37
413.88	2363.94
414.07	2427.14
414.26	2441.18
414.45	2347.56
414.64	2356.92
414.83	2485.65
415.02	2548.84
415.22	2497.35
415.41	2548.84
415.60	2551.18
415.79	2593.31
415.98	2691.62
416.17	2621.40
416.36	2663.53
416.55	2586.29
416.74	2597.99
416.93	2605.02
417.12	2719.70
417.31	2710.34
417.50	2708.00
417.69	2773.53
417.88	2752.47
418.07	2747.79
418.26	2848.43
418.45	2855.45
418.64	2965.46
418.83	3049.72
419.02	2935.03
419.21	2970.14
419.39	3094.19
419.58	2883.54
419.77	2902.26
419.96	2951.42
420.15	2981.84
420.34	3108.23
420.53	3117.59
420.72	3108.23
420.91	3145.68
421.10	3126.96
421.29	3052.06
421.48	3094.19
421.67	3176.11
421.86	3206.53
422.05	3073.12
422.24	3133.98
422.43	3091.85
422.61	3232.28
422.80	3208.87
422.99	3314.20
423.18	3243.98
423.37	3417.18
423.56	3222.92
423.75	3253.34
423.94	3211.22
424.13	3059.08
424.32	3180.79
424.50	3281.43
424.69	3342.28
424.88	3265.05
425.07	3208.87
425.26	3351.65
425.45	3251.00
425.64	3255.69
425.83	3150.36
426.01	3311.86
426.20	3307.18
426.39	3300.16
426.58	3363.35
426.77	3363.35
426.96	3428.88
427.15	3398.46
427.33	3421.86
427.52	3456.97
427.71	3459.31
427.90	3569.32
428.09	3522.51
428.28	3552.93
428.46	3669.96
428.65	3398.46
428.84	3726.13
429.03	3559.95
429.22	3534.21
429.40	3576.34
429.59	3700.39
429.78	3513.14
429.97	3461.65
430.16	3627.83
430.34	3566.98
430.53	3796.35
430.72	3815.07
430.91	3698.05
431.10	3637.19
431.28	3737.84
431.47	3852.52
431.66	3758.90
431.85	3831.46
432.03	3758.90
432.22	3871.25
432.41	3880.61
432.60	3749.54
432.79	3946.14
432.97	3878.27
433.16	3948.48
433.35	3833.80
433.54	3981.25
433.72	4049.13
433.91	4028.06
434.10	4079.55
434.28	3976.57
434.47	4030.40
434.66	4039.76
434.85	4086.58
435.03	4112.32
435.22	4035.08
435.41	4238.71
435.59	4234.03
435.78	4215.30
435.97	4208.28
436.16	4182.54
436.34	4203.60
436.53	4224.67
436.72	4397.87
436.90	4121.68
437.09	4444.68
437.28	4210.62
437.46	4173.18
437.65	4255.09
437.84	4428.29
438.02	4465.74
438.21	4362.76
438.40	4360.42
438.58	4468.08
438.77	4589.79
438.96	4603.83
439.14	4657.67
439.33	4627.24
439.52	4718.52
439.70	4844.91
439.89	4861.29
440.08	4734.90
440.26	4863.63
440.45	4774.69
440.63	4678.73
440.82	5111.73
441.01	4809.80
441.19	4992.36
441.38	4940.87
441.57	5013.43
441.75	5107.05
441.94	5207.69
442.12	5067.26
442.31	5256.84
442.50	5252.16
442.68	5069.60
442.87	5270.89
443.05	5331.74
443.24	5242.80
443.43	5369.19
443.61	5282.59
443.80	5518.98
443.98	5322.38
444.17	5025.13
444.35	5132.79
444.54	5322.38
444.73	5357.49
444.91	5322.38
445.10	5472.17
445.28	5502.60
445.47	5488.56
445.65	5390.25
445.84	5406.64
446.02	5556.43
446.21	5533.03
446.39	5380.89
446.58	5444.09
446.77	5593.88
446.95	5284.93
447.14	5479.19
447.32	5556.43
447.51	5617.29
447.69	5547.07
447.88	5425.36
448.06	5420.68
448.25	5401.96
448.43	5516.64
448.62	5535.37
448.80	5497.92
448.99	5647.71
449.17	5729.63
449.36	5518.98
449.54	5650.05
449.73	5760.06
449.91	5811.55
450.10	5678.14
450.28	5923.90
450.46	5954.32
450.65	5837.30
450.83	5937.94
451.02	5837.30
451.20	5980.07
451.39	5886.45
451.57	5937.94
451.76	5891.13
451.94	5830.27
452.13	6003.47
452.31	6120.50
452.49	5907.51
452.68	6008.16
452.86	6085.39
453.05	6162.63
453.23	5968.37
453.42	6033.90
453.60	6010.50
453.78	6160.29
453.97	6008.16
454.15	6244.55
454.34	6029.22
454.52	6134.54
454.70	6246.89
454.89	6317.11
455.07	6256.25
455.26	6335.83
455.44	6389.66
455.62	6326.47
455.81	6373.28
455.99	6502.01
456.17	6544.14
456.36	6389.66
456.54	6569.88
456.73	6670.53
456.91	6799.26
457.09	6665.85
457.28	6820.32
457.46	6813.30
457.64	6731.38
457.83	6906.92
458.01	6792.23
458.19	6817.98
458.38	6649.46
458.56	6853.09
458.74	6712.66
458.93	6902.24
459.11	6829.68
459.29	6778.19
459.48	6874.15
459.66	6707.98
459.84	6895.22
460.03	7000.54
460.21	7000.54
460.39	6946.71
460.57	7030.97
460.76	7201.83
460.94	7159.70
461.12	7201.83
461.31	6998.20
461.49	7274.38
461.67	7101.19
461.85	7353.96
462.04	7126.93
462.22	7573.97
462.40	7281.41
462.59	7459.29
462.77	7391.41
462.95	7538.87
463.13	7316.51
463.32	7440.56
463.50	7492.05
463.68	7548.23
463.86	7489.71
464.05	7421.84
464.23	7588.02
464.41	7531.84
464.59	7375.03
464.78	7770.58
464.96	7698.02
465.14	7555.25
465.32	7770.58
465.50	7700.36
465.69	7761.22
465.87	7707.38
466.05	7688.66
466.23	7726.11
466.41	7854.84
466.60	8074.85
466.78	7798.66
466.96	7941.44
467.14	7843.14
467.32	7946.12
467.51	8013.99
467.69	7569.29
467.87	7941.44
468.05	7983.57
468.23	7901.65
468.41	8086.55
468.60	8046.76
468.78	8105.28
468.96	7962.50
469.14	8269.11
469.32	8234.00
469.50	8084.21
469.69	8304.22
469.87	8449.33
470.05	8283.16
470.23	8219.96
470.41	8170.81
470.59	8493.80
470.77	8395.50
470.95	8521.89
471.14	8500.83
471.32	8521.89
471.50	8688.07
471.68	8685.73
471.86	8547.64
472.04	8634.24
472.22	8725.52
472.40	9029.79
472.58	8791.05
472.77	8901.06
472.95	8833.18
473.13	9153.84
473.31	9046.17
473.49	8713.81
473.67	8896.38
473.85	9195.96
474.03	9195.96
474.21	9511.94
474.39	9385.55
474.57	9444.06
474.75	9273.20
474.93	9528.32
475.12	9518.96
475.30	9439.38
475.48	9774.08
475.66	9647.69
475.84	9703.86
476.02	9839.61
476.20	9806.84
476.38	9877.06
476.56	10101.75
476.74	9919.19
476.92	10038.56
477.10	9940.26
477.28	10244.52
477.46	10139.20
477.64	10539.43
477.82	10384.96
478.00	10705.61
478.18	10600.29
478.36	10614.33
478.54	10726.68
478.72	11028.60
478.90	10946.69
479.08	11007.54
479.26	11138.61
479.44	11073.07
479.62	11068.39
479.80	11257.98
479.98	11372.66
480.16	11665.23
480.34	11339.90
480.52	11712.04
480.70	11599.70
480.88	11559.91
481.06	11777.58
481.24	11836.09
481.41	11857.15
481.59	12138.02
481.77	12292.49
481.95	11999.93
482.13	12510.16
482.31	12475.06
482.49	12575.70
482.67	12809.75
482.85	12753.58
483.03	12980.61
483.21	13011.04
483.39	13184.24
483.57	13116.36
483.74	13043.81
483.92	13268.50
484.10	13364.46
484.28	13687.45
484.46	13640.64
484.64	13977.68
484.82	13582.13
485.00	13792.78
485.18	14169.60
485.35	14497.28
485.53	14190.67
485.71	14251.52
485.89	14754.74
486.07	14630.69
486.25	14712.61
486.43	14689.20
486.61	15117.52
486.78	14930.28
486.96	15009.86
487.14	15342.21
487.32	15609.03
487.50	15531.80
487.68	15414.77
487.85	15850.11
488.03	15962.45
488.21	16100.55
488.39	16180.12
488.57	16376.73
488.75	16362.69
488.92	16512.48
489.10	16844.84
489.28	16973.56
489.46	17310.60
489.64	16683.34
489.81	17334.01
489.99	17408.90
490.17	17130.38
490.35	17612.53
490.53	17497.84
490.70	17575.08
490.88	17603.17
491.06	18164.90
491.24	17968.29
491.41	18127.45
491.59	18136.81
491.77	18160.22
491.95	18551.09
492.13	18810.89
492.30	18553.43
492.48	18707.90
492.66	18771.10
492.84	18920.89
493.01	19068.34
493.19	19096.43
493.37	19204.10
493.54	19428.79
493.72	19426.45
493.90	19772.85
494.08	19777.53
494.25	19878.17
494.43	20013.92
494.61	20269.04
494.79	20072.43
494.96	20034.99
495.14	20343.94
495.32	20676.29
495.49	20657.57
495.67	20683.31
495.85	20849.49
496.02	21048.44
496.20	21336.32
496.38	21455.69
496.55	21191.21
496.73	21799.75
496.91	21273.13
497.09	21680.38
497.26	21762.30
497.44	21671.02
497.62	22108.70
497.79	22202.32
497.97	22071.25
498.14	22675.11
498.32	22586.17
498.50	22335.73
498.67	22810.86
498.85	22527.66
499.03	22670.43
499.20	23047.26
499.38	22778.09
499.56	23077.68
499.73	23222.80
499.91	23398.34
500.08	23417.06
500.26	23346.84
500.44	23545.79
500.61	23644.09
500.79	23447.49
500.97	23660.48
501.14	23824.31
501.32	24271.36
501.49	23601.96
501.67	24011.56
501.84	24498.39
502.02	24254.97
502.20	24264.33
502.37	24151.99
502.55	24346.25
502.72	24645.84
502.90	24648.18
503.07	24594.35
503.25	24697.33
503.43	24865.85
503.60	25113.95
503.78	25319.92
503.95	24985.22
504.13	25589.08
504.30	25142.03
504.48	25748.23
504.65	25245.02
504.83	25750.57
505.01	25935.48
505.18	25778.66
505.36	26129.74
505.53	25773.98
505.71	25935.48
505.88	26223.36
506.06	25905.05
506.23	26342.73
506.41	26415.29
506.58	26148.46
506.76	26555.72
506.93	26246.77
507.11	26663.38
507.28	26796.79
507.46	26848.29
507.63	26759.34
507.81	27133.83
507.98	26794.45
508.16	26658.70
508.33	27288.31
508.50	27384.27
508.68	27412.35
508.85	27271.92
509.03	27585.55
509.20	27653.43
509.38	27744.71
509.55	27700.24
509.73	28023.23
509.90	27821.95
510.08	28189.41
510.25	28091.11
510.42	28142.60
510.60	28245.58
510.77	28322.82
510.95	28680.92
511.12	28343.89
511.30	28456.23
511.47	28418.78
511.64	28512.41
511.82	29106.90
511.99	28807.31
512.17	28975.83
512.34	28496.02
512.51	28844.76
512.69	29261.38
512.86	29357.34
513.04	29614.80
513.21	29151.37
513.38	29362.02
513.56	29453.30
513.73	29111.58
513.90	29879.28
514.08	29734.17
514.25	29855.87
514.43	30012.69
514.60	30068.86
514.77	29825.45
514.95	30115.67
515.12	29886.30
515.29	29898.00
515.47	30590.80
515.64	30270.15
515.81	30260.79
515.99	30583.78
516.16	31246.15
516.33	30410.58
516.51	30969.97
516.68	31105.72
516.85	31161.89
517.03	31166.57
517.20	31194.66
517.37	31276.58
517.54	31264.88
517.72	31402.97
517.89	31103.38
518.06	31473.18
518.24	31318.71
518.41	31215.72
518.58	31452.12
518.75	31484.89
518.93	31831.29
519.10	31751.71
519.27	31948.31
519.45	31711.92
519.62	32079.38
519.79	32275.99
519.96	31983.42
520.14	31896.82
520.31	31894.48
520.48	32247.90
520.65	32215.13
520.83	32467.91
521.00	32378.97
521.17	32245.56
521.34	33057.73
521.52	32844.74
521.69	32652.81
521.86	33298.80
522.03	32952.40
522.20	33069.43
522.38	33710.74
522.55	33352.63
522.72	33507.11
522.89	33432.21
523.07	33596.05
523.24	33364.34
523.41	34010.32
523.58	33722.44
523.75	33645.20
523.92	33364.34
524.10	33809.04
524.27	33844.15
524.44	33883.94
524.61	34000.96
524.78	33523.49
524.96	33787.97
525.13	34024.37
525.30	33888.62
525.47	34328.64
525.64	34031.39
525.81	34099.26
525.98	34529.92
526.16	34391.83
526.33	34085.22
526.50	34726.53
526.67	34405.88
526.84	34632.91
527.01	34838.87
527.18	34820.15
527.36	34785.04
527.53	35056.54
527.70	35236.77
527.87	35187.61
528.04	34660.99
528.21	35646.36
528.38	34878.66
528.55	35419.33
528.72	35552.74
528.89	35187.61
529.07	35164.21
529.24	35519.97
529.41	35732.96
529.58	35405.28
529.75	35770.41
529.92	35824.24
530.09	35814.88
530.26	35690.83
530.43	35639.34
530.60	35669.76
530.77	35824.24
530.94	35683.81
531.11	35714.23
531.28	35962.33
531.46	35637.00
531.63	36453.84
531.80	35985.74
531.97	35971.69
532.14	36549.81
532.31	36203.41
532.48	36517.04
532.65	36811.95
532.82	36634.06
532.99	36650.45
533.16	36601.30
533.33	37085.79
533.50	36594.28
533.67	37153.66
533.84	36624.70
534.01	36870.46
534.18	36825.99
534.35	37031.96
534.52	36748.75
534.69	37095.15
534.86	37170.05
535.03	36935.99
535.20	37244.94
535.37	37514.11
535.54	37944.76
535.71	37450.91
535.88	37673.26
536.05	37560.92
536.22	37738.80
536.38	37525.81
536.55	37584.32
536.72	37801.99
536.89	37741.14
537.06	37516.45
537.23	38040.73
537.40	37900.29
537.57	37951.79
537.74	38061.79
537.91	38075.84
538.08	37886.25
538.25	37844.12
538.42	38206.90
538.59	38288.82
538.75	38225.63
538.92	38618.84
539.09	38911.41
539.26	38078.18
539.43	38443.30
539.60	38387.13
539.77	38775.66
539.94	39117.37
540.11	38913.75
540.28	38600.12
540.44	38691.40
540.61	38752.25
540.78	38763.95
540.95	39117.37
541.12	38588.41
541.29	38677.35
541.46	39283.55
541.62	39234.40
541.79	39278.87
541.96	38780.34
542.13	38707.78
542.30	39271.85
542.47	38838.85
542.63	39512.92
542.80	39299.94
542.97	39796.13
543.14	40126.14
543.31	39578.46
543.48	39580.80
543.64	40011.46
543.81	39651.02
543.98	39847.62
544.15	40076.99
544.32	40088.70
544.48	40491.27
544.65	39723.57
544.82	40023.16
544.99	40219.77
545.16	40318.07
545.32	40343.81
545.49	40542.76
545.66	40912.56
545.83	40205.72
546.00	40273.60
546.16	40329.77
546.33	40547.44
546.50	40643.40
546.67	40664.47
546.83	40226.79
547.00	40554.46
547.17	40582.55
547.34	40542.76
547.50	41160.66
547.67	40975.76
547.84	40638.72
548.00	41027.25
548.17	41308.11
548.34	41064.70
548.51	41043.63
548.67	41352.58
548.84	41106.83
549.01	40823.62
549.18	40942.99
549.34	41045.97
549.51	41275.35
549.68	41317.48
549.84	41453.23
550.01	41654.51
550.18	41230.88
550.34	41394.71
550.51	41584.30
550.68	41577.28
550.84	41134.92
551.01	42094.53
551.18	41537.49
551.34	41930.70
551.51	42007.94
551.68	41324.50
551.84	41811.33
552.01	41677.92
552.18	41916.65
552.34	41834.74
552.51	41813.67
552.68	41797.29
552.84	41993.89
553.01	42260.71
553.18	42087.51
553.34	42239.65
553.51	41848.78
553.67	42071.13
553.84	42298.16
554.01	42454.98
554.17	42370.72
554.34	42597.75
554.51	42344.97
554.67	42658.60
554.84	42796.70
555.00	41923.68
555.17	42141.35
555.33	42586.05
555.50	42450.30
555.67	42543.92
555.83	42728.82
556.00	42614.13
556.16	43269.48
556.33	42623.50
556.50	42569.66
556.66	42607.11
556.83	42696.05
556.99	43012.02
557.16	42548.60
557.32	43241.40
557.49	43138.41
557.65	42906.70
557.82	42906.70
557.98	42689.03
558.15	42955.85
558.32	43302.25
558.48	43070.54
558.65	43328.00
558.81	42976.92
558.98	42918.40
559.14	43091.60
559.31	42937.13
559.47	42941.81
559.64	43016.71
559.80	43370.13
559.97	43061.18
560.13	42698.39
560.30	43407.58
560.46	43250.76
560.63	43313.95
560.79	43686.10
560.96	44116.76
561.12	43463.75
561.29	43742.27
561.45	43639.29
561.61	43538.65
561.78	43065.86
561.94	43395.87
562.11	43463.75
562.27	43288.21
562.44	43267.14
562.60	43578.43
562.77	44016.11
562.93	43714.19
563.10	43714.19
563.26	43737.59
563.42	44048.88
563.59	43536.30
563.75	43889.73
563.92	44065.27
564.08	43482.47
564.24	43838.23
564.41	43524.60
564.57	43812.49
564.74	43597.16
564.90	44142.50
565.07	43845.26
565.23	44053.56
565.39	44201.02
565.56	43896.75
565.72	43636.95
565.88	44128.46
566.05	44435.07
566.21	43894.41
566.38	43557.37
566.54	44123.78
566.70	44142.50
566.87	44224.42
567.03	44046.54
567.19	44383.58
567.36	44449.11
567.52	44076.97
567.68	45008.50
567.85	44299.32
568.01	44229.10
568.17	44109.74
568.34	44369.54
568.50	44217.40
568.66	43892.07
568.83	44226.76
568.99	44135.48
569.15	44308.68
569.32	44294.64
569.48	44116.76
569.64	44704.23
569.81	44783.81
569.97	44594.23
570.13	44439.75
570.30	44430.39
570.46	44570.82
570.62	44683.17
570.78	44116.76
570.95	44526.35
571.11	45069.36
571.27	44685.51
571.43	44257.19
571.60	44296.98
571.76	44357.83
571.92	44332.09
572.09	43978.67
572.25	44383.58
572.41	44423.37
572.57	44348.47
572.74	44765.09
572.90	44706.57
573.06	44641.04
573.22	44598.91
573.38	44737.00
573.55	44884.45
573.71	45151.27
573.87	44949.99
574.03	44825.94
574.20	44758.06
574.36	45067.02
574.52	44957.01
574.68	45181.70
574.84	44886.79
575.01	45106.80
575.17	45275.32
575.33	44893.82
575.49	45027.23
575.65	45294.05
575.82	44877.43
575.98	44516.99
576.14	45230.85
576.30	45462.57
576.46	44416.35
576.62	44734.66
576.79	45172.34
576.95	44486.56
577.11	44549.76
577.27	44968.71
577.43	45062.33
577.59	45102.12
577.75	45172.34
577.92	44652.74
578.08	45350.22
578.24	44755.72
578.40	45347.88
578.56	45015.52
578.72	45017.86
578.88	45312.77
579.04	44809.56
579.21	44362.51
579.37	45027.23
579.53	44847.00
579.69	44839.98
579.85	45038.93
580.01	45099.78
580.17	45127.87
580.33	45289.37
580.49	45099.78
580.65	45469.59
580.82	45368.94
580.98	45078.72
581.14	44774.45
581.30	45228.51
581.46	44884.45
581.62	45148.93
581.78	44776.79
581.94	45038.93
582.10	44898.50
582.26	45074.04
582.42	45336.18
582.58	45076.38
582.74	45052.97
582.90	45177.02
583.06	44788.49
583.22	44907.86
583.38	44921.90
583.54	45413.41
583.70	45074.04
583.86	45277.66
584.02	45043.61
584.18	45464.91
584.34	45268.30
584.50	45752.79
584.66	45422.78
584.82	45696.62
584.98	45687.26
585.14	45425.12
585.30	45132.55
585.46	45324.47
585.62	45350.22
585.78	45436.82
585.94	45130.21
586.10	45336.18
586.26	45249.58
586.42	45134.89
586.58	45490.65
586.74	45312.77
586.90	45289.37
587.06	45366.60
587.22	45221.49
587.38	45151.27
587.54	45326.81
587.70	45462.57
587.86	45565.55
588.02	45357.24
588.18	44769.77
588.34	44931.26
588.49	45223.83
588.65	44875.09
588.81	45364.26
588.97	45453.20
589.13	44849.35
589.29	45708.32
589.45	45195.74
589.61	45247.24
589.77	45855.78
589.93	45191.06
590.08	45668.53
590.24	45837.05
590.40	45595.98
590.56	45832.37
590.72	45930.67
590.88	45460.23
591.04	45485.97
591.20	45937.69
591.35	45893.22
591.51	46040.68
591.67	45757.47
591.83	46157.70
591.99	45860.46
592.15	45984.51
592.31	45446.18
592.46	45603.00
592.62	46033.66
592.78	46089.83
592.94	45977.48
593.10	46204.52
593.26	46457.29
593.41	45855.78
593.57	45874.50
593.73	46021.95
593.89	46183.45
594.05	46082.81
594.20	45918.97
594.36	45830.03
594.52	45961.10
594.68	45677.90
594.84	45677.90
594.99	45942.38
595.15	45989.19
595.31	46080.47
595.47	46174.09
595.62	45750.45
595.78	45900.25
595.94	45853.44
596.10	46064.08
596.25	46237.28
596.41	45823.01
596.57	45626.40
596.73	45872.16
596.88	45977.48
597.04	45813.65
597.20	46157.70
597.36	45984.51
597.51	45825.35
597.67	45656.83
597.83	45818.33
597.99	46391.76
598.14	45928.33
598.30	45605.34
598.46	46122.60
598.61	46026.63
598.77	45993.87
598.93	46115.58
599.09	46047.70
599.24	46415.16
599.40	46155.36
599.56	46036.00
599.71	46361.33
599.87	46342.61
600.03	46358.99
600.18	46450.27
600.34	46136.64
600.50	46422.19
600.65	46162.39
600.81	46773.27
600.97	46740.50
601.12	46387.08
601.28	46298.14
601.44	46059.40
601.59	46057.06
601.75	46192.81
601.91	46611.77
602.06	46361.33
602.22	46300.48
602.37	46298.14
602.53	45942.38
602.69	46384.74
602.84	46286.43
603.00	46351.97
603.16	45858.12
603.31	46080.47
603.47	46330.90
603.62	46120.26
603.78	46080.47
603.94	46309.84
604.09	46211.54
604.25	45729.39
604.40	46382.40
604.56	46050.04
604.71	46213.88
604.87	45815.99
605.03	45947.06
605.18	46375.37
605.34	46253.67
605.49	46059.40
605.65	46092.17
605.80	45654.49
605.96	45986.85
606.12	45874.50
606.27	46068.76
606.43	45610.02
606.58	46298.14
606.74	46075.79
606.89	45867.48
607.05	46291.12
607.20	46155.36
607.36	45687.26
607.51	46183.45
607.67	46204.52
607.82	45947.06
607.98	45839.39
608.13	45535.12
608.29	46019.61
608.44	46113.23
608.60	45705.98
608.75	46216.22
608.91	45588.95
609.06	45876.84
609.22	45703.64
609.37	45773.86
609.53	45743.43
609.68	45844.07
609.84	45432.14
609.99	45336.18
610.15	45996.21
610.30	45965.78
610.46	45460.23
610.61	45481.29
610.76	45968.12
610.92	45710.66
611.07	45457.88
611.23	45338.52
611.38	45247.24
611.54	45715.34
611.69	45890.88
611.84	45762.15
612.00	46019.61
612.15	45535.12
612.31	45801.94
612.46	45263.62
612.62	45492.99
612.77	45130.21
612.92	45874.50
613.08	45301.07
613.23	45511.72
613.39	45837.05
613.54	45368.94
613.69	45680.24
613.85	45603.00
614.00	45392.35
614.15	45481.29
614.31	45350.22
614.46	45422.78
614.62	44947.65
614.77	45361.92
614.92	45422.78
615.08	45390.01
615.23	45642.79
615.38	45595.98
615.54	45294.05
615.69	44945.31
615.84	44804.88
616.00	45633.42
616.15	44872.75
616.30	45333.84
616.46	45333.84
616.61	45202.77
616.76	45539.80
616.92	45097.44
617.07	45106.80
617.22	45160.64
617.37	44999.14
617.53	45153.62
617.68	45221.49
617.83	44966.37
617.99	45691.94
618.14	45153.62
618.29	44985.10
618.45	45036.59
618.60	44760.40
618.75	44919.56
618.90	44629.34
619.06	44711.25
619.21	45118.51
619.36	45172.34
619.51	45001.48
619.67	44748.70
619.82	44816.58
619.97	45244.90
620.12	44790.83
620.28	44809.56
620.43	44793.17
620.58	44910.20
620.73	45118.51
620.89	45031.91
621.04	44715.93
621.19	44561.46
621.34	44481.88
621.49	44729.98
621.65	44793.17
621.80	44559.12
621.95	44701.89
622.10	44903.18
622.25	44594.23
622.41	44376.56
622.56	44318.04
622.71	44596.57
622.86	44760.40
623.01	44629.34
623.16	44676.15
623.32	44268.89
623.47	44229.10
623.62	44643.38
623.77	44746.36
623.92	44472.52
624.07	44280.60
624.23	44725.30
624.38	44147.18
624.53	44074.63
624.68	44076.97
624.83	44072.29
624.98	43976.33
625.13	43784.40
625.29	44151.87
625.44	44034.84
625.59	44004.41
625.74	43983.35
625.89	43849.94
626.04	43753.97
626.19	43615.88
626.34	43927.17
626.49	43763.34
626.65	43924.83
626.80	43604.18
626.95	43580.78
627.10	43543.33
627.25	43896.75
627.40	43646.31
627.55	43681.42
627.70	43597.16
627.85	43667.37
628.00	43318.64
628.15	44137.82
628.30	43206.29
628.45	43400.55
628.60	43007.34
628.76	43447.36
628.91	43365.45
629.06	43133.73
629.21	42913.72
629.36	42813.08
629.51	43201.61
629.66	43463.75
629.81	43253.10
629.96	43660.35
630.11	43388.85
630.26	43012.02
630.41	43093.94
630.56	43332.68
630.71	43056.50
630.86	42862.23
631.01	43016.71
631.16	43138.41
631.31	43370.13
631.46	42972.24
631.61	43655.67
631.76	43232.04
631.91	43210.97
632.06	43306.93
632.21	43278.85
632.36	43164.16
632.51	42410.51
632.66	43058.84
632.81	42471.36
632.96	42513.49
633.10	42724.14
633.25	42529.87
633.40	42993.30
633.55	43122.03
633.70	42597.75
633.85	42387.10
634.00	42609.45
634.15	42490.09
634.30	42632.86
634.45	42185.82
634.60	42513.49
634.75	42658.60
634.90	42497.11
635.05	42649.24
635.19	42440.93
635.34	42576.69
635.49	42462.00
635.64	42941.81
635.79	42483.06
635.94	42417.53
636.09	42579.03
636.24	42223.26
636.39	42391.78
636.53	42291.14
636.68	42101.56
636.83	41516.42
636.98	42377.74
637.13	41911.97
637.28	42384.76
637.43	41750.48
637.57	42134.32
637.72	42457.32
637.87	41888.57
638.02	42309.86
638.17	41766.86
638.32	42078.15
638.46	41605.36
638.61	41808.99
638.76	41794.95
638.91	41635.79
639.06	41486.00
639.20	41380.67
639.35	41565.57
639.50	41448.55
639.65	41345.56
639.80	42080.49
639.94	41792.61
640.09	41806.65
640.24	42040.70
640.39	41603.02
640.54	40966.40
640.68	41588.98
640.83	41921.34
640.98	41666.22
641.13	40954.69
641.27	41670.90
641.42	41404.08
641.57	41581.96
641.72	41450.89
641.86	41352.58
642.01	40985.12
642.16	41132.57
642.31	40722.98
642.45	41315.14
642.60	40655.11
642.75	41212.15
642.90	41251.94
643.04	41282.37
643.19	40680.85
643.34	41060.02
643.48	40708.94
643.63	40872.78
643.78	41118.53
643.93	41411.10
644.07	41139.60
644.22	41214.49
644.37	40898.52
644.51	41036.61
644.66	41551.53
644.81	41064.70
644.95	41331.52
645.10	40687.87
645.25	40699.58
645.39	40671.49
645.54	40320.41
645.69	40481.91
645.83	40521.69
645.98	40603.61
646.13	40360.20
646.27	40622.34
646.42	40116.78
646.57	40933.63
646.71	40767.45
646.86	40830.65
647.00	40767.45
647.15	40753.41
647.30	40919.59
647.44	40627.02
647.59	40645.74
647.74	40458.50
647.88	40535.74
648.03	40266.58
648.17	40615.32
648.32	40191.68
648.47	40582.55
648.61	40025.50
648.76	40236.15
648.90	39995.07
649.05	40414.03
649.20	40327.43
649.34	40275.94
649.49	40189.34
649.63	40093.38
649.78	40479.57
649.92	40350.84
650.07	40594.25
650.21	40346.15
650.36	40402.33
650.51	40287.64
650.65	40229.13
650.80	40245.51
650.94	39739.96
651.09	40051.25
651.23	39824.22
651.38	39866.34
651.52	39494.20
651.67	39922.52
651.81	40151.89
651.96	39927.20
652.10	39613.57
652.25	39192.27
652.39	39548.03
652.54	39803.15
652.68	39484.84
652.83	39934.22
652.97	39409.94
653.12	39742.30
653.26	39033.11
653.41	39299.94
653.55	39524.63
653.70	39613.57
653.84	39643.99
653.99	39297.59
654.13	39730.59
654.27	39435.69
654.42	39281.21
654.56	39337.38
654.71	39894.43
654.85	39496.54
655.00	39187.59
655.14	39463.77
655.29	39501.22
655.43	39608.89
655.57	39335.04
655.72	39131.42
655.86	38939.49
656.01	39292.91
656.15	38731.18
656.30	38878.64
656.44	39054.18
656.58	39452.07
656.73	39243.76
656.87	38483.09
657.01	38590.75
657.16	39168.87
657.30	39005.03
657.45	39009.71
657.59	38918.43
657.73	38672.67
657.88	39086.95
658.02	39086.95
658.16	38745.23
658.31	38646.93
658.45	38670.33
658.60	38450.32
658.74	38955.88
658.88	38850.55
659.03	38274.78
659.17	38237.33
659.31	38089.88
659.46	38080.52
659.60	38649.27
659.74	38298.19
659.89	38127.33
660.03	37820.72
660.17	37970.51
660.32	37607.73
660.46	38003.28
660.60	37380.70
660.74	37865.19
660.89	37862.85
661.03	38005.62
661.17	37549.21
661.32	37584.32
661.46	37794.97
661.60	37874.55
661.74	37743.48
661.89	37589.00
662.03	37928.38
662.17	37521.13
662.31	37347.93
662.46	37399.42
662.60	37607.73
662.74	36959.40
662.88	36950.04
663.03	36835.35
663.17	37024.93
663.31	36376.61
663.45	36753.43
663.60	37254.31
663.74	37050.68
663.88	37113.87
664.02	36613.00
664.17	37022.59
664.31	36556.83
664.45	36556.83
664.59	36692.58
664.73	36510.02
664.88	36498.31
665.02	35955.31
665.16	36512.36
665.30	36364.90
665.44	36100.42
665.59	35716.58
665.73	35845.30
665.87	35587.85
666.01	35936.59
666.15	35908.50
666.29	36400.01
666.44	36044.25
666.58	35409.96
666.72	35728.28
666.86	35889.77
667.00	35763.39
667.14	35428.69
667.28	35583.16
667.43	35730.62
667.57	35758.70
667.71	35424.01
667.85	35496.56
667.99	35402.94
668.13	35604.23
668.27	35157.19
668.41	35424.01
668.56	34824.83
668.70	34546.31
668.84	34824.83
668.98	34450.35
669.12	34813.13
669.26	35232.08
669.40	34993.35
669.54	34850.58
669.68	34740.57
669.82	34555.67
669.96	34211.61
670.10	33827.76
670.25	34553.33
670.39	34218.63
670.53	34422.26
670.67	34251.40
670.81	34679.72
670.95	34359.06
671.09	34298.21
671.23	33780.95
671.37	33954.15
671.51	33809.04
671.65	34022.03
671.79	33322.21
671.93	33996.28
672.07	33624.14
672.21	33446.26
672.35	33226.24
672.49	33324.55
672.63	33823.08
672.77	33069.43
672.91	33476.68
673.05	33067.09
673.19	33387.74
673.33	32849.42
673.47	32772.18
673.61	32587.28
673.75	32652.81
673.89	32320.46
674.03	32364.93
674.17	32456.21
674.31	32655.15
674.45	32135.56
674.59	32577.92
674.73	32105.13
674.87	31524.68
675.01	31648.72
675.15	31938.95
675.29	31695.53
675.43	31634.68
675.56	31634.68
675.70	31803.20
675.84	31498.93
675.98	30689.10
676.12	31594.89
676.26	31641.70
676.40	31325.73
676.54	31002.74
676.68	30852.94
676.82	30305.26
676.96	31147.85
677.10	30623.57
677.23	30497.18
677.37	30677.40
677.51	30756.98
677.65	30354.41
677.79	30518.25
677.93	30228.02
678.07	30363.77
678.21	29699.06
678.34	30204.61
678.48	29633.52
678.62	29757.57
678.76	29336.27
678.90	29528.20
679.04	29270.74
679.18	29710.76
679.31	29120.95
679.45	29242.65
679.59	29256.70
679.73	29149.03
679.87	28608.37
680.00	29081.16
680.14	28669.22
680.28	28947.75
680.42	28730.08
680.56	28140.26
680.70	28222.18
680.83	28072.39
680.97	28006.85
681.11	28411.76
681.25	28053.66
681.39	27597.26
681.52	27756.41
681.66	27585.55
681.80	27222.77
681.94	27438.10
682.07	26927.86
682.21	26878.71
682.35	27157.24
682.49	27276.60
682.62	26981.70
682.76	27325.75
682.90	26923.18
683.04	26796.79
683.17	26855.31
683.31	26831.90
683.45	26572.10
683.59	26574.44
683.72	26132.08
683.86	26328.69
684.00	26059.52
684.13	25993.99
684.27	25963.56
684.41	25944.84
684.55	25682.70
684.68	25455.67
684.82	25357.36
684.96	25455.67
685.09	25481.41
685.23	25507.16
685.37	25685.04
685.50	25521.20
685.64	25179.48
685.78	25179.48
685.91	24961.81
686.05	24758.19
686.19	24299.44
686.32	24795.64
686.46	24402.43
686.60	24002.19
686.73	24364.98
686.87	24308.80
687.01	24140.29
687.14	24086.45
687.28	24039.64
687.42	24313.48
687.55	23669.84
687.69	23704.95
687.82	23510.68
687.96	23601.96
688.10	23859.42
688.23	23440.47
688.37	23468.55
688.50	23328.12
688.64	23297.69
688.78	23150.24
688.91	22782.77
689.05	22815.54
689.18	23030.87
689.32	22211.68
689.46	22614.26
689.59	22412.97
689.73	22700.86
689.86	22359.14
690.00	22368.50
690.13	22443.40
690.27	22244.45
690.41	22632.98
690.54	21860.60
690.68	21949.54
690.81	21853.58
690.95	21408.88
691.08	21291.85
691.22	21256.75
691.35	21195.89
691.49	21788.05
691.62	21092.91
691.76	20996.95
691.89	21116.31
692.03	20819.07
692.16	20919.71
692.30	20875.24
692.43	20692.68
692.57	20482.03
692.70	20376.70
692.84	20430.54
692.97	19969.45
693.11	20332.23
693.24	19990.52
693.38	19946.05
693.51	19915.62
693.65	19704.97
693.78	19499.00
693.92	19442.83
694.05	19667.52
694.19	19665.18
694.32	19543.47
694.45	19946.05
694.59	19609.01
694.72	19391.34
694.86	19143.24
694.99	19227.50
695.13	18764.07
695.26	18714.92
695.39	18565.13
695.53	18515.98
695.66	18836.63
695.80	18843.65
695.93	18520.66
696.07	18249.16
696.20	18232.77
696.33	17907.44
696.47	17980.00
696.60	17928.50
696.73	17956.59
696.87	17980.00
697.00	18082.98
697.14	17694.45
697.27	17720.20
697.40	17502.53
697.54	17865.31
697.67	17448.69
697.80	17355.07
697.94	17102.29
698.07	17238.05
698.21	17064.85
698.34	17497.84
698.47	16903.35
698.61	16542.91
698.74	16725.47
698.87	16779.30
699.01	16498.44
699.14	16568.65
699.27	16575.67
699.40	16444.60
699.54	16135.65
699.67	16248.00
699.80	16093.52
699.94	16018.63
700.07	16100.55
700.20	16128.63
700.34	16016.29
700.47	15557.54
700.60	15805.64
700.73	15819.68
700.87	15690.95
701.00	15412.43
701.13	15070.71
701.26	15279.02
701.40	15056.67
701.53	15225.18
701.66	15087.09
701.79	14911.55
701.93	14853.04
702.06	14801.55
702.19	14679.84
702.32	14754.74
702.46	14827.29
702.59	14726.65
702.72	14740.69
702.85	14604.94
702.99	14434.08
703.12	14303.01
703.25	14265.57
703.38	14305.35
703.51	14080.66
703.65	14038.53
703.78	13710.86
703.91	13937.89
704.04	13762.35
704.17	13647.66
704.31	13771.71
704.44	13729.58
704.57	13694.47
704.70	13118.70
704.83	13259.13
704.96	13312.97
705.10	13050.83
705.23	13448.72
>>>>>End Processed Spectral Data<<<<<
