SpectraSuite Data File
++++++++++++++++++++++++++++++++++++
Date: Fri Oct 25 10:48:15 EDT 2013
User: price-jones
Dark Spectrum Present: No
Reference Spectrum Present: No
Number of Sampled Component Spectra: 1
Spectrometers: USB2+H05261
Integration Time (usec): 100000 (USB2+H05261)
Spectra Averaged: 1 (USB2+H05261)
Boxcar Smoothing: 0 (USB2+H05261)
Correct for Electrical Dark: No (USB2+H05261)
Strobe/Lamp Enabled: No (USB2+H05261)
Correct for Detector Non-linearity: No (USB2+H05261)
Correct for Stray Light: No (USB2+H05261)
Number of Pixels in Processed Spectrum: 2048
>>>>>Begin Processed Spectral Data<<<<<
365.73	95.96
365.92	95.96
366.12	95.96
366.32	88.94
366.52	0.00
366.72	18.72
366.91	23.41
367.11	79.58
367.31	32.77
367.51	56.17
367.70	0.00
367.90	35.11
368.10	16.38
368.30	56.17
368.49	30.43
368.69	0.00
368.89	77.24
369.09	23.41
369.28	81.92
369.48	58.51
369.68	42.13
369.87	124.05
370.07	119.37
370.27	121.71
370.47	184.90
370.66	428.32
370.86	414.27
371.06	535.98
371.25	458.74
371.45	451.72
371.65	465.77
371.84	440.02
372.04	447.04
372.24	503.22
372.44	496.19
372.63	472.79
372.83	526.62
373.03	463.43
373.22	493.85
373.42	500.87
373.62	512.58
373.81	557.05
374.01	531.30
374.21	606.20
374.40	535.98
374.60	594.50
374.79	533.64
374.99	547.69
375.19	587.47
375.38	655.35
375.58	664.71
375.78	685.78
375.97	585.13
376.17	681.10
376.37	653.01
376.56	638.97
376.76	538.32
376.95	613.22
377.15	697.48
377.35	627.26
377.54	615.56
377.74	624.92
377.93	627.26
378.13	669.39
378.33	702.16
378.52	624.92
378.72	624.92
378.91	648.33
379.11	655.35
379.31	580.45
379.50	603.86
379.70	713.86
379.89	697.48
380.09	599.18
380.28	662.37
380.48	615.56
380.68	662.37
380.87	695.14
381.07	669.39
381.26	716.20
381.46	631.94
381.65	730.25
381.85	751.31
382.04	688.12
382.24	685.78
382.43	695.14
382.63	732.59
382.83	662.37
383.02	711.52
383.22	772.38
383.41	767.70
383.61	763.01
383.80	763.01
384.00	727.91
384.19	746.63
384.39	720.88
384.58	805.14
384.78	725.57
384.97	734.93
385.17	748.97
385.36	802.80
385.56	690.46
385.75	737.27
385.95	842.59
386.14	863.66
386.34	870.68
386.53	718.54
386.72	753.65
386.92	854.30
387.11	877.70
387.31	837.91
387.50	812.17
387.70	786.42
387.89	870.68
388.09	929.19
388.28	779.40
388.48	856.64
388.67	945.58
388.86	863.66
389.06	903.45
389.25	940.90
389.45	959.62
389.64	903.45
389.84	968.98
390.03	1004.09
390.22	938.55
390.42	931.53
390.61	950.26
390.81	868.34
391.00	1020.47
391.19	1004.09
391.39	1022.81
391.58	1043.88
391.78	947.92
391.97	950.26
392.16	926.85
392.36	1076.65
392.55	1076.65
392.75	1041.54
392.94	957.28
393.13	959.62
393.33	936.21
393.52	1034.52
393.71	1074.31
393.91	994.73
394.10	1043.88
394.29	1062.60
394.49	1013.45
394.68	1104.73
394.88	1090.69
395.07	1198.35
395.26	1177.29
395.46	1191.33
395.65	1228.78
395.84	1151.54
396.04	1226.44
396.23	1135.16
396.42	1228.78
396.62	1139.84
396.81	1160.91
397.00	1151.54
397.19	1177.29
397.39	1313.04
397.58	1291.98
397.77	1270.91
397.97	1373.89
398.16	1317.72
398.35	1390.28
398.55	1341.13
398.74	1437.09
398.93	1378.58
399.12	1378.58
399.32	1315.38
399.51	1495.60
399.70	1462.83
399.90	1416.02
400.09	1416.02
400.28	1427.73
400.47	1547.09
400.67	1469.86
400.86	1458.15
401.05	1507.30
401.24	1582.20
401.44	1551.78
401.63	1612.63
401.82	1643.06
402.01	1554.12
402.21	1640.72
402.40	1549.43
402.59	1610.29
402.78	1650.08
402.97	1636.03
403.17	1703.91
403.36	1657.10
403.55	1760.08
403.74	1713.27
403.93	1767.10
404.13	1687.53
404.32	1708.59
404.51	1741.36
404.70	1797.53
404.89	1736.68
405.09	1900.52
405.28	1792.85
405.47	1783.49
405.66	1842.00
405.85	1797.53
406.05	1849.02
406.24	1851.36
406.43	1891.15
406.62	1937.96
406.81	1902.86
407.00	1895.83
407.20	1959.03
407.39	1977.75
407.58	2012.86
407.77	1912.22
407.96	2066.69
408.15	2040.95
408.34	2057.33
408.54	2155.63
408.73	2069.03
408.92	2127.55
409.11	2167.34
409.30	2165.00
409.49	2066.69
409.68	2097.12
409.87	2045.63
410.07	2214.15
410.26	2256.28
410.45	2303.09
410.64	2312.45
410.83	2331.17
411.02	2223.51
411.21	2310.11
411.40	2434.16
411.59	2354.58
411.78	2389.69
411.98	2305.43
412.17	2401.39
412.36	2399.05
412.55	2434.16
412.74	2607.36
412.93	2534.80
413.12	2579.27
413.31	2562.89
413.50	2710.34
413.69	2602.68
413.88	2649.49
414.07	2682.25
414.26	2630.76
414.45	2684.59
414.64	2686.94
414.83	2738.43
415.02	2867.16
415.22	2834.39
415.41	2869.50
415.60	2932.69
415.79	2899.92
415.98	2923.33
416.17	2906.95
416.36	2998.23
416.55	3049.72
416.74	3026.31
416.93	2998.23
417.12	3117.59
417.31	3059.08
417.50	3061.42
417.69	3227.60
417.88	3087.17
418.07	3169.09
418.26	3155.04
418.45	3218.24
418.64	3361.01
418.83	3447.61
419.02	3241.64
419.21	3342.28
419.39	3358.67
419.58	3344.63
419.77	3342.28
419.96	3351.65
420.15	3480.38
420.34	3442.93
420.53	3557.61
420.72	3562.30
420.91	3606.77
421.10	3529.53
421.29	3665.28
421.48	3524.85
421.67	3566.98
421.86	3461.65
422.05	3733.15
422.24	3513.14
422.43	3543.57
422.61	3648.90
422.80	3559.95
422.99	3611.45
423.18	3707.41
423.37	3660.60
423.56	3487.40
423.75	3705.07
423.94	3592.72
424.13	3552.93
424.32	3571.66
424.50	3721.45
424.69	3873.59
424.88	3791.67
425.07	3676.98
425.26	3684.00
425.45	3721.45
425.64	3588.04
425.83	3698.05
426.01	3770.60
426.20	3740.18
426.39	3705.07
426.58	3929.76
426.77	3693.37
426.96	3679.32
427.15	3880.61
427.33	3777.62
427.52	3873.59
427.71	3775.28
427.90	3808.05
428.09	3847.84
428.28	3960.19
428.46	3868.91
428.65	3868.91
428.84	3873.59
429.03	4063.17
429.22	3826.78
429.40	3847.84
429.59	3983.59
429.78	3854.86
429.97	3707.41
430.16	3742.52
430.34	3899.33
430.53	4042.11
430.72	3999.98
430.91	3901.67
431.10	4063.17
431.28	4248.07
431.47	4304.25
431.66	4297.22
431.85	4175.52
432.03	4212.96
432.22	4353.40
432.41	4477.44
432.60	4390.84
432.79	4428.29
432.97	4414.25
433.16	4334.67
433.35	4341.69
433.54	4355.74
433.72	4353.40
433.91	4470.42
434.10	4449.36
434.28	4421.27
434.47	4519.57
434.66	4566.39
434.85	4606.17
435.03	4587.45
435.22	4542.98
435.41	4847.25
435.59	4676.39
435.78	4683.41
435.97	4730.22
436.16	4641.28
436.34	4774.69
436.53	4784.06
436.72	4765.33
436.90	4821.50
437.09	4924.49
437.28	4774.69
437.46	4643.62
437.65	4917.47
437.84	4856.61
438.02	4877.68
438.21	4915.12
438.40	4772.35
438.58	5048.54
438.77	5055.56
438.96	5132.79
439.14	5313.02
439.33	5259.18
439.52	5266.21
439.70	5357.49
439.89	5364.51
440.08	5327.06
440.26	5327.06
440.45	5315.36
440.63	5359.83
440.82	5495.58
441.01	5612.60
441.19	5476.85
441.38	5476.85
441.57	5846.66
441.75	5645.37
441.94	5659.42
442.12	5872.40
442.31	6113.48
442.50	5888.79
442.68	5987.09
442.87	5844.32
443.05	6108.80
443.24	6071.35
443.43	6010.50
443.61	6050.28
443.80	5975.39
443.98	5975.39
444.17	5785.80
444.35	5951.98
444.54	6061.99
444.73	6024.54
444.91	6059.65
445.10	6043.26
445.28	6097.10
445.47	5916.87
445.65	6073.69
445.84	6202.42
446.02	6097.10
446.21	6057.31
446.39	6015.18
446.58	6122.84
446.77	6113.48
446.95	6099.44
447.14	6073.69
447.32	6279.66
447.51	6104.12
447.69	6218.80
447.88	6193.06
448.06	6284.34
448.25	6190.72
448.43	6291.36
448.62	6218.80
448.80	6171.99
448.99	6293.70
449.17	6338.17
449.36	6480.94
449.54	6342.85
449.73	6518.39
449.91	6576.91
450.10	6813.30
450.28	6595.63
450.46	6661.16
450.65	6651.80
450.83	6607.33
451.02	6630.74
451.20	6640.10
451.39	6789.89
451.57	6588.61
451.76	6761.81
451.94	6916.28
452.13	6651.80
452.31	6778.19
452.49	6513.71
452.68	6906.92
452.86	6930.33
453.05	6773.51
453.23	6988.84
453.42	6707.98
453.60	6663.51
453.78	6920.96
453.97	6810.96
454.15	6899.90
454.34	6843.73
454.52	7059.06
454.70	7014.59
454.89	6951.39
455.07	7042.67
455.26	7206.51
455.44	7246.30
455.62	7183.10
455.81	7084.80
455.99	7234.60
456.17	7234.60
456.36	7342.26
456.54	7536.52
456.73	7248.64
456.91	7515.46
457.09	7683.98
457.28	7730.79
457.46	7508.44
457.64	7468.65
457.83	7583.34
458.01	7648.87
458.19	7763.56
458.38	7445.24
458.56	7796.32
458.74	7569.29
458.93	7726.11
459.11	7882.92
459.29	7726.11
459.48	7833.77
459.66	7864.20
459.84	7770.58
460.03	8065.49
460.21	8065.49
460.39	7822.07
460.57	7864.20
460.76	8046.76
460.94	8074.85
461.12	7957.82
461.31	7983.57
461.49	8126.34
461.67	7887.61
461.85	8156.77
462.04	8173.15
462.22	8697.43
462.40	8262.09
462.59	8149.75
462.77	8521.89
462.95	8482.10
463.13	8341.67
463.32	8383.80
463.50	8484.44
463.68	8416.57
463.86	8442.31
464.05	8248.05
464.23	8390.82
464.41	8482.10
464.59	8397.84
464.78	8479.76
464.96	8535.93
465.14	8241.03
465.32	8685.73
465.50	8697.43
465.69	8746.58
465.87	8634.24
466.05	8608.49
466.23	8594.45
466.41	8662.32
466.60	8777.01
466.78	8468.06
466.96	8676.37
467.14	8669.34
467.32	8819.14
467.51	8868.29
467.69	8709.13
467.87	8835.52
468.05	8929.14
468.23	8929.14
468.41	8713.81
468.60	8882.33
468.78	8896.38
468.96	8943.19
469.14	8973.61
469.32	9074.26
469.50	8879.99
469.69	9132.77
469.87	9254.48
470.05	9280.22
470.23	9207.67
470.41	9350.44
470.59	9263.84
470.77	9390.23
470.95	9195.96
471.14	9554.07
471.32	9394.91
471.50	9556.41
471.68	9778.76
471.86	9523.64
472.04	9575.13
472.22	9865.36
472.40	9479.17
472.58	9827.91
472.77	9823.23
472.95	9729.61
473.13	10080.69
473.31	9921.53
473.49	9888.76
473.67	9940.26
473.85	10122.82
474.03	10331.12
474.21	10106.43
474.39	10321.76
474.57	10354.53
474.75	10164.95
474.93	10459.85
475.12	10478.58
475.30	10548.79
475.48	10593.26
475.66	10614.33
475.84	10616.67
476.02	10801.57
476.20	10810.93
476.38	11033.29
476.56	11178.40
476.74	11005.20
476.92	10913.92
477.10	11255.64
477.28	11447.56
477.46	11466.28
477.64	11262.66
477.82	11445.22
478.00	11765.87
478.18	11763.53
478.36	11653.53
478.54	11871.20
478.72	11955.46
478.90	12077.16
479.08	12383.77
479.26	12414.20
479.44	12458.67
479.62	12383.77
479.80	12355.69
479.98	12545.27
480.16	12849.54
480.34	12498.46
480.52	12994.65
480.70	13095.30
480.88	12592.08
481.06	12973.59
481.24	12889.33
481.41	13298.92
481.59	13692.13
481.77	13614.90
481.95	13706.18
482.13	13638.30
482.31	13640.64
482.49	13802.14
482.67	14181.31
482.85	14139.18
483.03	14478.55
483.21	14417.70
483.39	14733.67
483.57	14457.49
483.74	14750.06
483.92	14663.46
484.10	14611.96
484.28	14878.79
484.46	15002.83
484.64	15524.77
484.82	14916.23
485.00	15250.93
485.18	15335.19
485.35	15440.51
485.53	15456.90
485.71	15515.41
485.89	15758.83
486.07	15833.72
486.25	15882.88
486.43	15796.28
486.61	16088.84
486.78	16266.72
486.96	16458.65
487.14	16772.28
487.32	16702.06
487.50	16940.80
487.68	17249.75
487.85	17380.82
488.03	17500.19
488.21	17486.14
488.39	17692.11
488.57	17708.49
488.75	17874.67
488.92	17977.65
489.10	17884.03
489.28	18401.29
489.46	18462.15
489.64	18523.00
489.81	19096.43
489.99	18735.99
490.17	18881.10
490.35	19325.80
490.53	19250.91
490.70	19566.88
490.88	19346.87
491.06	19655.82
491.24	19398.36
491.41	19379.64
491.59	19716.67
491.77	19964.77
491.95	20224.57
492.13	20074.77
492.30	20568.63
492.48	20479.69
492.66	20594.37
492.84	20842.47
493.01	20994.61
493.19	20835.45
493.37	21240.36
493.54	21113.97
493.72	21399.52
493.90	21282.49
494.08	21867.63
494.25	21898.05
494.43	21790.39
494.61	22092.32
494.79	22143.81
494.96	22277.22
495.14	22473.82
495.32	22445.74
495.49	22778.09
495.67	22647.02
495.85	23103.43
496.02	22993.42
496.20	23197.05
496.38	23349.18
496.55	23267.27
496.73	23978.79
496.91	23339.82
497.09	23845.38
497.26	23828.99
497.44	23850.06
497.62	23939.00
497.79	24212.84
497.97	24187.10
498.14	23955.38
498.32	24079.43
498.50	24425.83
498.67	24463.28
498.85	24856.49
499.03	24905.64
499.20	24774.57
499.38	24793.29
499.56	24772.23
499.73	24922.02
499.91	25465.03
500.08	25032.03
500.26	25163.10
500.44	25352.68
500.61	25458.01
500.79	25493.12
500.97	25607.80
501.14	25886.32
501.32	25514.18
501.49	25560.99
501.67	26103.99
501.84	26162.51
502.02	26012.71
502.20	26422.31
502.37	26300.60
502.55	26466.78
502.72	26981.70
502.90	26356.77
503.07	26480.82
503.25	26579.12
503.43	26920.84
503.60	26991.06
503.78	26911.48
503.95	26864.67
504.13	27372.57
504.30	27145.53
504.48	27150.21
504.65	27367.88
504.83	27545.76
505.01	27723.65
505.18	27323.41
505.36	28496.02
505.53	28070.04
505.71	28393.04
505.88	28353.25
506.06	27688.54
506.23	28320.48
506.41	28121.54
506.58	28418.78
506.76	28371.97
506.93	28025.57
507.11	28664.54
507.28	28816.68
507.46	29008.60
507.63	28706.67
507.81	29156.05
507.98	28840.08
508.16	28723.05
508.33	28975.83
508.50	29355.00
508.68	29057.75
508.85	30031.41
509.03	29127.97
509.20	29783.32
509.38	30125.04
509.55	29886.30
509.73	30113.33
509.90	30192.91
510.08	29589.05
510.25	30029.07
510.42	29982.26
510.60	30466.75
510.77	30174.19
510.95	30499.52
511.12	30462.07
511.30	30864.64
511.47	30803.79
511.64	30916.14
511.82	30677.40
511.99	30881.03
512.17	30497.18
512.34	31206.36
512.51	31094.02
512.69	31239.13
512.86	31274.24
513.04	31772.77
513.21	31304.67
513.38	31681.49
513.56	31386.58
513.73	31885.12
513.90	31702.56
514.08	31431.05
514.25	32301.73
514.43	32194.07
514.60	31948.31
514.77	31424.03
514.95	32191.73
515.12	32126.19
515.29	32306.41
515.47	32517.06
515.64	32929.00
515.81	32257.26
515.99	31943.63
516.16	32320.46
516.33	32685.58
516.51	32601.32
516.68	32385.99
516.85	32285.35
517.03	32472.59
517.20	32608.34
517.37	32519.40
517.54	33057.73
517.72	32643.45
517.89	32929.00
518.06	32919.63
518.24	32987.51
518.41	32720.69
518.58	33053.05
518.75	33268.37
518.93	33483.70
519.10	33331.57
519.27	33750.52
519.45	33778.61
519.62	33486.04
519.79	33811.38
519.96	33745.84
520.14	34377.79
520.31	34085.22
520.48	33989.26
520.65	34052.45
520.83	34733.55
521.00	34588.44
521.17	34401.19
521.34	34436.30
521.52	34862.28
521.69	34838.87
521.86	34817.81
522.03	35164.21
522.20	35021.44
522.38	34876.32
522.55	35037.82
522.72	34806.11
522.89	35150.17
523.07	35215.70
523.24	35171.23
523.41	35255.49
523.58	35414.65
523.75	35690.83
523.92	35707.21
524.10	36095.74
524.27	35791.47
524.44	35791.47
524.61	35747.00
524.78	35606.57
524.96	36102.76
525.13	36217.45
525.30	36165.96
525.47	36362.56
525.64	36149.57
525.81	36556.83
525.98	36701.94
526.16	36070.00
526.33	36074.68
526.50	36505.34
526.67	36079.36
526.84	36252.56
527.01	36294.69
527.18	36835.35
527.36	36914.93
527.53	36797.90
527.70	37394.74
527.87	37013.23
528.04	36783.86
528.21	36989.83
528.38	36673.85
528.55	37507.08
528.72	37474.32
528.89	37102.17
529.07	37621.77
529.24	36921.95
529.41	37394.74
529.58	37139.62
529.75	37326.86
529.92	37457.93
530.09	37682.62
530.26	37883.91
530.43	37687.31
530.60	38120.31
530.77	37729.44
530.94	38146.05
531.11	37998.60
531.28	38092.22
531.46	38595.43
531.63	38438.62
531.80	38026.68
531.97	38115.62
532.14	38373.08
532.31	38024.34
532.48	38572.03
532.65	38284.14
532.82	38660.97
532.99	38665.65
533.16	38321.59
533.33	38656.29
533.50	38384.79
533.67	38412.87
533.84	38370.74
534.01	38527.56
534.18	38747.57
534.35	39239.08
534.52	38693.74
534.69	39040.14
534.86	39323.34
535.03	39016.73
535.20	39470.79
535.37	39414.62
535.54	39358.45
535.71	39426.32
535.88	39409.94
536.05	38913.75
536.22	39304.62
536.38	39798.47
536.55	39370.15
536.72	39353.77
536.89	39075.24
537.06	39604.20
537.23	39812.51
537.40	39377.17
537.57	39402.92
537.74	39496.54
537.91	39824.22
538.08	39648.68
538.25	39171.21
538.42	39812.51
538.59	39887.41
538.75	39866.34
538.92	40435.10
539.09	39936.56
539.26	39978.69
539.43	39985.71
539.60	40458.50
539.77	40210.40
539.94	40055.93
540.11	40357.86
540.28	40334.45
540.44	40456.16
540.61	40250.19
540.78	40353.18
540.95	40531.06
541.12	40472.54
541.29	40058.27
541.46	40713.62
541.62	40800.22
541.79	40739.36
541.96	40399.99
542.13	40395.31
542.30	40500.63
542.47	40556.80
542.63	40947.67
542.80	40877.46
542.97	41195.77
543.14	41827.71
543.31	41476.63
543.48	41249.60
543.64	41750.48
543.81	41467.27
543.98	41586.64
544.15	41254.28
544.32	42068.79
544.48	42227.95
544.65	41436.84
544.82	41682.60
544.99	41523.44
545.16	41406.42
545.32	41530.47
545.49	42204.54
545.66	41724.73
545.83	42071.13
546.00	41687.28
546.16	41982.19
546.33	41691.96
546.50	42005.59
546.67	41539.83
546.83	41490.68
547.00	42110.92
547.17	42188.16
547.34	41696.64
547.50	42417.53
547.67	42197.52
547.84	42466.68
548.00	42651.58
548.17	42462.00
548.34	42698.39
548.51	42703.07
548.67	42918.40
548.84	42160.07
549.01	42918.40
549.18	42314.55
549.34	42845.85
549.51	42981.60
549.68	42803.72
549.84	42663.28
550.01	43086.92
550.18	42698.39
550.34	42705.41
550.51	42249.01
550.68	42925.42
550.84	42562.64
551.01	43100.97
551.18	42997.98
551.34	43246.08
551.51	43215.65
551.68	43091.60
551.84	43423.96
552.01	43456.73
552.18	43054.15
552.34	42747.54
552.51	43344.38
552.68	42974.58
552.84	43309.27
553.01	43136.07
553.18	43447.36
553.34	43288.21
553.51	43283.53
553.67	43826.53
553.84	43316.29
554.01	43540.99
554.17	43283.53
554.34	43803.13
554.51	43716.53
554.67	43859.30
554.84	43611.20
555.00	44013.77
555.17	43667.37
555.33	43620.56
555.50	43761.00
555.67	43585.46
555.83	43812.49
556.00	43817.17
556.16	44130.80
556.33	43854.62
556.50	43599.50
556.66	43957.60
556.83	43522.26
556.99	44282.94
557.16	43936.54
557.32	43999.73
557.49	43964.62
557.65	43510.56
557.82	43681.42
557.98	43763.34
558.15	43770.36
558.32	44030.16
558.48	43761.00
558.65	44156.55
558.81	43847.60
558.98	43835.89
559.14	44083.99
559.31	44121.44
559.47	44011.43
559.64	44610.61
559.80	44683.17
559.97	44116.76
560.13	44013.77
560.30	44381.24
560.46	44591.89
560.63	44292.30
560.79	44098.03
560.96	44708.91
561.12	44076.97
561.29	44526.35
561.45	44720.62
561.61	44336.77
561.78	44488.90
561.94	44545.08
562.11	44231.44
562.27	44641.04
562.44	44594.23
562.60	44304.00
562.77	44828.28
562.93	44612.95
563.10	44336.77
563.26	44502.95
563.42	44711.25
563.59	44605.93
563.75	44198.68
563.92	44591.89
564.08	44463.16
564.24	44842.32
564.41	44987.44
564.57	44554.44
564.74	44835.30
564.90	44704.23
565.07	44720.62
565.23	44460.82
565.39	44542.74
565.56	44933.60
565.72	44542.74
565.88	45170.00
566.05	44502.95
566.21	44711.25
566.38	44844.66
566.54	44935.95
566.70	45017.86
566.87	45102.12
567.03	45052.97
567.19	45294.05
567.36	44741.68
567.52	44545.08
567.68	44865.73
567.85	44973.39
568.01	44641.04
568.17	44671.46
568.34	44900.84
568.50	45118.51
568.66	44594.23
568.83	44870.41
568.99	44762.75
569.15	44596.57
569.32	44706.57
569.48	44823.60
569.64	44851.69
569.81	44968.71
569.97	44814.24
570.13	45141.91
570.30	44781.47
570.46	45001.48
570.62	44556.78
570.78	44847.00
570.95	44898.50
571.11	44954.67
571.27	45144.25
571.43	44823.60
571.60	44776.79
571.76	44837.64
571.92	45043.61
572.09	44905.52
572.25	44802.53
572.41	44968.71
572.57	45247.24
572.74	45584.27
572.90	45280.00
573.06	45776.20
573.22	45432.14
573.38	45226.17
573.55	45155.96
573.71	45605.34
573.87	45001.48
574.03	44907.86
574.20	44945.31
574.36	44992.12
574.52	45071.70
574.68	45216.81
574.84	45406.39
575.01	45081.06
575.17	45090.42
575.33	45109.14
575.49	44905.52
575.65	45392.35
575.82	45633.42
575.98	45151.27
576.14	45584.27
576.30	45155.96
576.46	44713.59
576.62	45174.68
576.79	44847.00
576.95	44334.43
577.11	45514.06
577.27	45109.14
577.43	45020.20
577.59	45186.38
577.75	45291.71
577.92	44882.11
578.08	45083.40
578.24	44734.66
578.40	45249.58
578.56	45226.17
578.72	45193.40
578.88	45294.05
579.04	45013.18
579.21	45284.68
579.37	45406.39
579.53	44872.75
579.69	45373.63
579.85	44821.26
580.01	45464.91
580.17	45759.81
580.33	45481.29
580.49	45223.83
580.65	45439.16
580.82	44910.20
580.98	45181.70
581.14	45043.61
581.30	45703.64
581.46	45563.21
581.62	45483.63
581.78	45291.71
581.94	45481.29
582.10	44989.78
582.26	45595.98
582.42	45446.18
582.58	45666.19
582.74	45516.40
582.90	45191.06
583.06	45867.48
583.22	45832.37
583.38	45839.39
583.54	45184.04
583.70	45441.50
583.86	45207.45
584.02	45392.35
584.18	45214.47
584.34	45659.17
584.50	45514.06
584.66	45268.30
584.82	45525.76
584.98	45485.97
585.14	45600.66
585.30	45296.39
585.46	45120.85
585.62	45209.79
585.78	45603.00
585.94	45013.18
586.10	45235.53
586.26	45469.59
586.42	45752.79
586.58	45855.78
586.74	45268.30
586.90	45275.32
587.06	45308.09
587.22	45635.77
587.38	45244.90
587.54	45993.87
587.70	45631.08
587.86	45474.27
588.02	45221.49
588.18	45574.91
588.34	45303.41
588.49	45184.04
588.65	44786.15
588.81	45347.88
588.97	44788.49
589.13	45254.26
589.29	45275.32
589.45	45539.80
589.61	45521.08
589.77	45649.81
589.93	45897.91
590.08	45525.76
590.24	45471.93
590.40	45551.51
590.56	45345.54
590.72	45390.01
590.88	45209.79
591.04	45354.90
591.20	45900.25
591.35	45921.31
591.51	46284.09
591.67	46000.89
591.83	45759.81
591.99	45298.73
592.15	45404.05
592.31	45675.55
592.46	45738.75
592.62	45425.12
592.78	45565.55
592.94	45572.57
593.10	45478.95
593.26	46021.95
593.41	45626.40
593.57	45535.12
593.73	45577.25
593.89	45649.81
594.05	45532.78
594.20	45563.21
594.36	46087.49
594.52	46036.00
594.68	45778.54
594.84	45649.81
594.99	46171.75
595.15	45783.22
595.31	45944.72
595.47	45490.65
595.62	45614.70
595.78	45663.85
595.94	45673.21
596.10	45776.20
596.25	46256.01
596.41	46073.45
596.57	45837.05
596.73	46050.04
596.88	45614.70
597.04	45773.86
597.20	45762.15
597.36	45830.03
597.51	45947.06
597.67	45923.65
597.83	45792.58
597.99	46021.95
598.14	45811.31
598.30	45731.73
598.46	45502.35
598.61	45663.85
598.77	45195.74
598.93	45832.37
599.09	45464.91
599.24	46237.28
599.40	45970.46
599.56	45595.98
599.71	45738.75
599.87	46373.03
600.03	45778.54
600.18	45890.88
600.34	45771.52
600.50	46033.66
600.65	45720.02
600.81	46085.15
600.97	45958.76
601.12	46131.96
601.28	45984.51
601.44	45521.08
601.59	45890.88
601.75	45490.65
601.91	45979.82
602.06	45640.45
602.22	46045.36
602.37	45661.51
602.53	45525.76
602.69	45876.84
602.84	45670.87
603.00	45450.86
603.16	45619.38
603.31	45727.05
603.47	45947.06
603.62	45490.65
603.78	46122.60
603.94	45663.85
604.09	45659.17
604.25	45567.89
604.40	45490.65
604.56	45862.80
604.71	45640.45
604.87	45270.64
605.03	45764.49
605.18	45549.17
605.34	45502.35
605.49	45553.85
605.65	45792.58
605.80	45666.19
605.96	45804.28
606.12	45743.43
606.27	45680.24
606.43	45343.20
606.58	45759.81
606.74	45481.29
606.89	45504.70
607.05	45469.59
607.20	45460.23
607.36	45560.87
607.51	45694.28
607.67	45687.26
607.82	45455.54
607.98	45792.58
608.13	45443.84
608.29	45467.25
608.44	45172.34
608.60	45420.44
608.75	45216.81
608.91	45394.69
609.06	45565.55
609.22	45717.68
609.37	45081.06
609.53	45350.22
609.68	45390.01
609.84	45118.51
609.99	44980.42
610.15	45411.07
610.30	45165.32
610.46	44734.66
610.61	45097.44
610.76	45380.65
610.92	45329.16
611.07	45272.98
611.23	44786.15
611.38	45673.21
611.54	44928.92
611.69	44744.02
611.84	45139.57
612.00	44839.98
612.15	45289.37
612.31	45500.01
612.46	45022.54
612.62	45422.78
612.77	45097.44
612.92	45188.72
613.08	45052.97
613.23	44790.83
613.39	45102.12
613.54	44507.63
613.69	44715.93
613.85	44772.11
614.00	44933.60
614.15	45064.67
614.31	44996.80
614.46	44999.14
614.62	44645.72
614.77	44678.49
614.92	44739.34
615.08	45097.44
615.23	44044.20
615.38	44587.21
615.54	44519.33
615.69	44481.88
615.84	44411.67
616.00	43999.73
616.15	44144.84
616.30	44477.20
616.46	44257.19
616.61	44814.24
616.76	44439.75
616.92	44189.31
617.07	44367.20
617.22	44140.16
617.37	43934.20
617.53	44561.46
617.68	44343.79
617.83	44259.53
617.99	44285.28
618.14	44353.15
618.29	44332.09
618.45	44238.47
618.60	44233.78
618.75	44194.00
618.90	44030.16
619.06	44458.48
619.21	43866.32
619.36	44367.20
619.51	43938.88
619.67	43756.32
619.82	43997.39
619.97	43854.62
620.12	43646.31
620.28	43459.07
620.43	43648.65
620.58	43945.90
620.73	43835.89
620.89	43466.09
621.04	43693.12
621.19	43620.56
621.34	43494.18
621.49	43627.59
621.65	43634.61
621.80	43988.03
621.95	43810.15
622.10	43398.21
622.25	43622.90
622.41	43625.25
622.56	43503.54
622.71	43585.46
622.86	43765.68
623.01	43601.84
623.16	43683.76
623.32	43313.95
623.47	43660.35
623.62	43683.76
623.77	43793.76
623.92	43562.05
624.07	42955.85
624.23	43000.32
624.38	42855.21
624.53	43168.84
624.68	43519.92
624.83	43407.58
624.98	43012.02
625.13	43026.07
625.29	43388.85
625.44	42988.62
625.59	43117.35
625.74	42670.31
625.89	42595.41
626.04	42073.47
626.19	43264.80
626.34	42815.42
626.49	42593.07
626.65	43049.47
626.80	42536.90
626.95	42738.18
627.10	42506.47
627.25	42351.99
627.40	42665.63
627.55	42160.07
627.70	41876.86
627.85	42141.35
628.00	42761.59
628.15	42497.11
628.30	42258.37
628.45	42410.51
628.60	42473.70
628.76	42848.19
628.91	42735.84
629.06	42349.65
629.21	42249.01
629.36	42438.59
629.51	42534.56
629.66	42469.02
629.81	42089.85
629.96	42153.05
630.11	42220.92
630.26	42010.28
630.41	42082.83
630.56	41790.27
630.71	42195.18
630.86	41968.15
631.01	42050.06
631.16	41918.99
631.31	41841.76
631.46	41600.68
631.61	41663.88
631.76	41823.03
631.91	41965.81
632.06	42038.36
632.21	41738.77
632.36	42040.70
632.51	41532.81
632.66	41879.21
632.81	41249.60
632.96	41383.01
633.10	41198.11
633.25	41586.64
633.40	41862.82
633.55	41940.06
633.70	40877.46
633.85	41481.31
634.00	41167.68
634.15	41448.55
634.30	41572.60
634.45	41619.41
634.60	41373.65
634.75	41413.44
634.90	41542.17
635.05	41890.91
635.19	41350.24
635.34	41490.68
635.49	41074.06
635.64	41118.53
635.79	41163.00
635.94	40877.46
636.09	41380.67
636.24	40786.18
636.39	41055.34
636.53	41045.97
636.68	41230.88
636.83	40940.65
636.98	41029.59
637.13	40690.21
637.28	40863.41
637.43	41254.28
637.57	41081.08
637.72	40779.15
637.87	41074.06
638.02	40952.35
638.17	40725.32
638.32	40488.93
638.46	40463.18
638.61	40306.37
638.76	41055.34
638.91	40804.90
639.06	40580.21
639.20	40648.08
639.35	40877.46
639.50	40760.43
639.65	41127.89
639.80	40781.49
639.94	40053.59
640.09	40507.65
640.24	40638.72
640.39	40055.93
640.54	40657.45
640.68	40086.36
640.83	40261.90
640.98	40027.84
641.13	39894.43
641.27	40486.59
641.42	40313.39
641.57	40261.90
641.72	39985.71
641.86	39842.94
642.01	39754.00
642.16	40004.44
642.31	39536.33
642.45	40065.29
642.60	39531.65
642.75	39903.79
642.90	39894.43
643.04	39674.42
643.19	39861.66
643.34	40011.46
643.48	39952.94
643.63	39924.86
643.78	39627.61
643.93	39597.18
644.07	39732.93
644.22	39611.23
644.37	39297.59
644.51	39672.08
644.66	39803.15
644.81	39526.97
644.95	39620.59
645.10	39370.15
645.25	39461.43
645.39	39285.89
645.54	39819.53
645.69	39129.08
645.83	39306.96
645.98	39632.29
646.13	40133.17
646.27	39770.38
646.42	38944.17
646.57	39498.88
646.71	39187.59
646.86	39473.13
647.00	39225.04
647.15	39222.70
647.30	39236.74
647.44	39496.54
647.59	39124.40
647.74	39194.61
647.88	38707.78
648.03	38639.90
648.17	38782.68
648.32	38487.77
648.47	39110.35
648.61	39054.18
648.76	39215.68
648.90	39328.02
649.05	38899.70
649.20	38799.06
649.34	39201.63
649.49	38796.72
649.63	38691.40
649.78	38543.94
649.92	38508.83
650.07	39126.74
650.21	38656.29
650.36	38888.00
650.51	38862.26
650.65	38962.90
650.80	39250.78
650.94	38562.67
651.09	38761.61
651.23	38794.38
651.38	38431.60
651.52	38312.23
651.67	38672.67
651.81	38270.10
651.96	38658.63
652.10	38122.65
652.25	38103.92
652.39	38120.31
652.54	38574.37
652.68	38436.28
652.83	38555.64
652.97	38513.52
653.12	38852.89
653.26	38277.12
653.41	38190.52
653.55	37656.88
653.70	38033.71
653.84	37989.24
653.99	38410.53
654.13	38129.67
654.27	37860.51
654.42	37764.54
654.56	38373.08
654.71	38274.78
654.85	38078.18
655.00	37958.81
655.14	38092.22
655.29	37563.26
655.43	37638.15
655.57	37713.05
655.72	37216.86
655.86	37574.96
656.01	37357.29
656.15	37144.30
656.30	37867.53
656.44	37593.68
656.58	37301.12
656.73	37322.18
656.87	37221.54
657.01	37163.03
657.16	37495.38
657.30	36856.42
657.45	36945.36
657.59	37067.06
657.73	36978.12
657.88	37275.37
658.02	37237.92
658.16	37340.91
658.31	37401.76
658.45	37340.91
658.60	36931.31
658.74	37233.24
658.88	37340.91
659.03	37055.36
659.17	37006.21
659.31	36584.91
659.46	36540.44
659.60	36362.56
659.74	36591.94
659.89	36158.94
660.03	36151.91
660.17	37029.62
660.32	37013.23
660.46	36938.33
660.60	36594.28
660.74	36842.37
660.89	36680.88
661.03	36053.61
661.17	35887.43
661.32	36245.54
661.46	36158.94
661.60	35894.46
661.74	35871.05
661.89	36154.26
662.03	36205.75
662.17	35770.41
662.31	36126.17
662.46	36161.28
662.60	36498.31
662.74	35695.51
662.88	35700.19
663.03	35873.39
663.17	35662.74
663.31	35494.22
663.45	35358.47
663.60	35681.47
663.74	35637.00
663.88	35253.15
664.02	35704.87
664.17	35519.97
664.31	35269.53
664.45	35424.01
664.59	35150.17
664.73	34913.77
664.88	35168.89
665.02	34899.73
665.16	35314.00
665.30	34897.39
665.44	34988.67
665.59	34876.32
665.73	35030.80
665.87	34759.30
666.01	34352.04
666.15	34356.72
666.29	34602.48
666.44	34700.78
666.58	34588.44
666.72	34300.55
666.86	34742.91
667.00	34660.99
667.14	34005.64
667.28	34129.69
667.43	33895.64
667.57	33684.99
667.71	34237.36
667.85	34232.68
667.99	33769.25
668.13	33635.84
668.27	33369.02
668.41	33816.06
668.56	33612.43
668.70	33972.88
668.84	33802.02
668.98	32938.36
669.12	33940.11
669.26	33598.39
669.40	33268.37
669.54	33364.34
669.68	33181.77
669.82	33399.44
669.96	33125.60
670.10	32943.04
670.25	33184.12
670.39	33057.73
670.53	33010.92
670.67	33170.07
670.81	32940.70
670.95	32985.17
671.09	32863.46
671.23	33291.78
671.37	33319.87
671.51	32680.90
671.65	32582.60
671.79	32517.06
671.93	32409.40
672.07	32549.83
672.21	32610.68
672.35	32577.92
672.49	32046.62
672.63	32013.85
672.77	32297.05
672.91	31992.78
673.05	32020.87
673.19	32123.85
673.33	31606.59
673.47	31620.64
673.61	31917.89
673.75	31491.91
673.89	31192.32
674.03	30682.08
674.17	31608.93
674.31	30969.97
674.45	30916.14
674.59	30967.63
674.73	31534.04
674.87	30738.26
675.01	31175.94
675.15	31061.25
675.29	31136.15
675.43	30925.50
675.56	30764.00
675.70	30951.24
675.84	30307.60
675.98	29663.95
676.12	30382.49
676.26	30506.54
676.40	30181.21
676.54	30459.73
676.68	30391.86
676.82	29575.01
676.96	29628.84
677.10	29799.70
677.23	29900.34
677.37	29907.37
677.51	29397.13
677.65	29720.12
677.79	29191.16
677.93	29631.18
678.07	29465.00
678.21	28886.89
678.34	28947.75
678.48	28982.85
678.62	28950.09
678.76	28556.88
678.90	28634.11
679.04	28814.34
679.18	28601.35
679.31	28189.41
679.45	27810.25
679.59	28072.39
679.73	28250.27
679.87	27981.10
680.00	28051.32
680.14	27978.76
680.28	27613.64
680.42	27623.00
680.56	28095.79
680.70	27484.91
680.83	27405.33
680.97	27545.76
681.11	27220.43
681.25	27080.00
681.39	27573.85
681.52	27328.10
681.66	26738.28
681.80	27070.64
681.94	26934.88
682.07	26991.06
682.21	26363.79
682.35	26380.18
682.49	26501.89
682.62	26426.99
682.76	25947.18
682.90	26244.43
683.04	26462.10
683.17	26192.94
683.31	26221.02
683.45	25858.24
683.59	25879.30
683.72	25680.36
683.86	25645.25
684.00	25607.80
684.13	25633.55
684.27	25626.53
684.41	25308.21
684.55	25193.53
684.68	24807.34
684.82	25289.49
684.96	24954.79
685.09	24886.92
685.23	24917.34
685.37	25170.12
685.50	24783.93
685.64	24739.46
685.78	24496.05
685.91	24575.62
686.05	24355.61
686.19	24287.74
686.32	24175.39
686.46	23889.85
686.60	23592.60
686.73	23377.27
686.87	23763.46
687.01	23304.71
687.14	23208.75
687.28	23466.21
687.42	23463.87
687.55	23239.18
687.69	23014.49
687.82	23035.55
687.96	23065.98
688.10	22862.35
688.23	22724.26
688.37	22878.74
688.50	22506.59
688.64	22485.53
688.78	22614.26
688.91	22167.21
689.05	22375.52
689.18	22216.36
689.32	22164.87
689.46	22232.75
689.59	22228.07
689.73	22284.24
689.86	21921.46
690.00	21633.57
690.13	22150.83
690.27	21731.87
690.41	21446.33
690.54	21329.30
690.68	21317.60
690.81	21310.58
690.95	21366.75
691.08	21490.80
691.22	21198.23
691.35	21158.44
691.49	21046.10
691.62	21273.13
691.76	21219.30
691.89	20961.84
692.03	20554.58
692.16	20549.90
692.30	20863.54
692.43	20615.44
692.57	20346.28
692.70	20226.91
692.84	20130.95
692.97	19803.27
693.11	20030.30
693.24	19964.77
693.38	19983.49
693.51	19793.91
693.65	19789.23
693.78	19770.51
693.92	19571.56
694.05	19583.26
694.19	19499.00
694.32	19431.13
694.45	19403.04
694.59	19166.65
694.72	19215.80
694.86	18848.33
694.99	18857.70
695.13	18864.72
695.26	18726.63
695.39	18532.36
695.53	18740.67
695.66	18658.75
695.80	18771.10
695.93	18284.26
696.07	18183.62
696.20	18398.95
696.33	18302.99
696.47	18380.23
696.60	17884.03
696.73	18251.50
696.87	17862.97
697.00	17989.36
697.14	17951.91
697.27	17748.28
697.40	17729.56
697.54	17584.44
697.67	17572.74
697.80	17350.39
697.94	17240.39
698.07	17277.83
698.21	17109.32
698.34	17001.65
698.47	17095.27
698.61	16723.13
698.74	16723.13
698.87	16929.09
699.01	16580.36
699.14	16659.93
699.27	16805.05
699.40	16662.27
699.54	16414.18
699.67	16187.14
699.80	16257.36
699.94	16297.15
700.07	16219.91
700.20	16121.61
700.34	15967.13
700.47	15976.50
700.60	16063.10
700.73	15810.32
700.87	15903.94
701.00	15765.85
701.13	15543.50
701.26	15459.24
701.40	15693.29
701.53	15344.55
701.66	15625.42
701.79	15056.67
701.93	15269.66
702.06	14939.64
702.19	15054.33
702.32	14958.36
702.46	15075.39
702.59	14658.78
702.72	15012.20
702.85	14705.59
702.99	14745.38
703.12	14745.38
703.25	14656.43
703.38	14714.95
703.51	14773.46
703.65	14258.54
703.78	14569.83
703.91	14370.89
704.04	13984.70
704.17	14181.31
704.31	13748.31
704.44	14052.58
704.57	13783.41
704.70	13891.08
704.83	13762.35
704.96	13862.99
705.10	13706.18
705.23	13949.59
>>>>>End Processed Spectral Data<<<<<
