SpectraSuite Data File
++++++++++++++++++++++++++++++++++++
Date: Fri Oct 25 11:34:40 EDT 2013
User: price-jones
Dark Spectrum Present: No
Reference Spectrum Present: No
Number of Sampled Component Spectra: 1
Spectrometers: USB2+H05261
Integration Time (usec): 100000 (USB2+H05261)
Spectra Averaged: 1 (USB2+H05261)
Boxcar Smoothing: 0 (USB2+H05261)
Correct for Electrical Dark: No (USB2+H05261)
Strobe/Lamp Enabled: No (USB2+H05261)
Correct for Detector Non-linearity: No (USB2+H05261)
Correct for Stray Light: No (USB2+H05261)
Number of Pixels in Processed Spectrum: 2048
>>>>>Begin Processed Spectral Data<<<<<
365.73	271.50
365.92	271.50
366.12	271.50
366.32	210.65
366.52	154.48
366.72	222.35
366.91	152.13
367.11	222.35
367.31	180.22
367.51	152.13
367.70	191.92
367.90	84.26
368.10	215.33
368.30	201.29
368.49	107.66
368.69	187.24
368.89	241.08
369.09	210.65
369.28	208.31
369.48	201.29
369.68	227.03
369.87	236.39
370.07	285.55
370.27	299.59
370.47	311.29
370.66	458.74
370.86	472.79
371.06	554.71
371.25	559.39
371.45	566.41
371.65	587.47
371.84	547.69
372.04	540.66
372.24	599.18
372.44	514.92
372.63	531.30
372.83	535.98
373.03	507.90
373.22	636.63
373.42	608.54
373.62	566.41
373.81	690.46
374.01	648.33
374.21	660.03
374.40	674.07
374.60	653.01
374.79	671.73
374.99	599.18
375.19	667.05
375.38	601.52
375.58	596.84
375.78	734.93
375.97	650.67
376.17	636.63
376.37	720.88
376.56	615.56
376.76	760.67
376.95	709.18
377.15	641.31
377.35	720.88
377.54	671.73
377.74	704.50
377.93	627.26
378.13	650.67
378.33	716.20
378.52	695.14
378.72	664.71
378.91	732.59
379.11	638.97
379.31	699.82
379.50	645.99
379.70	678.76
379.89	702.16
380.09	667.05
380.28	662.37
380.48	660.03
380.68	704.50
380.87	763.01
381.07	702.16
381.26	760.67
381.46	800.46
381.65	760.67
381.85	760.67
382.04	718.54
382.24	660.03
382.43	807.48
382.63	784.08
382.83	697.48
383.02	866.00
383.22	798.12
383.41	758.33
383.61	809.83
383.80	816.85
384.00	786.42
384.19	819.19
384.39	819.19
384.58	791.10
384.78	777.06
384.97	809.83
385.17	791.10
385.36	809.83
385.56	828.55
385.75	779.40
385.95	786.42
386.14	882.38
386.34	873.02
386.53	807.48
386.72	826.21
386.92	849.61
387.11	849.61
387.31	791.10
387.50	875.36
387.70	784.08
387.89	835.57
388.09	917.49
388.28	901.11
388.48	917.49
388.67	837.91
388.86	814.51
389.06	875.36
389.25	891.74
389.45	894.08
389.64	908.13
389.84	894.08
390.03	1004.09
390.22	950.26
390.42	901.11
390.61	922.17
390.81	966.64
391.00	966.64
391.19	1015.79
391.39	994.73
391.58	1071.97
391.78	952.60
391.97	1015.79
392.16	950.26
392.36	971.32
392.55	936.21
392.75	1071.97
392.94	1013.45
393.13	1011.11
393.33	945.58
393.52	1090.69
393.71	1060.26
393.91	990.05
394.10	1032.18
394.29	994.73
394.49	1128.14
394.68	1043.88
394.88	976.00
395.07	1170.27
395.26	1132.82
395.46	1097.71
395.65	1128.14
395.84	1146.86
396.04	1214.74
396.23	1062.60
396.42	1158.57
396.62	1135.16
396.81	1153.88
397.00	1132.82
397.19	1186.65
397.39	1151.54
397.58	1132.82
397.77	1224.10
397.97	1214.74
398.16	1165.59
398.35	1268.57
398.55	1165.59
398.74	1231.12
398.93	1252.19
399.12	1249.85
399.32	1256.87
399.51	1249.85
399.70	1280.27
399.90	1252.19
400.09	1315.38
400.28	1378.58
400.47	1263.89
400.67	1273.25
400.86	1275.59
401.05	1245.16
401.24	1380.92
401.44	1322.40
401.63	1341.13
401.82	1434.75
402.01	1366.87
402.21	1331.76
402.40	1369.21
402.59	1348.15
402.78	1460.49
402.97	1446.45
403.17	1329.42
403.36	1446.45
403.55	1544.75
403.74	1596.25
403.93	1467.52
404.13	1528.37
404.32	1526.03
404.51	1514.33
404.70	1570.50
404.89	1556.46
405.09	1614.97
405.28	1591.56
405.47	1584.54
405.66	1671.14
405.85	1563.48
406.05	1643.06
406.24	1607.95
406.43	1650.08
406.62	1806.89
406.81	1722.63
407.00	1696.89
407.20	1621.99
407.39	1650.08
407.58	1692.21
407.77	1762.42
407.96	1853.70
408.15	1851.36
408.34	1809.23
408.54	1879.45
408.73	1874.77
408.92	1853.70
409.11	1816.26
409.30	1935.62
409.49	1893.49
409.68	1795.19
409.87	1895.83
410.07	2022.22
410.26	1886.47
410.45	2012.86
410.64	1923.92
410.83	2010.52
411.02	2094.78
411.21	2127.55
411.40	2115.84
411.59	2148.61
411.78	2120.53
411.98	2113.50
412.17	2174.36
412.36	2108.82
412.55	2132.23
412.74	2279.68
412.93	2237.55
413.12	2139.25
413.31	2326.49
413.50	2303.09
413.69	2314.79
413.88	2366.28
414.07	2282.02
414.26	2480.97
414.45	2406.07
414.64	2445.86
414.83	2436.50
415.02	2434.16
415.22	2471.61
415.41	2665.87
415.60	2450.54
415.79	2586.29
415.98	2630.76
416.17	2656.51
416.36	2607.36
416.55	2722.04
416.74	2642.46
416.93	2612.04
417.12	2590.97
417.31	2789.92
417.50	2724.38
417.69	2855.45
417.88	2754.81
418.07	2782.90
418.26	2780.56
418.45	2871.84
418.64	2981.84
418.83	2857.79
419.02	2897.58
419.21	2876.52
419.39	3075.46
419.58	2939.71
419.77	2857.79
419.96	2991.20
420.15	3073.12
420.34	2920.99
420.53	3030.99
420.72	3033.33
420.91	3089.51
421.10	3077.80
421.29	3084.83
421.48	3084.83
421.67	3157.38
421.86	3105.89
422.05	3309.52
422.24	3105.89
422.43	3297.81
422.61	3346.97
422.80	3199.51
422.99	3201.85
423.18	3290.79
423.37	3328.24
423.56	3176.11
423.75	3293.13
423.94	3218.24
424.13	3141.00
424.32	3133.98
424.50	3185.47
424.69	3290.79
424.88	3251.00
425.07	3176.11
425.26	3236.96
425.45	3169.09
425.64	3201.85
425.83	3260.37
426.01	3379.73
426.20	3239.30
426.39	3243.98
426.58	3262.71
426.77	3262.71
426.96	3548.25
427.15	3375.05
427.33	3396.12
427.52	3454.63
427.71	3419.52
427.90	3428.88
428.09	3424.20
428.28	3475.70
428.46	3473.36
428.65	3538.89
428.84	3646.55
429.03	3672.30
429.22	3461.65
429.40	3648.90
429.59	3478.04
429.78	3531.87
429.97	3435.91
430.16	3435.91
430.34	3510.80
430.53	3702.73
430.72	3705.07
430.91	3688.68
431.10	3623.15
431.28	3768.26
431.47	3756.56
431.66	3887.63
431.85	3838.48
432.03	3786.99
432.22	3978.91
432.41	3927.42
432.60	3932.10
432.79	3889.97
432.97	3911.04
433.16	3852.52
433.35	3831.46
433.54	3859.54
433.72	3964.87
433.91	4009.34
434.10	4049.13
434.28	3887.63
434.47	4107.64
434.66	4049.13
434.85	4063.17
435.03	4079.55
435.22	4107.64
435.41	4105.30
435.59	4149.77
435.78	4168.49
435.97	4205.94
436.16	4135.73
436.34	4028.06
436.53	4173.18
436.72	4430.63
436.90	4128.70
437.09	4238.71
437.28	4224.67
437.46	4241.05
437.65	4346.37
437.84	4313.61
438.02	4484.47
438.21	4358.08
438.40	4243.39
438.58	4456.38
438.77	4507.87
438.96	4470.42
439.14	4699.80
439.33	4503.19
439.52	4723.20
439.70	4786.40
439.89	4636.60
440.08	4751.29
440.26	4816.82
440.45	4718.52
440.63	4861.29
440.82	4868.31
441.01	4877.68
441.19	4795.76
441.38	5018.11
441.57	5022.79
441.75	4943.21
441.94	5181.95
442.12	4945.55
442.31	5275.57
442.50	5186.63
442.68	5203.01
442.87	5020.45
443.05	5284.93
443.24	5252.16
443.43	5343.44
443.61	5284.93
443.80	5275.57
443.98	5118.75
444.17	4997.04
444.35	5394.93
444.54	5341.10
444.73	5301.31
444.91	5357.49
445.10	5397.28
445.28	5385.57
445.47	5418.34
445.65	5301.31
445.84	5352.81
446.02	5416.00
446.21	5345.78
446.39	5394.93
446.58	5533.03
446.77	5448.77
446.95	5238.12
447.14	5530.69
447.32	5497.92
447.51	5453.45
447.69	5437.06
447.88	5448.77
448.06	5420.68
448.25	5432.38
448.43	5359.83
448.62	5490.90
448.80	5418.34
448.99	5568.13
449.17	5603.24
449.36	5722.61
449.54	5514.30
449.73	5806.87
449.91	5841.98
450.10	5792.83
450.28	5757.72
450.46	5748.36
450.65	5647.71
450.83	5755.38
451.02	5696.86
451.20	5884.11
451.39	5783.46
451.57	5907.51
451.76	5746.02
451.94	5909.85
452.13	5980.07
452.31	5966.03
452.49	5930.92
452.68	5954.32
452.86	5841.98
453.05	6097.10
453.23	6094.76
453.42	6052.63
453.60	5996.45
453.78	6125.18
453.97	5956.66
454.15	6003.47
454.34	5921.56
454.52	6076.03
454.70	6225.82
454.89	6106.46
455.07	6272.64
455.26	6410.73
455.44	6366.26
455.62	6389.66
455.81	6319.45
455.99	6141.57
456.17	6389.66
456.36	6319.45
456.54	6511.37
456.73	6326.47
456.91	6562.86
457.09	6612.01
457.28	6583.93
457.46	6490.31
457.64	6771.17
457.83	6644.78
458.01	6698.61
458.19	6736.06
458.38	6885.86
458.56	6895.22
458.74	6780.53
458.93	6651.80
459.11	6693.93
459.29	6789.89
459.48	7012.24
459.66	7012.24
459.84	7028.63
460.03	7014.59
460.21	6892.88
460.39	7077.78
460.57	6892.88
460.76	7054.37
460.94	7042.67
461.12	7129.27
461.31	7274.38
461.49	7178.42
461.67	7239.28
461.85	7061.40
462.04	7068.42
462.22	7573.97
462.40	7419.50
462.59	7489.71
462.77	7208.85
462.95	7412.48
463.13	7438.22
463.32	7405.46
463.50	7480.35
463.68	7515.46
463.86	7396.09
464.05	7449.93
464.23	7393.75
464.41	7517.80
464.59	7468.65
464.78	7683.98
464.96	7595.04
465.14	7517.80
465.32	7669.94
465.50	7683.98
465.69	7597.38
465.87	7716.75
466.05	7667.60
466.23	7555.25
466.41	7545.89
466.60	7981.23
466.78	7632.49
466.96	7665.25
467.14	7775.26
467.32	7749.51
467.51	7868.88
467.69	7824.41
467.87	8056.12
468.05	7707.38
468.23	7742.49
468.41	7892.29
468.60	7829.09
468.78	8070.17
468.96	8116.98
469.14	7969.52
469.32	8250.39
469.50	7840.79
469.69	8128.68
469.87	8245.71
470.05	8100.59
470.23	8358.05
470.41	8329.97
470.59	8446.99
470.77	8184.85
470.95	8484.44
471.14	8446.99
471.32	8301.88
471.50	8599.13
471.68	8573.38
471.86	8498.49
472.04	8779.35
472.22	8725.52
472.40	8624.87
472.58	8826.16
472.77	8772.33
472.95	8908.08
473.13	9039.15
473.31	8795.73
473.49	8884.67
473.67	8966.59
473.85	9039.15
474.03	9118.73
474.21	9282.56
474.39	9214.69
474.57	9259.16
474.75	9224.05
474.93	9373.85
475.12	9177.24
475.30	9619.60
475.48	9413.63
475.66	9467.47
475.84	9490.87
476.02	9750.67
476.20	9610.24
476.38	9708.54
476.56	10211.76
476.74	10092.39
476.92	10001.11
477.10	9846.63
477.28	10083.03
477.46	10087.71
477.64	10328.78
477.82	10197.71
478.00	10424.75
478.18	10626.03
478.36	10565.18
478.54	10745.40
478.72	10656.46
478.90	10824.98
479.08	10918.60
479.26	10974.77
479.44	11145.63
479.62	11084.78
479.80	11372.66
479.98	11325.85
480.16	11440.54
480.34	11424.15
480.52	11508.41
480.70	11428.84
480.88	11470.97
481.06	11693.32
481.24	11714.38
481.41	11955.46
481.59	11810.34
481.77	12098.23
481.95	12112.27
482.13	12313.56
482.31	12194.19
482.49	12472.71
482.67	12575.70
482.85	12744.22
483.03	12798.05
483.21	12980.61
483.39	12886.99
483.57	12776.98
483.74	12940.82
483.92	13191.26
484.10	13081.25
484.28	13317.65
484.46	13598.51
484.64	13886.40
484.82	13579.79
485.00	13591.49
485.18	13874.70
485.35	14300.67
485.53	14314.72
485.71	14288.97
485.89	14658.78
486.07	14579.20
486.25	14565.15
486.43	14588.56
486.61	14616.65
486.78	14897.51
486.96	15009.86
487.14	14967.73
487.32	15482.64
487.50	15480.30
487.68	15623.08
487.85	15625.42
488.03	15896.92
488.21	15908.62
488.39	15807.98
488.57	16350.98
488.75	16025.65
488.92	16407.16
489.10	16631.85
489.28	16585.04
489.46	16711.42
489.64	16697.38
489.81	16980.59
489.99	17053.14
490.17	17195.92
490.35	17441.67
490.53	17439.33
490.70	17406.56
490.88	17724.88
491.06	17818.50
491.24	17909.78
491.41	17792.75
491.59	18015.10
491.77	18108.72
491.95	18045.53
492.13	18518.32
492.30	18640.03
492.48	18525.34
492.66	18616.62
492.84	18778.12
493.01	18925.57
493.19	18693.86
493.37	19131.54
493.54	18993.45
493.72	19522.41
493.90	19321.12
494.08	19609.01
494.25	19819.66
494.43	19550.49
494.61	19939.02
494.79	19950.73
494.96	20105.20
495.14	20407.13
495.32	20294.79
495.49	20512.46
495.67	20334.57
495.85	20877.58
496.02	20758.21
496.20	20989.92
496.38	21039.08
496.55	21090.57
496.73	21546.97
496.91	21336.32
497.09	21518.89
497.26	21422.92
497.44	21523.57
497.62	21792.73
497.79	21923.80
497.97	21830.18
498.14	22197.64
498.32	22279.56
498.50	21954.22
498.67	22686.81
498.85	22354.46
499.03	22726.60
499.20	22717.24
499.38	23014.49
499.56	22904.48
499.73	22913.84
499.91	23213.43
500.08	23257.90
500.26	23264.92
500.44	23293.01
500.61	23447.49
500.79	23234.50
500.97	23513.02
501.14	23491.96
501.32	23672.18
501.49	23852.40
501.67	23672.18
501.84	24105.18
502.02	23875.80
502.20	24074.75
502.37	24372.00
502.55	24123.90
502.72	24482.00
502.90	24538.18
503.07	24383.70
503.25	24835.42
503.43	24582.65
503.60	24802.66
503.78	24987.56
503.95	24833.08
504.13	24706.70
504.30	25254.38
504.48	25254.38
504.65	25228.63
504.83	25448.64
505.01	25418.22
505.18	25455.67
505.36	25722.49
505.53	25701.42
505.71	25820.79
505.88	25895.69
506.06	26008.03
506.23	26218.68
506.41	25942.50
506.58	26092.29
506.76	26171.87
506.93	26431.67
507.11	26260.81
507.28	26480.82
507.46	26562.74
507.63	26497.20
507.81	26874.03
507.98	26525.29
508.16	26780.41
508.33	26958.29
508.50	26913.82
508.68	26855.31
508.85	27421.72
509.03	27072.98
509.20	27110.43
509.38	27693.22
509.55	27716.62
509.73	27250.86
509.90	27545.76
510.08	27564.49
510.25	27721.30
510.42	27718.96
510.60	27871.10
510.77	27936.63
510.95	28620.07
511.12	28297.08
511.30	27917.91
511.47	28320.48
511.64	28285.37
511.82	28383.68
511.99	28308.78
512.17	28589.64
512.34	28570.92
512.51	29013.28
512.69	29200.52
512.86	28968.81
513.04	29113.92
513.21	28907.96
513.38	28954.77
513.56	29486.07
513.73	29385.43
513.90	29579.69
514.08	29315.21
514.25	29518.84
514.43	29837.15
514.60	29764.59
514.77	29865.24
514.95	29982.26
515.12	30061.84
515.29	30057.16
515.47	30075.88
515.64	30518.25
515.81	29933.11
515.99	30366.11
516.16	30375.47
516.33	30607.19
516.51	30675.06
516.68	30316.96
516.85	30639.95
517.03	31061.25
517.20	31037.84
517.37	30766.34
517.54	30909.11
517.72	30871.67
517.89	30883.37
518.06	31159.55
518.24	31452.12
518.41	30764.00
518.58	31232.11
518.75	31201.68
518.93	31512.97
519.10	31257.85
519.27	31737.66
519.45	31363.18
519.62	31885.12
519.79	32023.21
519.96	31852.35
520.14	31765.75
520.31	31377.22
520.48	31711.92
520.65	31997.46
520.83	32451.53
521.00	32886.87
521.17	31894.48
521.34	31962.36
521.52	32350.88
521.69	32491.32
521.86	32556.85
522.03	32793.25
522.20	32638.77
522.38	33123.26
522.55	33287.10
522.72	33151.35
522.89	33130.28
523.07	33572.64
523.24	32680.90
523.41	33160.71
523.58	33120.92
523.75	33556.26
523.92	33055.39
524.10	33366.68
524.27	33785.63
524.44	33544.56
524.61	33979.90
524.78	33956.49
524.96	33827.76
525.13	33902.66
525.30	33869.89
525.47	33897.98
525.64	34059.48
525.81	34548.65
525.98	34312.25
526.16	34052.45
526.33	33991.60
526.50	34169.48
526.67	34223.31
526.84	34684.40
527.01	34167.14
527.18	34593.12
527.36	34668.02
527.53	34773.34
527.70	35239.11
527.87	34771.00
528.04	34838.87
528.21	35150.17
528.38	35119.74
528.55	35182.93
528.72	34852.92
528.89	35241.45
529.07	34925.47
529.24	35019.10
529.41	35468.48
529.58	35028.46
529.75	35737.64
529.92	35512.95
530.09	35351.45
530.26	35365.49
530.43	35931.90
530.60	34829.51
530.77	35316.34
530.94	35707.21
531.11	35548.06
531.28	35454.44
531.46	35854.67
531.63	36332.14
531.80	35964.67
531.97	36336.82
532.14	36297.03
532.31	35997.44
532.48	36367.24
532.65	36577.89
532.82	36341.50
532.99	36423.42
533.16	36362.56
533.33	36788.54
533.50	36510.02
533.67	36652.79
533.84	36191.70
534.01	36540.44
534.18	36383.63
534.35	36905.57
534.52	36854.08
534.69	37148.98
534.86	36858.76
535.03	37038.98
535.20	36772.16
535.37	36950.04
535.54	37511.77
535.71	36849.39
535.88	37408.78
536.05	37488.36
536.22	37074.09
536.38	37600.71
536.55	37244.94
536.72	37287.07
536.89	37174.73
537.06	37479.00
537.23	37717.73
537.40	37312.82
537.57	37156.00
537.74	37612.41
537.91	37809.01
538.08	38007.96
538.25	37610.07
538.42	37780.93
538.59	38251.38
538.75	37961.15
538.92	38230.31
539.09	38167.12
539.26	37876.89
539.43	38326.27
539.60	38455.00
539.77	38443.30
539.94	38557.99
540.11	38286.48
540.28	38045.41
540.44	38609.48
540.61	37886.25
540.78	38286.48
540.95	38679.69
541.12	38569.69
541.29	38536.92
541.46	38520.54
541.62	38590.75
541.79	38803.74
541.96	38572.03
542.13	39126.74
542.30	38803.74
542.47	38518.20
542.63	38990.98
542.80	38965.24
542.97	39428.66
543.14	39498.88
543.31	39021.41
543.48	39068.22
543.64	39882.73
543.81	39531.65
543.98	39611.23
544.15	39908.47
544.32	39398.24
544.48	40205.72
544.65	39770.38
544.82	39423.98
544.99	39873.37
545.16	39871.03
545.32	39707.19
545.49	40509.99
545.66	40311.05
545.83	40493.61
546.00	40046.57
546.16	39924.86
546.33	40184.66
546.50	40175.30
546.67	40339.13
546.83	40016.14
547.00	39917.84
547.17	40383.60
547.34	40346.15
547.50	40245.51
547.67	40542.76
547.84	40856.39
548.00	40858.73
548.17	40961.72
548.34	40568.51
548.51	40772.13
548.67	41148.96
548.84	40456.16
549.01	40854.05
549.18	40552.12
549.34	41067.04
549.51	40861.07
549.68	41146.62
549.84	41120.87
550.01	41347.90
550.18	40437.44
550.34	40788.52
550.51	40950.01
550.68	41188.75
550.84	41251.94
551.01	41205.13
551.18	41022.57
551.34	40715.96
551.51	41287.05
551.68	40987.46
551.84	41036.61
552.01	41151.30
552.18	41319.82
552.34	41331.52
552.51	41478.97
552.68	41240.24
552.84	41240.24
553.01	41734.09
553.18	41855.80
553.34	42068.79
553.51	41340.88
553.67	41792.61
553.84	41862.82
554.01	41745.80
554.17	41642.81
554.34	42195.18
554.51	41558.55
554.67	41961.12
554.84	42319.23
555.00	42094.53
555.17	42344.97
555.33	42340.29
555.50	42082.83
555.67	41975.17
555.83	42417.53
556.00	42433.91
556.16	42452.64
556.33	42316.89
556.50	42770.95
556.66	42291.14
556.83	42267.73
556.99	42520.51
557.16	42653.92
557.32	42852.87
557.49	42717.12
557.65	42387.10
557.82	42555.62
557.98	42452.64
558.15	42813.08
558.32	42689.03
558.48	42401.14
558.65	43150.12
558.81	42852.87
558.98	42766.27
559.14	42504.13
559.31	42492.43
559.47	42663.28
559.64	43157.14
559.80	42501.79
559.97	43311.61
560.13	42586.05
560.30	42682.01
560.46	43246.08
560.63	43072.88
560.79	42855.21
560.96	43002.66
561.12	43180.54
561.29	43494.18
561.45	43304.59
561.61	42981.60
561.78	43070.54
561.94	42979.26
562.11	43426.30
562.27	43384.17
562.44	42948.83
562.60	43269.48
562.77	43222.67
562.93	43063.52
563.10	43966.96
563.26	42974.58
563.42	43814.83
563.59	43246.08
563.75	43278.85
563.92	43040.11
564.08	43246.08
564.24	43316.29
564.41	43318.64
564.57	43335.02
564.74	43751.63
564.90	43075.22
565.07	43199.27
565.23	43234.38
565.39	43365.45
565.56	44179.95
565.72	43728.23
565.88	43770.36
566.05	43288.21
566.21	43730.57
566.38	43978.67
566.54	43842.92
566.70	43878.02
566.87	43510.56
567.03	43363.11
567.19	44128.46
567.36	43833.55
567.52	44105.06
567.68	43803.13
567.85	43779.72
568.01	44095.69
568.17	43590.14
568.34	43943.56
568.50	44437.41
568.66	43812.49
568.83	44215.06
568.99	44236.12
569.15	43906.11
569.32	43739.93
569.48	43737.59
569.64	44172.93
569.81	44381.24
569.97	44371.88
570.13	44011.43
570.30	43709.50
570.46	44083.99
570.62	43711.84
570.78	44076.97
570.95	44294.64
571.11	44580.18
571.27	44076.97
571.43	43643.97
571.60	44432.73
571.76	44205.70
571.92	43899.09
572.09	44051.22
572.25	43906.11
572.41	44521.67
572.57	44119.10
572.74	44364.85
572.90	44519.33
573.06	44648.06
573.22	44554.44
573.38	44414.01
573.55	44318.04
573.71	44729.98
573.87	44348.47
574.03	44456.14
574.20	44966.37
574.36	44488.90
574.52	44091.01
574.68	44311.02
574.84	44348.47
575.01	44715.93
575.17	44905.52
575.33	44692.53
575.49	44418.69
575.65	44549.76
575.82	44615.29
575.98	44163.57
576.14	44868.07
576.30	44744.02
576.46	44718.28
576.62	44643.38
576.79	44215.06
576.95	44149.53
577.11	44397.62
577.27	44556.78
577.43	44694.87
577.59	44362.51
577.75	44196.34
577.92	44051.22
578.08	44282.94
578.24	44378.90
578.40	44781.47
578.56	44671.46
578.72	44652.74
578.88	44549.76
579.04	44493.58
579.21	44641.04
579.37	44708.91
579.53	44786.15
579.69	44418.69
579.85	44821.26
580.01	44699.55
580.17	44589.55
580.33	44774.45
580.49	44671.46
580.65	44751.04
580.82	44605.93
580.98	44701.89
581.14	44226.76
581.30	44584.86
581.46	44446.77
581.62	44575.50
581.78	44488.90
581.94	44685.51
582.10	44430.39
582.26	44662.10
582.42	44603.59
582.58	44655.08
582.74	44718.28
582.90	44570.82
583.06	44573.16
583.22	44947.65
583.38	44912.54
583.54	44849.35
583.70	44495.92
583.86	44975.73
584.02	44722.96
584.18	45059.99
584.34	44664.44
584.50	44959.35
584.66	44847.00
584.82	44905.52
584.98	44891.48
585.14	44858.71
585.30	44711.25
585.46	44982.76
585.62	44617.63
585.78	44589.55
585.94	44650.40
586.10	44690.19
586.26	44687.85
586.42	44964.03
586.58	45067.02
586.74	44882.11
586.90	44837.64
587.06	44301.66
587.22	44835.30
587.38	44636.36
587.54	44837.64
587.70	45207.45
587.86	45291.71
588.02	44863.39
588.18	45001.48
588.34	44802.53
588.49	44879.77
588.65	44788.49
588.81	44505.29
588.97	45146.59
589.13	44570.82
589.29	44928.92
589.45	45059.99
589.61	45511.72
589.77	45385.33
589.93	44994.46
590.08	45221.49
590.24	45151.27
590.40	45670.87
590.56	45265.96
590.72	45125.53
590.88	45158.30
591.04	45195.74
591.20	45280.00
591.35	44996.80
591.51	45963.44
591.67	45228.51
591.83	45415.76
591.99	45434.48
592.15	44966.37
592.31	45432.14
592.46	45478.95
592.62	45521.08
592.78	45411.07
592.94	45628.74
593.10	45738.75
593.26	45340.86
593.41	45977.48
593.57	45509.38
593.73	45801.94
593.89	45818.33
594.05	45734.07
594.20	45497.67
594.36	45942.38
594.52	45691.94
594.68	45450.86
594.84	45258.94
594.99	45996.21
595.15	45303.41
595.31	45507.04
595.47	45595.98
595.62	45542.14
595.78	45572.57
595.94	45603.00
596.10	45460.23
596.25	45645.13
596.41	45521.08
596.57	45476.61
596.73	45549.17
596.88	45394.69
597.04	45769.18
597.20	45668.53
597.36	45425.12
597.51	45408.73
597.67	45603.00
597.83	45572.57
597.99	45801.94
598.14	45631.08
598.30	45558.53
598.46	45406.39
598.61	45757.47
598.77	45965.78
598.93	45893.22
599.09	45717.68
599.24	46312.18
599.40	45619.38
599.56	45904.93
599.71	46059.40
599.87	46351.97
600.03	46010.25
600.18	45703.64
600.34	45577.25
600.50	45305.75
600.65	46054.72
600.81	45921.31
600.97	45865.14
601.12	45734.07
601.28	45844.07
601.44	45757.47
601.59	45460.23
601.75	45848.75
601.91	45897.91
602.06	45860.46
602.22	45958.76
602.37	45682.58
602.53	45879.18
602.69	45963.44
602.84	45799.60
603.00	45626.40
603.16	45787.90
603.31	45780.88
603.47	45954.08
603.62	45586.61
603.78	46459.63
603.94	45495.33
604.09	45633.42
604.25	45464.91
604.40	45783.22
604.56	45404.05
604.71	46293.46
604.87	45418.10
605.03	45811.31
605.18	45670.87
605.34	45483.63
605.49	45436.82
605.65	46138.98
605.80	45605.34
605.96	45457.88
606.12	45897.91
606.27	45610.02
606.43	45647.47
606.58	45605.34
606.74	45422.78
606.89	45904.93
607.05	45399.37
607.20	45928.33
607.36	45514.06
607.51	45734.07
607.67	45324.47
607.82	45741.09
607.98	45476.61
608.13	45467.25
608.29	45675.55
608.44	45193.40
608.60	45317.45
608.75	45551.51
608.91	45436.82
609.06	45174.68
609.22	45591.30
609.37	45237.87
609.53	45731.73
609.68	45750.45
609.84	45284.68
609.99	45673.21
610.15	45530.44
610.30	45418.10
610.46	45319.79
610.61	45408.73
610.76	45366.60
610.92	45193.40
611.07	44940.63
611.23	44753.38
611.38	45184.04
611.54	45258.94
611.69	45607.68
611.84	45338.52
612.00	45427.46
612.15	45085.74
612.31	45514.06
612.46	45205.11
612.62	44945.31
612.77	45139.57
612.92	45584.27
613.08	45272.98
613.23	45315.11
613.39	45303.41
613.54	44861.05
613.69	44870.41
613.85	45081.06
614.00	44961.69
614.15	45153.62
614.31	45043.61
614.46	44671.46
614.62	45062.33
614.77	44807.22
614.92	44952.33
615.08	44865.73
615.23	44856.37
615.38	45141.91
615.54	45172.34
615.69	45097.44
615.84	44938.29
616.00	45106.80
616.15	44879.77
616.30	44755.72
616.46	44500.61
616.61	44807.22
616.76	45284.68
616.92	44437.41
617.07	45048.29
617.22	44470.18
617.37	44645.72
617.53	44737.00
617.68	44088.67
617.83	44875.09
617.99	45198.09
618.14	44942.97
618.29	44847.00
618.45	44318.04
618.60	44322.72
618.75	44229.10
618.90	44425.71
619.06	44509.97
619.21	44364.85
619.36	44559.12
619.51	44154.21
619.67	44229.10
619.82	44320.38
619.97	44540.39
620.12	44545.08
620.28	44051.22
620.43	44311.02
620.58	44839.98
620.73	44067.61
620.89	44666.78
621.04	44430.39
621.19	44275.91
621.34	44025.48
621.49	44128.46
621.65	44495.92
621.80	44856.37
621.95	43917.81
622.10	44430.39
622.25	44079.31
622.41	43833.55
622.56	44119.10
622.71	43878.02
622.86	43948.24
623.01	44128.46
623.16	44051.22
623.32	44126.12
623.47	43613.54
623.62	43831.21
623.77	44273.57
623.92	44074.63
624.07	43955.26
624.23	43952.92
624.38	43791.42
624.53	43929.51
624.68	43536.30
624.83	43648.65
624.98	43871.00
625.13	43388.85
625.29	43847.60
625.44	43920.15
625.59	43405.23
625.74	43482.47
625.89	43194.59
626.04	43552.69
626.19	43538.65
626.34	43601.84
626.49	43332.68
626.65	43255.44
626.80	43217.99
626.95	43152.46
627.10	43192.25
627.25	43510.56
627.40	43026.07
627.55	42969.90
627.70	42869.25
627.85	42878.61
628.00	43232.04
628.15	43093.94
628.30	43035.43
628.45	43115.01
628.60	42557.96
628.76	42738.18
628.91	42841.17
629.06	43175.86
629.21	43115.01
629.36	42792.01
629.51	42693.71
629.66	42822.44
629.81	42855.21
629.96	43086.92
630.11	42829.46
630.26	42808.40
630.41	42728.82
630.56	42745.20
630.71	42810.74
630.86	42934.79
631.01	42344.97
631.16	42459.66
631.31	42850.53
631.46	42815.42
631.61	42918.40
631.76	42728.82
631.91	42391.78
632.06	42792.01
632.21	42787.33
632.36	43152.46
632.51	42274.76
632.66	42597.75
632.81	42440.93
632.96	42483.06
633.10	42492.43
633.25	42742.86
633.40	42466.68
633.55	42550.94
633.70	42682.01
633.85	42134.32
634.00	42216.24
634.15	42218.58
634.30	42483.06
634.45	42260.71
634.60	42153.05
634.75	42363.70
634.90	42066.45
635.05	42440.93
635.19	41949.42
635.34	42401.14
635.49	42169.43
635.64	41926.02
635.79	42408.17
635.94	42075.81
636.09	41989.21
636.24	42068.79
636.39	41965.81
636.53	41855.80
636.68	41301.09
636.83	41436.84
636.98	41883.89
637.13	41270.67
637.28	41567.91
637.43	41322.16
637.57	42174.11
637.72	41551.53
637.87	41750.48
638.02	41483.66
638.17	41446.21
638.32	41748.14
638.46	41298.75
638.61	41134.92
638.76	41329.18
638.91	42036.02
639.06	41291.73
639.20	40964.06
639.35	41565.57
639.50	41317.48
639.65	41488.34
639.80	41677.92
639.94	41736.43
640.09	41507.06
640.24	41305.77
640.39	41008.53
640.54	40940.65
640.68	40910.22
640.83	41130.23
640.98	41120.87
641.13	40868.09
641.27	41408.76
641.42	40884.48
641.57	41216.83
641.72	41324.50
641.86	40985.12
642.01	40734.68
642.16	40332.11
642.31	40680.85
642.45	41275.35
642.60	40655.11
642.75	40517.01
642.90	41345.56
643.04	40926.61
643.19	40882.14
643.34	40488.93
643.48	40027.84
643.63	40102.74
643.78	40615.32
643.93	40856.39
644.07	40701.92
644.22	40985.12
644.37	40362.54
644.51	40950.01
644.66	40645.74
644.81	40390.62
644.95	40601.27
645.10	40699.58
645.25	40147.21
645.39	40261.90
645.54	39880.39
645.69	40067.63
645.83	40142.53
645.98	40140.19
646.13	39959.97
646.27	39842.94
646.42	39784.43
646.57	39885.07
646.71	40137.85
646.86	40388.28
647.00	40325.09
647.15	40144.87
647.30	39990.39
647.44	40048.91
647.59	40149.55
647.74	39721.23
647.88	40151.89
648.03	40542.76
648.17	39988.05
648.32	39917.84
648.47	40692.55
648.61	39735.27
648.76	39531.65
648.90	39342.06
649.05	39477.82
649.20	39920.18
649.34	39828.90
649.49	39819.53
649.63	39779.74
649.78	40004.44
649.92	39945.92
650.07	40187.00
650.21	39803.15
650.36	39913.16
650.51	39700.17
650.65	39990.39
650.80	39875.71
650.94	39449.73
651.09	39700.17
651.23	39325.68
651.38	39805.49
651.52	39377.17
651.67	39728.25
651.81	39365.47
651.96	39798.47
652.10	38911.41
652.25	39133.76
652.39	39695.49
652.54	39686.12
652.68	39508.24
652.83	39239.08
652.97	39220.36
653.12	39344.41
653.26	39051.84
653.41	39178.23
653.55	39412.28
653.70	39323.34
653.84	39143.12
653.99	39133.76
654.13	39089.29
654.27	39316.32
654.42	38880.98
654.56	38738.21
654.71	39250.78
654.85	38855.23
655.00	38857.57
655.14	39084.61
655.29	39143.12
655.43	39196.95
655.57	39030.77
655.72	38656.29
655.86	38611.82
656.01	38473.73
656.15	38733.53
656.30	38405.85
656.44	38649.27
656.58	38309.89
656.73	38862.26
656.87	38429.26
657.01	38316.91
657.16	38651.61
657.30	38635.22
657.45	38506.49
657.59	38330.95
657.73	38253.72
657.88	38162.43
658.02	38220.95
658.16	38590.75
658.31	38115.62
658.45	38426.92
658.60	37977.53
658.74	38199.88
658.88	38162.43
659.03	38176.48
659.17	37619.43
659.31	37975.19
659.46	37589.00
659.60	37977.53
659.74	37638.15
659.89	37493.04
660.03	37631.13
660.17	37357.29
660.32	37949.45
660.46	37879.23
660.60	37163.03
660.74	37558.58
660.89	37727.10
661.03	37443.89
661.17	36823.65
661.32	36772.16
661.46	37479.00
661.60	37233.24
661.74	37097.49
661.89	37479.00
662.03	37359.63
662.17	36957.06
662.31	37071.75
662.46	37078.77
662.60	36657.47
662.74	36435.12
662.88	36498.31
663.03	36275.96
663.17	36563.85
663.31	36135.53
663.45	36786.20
663.60	36870.46
663.74	36910.25
663.88	36540.44
664.02	36704.28
664.17	36390.65
664.31	36591.94
664.45	36287.67
664.59	36168.30
664.73	35889.77
664.88	36081.70
665.02	35817.22
665.16	36067.66
665.30	35524.65
665.44	36175.32
665.59	35438.05
665.73	35505.93
665.87	35269.53
666.01	35807.86
666.15	35791.47
666.29	35828.92
666.44	35632.32
666.58	35342.09
666.72	35215.70
666.86	35735.30
667.00	35248.47
667.14	35353.79
667.28	35187.61
667.43	35005.05
667.57	35505.93
667.71	35325.71
667.85	35604.23
667.99	34822.49
668.13	34899.73
668.27	34850.58
668.41	34920.79
668.56	34368.43
668.70	34354.38
668.84	34064.16
668.98	34396.51
669.12	34675.04
669.26	34754.61
669.40	34157.78
669.54	34473.75
669.68	34508.86
669.82	34134.37
669.96	34113.31
670.10	33729.46
670.25	33958.83
670.39	33895.64
670.53	34469.07
670.67	33848.83
670.81	34157.78
670.95	33991.60
671.09	33893.30
671.23	33570.30
671.37	33310.50
671.51	33570.30
671.65	33586.69
671.79	33085.81
671.93	33284.76
672.07	33621.80
672.21	33605.41
672.35	33083.47
672.49	32877.51
672.63	33141.99
672.77	33057.73
672.91	33020.28
673.05	32378.97
673.19	32940.70
673.33	32486.64
673.47	32233.86
673.61	32442.17
673.75	32446.85
673.89	32144.92
674.03	32065.34
674.17	32027.89
674.31	31803.20
674.45	32063.00
674.59	31931.93
674.73	31812.56
674.87	31615.96
675.01	31314.03
675.15	31566.81
675.29	31363.18
675.43	31725.96
675.56	31716.60
675.70	31302.32
675.84	31445.10
675.98	30593.14
676.12	31091.68
676.26	31126.78
676.40	30639.95
676.54	30876.35
676.68	30815.49
676.82	29902.68
676.96	30672.72
677.10	30656.34
677.23	30394.20
677.37	30174.19
677.51	30326.32
677.65	29860.55
677.79	30029.07
677.93	29825.45
678.07	29736.51
678.21	29818.42
678.34	29319.89
678.48	29315.21
678.62	29542.24
678.76	29195.84
678.90	29275.42
679.04	29186.48
679.18	29476.71
679.31	28725.39
679.45	29008.60
679.59	28524.11
679.73	28931.36
679.87	28306.44
680.00	28727.74
680.14	28442.19
680.28	28212.82
680.42	28245.58
680.56	28386.02
680.70	27725.99
680.83	27871.10
680.97	27674.49
681.11	27910.89
681.25	27782.16
681.39	27651.09
681.52	27541.08
681.66	27449.80
681.80	26726.58
681.94	26878.71
682.07	26654.02
682.21	26693.81
682.35	26981.70
682.49	26944.25
682.62	26672.74
682.76	26904.46
682.90	26934.88
683.04	26616.57
683.17	26635.30
683.31	26483.16
683.45	26335.71
683.59	25848.88
683.72	25422.90
683.86	26047.82
684.00	25888.67
684.13	25830.15
684.27	25167.78
684.41	25781.00
684.55	25528.22
684.68	25458.01
684.82	25109.27
684.96	25205.23
685.09	25252.04
685.23	25432.26
685.37	25500.14
685.50	25434.60
685.64	25427.58
685.78	25057.78
685.91	25043.73
686.05	24929.05
686.19	24271.36
686.32	24556.90
686.46	24034.96
686.60	24140.29
686.73	23962.40
686.87	24266.67
687.01	24180.07
687.14	24018.58
687.28	23906.23
687.42	23660.48
687.55	23449.83
687.69	23637.07
687.82	23335.14
687.96	23468.55
688.10	23477.91
688.23	23297.69
688.37	23140.88
688.50	23285.99
688.64	22911.50
688.78	22934.91
688.91	22761.71
689.05	22782.77
689.18	22754.69
689.32	22328.71
689.46	22277.22
689.59	22389.56
689.73	22527.66
689.86	22534.68
690.00	22225.73
690.13	21951.88
690.27	21914.44
690.41	22024.44
690.54	21497.82
690.68	21680.38
690.81	21504.84
690.95	21504.84
691.08	21174.83
691.22	21062.48
691.35	20922.05
691.49	21156.10
691.62	21266.11
691.76	20718.42
691.89	20699.70
692.03	20411.81
692.16	20418.83
692.30	20283.08
692.43	20341.60
692.57	20329.89
692.70	20196.48
692.84	20285.42
692.97	19957.75
693.11	20042.01
693.24	19772.85
693.38	19438.15
693.51	19412.40
693.65	19838.38
693.78	19278.99
693.92	19058.98
694.05	19372.61
694.19	19058.98
694.32	19035.58
694.45	19405.38
694.59	19091.75
694.72	19316.44
694.86	18967.70
694.99	18822.59
695.13	18731.31
695.26	18263.20
695.39	18363.84
695.53	18581.51
695.66	18237.45
695.80	18401.29
695.93	18230.43
696.07	18141.49
696.20	18024.47
696.33	17535.29
696.47	17666.36
696.60	17877.01
696.73	18043.19
696.87	17596.15
697.00	17757.64
697.14	17551.68
697.27	17647.64
697.40	17523.59
697.54	17362.09
697.67	17486.14
697.80	17261.45
697.94	17434.65
698.07	17209.96
698.21	17160.81
698.34	17137.40
698.47	17214.64
698.61	16531.20
698.74	16596.74
698.87	16582.70
699.01	16130.97
699.14	16325.24
699.27	16215.23
699.40	16081.82
699.54	16271.40
699.67	15871.17
699.80	16226.93
699.94	16067.78
700.07	15658.18
700.20	15840.75
700.34	15770.53
700.47	15925.00
700.60	15819.68
700.73	15435.83
700.87	15564.56
701.00	15370.30
701.13	15370.30
701.26	15293.06
701.40	15166.67
701.53	14995.81
701.66	14960.70
701.79	15110.50
701.93	14698.56
702.06	14546.43
702.19	14696.22
702.32	14626.01
702.46	14642.39
702.59	14799.21
702.72	14588.56
702.85	14607.28
702.99	14532.39
703.12	14085.34
703.25	14342.80
703.38	14057.26
703.51	14164.92
703.65	13977.68
703.78	13781.07
703.91	13755.33
704.04	13444.04
704.17	13429.99
704.31	13327.01
704.44	13502.55
704.57	13427.65
704.70	13418.29
704.83	13315.31
704.96	13312.97
705.10	12982.95
705.23	13172.54
>>>>>End Processed Spectral Data<<<<<
