SpectraSuite Data File
++++++++++++++++++++++++++++++++++++
Date: Fri Oct 25 10:47:50 EDT 2013
User: price-jones
Dark Spectrum Present: No
Reference Spectrum Present: No
Number of Sampled Component Spectra: 1
Spectrometers: USB2+H05261
Integration Time (usec): 100000 (USB2+H05261)
Spectra Averaged: 1 (USB2+H05261)
Boxcar Smoothing: 0 (USB2+H05261)
Correct for Electrical Dark: No (USB2+H05261)
Strobe/Lamp Enabled: No (USB2+H05261)
Correct for Detector Non-linearity: No (USB2+H05261)
Correct for Stray Light: No (USB2+H05261)
Number of Pixels in Processed Spectrum: 2048
>>>>>Begin Processed Spectral Data<<<<<
365.73	140.43
365.92	140.43
366.12	140.43
366.32	42.13
366.52	51.49
366.72	0.00
366.91	72.56
367.11	7.02
367.31	58.51
367.51	32.77
367.70	16.38
367.90	84.26
368.10	46.81
368.30	44.47
368.49	58.51
368.69	102.98
368.89	74.90
369.09	35.11
369.28	25.75
369.48	58.51
369.68	168.52
369.87	133.41
370.07	135.75
370.27	145.11
370.47	133.41
370.66	355.76
370.86	390.87
371.06	461.09
371.25	463.43
371.45	484.49
371.65	463.43
371.84	458.74
372.04	376.83
372.24	421.30
372.44	395.55
372.63	472.79
372.83	512.58
373.03	503.22
373.22	566.41
373.42	524.28
373.62	521.94
373.81	566.41
374.01	482.15
374.21	526.62
374.40	524.28
374.60	615.56
374.79	564.07
374.99	528.96
375.19	559.39
375.38	582.79
375.58	622.58
375.78	578.11
375.97	519.60
376.17	627.26
376.37	566.41
376.56	629.60
376.76	592.16
376.95	674.07
377.15	608.54
377.35	629.60
377.54	629.60
377.74	622.58
377.93	566.41
378.13	610.88
378.33	683.44
378.52	653.01
378.72	683.44
378.91	648.33
379.11	615.56
379.31	578.11
379.50	573.43
379.70	650.67
379.89	692.80
380.09	697.48
380.28	645.99
380.48	596.84
380.68	596.84
380.87	643.65
381.07	655.35
381.26	767.70
381.46	653.01
381.65	613.22
381.85	657.69
382.04	730.25
382.24	692.80
382.43	711.52
382.63	606.20
382.83	746.63
383.02	755.99
383.22	655.35
383.41	758.33
383.61	681.10
383.80	711.52
384.00	807.48
384.19	748.97
384.39	711.52
384.58	730.25
384.78	842.59
384.97	795.78
385.17	748.97
385.36	798.12
385.56	709.18
385.75	809.83
385.95	830.89
386.14	758.33
386.34	716.20
386.53	863.66
386.72	746.63
386.92	786.42
387.11	812.17
387.31	837.91
387.50	788.76
387.70	828.55
387.89	828.55
388.09	809.83
388.28	814.51
388.48	786.42
388.67	875.36
388.86	903.45
389.06	875.36
389.25	990.05
389.45	905.79
389.64	910.47
389.84	936.21
390.03	980.68
390.22	945.58
390.42	882.38
390.61	968.98
390.81	961.96
391.00	999.41
391.19	1036.86
391.39	976.00
391.58	1006.43
391.78	889.40
391.97	976.00
392.16	1041.54
392.36	1015.79
392.55	945.58
392.75	994.73
392.94	919.83
393.13	968.98
393.33	933.87
393.52	1086.01
393.71	985.37
393.91	1018.13
394.10	1027.50
394.29	1067.28
394.49	1053.24
394.68	1196.01
394.88	1097.71
395.07	1041.54
395.26	1188.99
395.46	1109.41
395.65	1198.35
395.84	1193.67
396.04	1245.16
396.23	1078.99
396.42	1076.65
396.62	1067.28
396.81	1118.78
397.00	1083.67
397.19	1188.99
397.39	1193.67
397.58	1254.53
397.77	1156.22
397.97	1256.87
398.16	1336.45
398.35	1291.98
398.55	1296.66
398.74	1268.57
398.93	1313.04
399.12	1350.49
399.32	1345.81
399.51	1343.47
399.70	1434.75
399.90	1282.61
400.09	1432.41
400.28	1453.47
400.47	1483.90
400.67	1437.09
400.86	1432.41
401.05	1362.19
401.24	1434.75
401.44	1533.05
401.63	1535.39
401.82	1568.16
402.01	1500.28
402.21	1425.39
402.40	1486.24
402.59	1577.52
402.78	1523.69
402.97	1612.63
403.17	1626.67
403.36	1650.08
403.55	1643.06
403.74	1584.54
403.93	1614.97
404.13	1591.56
404.32	1603.27
404.51	1633.69
404.70	1666.46
404.89	1715.61
405.09	1802.21
405.28	1645.40
405.47	1689.87
405.66	1724.97
405.85	1741.36
406.05	1678.16
406.24	1743.70
406.43	1748.38
406.62	1741.36
406.81	1982.43
407.00	1795.19
407.20	1806.89
407.39	1863.07
407.58	1853.70
407.77	1956.69
407.96	1942.64
408.15	2012.86
408.34	1980.09
408.54	2066.69
408.73	1987.11
408.92	2029.24
409.11	2064.35
409.30	2136.91
409.49	1879.45
409.68	2078.40
409.87	2092.44
410.07	2050.31
410.26	2235.21
410.45	2085.42
410.64	2076.06
410.83	2230.53
411.02	2244.57
411.21	2305.43
411.40	2211.81
411.59	2356.92
411.78	2260.96
411.98	2387.35
412.17	2286.70
412.36	2410.75
412.55	2345.22
412.74	2459.90
412.93	2389.69
413.12	2511.39
413.31	2513.74
413.50	2499.69
413.69	2689.28
413.88	2616.72
414.07	2572.25
414.26	2553.52
414.45	2562.89
414.64	2708.00
414.83	2668.21
415.02	2642.46
415.22	2722.04
415.41	2726.72
415.60	2848.43
415.79	2834.39
415.98	2846.09
416.17	2813.32
416.36	2977.16
416.55	2897.58
416.74	2906.95
416.93	2949.08
417.12	2911.63
417.31	2956.10
417.50	3077.80
417.69	3105.89
417.88	3105.89
418.07	3075.46
418.26	3033.33
418.45	3119.93
418.64	3157.38
418.83	3220.58
419.02	3063.76
419.21	3087.17
419.39	3204.19
419.58	3180.79
419.77	3145.68
419.96	3281.43
420.15	3258.03
420.34	3302.50
420.53	3316.54
420.72	3384.41
420.91	3318.88
421.10	3459.31
421.29	3421.86
421.48	3405.48
421.67	3447.61
421.86	3346.97
422.05	3356.33
422.24	3424.20
422.43	3473.36
422.61	3442.93
422.80	3639.53
422.99	3487.40
423.18	3456.97
423.37	3590.38
423.56	3578.68
423.75	3651.24
423.94	3459.31
424.13	3328.24
424.32	3494.42
424.50	3667.62
424.69	3611.45
424.88	3548.25
425.07	3468.67
425.26	3410.16
425.45	3452.29
425.64	3606.77
425.83	3482.72
426.01	3609.11
426.20	3637.19
426.39	3611.45
426.58	3602.08
426.77	3527.19
426.96	3618.47
427.15	3641.87
427.33	3660.60
427.52	3641.87
427.71	3754.22
427.90	3742.52
428.09	3705.07
428.28	3761.24
428.46	3768.26
428.65	3702.73
428.84	3798.69
429.03	3953.16
429.22	3583.36
429.40	3843.16
429.59	3796.35
429.78	3658.26
429.97	3672.30
430.16	3714.43
430.34	3702.73
430.53	3901.67
430.72	3885.29
430.91	3939.12
431.10	3988.27
431.28	4067.85
431.47	4093.60
431.66	4177.86
431.85	4088.92
432.03	4102.96
432.22	4418.93
432.41	4177.86
432.60	4128.70
432.79	4229.35
432.97	4170.83
433.16	4065.51
433.35	4114.66
433.54	4215.30
433.72	4271.48
433.91	4175.52
434.10	4365.10
434.28	4280.84
434.47	4374.46
434.66	4355.74
434.85	4493.83
435.03	4503.19
435.22	4547.66
435.41	4620.22
435.59	4620.22
435.78	4573.41
435.97	4697.46
436.16	4671.71
436.34	4596.81
436.53	4669.37
436.72	4753.63
436.90	4601.49
437.09	4709.16
437.28	4496.17
437.46	4718.52
437.65	4652.98
437.84	4669.37
438.02	4641.28
438.21	4676.39
438.40	4723.20
438.58	4912.78
438.77	4971.30
438.96	4950.23
439.14	4898.74
439.33	4994.70
439.52	5118.75
439.70	5069.60
439.89	5004.07
440.08	5184.29
440.26	5064.92
440.45	5146.84
440.63	5376.21
440.82	5329.40
441.01	5249.82
441.19	5343.44
441.38	5322.38
441.57	5479.19
441.75	5533.03
441.94	5682.82
442.12	5650.05
442.31	5764.74
442.50	5701.54
442.68	5612.60
442.87	5708.57
443.05	5540.05
443.24	5713.25
443.43	5856.02
443.61	5792.83
443.80	6040.92
443.98	5905.17
444.17	5727.29
444.35	5799.85
444.54	5914.53
444.73	5874.74
444.91	5832.62
445.10	5678.14
445.28	5769.42
445.47	5738.99
445.65	5671.12
445.84	5888.79
446.02	5895.81
446.21	6022.20
446.39	5797.51
446.58	5891.13
446.77	5956.66
446.95	5792.83
447.14	6061.99
447.32	6132.20
447.51	6033.90
447.69	6012.84
447.88	5991.77
448.06	5973.05
448.25	6090.07
448.43	6087.73
448.62	5902.83
448.80	6059.65
448.99	6186.04
449.17	6029.22
449.36	6054.97
449.54	6237.53
449.73	6347.53
449.91	6427.11
450.10	6450.52
450.28	6534.78
450.46	6558.18
450.65	6553.50
450.83	6436.47
451.02	6408.39
451.20	6399.02
451.39	6317.11
451.57	6497.33
451.76	6443.49
451.94	6644.78
452.13	6558.18
452.31	6483.28
452.49	6408.39
452.68	6436.47
452.86	6406.05
453.05	6443.49
453.23	6579.25
453.42	6600.31
453.60	6502.01
453.78	6731.38
453.97	6679.89
454.15	6684.57
454.34	6588.61
454.52	6780.53
454.70	6738.40
454.89	6745.42
455.07	6876.49
455.26	6853.09
455.44	6860.11
455.62	6906.92
455.81	6995.86
455.99	6944.37
456.17	7070.76
456.36	7126.93
456.54	6925.65
456.73	6899.90
456.91	7297.79
457.09	7194.81
457.28	7480.35
457.46	7145.66
457.64	7225.23
457.83	7239.28
458.01	7194.81
458.19	7379.71
458.38	7279.07
458.56	7417.16
458.74	7506.10
458.93	7414.82
459.11	7386.73
459.29	7527.16
459.48	7641.85
459.66	7527.16
459.84	7463.97
460.03	7728.45
460.21	7730.79
460.39	7599.72
460.57	7522.48
460.76	7611.42
460.94	7838.45
461.12	7908.67
461.31	7756.54
461.49	7569.29
461.67	7700.36
461.85	8060.80
462.04	8009.31
462.22	8264.43
462.40	8238.69
462.59	7702.70
462.77	7936.76
462.95	7873.56
463.13	7868.88
463.32	7985.91
463.50	8112.30
463.68	8074.85
463.86	7976.55
464.05	7899.31
464.23	8184.85
464.41	8053.78
464.59	8079.53
464.78	8397.84
464.96	8215.28
465.14	7981.23
465.32	8404.86
465.50	8407.20
465.69	8400.18
465.87	8402.52
466.05	8344.01
466.23	8388.48
466.41	8477.42
466.60	8519.55
466.78	8327.63
466.96	8329.97
467.14	8423.59
467.32	8566.36
467.51	8587.43
467.69	8322.94
467.87	8617.85
468.05	8772.33
468.23	8645.94
468.41	8526.57
468.60	8571.04
468.78	8643.60
468.96	8610.83
469.14	8823.82
469.32	8868.29
469.50	8631.90
469.69	8758.28
469.87	8830.84
470.05	8922.12
470.23	8950.21
470.41	8940.85
470.59	9135.11
470.77	8894.04
470.95	9004.04
471.14	9226.39
471.32	9088.30
471.50	9362.14
471.68	9247.46
471.86	9245.12
472.04	9231.07
472.22	9371.50
472.40	9273.20
472.58	9439.38
472.77	9565.77
472.95	9575.13
473.13	9816.21
473.31	9612.58
473.49	9643.01
473.67	9621.94
473.85	9841.95
474.03	9975.36
474.21	9877.06
474.39	10157.92
474.57	9954.30
474.75	9949.62
474.93	10115.80
475.12	10242.18
475.30	10209.42
475.48	10127.50
475.66	10347.51
475.84	10289.00
476.02	10480.92
476.20	10183.67
476.38	10689.23
476.56	10789.87
476.74	10846.04
476.92	10649.44
477.10	10822.64
477.28	11169.04
477.46	11105.84
477.64	11070.73
477.82	11234.57
478.00	11316.49
478.18	11417.13
478.36	11440.54
478.54	11599.70
478.72	11644.17
478.90	11674.59
479.08	11878.22
479.26	11978.86
479.44	12105.25
479.62	12112.27
479.80	11955.46
479.98	12119.29
480.16	12439.95
480.34	12346.33
480.52	12535.91
480.70	12526.55
480.88	12140.36
481.06	12580.38
481.24	12510.16
481.41	12917.42
481.59	13039.12
481.77	13329.35
481.95	13090.62
482.13	13523.62
482.31	13277.86
482.49	13523.62
482.67	13668.73
482.85	13540.00
483.03	13729.58
483.21	14092.37
483.39	13937.89
483.57	13776.39
483.74	14061.94
483.92	14497.28
484.10	14064.28
484.28	14658.78
484.46	14743.03
484.64	14930.28
484.82	14698.56
485.00	14696.22
485.18	15187.74
485.35	15019.22
485.53	15129.22
485.71	15220.50
485.89	15243.91
486.07	15449.88
486.25	15152.63
486.43	15644.14
486.61	15620.74
486.78	15798.62
486.96	15807.98
487.14	16126.29
487.32	16290.13
487.50	16638.87
487.68	16912.71
487.85	16725.47
488.03	17022.72
488.21	17263.79
488.39	17200.60
488.57	17521.25
488.75	17476.78
488.92	17612.53
489.10	17671.04
489.28	17823.18
489.46	18143.83
489.64	17841.90
489.81	18242.14
489.99	18466.83
490.17	18457.46
490.35	18691.52
490.53	18473.85
490.70	18689.18
490.88	18618.96
491.06	19115.16
491.24	19019.19
491.41	18895.14
491.59	19122.18
491.77	18897.49
491.95	19131.54
492.13	19573.90
492.30	19962.43
492.48	20114.56
492.66	19999.88
492.84	20126.27
493.01	20353.30
493.19	20379.04
493.37	20397.77
493.54	20355.64
493.72	20723.10
493.90	20783.96
494.08	21022.69
494.25	21223.98
494.43	21123.33
494.61	21273.13
494.79	21446.33
494.96	21582.08
495.14	21425.26
495.32	21785.71
495.49	21598.46
495.67	22050.19
495.85	21741.24
496.02	22160.19
496.20	22356.80
496.38	22277.22
496.55	22501.91
496.73	23080.02
496.91	22796.82
497.09	23143.22
497.26	23332.80
497.44	22991.08
497.62	23250.88
497.79	23246.20
497.97	23484.94
498.14	23564.51
498.32	23473.23
498.50	23604.30
498.67	23768.14
498.85	24383.70
499.03	24051.34
499.20	24013.90
499.38	24383.70
499.56	24320.51
499.73	24510.09
499.91	24561.58
500.08	24783.93
500.26	24507.75
500.44	24444.56
500.61	24779.25
500.79	24486.68
500.97	25003.94
501.14	25142.03
501.32	25062.46
501.49	25158.42
501.67	25371.41
501.84	25273.10
502.02	25462.69
502.20	25771.64
502.37	25579.71
502.55	25893.35
502.72	26265.49
502.90	25947.18
503.07	25881.64
503.25	26136.76
503.43	25919.09
503.60	26309.96
503.78	26122.72
503.95	26302.94
504.13	26401.24
504.30	27042.55
504.48	26448.05
504.65	26635.30
504.83	27035.53
505.01	26955.95
505.18	26960.63
505.36	27281.28
505.53	27304.69
505.71	27463.85
505.88	27557.47
506.06	27051.91
506.23	27744.71
506.41	27234.47
506.58	27646.41
506.76	27683.86
506.93	27927.27
507.11	27520.02
507.28	27751.73
507.46	27887.48
507.63	28112.17
507.81	28325.16
507.98	28070.04
508.16	28364.95
508.33	28594.32
508.50	28423.47
508.68	28418.78
508.85	28788.59
509.03	28664.54
509.20	28950.09
509.38	29116.26
509.55	29275.42
509.73	28854.12
509.90	29261.38
510.08	29340.96
510.25	29179.46
510.42	29434.58
510.60	29703.74
510.77	29745.87
510.95	29539.90
511.12	29626.50
511.30	29420.53
511.47	30153.12
511.64	30192.91
511.82	30532.29
511.99	29752.89
512.17	29867.58
512.34	29811.40
512.51	30160.14
512.69	30684.42
512.86	30501.86
513.04	30525.27
513.21	30754.64
513.38	30314.62
513.56	30693.79
513.73	30693.79
513.90	31042.53
514.08	31002.74
514.25	30752.30
514.43	30937.20
514.60	30824.86
514.77	31239.13
514.95	31407.65
515.12	31126.78
515.29	31419.35
515.47	31590.21
515.64	31880.44
515.81	31889.80
515.99	31728.30
516.16	31800.86
516.33	31632.34
516.51	31681.49
516.68	31435.74
516.85	31402.97
517.03	31826.60
517.20	31775.11
517.37	31896.82
517.54	32479.61
517.72	32177.68
517.89	32451.53
518.06	32474.93
518.24	32147.26
518.41	32119.17
518.58	32325.14
518.75	32027.89
518.93	32907.93
519.10	32818.99
519.27	32947.72
519.45	32905.59
519.62	33139.65
519.79	33041.34
519.96	33090.49
520.14	33441.57
520.31	33263.69
520.48	33415.83
520.65	33827.76
520.83	34209.27
521.00	33771.59
521.17	33488.38
521.34	33551.58
521.52	33823.08
521.69	33979.90
521.86	34478.43
522.03	33956.49
522.20	33965.85
522.38	34071.18
522.55	34469.07
522.72	33998.62
522.89	34260.76
523.07	34417.58
523.24	34529.92
523.41	34443.32
523.58	34349.70
523.75	34527.58
523.92	34569.71
524.10	34848.24
524.27	35199.32
524.44	35047.18
524.61	34906.75
524.78	35117.40
524.96	35246.13
525.13	35365.49
525.30	35711.89
525.47	35470.82
525.64	35562.10
525.81	34836.53
525.98	35592.53
526.16	35154.85
526.33	35232.08
526.50	35700.19
526.67	35384.22
526.84	35421.67
527.01	35061.22
527.18	35723.60
527.36	35938.93
527.53	35819.56
527.70	36168.30
527.87	36032.55
528.04	36023.19
528.21	36498.31
528.38	36168.30
528.55	36346.18
528.72	36325.11
528.89	36608.32
529.07	36603.64
529.24	36458.52
529.41	36765.14
529.58	36830.67
529.75	36683.22
529.92	37106.85
530.09	37172.39
530.26	37270.69
530.43	37067.06
530.60	36648.11
530.77	37041.32
530.94	37368.99
531.11	37343.25
531.28	37476.66
531.46	37467.30
531.63	37324.52
531.80	37219.20
531.97	37244.94
532.14	37397.08
532.31	37347.93
532.48	37205.16
532.65	37989.24
532.82	37605.39
532.99	38026.68
533.16	37614.75
533.33	37724.75
533.50	38050.09
533.67	37574.96
533.84	37525.81
534.01	37846.46
534.18	37729.44
534.35	38253.72
534.52	38052.43
534.69	37848.80
534.86	38382.45
535.03	38017.32
535.20	38487.77
535.37	38951.20
535.54	38895.02
535.71	38504.15
535.88	38712.46
536.05	38197.54
536.22	38691.40
536.38	38504.15
536.55	38782.68
536.72	38679.69
536.89	38440.96
537.06	38778.00
537.23	38822.47
537.40	38794.38
537.57	38895.02
537.74	39164.18
537.91	39335.04
538.08	39225.04
538.25	38586.07
538.42	39515.26
538.59	39313.98
538.75	38951.20
538.92	38733.53
539.09	39269.51
539.26	39037.80
539.43	39421.64
539.60	39744.64
539.77	39100.99
539.94	39440.37
540.11	39735.27
540.28	39133.76
540.44	39206.31
540.61	39363.13
540.78	39323.34
540.95	39452.07
541.12	39337.38
541.29	39494.20
541.46	39536.33
541.62	39672.08
541.79	40135.51
541.96	39590.16
542.13	40109.76
542.30	40086.36
542.47	40282.96
542.63	40196.36
542.80	40498.29
542.97	40275.94
543.14	40699.58
543.31	40533.40
543.48	40741.71
543.64	40961.72
543.81	40500.63
543.98	40596.59
544.15	40488.93
544.32	41074.06
544.48	40961.72
544.65	40987.46
544.82	40399.99
544.99	40467.86
545.16	40905.54
545.32	40336.79
545.49	40954.69
545.66	41041.29
545.83	41284.71
546.00	41504.72
546.16	41212.15
546.33	41029.59
546.50	40615.32
546.67	41319.82
546.83	41099.81
547.00	40957.03
547.17	40919.59
547.34	41329.18
547.50	41373.65
547.67	41476.63
547.84	41610.04
548.00	41759.84
548.17	41544.51
548.34	41837.08
548.51	41689.62
548.67	41982.19
548.84	41766.86
549.01	41476.63
549.18	41453.23
549.34	41696.64
549.51	41890.91
549.68	42054.75
549.84	41874.52
550.01	42057.09
550.18	41748.14
550.34	41837.08
550.51	41841.76
550.68	41975.17
550.84	41364.29
551.01	42103.90
551.18	42019.64
551.34	42005.59
551.51	41970.49
551.68	42110.92
551.84	42192.84
552.01	41911.97
552.18	42272.42
552.34	41869.84
552.51	42714.78
552.68	42497.11
552.84	42742.86
553.01	42450.30
553.18	42630.52
553.34	42447.96
553.51	42286.46
553.67	42939.47
553.84	42871.59
554.01	42553.28
554.17	42873.93
554.34	42674.99
554.51	42590.73
554.67	43276.51
554.84	42534.56
555.00	42637.54
555.17	42513.49
555.33	42932.45
555.50	42841.17
555.67	43157.14
555.83	42625.84
556.00	43068.20
556.16	43662.69
556.33	43215.65
556.50	43049.47
556.66	43648.65
556.83	43026.07
556.99	43107.99
557.16	43318.64
557.32	43398.21
557.49	43409.92
557.65	42527.53
557.82	42983.94
557.98	42850.53
558.15	42897.34
558.32	43442.68
558.48	43206.29
558.65	43079.90
558.81	43524.60
558.98	43194.59
559.14	43440.34
559.31	43627.59
559.47	43756.32
559.64	43863.98
559.80	43597.16
559.97	43697.80
560.13	43316.29
560.30	43295.23
560.46	43716.53
560.63	43447.36
560.79	43648.65
560.96	43594.82
561.12	43566.73
561.29	43428.64
561.45	43971.64
561.61	43906.11
561.78	43676.74
561.94	43569.07
562.11	43693.12
562.27	43604.18
562.44	43845.26
562.60	43761.00
562.77	43985.69
562.93	43711.84
563.10	44325.07
563.26	43599.50
563.42	43847.60
563.59	43957.60
563.75	43981.01
563.92	44409.32
564.08	43927.17
564.24	44404.64
564.41	44130.80
564.57	44140.16
564.74	43950.58
564.90	44364.85
565.07	43988.03
565.23	43770.36
565.39	43559.71
565.56	44252.51
565.72	43997.39
565.88	44081.65
566.05	44179.95
566.21	44229.10
566.38	43693.12
566.54	44404.64
566.70	44055.90
566.87	44418.69
567.03	44268.89
567.19	44603.59
567.36	44289.96
567.52	44037.18
567.68	44416.35
567.85	43962.28
568.01	44676.15
568.17	44540.39
568.34	44156.55
568.50	43810.15
568.66	44325.07
568.83	44509.97
568.99	44062.93
569.15	44175.27
569.32	44259.53
569.48	44320.38
569.64	44580.18
569.81	44509.97
569.97	43859.30
570.13	44107.40
570.30	43814.83
570.46	44121.44
570.62	43988.03
570.78	44341.45
570.95	44561.46
571.11	44828.28
571.27	43917.81
571.43	44484.22
571.60	44397.62
571.76	44069.95
571.92	44121.44
572.09	44437.41
572.25	44238.47
572.41	44322.72
572.57	44243.15
572.74	44713.59
572.90	44711.25
573.06	44521.67
573.22	44289.96
573.38	44507.63
573.55	44282.94
573.71	44774.45
573.87	44418.69
574.03	44278.25
574.20	44626.99
574.36	44453.79
574.52	44711.25
574.68	44538.05
574.84	44137.82
575.01	44765.09
575.17	44451.45
575.33	44385.92
575.49	44313.36
575.65	44858.71
575.82	44645.72
575.98	44456.14
576.14	44942.97
576.30	44821.26
576.46	44357.83
576.62	44025.48
576.79	44390.60
576.95	44039.52
577.11	44346.13
577.27	44516.99
577.43	44715.93
577.59	45031.91
577.75	44552.10
577.92	44341.45
578.08	44259.53
578.24	44294.64
578.40	44402.30
578.56	44392.94
578.72	44493.58
578.88	44446.77
579.04	44456.14
579.21	44521.67
579.37	44287.62
579.53	44547.42
579.69	44580.18
579.85	44516.99
580.01	44360.17
580.17	44732.32
580.33	44924.24
580.49	44765.09
580.65	45102.12
580.82	44577.84
580.98	44479.54
581.14	44430.39
581.30	44893.82
581.46	44751.04
581.62	44779.13
581.78	44701.89
581.94	45010.84
582.10	44868.07
582.26	45020.20
582.42	44765.09
582.58	45001.48
582.74	44809.56
582.90	44568.48
583.06	45022.54
583.22	44603.59
583.38	44465.50
583.54	44451.45
583.70	44825.94
583.86	44540.39
584.02	44247.83
584.18	44818.92
584.34	44949.99
584.50	45043.61
584.66	44861.05
584.82	44746.36
584.98	45001.48
585.14	44818.92
585.30	44598.91
585.46	44486.56
585.62	44477.20
585.78	44378.90
585.94	44575.50
586.10	44369.54
586.26	44612.95
586.42	45109.14
586.58	45008.50
586.74	44896.16
586.90	44704.23
587.06	44275.91
587.22	44877.43
587.38	44708.91
587.54	44921.90
587.70	44783.81
587.86	44954.67
588.02	45242.56
588.18	44949.99
588.34	45057.65
588.49	44839.98
588.65	44538.05
588.81	44622.31
588.97	44694.87
589.13	44734.66
589.29	44900.84
589.45	44711.25
589.61	44711.25
589.77	45048.29
589.93	44758.06
590.08	44751.04
590.24	45258.94
590.40	45041.27
590.56	45254.26
590.72	45270.64
590.88	44442.09
591.04	44624.65
591.20	45310.43
591.35	45102.12
591.51	45144.25
591.67	44912.54
591.83	44985.10
591.99	45322.13
592.15	44617.63
592.31	45052.97
592.46	44980.42
592.62	44617.63
592.78	45003.82
592.94	44828.28
593.10	44863.39
593.26	45453.20
593.41	45127.87
593.57	44954.67
593.73	44456.14
593.89	45097.44
594.05	44924.24
594.20	45162.98
594.36	45399.37
594.52	45008.50
594.68	45364.26
594.84	44783.81
594.99	44905.52
595.15	45240.21
595.31	45500.01
595.47	45319.79
595.62	44954.67
595.78	45174.68
595.94	45219.15
596.10	45581.93
596.25	45457.88
596.41	45261.28
596.57	45284.68
596.73	45207.45
596.88	45207.45
597.04	45003.82
597.20	45240.21
597.36	45017.86
597.51	45551.51
597.67	44905.52
597.83	45705.98
597.99	45144.25
598.14	45076.38
598.30	45195.74
598.46	45319.79
598.61	45244.90
598.77	45085.74
598.93	45003.82
599.09	45155.96
599.24	45144.25
599.40	45240.21
599.56	45490.65
599.71	45560.87
599.87	45495.33
600.03	45172.34
600.18	45188.72
600.34	45308.09
600.50	44921.90
600.65	44949.99
600.81	45272.98
600.97	45612.36
601.12	45684.92
601.28	44945.31
601.44	45186.38
601.59	44900.84
601.75	45298.73
601.91	45095.10
602.06	44896.16
602.22	45237.87
602.37	45251.92
602.53	45146.59
602.69	45343.20
602.84	45392.35
603.00	45361.92
603.16	45380.65
603.31	45322.13
603.47	44835.30
603.62	44755.72
603.78	45123.19
603.94	45366.60
604.09	45170.00
604.25	45382.99
604.40	44926.58
604.56	45490.65
604.71	45006.16
604.87	45216.81
605.03	44903.18
605.18	44615.29
605.34	44828.28
605.49	44786.15
605.65	45294.05
605.80	45329.16
605.96	45001.48
606.12	44793.17
606.27	45661.51
606.43	44992.12
606.58	45069.36
606.74	44795.51
606.89	44938.29
607.05	44907.86
607.20	45247.24
607.36	45048.29
607.51	44903.18
607.67	45385.33
607.82	44870.41
607.98	44952.33
608.13	44802.53
608.29	44844.66
608.44	44018.46
608.60	44718.28
608.75	44582.52
608.91	44591.89
609.06	44718.28
609.22	44975.73
609.37	44498.26
609.53	45013.18
609.68	45010.84
609.84	44601.25
609.99	44519.33
610.15	44406.98
610.30	44587.21
610.46	44219.74
610.61	44374.22
610.76	44652.74
610.92	44453.79
611.07	44479.54
611.23	44704.23
611.38	44545.08
611.54	44587.21
611.69	44044.20
611.84	44346.13
612.00	44669.12
612.15	44690.19
612.31	44622.31
612.46	44474.86
612.62	44715.93
612.77	44453.79
612.92	44921.90
613.08	43835.89
613.23	44495.92
613.39	44313.36
613.54	44055.90
613.69	44376.56
613.85	43992.71
614.00	44648.06
614.15	44964.03
614.31	44467.84
614.46	44182.29
614.62	44325.07
614.77	44039.52
614.92	44098.03
615.08	43941.22
615.23	43917.81
615.38	44287.62
615.54	43971.64
615.69	44023.14
615.84	43683.76
616.00	44313.36
616.15	43966.96
616.30	44161.23
616.46	43714.19
616.61	43672.06
616.76	43325.66
616.92	43892.07
617.07	43580.78
617.22	43917.81
617.37	43658.01
617.53	43447.36
617.68	43725.89
617.83	43704.82
617.99	43587.80
618.14	44023.14
618.29	43161.82
618.45	43763.34
618.60	43433.32
618.75	43688.44
618.90	43761.00
619.06	43643.97
619.21	43466.09
619.36	43515.24
619.51	43590.14
619.67	43533.96
619.82	43611.20
619.97	43386.51
620.12	43250.76
620.28	42958.19
620.43	43342.04
620.58	43419.28
620.73	43653.33
620.89	43168.84
621.04	43166.50
621.19	43313.95
621.34	43330.34
621.49	42955.85
621.65	42768.61
621.80	43592.48
621.95	42710.10
622.10	43318.64
622.25	42871.59
622.41	43002.66
622.56	42962.87
622.71	43487.15
622.86	42972.24
623.01	42925.42
623.16	42899.68
623.32	43103.31
623.47	43236.72
623.62	43096.28
623.77	42663.28
623.92	42916.06
624.07	42738.18
624.23	42307.52
624.38	42651.58
624.53	42909.04
624.68	42831.80
624.83	42824.78
624.98	42810.74
625.13	42309.86
625.29	42328.59
625.44	42616.47
625.59	42628.18
625.74	42134.32
625.89	42153.05
626.04	42033.68
626.19	41918.99
626.34	42553.28
626.49	42286.46
626.65	42541.58
626.80	42359.02
626.95	42309.86
627.10	42164.75
627.25	41984.53
627.40	41755.16
627.55	41940.06
627.70	41675.58
627.85	41514.08
628.00	41783.24
628.15	42319.23
628.30	42075.81
628.45	42087.51
628.60	42026.66
628.76	42349.65
628.91	42150.71
629.06	41935.38
629.21	42300.50
629.36	41972.83
629.51	41900.27
629.66	41708.35
629.81	42017.30
629.96	41846.44
630.11	41813.67
630.26	41888.57
630.41	41542.17
630.56	41289.39
630.71	41748.14
630.86	41949.42
631.01	41706.01
631.16	41858.14
631.31	41172.36
631.46	41024.91
631.61	41230.88
631.76	41312.80
631.91	41577.28
632.06	41556.21
632.21	41265.99
632.36	41446.21
632.51	41418.12
632.66	41233.22
632.81	40755.75
632.96	40711.28
633.10	40811.92
633.25	41434.50
633.40	41088.10
633.55	41504.72
633.70	41322.16
633.85	41024.91
634.00	41120.87
634.15	40734.68
634.30	40975.76
634.45	41127.89
634.60	40821.28
634.75	40886.82
634.90	41139.60
635.05	40683.19
635.19	41029.59
635.34	40971.08
635.49	40753.41
635.64	40657.45
635.79	40563.82
635.94	40472.54
636.09	40847.03
636.24	40444.46
636.39	40458.50
636.53	40584.89
636.68	40102.74
636.83	40388.28
636.98	40615.32
637.13	40048.91
637.28	40371.90
637.43	40528.72
637.57	40645.74
637.72	39990.39
637.87	40304.02
638.02	40807.24
638.17	40573.19
638.32	40069.97
638.46	40114.44
638.61	39878.05
638.76	40215.08
638.91	40179.98
639.06	39856.98
639.20	40250.19
639.35	40601.27
639.50	40147.21
639.65	40636.38
639.80	40250.19
639.94	40016.14
640.09	39674.42
640.24	39854.64
640.39	39761.02
640.54	39882.73
640.68	39594.84
640.83	39585.48
640.98	40346.15
641.13	39452.07
641.27	40292.32
641.42	39798.47
641.57	39838.26
641.72	39941.24
641.86	39349.09
642.01	39571.44
642.16	39627.61
642.31	39005.03
642.45	39323.34
642.60	38974.60
642.75	38958.22
642.90	39246.10
643.04	39342.06
643.19	39077.58
643.34	39276.53
643.48	39243.76
643.63	39257.81
643.78	39367.81
643.93	39075.24
644.07	38707.78
644.22	39302.28
644.37	38586.07
644.51	39054.18
644.66	39325.68
644.81	38923.11
644.95	39283.55
645.10	38913.75
645.25	39210.99
645.39	39332.70
645.54	39330.36
645.69	39285.89
645.83	38869.28
645.98	39033.11
646.13	39473.13
646.27	38988.64
646.42	38738.21
646.57	38974.60
646.71	38560.33
646.86	39105.67
647.00	38696.08
647.15	39065.88
647.30	38557.99
647.44	38761.61
647.59	38792.04
647.74	38595.43
647.88	38506.49
648.03	38726.50
648.17	38682.03
648.32	38667.99
648.47	38354.36
648.61	38560.33
648.76	39014.39
648.90	38333.29
649.05	38686.71
649.20	38602.46
649.34	38576.71
649.49	38380.10
649.63	38485.43
649.78	38127.33
649.92	38143.71
650.07	38426.92
650.21	38223.29
650.36	38515.86
650.51	38384.79
650.65	38508.83
650.80	38506.49
650.94	38263.08
651.09	37968.17
651.23	38188.18
651.38	38349.68
651.52	37970.51
651.67	37839.44
651.81	37790.29
651.96	37851.14
652.10	37919.02
652.25	37771.57
652.39	37841.78
652.54	37893.27
652.68	37984.55
652.83	37940.08
652.97	37914.34
653.12	37930.72
653.26	37724.75
653.41	38040.73
653.55	37780.93
653.70	37633.47
653.84	37748.16
653.99	37933.06
654.13	38059.45
654.27	37408.78
654.42	37523.47
654.56	37376.01
654.71	37713.05
654.85	37874.55
655.00	37593.68
655.14	37015.57
655.29	37003.87
655.43	37401.76
655.57	37273.03
655.72	37373.67
655.86	37361.97
656.01	37074.09
656.15	36837.69
656.30	37062.38
656.44	37319.84
656.58	37085.79
656.73	36868.12
656.87	36903.23
657.01	36847.05
657.16	36664.49
657.30	36624.70
657.45	36570.87
657.59	36580.23
657.73	36542.78
657.88	37076.43
658.02	36385.97
658.16	36687.90
658.31	36809.61
658.45	36811.95
658.60	36648.11
658.74	36790.88
658.88	36978.12
659.03	36603.64
659.17	36816.63
659.31	36673.85
659.46	36428.10
659.60	36503.00
659.74	36605.98
659.89	36107.44
660.03	35899.14
660.17	36196.38
660.32	36315.75
660.46	36313.41
660.60	36304.05
660.74	36306.39
660.89	36392.99
661.03	35866.37
661.17	36067.66
661.32	35545.72
661.46	35356.13
661.60	35393.58
661.74	35700.19
661.89	35534.01
662.03	35463.80
662.17	35709.55
662.31	35454.44
662.46	35955.31
662.60	35463.80
662.74	35328.05
662.88	35505.93
663.03	35168.89
663.17	35360.81
663.31	35218.04
663.45	35241.45
663.60	35468.48
663.74	35201.66
663.88	34892.71
664.02	35065.91
664.17	35122.08
664.31	34632.91
664.45	34506.52
664.59	35007.39
664.73	34808.45
664.88	34848.24
665.02	34747.59
665.16	34731.21
665.30	34328.64
665.44	34511.20
665.59	34445.66
665.73	34366.09
665.87	34499.50
666.01	34398.85
666.15	34499.50
666.29	34389.49
666.44	34043.09
666.58	34227.99
666.72	34183.52
666.86	34263.10
667.00	34160.12
667.14	33809.04
667.28	34089.90
667.43	33553.92
667.57	34106.29
667.71	33565.62
667.85	33532.86
667.99	33720.10
668.13	33476.68
668.27	33427.53
668.41	33476.68
668.56	33305.82
668.70	33551.58
668.84	33280.08
668.98	33078.79
669.12	32994.53
669.26	33383.06
669.40	33078.79
669.54	32634.09
669.68	33254.33
669.82	33069.43
669.96	33074.11
670.10	32781.54
670.25	33022.62
670.39	32671.54
670.53	32704.31
670.67	32184.71
670.81	32421.10
670.95	32863.46
671.09	32622.39
671.23	32664.52
671.37	32573.24
671.51	32481.95
671.65	32378.97
671.79	32020.87
671.93	31761.07
672.07	32060.66
672.21	31796.18
672.35	31955.33
672.49	31669.79
672.63	31899.16
672.77	31807.88
672.91	31758.73
673.05	31723.62
673.19	31299.98
673.33	31585.53
673.47	31159.55
673.61	31197.00
673.75	31040.18
673.89	31241.47
674.03	30866.98
674.17	31058.91
674.31	31138.49
674.45	30974.65
674.59	31222.75
674.73	30967.63
674.87	31262.54
675.01	31026.14
675.15	30789.75
675.29	30665.70
675.43	30204.61
675.56	30661.02
675.70	30197.59
675.84	30394.20
675.98	29476.71
676.12	30171.85
676.26	29930.77
676.40	29699.06
676.54	29762.25
676.68	29890.98
676.82	29584.37
676.96	29317.55
677.10	29502.45
677.23	29303.51
677.37	29474.37
677.51	29027.32
677.65	29319.89
677.79	28809.65
677.93	29184.14
678.07	29008.60
678.21	28671.56
678.34	28521.77
678.48	28346.23
678.62	28329.84
678.76	28374.31
678.90	28327.50
679.04	28657.52
679.18	28510.07
679.31	28156.64
679.45	27899.19
679.59	27510.66
679.73	27728.33
679.87	27669.81
680.00	27594.92
680.14	27700.24
680.28	27445.12
680.42	27402.99
680.56	27536.40
680.70	27227.45
680.83	27042.55
680.97	27150.21
681.11	27253.20
681.25	26981.70
681.39	26838.92
681.52	26712.53
681.66	27234.47
681.80	26726.58
681.94	26462.10
682.07	26513.59
682.21	26263.15
682.35	26242.09
682.49	26214.00
682.62	26373.16
682.76	25961.22
682.90	25788.02
683.04	25921.43
683.17	26176.55
683.31	26003.35
683.45	26066.55
683.59	25748.23
683.72	25425.24
683.86	25397.15
684.00	25109.27
684.13	25312.89
684.27	25371.41
684.41	25144.38
684.55	24896.28
684.68	24900.96
684.82	24842.45
684.96	24671.59
685.09	24694.99
685.23	24645.84
685.37	24285.40
685.50	24437.53
685.64	24512.43
685.78	24596.69
685.91	24376.68
686.05	23964.75
686.19	24013.90
686.32	23964.75
686.46	23726.01
686.60	23466.21
686.73	23384.29
686.87	23466.21
687.01	23159.60
687.14	23154.92
687.28	23304.71
687.42	23360.89
687.55	23208.75
687.69	22953.63
687.82	23218.11
687.96	23056.62
688.10	22869.37
688.23	22773.41
688.37	22136.79
688.50	22232.75
688.64	22415.31
688.78	22190.62
688.91	22382.54
689.05	21986.99
689.18	21930.82
689.32	21797.41
689.46	22132.11
689.59	22192.96
689.73	22029.12
689.86	21972.95
690.00	21783.37
690.13	21537.61
690.27	21621.87
690.41	21664.00
690.54	21151.42
690.68	20879.92
690.81	21315.26
690.95	20545.22
691.08	20933.75
691.22	20903.32
691.35	21088.23
691.49	20666.93
691.62	20992.26
691.76	20961.84
691.89	20531.18
692.03	20514.80
692.16	20603.74
692.30	20180.10
692.43	20126.27
692.57	20264.36
692.70	20250.32
692.84	20224.57
692.97	19932.00
693.11	19730.72
693.24	19644.12
693.38	19655.82
693.51	19484.96
693.65	19433.47
693.78	19513.05
693.92	19466.24
694.05	19463.90
694.19	19393.68
694.32	19267.29
694.45	19150.26
694.59	18853.02
694.72	18750.03
694.86	18878.76
694.99	18766.42
695.13	18668.11
695.26	18302.99
695.39	18504.28
695.53	18494.91
695.66	18640.03
695.80	18665.77
695.93	18120.43
696.07	18176.60
696.20	18326.39
696.33	18230.43
696.47	18310.01
696.60	18005.74
696.73	17741.26
696.87	17530.61
697.00	18026.81
697.14	17664.02
697.27	17893.40
697.40	17689.77
697.54	17355.07
697.67	17104.64
697.80	16769.94
697.94	17146.76
698.07	17135.06
698.21	16896.33
698.34	17266.13
698.47	16844.84
698.61	16781.64
698.74	16500.78
698.87	16613.12
699.01	16425.88
699.14	16329.92
699.27	16198.85
699.40	16568.65
699.54	16299.49
699.67	15941.39
699.80	16189.49
699.94	16060.76
700.07	16025.65
700.20	15992.88
700.34	15566.90
700.47	15871.17
700.60	15955.43
700.73	16065.44
700.87	15665.21
701.00	15559.88
701.13	15279.02
701.26	15321.15
701.40	15428.81
701.53	15428.81
701.66	15342.21
701.79	15007.52
701.93	15248.59
702.06	15091.77
702.19	14862.40
702.32	14726.65
702.46	14661.12
702.59	14834.32
702.72	14759.42
702.85	14817.93
702.99	14916.23
703.12	14817.93
703.25	14406.00
703.38	14546.43
703.51	14384.93
703.65	14303.01
703.78	14139.18
703.91	14087.68
704.04	14033.85
704.17	13980.02
704.31	13909.80
704.44	13727.24
704.57	14043.21
704.70	13640.64
704.83	13652.34
704.96	13612.56
705.10	13928.53
705.23	13792.78
>>>>>End Processed Spectral Data<<<<<
