SpectraSuite Data File
++++++++++++++++++++++++++++++++++++
Date: Fri Oct 25 10:47:57 EDT 2013
User: price-jones
Dark Spectrum Present: No
Reference Spectrum Present: No
Number of Sampled Component Spectra: 1
Spectrometers: USB2+H05261
Integration Time (usec): 100000 (USB2+H05261)
Spectra Averaged: 1 (USB2+H05261)
Boxcar Smoothing: 0 (USB2+H05261)
Correct for Electrical Dark: No (USB2+H05261)
Strobe/Lamp Enabled: No (USB2+H05261)
Correct for Detector Non-linearity: No (USB2+H05261)
Correct for Stray Light: No (USB2+H05261)
Number of Pixels in Processed Spectrum: 2048
>>>>>Begin Processed Spectral Data<<<<<
365.73	131.07
365.92	131.07
366.12	131.07
366.32	35.11
366.52	53.83
366.72	114.69
366.91	39.79
367.11	0.00
367.31	35.11
367.51	0.00
367.70	0.00
367.90	4.68
368.10	107.66
368.30	11.70
368.49	18.72
368.69	98.30
368.89	86.60
369.09	100.64
369.28	91.28
369.48	58.51
369.68	72.56
369.87	126.39
370.07	98.30
370.27	231.71
370.47	142.77
370.66	395.55
370.86	402.57
371.06	507.90
371.25	505.56
371.45	442.36
371.65	482.15
371.84	496.19
372.04	482.15
372.24	540.66
372.44	477.47
372.63	465.77
372.83	465.77
373.03	451.72
373.22	442.36
373.42	528.96
373.62	489.17
373.81	535.98
374.01	571.09
374.21	463.43
374.40	514.92
374.60	564.07
374.79	491.51
374.99	552.37
375.19	540.66
375.38	571.09
375.58	465.77
375.78	568.75
375.97	587.47
376.17	620.24
376.37	517.26
376.56	599.18
376.76	571.09
376.95	580.45
377.15	648.33
377.35	557.05
377.54	613.22
377.74	564.07
377.93	634.29
378.13	603.86
378.33	554.71
378.52	617.90
378.72	526.62
378.91	657.69
379.11	624.92
379.31	585.13
379.50	608.54
379.70	585.13
379.89	587.47
380.09	606.20
380.28	582.79
380.48	734.93
380.68	655.35
380.87	645.99
381.07	730.25
381.26	688.12
381.46	657.69
381.65	706.84
381.85	627.26
382.04	685.78
382.24	709.18
382.43	746.63
382.63	660.03
382.83	709.18
383.02	812.17
383.22	844.93
383.41	683.44
383.61	739.61
383.80	791.10
384.00	695.14
384.19	716.20
384.39	816.85
384.58	755.99
384.78	725.57
384.97	676.41
385.17	716.20
385.36	767.70
385.56	732.59
385.75	734.93
385.95	751.31
386.14	828.55
386.34	723.23
386.53	793.44
386.72	823.87
386.92	793.44
387.11	819.19
387.31	774.72
387.50	713.86
387.70	849.61
387.89	835.57
388.09	781.74
388.28	858.98
388.48	809.83
388.67	938.55
388.86	917.49
389.06	851.96
389.25	894.08
389.45	812.17
389.64	898.77
389.84	957.28
390.03	959.62
390.22	828.55
390.42	882.38
390.61	940.90
390.81	936.21
391.00	966.64
391.19	978.34
391.39	968.98
391.58	952.60
391.78	987.71
391.97	976.00
392.16	959.62
392.36	985.37
392.55	938.55
392.75	964.30
392.94	924.51
393.13	933.87
393.33	922.17
393.52	987.71
393.71	940.90
393.91	1142.18
394.10	1048.56
394.29	1125.80
394.49	1071.97
394.68	1158.57
394.88	1088.35
395.07	1266.23
395.26	1090.69
395.46	1149.20
395.65	1132.82
395.84	1165.59
396.04	1158.57
396.23	1104.73
396.42	1069.62
396.62	1144.52
396.81	1242.82
397.00	1050.90
397.19	1163.25
397.39	1214.74
397.58	1245.16
397.77	1238.14
397.97	1313.04
398.16	1235.80
398.35	1266.23
398.55	1275.59
398.74	1263.89
398.93	1317.72
399.12	1371.55
399.32	1324.74
399.51	1273.25
399.70	1404.32
399.90	1350.49
400.09	1327.08
400.28	1345.81
400.47	1392.62
400.67	1413.68
400.86	1420.71
401.05	1355.17
401.24	1373.89
401.44	1535.39
401.63	1493.26
401.82	1488.58
402.01	1481.56
402.21	1572.84
402.40	1497.94
402.59	1514.33
402.78	1497.94
402.97	1582.20
403.17	1516.67
403.36	1530.71
403.55	1523.69
403.74	1720.29
403.93	1710.93
404.13	1640.72
404.32	1631.35
404.51	1678.16
404.70	1603.27
404.89	1680.50
405.09	1748.38
405.28	1753.06
405.47	1696.89
405.66	1736.68
405.85	1799.87
406.05	1703.91
406.24	1757.74
406.43	1832.64
406.62	1767.10
406.81	1839.66
407.00	1799.87
407.20	1874.77
407.39	1818.60
407.58	1907.54
407.77	2012.86
407.96	2073.71
408.15	1902.86
408.34	1949.67
408.54	1900.52
408.73	1937.96
408.92	1949.67
409.11	2038.61
409.30	2052.65
409.49	2045.63
409.68	2087.76
409.87	1944.99
410.07	2148.61
410.26	2186.06
410.45	2134.57
410.64	2242.23
410.83	2211.81
411.02	2176.70
411.21	2232.87
411.40	2253.94
411.59	2237.55
411.78	2272.66
411.98	2289.04
412.17	2275.00
412.36	2317.13
412.55	2375.64
412.74	2415.43
412.93	2530.12
413.12	2401.39
413.31	2530.12
413.50	2485.65
413.69	2483.31
413.88	2654.17
414.07	2668.21
414.26	2644.81
414.45	2527.78
414.64	2675.23
414.83	2654.17
415.02	2717.36
415.22	2808.64
415.41	2747.79
415.60	2836.73
415.79	2700.98
415.98	2771.19
416.17	2792.26
416.36	2843.75
416.55	2827.37
416.74	2935.03
416.93	2930.35
417.12	2829.71
417.31	2869.50
417.50	3059.08
417.69	3063.76
417.88	3059.08
418.07	3073.12
418.26	2995.89
418.45	2967.80
418.64	3286.11
418.83	3138.66
419.02	3194.83
419.21	3213.56
419.39	3138.66
419.58	3204.19
419.77	3164.40
419.96	3288.45
420.15	3239.30
420.34	3281.43
420.53	3454.63
420.72	3314.20
420.91	3286.11
421.10	3403.14
421.29	3323.56
421.48	3377.39
421.67	3454.63
421.86	3405.48
422.05	3384.41
422.24	3449.95
422.43	3478.04
422.61	3403.14
422.80	3506.12
422.99	3548.25
423.18	3592.72
423.37	3620.81
423.56	3524.85
423.75	3613.79
423.94	3438.25
424.13	3258.03
424.32	3410.16
424.50	3559.95
424.69	3618.47
424.88	3536.55
425.07	3442.93
425.26	3510.80
425.45	3527.19
425.64	3517.83
425.83	3578.68
426.01	3496.76
426.20	3606.77
426.39	3599.74
426.58	3623.15
426.77	3473.36
426.96	3665.28
427.15	3590.38
427.33	3588.04
427.52	3585.70
427.71	3735.50
427.90	3726.13
428.09	3824.44
428.28	3740.18
428.46	3810.39
428.65	3765.92
428.84	3845.50
429.03	3798.69
429.22	3747.20
429.40	3712.09
429.59	3817.41
429.78	3674.64
429.97	3777.62
430.16	3702.73
430.34	3833.80
430.53	3833.80
430.72	3805.71
430.91	3861.88
431.10	4014.02
431.28	4049.13
431.47	4163.81
431.66	4252.75
431.85	4112.32
432.03	4149.77
432.22	4257.43
432.41	4091.26
432.60	4189.56
432.79	4287.86
432.97	4241.05
433.16	4112.32
433.35	4189.56
433.54	4215.30
433.72	4280.84
433.91	4304.25
434.10	4386.16
434.28	4168.49
434.47	4404.89
434.66	4372.12
434.85	4353.40
435.03	4430.63
435.22	4442.34
435.41	4596.81
435.59	4627.24
435.78	4582.77
435.97	4702.14
436.16	4496.17
436.34	4505.53
436.53	4542.98
436.72	4599.15
436.90	4608.51
437.09	4634.26
437.28	4442.34
437.46	4521.92
437.65	4753.63
437.84	4664.69
438.02	4760.65
438.21	4697.46
438.40	4662.35
438.58	4819.16
438.77	4858.95
438.96	4823.84
439.14	4999.38
439.33	5093.01
439.52	5174.92
439.70	5167.90
439.89	5146.84
440.08	5247.48
440.26	5193.65
440.45	4961.94
440.63	5214.71
440.82	5401.96
441.01	5165.56
441.19	5301.31
441.38	5383.23
441.57	5467.49
441.75	5547.07
441.94	5596.22
442.12	5675.80
442.31	5757.72
442.50	5727.29
442.68	5554.09
442.87	5504.94
443.05	5713.25
443.24	5806.87
443.43	5724.95
443.61	5675.80
443.80	5797.51
443.98	5640.69
444.17	5584.52
444.35	5643.03
444.54	5891.13
444.73	5963.68
444.91	5816.23
445.10	5837.30
445.28	5870.06
445.47	5729.63
445.65	5778.78
445.84	5755.38
446.02	5928.58
446.21	5940.28
446.39	5853.68
446.58	6022.20
446.77	6057.31
446.95	5874.74
447.14	5877.09
447.32	6001.13
447.51	5973.05
447.69	6003.47
447.88	5888.79
448.06	5937.94
448.25	5940.28
448.43	5968.37
448.62	6251.57
448.80	5956.66
448.99	5956.66
449.17	6097.10
449.36	6127.52
449.54	6104.12
449.73	6300.72
449.91	6272.64
450.10	6375.62
450.28	6422.43
450.46	6420.09
450.65	6368.60
450.83	6403.71
451.02	6392.00
451.20	6445.84
451.39	6441.15
451.57	6399.02
451.76	6258.59
451.94	6469.24
452.13	6504.35
452.31	6494.99
452.49	6434.13
452.68	6572.22
452.86	6506.69
453.05	6483.28
453.23	6799.26
453.42	6459.88
453.60	6733.72
453.78	6668.19
453.97	6520.73
454.15	6649.46
454.34	6485.62
454.52	6700.95
454.70	6658.82
454.89	6677.55
455.07	6670.53
455.26	6899.90
455.44	6841.39
455.62	6803.94
455.81	6853.09
455.99	6832.02
456.17	6984.16
456.36	7080.12
456.54	7098.84
456.73	6965.43
456.91	7304.81
457.09	7185.44
457.28	7206.51
457.46	7155.02
457.64	7372.69
457.83	7187.79
458.01	7143.32
458.19	7438.22
458.38	7279.07
458.56	7353.96
458.74	7382.05
458.93	7466.31
459.11	7501.42
459.29	7400.77
459.48	7508.44
459.66	7524.82
459.84	7503.76
460.03	7655.89
460.21	7801.01
460.39	7590.36
460.57	7658.23
460.76	7698.02
460.94	7571.63
461.12	7543.55
461.31	7782.28
461.49	7669.94
461.67	7597.38
461.85	7779.94
462.04	7939.10
462.22	8278.47
462.40	7932.08
462.59	7964.84
462.77	8100.59
462.95	8149.75
463.13	8072.51
463.32	8021.02
463.50	8095.91
463.68	8025.70
463.86	8011.65
464.05	7847.82
464.23	8009.31
464.41	8313.58
464.59	7915.69
464.78	8280.82
464.96	7941.44
465.14	8229.32
465.32	8280.82
465.50	8463.38
465.69	8250.39
465.87	8086.55
466.05	8367.42
466.23	8301.88
466.41	8461.04
466.60	8524.23
466.78	8269.11
466.96	8177.83
467.14	8287.84
467.32	8468.06
467.51	8472.74
467.69	8184.85
467.87	8266.77
468.05	8484.44
468.23	8524.23
468.41	8496.14
468.60	8461.04
468.78	8643.60
468.96	8379.12
469.14	8842.54
469.32	8908.08
469.50	8505.51
469.69	8395.50
469.87	8894.04
470.05	8800.41
470.23	9018.08
470.41	8926.80
470.59	9156.18
470.77	8748.92
470.95	8938.51
471.14	9067.24
471.32	8982.98
471.50	9273.20
471.68	9245.12
471.86	9277.88
472.04	9184.26
472.22	9439.38
472.40	9163.20
472.58	9270.86
472.77	9497.89
472.95	9596.20
473.13	9832.59
473.31	9336.40
473.49	9521.30
473.67	9661.73
473.85	9741.31
474.03	9830.25
474.21	9998.77
474.39	10064.30
474.57	10148.56
474.75	10015.15
474.93	10153.24
475.12	9970.68
475.30	10251.55
475.48	10221.12
475.66	10153.24
475.84	10148.56
476.02	10448.15
476.20	10541.77
476.38	10637.73
476.56	10668.16
476.74	10532.41
476.92	10651.78
477.10	10743.06
477.28	11054.35
477.46	10843.70
477.64	10902.22
477.82	11234.57
478.00	11428.84
478.18	11307.13
478.36	11637.14
478.54	11595.01
478.72	11482.67
478.90	11602.04
479.08	11854.81
479.26	11955.46
479.44	11889.92
479.62	11868.86
479.80	12173.13
479.98	12128.66
480.16	12542.93
480.34	12212.92
480.52	12819.11
480.70	12444.63
480.88	12255.04
481.06	12564.00
481.24	12549.95
481.41	12870.61
481.59	13085.94
481.77	13067.21
481.95	13053.17
482.13	13011.04
482.31	13404.25
482.49	13362.12
482.67	13263.82
482.85	13776.39
483.03	13532.98
483.21	14047.90
483.39	13879.38
483.57	13956.61
483.74	14265.57
483.92	14164.92
484.10	14094.71
484.28	14331.10
484.46	14672.82
484.64	14906.87
484.82	14466.85
485.00	14607.28
485.18	15094.11
485.35	15220.50
485.53	15000.49
485.71	15147.95
485.89	15337.53
486.07	15059.01
486.25	15508.39
486.43	15541.16
486.61	15606.69
486.78	16067.78
486.96	15892.24
487.14	16388.43
487.32	16137.99
487.50	16332.26
487.68	16877.60
487.85	17032.08
488.03	16938.46
488.21	16816.75
488.39	17277.83
488.57	16905.69
488.75	17406.56
488.92	17411.25
489.10	17769.35
489.28	17579.76
489.46	18181.28
489.64	17877.01
489.81	18450.44
489.99	18251.50
490.17	18401.29
490.35	18537.04
490.53	18696.20
490.70	19154.94
490.88	18778.12
491.06	19201.76
491.24	18855.36
491.41	18974.72
491.59	19236.86
491.77	18930.25
491.95	19543.47
492.13	19627.73
492.30	19943.70
492.48	19466.24
492.66	19924.98
492.84	19999.88
493.01	20372.02
493.19	20074.77
493.37	20554.58
493.54	20393.09
493.72	20589.69
493.90	20580.33
494.08	21055.46
494.25	21366.75
494.43	21151.42
494.61	21362.07
494.79	21614.85
494.96	21504.84
495.14	21614.85
495.32	21968.27
495.49	21479.10
495.67	21809.11
495.85	21876.99
496.02	22256.15
496.20	22160.19
496.38	22230.41
496.55	22466.80
496.73	23129.17
496.91	22338.07
497.09	22796.82
497.26	23197.05
497.44	22953.63
497.62	23007.47
497.79	23655.79
497.97	22970.02
498.14	23651.11
498.32	23372.59
498.50	23819.63
498.67	23735.37
498.85	24135.60
499.03	24025.60
499.20	24011.56
499.38	24273.70
499.56	23953.04
499.73	24208.16
499.91	24151.99
500.08	24460.94
500.26	24219.86
500.44	24716.06
500.61	24662.22
500.79	24547.54
500.97	24830.74
501.14	25083.52
501.32	24994.58
501.49	24957.13
501.67	25170.12
501.84	25312.89
502.02	25205.23
502.20	25488.43
502.37	25717.81
502.55	25603.12
502.72	25935.48
502.90	25743.55
503.07	25570.35
503.25	25797.38
503.43	25752.91
503.60	26267.83
503.78	26176.55
503.95	26202.30
504.13	25912.07
504.30	26808.50
504.48	26836.58
504.65	26597.85
504.83	26700.83
505.01	27234.47
505.18	26600.19
505.36	27164.26
505.53	27089.36
505.71	27115.11
505.88	27538.74
506.06	27351.50
506.23	27440.44
506.41	27285.97
506.58	27620.66
506.76	27892.16
506.93	27611.30
507.11	27578.53
507.28	28044.30
507.46	27660.45
507.63	28004.51
507.81	28346.23
507.98	28044.30
508.16	28437.51
508.33	28250.27
508.50	28381.34
508.68	28510.07
508.85	28737.10
509.03	29078.82
509.20	28992.22
509.38	28737.10
509.55	29008.60
509.73	29237.97
509.90	29123.29
510.08	28952.43
510.25	29350.32
510.42	29624.16
510.60	29944.81
510.77	29647.57
510.95	29617.14
511.12	29600.76
511.30	29778.64
511.47	30064.18
511.64	30045.46
511.82	30293.55
511.99	29954.18
512.17	30139.08
512.34	30000.99
512.51	30419.94
512.69	30689.10
512.86	30218.66
513.04	30710.17
513.21	30157.80
513.38	30403.56
513.56	30562.72
513.73	30403.56
513.90	30710.17
514.08	30429.30
514.25	30742.94
514.43	30941.88
514.60	31115.08
514.77	31014.44
514.95	31168.91
515.12	31285.94
515.29	31264.88
515.47	31838.31
515.64	31763.41
515.81	31908.52
515.99	31887.46
516.16	31646.38
516.33	32088.74
516.51	31332.75
516.68	31786.82
516.85	31594.89
517.03	31702.56
517.20	32053.64
517.37	32002.14
517.54	32102.79
517.72	32187.05
517.89	32135.56
518.06	32037.25
518.24	31976.40
518.41	32231.52
518.58	32528.77
518.75	32371.95
518.93	32718.35
519.10	32914.95
519.27	32844.74
519.45	33156.03
519.62	32943.04
519.79	33277.74
519.96	33151.35
520.14	33298.80
520.31	32685.58
520.48	33331.57
520.65	33661.58
520.83	33406.47
521.00	33553.92
521.17	33605.41
521.34	33834.78
521.52	33773.93
521.69	33574.98
521.86	34223.31
522.03	34078.20
522.20	34209.27
522.38	33813.72
522.55	34188.21
522.72	34396.51
522.89	33876.91
523.07	34574.39
523.24	34202.25
523.41	34616.52
523.58	34387.15
523.75	35072.93
523.92	34799.08
524.10	34740.57
524.27	35037.82
524.44	35119.74
524.61	35082.29
524.78	35086.97
524.96	35065.91
525.13	35346.77
525.30	35370.18
525.47	35395.92
525.64	35225.06
525.81	35393.58
525.98	35189.95
526.16	35524.65
526.33	35356.13
526.50	35498.91
526.67	35512.95
526.84	35901.48
527.01	35611.25
527.18	35503.59
527.36	35517.63
527.53	35976.37
527.70	36613.00
527.87	36217.45
528.04	36004.46
528.21	36275.96
528.38	35849.99
528.55	36203.41
528.72	36400.01
528.89	36732.37
529.07	36355.54
529.24	36154.26
529.41	36503.00
529.58	36215.11
529.75	36568.53
529.92	36828.33
530.09	36837.69
530.26	36973.44
530.43	37338.57
530.60	36404.69
530.77	36898.55
530.94	37193.45
531.11	36907.91
531.28	37256.65
531.46	37170.05
531.63	37233.24
531.80	37654.54
531.97	37186.43
532.14	37589.00
532.31	37373.67
532.48	37457.93
532.65	37879.23
532.82	37731.78
532.99	38038.39
533.16	37303.46
533.33	37738.80
533.50	38155.41
533.67	37706.03
533.84	37745.82
534.01	37596.03
534.18	38022.00
534.35	38146.05
534.52	37933.06
534.69	38476.07
534.86	37977.53
535.03	37998.60
535.20	38387.13
535.37	38391.81
535.54	38506.49
535.71	38227.97
535.88	38192.86
536.05	38703.10
536.22	39040.14
536.38	38455.00
536.55	38843.53
536.72	38312.23
536.89	38127.33
537.06	38693.74
537.23	38677.35
537.40	38305.21
537.57	38745.23
537.74	39063.54
537.91	38967.58
538.08	39037.80
538.25	38932.47
538.42	38967.58
538.59	39337.38
538.75	39164.18
538.92	38958.22
539.09	39454.41
539.26	39285.89
539.43	39243.76
539.60	39470.79
539.77	39150.14
539.94	39119.71
540.11	39276.53
540.28	39065.88
540.44	38920.77
540.61	39559.73
540.78	39239.08
540.95	39257.81
541.12	39264.83
541.29	39679.10
541.46	39470.79
541.62	39470.79
541.79	39606.55
541.96	39508.24
542.13	40009.12
542.30	40297.00
542.47	39978.69
542.63	40034.86
542.80	40311.05
542.97	40376.58
543.14	41160.66
543.31	40463.18
543.48	40732.34
543.64	40643.40
543.81	40854.05
543.98	40549.78
544.15	40308.71
544.32	40762.77
544.48	41303.43
544.65	40748.73
544.82	40582.55
544.99	40797.88
545.16	40704.26
545.32	40320.41
545.49	40769.79
545.66	41167.68
545.83	40706.60
546.00	41158.32
546.16	41001.50
546.33	40802.56
546.50	40959.38
546.67	41392.37
546.83	40598.93
547.00	40924.27
547.17	41378.33
547.34	41036.61
547.50	41481.31
547.67	41345.56
547.84	41380.67
548.00	41345.56
548.17	41677.92
548.34	41137.26
548.51	41872.18
548.67	41926.02
548.84	41799.63
549.01	41813.67
549.18	41675.58
549.34	42206.88
549.51	42017.30
549.68	41860.48
549.84	41996.23
550.01	41965.81
550.18	41832.39
550.34	42040.70
550.51	41642.81
550.68	41834.74
550.84	41682.60
551.01	42272.42
551.18	42321.57
551.34	42059.43
551.51	41790.27
551.68	42265.39
551.84	42447.96
552.01	42382.42
552.18	42300.50
552.34	42019.64
552.51	42260.71
552.68	42639.88
552.84	42405.83
553.01	43222.67
553.18	42389.44
553.34	42164.75
553.51	42298.16
553.67	42581.37
553.84	42747.54
554.01	42904.36
554.17	43042.45
554.34	42714.78
554.51	42614.13
554.67	42948.83
554.84	42735.84
555.00	42864.57
555.17	42422.21
555.33	42986.28
555.50	42927.77
555.67	42761.59
555.83	42700.73
556.00	43070.54
556.16	43566.73
556.33	43225.01
556.50	42864.57
556.66	43089.26
556.83	42600.09
556.99	42862.23
557.16	43152.46
557.32	43196.93
557.49	43309.27
557.65	42763.93
557.82	43423.96
557.98	43365.45
558.15	43374.81
558.32	43470.77
558.48	43028.41
558.65	43402.89
558.81	43147.78
558.98	43302.25
559.14	43428.64
559.31	43232.04
559.47	43674.40
559.64	43849.94
559.80	43522.26
559.97	43995.05
560.13	43255.44
560.30	42972.24
560.46	43248.42
560.63	43393.53
560.79	43395.87
560.96	44093.35
561.12	43182.88
561.29	43533.96
561.45	43557.37
561.61	43709.50
561.78	43749.29
561.94	43456.73
562.11	44114.42
562.27	43854.62
562.44	43821.85
562.60	43945.90
562.77	44154.21
562.93	44102.71
563.10	43903.77
563.26	43763.34
563.42	44079.31
563.59	43653.33
563.75	43849.94
563.92	43922.49
564.08	43641.63
564.24	44126.12
564.41	43915.47
564.57	43810.15
564.74	44053.56
564.90	43969.30
565.07	44041.86
565.23	43959.94
565.39	43992.71
565.56	44486.56
565.72	43971.64
565.88	44334.43
566.05	43828.87
566.21	43985.69
566.38	44552.10
566.54	44020.80
566.70	43964.62
566.87	44484.22
567.03	44385.92
567.19	44329.75
567.36	44292.30
567.52	43882.70
567.68	44367.20
567.85	44119.10
568.01	44458.48
568.17	44179.95
568.34	44308.68
568.50	44107.40
568.66	44112.08
568.83	44458.48
568.99	43878.02
569.15	43866.32
569.32	43833.55
569.48	43943.56
569.64	44617.63
569.81	44437.41
569.97	44350.81
570.13	44294.64
570.30	44481.88
570.46	43742.27
570.62	44156.55
570.78	44378.90
570.95	44037.18
571.11	44273.57
571.27	44474.86
571.43	44278.25
571.60	44875.09
571.76	44044.20
571.92	44252.51
572.09	44306.34
572.25	44439.75
572.41	44409.32
572.57	44360.17
572.74	45055.31
572.90	44519.33
573.06	44491.24
573.22	44416.35
573.38	44453.79
573.55	44172.93
573.71	44715.93
573.87	44126.12
574.03	44140.16
574.20	44807.22
574.36	44247.83
574.52	44744.02
574.68	44947.65
574.84	44402.30
575.01	44423.37
575.17	44495.92
575.33	44907.86
575.49	44755.72
575.65	44486.56
575.82	45052.97
575.98	44376.56
576.14	44875.09
576.30	44608.27
576.46	44376.56
576.62	44439.75
576.79	44765.09
576.95	44002.07
577.11	44933.60
577.27	44446.77
577.43	44580.18
577.59	44526.35
577.75	44392.94
577.92	44348.47
578.08	44453.79
578.24	44259.53
578.40	44428.05
578.56	44924.24
578.72	44296.98
578.88	44701.89
579.04	44650.40
579.21	44339.11
579.37	44516.99
579.53	44315.70
579.69	44083.99
579.85	44264.21
580.01	44648.06
580.17	44591.89
580.33	45083.40
580.49	44851.69
580.65	44493.58
580.82	44437.41
580.98	44629.34
581.14	44350.81
581.30	44816.58
581.46	44697.21
581.62	44753.38
581.78	44980.42
581.94	44739.34
582.10	44971.05
582.26	44744.02
582.42	44760.40
582.58	44767.43
582.74	44636.36
582.90	44608.27
583.06	44781.47
583.22	45088.08
583.38	45036.59
583.54	44940.63
583.70	44828.28
583.86	45076.38
584.02	44432.73
584.18	44577.84
584.34	44739.34
584.50	45172.34
584.66	44406.98
584.82	44760.40
584.98	45109.14
585.14	44769.77
585.30	44694.87
585.46	44844.66
585.62	44442.09
585.78	44816.58
585.94	44465.50
586.10	44699.55
586.26	44376.56
586.42	44713.59
586.58	45221.49
586.74	44439.75
586.90	44549.76
587.06	44715.93
587.22	44842.32
587.38	44701.89
587.54	45071.70
587.70	44964.03
587.86	45106.80
588.02	45354.90
588.18	45294.05
588.34	44631.68
588.49	44535.71
588.65	44683.17
588.81	44332.09
588.97	44552.10
589.13	44282.94
589.29	44514.65
589.45	45006.16
589.61	44758.06
589.77	45258.94
589.93	45118.51
590.08	45155.96
590.24	44905.52
590.40	45460.23
590.56	45027.23
590.72	45226.17
590.88	45137.23
591.04	45184.04
591.20	45275.32
591.35	45797.26
591.51	45474.27
591.67	44830.62
591.83	45350.22
591.99	44821.26
592.15	44713.59
592.31	44978.07
592.46	44889.13
592.62	44942.97
592.78	44957.01
592.94	45177.02
593.10	45104.46
593.26	45261.28
593.41	45198.09
593.57	44971.05
593.73	45111.49
593.89	44957.01
594.05	45331.50
594.20	44847.00
594.36	45022.54
594.52	45202.77
594.68	45270.64
594.84	45162.98
594.99	45284.68
595.15	45624.06
595.31	45317.45
595.47	44849.35
595.62	44868.07
595.78	45205.11
595.94	45411.07
596.10	45528.10
596.25	45471.93
596.41	45432.14
596.57	45322.13
596.73	45109.14
596.88	44767.43
597.04	45036.59
597.20	45130.21
597.36	45319.79
597.51	45497.67
597.67	45303.41
597.83	45514.06
597.99	45441.50
598.14	44949.99
598.30	45151.27
598.46	44978.07
598.61	44732.32
598.77	45188.72
598.93	45067.02
599.09	45418.10
599.24	45385.33
599.40	45595.98
599.56	45254.26
599.71	45132.55
599.87	45521.08
600.03	45064.67
600.18	45528.10
600.34	44900.84
600.50	45392.35
600.65	45425.12
600.81	45584.27
600.97	45727.05
601.12	46136.64
601.28	45586.61
601.44	45509.38
601.59	45345.54
601.75	45003.82
601.91	44957.01
602.06	45235.53
602.22	44968.71
602.37	45200.43
602.53	45258.94
602.69	45717.68
602.84	45319.79
603.00	45160.64
603.16	45139.57
603.31	45151.27
603.47	45364.26
603.62	44842.32
603.78	45240.21
603.94	45223.83
604.09	45488.31
604.25	44907.86
604.40	44905.52
604.56	45303.41
604.71	45408.73
604.87	45308.09
605.03	45366.60
605.18	45027.23
605.34	44872.75
605.49	44865.73
605.65	44861.05
605.80	44978.07
605.96	44893.82
606.12	44982.76
606.27	45022.54
606.43	45095.10
606.58	45263.62
606.74	44879.77
606.89	45120.85
607.05	44924.24
607.20	45151.27
607.36	44982.76
607.51	45326.81
607.67	44973.39
607.82	45242.56
607.98	45001.48
608.13	44678.49
608.29	45067.02
608.44	44498.26
608.60	44568.48
608.75	45015.52
608.91	44538.05
609.06	45003.82
609.22	45191.06
609.37	44598.91
609.53	44868.07
609.68	44631.68
609.84	44381.24
609.99	44790.83
610.15	44767.43
610.30	44996.80
610.46	44409.32
610.61	44921.90
610.76	44708.91
610.92	44671.46
611.07	44570.82
611.23	44353.15
611.38	44751.04
611.54	44308.68
611.69	44128.46
611.84	44212.72
612.00	44325.07
612.15	44186.97
612.31	44673.81
612.46	44374.22
612.62	44818.92
612.77	44444.43
612.92	44414.01
613.08	44549.76
613.23	44238.47
613.39	44048.88
613.54	44318.04
613.69	44748.70
613.85	44250.17
614.00	44470.18
614.15	45251.92
614.31	44491.24
614.46	44631.68
614.62	44374.22
614.77	43966.96
614.92	44034.84
615.08	44472.52
615.23	44053.56
615.38	44477.20
615.54	43473.11
615.69	44009.09
615.84	43899.09
616.00	43863.98
616.15	44018.46
616.30	44339.11
616.46	44287.62
616.61	43643.97
616.76	44016.11
616.92	43985.69
617.07	44011.43
617.22	43590.14
617.37	43824.19
617.53	44109.74
617.68	43931.86
617.83	43964.62
617.99	44105.06
618.14	44034.84
618.29	43482.47
618.45	43456.73
618.60	43590.14
618.75	43992.71
618.90	43838.23
619.06	43749.29
619.21	43409.92
619.36	43564.39
619.51	43889.73
619.67	43814.83
619.82	43491.83
619.97	43636.95
620.12	43082.24
620.28	42857.55
620.43	43353.74
620.58	43253.10
620.73	43344.38
620.89	43147.78
621.04	43269.48
621.19	43178.20
621.34	42967.55
621.49	43131.39
621.65	43222.67
621.80	43056.50
621.95	42852.87
622.10	43257.78
622.25	43019.05
622.41	42574.34
622.56	42623.50
622.71	43068.20
622.86	43414.60
623.01	42932.45
623.16	42848.19
623.32	42939.47
623.47	43171.18
623.62	43138.41
623.77	42742.86
623.92	42667.97
624.07	42646.90
624.23	42682.01
624.38	42459.66
624.53	43161.82
624.68	42609.45
624.83	42768.61
624.98	42974.58
625.13	42700.73
625.29	42700.73
625.44	42869.25
625.59	42586.05
625.74	42845.85
625.89	42080.49
626.04	42504.13
626.19	42443.27
626.34	42314.55
626.49	42569.66
626.65	42075.81
626.80	42256.03
626.95	42499.45
627.10	42050.06
627.25	42068.79
627.40	42237.31
627.55	41596.00
627.70	41663.88
627.85	41392.37
628.00	41989.21
628.15	42263.05
628.30	41778.56
628.45	42033.68
628.60	41979.85
628.76	41958.78
628.91	42082.83
629.06	41993.89
629.21	41823.03
629.36	41546.85
629.51	41666.22
629.66	41895.59
629.81	41652.17
629.96	41918.99
630.11	41883.89
630.26	41668.56
630.41	41425.14
630.56	41741.11
630.71	41823.03
630.86	41673.24
631.01	41565.57
631.16	41572.60
631.31	41104.49
631.46	41324.50
631.61	41322.16
631.76	41497.70
631.91	41383.01
632.06	41247.26
632.21	41743.45
632.36	42007.94
632.51	41549.19
632.66	41415.78
632.81	41050.66
632.96	41221.52
633.10	40957.03
633.25	41027.25
633.40	41146.62
633.55	41413.44
633.70	41263.64
633.85	40917.25
634.00	40657.45
634.15	41055.34
634.30	41095.13
634.45	41125.55
634.60	40776.81
634.75	40914.90
634.90	40980.44
635.05	41322.16
635.19	41053.00
635.34	41184.07
635.49	40776.81
635.64	41006.19
635.79	40507.65
635.94	40446.80
636.09	40940.65
636.24	40655.11
636.39	40477.22
636.53	40423.39
636.68	40212.74
636.83	40397.65
636.98	40823.62
637.13	40364.88
637.28	40746.39
637.43	41102.15
637.57	40730.00
637.72	40662.13
637.87	40580.21
638.02	40467.86
638.17	40231.47
638.32	40053.59
638.46	40074.65
638.61	39709.53
638.76	40126.14
638.91	40081.67
639.06	40079.33
639.20	40055.93
639.35	40055.93
639.50	39817.19
639.65	40804.90
639.80	40390.62
639.94	40156.57
640.09	39751.66
640.24	39868.69
640.39	39910.82
640.54	40081.67
640.68	39791.45
640.83	40100.40
640.98	40091.04
641.13	39316.32
641.27	40002.10
641.42	39658.04
641.57	39866.34
641.72	40072.31
641.86	39030.77
642.01	39566.76
642.16	39421.64
642.31	39405.26
642.45	39318.66
642.60	39234.40
642.75	39407.60
642.90	39173.55
643.04	39470.79
643.19	39082.27
643.34	39351.43
643.48	39213.34
643.63	39218.02
643.78	39515.26
643.93	39297.59
644.07	39267.17
644.22	38639.90
644.37	38986.30
644.51	39005.03
644.66	39533.99
644.81	39122.05
644.95	39431.01
645.10	39033.11
645.25	39206.31
645.39	39426.32
645.54	39077.58
645.69	38937.15
645.83	38939.49
645.98	39049.50
646.13	38965.24
646.27	38735.87
646.42	38981.62
646.57	39185.25
646.71	38529.90
646.86	39580.80
647.00	39042.48
647.15	39100.99
647.30	39063.54
647.44	38824.81
647.59	38761.61
647.74	38579.05
647.88	38314.57
648.03	38644.59
648.17	38487.77
648.32	38117.96
648.47	38249.03
648.61	38382.45
648.76	38990.98
648.90	38700.76
649.05	38845.87
649.20	38665.65
649.34	38759.27
649.49	38511.17
649.63	38663.31
649.78	38604.80
649.92	38321.59
650.07	38387.13
650.21	38117.96
650.36	38267.76
650.51	38024.34
650.65	38827.15
650.80	38876.30
650.94	38501.81
651.09	38497.13
651.23	38136.69
651.38	38237.33
651.52	37567.94
651.67	37820.72
651.81	38143.71
651.96	37757.52
652.10	37785.61
652.25	37956.47
652.39	37834.76
652.54	38075.84
652.68	37928.38
652.83	38132.01
652.97	38323.93
653.12	37624.11
653.26	38127.33
653.41	37879.23
653.55	37626.45
653.70	37818.38
653.84	38052.43
653.99	37586.66
654.13	37387.72
654.27	37394.74
654.42	37612.41
654.56	37834.76
654.71	37345.59
654.85	37439.21
655.00	37806.67
655.14	37663.90
655.29	37270.69
655.43	36898.55
655.57	37340.91
655.72	36638.75
655.86	37329.20
656.01	36973.44
656.15	37092.81
656.30	37453.25
656.44	36940.68
656.58	36624.70
656.73	36830.67
656.87	37003.87
657.01	36858.76
657.16	36659.81
657.30	37020.25
657.45	36528.74
657.59	36945.36
657.73	36809.61
657.88	37036.64
658.02	36889.18
658.16	36645.77
658.31	36713.64
658.45	36921.95
658.60	36900.89
658.74	36498.31
658.88	36685.56
659.03	36561.51
659.17	36367.24
659.31	36343.84
659.46	36495.97
659.60	36362.56
659.74	36423.42
659.89	36142.55
660.03	36105.10
660.17	36306.39
660.32	35826.58
660.46	36416.40
660.60	36374.27
660.74	36437.46
660.89	36325.11
661.03	35840.62
661.17	36060.63
661.32	35622.95
661.46	35924.88
661.60	35234.42
661.74	35218.04
661.89	35826.58
662.03	35515.29
662.17	35328.05
662.31	35503.59
662.46	35695.51
662.60	35952.97
662.74	35501.25
662.88	35646.36
663.03	35519.97
663.17	35386.56
663.31	35054.20
663.45	35119.74
663.60	35391.24
663.74	35026.12
663.88	35093.99
664.02	34808.45
664.17	34991.01
664.31	34871.64
664.45	34735.89
664.59	34988.67
664.73	34831.85
664.88	35000.37
665.02	34438.64
665.16	34822.49
665.30	34616.52
665.44	34417.58
665.59	34522.90
665.73	34646.95
665.87	34265.44
666.01	34618.86
666.15	34192.89
666.29	34052.45
666.44	34452.69
666.58	34113.31
666.72	33923.72
666.86	34286.51
667.00	34373.11
667.14	33937.77
667.28	33729.46
667.43	33818.40
667.57	33525.83
667.71	33713.08
667.85	33890.96
667.99	33762.23
668.13	33235.61
668.27	33593.71
668.41	33706.05
668.56	33116.24
668.70	33528.17
668.84	33296.46
668.98	33113.90
669.12	33439.23
669.26	33336.25
669.40	33277.74
669.54	32924.32
669.68	33544.56
669.82	33266.03
669.96	33022.62
670.10	32779.20
670.25	33170.07
670.39	33207.52
670.53	32769.84
670.67	32641.11
670.81	32858.78
670.95	32919.63
671.09	32797.93
671.23	33015.60
671.37	32596.64
671.51	32861.12
671.65	31880.44
671.79	32102.79
671.93	32121.51
672.07	32814.31
672.21	32280.67
672.35	31906.18
672.49	31772.77
672.63	31845.33
672.77	31796.18
672.91	31772.77
673.05	31576.17
673.19	31770.43
673.33	31531.70
673.47	31307.01
673.61	31412.33
673.75	31510.63
673.89	30899.75
674.03	31197.00
674.17	31077.63
674.31	30682.08
674.45	31204.02
674.59	30857.62
674.73	30712.51
674.87	30988.69
675.01	30815.49
675.15	30843.58
675.29	31000.40
675.43	30813.15
675.56	30665.70
675.70	30618.89
675.84	30405.90
675.98	29418.19
676.12	30375.47
676.26	30174.19
676.40	29614.80
676.54	29612.46
676.68	29841.83
676.82	29703.74
676.96	29565.65
677.10	29359.68
677.23	29514.16
677.37	29511.81
677.51	29165.42
677.65	29303.51
677.79	28903.28
677.93	29284.78
678.07	29116.26
678.21	28943.06
678.34	28781.57
678.48	28655.18
678.62	28285.37
678.76	28582.62
678.90	28554.54
679.04	28322.82
679.18	28437.51
679.31	28458.57
679.45	27510.66
679.59	27688.54
679.73	27683.86
679.87	28259.63
680.00	28023.23
680.14	27583.21
680.28	27866.42
680.42	27332.78
680.56	27501.29
680.70	27215.75
680.83	27353.84
680.97	26895.10
681.11	27208.73
681.25	26532.31
681.39	26895.10
681.52	26824.88
681.66	26855.31
681.80	27026.17
681.94	26824.88
682.07	26588.49
682.21	26164.85
682.35	26494.86
682.49	26312.30
682.62	26136.76
682.76	26338.05
682.90	26047.82
683.04	25687.38
683.17	26031.44
683.31	25509.50
683.45	26054.84
683.59	25757.60
683.72	25418.22
683.86	25067.14
684.00	25546.95
684.13	25546.95
684.27	25348.00
684.41	25249.70
684.55	25003.94
684.68	24872.87
684.82	24947.77
684.96	24912.66
685.09	24802.66
685.23	24727.76
685.37	24615.41
685.50	24512.43
685.64	24606.05
685.78	24482.00
685.91	24372.00
686.05	24519.45
686.19	23953.04
686.32	24187.10
686.46	23917.93
686.60	23620.69
686.73	23538.77
686.87	23718.99
687.01	23199.39
687.14	23311.74
687.28	23353.87
687.42	23042.57
687.55	22925.55
687.69	22974.70
687.82	22792.14
687.96	22892.78
688.10	22838.95
688.23	22712.56
688.37	22625.96
688.50	22394.25
688.64	22183.60
688.78	22272.54
688.91	22005.72
689.05	22054.87
689.18	21876.99
689.32	21727.19
689.46	22005.72
689.59	22377.86
689.73	22005.72
689.86	22029.12
690.00	21605.49
690.13	21774.00
690.27	21436.97
690.41	22022.10
690.54	21289.51
690.68	21341.00
690.81	21003.97
690.95	21097.59
691.08	21055.46
691.22	21055.46
691.35	20889.28
691.49	21046.10
691.62	21109.29
691.76	20730.12
691.89	20919.71
692.03	20442.24
692.16	20266.70
692.30	20362.66
692.43	20524.16
692.57	20159.03
692.70	20339.26
692.84	20184.78
692.97	19978.81
693.11	19681.56
693.24	20404.79
693.38	19763.48
693.51	19520.07
693.65	19915.62
693.78	19730.72
693.92	19728.38
694.05	19091.75
694.19	19157.28
694.32	19152.60
694.45	19051.96
694.59	18801.52
694.72	18750.03
694.86	18663.43
694.99	18478.53
695.13	18506.62
695.26	18202.35
695.39	18197.67
695.53	18583.85
695.66	18515.98
695.80	18328.74
695.93	18412.99
696.07	17839.56
696.20	18090.00
696.33	18085.32
696.47	18003.40
696.60	18012.76
696.73	17872.33
696.87	17593.81
697.00	17806.80
697.14	17626.57
697.27	17631.26
697.40	17362.09
697.54	17214.64
697.67	17181.87
697.80	17242.73
697.94	17465.08
698.07	16919.73
698.21	16826.11
698.34	17352.73
698.47	16924.41
698.61	16903.35
698.74	16531.20
698.87	16917.39
699.01	16528.86
699.14	16477.37
699.27	16559.29
699.40	16627.17
699.54	16149.70
699.67	16229.27
699.80	16161.40
699.94	16170.76
700.07	15983.52
700.20	15695.63
700.34	15847.77
700.47	15761.17
700.60	15899.26
700.73	15969.48
700.87	15829.04
701.00	15459.24
701.13	15482.64
701.26	15272.00
701.40	15552.86
701.53	15452.22
701.66	15475.62
701.79	15094.11
701.93	14869.42
702.06	14963.04
702.19	14820.27
702.32	14850.70
702.46	14679.84
702.59	14785.16
702.72	14904.53
702.85	14691.54
702.99	14906.87
703.12	15002.83
703.25	14420.04
703.38	14689.20
703.51	14242.16
703.65	14448.13
703.78	14230.46
703.91	14511.32
704.04	14406.00
704.17	14092.37
704.31	13994.06
704.44	13635.96
704.57	13802.14
704.70	13703.84
704.83	13432.33
704.96	13633.62
705.10	13813.84
705.23	13701.50
>>>>>End Processed Spectral Data<<<<<
