SpectraSuite Data File
++++++++++++++++++++++++++++++++++++
Date: Fri Oct 25 11:33:11 EDT 2013
User: price-jones
Dark Spectrum Present: No
Reference Spectrum Present: No
Number of Sampled Component Spectra: 1
Spectrometers: USB2+H05261
Integration Time (usec): 100000 (USB2+H05261)
Spectra Averaged: 1 (USB2+H05261)
Boxcar Smoothing: 0 (USB2+H05261)
Correct for Electrical Dark: No (USB2+H05261)
Strobe/Lamp Enabled: No (USB2+H05261)
Correct for Detector Non-linearity: No (USB2+H05261)
Correct for Stray Light: No (USB2+H05261)
Number of Pixels in Processed Spectrum: 2048
>>>>>Begin Processed Spectral Data<<<<<
365.73	290.23
365.92	290.23
366.12	290.23
366.32	117.03
366.52	156.82
366.72	205.97
366.91	166.18
367.11	166.18
367.31	159.16
367.51	189.58
367.70	217.67
367.90	187.24
368.10	117.03
368.30	175.54
368.49	217.67
368.69	241.08
368.89	201.29
369.09	152.13
369.28	175.54
369.48	194.26
369.68	222.35
369.87	149.79
370.07	210.65
370.27	273.84
370.47	325.33
370.66	505.56
370.86	463.43
371.06	550.03
371.25	606.20
371.45	512.58
371.65	514.92
371.84	554.71
372.04	601.52
372.24	566.41
372.44	519.60
372.63	580.45
372.83	557.05
373.03	631.94
373.22	634.29
373.42	547.69
373.62	641.31
373.81	629.60
374.01	667.05
374.21	716.20
374.40	653.01
374.60	683.44
374.79	770.04
374.99	592.16
375.19	667.05
375.38	650.67
375.58	631.94
375.78	653.01
375.97	699.82
376.17	709.18
376.37	699.82
376.56	678.76
376.76	727.91
376.95	702.16
377.15	746.63
377.35	718.54
377.54	660.03
377.74	706.84
377.93	723.23
378.13	711.52
378.33	678.76
378.52	676.41
378.72	669.39
378.91	772.38
379.11	685.78
379.31	690.46
379.50	727.91
379.70	798.12
379.89	711.52
380.09	669.39
380.28	718.54
380.48	807.48
380.68	692.80
380.87	753.65
381.07	763.01
381.26	798.12
381.46	732.59
381.65	819.19
381.85	739.61
382.04	720.88
382.24	788.76
382.43	753.65
382.63	763.01
382.83	706.84
383.02	779.40
383.22	777.06
383.41	821.53
383.61	786.42
383.80	894.08
384.00	793.44
384.19	875.36
384.39	784.08
384.58	809.83
384.78	856.64
384.97	851.96
385.17	758.33
385.36	863.66
385.56	861.32
385.75	758.33
385.95	741.95
386.14	833.23
386.34	807.48
386.53	856.64
386.72	940.90
386.92	828.55
387.11	866.00
387.31	887.06
387.50	823.87
387.70	898.77
387.89	861.32
388.09	856.64
388.28	880.04
388.48	861.32
388.67	973.66
388.86	929.19
389.06	896.43
389.25	896.43
389.45	985.37
389.64	983.02
389.84	980.68
390.03	880.04
390.22	1027.50
390.42	971.32
390.61	903.45
390.81	1025.15
391.00	964.30
391.19	957.28
391.39	1046.22
391.58	1025.15
391.78	1048.56
391.97	1074.31
392.16	1034.52
392.36	987.71
392.55	1022.81
392.75	1135.16
392.94	1095.37
393.13	985.37
393.33	987.71
393.52	1097.71
393.71	1090.69
393.91	1067.28
394.10	1132.82
394.29	1097.71
394.49	1062.60
394.68	1158.57
394.88	1128.14
395.07	1055.58
395.26	1097.71
395.46	1144.52
395.65	1193.67
395.84	1186.65
396.04	1224.10
396.23	1217.08
396.42	1167.93
396.62	1261.55
396.81	1104.73
397.00	1224.10
397.19	1226.44
397.39	1228.78
397.58	1301.34
397.77	1238.14
397.97	1294.32
398.16	1369.21
398.35	1228.78
398.55	1266.23
398.74	1364.53
398.93	1334.11
399.12	1238.14
399.32	1231.12
399.51	1380.92
399.70	1404.32
399.90	1362.19
400.09	1256.87
400.28	1291.98
400.47	1270.91
400.67	1399.64
400.86	1378.58
401.05	1299.00
401.24	1462.83
401.44	1369.21
401.63	1554.12
401.82	1448.79
402.01	1394.96
402.21	1474.54
402.40	1455.81
402.59	1474.54
402.78	1425.39
402.97	1439.43
403.17	1598.59
403.36	1614.97
403.55	1706.25
403.74	1593.90
403.93	1607.95
404.13	1607.95
404.32	1486.24
404.51	1631.35
404.70	1682.85
404.89	1671.14
405.09	1694.55
405.28	1708.59
405.47	1703.91
405.66	1678.16
405.85	1729.66
406.05	1640.72
406.24	1689.87
406.43	1727.32
406.62	1696.89
406.81	1823.28
407.00	1877.11
407.20	1741.36
407.39	1760.08
407.58	1806.89
407.77	1820.94
407.96	1834.98
408.15	1900.52
408.34	1877.11
408.54	2031.58
408.73	1970.73
408.92	2012.86
409.11	1874.77
409.30	2071.37
409.49	1944.99
409.68	2012.86
409.87	1959.03
410.07	1975.41
410.26	2143.93
410.45	1970.73
410.64	2071.37
410.83	2125.21
411.02	2090.10
411.21	2160.31
411.40	2172.02
411.59	2263.30
411.78	2202.44
411.98	2190.74
412.17	2188.40
412.36	2314.79
412.55	2284.36
412.74	2413.09
412.93	2385.01
413.12	2246.91
413.31	2459.90
413.50	2415.43
413.69	2349.90
413.88	2457.56
414.07	2520.76
414.26	2445.86
414.45	2436.50
414.64	2551.18
414.83	2583.95
415.02	2630.76
415.22	2693.96
415.41	2637.78
415.60	2633.10
415.79	2656.51
415.98	2740.77
416.17	2883.54
416.36	2745.45
416.55	2712.68
416.74	2867.16
416.93	2796.94
417.12	2899.92
417.31	2874.18
417.50	2881.20
417.69	2981.84
417.88	2925.67
418.07	2970.14
418.26	2951.42
418.45	3049.72
418.64	3009.93
418.83	2970.14
419.02	3014.61
419.21	3105.89
419.39	3215.90
419.58	3108.23
419.77	3070.78
419.96	3126.96
420.15	3166.74
420.34	3035.67
420.53	3246.32
420.72	3290.79
420.91	3211.22
421.10	3229.94
421.29	3405.48
421.48	3236.96
421.67	3370.37
421.86	3351.65
422.05	3328.24
422.24	3339.94
422.43	3389.10
422.61	3346.97
422.80	3356.33
422.99	3410.16
423.18	3295.47
423.37	3571.66
423.56	3426.54
423.75	3445.27
423.94	3370.37
424.13	3171.43
424.32	3353.99
424.50	3517.83
424.69	3536.55
424.88	3571.66
425.07	3503.78
425.26	3508.46
425.45	3513.14
425.64	3428.88
425.83	3529.53
426.01	3564.64
426.20	3321.22
426.39	3468.67
426.58	3520.17
426.77	3541.23
426.96	3665.28
427.15	3527.19
427.33	3735.50
427.52	3454.63
427.71	3482.72
427.90	3651.24
428.09	3658.26
428.28	3742.52
428.46	3824.44
428.65	3644.21
428.84	3826.78
429.03	3904.01
429.22	3646.55
429.40	3786.99
429.59	3824.44
429.78	3768.26
429.97	3613.79
430.16	3735.50
430.34	3698.05
430.53	3969.55
430.72	3929.76
430.91	3875.93
431.10	3892.31
431.28	4011.68
431.47	3995.29
431.66	4114.66
431.85	4023.38
432.03	3976.57
432.22	4109.98
432.41	4091.26
432.60	4212.96
432.79	4037.42
432.97	4117.00
433.16	4217.65
433.35	4173.18
433.54	4147.43
433.72	4421.27
433.91	4196.58
434.10	4332.33
434.28	4147.43
434.47	4215.30
434.66	4358.08
434.85	4308.93
435.03	4421.27
435.22	4271.48
435.41	4432.97
435.59	4365.10
435.78	4564.04
435.97	4477.44
436.16	4545.32
436.34	4442.34
436.53	4390.84
436.72	4491.49
436.90	4477.44
437.09	4678.73
437.28	4517.23
437.46	4620.22
437.65	4519.57
437.84	4606.17
438.02	4594.47
438.21	4606.17
438.40	4482.13
438.58	4723.20
438.77	4863.63
438.96	4887.04
439.14	4791.08
439.33	4800.44
439.52	4919.81
439.70	4840.23
439.89	5046.20
440.08	5200.67
440.26	4985.34
440.45	5071.94
440.63	5172.58
440.82	5177.26
441.01	5081.30
441.19	5203.01
441.38	5336.42
441.57	5270.89
441.75	5296.63
441.94	5526.00
442.12	5476.85
442.31	5509.62
442.50	5481.53
442.68	5448.77
442.87	5317.70
443.05	5486.22
443.24	5657.07
443.43	5582.18
443.61	5664.10
443.80	5720.27
443.98	5551.75
444.17	5383.23
444.35	5589.20
444.54	5628.99
444.73	5678.14
444.91	5788.14
445.10	5659.42
445.28	5612.60
445.47	5547.07
445.65	5692.18
445.84	5837.30
446.02	5825.59
446.21	5790.49
446.39	5659.42
446.58	5898.15
446.77	5785.80
446.95	5863.04
447.14	5893.47
447.32	5982.41
447.51	5879.43
447.69	5767.08
447.88	5867.72
448.06	5596.22
448.25	5802.19
448.43	5790.49
448.62	5860.70
448.80	5973.05
448.99	5823.25
449.17	5893.47
449.36	5973.05
449.54	6211.78
449.73	6094.76
449.91	6164.97
450.10	6115.82
450.28	6171.99
450.46	6150.93
450.65	6160.29
450.83	6270.30
451.02	6272.64
451.20	6403.71
451.39	6530.09
451.57	6202.42
451.76	6267.95
451.94	6265.61
452.13	6232.85
452.31	6312.42
452.49	6335.83
452.68	6380.30
452.86	6408.39
453.05	6258.59
453.23	6441.15
453.42	6422.43
453.60	6438.81
453.78	6551.16
453.97	6546.48
454.15	6359.24
454.34	6413.07
454.52	6530.09
454.70	6597.97
454.89	6658.82
455.07	6497.33
455.26	6733.72
455.44	6827.34
455.62	6782.87
455.81	6656.48
455.99	6789.89
456.17	6778.19
456.36	7023.95
456.54	6888.20
456.73	6986.50
456.91	6813.30
457.09	6937.35
457.28	7164.38
457.46	7087.14
457.64	7075.44
457.83	7272.04
458.01	6913.94
458.19	7297.79
458.38	7117.57
458.56	7215.87
458.74	7272.04
458.93	7218.21
459.11	7281.41
459.29	7433.54
459.48	7300.13
459.66	7414.82
459.84	7529.50
460.03	7499.08
460.21	7421.84
460.39	7382.05
460.57	7435.88
460.76	7583.34
460.94	7513.12
461.12	7478.01
461.31	7648.87
461.49	7468.65
461.67	7662.91
461.85	7712.07
462.04	7812.71
462.22	8189.53
462.40	7763.56
462.59	7693.34
462.77	7770.58
462.95	7742.49
463.13	7789.30
463.32	7824.41
463.50	8002.29
463.68	8109.96
463.86	8044.42
464.05	7957.82
464.23	7969.52
464.41	8065.49
464.59	7918.03
464.78	8231.66
464.96	8142.72
465.14	8067.83
465.32	8217.62
465.50	8222.30
465.69	8039.74
465.87	8278.47
466.05	8234.00
466.23	8255.07
466.41	8187.19
466.60	8351.03
466.78	8290.18
466.96	8215.28
467.14	8334.65
467.32	8344.01
467.51	8493.80
467.69	8170.81
467.87	8313.58
468.05	8421.25
468.23	8425.93
468.41	8414.23
468.60	8557.00
468.78	8512.53
468.96	8634.24
469.14	8587.43
469.32	8606.15
469.50	8547.64
469.69	8882.33
469.87	8692.75
470.05	8819.14
470.23	8931.48
470.41	8669.34
470.59	9013.40
470.77	9015.74
470.95	8856.59
471.14	9085.96
471.32	8933.82
471.50	9041.49
471.68	9078.94
471.86	9062.55
472.04	9188.94
472.22	9364.48
472.40	9097.66
472.58	9341.08
472.77	9273.20
472.95	9551.73
473.13	9603.22
473.31	9392.57
473.49	9544.70
473.67	9399.59
473.85	9624.28
474.03	9804.50
474.21	9830.25
474.39	9933.23
474.57	9851.31
474.75	9877.06
474.93	9914.51
475.12	10101.75
475.30	10214.10
475.48	10155.58
475.66	10186.01
475.84	10024.51
476.02	10178.99
476.20	10155.58
476.38	10342.83
476.56	10703.27
476.74	10576.88
476.92	10717.31
477.10	10656.46
477.28	10864.77
477.46	10602.63
477.64	10906.90
477.82	10981.79
478.00	11456.92
478.18	11164.36
478.36	11332.87
478.54	11461.60
478.72	11360.96
478.90	11515.44
479.08	11604.38
479.26	11826.73
479.44	12053.76
479.62	11698.00
479.80	12063.12
479.98	12159.08
480.16	12194.19
480.34	12294.83
480.52	12416.54
480.70	12325.26
480.88	12255.04
481.06	12545.27
481.24	12491.44
481.41	12526.55
481.59	12856.56
481.77	13277.86
481.95	12975.93
482.13	13027.42
482.31	13200.62
482.49	13350.42
482.67	13256.79
482.85	13523.62
483.03	13701.50
483.21	13834.91
483.39	14073.64
483.57	13898.10
483.74	14113.43
483.92	14132.15
484.10	13989.38
484.28	14427.06
484.46	14562.81
484.64	15068.37
484.82	14686.86
485.00	14665.80
485.18	14925.60
485.35	15166.67
485.53	15391.36
485.71	15482.64
485.89	15578.61
486.07	15688.61
486.25	15648.82
486.43	15819.68
486.61	15754.15
486.78	16065.44
486.96	16035.01
487.14	16353.32
487.32	16486.73
487.50	16486.73
487.68	16486.73
487.85	16957.18
488.03	16877.60
488.21	17181.87
488.39	17015.69
488.57	17359.75
488.75	17458.06
488.92	17359.75
489.10	17797.43
489.28	17598.49
489.46	17975.31
489.64	17851.27
489.81	18176.60
489.99	18225.75
490.17	18455.12
490.35	18544.06
490.53	18897.49
490.70	18799.18
490.88	18677.48
491.06	19110.47
491.24	18974.72
491.41	19075.37
491.59	19318.78
491.77	19482.62
491.95	19585.60
492.13	19887.53
492.30	19927.32
492.48	20144.99
492.66	19873.49
492.84	20093.50
493.01	20208.19
493.19	20140.31
493.37	20709.06
493.54	20603.74
493.72	20844.81
493.90	20814.38
494.08	21029.71
494.25	20971.20
494.43	21373.77
494.61	21198.23
494.79	21572.72
494.96	21895.71
495.14	21715.49
495.32	22221.05
495.49	21893.37
495.67	22043.17
495.85	22139.13
496.02	22483.19
496.20	22211.68
496.38	22719.58
496.55	22478.50
496.73	22960.66
496.91	23051.94
497.09	22904.48
497.26	23365.57
497.44	23185.35
497.62	23494.30
497.79	23697.92
497.97	23618.35
498.14	23711.97
498.32	23957.72
498.50	23983.47
498.67	24116.88
498.85	24077.09
499.03	24222.20
499.20	24346.25
499.38	24526.47
499.56	24467.96
499.73	24690.31
499.91	24582.65
500.08	24872.87
500.26	24891.60
500.44	24720.74
500.61	25078.84
500.79	24870.53
500.97	25523.54
501.14	25568.01
501.32	25500.14
501.49	25560.99
501.67	25565.67
501.84	25855.90
502.02	25509.50
502.20	26017.40
502.37	26001.01
502.55	25951.86
502.72	26249.11
502.90	26368.48
503.07	26324.01
503.25	26548.70
503.43	26604.87
503.60	26403.58
503.78	26824.88
503.95	26520.61
504.13	26824.88
504.30	27220.43
504.48	27197.02
504.65	26567.42
504.83	27398.31
505.01	27267.24
505.18	27173.62
505.36	27470.87
505.53	27325.75
505.71	27711.94
505.88	27393.63
506.06	27608.96
506.23	27828.97
506.41	27402.99
506.58	27601.94
506.76	28147.28
506.93	28451.55
507.11	28177.71
507.28	28093.45
507.46	28477.30
507.63	28484.32
507.81	28641.14
507.98	28439.85
508.16	28397.72
508.33	28716.03
508.50	29020.30
508.68	28980.51
508.85	29123.29
509.03	29064.77
509.20	29460.32
509.38	29670.97
509.55	29394.79
509.73	29469.69
509.90	29579.69
510.08	29820.77
510.25	29851.19
510.42	29642.88
510.60	30403.56
510.77	30129.72
510.95	30281.85
511.12	30410.58
511.30	30094.61
511.47	30038.44
511.64	30347.39
511.82	30780.39
511.99	30518.25
512.17	30499.52
512.34	30637.61
512.51	30801.45
512.69	31154.87
512.86	31316.37
513.04	31328.07
513.21	30918.48
513.38	31204.02
513.56	31669.79
513.73	31435.74
513.90	31536.38
514.08	31304.67
514.25	31721.28
514.43	31311.69
514.60	32123.85
514.77	31934.27
514.95	32149.60
515.12	32107.47
515.29	31929.59
515.47	31999.80
515.64	32278.33
515.81	32247.90
515.99	32652.81
516.16	33003.89
516.33	32587.28
516.51	32802.61
516.68	32945.38
516.85	32694.94
517.03	32978.15
517.20	33507.11
517.37	32856.44
517.54	33055.39
517.72	33397.10
517.89	33254.33
518.06	33254.33
518.24	33481.36
518.41	33420.51
518.58	33289.44
518.75	33134.96
518.93	33488.38
519.10	33432.21
519.27	33895.64
519.45	33820.74
519.62	34237.36
519.79	34281.83
519.96	34291.19
520.14	33888.62
520.31	33986.92
520.48	33907.34
520.65	34504.18
520.83	34480.77
521.00	34267.78
521.17	34539.29
521.34	34251.40
521.52	34726.53
521.69	34726.53
521.86	35021.44
522.03	35143.14
522.20	35526.99
522.38	35339.75
522.55	35124.42
522.72	35192.30
522.89	35831.26
523.07	35679.13
523.24	35651.04
523.41	35543.38
523.58	35335.07
523.75	35690.83
523.92	35576.14
524.10	36006.80
524.27	35840.62
524.44	35906.16
524.61	36020.84
524.78	35988.08
524.96	36299.37
525.13	36486.61
525.30	36858.76
525.47	36521.72
525.64	36416.40
525.81	36411.71
525.98	36851.73
526.16	36481.93
526.33	36456.18
526.50	37191.11
526.67	36645.77
526.84	36781.52
527.01	37177.07
527.18	37378.36
527.36	36823.65
527.53	37102.17
527.70	37673.26
527.87	37493.04
528.04	37069.40
528.21	37046.00
528.38	37429.85
528.55	37560.92
528.72	37303.46
528.89	37642.84
529.07	37589.00
529.24	37476.66
529.41	38071.15
529.58	37366.65
529.75	37743.48
529.92	38532.24
530.09	37656.88
530.26	38068.81
530.43	37837.10
530.60	38293.50
530.77	37785.61
530.94	38562.67
531.11	38511.17
531.28	38195.20
531.46	38183.50
531.63	38534.58
531.80	38562.67
531.97	38646.93
532.14	38553.30
532.31	38623.52
532.48	38852.89
532.65	39311.64
532.82	38766.29
532.99	38909.07
533.16	38888.00
533.33	38761.61
533.50	39100.99
533.67	39241.42
533.84	38890.34
534.01	39412.28
534.18	39196.95
534.35	39536.33
534.52	39768.04
534.69	39431.01
534.86	39562.08
535.03	39199.29
535.20	39531.65
535.37	39854.64
535.54	39746.98
535.71	39475.48
535.88	40172.96
536.05	40224.45
536.22	40381.26
536.38	39962.31
536.55	40006.78
536.72	40208.06
536.89	39948.26
537.06	39981.03
537.23	40474.88
537.40	39721.23
537.57	40507.65
537.74	40261.90
537.91	40765.11
538.08	40917.25
538.25	40198.70
538.42	40643.40
538.59	40835.33
538.75	40409.35
538.92	40474.88
539.09	40945.33
539.26	40521.69
539.43	41188.75
539.60	41120.87
539.77	40694.89
539.94	41226.20
540.11	41116.19
540.28	41153.64
540.44	41251.94
540.61	40835.33
540.78	41184.07
540.95	41724.73
541.12	41312.80
541.29	41160.66
541.46	41450.89
541.62	41134.92
541.79	41837.08
541.96	41111.51
542.13	41352.58
542.30	41408.76
542.47	42040.70
542.63	41483.66
542.80	42251.35
542.97	42239.65
543.14	42302.84
543.31	42192.84
543.48	42029.00
543.64	42541.58
543.81	42237.31
543.98	42253.69
544.15	42454.98
544.32	42124.96
544.48	42803.72
544.65	42799.04
544.82	43030.75
544.99	42616.47
545.16	42946.49
545.32	42873.93
545.49	42848.19
545.66	43107.99
545.83	42742.86
546.00	43093.94
546.16	42897.34
546.33	43351.40
546.50	42817.76
546.67	43264.80
546.83	42693.71
547.00	42806.06
547.17	43075.22
547.34	42990.96
547.50	42869.25
547.67	43662.69
547.84	43126.71
548.00	43573.75
548.17	43531.62
548.34	43945.90
548.51	43768.02
548.67	43173.52
548.84	43510.56
549.01	44107.40
549.18	43428.64
549.34	44179.95
549.51	43913.13
549.68	43917.81
549.84	43686.10
550.01	43697.80
550.18	43199.27
550.34	43777.38
550.51	43878.02
550.68	44093.35
550.84	43353.74
551.01	44304.00
551.18	43985.69
551.34	43948.24
551.51	44006.75
551.68	44231.44
551.84	43779.72
552.01	43779.72
552.18	44411.67
552.34	44245.49
552.51	44418.69
552.68	44135.48
552.84	43943.56
553.01	44699.55
553.18	44210.38
553.34	44652.74
553.51	44329.75
553.67	44376.56
553.84	44648.06
554.01	44655.08
554.17	44767.43
554.34	44839.98
554.51	44982.76
554.67	45209.79
554.84	45357.24
555.00	44516.99
555.17	44996.80
555.33	44926.58
555.50	45216.81
555.67	45272.98
555.83	45069.36
556.00	45261.28
556.16	45380.65
556.33	45315.11
556.50	45272.98
556.66	45221.49
556.83	45235.53
556.99	45315.11
557.16	45586.61
557.32	45797.26
557.49	45727.05
557.65	45055.31
557.82	45549.17
557.98	45450.86
558.15	45614.70
558.32	45443.84
558.48	45364.26
558.65	45677.90
558.81	45736.41
558.98	45823.01
559.14	45010.84
559.31	45280.00
559.47	45645.13
559.64	46078.13
559.80	45869.82
559.97	45956.42
560.13	45722.37
560.30	45694.28
560.46	46096.85
560.63	45846.41
560.79	46113.23
560.96	45965.78
561.12	46101.53
561.29	46033.66
561.45	46108.55
561.61	46373.03
561.78	46117.92
561.94	46087.49
562.11	46068.76
562.27	46218.56
562.44	46028.98
562.60	46380.06
562.77	46256.01
562.93	46401.12
563.10	46693.69
563.26	46263.03
563.42	46251.33
563.59	46436.23
563.75	46106.21
563.92	46799.01
564.08	46487.72
564.24	46597.73
564.41	46946.47
564.57	46754.54
564.74	46321.54
564.90	46501.76
565.07	46380.06
565.23	46321.54
565.39	46607.09
565.56	46752.20
565.72	46309.84
565.88	46192.81
566.05	46696.03
566.21	46667.94
566.38	46700.71
566.54	46375.37
566.70	46590.70
566.87	46916.04
567.03	46344.95
567.19	46941.78
567.36	46457.29
567.52	46511.13
567.68	47297.55
567.85	46813.05
568.01	47236.69
568.17	46504.10
568.34	47028.38
568.50	46852.84
568.66	46712.41
568.83	46527.51
568.99	46763.90
569.15	46948.81
569.32	47033.07
569.48	47023.70
569.64	47253.08
569.81	47159.45
569.97	46712.41
570.13	46848.16
570.30	46988.60
570.46	47234.35
570.62	47297.55
570.78	47042.43
570.95	47044.77
571.11	46850.50
571.27	46728.80
571.43	46955.83
571.60	46791.99
571.76	47260.10
571.92	47182.86
572.09	46717.09
572.25	47070.51
572.41	46890.29
572.57	47255.42
572.74	47452.02
572.90	47164.14
573.06	47056.47
573.22	47253.08
573.38	47274.14
573.55	47405.21
573.71	47557.35
573.87	47510.53
574.03	46958.17
574.20	47356.06
574.36	47009.66
574.52	47140.73
574.68	47224.99
574.84	47615.86
575.01	47452.02
575.17	47421.59
575.33	47466.06
575.49	47306.91
575.65	47648.63
575.82	47306.91
575.98	47192.22
576.14	47627.56
576.30	47870.98
576.46	47023.70
576.62	47283.50
576.79	47482.45
576.95	46885.61
577.11	47201.58
577.27	47344.36
577.43	47473.09
577.59	47337.33
577.75	47243.71
577.92	47447.34
578.08	47480.11
578.24	47552.66
578.40	47756.29
578.56	47915.45
578.72	47414.57
578.88	47501.17
579.04	47433.30
579.21	47510.53
579.37	47578.41
579.53	47533.94
579.69	47576.07
579.85	47782.04
580.01	47482.45
580.17	47292.86
580.33	47707.14
580.49	47379.46
580.65	47676.71
580.82	47564.37
580.98	47496.49
581.14	47543.30
581.30	47533.94
581.46	47533.94
581.62	47587.77
581.78	47459.04
581.94	47590.11
582.10	47744.59
582.26	47564.37
582.42	47529.26
582.58	47653.31
582.74	47807.78
582.90	47737.57
583.06	47665.01
583.22	47529.26
583.38	47908.43
583.54	47782.04
583.70	47814.80
583.86	47854.59
584.02	47730.54
584.18	47878.00
584.34	47852.25
584.50	48076.94
584.66	47777.36
584.82	47847.57
584.98	48275.89
585.14	48280.57
585.30	47714.16
585.46	47915.45
585.62	47639.26
585.78	47980.98
585.94	47695.44
586.10	48072.26
586.26	47697.78
586.42	47707.14
586.58	47859.27
586.74	47793.74
586.90	47821.83
587.06	47826.51
587.22	48053.54
587.38	47547.98
587.54	47903.74
587.70	48385.89
587.86	47999.71
588.02	47672.03
588.18	47646.29
588.34	47807.78
588.49	47934.17
588.65	47590.11
588.81	47709.48
588.97	47758.63
589.13	47807.78
589.29	48065.24
589.45	48009.07
589.61	47828.85
589.77	48224.40
589.93	48147.16
590.08	48076.94
590.24	48055.88
590.40	48439.73
590.56	48594.20
590.72	47938.85
590.88	47934.17
591.04	48144.82
591.20	48217.38
591.35	48456.11
591.51	48650.38
591.67	48500.58
591.83	48795.49
591.99	48090.99
592.15	47779.70
592.31	48236.10
592.46	48123.75
592.62	48053.54
592.78	48165.88
592.94	48292.27
593.10	48416.32
593.26	48760.38
593.41	48254.82
593.57	48294.61
593.73	48746.34
593.89	48744.00
594.05	49123.16
594.20	48573.14
594.36	49198.06
594.52	48669.10
594.68	48208.01
594.84	48430.36
594.99	48762.72
595.15	48147.16
595.31	48942.94
595.47	48278.23
595.62	48608.25
595.78	48388.24
595.94	48694.85
596.10	48385.89
596.25	48671.44
596.41	48697.19
596.57	48126.10
596.73	48671.44
596.88	48694.85
597.04	48734.63
597.20	48748.68
597.36	48371.85
597.51	48715.91
597.67	48346.11
597.83	48725.27
597.99	48495.90
598.14	48523.99
598.30	48357.81
598.46	49172.31
598.61	48844.64
598.77	48151.84
598.93	48800.17
599.09	48559.09
599.24	49066.99
599.40	48488.88
599.56	48807.19
599.71	48685.48
599.87	49008.48
600.03	49034.22
600.18	48624.63
600.34	48573.14
600.50	48809.53
600.65	48596.54
600.81	49064.65
600.97	48711.23
601.12	48921.88
601.28	48685.48
601.44	48650.38
601.59	48776.76
601.75	48523.99
601.91	49045.93
602.06	48865.70
602.22	48744.00
602.37	48636.33
602.53	48659.74
602.69	48769.74
602.84	48446.75
603.00	48327.38
603.16	48797.83
603.31	48369.51
603.47	48545.05
603.62	48781.45
603.78	48739.32
603.94	49001.46
604.09	48622.29
604.25	48528.67
604.40	48467.81
604.56	48774.42
604.71	49221.47
604.87	48699.53
605.03	48514.62
605.18	48842.30
605.34	48919.54
605.49	48392.92
605.65	48748.68
605.80	48580.16
605.96	48573.14
606.12	48523.99
606.27	48720.59
606.43	48577.82
606.58	48875.07
606.74	48390.58
606.89	48481.86
607.05	48594.20
607.20	48533.35
607.36	48868.05
607.51	48718.25
607.67	48636.33
607.82	48591.86
607.98	48669.10
608.13	48629.31
608.29	48509.94
608.44	48559.09
608.60	47826.51
608.75	48573.14
608.91	48446.75
609.06	48704.21
609.22	48952.30
609.37	48371.85
609.53	48495.90
609.68	48163.54
609.84	47969.28
609.99	48554.41
610.15	48418.66
610.30	48631.65
610.46	48273.55
610.61	48055.88
610.76	48488.88
610.92	48418.66
611.07	48168.22
611.23	48250.14
611.38	48299.30
611.54	48271.21
611.69	48598.88
611.84	48552.07
612.00	48268.87
612.15	47777.36
612.31	48521.65
612.46	47906.08
612.62	47973.96
612.77	47936.51
612.92	48729.95
613.08	48175.25
613.23	48191.63
613.39	48168.22
613.54	47728.20
613.69	48098.01
613.85	48163.54
614.00	48011.41
614.15	48327.38
614.31	47763.31
614.46	47889.70
614.62	47917.79
614.77	47742.25
614.92	48280.57
615.08	47821.83
615.23	48229.08
615.38	48088.65
615.54	47763.31
615.69	48130.78
615.84	47779.70
616.00	48254.82
616.15	48236.10
616.30	47885.02
616.46	47779.70
616.61	48002.05
616.76	47875.66
616.92	47573.73
617.07	47676.71
617.22	47945.87
617.37	47487.13
617.53	47782.04
617.68	47311.59
617.83	47278.82
617.99	47988.00
618.14	47931.83
618.29	47599.47
618.45	47208.61
618.60	47653.31
618.75	47428.62
618.90	47562.03
619.06	47901.40
619.21	47414.57
619.36	47653.31
619.51	47250.74
619.67	47412.23
619.82	47271.80
619.97	47400.53
620.12	47281.16
620.28	47379.46
620.43	47878.00
620.58	47379.46
620.73	47323.29
620.89	47578.41
621.04	47601.82
621.19	46972.21
621.34	47105.62
621.49	47564.37
621.65	47477.77
621.80	47686.07
621.95	47040.09
622.10	47374.78
622.25	47222.65
622.41	47058.81
622.56	47384.15
622.71	47049.45
622.86	47056.47
623.01	47054.13
623.16	47248.39
623.32	47143.07
623.47	46972.21
623.62	46670.28
623.77	47171.16
623.92	47325.63
624.07	47320.95
624.23	47007.32
624.38	47014.34
624.53	46983.91
624.68	46672.62
624.83	46607.09
624.98	46649.22
625.13	46588.36
625.29	46323.88
625.44	46948.81
625.59	46810.71
625.74	46752.20
625.89	46485.38
626.04	46373.03
626.19	46988.60
626.34	46368.35
626.49	46513.47
626.65	46089.83
626.80	46403.46
626.95	46094.51
627.10	46181.11
627.25	46347.29
627.40	46679.64
627.55	46005.57
627.70	46267.71
627.85	46698.37
628.00	46450.27
628.15	46546.23
628.30	46007.91
628.45	45689.60
628.60	45773.86
628.76	45818.33
628.91	46162.39
629.06	45771.52
629.21	45579.59
629.36	46220.90
629.51	45867.48
629.66	46288.77
629.81	45947.06
629.96	45521.08
630.11	45942.38
630.26	45647.47
630.41	45984.51
630.56	45963.44
630.71	45890.88
630.86	45633.42
631.01	45815.99
631.16	45560.87
631.31	45338.52
631.46	45846.41
631.61	45464.91
631.76	46218.56
631.91	45872.16
632.06	46204.52
632.21	46277.07
632.36	45830.03
632.51	45146.59
632.66	45436.82
632.81	45462.57
632.96	46089.83
633.10	45134.89
633.25	45652.15
633.40	45284.68
633.55	45942.38
633.70	45326.81
633.85	45446.18
634.00	45268.30
634.15	45109.14
634.30	45324.47
634.45	45195.74
634.60	45074.04
634.75	45200.43
634.90	45244.90
635.05	45064.67
635.19	44662.10
635.34	45186.38
635.49	45130.21
635.64	45237.87
635.79	45471.93
635.94	44839.98
636.09	45698.96
636.24	44891.48
636.39	44982.76
636.53	44718.28
636.68	44460.82
636.83	45310.43
636.98	44779.13
637.13	44692.53
637.28	44371.88
637.43	44547.42
637.57	44987.44
637.72	44676.15
637.87	44594.23
638.02	44437.41
638.17	44645.72
638.32	44708.91
638.46	44673.81
638.61	44582.52
638.76	44435.07
638.91	44252.51
639.06	44266.55
639.20	44048.88
639.35	44336.77
639.50	43920.15
639.65	44196.34
639.80	44315.70
639.94	44559.12
640.09	44217.40
640.24	44687.85
640.39	43913.13
640.54	43639.29
640.68	44229.10
640.83	44294.64
640.98	44247.83
641.13	43407.58
641.27	44332.09
641.42	44069.95
641.57	43643.97
641.72	44006.75
641.86	44114.42
642.01	44273.57
642.16	43828.87
642.31	43290.55
642.45	44133.14
642.60	43440.34
642.75	44172.93
642.90	43880.36
643.04	44023.14
643.19	43824.19
643.34	43627.59
643.48	43171.18
643.63	43707.16
643.78	43934.20
643.93	43882.70
644.07	43487.15
644.22	43599.50
644.37	43632.27
644.51	43901.43
644.66	43725.89
644.81	44116.76
644.95	43419.28
645.10	43533.96
645.25	43232.04
645.39	43119.69
645.54	43065.86
645.69	43360.76
645.83	43384.17
645.98	43611.20
646.13	42974.58
646.27	43068.20
646.42	43026.07
646.57	43103.31
646.71	43278.85
646.86	43580.78
647.00	43189.91
647.15	43358.42
647.30	43194.59
647.44	43243.74
647.59	42990.96
647.74	42918.40
647.88	43393.53
648.03	43154.80
648.17	43487.15
648.32	43138.41
648.47	43466.09
648.61	42487.74
648.76	42946.49
648.90	42885.64
649.05	42997.98
649.20	42272.42
649.34	43016.71
649.49	42380.08
649.63	43040.11
649.78	42665.63
649.92	42817.76
650.07	43030.75
650.21	43023.73
650.36	42759.25
650.51	42389.44
650.65	42763.93
650.80	42639.88
650.94	42497.11
651.09	42515.83
651.23	42082.83
651.38	42246.67
651.52	42265.39
651.67	42625.84
651.81	42588.39
651.96	42616.47
652.10	42209.22
652.25	42209.22
652.39	42326.25
652.54	42658.60
652.68	42232.63
652.83	42632.86
652.97	41996.23
653.12	41813.67
653.26	42494.77
653.41	41794.95
653.55	42333.27
653.70	41698.98
653.84	42029.00
653.99	42733.50
654.13	42265.39
654.27	41874.52
654.42	42609.45
654.56	41668.56
654.71	41881.55
654.85	41961.12
655.00	42471.36
655.14	42089.85
655.29	42302.84
655.43	42117.94
655.57	41591.32
655.72	41818.35
655.86	42101.56
656.01	41535.15
656.15	41333.86
656.30	41603.02
656.44	41879.21
656.58	41659.20
656.73	41598.34
656.87	41640.47
657.01	41298.75
657.16	41757.50
657.30	41230.88
657.45	40938.31
657.59	41209.81
657.73	41301.09
657.88	41392.37
658.02	41301.09
658.16	41532.81
658.31	41158.32
658.45	41443.87
658.60	41057.68
658.74	41230.88
658.88	41249.60
659.03	40907.88
659.17	40762.77
659.31	40739.36
659.46	40542.76
659.60	40933.63
659.74	40680.85
659.89	40692.55
660.03	40292.32
660.17	40432.75
660.32	41125.55
660.46	40425.73
660.60	40397.65
660.74	40245.51
660.89	40435.10
661.03	39887.41
661.17	39791.45
661.32	40334.45
661.46	39957.63
661.60	39959.97
661.74	39945.92
661.89	39988.05
662.03	39964.65
662.17	40285.30
662.31	39643.99
662.46	40435.10
662.60	39531.65
662.74	39758.68
662.88	39541.01
663.03	39423.98
663.17	39220.36
663.31	39337.38
663.45	39681.44
663.60	39868.69
663.74	39196.95
663.88	39339.72
664.02	39171.21
664.17	38752.25
664.31	39143.12
664.45	39159.50
664.59	39033.11
664.73	38752.25
664.88	39108.01
665.02	38464.36
665.16	38993.32
665.30	39335.04
665.44	38873.96
665.59	38583.73
665.73	38403.51
665.87	38445.64
666.01	38450.32
666.15	38621.18
666.29	38660.97
666.44	38356.70
666.58	38536.92
666.72	38419.89
666.86	38127.33
667.00	37986.89
667.14	38169.46
667.28	38176.48
667.43	38038.39
667.57	38253.72
667.71	38164.78
667.85	38253.72
667.99	37902.64
668.13	37809.01
668.27	37441.55
668.41	37488.36
668.56	37244.94
668.70	37560.92
668.84	37029.62
668.98	37242.60
669.12	37118.56
669.26	36629.38
669.40	37106.85
669.54	37404.10
669.68	37661.56
669.82	37022.59
669.96	36954.72
670.10	36610.66
670.25	36521.72
670.39	36725.35
670.53	36425.76
670.67	36741.73
670.81	36449.16
670.95	36177.66
671.09	36591.94
671.23	36383.63
671.37	36126.17
671.51	35943.61
671.65	35929.56
671.79	36030.21
671.93	36114.47
672.07	36343.84
672.21	36046.59
672.35	35360.81
672.49	35761.05
672.63	35878.07
672.77	35416.99
672.91	35473.16
673.05	35627.63
673.19	35412.31
673.33	35218.04
673.47	35512.95
673.61	34869.30
673.75	34616.52
673.89	35147.82
674.03	34918.45
674.17	34543.97
674.31	35007.39
674.45	34284.17
674.59	34501.84
674.73	34426.94
674.87	34017.35
675.01	34033.73
675.15	34192.89
675.29	33689.67
675.43	34164.80
675.56	33820.74
675.70	33689.67
675.84	33902.66
675.98	32704.31
676.12	33287.10
676.26	33797.34
676.40	33333.91
676.54	33200.50
676.68	33406.47
676.82	32900.91
676.96	33310.50
677.10	32926.66
677.23	32601.32
677.37	32620.05
677.51	32217.47
677.65	32987.51
677.79	32339.18
677.93	32666.86
678.07	32231.52
678.21	31992.78
678.34	32077.04
678.48	31580.85
678.62	31632.34
678.76	31503.61
678.90	31625.32
679.04	31534.04
679.18	31833.63
679.31	31332.75
679.45	31187.64
679.59	31133.81
679.73	31007.42
679.87	30892.73
680.00	31054.23
680.14	30874.01
680.28	31157.21
680.42	30813.15
680.56	30728.89
680.70	30373.13
680.83	30504.20
680.97	30068.86
681.11	29844.17
681.25	30108.65
681.39	29668.63
681.52	29766.93
681.66	29589.05
681.80	29252.02
681.94	29207.55
682.07	29362.02
682.21	28987.53
682.35	28847.10
682.49	28985.19
682.62	28992.22
682.76	29076.48
682.90	28610.71
683.04	28985.19
683.17	28643.48
683.31	28809.65
683.45	28493.68
683.59	27885.14
683.72	27950.68
683.86	28187.07
684.00	27704.92
684.13	28025.57
684.27	27950.68
684.41	27491.93
684.55	27470.87
684.68	27711.94
684.82	27314.05
684.96	27449.80
685.09	27594.92
685.23	27033.19
685.37	27431.08
685.50	27754.07
685.64	27557.47
685.78	26838.92
685.91	26728.92
686.05	26686.79
686.19	26078.25
686.32	26293.58
686.46	26096.97
686.60	25881.64
686.73	26342.73
686.87	25930.80
687.01	26277.19
687.14	25811.43
687.28	25511.84
687.42	25380.77
687.55	25460.35
687.69	25399.49
687.82	25537.59
687.96	24814.36
688.10	25287.15
688.23	25125.65
688.37	25062.46
688.50	25186.50
688.64	25139.69
688.78	24851.81
688.91	24446.90
689.05	24570.94
689.18	24437.53
689.32	23913.25
689.46	23695.58
689.59	24077.09
689.73	24161.35
689.86	24006.87
690.00	23985.81
690.13	24194.12
690.27	23374.93
690.41	23756.44
690.54	23407.70
690.68	23007.47
690.81	23445.15
690.95	23386.63
691.08	22838.95
691.22	23049.60
691.35	22916.19
691.49	22735.96
691.62	22979.38
691.76	22438.72
691.89	22349.78
692.03	22590.85
692.16	22188.28
692.30	22309.99
692.43	22216.36
692.57	21720.17
692.70	22022.10
692.84	21907.41
692.97	21816.13
693.11	21614.85
693.24	21502.50
693.38	21322.28
693.51	21240.36
693.65	21362.07
693.78	21245.04
693.92	21092.91
694.05	20711.40
694.19	20973.54
694.32	20786.30
694.45	20929.07
694.59	20765.23
694.72	20793.32
694.86	20851.83
694.99	20372.02
695.13	20262.02
695.26	19936.68
695.39	19850.08
695.53	20034.99
695.66	19796.25
695.80	19417.08
695.93	19840.72
696.07	19597.31
696.20	19531.77
696.33	19190.05
696.47	19190.05
696.60	19536.45
696.73	19447.51
696.87	19077.71
697.00	19260.27
697.14	19267.29
697.27	18834.29
697.40	18735.99
697.54	18878.76
697.67	18871.74
697.80	18473.85
697.94	18373.21
698.07	18298.31
698.21	18384.91
698.34	18382.57
698.47	17813.82
698.61	17673.39
698.74	17771.69
698.87	17809.14
699.01	17605.51
699.14	17916.80
699.27	17722.54
699.40	17628.92
699.54	17317.62
699.67	17261.45
699.80	17649.98
699.94	17156.13
700.07	17067.19
700.20	17015.69
700.34	16716.11
700.47	17006.33
700.60	17132.72
700.73	17160.81
700.87	16287.79
701.00	16458.65
701.13	16163.74
701.26	16308.85
701.40	16311.19
701.53	16058.42
701.66	16334.60
701.79	15999.90
701.93	15742.44
702.06	15817.34
702.19	15564.56
702.32	15971.82
702.46	15651.16
702.59	15901.60
702.72	15896.92
702.85	15721.38
702.99	15456.90
703.12	15339.87
703.25	15033.26
703.38	15054.33
703.51	15040.28
703.65	15297.74
703.78	14635.37
703.91	14951.34
704.04	14398.98
704.17	14724.31
704.31	14651.75
704.44	14567.49
704.57	14647.07
704.70	14537.07
704.83	14445.79
704.96	14148.54
705.10	14087.68
705.23	13944.91
>>>>>End Processed Spectral Data<<<<<
