SpectraSuite Data File
++++++++++++++++++++++++++++++++++++
Date: Fri Oct 25 10:48:12 EDT 2013
User: price-jones
Dark Spectrum Present: No
Reference Spectrum Present: No
Number of Sampled Component Spectra: 1
Spectrometers: USB2+H05261
Integration Time (usec): 100000 (USB2+H05261)
Spectra Averaged: 1 (USB2+H05261)
Boxcar Smoothing: 0 (USB2+H05261)
Correct for Electrical Dark: No (USB2+H05261)
Strobe/Lamp Enabled: No (USB2+H05261)
Correct for Detector Non-linearity: No (USB2+H05261)
Correct for Stray Light: No (USB2+H05261)
Number of Pixels in Processed Spectrum: 2048
>>>>>Begin Processed Spectral Data<<<<<
365.73	142.77
365.92	142.77
366.12	142.77
366.32	86.60
366.52	81.92
366.72	53.83
366.91	0.00
367.11	37.45
367.31	91.28
367.51	39.79
367.70	0.00
367.90	140.43
368.10	51.49
368.30	37.45
368.49	14.04
368.69	32.77
368.89	60.85
369.09	77.24
369.28	37.45
369.48	65.54
369.68	81.92
369.87	70.22
370.07	182.56
370.27	182.56
370.47	210.65
370.66	418.96
370.86	390.87
371.06	472.79
371.25	463.43
371.45	379.17
371.65	435.34
371.84	528.96
372.04	425.98
372.24	498.53
372.44	507.90
372.63	514.92
372.83	571.09
373.03	496.19
373.22	479.81
373.42	543.00
373.62	496.19
373.81	528.96
374.01	622.58
374.21	528.96
374.40	503.22
374.60	634.29
374.79	573.43
374.99	535.98
375.19	517.26
375.38	643.65
375.58	599.18
375.78	578.11
375.97	624.92
376.17	615.56
376.37	603.86
376.56	580.45
376.76	608.54
376.95	479.81
377.15	613.22
377.35	706.84
377.54	653.01
377.74	559.39
377.93	620.24
378.13	571.09
378.33	622.58
378.52	638.97
378.72	620.24
378.91	613.22
379.11	615.56
379.31	610.88
379.50	645.99
379.70	683.44
379.89	676.41
380.09	681.10
380.28	638.97
380.48	685.78
380.68	678.76
380.87	606.20
381.07	636.63
381.26	641.31
381.46	601.52
381.65	674.07
381.85	617.90
382.04	720.88
382.24	638.97
382.43	629.60
382.63	657.69
382.83	622.58
383.02	664.71
383.22	746.63
383.41	653.01
383.61	667.05
383.80	683.44
384.00	744.29
384.19	704.50
384.39	685.78
384.58	779.40
384.78	760.67
384.97	730.25
385.17	716.20
385.36	739.61
385.56	746.63
385.75	739.61
385.95	786.42
386.14	821.53
386.34	795.78
386.53	819.19
386.72	793.44
386.92	779.40
387.11	828.55
387.31	858.98
387.50	807.48
387.70	835.57
387.89	861.32
388.09	891.74
388.28	868.34
388.48	856.64
388.67	912.81
388.86	870.68
389.06	884.72
389.25	933.87
389.45	950.26
389.64	910.47
389.84	922.17
390.03	912.81
390.22	905.79
390.42	938.55
390.61	940.90
390.81	1011.11
391.00	976.00
391.19	1034.52
391.39	1055.58
391.58	987.71
391.78	994.73
391.97	983.02
392.16	961.96
392.36	1036.86
392.55	1036.86
392.75	1006.43
392.94	889.40
393.13	884.72
393.33	938.55
393.52	1060.26
393.71	1057.92
393.91	1022.81
394.10	1041.54
394.29	1121.12
394.49	1006.43
394.68	1198.35
394.88	1097.71
395.07	1170.27
395.26	1100.05
395.46	1146.86
395.65	1158.57
395.84	1053.24
396.04	1214.74
396.23	1210.06
396.42	1217.08
396.62	1116.44
396.81	1097.71
397.00	1039.20
397.19	1086.01
397.39	1118.78
397.58	1277.93
397.77	1179.63
397.97	1390.28
398.16	1273.25
398.35	1282.61
398.55	1324.74
398.74	1284.95
398.93	1352.83
399.12	1357.51
399.32	1315.38
399.51	1387.94
399.70	1444.11
399.90	1387.94
400.09	1523.69
400.28	1387.94
400.47	1483.90
400.67	1490.92
400.86	1380.92
401.05	1432.41
401.24	1526.03
401.44	1476.88
401.63	1526.03
401.82	1633.69
402.01	1476.88
402.21	1584.54
402.40	1516.67
402.59	1636.03
402.78	1519.01
402.97	1577.52
403.17	1619.65
403.36	1610.29
403.55	1626.67
403.74	1680.50
403.93	1607.95
404.13	1675.82
404.32	1682.85
404.51	1689.87
404.70	1853.70
404.89	1685.19
405.09	1816.26
405.28	1790.51
405.47	1673.48
405.66	1797.53
405.85	1753.06
406.05	1715.61
406.24	1750.72
406.43	1820.94
406.62	1893.49
406.81	1870.09
407.00	1832.64
407.20	1827.96
407.39	1858.39
407.58	1928.60
407.77	1916.90
407.96	1975.41
408.15	1886.47
408.34	1933.28
408.54	1963.71
408.73	2017.54
408.92	2036.27
409.11	1994.14
409.30	2085.42
409.49	2029.24
409.68	2066.69
409.87	2097.12
410.07	2174.36
410.26	2019.88
410.45	2094.78
410.64	2129.89
410.83	2223.51
411.02	2129.89
411.21	2354.58
411.40	2139.25
411.59	2413.09
411.78	2284.36
411.98	2293.72
412.17	2401.39
412.36	2370.96
412.55	2462.24
412.74	2438.84
412.93	2363.94
413.12	2321.81
413.31	2480.97
413.50	2565.23
413.69	2490.33
413.88	2487.99
414.07	2548.84
414.26	2499.69
414.45	2761.83
414.64	2565.23
414.83	2719.70
415.02	2747.79
415.22	2803.96
415.41	2780.56
415.60	2745.45
415.79	2876.52
415.98	2836.73
416.17	2869.50
416.36	2820.35
416.55	2881.20
416.74	3038.02
416.93	2869.50
417.12	2857.79
417.31	3014.61
417.50	3047.38
417.69	3141.00
417.88	3066.10
418.07	3009.93
418.26	3143.34
418.45	3152.70
418.64	3178.45
418.83	3197.17
419.02	3220.58
419.21	3150.36
419.39	3201.85
419.58	3286.11
419.77	3349.31
419.96	3157.38
420.15	3251.00
420.34	3267.39
420.53	3344.63
420.72	3407.82
420.91	3510.80
421.10	3412.50
421.29	3433.57
421.48	3454.63
421.67	3386.76
421.86	3637.19
422.05	3368.03
422.24	3456.97
422.43	3307.18
422.61	3581.02
422.80	3508.46
422.99	3559.95
423.18	3492.08
423.37	3740.18
423.56	3489.74
423.75	3648.90
423.94	3583.36
424.13	3361.01
424.32	3316.54
424.50	3492.08
424.69	3557.61
424.88	3637.19
425.07	3515.48
425.26	3473.36
425.45	3499.10
425.64	3592.72
425.83	3611.45
426.01	3751.88
426.20	3707.41
426.39	3545.91
426.58	3548.25
426.77	3648.90
426.96	3609.11
427.15	3585.70
427.33	3684.00
427.52	3786.99
427.71	3775.28
427.90	3812.73
428.09	3803.37
428.28	3730.81
428.46	3911.04
428.65	3815.07
428.84	3934.44
429.03	3866.56
429.22	3840.82
429.40	3796.35
429.59	3808.05
429.78	3726.13
429.97	3655.92
430.16	3700.39
430.34	3913.38
430.53	3908.69
430.72	3901.67
430.91	3964.87
431.10	3939.12
431.28	4025.72
431.47	4018.70
431.66	4177.86
431.85	3969.55
432.03	4032.74
432.22	4241.05
432.41	4219.99
432.60	4145.09
432.79	4189.56
432.97	4231.69
433.16	4341.69
433.35	4337.01
433.54	4308.93
433.72	4348.72
433.91	4269.14
434.10	4346.37
434.28	4339.35
434.47	4308.93
434.66	4461.06
434.85	4545.32
435.03	4599.15
435.22	4585.11
435.41	4622.56
435.59	4484.47
435.78	4505.53
435.97	4748.95
436.16	4622.56
436.34	4531.28
436.53	4629.58
436.72	4791.08
436.90	4552.34
437.09	4641.28
437.28	4652.98
437.46	4758.31
437.65	4627.24
437.84	4779.37
438.02	4706.82
438.21	4723.20
438.40	4830.87
438.58	4910.44
438.77	4683.41
438.96	4891.72
439.14	5081.30
439.33	5074.28
439.52	5025.13
439.70	5053.22
439.89	5142.16
440.08	5282.59
440.26	5226.42
440.45	5135.14
440.63	5291.95
440.82	5408.98
441.01	5238.12
441.19	5336.42
441.38	5617.29
441.57	5516.64
441.75	5767.08
441.94	5680.48
442.12	5577.50
442.31	5603.24
442.50	5671.12
442.68	5778.78
442.87	5701.54
443.05	5593.88
443.24	5849.00
443.43	5666.44
443.61	5767.08
443.80	6022.20
443.98	5694.52
444.17	5722.61
444.35	5937.94
444.54	5991.77
444.73	5898.15
444.91	5764.74
445.10	5802.19
445.28	5809.21
445.47	5956.66
445.65	5750.70
445.84	5886.45
446.02	5947.30
446.21	6010.50
446.39	5846.66
446.58	6083.05
446.77	6125.18
446.95	5727.29
447.14	5980.07
447.32	5912.19
447.51	5991.77
447.69	5942.62
447.88	5940.28
448.06	6169.65
448.25	6069.01
448.43	6132.20
448.62	6120.50
448.80	5921.56
448.99	6092.41
449.17	6190.72
449.36	6167.31
449.54	6361.58
449.73	6326.47
449.91	6279.66
450.10	6462.22
450.28	6523.07
450.46	6555.84
450.65	6478.60
450.83	6466.90
451.02	6368.60
451.20	6572.22
451.39	6469.24
451.57	6403.71
451.76	6544.14
451.94	6504.35
452.13	6619.04
452.31	6445.84
452.49	6537.12
452.68	6717.34
452.86	6534.78
453.05	6520.73
453.23	6612.01
453.42	6576.91
453.60	6743.08
453.78	6698.61
453.97	6813.30
454.15	6544.14
454.34	6707.98
454.52	6768.83
454.70	6764.15
454.89	6925.65
455.07	7002.88
455.26	6829.68
455.44	6909.26
455.62	6885.86
455.81	7077.78
455.99	7136.29
456.17	7056.72
456.36	6995.86
456.54	7213.53
456.73	7194.81
456.91	7349.28
457.09	7201.83
457.28	7222.89
457.46	7197.15
457.64	7414.82
457.83	7286.09
458.01	7253.32
458.19	7501.42
458.38	7288.43
458.56	7335.24
458.74	7562.27
458.93	7396.09
459.11	7583.34
459.29	7562.27
459.48	7501.42
459.66	7634.83
459.84	7557.59
460.03	7691.00
460.21	7559.93
460.39	7693.34
460.57	7602.06
460.76	7868.88
460.94	7730.79
461.12	7754.19
461.31	7733.13
461.49	7824.41
461.67	7775.26
461.85	7990.59
462.04	7880.58
462.22	8512.53
462.40	8161.45
462.59	8032.72
462.77	8011.65
462.95	8112.30
463.13	7915.69
463.32	7948.46
463.50	8182.51
463.68	8163.79
463.86	8210.60
464.05	8009.31
464.23	7948.46
464.41	8222.30
464.59	8182.51
464.78	8390.82
464.96	8358.05
465.14	8280.82
465.32	8339.33
465.50	8365.07
465.69	8313.58
465.87	8533.59
466.05	8587.43
466.23	8402.52
466.41	8442.31
466.60	8741.90
466.78	8521.89
466.96	8407.20
467.14	8594.45
467.32	8624.87
467.51	8643.60
467.69	8449.33
467.87	8383.80
468.05	8730.20
468.23	8606.15
468.41	8695.09
468.60	8650.62
468.78	8711.47
468.96	8662.32
469.14	8887.01
469.32	8744.24
469.50	8702.11
469.69	8929.14
469.87	8821.48
470.05	9085.96
470.23	8840.20
470.41	8919.78
470.59	9064.89
470.77	8990.00
470.95	8919.78
471.14	9188.94
471.32	9107.02
471.50	9294.27
471.68	9221.71
471.86	9275.54
472.04	9488.53
472.22	9621.94
472.40	9638.33
472.58	9432.36
472.77	9458.10
472.95	9486.19
473.13	10106.43
473.31	9750.67
473.49	9549.39
473.67	9593.86
473.85	9551.73
474.03	9966.00
474.21	10022.17
474.39	10019.83
474.57	10139.20
474.75	10155.58
474.93	10462.19
475.12	10174.31
475.30	10101.75
475.48	10300.70
475.66	10293.68
475.84	10274.95
476.02	10499.64
476.20	10501.98
476.38	10703.27
476.56	10881.15
476.74	10890.51
476.92	10782.85
477.10	10661.14
477.28	11166.70
477.46	10923.28
477.64	11042.65
477.82	11260.32
478.00	11613.74
478.18	11492.03
478.36	11541.18
478.54	11681.61
478.72	11620.76
478.90	11538.84
479.08	11875.88
479.26	11948.43
479.44	12011.63
479.62	11915.67
479.80	12311.22
479.98	12329.94
480.16	12425.90
480.34	12549.95
480.52	12589.74
480.70	12650.60
480.88	12400.16
481.06	12851.88
481.24	12669.32
481.41	12912.74
481.59	13158.49
481.77	13083.59
481.95	13184.24
482.13	13301.26
482.31	13305.95
482.49	13540.00
482.67	13720.22
482.85	13717.88
483.03	13853.63
483.21	14260.88
483.39	14059.60
483.57	14272.59
483.74	14466.85
483.92	14115.77
484.10	14445.79
484.28	14593.24
484.46	14661.12
484.64	15098.80
484.82	14958.36
485.00	14949.00
485.18	15424.13
485.35	15267.31
485.53	15241.57
485.71	15253.27
485.89	15496.69
486.07	15517.75
486.25	15396.04
486.43	15477.96
486.61	15763.51
486.78	16018.63
486.96	16161.40
487.14	16159.06
487.32	16161.40
487.50	16334.60
487.68	16634.19
487.85	16893.99
488.03	17055.48
488.21	17114.00
488.39	17095.27
488.57	17399.54
488.75	17212.30
488.92	17497.84
489.10	17612.53
489.28	17743.60
489.46	18230.43
489.64	17867.65
489.81	18506.62
489.99	18508.96
490.17	18562.79
490.35	19040.26
490.53	18705.56
490.70	18829.61
490.88	18895.14
491.06	19197.07
491.24	19103.45
491.41	19218.14
491.59	19360.91
491.77	19278.99
491.95	19433.47
492.13	19826.68
492.30	20109.88
492.48	20107.54
492.66	20219.89
492.84	20353.30
493.01	20428.20
493.19	20343.94
493.37	20601.40
493.54	20662.25
493.72	20968.86
493.90	20931.41
494.08	21097.59
494.25	21200.57
494.43	21235.68
494.61	21443.99
494.79	21675.70
494.96	21326.96
495.14	21935.50
495.32	21727.19
495.49	21795.07
495.67	22089.98
495.85	22305.31
496.02	22199.98
496.20	22448.08
496.38	22651.70
496.55	22785.12
496.73	23269.61
496.91	22838.95
497.09	22923.21
497.26	23014.49
497.44	23098.75
497.62	23140.88
497.79	23543.45
497.97	23683.88
498.14	23627.71
498.32	23524.72
498.50	23651.11
498.67	24163.69
498.85	24058.37
499.03	24439.87
499.20	24116.88
499.38	24400.08
499.56	24430.51
499.73	24631.80
499.91	24697.33
500.08	24343.91
500.26	24407.11
500.44	24400.08
500.61	24910.32
500.79	25120.97
500.97	25020.33
501.14	25308.21
501.32	25340.98
501.49	25280.13
501.67	25284.81
501.84	25759.94
502.02	25261.40
502.20	25977.61
502.37	25834.83
502.55	25902.71
502.72	25996.33
502.90	26094.63
503.07	25902.71
503.25	25909.73
503.43	26277.19
503.60	26443.37
503.78	26389.54
503.95	26380.18
504.13	26642.32
504.30	26544.02
504.48	26614.23
504.65	26881.05
504.83	26965.31
505.01	27435.76
505.18	26944.25
505.36	27515.34
505.53	27117.45
505.71	27536.40
505.88	27824.29
506.06	27227.45
506.23	27733.01
506.41	27321.07
506.58	27997.49
506.76	27889.82
506.93	27784.50
507.11	28203.46
507.28	28222.18
507.46	28144.94
507.63	28135.58
507.81	28245.58
507.98	28067.70
508.16	28320.48
508.33	28517.09
508.50	28559.22
508.68	28863.49
508.85	29113.92
509.03	28332.18
509.20	28748.80
509.38	29338.62
509.55	29706.08
509.73	29216.91
509.90	29406.49
510.08	28982.85
510.25	29469.69
510.42	29572.67
510.60	29656.93
510.77	29575.01
510.95	29881.62
511.12	29659.27
511.30	29986.94
511.47	30115.67
511.64	29905.02
511.82	30541.65
511.99	30096.95
512.17	30555.69
512.34	30403.56
512.51	30492.50
512.69	30546.33
512.86	30370.79
513.04	30981.67
513.21	30382.49
513.38	30799.11
513.56	30630.59
513.73	30988.69
513.90	31147.85
514.08	31002.74
514.25	30754.64
514.43	31129.12
514.60	31424.03
514.77	31541.06
514.95	31648.72
515.12	31276.58
515.29	31498.93
515.47	32046.62
515.64	31714.26
515.81	31723.62
515.99	32044.27
516.16	31817.24
516.33	31845.33
516.51	31819.58
516.68	31613.62
516.85	31512.97
517.03	31896.82
517.20	32563.87
517.37	32088.74
517.54	32435.14
517.72	32400.04
517.89	32364.93
518.06	32669.20
518.24	32229.18
518.41	31955.33
518.58	32500.68
518.75	32706.65
518.93	32996.87
519.10	32725.37
519.27	32706.65
519.45	32851.76
519.62	33062.41
519.79	33123.26
519.96	33521.15
520.14	33802.02
520.31	33436.89
520.48	33663.93
520.65	33322.21
520.83	33844.15
521.00	34183.52
521.17	33546.90
521.34	33565.62
521.52	33886.28
521.69	34136.71
521.86	33706.05
522.03	34506.52
522.20	34340.34
522.38	34663.33
522.55	34756.96
522.72	34288.85
522.89	34302.89
523.07	34347.36
523.24	33750.52
523.41	35026.12
523.58	34422.26
523.75	35194.64
523.92	34752.27
524.10	35079.95
524.27	35157.19
524.44	34923.13
524.61	35262.51
524.78	35295.28
524.96	35618.27
525.13	35531.67
525.30	35852.33
525.47	36037.23
525.64	35393.58
525.81	35704.87
525.98	35824.24
526.16	35908.50
526.33	35613.59
526.50	36180.00
526.67	35377.20
526.84	35625.29
527.01	35400.60
527.18	36030.21
527.36	35849.99
527.53	36046.59
527.70	36526.40
527.87	36575.55
528.04	36140.21
528.21	36165.96
528.38	36397.67
528.55	36514.70
528.72	36538.10
528.89	36985.15
529.07	36680.88
529.24	36226.81
529.41	36786.20
529.58	36535.76
529.75	36257.24
529.92	36954.72
530.09	36896.20
530.26	37083.45
530.43	37067.06
530.60	37179.41
530.77	37069.40
530.94	37242.60
531.11	37095.15
531.28	37020.25
531.46	37373.67
531.63	37507.08
531.80	37282.39
531.97	37486.02
532.14	37230.90
532.31	37514.11
532.48	37357.29
532.65	37830.08
532.82	37514.11
532.99	37778.59
533.16	37755.18
533.33	37834.76
533.50	38029.02
533.67	38099.24
533.84	37647.52
534.01	37860.51
534.18	37993.92
534.35	38345.00
534.52	38345.00
534.69	38352.02
534.86	38436.28
535.03	38749.91
535.20	38246.69
535.37	38576.71
535.54	39084.61
535.71	38492.45
535.88	38389.47
536.05	38672.67
536.22	38536.92
536.38	38614.16
536.55	38866.94
536.72	38789.70
536.89	38780.34
537.06	38712.46
537.23	39269.51
537.40	38909.07
537.57	38859.91
537.74	38962.90
537.91	39026.09
538.08	39026.09
538.25	38628.20
538.42	39716.55
538.59	39576.12
538.75	38710.12
538.92	39749.32
539.09	39730.59
539.26	39627.61
539.43	39400.58
539.60	39571.44
539.77	39061.20
539.94	39859.32
540.11	39569.10
540.28	39849.96
540.44	39189.93
540.61	39627.61
540.78	39454.41
540.95	39688.46
541.12	40002.10
541.29	39800.81
541.46	40018.48
541.62	39955.29
541.79	39971.67
541.96	39777.40
542.13	40130.83
542.30	40069.97
542.47	40041.88
542.63	40449.14
542.80	40477.22
542.97	40568.51
543.14	40715.96
543.31	40664.47
543.48	41146.62
543.64	41383.01
543.81	40832.99
543.98	40364.88
544.15	40987.46
544.32	41027.25
544.48	41228.54
544.65	40662.13
544.82	40957.03
544.99	40645.74
545.16	40615.32
545.32	40870.43
545.49	41488.34
545.66	41235.56
545.83	41408.76
546.00	41539.83
546.16	41425.14
546.33	41383.01
546.50	41071.72
546.67	41359.61
546.83	40978.10
547.00	40968.74
547.17	41268.33
547.34	41689.62
547.50	41247.26
547.67	41619.41
547.84	41759.84
548.00	41319.82
548.17	41584.30
548.34	41654.51
548.51	41720.05
548.67	41752.82
548.84	41860.48
549.01	41553.87
549.18	41633.45
549.34	42188.16
549.51	42375.40
549.68	41951.76
549.84	41858.14
550.01	42267.73
550.18	41790.27
550.34	42078.15
550.51	42078.15
550.68	42134.32
550.84	42061.77
551.01	41911.97
551.18	42581.37
551.34	42274.76
551.51	42480.72
551.68	42485.40
551.84	42036.02
552.01	42274.76
552.18	42473.70
552.34	42131.98
552.51	42621.16
552.68	42642.22
552.84	42284.12
553.01	42806.06
553.18	42382.42
553.34	42384.76
553.51	42609.45
553.67	42712.44
553.84	42918.40
554.01	42820.10
554.17	43084.58
554.34	43005.00
554.51	42955.85
554.67	43215.65
554.84	42890.32
555.00	42623.50
555.17	43185.22
555.33	43086.92
555.50	42834.14
555.67	43269.48
555.83	43192.25
556.00	43587.80
556.16	43388.85
556.33	42719.46
556.50	43000.32
556.66	43206.29
556.83	42995.64
556.99	43037.77
557.16	43468.43
557.32	43594.82
557.49	43529.28
557.65	43255.44
557.82	42997.98
557.98	43241.40
558.15	43166.50
558.32	43639.29
558.48	43503.54
558.65	43475.45
558.81	43243.74
558.98	43222.67
559.14	43917.81
559.31	43285.87
559.47	43250.76
559.64	44032.50
559.80	44282.94
559.97	43756.32
560.13	43276.51
560.30	44002.07
560.46	43512.90
560.63	43838.23
560.79	43800.79
560.96	43971.64
561.12	43690.78
561.29	44011.43
561.45	43686.10
561.61	43735.25
561.78	43934.20
561.94	43187.56
562.11	43681.42
562.27	43753.97
562.44	44105.06
562.60	44201.02
562.77	44247.83
562.93	44060.58
563.10	43971.64
563.26	44170.59
563.42	43990.37
563.59	43969.30
563.75	43948.24
563.92	44451.45
564.08	43962.28
564.24	44568.48
564.41	44175.27
564.57	44273.57
564.74	44002.07
564.90	43707.16
565.07	44128.46
565.23	44250.17
565.39	44158.89
565.56	44481.88
565.72	43728.23
565.88	44048.88
566.05	43910.79
566.21	44240.81
566.38	43995.05
566.54	44540.39
566.70	44355.49
566.87	44680.83
567.03	44156.55
567.19	44762.75
567.36	44334.43
567.52	43873.34
567.68	44435.07
567.85	44025.48
568.01	44325.07
568.17	44406.98
568.34	44694.87
568.50	44460.82
568.66	44612.95
568.83	44552.10
568.99	44463.16
569.15	44252.51
569.32	44025.48
569.48	44170.59
569.64	44435.07
569.81	44683.17
569.97	44311.02
570.13	44329.75
570.30	43826.53
570.46	43899.09
570.62	43999.73
570.78	44329.75
570.95	44233.78
571.11	44332.09
571.27	44222.08
571.43	44821.26
571.60	44545.08
571.76	44435.07
571.92	44533.37
572.09	44474.86
572.25	44425.71
572.41	44449.11
572.57	44685.51
572.74	45228.51
572.90	44790.83
573.06	44926.58
573.22	44945.31
573.38	44619.97
573.55	44409.32
573.71	44638.70
573.87	44474.86
574.03	44304.00
574.20	44685.51
574.36	44589.55
574.52	44465.50
574.68	44835.30
574.84	44549.76
575.01	45177.02
575.17	44631.68
575.33	44334.43
575.49	44516.99
575.65	44678.49
575.82	44570.82
575.98	44704.23
576.14	44751.04
576.30	44825.94
576.46	43948.24
576.62	44715.93
576.79	44612.95
576.95	44343.79
577.11	44524.01
577.27	44406.98
577.43	44725.30
577.59	44594.23
577.75	44741.68
577.92	45020.20
578.08	44460.82
578.24	44196.34
578.40	44882.11
578.56	44898.50
578.72	44795.51
578.88	44882.11
579.04	44896.16
579.21	44060.58
579.37	44737.00
579.53	44399.96
579.69	44601.25
579.85	44549.76
580.01	44732.32
580.17	44751.04
580.33	44652.74
580.49	44896.16
580.65	44837.64
580.82	45017.86
580.98	44650.40
581.14	44580.18
581.30	45214.47
581.46	44891.48
581.62	44804.88
581.78	44964.03
581.94	45109.14
582.10	44863.39
582.26	44971.05
582.42	44683.17
582.58	44896.16
582.74	44818.92
582.90	44718.28
583.06	44856.37
583.22	45106.80
583.38	45378.31
583.54	44975.73
583.70	45055.31
583.86	44687.85
584.02	44495.92
584.18	44928.92
584.34	44680.83
584.50	45331.50
584.66	44582.52
584.82	44839.98
584.98	45059.99
585.14	44851.69
585.30	45237.87
585.46	44753.38
585.62	44662.10
585.78	44634.02
585.94	44568.48
586.10	44729.98
586.26	44533.37
586.42	44917.22
586.58	45008.50
586.74	44755.72
586.90	44832.96
587.06	44631.68
587.22	44910.20
587.38	45160.64
587.54	45530.44
587.70	45263.62
587.86	45148.93
588.02	45188.72
588.18	44992.12
588.34	45467.25
588.49	44556.78
588.65	44456.14
588.81	44758.06
588.97	44596.57
589.13	44601.25
589.29	45446.18
589.45	44722.96
589.61	44893.82
589.77	45031.91
589.93	45378.31
590.08	45261.28
590.24	45127.87
590.40	44935.95
590.56	45310.43
590.72	45301.07
590.88	45027.23
591.04	44982.76
591.20	45240.21
591.35	45387.67
591.51	45411.07
591.67	44928.92
591.83	45322.13
591.99	44545.08
592.15	45038.93
592.31	44989.78
592.46	44854.03
592.62	45462.57
592.78	45628.74
592.94	45476.61
593.10	45333.84
593.26	45308.09
593.41	45338.52
593.57	45155.96
593.73	45029.57
593.89	45476.61
594.05	45001.48
594.20	45069.36
594.36	45261.28
594.52	45123.19
594.68	45296.39
594.84	45144.25
594.99	45598.32
595.15	44994.46
595.31	45446.18
595.47	45165.32
595.62	45095.10
595.78	45432.14
595.94	45172.34
596.10	45305.75
596.25	45399.37
596.41	45277.66
596.57	45158.30
596.73	45184.04
596.88	45160.64
597.04	45109.14
597.20	45469.59
597.36	45301.07
597.51	45890.88
597.67	45666.19
597.83	45441.50
597.99	45172.34
598.14	45595.98
598.30	45118.51
598.46	45453.20
598.61	45127.87
598.77	45071.70
598.93	45305.75
599.09	45258.94
599.24	45511.72
599.40	45233.19
599.56	45432.14
599.71	45364.26
599.87	45556.19
600.03	45146.59
600.18	45633.42
600.34	45233.19
600.50	45343.20
600.65	45326.81
600.81	45345.54
600.97	45656.83
601.12	46021.95
601.28	45404.05
601.44	45535.12
601.59	45177.02
601.75	44821.26
601.91	45291.71
602.06	45078.72
602.22	45518.74
602.37	44776.79
602.53	45031.91
602.69	45703.64
602.84	45380.65
603.00	44964.03
603.16	45312.77
603.31	44938.29
603.47	45144.25
603.62	45029.57
603.78	45081.06
603.94	45123.19
604.09	45593.64
604.25	45141.91
604.40	44996.80
604.56	45081.06
604.71	45530.44
604.87	45240.21
605.03	45544.48
605.18	45083.40
605.34	44870.41
605.49	45106.80
605.65	45249.58
605.80	45155.96
605.96	45085.74
606.12	45406.39
606.27	45858.12
606.43	45240.21
606.58	45518.74
606.74	45179.36
606.89	44680.83
607.05	45191.06
607.20	45127.87
607.36	45064.67
607.51	45287.03
607.67	45179.36
607.82	45315.11
607.98	45132.55
608.13	45010.84
608.29	45347.88
608.44	44526.35
608.60	44769.77
608.75	44870.41
608.91	44545.08
609.06	44968.71
609.22	45382.99
609.37	44685.51
609.53	45001.48
609.68	45125.53
609.84	45120.85
609.99	45137.23
610.15	45188.72
610.30	44685.51
610.46	44236.12
610.61	45298.73
610.76	44603.59
610.92	44322.72
611.07	44765.09
611.23	44608.27
611.38	44912.54
611.54	44346.13
611.69	44488.90
611.84	44746.36
612.00	44734.66
612.15	44556.78
612.31	44601.25
612.46	44727.64
612.62	44388.26
612.77	45038.93
612.92	44919.56
613.08	44626.99
613.23	44519.33
613.39	44519.33
613.54	43878.02
613.69	44182.29
613.85	44727.64
614.00	44603.59
614.15	44629.34
614.31	44669.12
614.46	44486.56
614.62	44287.62
614.77	44205.70
614.92	44266.55
615.08	44444.43
615.23	44264.21
615.38	44175.27
615.54	44460.82
615.69	44196.34
615.84	44296.98
616.00	44105.06
616.15	44224.42
616.30	44121.44
616.46	43936.54
616.61	43723.55
616.76	43803.13
616.92	43674.40
617.07	44088.67
617.22	44121.44
617.37	43695.46
617.53	44147.18
617.68	44341.45
617.83	44079.31
617.99	44081.65
618.14	43988.03
618.29	43613.54
618.45	43555.03
618.60	43927.17
618.75	43601.84
618.90	43650.99
619.06	44151.87
619.21	43768.02
619.36	43861.64
619.51	43704.82
619.67	43590.14
619.82	44142.50
619.97	43316.29
620.12	43377.15
620.28	42717.12
620.43	43388.85
620.58	43271.82
620.73	43398.21
620.89	43084.58
621.04	43503.54
621.19	43538.65
621.34	43313.95
621.49	43620.56
621.65	43133.73
621.80	43440.34
621.95	43217.99
622.10	43447.36
622.25	43030.75
622.41	43126.71
622.56	42878.61
622.71	43047.13
622.86	43328.00
623.01	43210.97
623.16	43304.59
623.32	43105.65
623.47	43550.35
623.62	43353.74
623.77	43328.00
623.92	43054.15
624.07	42820.10
624.23	42719.46
624.38	42637.54
624.53	42403.49
624.68	42951.17
624.83	42876.27
624.98	43164.16
625.13	42642.22
625.29	42777.97
625.44	42717.12
625.59	42555.62
625.74	42471.36
625.89	42218.58
626.04	42300.50
626.19	42328.59
626.34	42099.22
626.49	41972.83
626.65	42391.78
626.80	42787.33
626.95	42136.66
627.10	42188.16
627.25	42174.11
627.40	41977.51
627.55	42050.06
627.70	41605.36
627.85	41827.71
628.00	42469.02
628.15	42391.78
628.30	42073.47
628.45	42347.31
628.60	41780.90
628.76	42080.49
628.91	41954.10
629.06	41799.63
629.21	41558.55
629.36	41839.42
629.51	41633.45
629.66	41488.34
629.81	41813.67
629.96	42239.65
630.11	41432.16
630.26	41696.64
630.41	42057.09
630.56	41881.55
630.71	41841.76
630.86	41500.04
631.01	41163.00
631.16	41411.10
631.31	41450.89
631.46	41249.60
631.61	41441.53
631.76	41350.24
631.91	41816.01
632.06	41467.27
632.21	41525.78
632.36	41947.08
632.51	41701.32
632.66	41420.46
632.81	41235.56
632.96	41041.29
633.10	41024.91
633.25	40645.74
633.40	41275.35
633.55	41469.61
633.70	41457.91
633.85	41560.89
634.00	41202.79
634.15	41003.85
634.30	41237.90
634.45	41303.43
634.60	41322.16
634.75	41263.64
634.90	40917.25
635.05	41092.79
635.19	40917.25
635.34	41291.73
635.49	41148.96
635.64	40547.44
635.79	40547.44
635.94	40329.77
636.09	40928.95
636.24	40498.29
636.39	40542.76
636.53	40690.21
636.68	40261.90
636.83	40605.95
636.98	41041.29
637.13	40243.17
637.28	40786.18
637.43	40800.22
637.57	40746.39
637.72	40449.14
637.87	41148.96
638.02	40697.24
638.17	40161.25
638.32	40495.95
638.46	40355.52
638.61	40538.08
638.76	40275.94
638.91	40130.83
639.06	40037.20
639.20	40121.46
639.35	40264.24
639.50	40336.79
639.65	40210.40
639.80	40247.85
639.94	40289.98
640.09	39955.29
640.24	40086.36
640.39	40006.78
640.54	39875.71
640.68	39856.98
640.83	39819.53
640.98	39985.71
641.13	39641.65
641.27	39988.05
641.42	39828.90
641.57	39796.13
641.72	39824.22
641.86	39257.81
642.01	39903.79
642.16	39569.10
642.31	39578.46
642.45	40051.25
642.60	39592.50
642.75	39220.36
642.90	39222.70
643.04	39538.67
643.19	39541.01
643.34	39667.40
643.48	39395.90
643.63	38820.13
643.78	39089.29
643.93	39346.75
644.07	39185.25
644.22	39416.96
644.37	39243.76
644.51	39051.84
644.66	39758.68
644.81	39395.90
644.95	39005.03
645.10	39335.04
645.25	39232.06
645.39	39655.70
645.54	39164.18
645.69	39203.97
645.83	39138.44
645.98	39222.70
646.13	39519.95
646.27	39199.29
646.42	39089.29
646.57	38967.58
646.71	39054.18
646.86	38880.98
647.00	38859.91
647.15	38752.25
647.30	39360.79
647.44	39250.78
647.59	38836.51
647.74	38567.35
647.88	39108.01
648.03	38934.81
648.17	38508.83
648.32	38391.81
648.47	38576.71
648.61	38862.26
648.76	38801.40
648.90	38698.42
649.05	38422.23
649.20	38845.87
649.34	39054.18
649.49	38557.99
649.63	38455.00
649.78	38642.24
649.92	38323.93
650.07	38625.86
650.21	38110.94
650.36	38518.20
650.51	38597.77
650.65	38925.45
650.80	38602.46
650.94	38204.56
651.09	38754.59
651.23	38300.53
651.38	37998.60
651.52	38169.46
651.67	38263.08
651.81	37975.19
651.96	38188.18
652.10	37872.21
652.25	37982.21
652.39	38120.31
652.54	37860.51
652.68	38190.52
652.83	38218.61
652.97	38148.39
653.12	38103.92
653.26	38422.23
653.41	37914.34
653.55	37612.41
653.70	37668.58
653.84	37631.13
653.99	37649.86
654.13	37890.93
654.27	37633.47
654.42	37673.26
654.56	37724.75
654.71	37801.99
654.85	37699.01
655.00	38047.75
655.14	37368.99
655.29	37626.45
655.43	37598.37
655.57	37207.50
655.72	37181.75
655.86	37277.71
656.01	37186.43
656.15	37088.13
656.30	37097.49
656.44	37055.36
656.58	37258.99
656.73	36856.42
656.87	37165.37
657.01	36989.83
657.16	36739.39
657.30	37205.16
657.45	36521.72
657.59	36987.49
657.73	36500.65
657.88	37081.11
658.02	36313.41
658.16	36840.03
658.31	37163.03
658.45	37188.77
658.60	36772.16
658.74	36816.63
658.88	36407.03
659.03	36673.85
659.17	36259.58
659.31	36793.22
659.46	36858.76
659.60	36383.63
659.74	36231.49
659.89	36116.81
660.03	36048.93
660.17	36435.12
660.32	36711.30
660.46	36577.89
660.60	36591.94
660.74	36603.64
660.89	36741.73
661.03	35812.54
661.17	35943.61
661.32	35786.79
661.46	35711.89
661.60	35950.63
661.74	35625.29
661.89	35744.66
662.03	35840.62
662.17	35627.63
662.31	35545.72
662.46	35880.41
662.60	36013.82
662.74	35409.96
662.88	35672.10
663.03	35569.12
663.17	35625.29
663.31	35456.78
663.45	34888.03
663.60	35440.39
663.74	35012.07
663.88	35189.95
664.02	35171.23
664.17	35232.08
664.31	34541.63
664.45	34923.13
664.59	35058.88
664.73	35063.57
664.88	35016.75
665.02	34532.26
665.16	35065.91
665.30	34707.80
665.44	34841.21
665.59	34405.88
665.73	34834.19
665.87	34085.22
666.01	34616.52
666.15	34799.08
666.29	34148.42
666.44	34565.03
666.58	34338.00
666.72	34864.62
666.86	34632.91
667.00	34450.35
667.14	34223.31
667.28	33893.30
667.43	33532.86
667.57	34057.14
667.71	33895.64
667.85	33991.60
667.99	33624.14
668.13	33673.29
668.27	33560.94
668.41	33872.23
668.56	33415.83
668.70	33354.97
668.84	33310.50
668.98	33429.87
669.12	33394.76
669.26	33467.32
669.40	32980.49
669.54	33205.18
669.68	32971.13
669.82	33074.11
669.96	33022.62
670.10	32552.17
670.25	32938.36
670.39	32737.07
670.53	32847.08
670.67	32985.17
670.81	32393.01
670.95	32957.08
671.09	32765.16
671.23	33137.30
671.37	32903.25
671.51	32404.72
671.65	32582.60
671.79	32023.21
671.93	32301.73
672.07	32292.37
672.21	32088.74
672.35	31969.38
672.49	31798.52
672.63	32463.23
672.77	31857.03
672.91	31960.02
673.05	31548.08
673.19	31817.24
673.33	31665.11
673.47	31835.97
673.61	31330.41
673.75	31239.13
673.89	30731.23
674.03	31103.38
674.17	31108.06
674.31	31098.70
674.45	30991.03
674.59	30944.22
674.73	31077.63
674.87	30771.02
675.01	30948.90
675.15	30764.00
675.29	30904.43
675.43	30756.98
675.56	30506.54
675.70	30501.86
675.84	30480.80
675.98	29523.52
676.12	30478.46
676.26	29916.73
676.40	29551.60
676.54	30242.06
676.68	30054.82
676.82	29610.12
676.96	29605.44
677.10	29228.61
677.23	29259.04
677.37	29528.20
677.51	29247.33
677.65	29467.34
677.79	28889.23
677.93	29181.80
678.07	28856.46
678.21	28746.46
678.34	28819.02
678.48	28748.80
678.62	28531.13
678.76	28072.39
678.90	28446.87
679.04	28568.58
679.18	28540.49
679.31	28161.33
679.45	27941.32
679.59	27641.73
679.73	28215.16
679.87	28032.60
680.00	28107.49
680.14	27733.01
680.28	27976.42
680.42	27709.60
680.56	27435.76
680.70	27405.33
680.83	27330.44
680.97	27019.14
681.11	27178.30
681.25	26998.08
681.39	26876.37
681.52	26988.72
681.66	27037.87
681.80	26759.34
681.94	26569.76
682.07	26363.79
682.21	26684.45
682.35	26192.94
682.49	26623.59
682.62	26441.03
682.76	26263.15
682.90	25949.52
683.04	26384.86
683.17	26197.62
683.31	25757.60
683.45	26129.74
683.59	25638.23
683.72	25500.14
683.86	25537.59
684.00	25364.39
684.13	25481.41
684.27	25212.25
684.41	25324.60
684.55	25186.50
684.68	24800.32
684.82	24528.81
684.96	24989.90
685.09	24730.10
685.23	24683.29
685.37	24697.33
685.50	24577.97
685.64	24290.08
685.78	24451.58
685.91	24594.35
686.05	24226.89
686.19	23990.49
686.32	23791.55
686.46	23901.55
686.60	23349.18
686.73	23407.70
686.87	23365.57
687.01	23147.90
687.14	23459.19
687.28	23159.60
687.42	23161.94
687.55	23056.62
687.69	22785.12
687.82	23161.94
687.96	22778.09
688.10	22661.07
688.23	22930.23
688.37	22492.55
688.50	22199.98
688.64	22167.21
688.78	22286.58
688.91	21839.54
689.05	22307.65
689.18	22104.02
689.32	21668.68
689.46	21933.16
689.59	22111.04
689.73	22157.85
689.86	22312.33
690.00	21816.13
690.13	21860.60
690.27	21525.91
690.41	21568.04
690.54	21249.72
690.68	21317.60
690.81	21336.32
690.95	21013.33
691.08	20954.82
691.22	20975.88
691.35	20961.84
691.49	20971.20
691.62	21041.42
691.76	20706.72
691.89	20690.34
692.03	20610.76
692.16	20568.63
692.30	20367.34
692.43	20362.66
692.57	20247.97
692.70	20119.24
692.84	20238.61
692.97	19894.55
693.11	19644.12
693.24	19859.45
693.38	19922.64
693.51	19419.42
693.65	19152.60
693.78	19681.56
693.92	19524.75
694.05	19159.63
694.19	18979.40
694.32	19164.31
694.45	19089.41
694.59	19110.47
694.72	18951.32
694.86	18883.44
694.99	18394.27
695.13	18359.16
695.26	18387.25
695.39	18382.57
695.53	18487.89
695.66	18630.66
695.80	18412.99
695.93	18310.01
696.07	18146.17
696.20	18017.44
696.33	17961.27
696.47	17963.61
696.60	17582.10
696.73	17912.12
696.87	17846.58
697.00	17762.33
697.14	17504.87
697.27	17326.99
697.40	17371.46
697.54	17490.82
697.67	17209.96
697.80	17542.32
697.94	17261.45
698.07	16989.95
698.21	17219.32
698.34	17153.79
698.47	17006.33
698.61	16723.13
698.74	16765.26
698.87	16762.92
699.01	16683.34
699.14	16655.25
699.27	16622.48
699.40	16669.30
699.54	16264.38
699.67	16212.89
699.80	16121.61
699.94	15838.41
700.07	16266.72
700.20	15908.62
700.34	15721.38
700.47	15894.58
700.60	15620.74
700.73	15700.31
700.87	15899.26
701.00	15775.21
701.13	15571.58
701.26	15602.01
701.40	15482.64
701.53	15428.81
701.66	15452.22
701.79	15044.96
701.93	15328.17
702.06	14913.89
702.19	14792.19
702.32	14937.30
702.46	15119.86
702.59	14766.44
702.72	14588.56
702.85	14590.90
702.99	14862.40
703.12	14813.25
703.25	14284.29
703.38	14518.34
703.51	14317.06
703.65	14256.20
703.78	14345.14
703.91	14258.54
704.04	14284.29
704.17	14279.61
704.31	14200.03
704.44	13647.66
704.57	13783.41
704.70	13778.73
704.83	13523.62
704.96	13820.86
705.10	13745.97
705.23	13858.31
>>>>>End Processed Spectral Data<<<<<
