SpectraSuite Data File
++++++++++++++++++++++++++++++++++++
Date: Fri Oct 25 10:43:25 EDT 2013
User: price-jones
Dark Spectrum Present: No
Reference Spectrum Present: No
Number of Sampled Component Spectra: 1
Spectrometers: USB2+H05261
Integration Time (usec): 100000 (USB2+H05261)
Spectra Averaged: 1 (USB2+H05261)
Boxcar Smoothing: 0 (USB2+H05261)
Correct for Electrical Dark: No (USB2+H05261)
Strobe/Lamp Enabled: No (USB2+H05261)
Correct for Detector Non-linearity: No (USB2+H05261)
Correct for Stray Light: No (USB2+H05261)
Number of Pixels in Processed Spectrum: 2048
>>>>>Begin Processed Spectral Data<<<<<
365.73	124.05
365.92	124.05
366.12	124.05
366.32	74.90
366.52	9.36
366.72	7.02
366.91	0.00
367.11	67.88
367.31	49.15
367.51	70.22
367.70	7.02
367.90	0.00
368.10	11.70
368.30	30.43
368.49	70.22
368.69	84.26
368.89	81.92
369.09	16.38
369.28	30.43
369.48	121.71
369.68	79.58
369.87	93.62
370.07	14.04
370.27	81.92
370.47	149.79
370.66	346.40
370.86	376.83
371.06	489.17
371.25	477.47
371.45	447.04
371.65	505.56
371.84	440.02
372.04	451.72
372.24	491.51
372.44	465.77
372.63	463.43
372.83	458.74
373.03	538.32
373.22	524.28
373.42	531.30
373.62	489.17
373.81	510.24
374.01	564.07
374.21	564.07
374.40	493.85
374.60	557.05
374.79	578.11
374.99	444.70
375.19	587.47
375.38	589.82
375.58	603.86
375.78	660.03
375.97	582.79
376.17	617.90
376.37	678.76
376.56	638.97
376.76	655.35
376.95	543.00
377.15	599.18
377.35	615.56
377.54	627.26
377.74	645.99
377.93	580.45
378.13	533.64
378.33	655.35
378.52	592.16
378.72	636.63
378.91	681.10
379.11	648.33
379.31	636.63
379.50	657.69
379.70	641.31
379.89	713.86
380.09	697.48
380.28	648.33
380.48	678.76
380.68	631.94
380.87	603.86
381.07	704.50
381.26	774.72
381.46	716.20
381.65	676.41
381.85	683.44
382.04	697.48
382.24	648.33
382.43	706.84
382.63	727.91
382.83	746.63
383.02	788.76
383.22	727.91
383.41	690.46
383.61	755.99
383.80	753.65
384.00	718.54
384.19	791.10
384.39	807.48
384.58	861.32
384.78	795.78
384.97	788.76
385.17	760.67
385.36	786.42
385.56	774.72
385.75	781.74
385.95	739.61
386.14	781.74
386.34	875.36
386.53	840.25
386.72	823.87
386.92	833.23
387.11	755.99
387.31	777.06
387.50	863.66
387.70	842.59
387.89	833.23
388.09	898.77
388.28	880.04
388.48	961.96
388.67	950.26
388.86	971.32
389.06	884.72
389.25	943.24
389.45	983.02
389.64	940.90
389.84	844.93
390.03	999.41
390.22	985.37
390.42	1067.28
390.61	1020.47
390.81	959.62
391.00	992.39
391.19	1053.24
391.39	957.28
391.58	1057.92
391.78	957.28
391.97	994.73
392.16	1039.20
392.36	1074.31
392.55	1004.09
392.75	997.07
392.94	987.71
393.13	971.32
393.33	910.47
393.52	1046.22
393.71	1123.46
393.91	1015.79
394.10	1125.80
394.29	1060.26
394.49	1160.91
394.68	1235.80
394.88	1114.10
395.07	1259.21
395.26	1125.80
395.46	1160.91
395.65	1179.63
395.84	1142.18
396.04	1294.32
396.23	1160.91
396.42	1191.33
396.62	1149.20
396.81	1193.67
397.00	1184.31
397.19	1238.14
397.39	1310.70
397.58	1320.06
397.77	1296.66
397.97	1399.64
398.16	1336.45
398.35	1401.98
398.55	1378.58
398.74	1549.43
398.93	1514.33
399.12	1444.11
399.32	1404.32
399.51	1455.81
399.70	1575.18
399.90	1416.02
400.09	1584.54
400.28	1596.25
400.47	1598.59
400.67	1591.56
400.86	1549.43
401.05	1652.42
401.24	1591.56
401.44	1603.27
401.63	1633.69
401.82	1617.31
402.01	1629.01
402.21	1603.27
402.40	1675.82
402.59	1706.25
402.78	1743.70
402.97	1746.04
403.17	1762.42
403.36	1694.55
403.55	1762.42
403.74	1839.66
403.93	1774.13
404.13	1842.00
404.32	1750.72
404.51	1764.76
404.70	1888.81
404.89	1898.17
405.09	1820.94
405.28	1881.79
405.47	1832.64
405.66	1905.20
405.85	2017.54
406.05	1980.09
406.24	1952.01
406.43	2003.50
406.62	2122.87
406.81	2076.06
407.00	2073.71
407.20	2073.71
407.39	2101.80
407.58	2031.58
407.77	2104.14
407.96	2043.29
408.15	2141.59
408.34	2090.10
408.54	2296.07
408.73	2244.57
408.92	2239.89
409.11	2242.23
409.30	2363.94
409.49	2256.28
409.68	2239.89
409.87	2363.94
410.07	2291.38
410.26	2256.28
410.45	2448.20
410.64	2401.39
410.83	2312.45
411.02	2307.77
411.21	2551.18
411.40	2597.99
411.59	2516.08
411.78	2534.80
411.98	2424.80
412.17	2684.59
412.36	2661.19
412.55	2583.95
412.74	2700.98
412.93	2658.85
413.12	2602.68
413.31	2750.13
413.50	2616.72
413.69	2820.35
413.88	2801.62
414.07	2761.83
414.26	2923.33
414.45	2850.77
414.64	2937.37
414.83	2949.08
415.02	2956.10
415.22	3096.53
415.41	3045.04
415.60	3054.40
415.79	3094.19
415.98	3112.91
416.17	3152.70
416.36	3115.25
416.55	3159.72
416.74	3229.94
416.93	3180.79
417.12	3178.45
417.31	3265.05
417.50	3213.56
417.69	3368.03
417.88	3361.01
418.07	3269.73
418.26	3398.46
418.45	3456.97
418.64	3480.38
418.83	3503.78
419.02	3412.50
419.21	3562.30
419.39	3475.70
419.58	3454.63
419.77	3574.00
419.96	3545.91
420.15	3529.53
420.34	3501.44
420.53	3669.96
420.72	3779.97
420.91	3808.05
421.10	3826.78
421.29	3747.20
421.48	3747.20
421.67	3749.54
421.86	3644.21
422.05	3803.37
422.24	3662.94
422.43	3616.13
422.61	3758.90
422.80	3878.27
422.99	3950.82
423.18	3843.16
423.37	3824.44
423.56	3695.71
423.75	3974.23
423.94	3763.58
424.13	3672.30
424.32	3660.60
424.50	3946.14
424.69	3904.01
424.88	3981.25
425.07	3786.99
425.26	3754.22
425.45	3868.91
425.64	3894.65
425.83	3892.31
426.01	3831.46
426.20	3829.12
426.39	3899.33
426.58	3943.80
426.77	3978.91
426.96	3953.16
427.15	3880.61
427.33	4025.72
427.52	4007.00
427.71	4042.11
427.90	4093.60
428.09	3971.89
428.28	3943.80
428.46	3950.82
428.65	4114.66
428.84	4114.66
429.03	4147.43
429.22	4018.70
429.40	4119.34
429.59	4091.26
429.78	3889.97
429.97	3782.31
430.16	3861.88
430.34	4009.34
430.53	4112.32
430.72	4112.32
430.91	4168.49
431.10	4154.45
431.28	4353.40
431.47	4617.88
431.66	4500.85
431.85	4234.03
432.03	4475.10
432.22	4669.37
432.41	4575.75
432.60	4358.08
432.79	4575.75
432.97	4599.15
433.16	4746.61
433.35	4545.32
433.54	4568.73
433.72	4655.33
433.91	4638.94
434.10	4720.86
434.28	4592.13
434.47	4720.86
434.66	4641.28
434.85	4795.76
435.03	4880.02
435.22	4847.25
435.41	4990.02
435.59	4922.15
435.78	4964.28
435.97	5041.51
436.16	5013.43
436.34	4919.81
436.53	5107.05
436.72	5172.58
436.90	4966.62
437.09	5125.77
437.28	5093.01
437.46	5083.64
437.65	5055.56
437.84	5165.56
438.02	5039.17
438.21	5078.96
438.40	4987.68
438.58	5135.14
438.77	5399.62
438.96	5228.76
439.14	5369.19
439.33	5472.17
439.52	5535.37
439.70	5500.26
439.89	5570.48
440.08	5682.82
440.26	5533.03
440.45	5689.84
440.63	5783.46
440.82	5776.44
441.01	5785.80
441.19	5717.93
441.38	6026.88
441.57	5935.60
441.75	6071.35
441.94	6326.47
442.12	6087.73
442.31	6045.60
442.50	6181.35
442.68	6143.91
442.87	6083.05
443.05	6136.88
443.24	6506.69
443.43	6225.82
443.61	6392.00
443.80	6420.09
443.98	6179.01
444.17	6193.06
444.35	6317.11
444.54	6410.73
444.73	6441.15
444.91	6335.83
445.10	6305.40
445.28	6518.39
445.47	6284.34
445.65	6169.65
445.84	6282.00
446.02	6445.84
446.21	6319.45
446.39	6387.32
446.58	6523.07
446.77	6525.41
446.95	6480.94
447.14	6373.28
447.32	6595.63
447.51	6427.11
447.69	6476.26
447.88	6579.25
448.06	6637.76
448.25	6406.05
448.43	6588.61
448.62	6579.25
448.80	6431.79
448.99	6434.13
449.17	6555.84
449.36	6686.91
449.54	6731.38
449.73	6820.32
449.91	6981.82
450.10	6988.84
450.28	6953.73
450.46	6986.50
450.65	7012.24
450.83	6920.96
451.02	7070.76
451.20	7129.27
451.39	7012.24
451.57	6892.88
451.76	6995.86
451.94	7047.35
452.13	7229.91
452.31	7030.97
452.49	7059.06
452.68	7098.84
452.86	6993.52
453.05	7082.46
453.23	7040.33
453.42	7173.74
453.60	7382.05
453.78	7260.34
453.97	7171.40
454.15	7274.38
454.34	7213.53
454.52	7494.40
454.70	7286.09
454.89	7260.34
455.07	7265.02
455.26	7426.52
455.44	7538.87
455.62	7583.34
455.81	7454.61
455.99	7571.63
456.17	7630.15
456.36	7492.05
456.54	7868.88
456.73	7695.68
456.91	8126.34
457.09	7826.75
457.28	8140.38
457.46	7695.68
457.64	7976.55
457.83	7920.37
458.01	7840.79
458.19	7962.50
458.38	7955.48
458.56	8234.00
458.74	8049.10
458.93	8074.85
459.11	7971.86
459.29	8035.06
459.48	8168.47
459.66	8170.81
459.84	8360.39
460.03	8374.44
460.21	8297.20
460.39	8140.38
460.57	8290.18
460.76	8355.71
460.94	8484.44
461.12	8655.30
461.31	8571.04
461.49	8313.58
461.67	8402.52
461.85	8510.19
462.04	8624.87
462.22	9006.38
462.40	8823.82
462.59	8627.21
462.77	8596.79
462.95	8849.57
463.13	8713.81
463.32	8678.71
463.50	8844.88
463.68	8688.07
463.86	8784.03
464.05	8702.11
464.23	8793.39
464.41	8664.66
464.59	8896.38
464.78	8950.21
464.96	8919.78
465.14	8741.90
465.32	8982.98
465.50	9177.24
465.69	9083.62
465.87	9027.45
466.05	9100.00
466.23	8816.80
466.41	8821.48
466.60	9270.86
466.78	8805.10
466.96	9029.79
467.14	9090.64
467.32	9107.02
467.51	9315.33
467.69	8999.36
467.87	9249.80
468.05	9172.56
468.23	9202.99
468.41	9359.80
468.60	9408.95
468.78	9418.32
468.96	9350.44
469.14	9322.35
469.32	9671.09
469.50	9273.20
469.69	9563.43
469.87	9631.30
470.05	9525.98
470.23	9500.23
470.41	9558.75
470.59	9617.26
470.77	9598.54
470.95	9811.53
471.14	9790.46
471.32	9804.50
471.50	10127.50
471.68	10076.01
471.86	10345.17
472.04	10134.52
472.22	10190.69
472.40	9781.10
472.58	9928.55
472.77	10186.01
472.95	10359.21
473.13	10537.09
473.31	10459.85
473.49	10026.86
473.67	10569.86
473.85	10406.02
474.03	10768.80
474.21	10782.85
474.39	10895.19
474.57	10895.19
474.75	10967.75
474.93	10890.51
475.12	10752.42
475.30	11115.20
475.48	10937.32
475.66	10934.98
475.84	11047.33
476.02	11215.85
476.20	11199.46
476.38	11234.57
476.56	11665.23
476.74	11583.31
476.92	11400.75
477.10	11541.18
477.28	11515.44
477.46	11882.90
477.64	12102.91
477.82	12187.17
478.00	12304.20
478.18	12135.68
478.36	12336.96
478.54	12594.42
478.72	12383.77
478.90	12837.84
479.08	12791.03
479.26	12823.80
479.44	12959.55
479.62	12973.59
479.80	12950.18
479.98	13039.12
480.16	13713.20
480.34	13062.53
480.52	13530.64
480.70	13415.95
480.88	13242.75
481.06	13722.56
481.24	13603.19
481.41	13970.66
481.59	13881.72
481.77	13958.96
481.95	14005.77
482.13	14267.91
482.31	14155.56
482.49	14640.05
482.67	14555.79
482.85	14782.82
483.03	14789.85
483.21	14892.83
483.39	14958.36
483.57	14831.97
483.74	15066.03
483.92	15234.55
484.10	15527.11
484.28	15506.05
484.46	15887.56
484.64	15976.50
484.82	15815.00
485.00	15693.29
485.18	16025.65
485.35	16081.82
485.53	16025.65
485.71	15812.66
485.89	16224.59
486.07	16137.99
486.25	16468.01
486.43	16493.76
486.61	16835.47
486.78	17235.70
486.96	16947.82
487.14	17135.06
487.32	17390.18
487.50	17598.49
487.68	17750.62
487.85	18188.30
488.03	18101.70
488.21	18314.69
488.39	18160.22
488.57	18462.15
488.75	18574.49
488.92	18831.95
489.10	19091.75
489.28	18682.16
489.46	19187.71
489.64	19166.65
489.81	19924.98
489.99	19632.41
490.17	19836.04
490.35	19740.08
490.53	19777.53
490.70	20231.59
490.88	20056.05
491.06	20187.12
491.24	20517.14
491.41	20042.01
491.59	20477.35
491.77	20395.43
491.95	20577.99
492.13	20973.54
492.30	21078.86
492.48	21315.26
492.66	21296.53
492.84	21181.85
493.01	21701.45
493.19	21500.16
493.37	21804.43
493.54	21898.05
493.72	22005.72
493.90	22031.46
494.08	22719.58
494.25	22860.01
494.43	22691.49
494.61	23073.00
494.79	23112.79
494.96	23103.43
495.14	23314.08
495.32	23138.54
495.49	23250.88
495.67	23274.29
495.85	23683.88
496.02	23520.04
496.20	23913.25
496.38	23903.89
496.55	24177.73
496.73	24606.05
496.91	24465.62
497.09	24779.25
497.26	24676.27
497.44	24407.11
497.62	25057.78
497.79	25109.27
497.97	24751.17
498.14	25003.94
498.32	25233.32
498.50	24919.68
498.67	25659.29
498.85	25469.71
499.03	25240.34
499.20	25514.18
499.38	25731.85
499.56	25816.11
499.73	26005.69
499.91	25986.97
500.08	26071.23
500.26	25844.20
500.44	26162.51
500.61	26419.97
500.79	26244.43
500.97	26480.82
501.14	26408.26
501.32	26445.71
501.49	26597.85
501.67	26759.34
501.84	27049.57
502.02	27047.23
502.20	27206.39
502.37	27281.28
502.55	26934.88
502.72	27246.18
502.90	27175.96
503.07	27838.33
503.25	27686.20
503.43	27592.58
503.60	27152.55
503.78	27894.50
503.95	27946.00
504.13	27892.16
504.30	28112.17
504.48	27960.04
504.65	28732.42
504.83	28423.47
505.01	28671.56
505.18	28549.85
505.36	28809.65
505.53	29036.69
505.71	29312.87
505.88	29078.82
506.06	28940.72
506.23	28959.45
506.41	29062.43
506.58	28924.34
506.76	29214.57
506.93	29345.64
507.11	29282.44
507.28	29500.11
507.46	29593.73
507.63	29675.65
507.81	30022.05
507.98	29441.60
508.16	30110.99
508.33	30101.63
508.50	30059.50
508.68	30382.49
508.85	30637.61
509.03	30586.12
509.20	30389.52
509.38	30724.21
509.55	30902.09
509.73	30775.70
509.90	31054.23
510.08	30527.61
510.25	30644.63
510.42	31094.02
510.60	30817.83
510.77	31337.43
510.95	31569.15
511.12	31311.69
511.30	31747.03
511.47	31740.00
511.64	31651.06
511.82	31754.05
511.99	31613.62
512.17	31611.28
512.34	31702.56
512.51	31934.27
512.69	32137.90
512.86	32283.01
513.04	32690.26
513.21	31880.44
513.38	31873.42
513.56	32371.95
513.73	32177.68
513.90	32570.90
514.08	32355.57
514.25	32481.95
514.43	32973.47
514.60	32790.91
514.77	32645.79
514.95	33160.71
515.12	33212.20
515.29	33378.38
515.47	33408.81
515.64	33715.42
515.81	33202.84
515.99	33502.43
516.16	33333.91
516.33	33118.58
516.51	33200.50
516.68	32975.81
516.85	32521.74
517.03	33053.05
517.20	33406.47
517.37	33701.37
517.54	34024.37
517.72	33619.46
517.89	33390.08
518.06	33167.73
518.24	33462.64
518.41	33802.02
518.58	33947.13
518.75	33687.33
518.93	34401.19
519.10	34326.30
519.27	34199.91
519.45	34366.09
519.62	34611.84
519.79	34902.07
519.96	35012.07
520.14	34469.07
520.31	34497.16
520.48	34782.70
520.65	35033.14
520.83	35079.95
521.00	35138.46
521.17	35302.30
521.34	35482.52
521.52	35449.75
521.69	35754.02
521.86	35346.77
522.03	35686.15
522.20	35908.50
522.38	35866.37
522.55	35847.64
522.72	35999.78
522.89	35854.67
523.07	36137.87
523.24	35688.49
523.41	36023.19
523.58	36524.06
523.75	36746.41
523.92	36285.33
524.10	36526.40
524.27	37008.55
524.44	36903.23
524.61	36772.16
524.78	36510.02
524.96	36921.95
525.13	37001.53
525.30	36795.56
525.47	36793.22
525.64	36954.72
525.81	37134.94
525.98	36657.47
526.16	36683.22
526.33	36538.10
526.50	37151.32
526.67	36278.30
526.84	36821.31
527.01	36664.49
527.18	37371.33
527.36	37710.71
527.53	37949.45
527.70	38024.34
527.87	37542.19
528.04	37380.70
528.21	38031.36
528.38	38050.09
528.55	38103.92
528.72	38167.12
528.89	38005.62
529.07	38031.36
529.24	38167.12
529.41	38508.83
529.58	37827.74
529.75	38075.84
529.92	38754.59
530.09	38466.70
530.26	38059.45
530.43	38705.44
530.60	38679.69
530.77	38663.31
530.94	38873.96
531.11	38639.90
531.28	38672.67
531.46	38890.34
531.63	38911.41
531.80	38607.14
531.97	39199.29
532.14	38740.55
532.31	38911.41
532.48	39154.82
532.65	39433.35
532.82	39070.56
532.99	39402.92
533.16	39143.12
533.33	39091.63
533.50	39426.32
533.67	39304.62
533.84	39445.05
534.01	39288.23
534.18	39395.90
534.35	39533.99
534.52	39758.68
534.69	39503.56
534.86	40119.12
535.03	39920.18
535.20	40212.74
535.37	40023.16
535.54	40201.04
535.71	39908.47
535.88	40100.40
536.05	39976.35
536.22	40114.44
536.38	40222.11
536.55	39988.05
536.72	40058.27
536.89	39915.50
537.06	40133.17
537.23	40217.43
537.40	40203.38
537.57	40524.04
537.74	40161.25
537.91	40308.71
538.08	40620.00
538.25	40463.18
538.42	40390.62
538.59	40802.56
538.75	40879.80
538.92	40844.69
539.09	40823.62
539.26	40697.24
539.43	41003.85
539.60	40559.14
539.77	40907.88
539.94	40641.06
540.11	41074.06
540.28	40662.13
540.44	40802.56
540.61	40828.30
540.78	40587.23
540.95	40823.62
541.12	40889.16
541.29	41193.43
541.46	41001.50
541.62	41294.07
541.79	41439.18
541.96	41284.71
542.13	41607.70
542.30	41317.48
542.47	41516.42
542.63	41420.46
542.80	41645.15
542.97	41837.08
543.14	42143.69
543.31	42082.83
543.48	41745.80
543.64	42429.23
543.81	42169.43
543.98	42492.43
544.15	42333.27
544.32	42590.73
544.48	42590.73
544.65	41914.31
544.82	42632.86
544.99	41916.65
545.16	42021.98
545.32	42513.49
545.49	42635.20
545.66	42543.92
545.83	42639.88
546.00	42501.79
546.16	42586.05
546.33	42546.26
546.50	42670.31
546.67	42501.79
546.83	42024.32
547.00	42621.16
547.17	42230.29
547.34	43072.88
547.50	42237.31
547.67	43000.32
547.84	42876.27
548.00	43044.79
548.17	43136.07
548.34	42974.58
548.51	43246.08
548.67	43463.75
548.84	42852.87
549.01	42768.61
549.18	43119.69
549.34	42815.42
549.51	43353.74
549.68	43337.36
549.84	43442.68
550.01	43650.99
550.18	43400.55
550.34	42838.83
550.51	43320.98
550.68	43250.76
550.84	43196.93
551.01	43887.39
551.18	43297.57
551.34	43000.32
551.51	43367.79
551.68	43494.18
551.84	43639.29
552.01	43435.66
552.18	43049.47
552.34	43274.16
552.51	43945.90
552.68	43501.20
552.84	43779.72
553.01	44114.42
553.18	43686.10
553.34	43665.03
553.51	43566.73
553.67	43966.96
553.84	43810.15
554.01	44212.72
554.17	44226.76
554.34	43999.73
554.51	44254.85
554.67	44390.60
554.84	43669.72
555.00	44112.08
555.17	44238.47
555.33	44165.91
555.50	43981.01
555.67	44343.79
555.83	44172.93
556.00	44259.53
556.16	44414.01
556.33	44016.11
556.50	43973.98
556.66	44371.88
556.83	44069.95
556.99	44278.25
557.16	44282.94
557.32	44320.38
557.49	44851.69
557.65	43913.13
557.82	44563.80
557.98	44481.88
558.15	44212.72
558.32	44449.11
558.48	44105.06
558.65	44491.24
558.81	44332.09
558.98	45017.86
559.14	44467.84
559.31	44811.90
559.47	44694.87
559.64	44521.67
559.80	44641.04
559.97	44804.88
560.13	44587.21
560.30	44821.26
560.46	45172.34
560.63	44886.79
560.79	45099.78
560.96	45081.06
561.12	44701.89
561.29	44790.83
561.45	44683.17
561.61	44821.26
561.78	44563.80
561.94	44872.75
562.11	44559.12
562.27	45200.43
562.44	44500.61
562.60	44786.15
562.77	45308.09
562.93	44849.35
563.10	44809.56
563.26	44786.15
563.42	45109.14
563.59	44814.24
563.75	45200.43
563.92	45144.25
564.08	45090.42
564.24	45027.23
564.41	44556.78
564.57	45233.19
564.74	44893.82
564.90	44982.76
565.07	45162.98
565.23	45375.97
565.39	44734.66
565.56	45172.34
565.72	44828.28
565.88	44982.76
566.05	44566.14
566.21	44814.24
566.38	45078.72
566.54	45059.99
566.70	45724.71
566.87	45390.01
567.03	45411.07
567.19	45762.15
567.36	45680.24
567.52	45137.23
567.68	45680.24
567.85	45048.29
568.01	45305.75
568.17	44802.53
568.34	45364.26
568.50	45247.24
568.66	44921.90
568.83	45207.45
568.99	45162.98
569.15	45518.74
569.32	45109.14
569.48	45031.91
569.64	45956.42
569.81	45708.32
569.97	45244.90
570.13	45165.32
570.30	44957.01
570.46	45092.76
570.62	44830.62
570.78	44722.96
570.95	44807.22
571.11	44912.54
571.27	45195.74
571.43	45174.68
571.60	45507.04
571.76	45565.55
571.92	45413.41
572.09	45153.62
572.25	45794.92
572.41	45338.52
572.57	45485.97
572.74	45698.96
572.90	45687.26
573.06	45708.32
573.22	45565.55
573.38	45188.72
573.55	45659.17
573.71	45748.11
573.87	45116.17
574.03	45368.94
574.20	45457.88
574.36	45315.11
574.52	45464.91
574.68	45439.16
574.84	45228.51
575.01	45579.59
575.17	45074.04
575.33	45333.84
575.49	45387.67
575.65	45411.07
575.82	45177.02
575.98	45659.17
576.14	45556.19
576.30	45734.07
576.46	45338.52
576.62	45272.98
576.79	45638.11
576.95	45401.71
577.11	45483.63
577.27	45291.71
577.43	45305.75
577.59	45418.10
577.75	45242.56
577.92	44996.80
578.08	45177.02
578.24	45287.03
578.40	45392.35
578.56	45598.32
578.72	45280.00
578.88	45684.92
579.04	45801.94
579.21	45151.27
579.37	45371.28
579.53	45256.60
579.69	45141.91
579.85	45670.87
580.01	45439.16
580.17	45556.19
580.33	45769.18
580.49	45406.39
580.65	45834.71
580.82	45233.19
580.98	45394.69
581.14	45453.20
581.30	45411.07
581.46	45343.20
581.62	45359.58
581.78	45394.69
581.94	46117.92
582.10	45429.80
582.26	45476.61
582.42	45455.54
582.58	45415.76
582.74	45371.28
582.90	45848.75
583.06	45797.26
583.22	45900.25
583.38	45670.87
583.54	45790.24
583.70	45804.28
583.86	46054.72
584.02	45111.49
584.18	45605.34
584.34	45764.49
584.50	45621.72
584.66	45481.29
584.82	45703.64
584.98	45600.66
585.14	45624.06
585.30	45378.31
585.46	45614.70
585.62	45287.03
585.78	45338.52
585.94	45301.07
586.10	45226.17
586.26	45769.18
586.42	45783.22
586.58	45844.07
586.74	45347.88
586.90	45631.08
587.06	45717.68
587.22	45624.06
587.38	45560.87
587.54	45743.43
587.70	45691.94
587.86	45504.70
588.02	45951.74
588.18	45921.31
588.34	45308.09
588.49	45333.84
588.65	44898.50
588.81	44793.17
588.97	45368.94
589.13	44931.26
589.29	45535.12
589.45	45380.65
589.61	45441.50
589.77	46178.77
589.93	45677.90
590.08	45518.74
590.24	46300.48
590.40	45954.08
590.56	45942.38
590.72	45818.33
590.88	45565.55
591.04	45909.61
591.20	46417.50
591.35	45951.74
591.51	46174.09
591.67	45364.26
591.83	45806.62
591.99	45876.84
592.15	45663.85
592.31	45979.82
592.46	45457.88
592.62	45553.85
592.78	45837.05
592.94	45656.83
593.10	45787.90
593.26	46096.85
593.41	45902.59
593.57	45851.09
593.73	45691.94
593.89	45794.92
594.05	45876.84
594.20	45881.52
594.36	45921.31
594.52	46122.60
594.68	45705.98
594.84	45937.69
594.99	45799.60
595.15	45862.80
595.31	45933.01
595.47	45731.73
595.62	46092.17
595.78	45806.62
595.94	45858.12
596.10	45605.34
596.25	45471.93
596.41	46099.19
596.57	45457.88
596.73	46146.00
596.88	45848.75
597.04	45638.11
597.20	45621.72
597.36	45680.24
597.51	46237.28
597.67	45780.88
597.83	45874.50
597.99	46431.55
598.14	45867.48
598.30	46122.60
598.46	45909.61
598.61	46014.93
598.77	45532.78
598.93	45900.25
599.09	45734.07
599.24	45968.12
599.40	45595.98
599.56	45731.73
599.71	45736.41
599.87	45872.16
600.03	45827.69
600.18	45656.83
600.34	45518.74
600.50	45830.03
600.65	45998.55
600.81	46138.98
600.97	46281.75
601.12	45862.80
601.28	45481.29
601.44	45832.37
601.59	46272.39
601.75	45801.94
601.91	45979.82
602.06	45436.82
602.22	45909.61
602.37	46188.13
602.53	45797.26
602.69	46012.59
602.84	45804.28
603.00	45715.34
603.16	45647.47
603.31	45933.01
603.47	45698.96
603.62	45399.37
603.78	45869.82
603.94	46340.27
604.09	46291.12
604.25	45734.07
604.40	45916.63
604.56	45762.15
604.71	46017.27
604.87	45511.72
605.03	45764.49
605.18	45752.79
605.34	46302.82
605.49	45977.48
605.65	45949.40
605.80	45308.09
605.96	45656.83
606.12	45542.14
606.27	45588.95
606.43	45310.43
606.58	45933.01
606.74	45876.84
606.89	45771.52
607.05	45923.65
607.20	45560.87
607.36	45811.31
607.51	45909.61
607.67	45296.39
607.82	45354.90
607.98	45469.59
608.13	45567.89
608.29	45617.04
608.44	45076.38
608.60	44856.37
608.75	45500.01
608.91	45406.39
609.06	45118.51
609.22	45755.13
609.37	45338.52
609.53	45450.86
609.68	45233.19
609.84	45439.16
609.99	45401.71
610.15	45404.05
610.30	44781.47
610.46	44931.26
610.61	44933.60
610.76	45137.23
610.92	45249.58
611.07	45303.41
611.23	45296.39
611.38	45698.96
611.54	45256.60
611.69	45216.81
611.84	44837.64
612.00	44687.85
612.15	44376.56
612.31	45450.86
612.46	44893.82
612.62	45076.38
612.77	45256.60
612.92	44655.08
613.08	45357.24
613.23	44516.99
613.39	44722.96
613.54	44512.31
613.69	44573.16
613.85	44332.09
614.00	44498.26
614.15	44645.72
614.31	44760.40
614.46	45228.51
614.62	44535.71
614.77	44367.20
614.92	44435.07
615.08	44641.04
615.23	44128.46
615.38	44479.54
615.54	44835.30
615.69	44388.26
615.84	44301.66
616.00	44416.35
616.15	44341.45
616.30	44383.58
616.46	44940.63
616.61	43896.75
616.76	44615.29
616.92	43768.02
617.07	44392.94
617.22	44081.65
617.37	44147.18
617.53	44296.98
617.68	44369.54
617.83	44673.81
617.99	44739.34
618.14	44425.71
618.29	44032.50
618.45	43777.38
618.60	44446.77
618.75	43264.80
618.90	43826.53
619.06	43945.90
619.21	43908.45
619.36	43704.82
619.51	43697.80
619.67	43868.66
619.82	43784.40
619.97	44079.31
620.12	43323.32
620.28	43243.74
620.43	43976.33
620.58	43543.33
620.73	43468.43
620.89	43615.88
621.04	43665.03
621.19	43636.95
621.34	43564.39
621.49	43669.72
621.65	43470.77
621.80	43847.60
621.95	43543.33
622.10	43524.60
622.25	43262.46
622.41	43796.10
622.56	43236.72
622.71	43899.09
622.86	43569.07
623.01	43154.80
623.16	43440.34
623.32	42955.85
623.47	43330.34
623.62	43456.73
623.77	43203.95
623.92	43129.05
624.07	42810.74
624.23	42696.05
624.38	42913.72
624.53	42876.27
624.68	43206.29
624.83	43098.62
624.98	42897.34
625.13	42658.60
625.29	42209.22
625.44	42796.70
625.59	42239.65
625.74	42653.92
625.89	42597.75
626.04	42789.67
626.19	42862.23
626.34	42749.88
626.49	42738.18
626.65	42700.73
626.80	42880.95
626.95	42773.29
627.10	42190.50
627.25	42539.24
627.40	42092.19
627.55	42251.35
627.70	42129.64
627.85	42232.63
628.00	42857.55
628.15	42263.05
628.30	42052.41
628.45	42251.35
628.60	42239.65
628.76	42389.44
628.91	41986.87
629.06	41972.83
629.21	42237.31
629.36	41488.34
629.51	42316.89
629.66	41476.63
629.81	41865.16
629.96	42031.34
630.11	41724.73
630.26	42150.71
630.41	41663.88
630.56	41574.94
630.71	41961.12
630.86	41830.05
631.01	41617.07
631.16	41869.84
631.31	41214.49
631.46	41179.39
631.61	41467.27
631.76	41933.04
631.91	42148.37
632.06	42080.49
632.21	41998.57
632.36	41872.18
632.51	41619.41
632.66	41579.62
632.81	41680.26
632.96	41310.46
633.10	40982.78
633.25	41275.35
633.40	41500.04
633.55	41546.85
633.70	41474.29
633.85	41268.33
634.00	41448.55
634.15	41179.39
634.30	41310.46
634.45	41193.43
634.60	41497.70
634.75	41043.63
634.90	40879.80
635.05	41048.32
635.19	41015.55
635.34	41102.15
635.49	41158.32
635.64	41034.27
635.79	40687.87
635.94	40573.19
636.09	40924.27
636.24	40348.50
636.39	40184.66
636.53	40868.09
636.68	40753.41
636.83	40741.71
636.98	40507.65
637.13	41090.44
637.28	41273.01
637.43	40933.63
637.57	40828.30
637.72	41076.40
637.87	40638.72
638.02	40659.79
638.17	40568.51
638.32	40650.42
638.46	40498.29
638.61	40187.00
638.76	40219.77
638.91	40238.49
639.06	40802.56
639.20	40577.87
639.35	40889.16
639.50	40285.30
639.65	40486.59
639.80	40224.45
639.94	39995.07
640.09	40154.23
640.24	39882.73
640.39	40060.61
640.54	39772.72
640.68	40449.14
640.83	39957.63
640.98	39512.92
641.13	39784.43
641.27	40172.96
641.42	39665.06
641.57	39969.33
641.72	40048.91
641.86	39674.42
642.01	39665.06
642.16	39941.24
642.31	39707.19
642.45	39739.96
642.60	39414.62
642.75	39606.55
642.90	39814.85
643.04	39423.98
643.19	39597.18
643.34	39482.50
643.48	39599.52
643.63	39281.21
643.78	39613.57
643.93	40076.99
644.07	39037.80
644.22	39510.58
644.37	39075.24
644.51	39526.97
644.66	39503.56
644.81	39213.34
644.95	39763.36
645.10	39054.18
645.25	39384.19
645.39	39196.95
645.54	39681.44
645.69	39365.47
645.83	39119.71
645.98	39180.57
646.13	38873.96
646.27	39192.27
646.42	38796.72
646.57	38979.28
646.71	38843.53
646.86	39065.88
647.00	39061.20
647.15	38471.39
647.30	38927.79
647.44	39290.57
647.59	38864.60
647.74	38466.70
647.88	38485.43
648.03	38848.21
648.17	38976.94
648.32	38492.45
648.47	38359.04
648.61	38417.55
648.76	38761.61
648.90	38459.68
649.05	38527.56
649.20	38785.02
649.34	38459.68
649.49	38113.28
649.63	38848.21
649.78	38768.63
649.92	38366.06
650.07	38550.96
650.21	38550.96
650.36	38480.75
650.51	38033.71
650.65	39016.73
650.80	39131.42
650.94	38415.21
651.09	38309.89
651.23	38279.46
651.38	37778.59
651.52	37745.82
651.67	38022.00
651.81	37792.63
651.96	37841.78
652.10	37649.86
652.25	38085.20
652.39	38036.05
652.54	38122.65
652.68	37851.14
652.83	37963.49
652.97	38469.04
653.12	37968.17
653.26	37790.29
653.41	37589.00
653.55	37977.53
653.70	37977.53
653.84	37656.88
653.99	37507.08
654.13	37841.78
654.27	37172.39
654.42	37432.19
654.56	37745.82
654.71	37600.71
654.85	37331.54
655.00	37507.08
655.14	37441.55
655.29	37486.02
655.43	37394.74
655.57	36568.53
655.72	37010.89
655.86	37104.51
656.01	36774.50
656.15	36467.89
656.30	36708.96
656.44	36772.16
656.58	36952.38
656.73	37219.20
656.87	36772.16
657.01	36669.17
657.16	36524.06
657.30	36374.27
657.45	36535.76
657.59	36914.93
657.73	37029.62
657.88	37570.28
658.02	37338.57
658.16	37277.71
658.31	36954.72
658.45	37053.02
658.60	36577.89
658.74	36935.99
658.88	37048.34
659.03	36463.21
659.17	36678.54
659.31	36634.06
659.46	36299.37
659.60	36552.15
659.74	36446.82
659.89	36098.08
660.03	36222.13
660.17	36568.53
660.32	36301.71
660.46	36240.86
660.60	36065.31
660.74	36694.92
660.89	36694.92
661.03	35988.08
661.17	35737.64
661.32	35924.88
661.46	35805.52
661.60	35786.79
661.74	35531.67
661.89	35864.03
662.03	35330.39
662.17	35288.26
662.31	35730.62
662.46	36051.27
662.60	36357.88
662.74	35653.38
662.88	35686.15
663.03	35288.26
663.17	35267.19
663.31	35330.39
663.45	35365.49
663.60	35239.11
663.74	34913.77
663.88	35414.65
664.02	34955.90
664.17	35112.72
664.31	34998.03
664.45	35079.95
664.59	34815.47
664.73	34785.04
664.88	34632.91
665.02	34162.46
665.16	34740.57
665.30	34209.27
665.44	34457.37
665.59	33923.72
665.73	34178.84
665.87	34223.31
666.01	34352.04
666.15	34452.69
666.29	34150.76
666.44	34611.84
666.58	34658.65
666.72	34068.84
666.86	34230.33
667.00	34218.63
667.14	34026.71
667.28	33687.33
667.43	33574.98
667.57	33802.02
667.71	33589.03
667.85	33862.87
667.99	33572.64
668.13	33350.29
668.27	33905.00
668.41	33535.20
668.56	33687.33
668.70	32914.95
668.84	33020.28
668.98	33493.07
669.12	33486.04
669.26	33181.77
669.40	33170.07
669.54	33294.12
669.68	32315.78
669.82	32987.51
669.96	32662.18
670.10	33230.93
670.25	32868.14
670.39	32606.00
670.53	32727.71
670.67	32744.09
670.81	32393.01
670.95	32748.78
671.09	32439.82
671.23	32524.08
671.37	32451.53
671.51	32208.11
671.65	32261.94
671.79	32254.92
671.93	31929.59
672.07	31828.95
672.21	31784.48
672.35	31747.03
672.49	31723.62
672.63	31929.59
672.77	31592.55
672.91	31885.12
673.05	31709.58
673.19	31674.47
673.33	30960.61
673.47	30941.88
673.61	30946.56
673.75	30824.86
673.89	31131.47
674.03	31021.46
674.17	30670.38
674.31	31124.44
674.45	30981.67
674.59	31529.36
674.73	31229.77
674.87	30958.27
675.01	31019.12
675.15	30895.07
675.29	30941.88
675.43	30347.39
675.56	30724.21
675.70	30672.72
675.84	30415.26
675.98	29460.32
676.12	30085.25
676.26	30522.93
676.40	30120.35
676.54	30181.21
676.68	29886.30
676.82	29539.90
676.96	29792.68
677.10	29607.78
677.23	29734.17
677.37	29259.04
677.51	29378.40
677.65	28748.80
677.79	28996.90
677.93	28950.09
678.07	28606.03
678.21	28467.94
678.34	28875.19
678.48	28238.56
678.62	28187.07
678.76	28322.82
678.90	28224.52
679.04	28231.54
679.18	28245.58
679.31	27700.24
679.45	27803.22
679.59	27676.83
679.73	27941.32
679.87	27707.26
680.00	28039.62
680.14	27510.66
680.28	27508.32
680.42	27456.82
680.56	27534.06
680.70	26803.82
680.83	27260.22
680.97	27019.14
681.11	27166.60
681.25	26962.97
681.39	27040.21
681.52	26525.29
681.66	26476.14
681.80	26164.85
681.94	26230.38
682.07	26307.62
682.21	26352.09
682.35	26483.16
682.49	26183.57
682.62	25993.99
682.76	25783.34
682.90	25692.06
683.04	26096.97
683.17	25905.05
683.31	25345.66
683.45	25713.13
683.59	25324.60
683.72	25453.33
683.86	25291.83
684.00	25441.62
684.13	25137.35
684.27	24891.60
684.41	24727.76
684.55	25025.01
684.68	24606.05
684.82	25003.94
684.96	24734.78
685.09	24833.08
685.23	24449.24
685.37	24435.19
685.50	24224.54
685.64	24442.21
685.78	24088.79
685.91	24154.33
686.05	24030.28
686.19	23941.34
686.32	23845.38
686.46	23466.21
686.60	23065.98
686.73	22813.20
686.87	23126.83
687.01	22848.31
687.14	22679.79
687.28	22480.85
687.42	22698.52
687.55	23159.60
687.69	22972.36
687.82	22714.90
687.96	22941.93
688.10	22494.89
688.23	22583.83
688.37	22637.66
688.50	22604.89
688.64	22066.57
688.78	22211.68
688.91	21961.25
689.05	21799.75
689.18	21888.69
689.32	21310.58
689.46	21790.39
689.59	22057.21
689.73	22092.32
689.86	21717.83
690.00	21479.10
690.13	21429.94
690.27	21195.89
690.41	21120.99
690.54	20987.58
690.68	21233.34
690.81	21139.72
690.95	21387.82
691.08	21083.55
691.22	20830.77
691.35	21003.97
691.49	20835.45
691.62	20631.82
691.76	20531.18
691.89	20690.34
692.03	20360.32
692.16	20493.73
692.30	20467.98
692.43	20341.60
692.57	19950.73
692.70	19798.59
692.84	19868.81
692.97	19527.09
693.11	19330.48
693.24	19187.71
693.38	19459.21
693.51	19594.96
693.65	19503.68
693.78	19255.59
693.92	19269.63
694.05	19426.45
694.19	19384.32
694.32	19124.52
694.45	18970.04
694.59	18663.43
694.72	18855.36
694.86	18883.44
694.99	18469.17
695.13	18494.91
695.26	18539.38
695.39	18312.35
695.53	18457.46
695.66	18579.17
695.80	18478.53
695.93	18396.61
696.07	18090.00
696.20	18207.03
696.33	17862.97
696.47	17600.83
696.60	17891.06
696.73	17752.96
696.87	17582.10
697.00	17366.78
697.14	17296.56
697.27	17163.15
697.40	17219.32
697.54	17275.49
697.67	17266.13
697.80	17221.66
697.94	17032.08
698.07	16999.31
698.21	16957.18
698.34	16889.31
698.47	16702.06
698.61	16613.12
698.74	16587.38
698.87	16959.52
699.01	16217.57
699.14	16159.06
699.27	16273.74
699.40	16339.28
699.54	16088.84
699.67	15995.22
699.80	15735.42
699.94	15669.89
700.07	16393.11
700.20	16018.63
700.34	15882.88
700.47	15807.98
700.60	15917.98
700.73	15871.17
700.87	15522.43
701.00	15414.77
701.13	15288.38
701.26	15307.10
701.40	15594.99
701.53	15012.20
701.66	15164.33
701.79	15007.52
701.93	14829.63
702.06	15119.86
702.19	14902.19
702.32	15030.92
702.46	14691.54
702.59	14586.22
702.72	14808.57
702.85	14796.87
702.99	14469.19
703.12	14567.49
703.25	14111.09
703.38	14436.42
703.51	14450.47
703.65	14263.22
703.78	13949.59
703.91	13832.57
704.04	14022.15
704.17	13752.99
704.31	13554.04
704.44	13844.27
704.57	13582.13
704.70	13530.64
704.83	13685.11
704.96	13659.37
705.10	13422.97
705.23	13540.00
>>>>>End Processed Spectral Data<<<<<
