SpectraSuite Data File
++++++++++++++++++++++++++++++++++++
Date: Fri Oct 25 10:43:42 EDT 2013
User: price-jones
Dark Spectrum Present: No
Reference Spectrum Present: No
Number of Sampled Component Spectra: 1
Spectrometers: USB2+H05261
Integration Time (usec): 100000 (USB2+H05261)
Spectra Averaged: 1 (USB2+H05261)
Boxcar Smoothing: 0 (USB2+H05261)
Correct for Electrical Dark: No (USB2+H05261)
Strobe/Lamp Enabled: No (USB2+H05261)
Correct for Detector Non-linearity: No (USB2+H05261)
Correct for Stray Light: No (USB2+H05261)
Number of Pixels in Processed Spectrum: 2048
>>>>>Begin Processed Spectral Data<<<<<
365.73	124.05
365.92	124.05
366.12	124.05
366.32	42.13
366.52	42.13
366.72	81.92
366.91	112.35
367.11	58.51
367.31	9.36
367.51	32.77
367.70	37.45
367.90	7.02
368.10	9.36
368.30	23.41
368.49	7.02
368.69	0.00
368.89	0.00
369.09	9.36
369.28	67.88
369.48	30.43
369.68	63.19
369.87	28.09
370.07	81.92
370.27	131.07
370.47	198.95
370.66	517.26
370.86	402.57
371.06	472.79
371.25	503.22
371.45	433.00
371.65	493.85
371.84	463.43
372.04	456.40
372.24	440.02
372.44	400.23
372.63	573.43
372.83	477.47
373.03	500.87
373.22	447.04
373.42	568.75
373.62	500.87
373.81	482.15
374.01	554.71
374.21	603.86
374.40	638.97
374.60	477.47
374.79	557.05
374.99	615.56
375.19	571.09
375.38	564.07
375.58	561.73
375.78	594.50
375.97	634.29
376.17	692.80
376.37	664.71
376.56	664.71
376.76	585.13
376.95	650.67
377.15	660.03
377.35	587.47
377.54	741.95
377.74	648.33
377.93	706.84
378.13	664.71
378.33	580.45
378.52	716.20
378.72	699.82
378.91	650.67
379.11	685.78
379.31	643.65
379.50	685.78
379.70	641.31
379.89	732.59
380.09	657.69
380.28	624.92
380.48	669.39
380.68	610.88
380.87	674.07
381.07	720.88
381.26	648.33
381.46	777.06
381.65	650.67
381.85	678.76
382.04	653.01
382.24	725.57
382.43	667.05
382.63	681.10
382.83	737.27
383.02	786.42
383.22	784.08
383.41	713.86
383.61	697.48
383.80	868.34
384.00	763.01
384.19	746.63
384.39	727.91
384.58	753.65
384.78	863.66
384.97	802.80
385.17	763.01
385.36	798.12
385.56	800.46
385.75	821.53
385.95	849.61
386.14	894.08
386.34	856.64
386.53	819.19
386.72	777.06
386.92	828.55
387.11	823.87
387.31	905.79
387.50	805.14
387.70	891.74
387.89	812.17
388.09	905.79
388.28	844.93
388.48	971.32
388.67	985.37
388.86	959.62
389.06	961.96
389.25	880.04
389.45	999.41
389.64	987.71
389.84	990.05
390.03	1020.47
390.22	1041.54
390.42	954.94
390.61	985.37
390.81	1053.24
391.00	1114.10
391.19	1186.65
391.39	1046.22
391.58	1146.86
391.78	1043.88
391.97	1043.88
392.16	1027.50
392.36	1095.37
392.55	1034.52
392.75	1095.37
392.94	957.28
393.13	994.73
393.33	891.74
393.52	1071.97
393.71	1060.26
393.91	1088.35
394.10	1125.80
394.29	1172.61
394.49	1261.55
394.68	1191.33
394.88	1282.61
395.07	1259.21
395.26	1280.27
395.46	1196.01
395.65	1331.76
395.84	1259.21
396.04	1275.59
396.23	1231.12
396.42	1210.06
396.62	1228.78
396.81	1219.42
397.00	1287.29
397.19	1320.06
397.39	1411.34
397.58	1313.04
397.77	1350.49
397.97	1416.02
398.16	1488.58
398.35	1448.79
398.55	1509.65
398.74	1511.99
398.93	1556.46
399.12	1514.33
399.32	1502.62
399.51	1605.61
399.70	1619.65
399.90	1593.90
400.09	1591.56
400.28	1607.95
400.47	1652.42
400.67	1540.07
400.86	1600.93
401.05	1659.44
401.24	1778.81
401.44	1626.67
401.63	1736.68
401.82	1706.25
402.01	1682.85
402.21	1689.87
402.40	1732.00
402.59	1764.76
402.78	1811.57
402.97	1720.29
403.17	1764.76
403.36	1795.19
403.55	1830.30
403.74	1923.92
403.93	1797.53
404.13	1961.37
404.32	1900.52
404.51	1902.86
404.70	1900.52
404.89	1839.66
405.09	1926.26
405.28	1982.43
405.47	1998.82
405.66	1940.30
405.85	1874.77
406.05	2047.97
406.24	2073.71
406.43	1970.73
406.62	2087.76
406.81	2101.80
407.00	2073.71
407.20	2141.59
407.39	2174.36
407.58	2150.95
407.77	2090.10
407.96	2132.23
408.15	2172.02
408.34	2326.49
408.54	2193.08
408.73	2242.23
408.92	2321.81
409.11	2464.58
409.30	2263.30
409.49	2284.36
409.68	2349.90
409.87	2289.04
410.07	2345.22
410.26	2492.67
410.45	2403.73
410.64	2307.77
410.83	2495.01
411.02	2506.71
411.21	2579.27
411.40	2583.95
411.59	2576.93
411.78	2560.55
411.98	2656.51
412.17	2710.34
412.36	2757.15
412.55	2708.00
412.74	2759.49
412.93	2843.75
413.12	2855.45
413.31	2832.05
413.50	2768.85
413.69	2843.75
413.88	2928.01
414.07	3019.29
414.26	2979.50
414.45	2981.84
414.64	3073.12
414.83	3033.33
415.02	3087.17
415.22	3122.27
415.41	3241.64
415.60	3124.62
415.79	3222.92
415.98	3302.50
416.17	3248.66
416.36	3281.43
416.55	3344.63
416.74	3208.87
416.93	3201.85
417.12	3274.41
417.31	3353.99
417.50	3389.10
417.69	3496.76
417.88	3407.82
418.07	3431.23
418.26	3435.91
418.45	3520.17
418.64	3707.41
418.83	3646.55
419.02	3527.19
419.21	3576.34
419.39	3503.78
419.58	3611.45
419.77	3569.32
419.96	3588.04
420.15	3721.45
420.34	3716.77
420.53	3798.69
420.72	3726.13
420.91	3875.93
421.10	3852.52
421.29	3904.01
421.48	3763.58
421.67	4072.53
421.86	3833.80
422.05	3812.73
422.24	3833.80
422.43	3822.09
422.61	3824.44
422.80	3953.16
422.99	3957.85
423.18	3812.73
423.37	3995.29
423.56	3932.10
423.75	3906.35
423.94	3791.67
424.13	3721.45
424.32	3920.40
424.50	3878.27
424.69	4016.36
424.88	4093.60
425.07	4011.68
425.26	4044.45
425.45	3957.85
425.64	3911.04
425.83	3873.59
426.01	4100.62
426.20	3962.53
426.39	4077.21
426.58	4018.70
426.77	3985.93
426.96	3964.87
427.15	3915.72
427.33	4070.19
427.52	4042.11
427.71	4231.69
427.90	4266.80
428.09	4032.74
428.28	4060.83
428.46	4402.55
428.65	4044.45
428.84	4301.90
429.03	4397.87
429.22	4056.15
429.40	4315.95
429.59	4243.39
429.78	4081.89
429.97	3974.23
430.16	4072.53
430.34	4184.88
430.53	4121.68
430.72	4173.18
430.91	4241.05
431.10	4432.97
431.28	4472.76
431.47	4624.90
431.66	4662.35
431.85	4503.19
432.03	4704.48
432.22	4683.41
432.41	4784.06
432.60	4681.07
432.79	4812.14
432.97	4861.29
433.16	4704.48
433.35	4765.33
433.54	4819.16
433.72	4725.54
433.91	4695.11
434.10	4762.99
434.28	4765.33
434.47	4961.94
434.66	4875.34
434.85	4847.25
435.03	5067.26
435.22	5064.92
435.41	5125.77
435.59	5294.29
435.78	5219.39
435.97	5167.90
436.16	5177.26
436.34	5139.82
436.53	5289.61
436.72	5341.10
436.90	5048.54
437.09	5348.12
437.28	5104.71
437.46	5205.35
437.65	5205.35
437.84	5289.61
438.02	5228.76
438.21	5135.14
438.40	5240.46
438.58	5425.36
438.77	5355.15
438.96	5242.80
439.14	5678.14
439.33	5591.54
439.52	5650.05
439.70	5563.45
439.89	5827.93
440.08	5619.63
440.26	5760.06
440.45	5659.42
440.63	5799.85
440.82	6106.46
441.01	5942.62
441.19	5998.79
441.38	6155.61
441.57	6176.67
441.75	6239.87
441.94	6366.26
442.12	6382.64
442.31	6466.90
442.50	6338.17
442.68	6230.51
442.87	6342.85
443.05	6480.94
443.24	6649.46
443.43	6480.94
443.61	6473.92
443.80	6567.54
443.98	6366.26
444.17	6321.79
444.35	6558.18
444.54	6696.27
444.73	6731.38
444.91	6487.96
445.10	6637.76
445.28	6539.46
445.47	6490.31
445.65	6609.67
445.84	6551.16
446.02	6731.38
446.21	6567.54
446.39	6628.40
446.58	6733.72
446.77	6796.92
446.95	6562.86
447.14	6677.55
447.32	6658.82
447.51	6862.45
447.69	6752.45
447.88	6670.53
448.06	6827.34
448.25	6806.28
448.43	6700.95
448.62	6848.41
448.80	6672.87
448.99	6754.79
449.17	6860.11
449.36	6892.88
449.54	7021.61
449.73	7304.81
449.91	7206.51
450.10	7194.81
450.28	7311.83
450.46	7122.25
450.65	7398.43
450.83	7314.17
451.02	7403.11
451.20	7356.30
451.39	7328.22
451.57	7243.96
451.76	7243.96
451.94	7199.49
452.13	7227.57
452.31	7269.70
452.49	7117.57
452.68	7265.02
452.86	7248.64
453.05	7159.70
453.23	7672.28
453.42	7236.94
453.60	7487.37
453.78	7660.57
453.97	7447.58
454.15	7588.02
454.34	7400.77
454.52	7609.08
454.70	7524.82
454.89	7499.08
455.07	7646.53
455.26	7705.04
455.44	7723.77
455.62	7819.73
455.81	7805.69
455.99	7918.03
456.17	8006.97
456.36	7953.14
456.54	8074.85
456.73	7939.10
456.91	8037.40
457.09	8236.35
457.28	8397.84
457.46	8133.36
457.64	8149.75
457.83	8248.05
458.01	8184.85
458.19	8437.63
458.38	8084.21
458.56	8493.80
458.74	8315.92
458.93	8290.18
459.11	8416.57
459.29	8243.37
459.48	8439.97
459.66	8425.93
459.84	8336.99
460.03	8615.51
460.21	8505.51
460.39	8589.77
460.57	8606.15
460.76	8592.11
460.94	8788.71
461.12	8720.84
461.31	8643.60
461.49	8786.37
461.67	8641.26
461.85	8737.22
462.04	8929.14
462.22	9266.18
462.40	8938.51
462.59	8992.34
462.77	9018.08
462.95	8828.50
463.13	9083.62
463.32	9032.13
463.50	8884.67
463.68	9153.84
463.86	9193.62
464.05	8980.64
464.23	8975.95
464.41	9231.07
464.59	8919.78
464.78	9362.14
464.96	9165.54
465.14	9046.17
465.32	9022.77
465.50	9455.76
465.69	9334.06
465.87	9275.54
466.05	9392.57
466.23	9139.79
466.41	9214.69
466.60	9401.93
466.78	9174.90
466.96	9221.71
467.14	9432.36
467.32	9514.28
467.51	9565.77
467.69	9188.94
467.87	9706.20
468.05	9570.45
468.23	9460.45
468.41	9570.45
468.60	9535.34
468.78	9671.09
468.96	9540.02
469.14	9731.95
469.32	9685.14
469.50	9528.32
469.69	9692.16
469.87	9872.38
470.05	9902.81
470.23	9563.43
470.41	9603.22
470.59	9867.70
470.77	10036.22
470.95	10022.17
471.14	10225.80
471.32	9973.02
471.50	10494.96
471.68	10399.00
471.86	10253.89
472.04	10597.95
472.22	10668.16
472.40	10328.78
472.58	10483.26
472.77	10602.63
472.95	10558.16
473.13	11243.93
473.31	10663.48
473.49	10668.16
473.67	10927.96
473.85	10923.28
474.03	10918.60
474.21	10949.03
474.39	10988.82
474.57	11059.03
474.75	11187.76
474.93	11180.74
475.12	11225.21
475.30	11288.40
475.48	11293.08
475.66	11262.66
475.84	11365.64
476.02	11517.78
476.20	11307.13
476.38	11585.65
476.56	11936.73
476.74	11786.94
476.92	11784.60
477.10	11988.22
477.28	11927.37
477.46	12369.73
477.64	12311.22
477.82	12336.96
478.00	12704.43
478.18	12241.00
478.36	12676.34
478.54	12802.73
478.72	12666.98
478.90	12870.61
479.08	13011.04
479.26	13252.11
479.44	13188.92
479.62	13404.25
479.80	13324.67
479.98	13547.02
480.16	13858.31
480.34	13809.16
480.52	13886.40
480.70	13743.63
480.88	13542.34
481.06	13872.36
481.24	14218.75
481.41	14506.64
481.59	14831.97
481.77	14349.82
481.95	14441.11
482.13	14714.95
482.31	14616.65
482.49	15161.99
482.67	15159.65
482.85	15007.52
483.03	15246.25
483.21	15384.34
483.39	15337.53
483.57	15382.00
483.74	15419.45
483.92	15709.68
484.10	15571.58
484.28	16126.29
484.46	16315.87
484.64	16573.33
484.82	16327.58
485.00	16294.81
485.18	16559.29
485.35	16505.46
485.53	16535.88
485.71	16198.85
485.89	16568.65
486.07	16606.10
486.25	16512.48
486.43	16905.69
486.61	17261.45
486.78	17343.37
486.96	17579.76
487.14	17774.03
487.32	17853.61
487.50	18150.85
487.68	18443.42
487.85	18396.61
488.03	18417.68
488.21	18541.72
488.39	18909.19
488.57	18721.95
488.75	18785.14
488.92	19442.83
489.10	19314.10
489.28	19527.09
489.46	19590.28
489.64	19751.78
489.81	20240.95
489.99	20013.92
490.17	20217.55
490.35	20496.07
490.53	20472.67
490.70	20505.43
490.88	20528.84
491.06	21010.99
491.24	21186.53
491.41	20702.04
491.59	20755.87
491.77	20505.43
491.95	21376.11
492.13	21383.13
492.30	21694.43
492.48	21935.50
492.66	21858.26
492.84	21970.61
493.01	22265.52
493.19	22368.50
493.37	22560.42
493.54	22675.11
493.72	22541.70
493.90	22424.67
494.08	23077.68
494.25	23260.24
494.43	23559.83
494.61	23721.33
494.79	23765.80
494.96	23398.34
495.14	23695.58
495.32	23885.17
495.49	23847.72
495.67	23779.84
495.85	24503.07
496.02	24404.77
496.20	24479.66
496.38	24580.31
496.55	24840.11
496.73	25345.66
496.91	24882.24
497.09	24655.20
497.26	25465.03
497.44	24884.58
497.62	25179.48
497.79	25598.44
497.97	25273.10
498.14	25633.55
498.32	25722.49
498.50	25678.02
498.67	26059.52
498.85	26553.38
499.03	26609.55
499.20	26326.35
499.38	26579.12
499.56	26567.42
499.73	26731.26
499.91	26845.94
500.08	27009.78
500.26	26476.14
500.44	26670.40
500.61	27285.97
500.79	26967.65
500.97	27367.88
501.14	27346.82
501.32	27431.08
501.49	27225.11
501.67	27555.13
501.84	27311.71
502.02	27676.83
502.20	27847.69
502.37	27873.44
502.55	27922.59
502.72	28018.55
502.90	28531.13
503.07	28313.46
503.25	28058.34
503.43	28414.10
503.60	28343.89
503.78	28070.04
503.95	28418.78
504.13	28545.17
504.30	28907.96
504.48	28631.77
504.65	29369.04
504.83	28912.64
505.01	29259.04
505.18	29284.78
505.36	29539.90
505.53	29708.42
505.71	29853.53
505.88	29853.53
506.06	29619.48
506.23	29816.08
506.41	29879.28
506.58	30239.72
506.76	29776.30
506.93	30483.14
507.11	30029.07
507.28	30054.82
507.46	30288.87
507.63	30408.24
507.81	30611.87
507.98	30323.98
508.16	30431.65
508.33	30806.13
508.50	31077.63
508.68	31103.38
508.85	31260.20
509.03	31133.81
509.20	31548.08
509.38	31424.03
509.55	31473.18
509.73	31826.60
509.90	31779.79
510.08	31398.29
510.25	31442.76
510.42	32079.38
510.60	32233.86
510.77	32039.59
510.95	32245.56
511.12	31950.65
511.30	32374.29
511.47	32210.45
511.64	32987.51
511.82	32907.93
511.99	32311.10
512.17	32767.50
512.34	32507.70
512.51	32744.09
512.69	32802.61
512.86	32613.02
513.04	32950.06
513.21	32994.53
513.38	32767.50
513.56	32966.45
513.73	32985.17
513.90	33022.62
514.08	33235.61
514.25	33158.37
514.43	32954.74
514.60	33413.49
514.77	33064.75
514.95	33727.12
515.12	33795.00
515.29	33624.14
515.47	34450.35
515.64	33841.81
515.81	34003.30
515.99	33720.10
516.16	34029.05
516.33	33738.82
516.51	33574.98
516.68	33338.59
516.85	33809.04
517.03	34017.35
517.20	33844.15
517.37	34330.98
517.54	34457.37
517.72	34588.44
517.89	34139.05
518.06	33865.21
518.24	34485.45
518.41	34490.13
518.58	34883.34
518.75	34813.13
518.93	35180.59
519.10	34852.92
519.27	35400.60
519.45	35213.36
519.62	35957.65
519.79	35548.06
519.96	35807.86
520.14	35761.05
520.31	35428.69
520.48	35611.25
520.65	35847.64
520.83	35892.12
521.00	35938.93
521.17	36493.63
521.34	36510.02
521.52	36121.49
521.69	36329.80
521.86	36510.02
522.03	36521.72
522.20	36584.91
522.38	36678.54
522.55	36786.20
522.72	36648.11
522.89	36769.82
523.07	36830.67
523.24	36322.77
523.41	37043.66
523.58	37130.26
523.75	37497.72
523.92	37500.06
524.10	37319.84
524.27	37558.58
524.44	37336.23
524.61	37359.63
524.78	37209.84
524.96	37867.53
525.13	37895.61
525.30	37909.66
525.47	38202.22
525.64	37820.72
525.81	37830.08
525.98	37724.75
526.16	37560.92
526.33	37120.90
526.50	37993.92
526.67	37483.68
526.84	37743.48
527.01	37647.52
527.18	37757.52
527.36	38611.82
527.53	38394.15
527.70	38969.92
527.87	38363.72
528.04	38663.31
528.21	38848.21
528.38	38843.53
528.55	39168.87
528.72	39005.03
528.89	39187.59
529.07	38962.90
529.24	38885.66
529.41	39152.48
529.58	38796.72
529.75	39026.09
529.92	38841.19
530.09	39222.70
530.26	39658.04
530.43	39442.71
530.60	39304.62
530.77	39440.37
530.94	39812.51
531.11	39271.85
531.28	39438.03
531.46	39929.54
531.63	40112.10
531.80	39662.72
531.97	39826.56
532.14	39496.54
532.31	39529.31
532.48	39777.40
532.65	39597.18
532.82	39585.48
532.99	39978.69
533.16	39824.22
533.33	40175.30
533.50	40065.29
533.67	40289.98
533.84	40091.04
534.01	40378.92
534.18	40142.53
534.35	40409.35
534.52	40465.52
534.69	40601.27
534.86	40809.58
535.03	40432.75
535.20	41041.29
535.37	40807.24
535.54	41134.92
535.71	41074.06
535.88	41001.50
536.05	40875.12
536.22	41127.89
536.38	40996.82
536.55	40905.54
536.72	40914.90
536.89	41062.36
537.06	40797.88
537.23	41375.99
537.40	41170.02
537.57	41350.24
537.74	41394.71
537.91	41785.58
538.08	41820.69
538.25	41074.06
538.42	41584.30
538.59	41439.18
538.75	41303.43
538.92	41722.39
539.09	41923.68
539.26	41429.82
539.43	41635.79
539.60	41907.29
539.77	41542.17
539.94	41244.92
540.11	41560.89
540.28	41965.81
540.44	42103.90
540.61	41343.22
540.78	41708.35
540.95	41610.04
541.12	41628.77
541.29	41689.62
541.46	41722.39
541.62	42490.09
541.79	42164.75
541.96	41823.03
542.13	42061.77
542.30	41797.29
542.47	42490.09
542.63	41895.59
542.80	42106.24
542.97	42660.94
543.14	42796.70
543.31	43077.56
543.48	42581.37
543.64	42958.19
543.81	43051.81
543.98	42930.11
544.15	42667.97
544.32	43112.67
544.48	43304.59
544.65	43138.41
544.82	43358.42
544.99	42880.95
545.16	43021.39
545.32	42859.89
545.49	43634.61
545.66	44018.46
545.83	43145.44
546.00	43592.48
546.16	43283.53
546.33	42993.30
546.50	43269.48
546.67	43311.61
546.83	42834.14
547.00	43267.14
547.17	43571.41
547.34	43536.30
547.50	43772.70
547.67	43782.06
547.84	43606.52
548.00	43892.07
548.17	44172.93
548.34	44025.48
548.51	44116.76
548.67	43995.05
548.84	44147.18
549.01	44018.46
549.18	44067.61
549.34	43988.03
549.51	43988.03
549.68	44437.41
549.84	43753.97
550.01	44364.85
550.18	44140.16
550.34	43988.03
550.51	44060.58
550.68	44119.10
550.84	44074.63
551.01	44048.88
551.18	44383.58
551.34	44114.42
551.51	44516.99
551.68	44559.12
551.84	44580.18
552.01	44421.03
552.18	44292.30
552.34	43964.62
552.51	44332.09
552.68	44381.24
552.84	44491.24
553.01	44582.52
553.18	44863.39
553.34	44399.96
553.51	44236.12
553.67	44694.87
553.84	44928.92
554.01	45198.09
554.17	44830.62
554.34	44949.99
554.51	44814.24
554.67	45375.97
554.84	45319.79
555.00	44767.43
555.17	44779.13
555.33	44737.00
555.50	44982.76
555.67	45130.21
555.83	44928.92
556.00	44760.40
556.16	45434.48
556.33	45120.85
556.50	45537.46
556.66	45106.80
556.83	44690.19
556.99	45308.09
557.16	45375.97
557.32	45141.91
557.49	44947.65
557.65	45109.14
557.82	45165.32
557.98	45357.24
558.15	45624.06
558.32	45343.20
558.48	45137.23
558.65	45305.75
558.81	45333.84
558.98	44910.20
559.14	45504.70
559.31	45338.52
559.47	45343.20
559.64	45525.76
559.80	45741.09
559.97	44910.20
560.13	44959.35
560.30	45130.21
560.46	45734.07
560.63	45308.09
560.79	45497.67
560.96	46185.79
561.12	45476.61
561.29	45191.06
561.45	45516.40
561.61	45523.42
561.78	45127.87
561.94	45029.57
562.11	45415.76
562.27	45581.93
562.44	45839.39
562.60	45925.99
562.77	45720.02
562.93	45518.74
563.10	46117.92
563.26	45696.62
563.42	45956.42
563.59	45380.65
563.75	45853.44
563.92	46033.66
564.08	45942.38
564.24	46012.59
564.41	45804.28
564.57	45649.81
564.74	45937.69
564.90	45731.73
565.07	46127.28
565.23	45851.09
565.39	45638.11
565.56	45862.80
565.72	45429.80
565.88	45844.07
566.05	45944.72
566.21	46248.99
566.38	45787.90
566.54	45762.15
566.70	46129.62
566.87	46286.43
567.03	45893.22
567.19	46382.40
567.36	46164.73
567.52	45607.68
567.68	46326.22
567.85	45867.48
568.01	46061.74
568.17	45986.85
568.34	45858.12
568.50	46024.29
568.66	45830.03
568.83	45851.09
568.99	45516.40
569.15	45963.44
569.32	45731.73
569.48	45862.80
569.64	46038.34
569.81	45979.82
569.97	46005.57
570.13	45942.38
570.30	45460.23
570.46	45577.25
570.62	45940.04
570.78	45469.59
570.95	45612.36
571.11	46223.24
571.27	45687.26
571.43	45713.00
571.60	45972.80
571.76	46094.51
571.92	45881.52
572.09	45930.67
572.25	46167.07
572.41	46277.07
572.57	46361.33
572.74	46663.26
572.90	46546.23
573.06	46539.21
573.22	46440.91
573.38	46010.25
573.55	46080.47
573.71	46171.75
573.87	46543.89
574.03	46274.73
574.20	46164.73
574.36	46206.86
574.52	46251.33
574.68	46005.57
574.84	46588.36
575.01	46312.18
575.17	46134.30
575.33	46417.50
575.49	45757.47
575.65	46071.10
575.82	46234.94
575.98	46171.75
576.14	46422.19
576.30	46270.05
576.46	46529.85
576.62	46050.04
576.79	45918.97
576.95	46087.49
577.11	46340.27
577.27	46490.06
577.43	46153.02
577.59	46014.93
577.75	45673.21
577.92	45827.69
578.08	46028.98
578.24	45769.18
578.40	46082.81
578.56	46571.98
578.72	45933.01
578.88	46738.16
579.04	46539.21
579.21	46026.63
579.37	46017.27
579.53	46253.67
579.69	45954.08
579.85	46178.77
580.01	46241.96
580.17	46024.29
580.33	46178.77
580.49	46513.47
580.65	45954.08
580.82	46590.70
580.98	46052.38
581.14	45935.35
581.30	46637.51
581.46	45911.95
581.62	46436.23
581.78	46153.02
581.94	46735.82
582.10	46351.97
582.26	46337.93
582.42	46185.79
582.58	46494.74
582.74	46246.65
582.90	46108.55
583.06	46536.87
583.22	46293.46
583.38	46511.13
583.54	46260.69
583.70	46817.74
583.86	46745.18
584.02	46253.67
584.18	46410.48
584.34	46038.34
584.50	45993.87
584.66	46017.27
584.82	46511.13
584.98	46272.39
585.14	46394.10
585.30	46195.15
585.46	45935.35
585.62	46153.02
585.78	46354.31
585.94	45794.92
586.10	46356.65
586.26	45895.56
586.42	46925.40
586.58	46347.29
586.74	46344.95
586.90	46047.70
587.06	46351.97
587.22	46307.50
587.38	46698.37
587.54	46569.64
587.70	46300.48
587.86	46595.38
588.02	46375.37
588.18	46679.64
588.34	46244.30
588.49	45907.27
588.65	46033.66
588.81	46061.74
588.97	45558.53
589.13	45853.44
589.29	46019.61
589.45	45731.73
589.61	46164.73
589.77	46422.19
589.93	46096.85
590.08	46412.82
590.24	46579.00
590.40	46742.84
590.56	46759.22
590.72	46593.04
590.88	46218.56
591.04	46464.32
591.20	47091.58
591.35	46525.17
591.51	46794.33
591.67	46597.73
591.83	46597.73
591.99	46358.99
592.15	46171.75
592.31	46548.57
592.46	46754.54
592.62	46447.93
592.78	46712.41
592.94	46920.72
593.10	46344.95
593.26	46391.76
593.41	46607.09
593.57	46476.02
593.73	46183.45
593.89	46560.28
594.05	46665.60
594.20	46513.47
594.36	46286.43
594.52	46754.54
594.68	46342.61
594.84	46286.43
594.99	46370.69
595.15	46494.74
595.31	46476.02
595.47	46426.87
595.62	46520.49
595.78	46328.56
595.94	46581.34
596.10	46351.97
596.25	46899.65
596.41	46590.70
596.57	45975.14
596.73	46138.98
596.88	46443.25
597.04	46454.95
597.20	46656.24
597.36	46241.96
597.51	46141.32
597.67	46712.41
597.83	46066.42
597.99	46850.50
598.14	46452.61
598.30	46300.48
598.46	46464.32
598.61	46904.34
598.77	46227.92
598.93	46417.50
599.09	46543.89
599.24	46820.08
599.40	46911.36
599.56	46738.16
599.71	46471.34
599.87	46541.55
600.03	46663.26
600.18	46672.62
600.34	46656.24
600.50	46459.63
600.65	46487.72
600.81	46965.19
600.97	46679.64
601.12	46920.72
601.28	46394.10
601.44	46284.09
601.59	46220.90
601.75	46087.49
601.91	46457.29
602.06	46354.31
602.22	46607.09
602.37	46705.39
602.53	46735.82
602.69	46469.00
602.84	46087.49
603.00	46424.53
603.16	46621.13
603.31	46459.63
603.47	46344.95
603.62	46246.65
603.78	46768.58
603.94	46705.39
604.09	46930.08
604.25	46450.27
604.40	46141.32
604.56	46326.22
604.71	46494.74
604.87	46443.25
605.03	46085.15
605.18	46036.00
605.34	46461.97
605.49	46195.15
605.65	46628.15
605.80	46256.01
605.96	46443.25
606.12	46089.83
606.27	46705.39
606.43	46309.84
606.58	46810.71
606.74	46483.04
606.89	46216.22
607.05	46398.78
607.20	46394.10
607.36	46258.35
607.51	46738.16
607.67	46284.09
607.82	46078.13
607.98	46225.58
608.13	46415.16
608.29	46263.03
608.44	45605.34
608.60	45518.74
608.75	46024.29
608.91	46178.77
609.06	45902.59
609.22	46246.65
609.37	46050.04
609.53	46169.41
609.68	46036.00
609.84	45961.10
609.99	46026.63
610.15	45654.49
610.30	45722.37
610.46	45673.21
610.61	45284.68
610.76	45827.69
610.92	45940.04
611.07	45794.92
611.23	45818.33
611.38	46164.73
611.54	45736.41
611.69	45289.37
611.84	45387.67
612.00	45572.57
612.15	45729.39
612.31	45757.47
612.46	45631.08
612.62	45858.12
612.77	45797.26
612.92	45675.55
613.08	45333.84
613.23	45256.60
613.39	45167.66
613.54	44940.63
613.69	45502.35
613.85	45350.22
614.00	45670.87
614.15	45467.25
614.31	44870.41
614.46	45694.28
614.62	45766.84
614.77	45488.31
614.92	45308.09
615.08	44957.01
615.23	45221.49
615.38	45235.53
615.54	44919.56
615.69	44648.06
615.84	44933.60
616.00	45343.20
616.15	45343.20
616.30	44645.72
616.46	44545.08
616.61	45050.63
616.76	44914.88
616.92	44397.62
617.07	44975.73
617.22	44683.17
617.37	44933.60
617.53	45216.81
617.68	45427.46
617.83	45235.53
617.99	44655.08
618.14	44699.55
618.29	44456.14
618.45	44025.48
618.60	44545.08
618.75	44451.45
618.90	44362.51
619.06	44341.45
619.21	44369.54
619.36	44631.68
619.51	44273.57
619.67	44421.03
619.82	44458.48
619.97	44676.15
620.12	44133.14
620.28	44208.04
620.43	44112.08
620.58	44432.73
620.73	44350.81
620.89	44542.74
621.04	44301.66
621.19	44481.88
621.34	44519.33
621.49	44161.23
621.65	43955.26
621.80	44236.12
621.95	44037.18
622.10	43793.76
622.25	43948.24
622.41	43903.77
622.56	44360.17
622.71	44439.75
622.86	43658.01
623.01	43955.26
623.16	44002.07
623.32	43515.24
623.47	43988.03
623.62	43945.90
623.77	43807.81
623.92	43927.17
624.07	43681.42
624.23	43435.66
624.38	43782.06
624.53	43430.98
624.68	43505.88
624.83	43854.62
624.98	43817.17
625.13	43199.27
625.29	43723.55
625.44	43182.88
625.59	43164.16
625.74	43323.32
625.89	43246.08
626.04	43234.38
626.19	43194.59
626.34	43199.27
626.49	43346.72
626.65	43246.08
626.80	43693.12
626.95	43026.07
627.10	43056.50
627.25	42831.80
627.40	42909.04
627.55	42529.87
627.70	42740.52
627.85	43213.31
628.00	43047.13
628.15	43100.97
628.30	42906.70
628.45	42871.59
628.60	42738.18
628.76	42686.69
628.91	42988.62
629.06	42576.69
629.21	42419.87
629.36	42799.04
629.51	42691.37
629.66	42368.38
629.81	42436.25
629.96	42431.57
630.11	42806.06
630.26	42775.63
630.41	42260.71
630.56	42532.22
630.71	42279.44
630.86	42382.42
631.01	42363.70
631.16	42036.02
631.31	41553.87
631.46	42012.62
631.61	42085.17
631.76	42246.67
631.91	42026.66
632.06	42281.78
632.21	42272.42
632.36	42438.59
632.51	41851.12
632.66	42335.61
632.81	41787.92
632.96	42185.82
633.10	42129.64
633.25	42066.45
633.40	42092.19
633.55	42082.83
633.70	41673.24
633.85	41813.67
634.00	42005.59
634.15	41907.29
634.30	42106.24
634.45	41045.97
634.60	41486.00
634.75	41605.36
634.90	41551.53
635.05	41720.05
635.19	41507.06
635.34	42321.57
635.49	41652.17
635.64	41916.65
635.79	41177.04
635.94	41359.61
636.09	41474.29
636.24	40980.44
636.39	40671.49
636.53	41181.73
636.68	41612.38
636.83	41305.77
636.98	41443.87
637.13	40842.35
637.28	41493.02
637.43	41668.56
637.57	41296.41
637.72	41202.79
637.87	41457.91
638.02	41401.74
638.17	41600.68
638.32	41493.02
638.46	40863.41
638.61	40795.54
638.76	40942.99
638.91	41277.69
639.06	40643.40
639.20	41455.57
639.35	40971.08
639.50	40830.65
639.65	40847.03
639.80	40772.13
639.94	40329.77
640.09	40655.11
640.24	40718.30
640.39	40776.81
640.54	40512.33
640.68	40605.95
640.83	40542.76
640.98	40608.29
641.13	40708.94
641.27	40832.99
641.42	40774.47
641.57	40432.75
641.72	40573.19
641.86	40797.88
642.01	40156.57
642.16	40297.00
642.31	39746.98
642.45	40561.48
642.60	39772.72
642.75	40067.63
642.90	40662.13
643.04	40126.14
643.19	40332.11
643.34	40158.91
643.48	40018.48
643.63	40165.93
643.78	39955.29
643.93	40275.94
644.07	40123.80
644.22	40109.76
644.37	39894.43
644.51	39945.92
644.66	39875.71
644.81	40076.99
644.95	40032.52
645.10	39676.76
645.25	39779.74
645.39	40128.48
645.54	39718.89
645.69	39735.27
645.83	39842.94
645.98	39651.02
646.13	39335.04
646.27	39777.40
646.42	39613.57
646.57	39206.31
646.71	39529.31
646.86	39489.52
647.00	39522.29
647.15	39686.12
647.30	39295.25
647.44	39583.14
647.59	39285.89
647.74	39009.71
647.88	39058.86
648.03	39400.58
648.17	39421.64
648.32	39449.73
648.47	39313.98
648.61	38759.27
648.76	40058.27
648.90	39353.77
649.05	39339.72
649.20	38998.01
649.34	39257.81
649.49	38660.97
649.63	38934.81
649.78	39414.62
649.92	39564.42
650.07	39744.64
650.21	39019.07
650.36	39122.05
650.51	39405.26
650.65	39463.77
650.80	39768.04
650.94	38787.36
651.09	38995.67
651.23	38883.32
651.38	38485.43
651.52	38476.07
651.67	38204.56
651.81	38337.98
651.96	38447.98
652.10	38469.04
652.25	38689.06
652.39	38710.12
652.54	38794.38
652.68	38630.54
652.83	39150.14
652.97	38916.09
653.12	38398.83
653.26	38560.33
653.41	37935.40
653.55	38012.64
653.70	38263.08
653.84	38457.34
653.99	38347.34
654.13	38085.20
654.27	37904.98
654.42	37968.17
654.56	37897.95
654.71	38312.23
654.85	38019.66
655.00	38260.74
655.14	37848.80
655.29	37769.22
655.43	37457.93
655.57	37195.79
655.72	37549.21
655.86	37572.62
656.01	37064.72
656.15	37387.72
656.30	37357.29
656.44	37397.08
656.58	37457.93
656.73	37013.23
656.87	37563.26
657.01	37268.35
657.16	37673.26
657.30	37186.43
657.45	37008.55
657.59	37525.81
657.73	37301.12
657.88	37411.12
658.02	37706.03
658.16	37521.13
658.31	37270.69
658.45	37656.88
658.60	37170.05
658.74	37949.45
658.88	37432.19
659.03	36982.80
659.17	36734.71
659.31	36989.83
659.46	36896.20
659.60	37062.38
659.74	37017.91
659.89	36456.18
660.03	36928.97
660.17	36996.85
660.32	36823.65
660.46	36938.33
660.60	36615.34
660.74	36758.11
660.89	36657.47
661.03	35983.40
661.17	36533.42
661.32	36451.50
661.46	36559.17
661.60	35974.03
661.74	36109.78
661.89	36533.42
662.03	36093.40
662.17	36570.87
662.31	35948.29
662.46	36690.24
662.60	36535.76
662.74	36697.26
662.88	35845.30
663.03	35737.64
663.17	35849.99
663.31	35878.07
663.45	35974.03
663.60	35859.35
663.74	35704.87
663.88	35887.43
664.02	35400.60
664.17	35737.64
664.31	35353.79
664.45	35386.56
664.59	35182.93
664.73	35531.67
664.88	35688.49
665.02	34815.47
665.16	35220.38
665.30	35051.86
665.44	34906.75
665.59	34761.64
665.73	35222.72
665.87	34859.94
666.01	35152.51
666.15	35033.14
666.29	35093.99
666.44	34822.49
666.58	34829.51
666.72	34646.95
666.86	34768.66
667.00	34426.94
667.14	34494.82
667.28	34520.56
667.43	34525.24
667.57	34611.84
667.71	34562.69
667.85	34155.44
667.99	34455.03
668.13	34260.76
668.27	34473.75
668.41	34373.11
668.56	33523.49
668.70	34007.98
668.84	33626.48
668.98	33612.43
669.12	33619.46
669.26	33919.04
669.40	33172.41
669.54	33354.97
669.68	33186.46
669.82	33439.23
669.96	33195.82
670.10	33411.15
670.25	33460.30
670.39	33076.45
670.53	33095.18
670.67	33380.72
670.81	32898.57
670.95	32987.51
671.09	32776.86
671.23	32797.93
671.37	32652.81
671.51	32790.91
671.65	32716.01
671.79	32493.66
671.93	32374.29
672.07	32816.65
672.21	32444.51
672.35	31852.35
672.49	32208.11
672.63	31981.08
672.77	32037.25
672.91	31952.99
673.05	32275.99
673.19	31754.05
673.33	31690.85
673.47	31777.45
673.61	31702.56
673.75	31510.63
673.89	31386.58
674.03	31618.30
674.17	31505.95
674.31	31225.09
674.45	31412.33
674.59	31555.10
674.73	31236.79
674.87	31777.45
675.01	31082.31
675.15	31140.83
675.29	30838.90
675.43	31136.15
675.56	30962.95
675.70	30567.40
675.84	31084.65
675.98	29638.20
676.12	30644.63
676.26	30436.33
676.40	30642.29
676.54	30396.54
676.68	30661.02
676.82	29586.71
676.96	30047.80
677.10	29902.68
677.23	30183.55
677.37	29448.62
677.51	29928.43
677.65	29699.06
677.79	29237.97
677.93	29359.68
678.07	28851.78
678.21	29104.56
678.34	28716.03
678.48	28975.83
678.62	28730.08
678.76	28840.08
678.90	28697.31
679.04	28577.94
679.18	28720.71
679.31	28161.33
679.45	27922.59
679.59	28357.93
679.73	28011.53
679.87	28023.23
680.00	28044.30
680.14	28254.95
680.28	28187.07
680.42	27747.05
680.56	27768.12
680.70	27505.98
680.83	27714.28
680.97	27386.61
681.11	27552.79
681.25	27367.88
681.39	27505.98
681.52	27777.48
681.66	27234.47
681.80	26892.76
681.94	26967.65
682.07	26548.70
682.21	26670.40
682.35	26831.90
682.49	26771.05
682.62	26089.95
682.76	25914.41
682.90	26375.50
683.04	26181.23
683.17	26455.08
683.31	25811.43
683.45	25593.76
683.59	25872.28
683.72	25963.56
683.86	25799.73
684.00	25610.14
684.13	25357.36
684.27	25067.14
684.41	25385.45
684.55	24989.90
684.68	25488.43
684.82	25193.53
684.96	24699.67
685.09	25130.33
685.23	24594.35
685.37	24601.37
685.50	25029.69
685.64	24816.70
685.78	24758.19
685.91	24238.59
686.05	24271.36
686.19	23936.66
686.32	23843.04
686.46	23480.25
686.60	23527.06
686.73	23470.89
686.87	23285.99
687.01	23386.63
687.14	22902.14
687.28	23147.90
687.42	23094.07
687.55	23150.24
687.69	22941.93
687.82	22986.40
687.96	23178.33
688.10	22979.38
688.23	22333.39
688.37	22602.55
688.50	22764.05
688.64	22473.82
688.78	22108.70
688.91	22106.36
689.05	22230.41
689.18	22188.28
689.32	21872.31
689.46	21982.31
689.59	22431.69
689.73	22340.41
689.86	22129.77
690.00	21813.79
690.13	21675.70
690.27	21523.57
690.41	21673.36
690.54	21401.86
690.68	21106.95
690.81	21422.92
690.95	21298.88
691.08	21060.14
691.22	21453.35
691.35	21319.94
691.49	21142.06
691.62	20950.14
691.76	21144.40
691.89	20929.07
692.03	20851.83
692.16	20826.09
692.30	20414.15
692.43	20428.20
692.57	20081.80
692.70	20056.05
692.84	19864.13
692.97	19932.00
693.11	20107.54
693.24	19955.41
693.38	19651.14
693.51	19864.13
693.65	20025.62
693.78	19817.32
693.92	19805.61
694.05	19473.26
694.19	19098.77
694.32	19220.48
694.45	19426.45
694.59	18977.06
694.72	19087.07
694.86	18895.14
694.99	19023.87
695.13	18904.51
695.26	18656.41
695.39	18717.26
695.53	18855.36
695.66	18504.28
695.80	18628.32
695.93	18497.25
696.07	18445.76
696.20	18298.31
696.33	18405.97
696.47	18342.78
696.60	18064.25
696.73	17687.43
696.87	17987.02
697.00	17610.19
697.14	17530.61
697.27	17764.67
697.40	17614.87
697.54	17326.99
697.67	17268.47
697.80	16957.18
697.94	17273.15
698.07	17146.76
698.21	17165.49
698.34	17207.62
698.47	17111.66
698.61	16730.15
698.74	16847.18
698.87	16812.07
699.01	16512.48
699.14	16421.20
699.27	16404.81
699.40	16255.02
699.54	16297.15
699.67	16252.68
699.80	16116.93
699.94	16032.67
700.07	15953.09
700.20	16301.83
700.34	15925.00
700.47	15969.48
700.60	15812.66
700.73	16046.71
700.87	15737.76
701.00	15573.92
701.13	15468.60
701.26	15442.85
701.40	15438.17
701.53	15054.33
701.66	15440.51
701.79	15272.00
701.93	15187.74
702.06	14899.85
702.19	14946.66
702.32	14834.32
702.46	14721.97
702.59	14930.28
702.72	14782.82
702.85	14675.16
702.99	14602.60
703.12	14600.26
703.25	14331.10
703.38	14459.83
703.51	14352.16
703.65	14672.82
703.78	14164.92
703.91	14057.26
704.04	14003.43
704.17	14164.92
704.31	14118.11
704.44	13942.57
704.57	13664.05
704.70	13916.83
704.83	13708.52
704.96	14024.49
705.10	13650.00
705.23	13797.46
>>>>>End Processed Spectral Data<<<<<
