SpectraSuite Data File
++++++++++++++++++++++++++++++++++++
Date: Fri Oct 25 10:47:54 EDT 2013
User: price-jones
Dark Spectrum Present: No
Reference Spectrum Present: No
Number of Sampled Component Spectra: 1
Spectrometers: USB2+H05261
Integration Time (usec): 100000 (USB2+H05261)
Spectra Averaged: 1 (USB2+H05261)
Boxcar Smoothing: 0 (USB2+H05261)
Correct for Electrical Dark: No (USB2+H05261)
Strobe/Lamp Enabled: No (USB2+H05261)
Correct for Detector Non-linearity: No (USB2+H05261)
Correct for Stray Light: No (USB2+H05261)
Number of Pixels in Processed Spectrum: 2048
>>>>>Begin Processed Spectral Data<<<<<
365.73	163.84
365.92	163.84
366.12	163.84
366.32	72.56
366.52	30.43
366.72	77.24
366.91	44.47
367.11	142.77
367.31	110.01
367.51	0.00
367.70	44.47
367.90	4.68
368.10	0.00
368.30	60.85
368.49	49.15
368.69	102.98
368.89	86.60
369.09	46.81
369.28	23.41
369.48	100.64
369.68	133.41
369.87	163.84
370.07	112.35
370.27	128.73
370.47	196.60
370.66	402.57
370.86	388.53
371.06	463.43
371.25	470.45
371.45	379.17
371.65	433.00
371.84	430.66
372.04	489.17
372.24	510.24
372.44	451.72
372.63	521.94
372.83	531.30
373.03	475.13
373.22	454.06
373.42	458.74
373.62	479.81
373.81	465.77
374.01	510.24
374.21	491.51
374.40	561.73
374.60	594.50
374.79	589.82
374.99	582.79
375.19	571.09
375.38	528.96
375.58	594.50
375.78	617.90
375.97	601.52
376.17	624.92
376.37	491.51
376.56	669.39
376.76	521.94
376.95	599.18
377.15	589.82
377.35	688.12
377.54	564.07
377.74	573.43
377.93	660.03
378.13	617.90
378.33	784.08
378.52	645.99
378.72	676.41
378.91	620.24
379.11	636.63
379.31	734.93
379.50	575.77
379.70	671.73
379.89	622.58
380.09	622.58
380.28	629.60
380.48	723.23
380.68	706.84
380.87	657.69
381.07	704.50
381.26	727.91
381.46	641.31
381.65	711.52
381.85	667.05
382.04	704.50
382.24	751.31
382.43	697.48
382.63	685.78
382.83	702.16
383.02	723.23
383.22	681.10
383.41	709.18
383.61	741.95
383.80	770.04
384.00	697.48
384.19	725.57
384.39	786.42
384.58	741.95
384.78	737.27
384.97	716.20
385.17	770.04
385.36	741.95
385.56	763.01
385.75	791.10
385.95	901.11
386.14	748.97
386.34	760.67
386.53	807.48
386.72	823.87
386.92	805.14
387.11	826.21
387.31	807.48
387.50	863.66
387.70	800.46
387.89	809.83
388.09	816.85
388.28	816.85
388.48	844.93
388.67	844.93
388.86	901.11
389.06	929.19
389.25	842.59
389.45	889.40
389.64	826.21
389.84	978.34
390.03	873.02
390.22	957.28
390.42	931.53
390.61	870.68
390.81	959.62
391.00	936.21
391.19	968.98
391.39	1027.50
391.58	983.02
391.78	1004.09
391.97	908.13
392.16	959.62
392.36	1008.77
392.55	954.94
392.75	976.00
392.94	931.53
393.13	973.66
393.33	945.58
393.52	1001.75
393.71	990.05
393.91	1006.43
394.10	1020.47
394.29	1022.81
394.49	997.07
394.68	1053.24
394.88	1088.35
395.07	1125.80
395.26	1083.67
395.46	1153.88
395.65	1203.04
395.84	1114.10
396.04	1102.39
396.23	1125.80
396.42	1142.18
396.62	1188.99
396.81	1132.82
397.00	1156.22
397.19	1217.08
397.39	1245.16
397.58	1226.44
397.77	1266.23
397.97	1217.08
398.16	1207.72
398.35	1320.06
398.55	1362.19
398.74	1254.53
398.93	1369.21
399.12	1245.16
399.32	1371.55
399.51	1280.27
399.70	1336.45
399.90	1317.72
400.09	1423.05
400.28	1509.65
400.47	1465.18
400.67	1439.43
400.86	1448.79
401.05	1430.07
401.24	1460.49
401.44	1479.22
401.63	1554.12
401.82	1533.05
402.01	1483.90
402.21	1540.07
402.40	1610.29
402.59	1509.65
402.78	1495.60
402.97	1570.50
403.17	1561.14
403.36	1514.33
403.55	1661.78
403.74	1680.50
403.93	1577.52
404.13	1703.91
404.32	1579.86
404.51	1549.43
404.70	1692.21
404.89	1647.74
405.09	1741.36
405.28	1792.85
405.47	1715.61
405.66	1769.44
405.85	1713.27
406.05	1732.00
406.24	1806.89
406.43	1755.40
406.62	1851.36
406.81	1872.43
407.00	1769.44
407.20	1757.74
407.39	1816.26
407.58	1956.69
407.77	1867.75
407.96	1888.81
408.15	1851.36
408.34	1926.26
408.54	1994.14
408.73	1973.07
408.92	2064.35
409.11	2085.42
409.30	2054.99
409.49	2127.55
409.68	1984.77
409.87	2047.97
410.07	2054.99
410.26	1991.80
410.45	2069.03
410.64	2162.66
410.83	2141.59
411.02	2181.38
411.21	2373.30
411.40	2277.34
411.59	2305.43
411.78	2394.37
411.98	2267.98
412.17	2438.84
412.36	2377.98
412.55	2473.95
412.74	2354.58
412.93	2385.01
413.12	2319.47
413.31	2541.82
413.50	2532.46
413.69	2480.97
413.88	2633.10
414.07	2663.53
414.26	2630.76
414.45	2623.74
414.64	2654.17
414.83	2691.62
415.02	2642.46
415.22	2628.42
415.41	2724.38
415.60	2696.30
415.79	2712.68
415.98	2715.02
416.17	2913.97
416.36	2806.30
416.55	2923.33
416.74	2951.42
416.93	2916.31
417.12	2958.44
417.31	3019.29
417.50	2902.26
417.69	2993.55
417.88	3073.12
418.07	3073.12
418.26	3117.59
418.45	3112.91
418.64	3082.49
418.83	3045.04
419.02	3023.97
419.21	3185.47
419.39	3185.47
419.58	3213.56
419.77	3066.10
419.96	3265.05
420.15	3435.91
420.34	3204.19
420.53	3417.18
420.72	3325.90
420.91	3353.99
421.10	3323.56
421.29	3403.14
421.48	3307.18
421.67	3475.70
421.86	3382.07
422.05	3445.27
422.24	3442.93
422.43	3527.19
422.61	3314.20
422.80	3452.29
422.99	3485.06
423.18	3454.63
423.37	3595.06
423.56	3644.21
423.75	3468.67
423.94	3419.52
424.13	3339.94
424.32	3321.22
424.50	3571.66
424.69	3630.17
424.88	3581.02
425.07	3571.66
425.26	3655.92
425.45	3375.05
425.64	3494.42
425.83	3468.67
426.01	3571.66
426.20	3566.98
426.39	3562.30
426.58	3480.38
426.77	3730.81
426.96	3667.62
427.15	3613.79
427.33	3648.90
427.52	3648.90
427.71	3660.60
427.90	3691.02
428.09	3789.33
428.28	3847.84
428.46	3873.59
428.65	3679.32
428.84	3871.25
429.03	3922.74
429.22	3794.01
429.40	3812.73
429.59	3754.22
429.78	3693.37
429.97	3559.95
430.16	3655.92
430.34	3770.60
430.53	3953.16
430.72	3873.59
430.91	3873.59
431.10	3896.99
431.28	4173.18
431.47	4173.18
431.66	4159.13
431.85	4131.05
432.03	4117.00
432.22	4236.37
432.41	4259.78
432.60	4147.43
432.79	4175.52
432.97	4257.43
433.16	4390.84
433.35	4299.56
433.54	4159.13
433.72	4074.87
433.91	4224.67
434.10	4327.65
434.28	4374.46
434.47	4365.10
434.66	4421.27
434.85	4557.02
435.03	4437.66
435.22	4571.07
435.41	4601.49
435.59	4514.89
435.78	4592.13
435.97	4638.94
436.16	4603.83
436.34	4631.92
436.53	4503.19
436.72	4791.08
436.90	4423.61
437.09	4566.39
437.28	4507.87
437.46	4685.75
437.65	4713.84
437.84	4779.37
438.02	4662.35
438.21	4823.84
438.40	4631.92
438.58	4847.25
438.77	4858.95
438.96	4809.80
439.14	5153.86
439.33	5081.30
439.52	5081.30
439.70	5245.14
439.89	5139.82
440.08	5238.12
440.26	5121.09
440.45	5151.52
440.63	5359.83
440.82	5305.99
441.01	5186.63
441.19	5315.36
441.38	5467.49
441.57	5434.72
441.75	5343.44
441.94	5535.37
442.12	5706.23
442.31	5771.76
442.50	5762.40
442.68	5696.86
442.87	5612.60
443.05	5666.44
443.24	5713.25
443.43	5818.57
443.61	5802.19
443.80	5813.89
443.98	5734.31
444.17	5516.64
444.35	5771.76
444.54	5902.83
444.73	5858.36
444.91	5832.62
445.10	5940.28
445.28	5788.14
445.47	5694.52
445.65	5769.42
445.84	5865.38
446.02	5788.14
446.21	5867.72
446.39	5874.74
446.58	5907.51
446.77	5907.51
446.95	5956.66
447.14	6019.86
447.32	5998.79
447.51	5973.05
447.69	5837.30
447.88	6038.58
448.06	6225.82
448.25	5970.71
448.43	6015.18
448.62	6139.23
448.80	5926.24
448.99	5977.73
449.17	6083.05
449.36	6069.01
449.54	6216.46
449.73	6331.15
449.91	6380.30
450.10	6303.06
450.28	6324.13
450.46	6361.58
450.65	6345.19
450.83	6415.41
451.02	6246.89
451.20	6511.37
451.39	6321.79
451.57	6361.58
451.76	6431.79
451.94	6466.90
452.13	6553.50
452.31	6406.05
452.49	6310.08
452.68	6532.44
452.86	6502.01
453.05	6553.50
453.23	6567.54
453.42	6555.84
453.60	6408.39
453.78	6665.85
453.97	6647.12
454.15	6712.66
454.34	6579.25
454.52	6817.98
454.70	6607.33
454.89	6661.16
455.07	6754.79
455.26	6836.70
455.44	7000.54
455.62	7105.87
455.81	7002.88
455.99	6977.14
456.17	6913.94
456.36	7040.33
456.54	7187.79
456.73	7148.00
456.91	7208.85
457.09	7110.55
457.28	7400.77
457.46	7098.84
457.64	7382.05
457.83	7356.30
458.01	6967.77
458.19	7328.22
458.38	7187.79
458.56	7494.40
458.74	7316.51
458.93	7297.79
459.11	7393.75
459.29	7506.10
459.48	7445.24
459.66	7442.90
459.84	7536.52
460.03	7641.85
460.21	7602.06
460.39	7719.09
460.57	7627.81
460.76	7571.63
460.94	7726.11
461.12	7585.68
461.31	7660.57
461.49	7730.79
461.67	7548.23
461.85	8219.96
462.04	7887.61
462.22	8273.79
462.40	8109.96
462.59	7943.78
462.77	7999.95
462.95	8098.25
463.13	7960.16
463.32	8002.29
463.50	8051.44
463.68	8154.43
463.86	8210.60
464.05	7920.37
464.23	8208.26
464.41	8114.64
464.59	8051.44
464.78	8430.61
464.96	8367.42
465.14	8315.92
465.32	8449.33
465.50	8379.12
465.69	8390.82
465.87	8362.73
466.05	8238.69
466.23	8234.00
466.41	8369.76
466.60	8517.21
466.78	8187.19
466.96	8346.35
467.14	8304.22
467.32	8500.83
467.51	8688.07
467.69	8287.84
467.87	8351.03
468.05	8601.47
468.23	8564.02
468.41	8531.25
468.60	8681.05
468.78	8765.31
468.96	8674.03
469.14	8549.98
469.32	8760.63
469.50	8631.90
469.69	8779.35
469.87	8823.82
470.05	8865.95
470.23	8945.53
470.41	8840.20
470.59	8730.20
470.77	8798.07
470.95	9114.05
471.14	9088.30
471.32	9022.77
471.50	9174.90
471.68	9385.55
471.86	9270.86
472.04	9430.02
472.22	9514.28
472.40	9249.80
472.58	9268.52
472.77	9605.56
472.95	9586.83
473.13	9750.67
473.31	9591.52
473.49	9598.54
473.67	9504.92
473.85	9621.94
474.03	9825.57
474.21	9916.85
474.39	9989.41
474.57	9809.19
474.75	10094.73
474.93	9905.15
475.12	10190.69
475.30	10146.22
475.48	10186.01
475.66	10333.47
475.84	10176.65
476.02	10455.17
476.20	10321.76
476.38	10539.43
476.56	10902.22
476.74	10586.24
476.92	10832.00
477.10	10841.36
477.28	10932.64
477.46	10808.59
477.64	11129.25
477.82	11159.67
478.00	11215.85
478.18	11396.07
478.36	11311.81
478.54	11599.70
478.72	11337.56
478.90	11857.15
479.08	11871.20
479.26	11864.18
479.44	11873.54
479.62	11988.22
479.80	11957.80
479.98	12184.83
480.16	12381.43
480.34	12353.35
480.52	12465.69
480.70	12269.09
480.88	12152.06
481.06	12599.10
481.24	12482.08
481.41	12622.51
481.59	12879.97
481.77	13231.05
481.95	13146.79
482.13	13172.54
482.31	13022.74
482.49	13495.53
482.67	13357.44
482.85	13710.86
483.03	14031.51
483.21	13891.08
483.39	14232.80
483.57	13650.00
483.74	14085.34
483.92	14237.48
484.10	14022.15
484.28	14347.48
484.46	14600.26
484.64	14782.82
484.82	14693.88
485.00	14661.12
485.18	14808.57
485.35	15021.56
485.53	15026.24
485.71	15257.95
485.89	15330.51
486.07	15454.56
486.25	15412.43
486.43	15482.64
486.61	15569.24
486.78	15999.90
486.96	15737.76
487.14	16222.25
487.32	16107.57
487.50	16622.48
487.68	16655.25
487.85	16620.14
488.03	16758.24
488.21	16917.39
488.39	17235.70
488.57	17219.32
488.75	17411.25
488.92	17635.94
489.10	17586.79
489.28	17596.15
489.46	17975.31
489.64	17706.15
489.81	18537.04
489.99	18148.51
490.17	18361.50
490.35	18345.12
490.53	18415.34
490.70	19054.30
490.88	18967.70
491.06	18792.16
491.24	18899.83
491.41	18775.78
491.59	19201.76
491.77	19070.68
491.95	19215.80
492.13	19417.08
492.30	19807.95
492.48	19969.45
492.66	19868.81
492.84	20039.67
493.01	20343.94
493.19	20088.82
493.37	20528.84
493.54	20299.47
493.72	20285.42
493.90	20769.91
494.08	21029.71
494.25	20992.26
494.43	21333.98
494.61	21474.42
494.79	21231.00
494.96	21216.96
495.14	21745.92
495.32	21830.18
495.49	21764.64
495.67	22024.44
495.85	21872.31
496.02	22181.26
496.20	22532.34
496.38	22305.31
496.55	22621.28
496.73	22930.23
496.91	22649.36
497.09	22780.43
497.26	22799.16
497.44	22953.63
497.62	22796.82
497.79	23384.29
497.97	23042.57
498.14	23342.16
498.32	23161.94
498.50	23494.30
498.67	23847.72
498.85	24002.19
499.03	24151.99
499.20	24121.56
499.38	24004.53
499.56	24198.80
499.73	24278.38
499.91	24690.31
500.08	24650.52
500.26	24198.80
500.44	24435.19
500.61	24617.75
500.79	24898.62
500.97	24723.08
501.14	25123.31
501.32	25219.27
501.49	24987.56
501.67	25287.15
501.84	25476.73
502.02	25397.15
502.20	25886.32
502.37	25965.90
502.55	25450.99
502.72	25663.97
502.90	25401.83
503.07	25645.25
503.25	25900.37
503.43	25909.73
503.60	26080.59
503.78	26033.78
503.95	26309.96
504.13	26288.90
504.30	26298.26
504.48	26314.64
504.65	26778.07
504.83	26991.06
505.01	26986.38
505.18	26911.48
505.36	27213.41
505.53	27325.75
505.71	27285.97
505.88	27262.56
506.06	27190.00
506.23	27641.73
506.41	27414.69
506.58	27496.61
506.76	27889.82
506.93	28077.07
507.11	27461.51
507.28	27812.59
507.46	27955.36
507.63	27920.25
507.81	28095.79
507.98	28070.04
508.16	28334.53
508.33	28416.44
508.50	28151.96
508.68	28914.98
508.85	28776.89
509.03	28629.43
509.20	28748.80
509.38	28945.41
509.55	28835.40
509.73	29043.71
509.90	29191.16
510.08	29015.62
510.25	29139.67
510.42	29193.50
510.60	29493.09
510.77	29502.45
510.95	29806.72
511.12	29355.00
511.30	29422.87
511.47	29792.68
511.64	29813.74
511.82	29895.66
511.99	30181.21
512.17	29996.31
512.34	30015.03
512.51	30071.20
512.69	30665.70
512.86	30326.32
513.04	30712.51
513.21	30630.59
513.38	30768.68
513.56	30745.28
513.73	30450.37
513.90	30792.09
514.08	30515.90
514.25	30745.28
514.43	30787.41
514.60	30810.81
514.77	31035.50
514.95	31419.35
515.12	30906.77
515.29	31241.47
515.47	31515.31
515.64	31660.43
515.81	31662.77
515.99	31536.38
516.16	31428.71
516.33	31510.63
516.51	31784.48
516.68	31482.55
516.85	31461.48
517.03	31871.07
517.20	32273.65
517.37	32149.60
517.54	32133.21
517.72	32217.47
517.89	32041.93
518.06	32304.07
518.24	32395.35
518.41	31967.04
518.58	32285.35
518.75	32397.70
518.93	32861.12
519.10	32477.27
519.27	33237.95
519.45	32620.05
519.62	32856.44
519.79	32926.66
519.96	32821.33
520.14	33755.21
520.31	32723.03
520.48	33303.48
520.65	33099.86
520.83	33926.07
521.00	33820.74
521.17	33605.41
521.34	33397.10
521.52	33617.11
521.69	33663.93
521.86	34052.45
522.03	33837.12
522.20	34052.45
522.38	33986.92
522.55	34281.83
522.72	34279.49
522.89	34249.06
523.07	34410.56
523.24	34366.09
523.41	34518.22
523.58	34558.01
523.75	34866.96
523.92	34773.34
524.10	34883.34
524.27	34883.34
524.44	34869.30
524.61	34855.26
524.78	35255.49
524.96	34714.83
525.13	35311.66
525.30	35271.87
525.47	35264.85
525.64	35721.26
525.81	35517.63
525.98	35566.78
526.16	35115.06
526.33	35133.78
526.50	35751.68
526.67	35185.27
526.84	35587.85
527.01	35248.47
527.18	35395.92
527.36	35611.25
527.53	35793.81
527.70	36318.09
527.87	36275.96
528.04	35959.99
528.21	36378.95
528.38	35875.73
528.55	36580.23
528.72	36655.13
528.89	36928.97
529.07	36793.22
529.24	36018.50
529.41	36739.39
529.58	36238.51
529.75	36411.71
529.92	36566.19
530.09	36491.29
530.26	36540.44
530.43	36746.41
530.60	36407.03
530.77	37092.81
530.94	37497.72
531.11	36898.55
531.28	37214.52
531.46	37022.59
531.63	37151.32
531.80	37146.64
531.97	37530.49
532.14	37357.29
532.31	36935.99
532.48	37404.10
532.65	37366.65
532.82	37261.33
532.99	37448.57
533.16	37476.66
533.33	37699.01
533.50	37502.40
533.67	37773.91
533.84	37544.53
534.01	38050.09
534.18	37787.95
534.35	38319.25
534.52	37783.27
534.69	37989.24
534.86	38396.49
535.03	38031.36
535.20	38452.66
535.37	39051.84
535.54	38501.81
535.71	38267.76
535.88	38291.16
536.05	38522.88
536.22	38677.35
536.38	38513.52
536.55	38670.33
536.72	38677.35
536.89	38260.74
537.06	38925.45
537.23	38625.86
537.40	38586.07
537.57	38387.13
537.74	38986.30
537.91	38646.93
538.08	39026.09
538.25	38691.40
538.42	38808.42
538.59	39524.63
538.75	38604.80
538.92	38983.96
539.09	39192.27
539.26	39550.37
539.43	39473.13
539.60	39110.35
539.77	39196.95
539.94	39578.46
540.11	38726.50
540.28	39416.96
540.44	39304.62
540.61	39461.43
540.78	39468.45
540.95	39330.36
541.12	39667.40
541.29	39564.42
541.46	39805.49
541.62	39690.80
541.79	39634.63
541.96	39356.11
542.13	39498.88
542.30	39721.23
542.47	39796.13
542.63	39669.74
542.80	39962.31
542.97	40374.24
543.14	40421.05
543.31	40350.84
543.48	40369.56
543.64	40945.33
543.81	40802.56
543.98	40524.04
544.15	40456.16
544.32	40404.67
544.48	41083.42
544.65	40540.42
544.82	40814.26
544.99	40741.71
545.16	40573.19
545.32	41198.11
545.49	41551.53
545.66	40898.52
545.83	40966.40
546.00	41088.10
546.16	41029.59
546.33	41048.32
546.50	40715.96
546.67	41031.93
546.83	40662.13
547.00	40907.88
547.17	40968.74
547.34	41345.56
547.50	41502.38
547.67	41385.35
547.84	41118.53
548.00	41598.34
548.17	41535.15
548.34	41897.93
548.51	41766.86
548.67	41579.62
548.84	42000.91
549.01	41757.50
549.18	41193.43
549.34	41551.53
549.51	41443.87
549.68	42024.32
549.84	41638.13
550.01	41923.68
550.18	41869.84
550.34	41977.51
550.51	41869.84
550.68	41954.10
550.84	41703.67
551.01	41947.08
551.18	42206.88
551.34	42244.33
551.51	42085.17
551.68	42471.36
551.84	42527.53
552.01	41670.90
552.18	42253.69
552.34	41738.77
552.51	42562.64
552.68	42082.83
552.84	42417.53
553.01	42490.09
553.18	42464.34
553.34	42370.72
553.51	42120.28
553.67	42401.14
553.84	42754.57
554.01	42536.90
554.17	42529.87
554.34	42670.31
554.51	42632.86
554.67	42733.50
554.84	42567.32
555.00	42426.89
555.17	42295.82
555.33	42937.13
555.50	42618.81
555.67	42595.41
555.83	42979.26
556.00	42850.53
556.16	43456.73
556.33	43068.20
556.50	42953.51
556.66	42913.72
556.83	42698.39
556.99	43236.72
557.16	42967.55
557.32	43056.50
557.49	43491.83
557.65	42209.22
557.82	43358.42
557.98	43077.56
558.15	43220.33
558.32	43269.48
558.48	43061.18
558.65	43318.64
558.81	43491.83
558.98	43304.59
559.14	42941.81
559.31	43550.35
559.47	43681.42
559.64	43339.70
559.80	43650.99
559.97	43482.47
560.13	43143.09
560.30	43585.46
560.46	43030.75
560.63	43150.12
560.79	43650.99
560.96	43957.60
561.12	43826.53
561.29	43524.60
561.45	43601.84
561.61	43573.75
561.78	43800.79
561.94	43428.64
562.11	43601.84
562.27	43756.32
562.44	43313.95
562.60	43903.77
562.77	43931.86
562.93	43693.12
563.10	43957.60
563.26	43320.98
563.42	43981.01
563.59	43789.08
563.75	44020.80
563.92	43999.73
564.08	44013.77
564.24	43896.75
564.41	43981.01
564.57	44121.44
564.74	43665.03
564.90	43838.23
565.07	43690.78
565.23	43643.97
565.39	44086.33
565.56	44362.51
565.72	43917.81
565.88	43945.90
566.05	44224.42
566.21	43847.60
566.38	43629.93
566.54	43997.39
566.70	43908.45
566.87	44390.60
567.03	44102.71
567.19	44765.09
567.36	44137.82
567.52	44069.95
567.68	44210.38
567.85	43784.40
568.01	43934.20
568.17	43716.53
568.34	44114.42
568.50	44058.24
568.66	43943.56
568.83	44044.20
568.99	43636.95
569.15	44282.94
569.32	44170.59
569.48	43941.22
569.64	44563.80
569.81	44343.79
569.97	44402.30
570.13	44449.11
570.30	43966.96
570.46	44055.90
570.62	44210.38
570.78	44023.14
570.95	43643.97
571.11	44217.40
571.27	44250.17
571.43	44509.97
571.60	44236.12
571.76	44121.44
571.92	44161.23
572.09	44327.41
572.25	44360.17
572.41	44432.73
572.57	44837.64
572.74	45062.33
572.90	44964.03
573.06	44472.52
573.22	44313.36
573.38	44332.09
573.55	44170.59
573.71	44285.28
573.87	44020.80
574.03	44109.74
574.20	44322.72
574.36	44524.01
574.52	43990.37
574.68	44837.64
574.84	44746.36
575.01	44327.41
575.17	44353.15
575.33	43938.88
575.49	44844.66
575.65	44673.81
575.82	44683.17
575.98	44645.72
576.14	44676.15
576.30	44910.20
576.46	43959.94
576.62	44004.41
576.79	44502.95
576.95	44208.04
577.11	44507.63
577.27	44538.05
577.43	44217.40
577.59	44622.31
577.75	44528.69
577.92	44472.52
578.08	44025.48
578.24	44163.57
578.40	44397.62
578.56	44582.52
578.72	43973.98
578.88	44526.35
579.04	44545.08
579.21	44725.30
579.37	44217.40
579.53	44238.47
579.69	44383.58
579.85	44678.49
580.01	44390.60
580.17	45029.57
580.33	44896.16
580.49	44573.16
580.65	44591.89
580.82	44720.62
580.98	44507.63
581.14	44474.86
581.30	44619.97
581.46	44659.76
581.62	44397.62
581.78	44533.37
581.94	45036.59
582.10	44830.62
582.26	45074.04
582.42	44648.06
582.58	44788.49
582.74	44549.76
582.90	45095.10
583.06	44821.26
583.22	45006.16
583.38	44645.72
583.54	44781.47
583.70	44961.69
583.86	44456.14
584.02	44226.76
584.18	44594.23
584.34	44437.41
584.50	44645.72
584.66	44486.56
584.82	44294.64
584.98	45230.85
585.14	44453.79
585.30	44673.81
585.46	44835.30
585.62	44509.97
585.78	44423.37
585.94	44252.51
586.10	44903.18
586.26	44341.45
586.42	44760.40
586.58	45020.20
586.74	45214.47
586.90	44802.53
587.06	44442.09
587.22	44807.22
587.38	44395.28
587.54	44622.31
587.70	45247.24
587.86	44289.96
588.02	44718.28
588.18	44755.72
588.34	44144.84
588.49	44425.71
588.65	44388.26
588.81	44563.80
588.97	44589.55
589.13	44659.76
589.29	44739.34
589.45	44704.23
589.61	44769.77
589.77	44945.31
589.93	44474.86
590.08	44755.72
590.24	44479.54
590.40	44566.14
590.56	45272.98
590.72	45406.39
590.88	44762.75
591.04	44715.93
591.20	45132.55
591.35	45240.21
591.51	45598.32
591.67	45092.76
591.83	44570.82
591.99	44460.82
592.15	44268.89
592.31	45038.93
592.46	45104.46
592.62	45038.93
592.78	45242.56
592.94	45052.97
593.10	44940.63
593.26	44886.79
593.41	45443.84
593.57	44800.19
593.73	44783.81
593.89	44842.32
594.05	44910.20
594.20	45354.90
594.36	45118.51
594.52	44713.59
594.68	45233.19
594.84	44835.30
594.99	45312.77
595.15	44891.48
595.31	45146.59
595.47	45132.55
595.62	44552.10
595.78	44928.92
595.94	45422.78
596.10	45144.25
596.25	45015.52
596.41	45188.72
596.57	45399.37
596.73	45380.65
596.88	45111.49
597.04	45275.32
597.20	45132.55
597.36	45170.00
597.51	45329.16
597.67	44987.44
597.83	45230.85
597.99	45392.35
598.14	45022.54
598.30	45069.36
598.46	45006.16
598.61	44737.00
598.77	44701.89
598.93	44580.18
599.09	45160.64
599.24	45523.42
599.40	45827.69
599.56	45282.34
599.71	45137.23
599.87	45382.99
600.03	45081.06
600.18	45394.69
600.34	44954.67
600.50	45088.08
600.65	45127.87
600.81	45343.20
600.97	45413.41
601.12	45226.17
601.28	45361.92
601.44	45006.16
601.59	45368.94
601.75	45139.57
601.91	44982.76
602.06	45336.18
602.22	45504.70
602.37	44926.58
602.53	45532.78
602.69	44985.10
602.84	45158.30
603.00	45144.25
603.16	44945.31
603.31	44687.85
603.47	45392.35
603.62	45045.95
603.78	45055.31
603.94	44847.00
604.09	45324.47
604.25	45179.36
604.40	45125.53
604.56	44769.77
604.71	45064.67
604.87	44898.50
605.03	45074.04
605.18	45394.69
605.34	45387.67
605.49	44797.85
605.65	45392.35
605.80	44568.48
605.96	45106.80
606.12	45092.76
606.27	45036.59
606.43	45010.84
606.58	45071.70
606.74	44697.21
606.89	45102.12
607.05	45048.29
607.20	44339.11
607.36	44945.31
607.51	45132.55
607.67	45109.14
607.82	44603.59
607.98	45013.18
608.13	44952.33
608.29	44978.07
608.44	44971.05
608.60	44765.09
608.75	44729.98
608.91	44636.36
609.06	44402.30
609.22	45467.25
609.37	44774.45
609.53	44854.03
609.68	44715.93
609.84	44406.98
609.99	44673.81
610.15	44566.14
610.30	44168.25
610.46	44065.27
610.61	44989.78
610.76	44561.46
610.92	44608.27
611.07	44350.81
611.23	44432.73
611.38	45081.06
611.54	44051.22
611.69	44507.63
611.84	44500.61
612.00	44149.53
612.15	44414.01
612.31	44493.58
612.46	44404.64
612.62	44292.30
612.77	44411.67
612.92	44554.44
613.08	44280.60
613.23	44425.71
613.39	43835.89
613.54	44179.95
613.69	44491.24
613.85	44004.41
614.00	44566.14
614.15	44346.13
614.31	44343.79
614.46	44524.01
614.62	44161.23
614.77	44229.10
614.92	43976.33
615.08	43981.01
615.23	43957.60
615.38	43693.12
615.54	43831.21
615.69	43658.01
615.84	43402.89
616.00	43817.17
616.15	43543.33
616.30	43833.55
616.46	43381.83
616.61	43653.33
616.76	44039.52
616.92	43414.60
617.07	43566.73
617.22	43494.18
617.37	43459.07
617.53	44046.54
617.68	43817.17
617.83	43826.53
617.99	43948.24
618.14	43580.78
618.29	44013.77
618.45	43454.39
618.60	43419.28
618.75	43681.42
618.90	43517.58
619.06	43679.08
619.21	43356.08
619.36	43524.60
619.51	43412.26
619.67	43367.79
619.82	43650.99
619.97	43234.38
620.12	43168.84
620.28	43129.05
620.43	43091.60
620.58	42962.87
620.73	43171.18
620.89	43325.66
621.04	43290.55
621.19	42880.95
621.34	43250.76
621.49	42693.71
621.65	43208.63
621.80	43103.31
621.95	43082.24
622.10	42946.49
622.25	42623.50
622.41	42658.60
622.56	42494.77
622.71	42841.17
622.86	43119.69
623.01	42639.88
623.16	42937.13
623.32	42976.92
623.47	42930.11
623.62	42834.14
623.77	42700.73
623.92	42902.02
624.07	42693.71
624.23	42141.35
624.38	42611.79
624.53	42721.80
624.68	42663.28
624.83	42904.36
624.98	42916.06
625.13	42260.71
625.29	42515.83
625.44	42693.71
625.59	42653.92
625.74	42202.20
625.89	42085.17
626.04	41855.80
626.19	42637.54
626.34	42401.14
626.49	42225.60
626.65	41930.70
626.80	42263.05
626.95	41989.21
627.10	42050.06
627.25	42003.25
627.40	41598.34
627.55	41539.83
627.70	41528.13
627.85	41823.03
628.00	41879.21
628.15	42412.85
628.30	41713.03
628.45	41930.70
628.60	41535.15
628.76	42089.85
628.91	42024.32
629.06	42281.78
629.21	41387.69
629.36	41549.19
629.51	41125.55
629.66	41769.20
629.81	41280.03
629.96	41975.17
630.11	41408.76
630.26	42113.26
630.41	41895.59
630.56	41605.36
630.71	41666.22
630.86	41329.18
631.01	41368.97
631.16	41399.40
631.31	41123.21
631.46	40832.99
631.61	41249.60
631.76	41261.30
631.91	41015.55
632.06	41195.77
632.21	41301.09
632.36	41448.55
632.51	41612.38
632.66	41148.96
632.81	40889.16
632.96	41137.26
633.10	40816.60
633.25	40994.48
633.40	41130.23
633.55	41167.68
633.70	41474.29
633.85	40652.76
634.00	41001.50
634.15	40823.62
634.30	40381.26
634.45	40800.22
634.60	40584.89
634.75	40882.14
634.90	40842.35
635.05	40634.04
635.19	40835.33
635.34	41392.37
635.49	41085.76
635.64	40795.54
635.79	40486.59
635.94	40561.48
636.09	40753.41
636.24	40444.46
636.39	40236.15
636.53	40254.87
636.68	40039.54
636.83	40428.07
636.98	40308.71
637.13	40191.68
637.28	40292.32
637.43	40399.99
637.57	40428.07
637.72	40748.73
637.87	40425.73
638.02	40329.77
638.17	39974.01
638.32	40390.62
638.46	39901.45
638.61	40020.82
638.76	40165.93
638.91	40369.56
639.06	40116.78
639.20	40271.26
639.35	40493.61
639.50	40027.84
639.65	40404.67
639.80	40016.14
639.94	39866.34
640.09	40023.16
640.24	40023.16
640.39	39835.92
640.54	39580.80
640.68	39651.02
640.83	40179.98
640.98	39679.10
641.13	39665.06
641.27	39861.66
641.42	39552.71
641.57	39828.90
641.72	39742.30
641.86	39643.99
642.01	39274.19
642.16	39782.09
642.31	39548.03
642.45	39814.85
642.60	39164.18
642.75	39379.51
642.90	39281.21
643.04	39328.02
643.19	39370.15
643.34	39395.90
643.48	39847.62
643.63	39758.68
643.78	38939.49
643.93	38679.69
644.07	38670.33
644.22	39185.25
644.37	38918.43
644.51	39037.80
644.66	39203.97
644.81	39063.54
644.95	38976.94
645.10	39175.89
645.25	39295.25
645.39	39260.15
645.54	39164.18
645.69	39182.91
645.83	39140.78
645.98	39201.63
646.13	38958.22
646.27	38906.73
646.42	38651.61
646.57	38960.56
646.71	38756.93
646.86	38696.08
647.00	38700.76
647.15	38555.64
647.30	39105.67
647.44	38972.26
647.59	38897.36
647.74	38513.52
647.88	39012.05
648.03	38948.85
648.17	38462.02
648.32	38539.26
648.47	38513.52
648.61	38518.20
648.76	38829.49
648.90	38527.56
649.05	38597.77
649.20	38450.32
649.34	38263.08
649.49	38431.60
649.63	38373.08
649.78	38279.46
649.92	38455.00
650.07	38213.93
650.21	37701.35
650.36	38265.42
650.51	38213.93
650.65	38675.01
650.80	38323.93
650.94	38469.04
651.09	38103.92
651.23	37916.68
651.38	37769.22
651.52	37684.97
651.67	38227.97
651.81	38232.65
651.96	37926.04
652.10	37642.84
652.25	37617.09
652.39	38052.43
652.54	37706.03
652.68	38195.20
652.83	37694.33
652.97	38167.12
653.12	37748.16
653.26	37755.18
653.41	37469.64
653.55	37532.83
653.70	37626.45
653.84	37654.54
653.99	37523.47
654.13	37626.45
654.27	37537.51
654.42	37745.82
654.56	37851.14
654.71	37434.53
654.85	37017.91
655.00	37352.61
655.14	37244.94
655.29	37626.45
655.43	37268.35
655.57	37088.13
655.72	36727.69
655.86	36786.20
656.01	37247.29
656.15	37074.09
656.30	36882.16
656.44	36823.65
656.58	36547.47
656.73	36964.08
656.87	36732.37
657.01	36720.66
657.16	36811.95
657.30	36748.75
657.45	36645.77
657.59	36608.32
657.73	36830.67
657.88	36631.72
658.02	36737.05
658.16	36531.08
658.31	37261.33
658.45	36809.61
658.60	36320.43
658.74	36503.00
658.88	36657.47
659.03	36570.87
659.17	36329.80
659.31	36226.81
659.46	36369.58
659.60	36123.83
659.74	36222.13
659.89	36217.45
660.03	36350.86
660.17	36357.88
660.32	35857.01
660.46	36327.45
660.60	36402.35
660.74	36105.10
660.89	36133.19
661.03	35725.94
661.17	35971.69
661.32	35262.51
661.46	35702.53
661.60	35613.59
661.74	35943.61
661.89	36095.74
662.03	35796.15
662.17	35526.99
662.31	35632.32
662.46	35686.15
662.60	35651.04
662.74	35482.52
662.88	35243.79
663.03	35033.14
663.17	35562.10
663.31	34962.92
663.45	35131.44
663.60	34944.20
663.74	34543.97
663.88	34834.19
664.02	34817.81
664.17	34703.12
664.31	34616.52
664.45	35269.53
664.59	35119.74
664.73	35185.27
664.88	35103.35
665.02	34209.27
665.16	34696.10
665.30	34618.86
665.44	34377.79
665.59	34174.16
665.73	34366.09
665.87	34211.61
666.01	34293.53
666.15	34302.89
666.29	34181.18
666.44	34560.35
666.58	34321.62
666.72	33935.43
666.86	34401.19
667.00	34150.76
667.14	34047.77
667.28	33792.65
667.43	33614.77
667.57	33825.42
667.71	33802.02
667.85	33717.76
667.99	33359.66
668.13	33392.42
668.27	33406.47
668.41	33411.15
668.56	33472.00
668.70	33338.59
668.84	33261.35
668.98	33427.53
669.12	33249.65
669.26	33064.75
669.40	33029.64
669.54	32545.15
669.68	33216.88
669.82	32912.61
669.96	32666.86
670.10	32690.26
670.25	33083.47
670.39	33156.03
670.53	32606.00
670.67	32407.06
670.81	32477.27
670.95	32385.99
671.09	32954.74
671.23	32781.54
671.37	32531.11
671.51	32102.79
671.65	32491.32
671.79	32013.85
671.93	31887.46
672.07	32100.45
672.21	31880.44
672.35	31887.46
672.49	31957.67
672.63	31955.33
672.77	31718.94
672.91	31929.59
673.05	31498.93
673.19	31435.74
673.33	31721.28
673.47	31016.78
673.61	30918.48
673.75	30939.54
673.89	31030.82
674.03	30506.54
674.17	30993.37
674.31	30817.83
674.45	30965.29
674.59	30773.36
674.73	30888.05
674.87	30756.98
675.01	30700.81
675.15	31077.63
675.29	30595.48
675.43	30443.35
675.56	30628.25
675.70	30263.13
675.84	30265.47
675.98	29369.04
676.12	30422.28
676.26	29743.53
676.40	29685.01
676.54	29582.03
676.68	29902.68
676.82	29413.51
676.96	29764.59
677.10	29521.18
677.23	29371.38
677.37	29249.67
677.51	29469.69
677.65	29465.00
677.79	28641.14
677.93	29312.87
678.07	29214.57
678.21	28507.72
678.34	28664.54
678.48	28629.43
678.62	27983.44
678.76	28252.61
678.90	28631.77
679.04	28631.77
679.18	28517.09
679.31	28379.00
679.45	27569.17
679.59	27875.78
679.73	27634.71
679.87	28411.76
680.00	27620.66
680.14	27428.74
680.28	27550.45
680.42	27541.08
680.56	27702.58
680.70	27541.08
680.83	27105.74
680.97	27253.20
681.11	26937.23
681.25	26895.10
681.39	27019.14
681.52	26824.88
681.66	26675.09
681.80	26932.54
681.94	26649.34
682.07	26382.52
682.21	26382.52
682.35	26101.65
682.49	26682.11
682.62	26066.55
682.76	25954.20
682.90	25921.43
683.04	26249.11
683.17	25900.37
683.31	25942.50
683.45	25844.20
683.59	25546.95
683.72	25355.02
683.86	25326.94
684.00	25036.71
684.13	25766.96
684.27	25371.41
684.41	25163.10
684.55	24842.45
684.68	24762.87
684.82	24809.68
684.96	24725.42
685.09	24486.68
685.23	24711.38
685.37	24840.11
685.50	24266.67
685.64	24879.89
685.78	24191.78
685.91	24430.51
686.05	23873.46
686.19	23548.13
686.32	23892.19
686.46	24049.00
686.60	23550.47
686.73	23550.47
686.87	23044.91
687.01	23030.87
687.14	22799.16
687.28	23232.16
687.42	23101.09
687.55	22733.62
687.69	23091.73
687.82	22874.06
687.96	22906.82
688.10	22595.53
688.23	22656.39
688.37	22359.14
688.50	22136.79
688.64	22551.06
688.78	22260.84
688.91	22160.19
689.05	22256.15
689.18	21722.51
689.32	21289.51
689.46	21783.37
689.59	22235.09
689.73	21743.58
689.86	21645.27
690.00	21451.01
690.13	21490.80
690.27	21710.81
690.41	21750.60
690.54	21158.44
690.68	21123.33
690.81	21104.61
690.95	20690.34
691.08	21032.05
691.22	20959.50
691.35	21104.61
691.49	20903.32
691.62	20879.92
691.76	20837.79
691.89	20896.30
692.03	20538.20
692.16	20332.23
692.30	20079.46
692.43	20339.26
692.57	20018.60
692.70	19707.31
692.84	20144.99
692.97	19735.40
693.11	19639.44
693.24	19728.38
693.38	19342.19
693.51	19475.60
693.65	19389.00
693.78	19417.08
693.92	19414.74
694.05	19150.26
694.19	19082.39
694.32	19066.00
694.45	19103.45
694.59	18815.57
694.72	18995.79
694.86	19077.71
694.99	18537.04
695.13	18424.70
695.26	18356.82
695.39	18398.95
695.53	18527.68
695.66	18356.82
695.80	18499.59
695.93	18029.15
696.07	17909.78
696.20	17989.36
696.33	17830.20
696.47	17806.80
696.60	18146.17
696.73	17795.09
696.87	17846.58
697.00	17413.59
697.14	17390.18
697.27	17465.08
697.40	17439.33
697.54	17460.40
697.67	17343.37
697.80	17397.20
697.94	17261.45
698.07	16992.29
698.21	16856.54
698.34	16968.88
698.47	16753.55
698.61	16673.98
698.74	16830.79
698.87	16688.02
699.01	16372.05
699.14	16229.27
699.27	16264.38
699.40	16257.36
699.54	16051.39
699.67	15922.66
699.80	16109.91
699.94	16170.76
700.07	15889.90
700.20	15742.44
700.34	15899.26
700.47	15854.79
700.60	16166.08
700.73	15733.08
700.87	15683.93
701.00	15307.10
701.13	15295.40
701.26	15304.76
701.40	15133.90
701.53	15215.82
701.66	15159.65
701.79	14953.68
701.93	15075.39
702.06	15007.52
702.19	15124.54
702.32	14792.19
702.46	14766.44
702.59	14396.64
702.72	14731.33
702.85	14663.46
702.99	14569.83
703.12	14864.74
703.25	14513.66
703.38	14349.82
703.51	14258.54
703.65	14183.65
703.78	14263.22
703.91	14061.94
704.04	14202.37
704.17	14115.77
704.31	14010.45
704.44	13727.24
704.57	13593.83
704.70	13612.56
704.83	13617.24
704.96	13675.75
705.10	13664.05
705.23	13884.06
>>>>>End Processed Spectral Data<<<<<
