SpectraSuite Data File
++++++++++++++++++++++++++++++++++++
Date: Fri Oct 25 11:34:25 EDT 2013
User: price-jones
Dark Spectrum Present: No
Reference Spectrum Present: No
Number of Sampled Component Spectra: 1
Spectrometers: USB2+H05261
Integration Time (usec): 100000 (USB2+H05261)
Spectra Averaged: 1 (USB2+H05261)
Boxcar Smoothing: 0 (USB2+H05261)
Correct for Electrical Dark: No (USB2+H05261)
Strobe/Lamp Enabled: No (USB2+H05261)
Correct for Detector Non-linearity: No (USB2+H05261)
Correct for Stray Light: No (USB2+H05261)
Number of Pixels in Processed Spectrum: 2048
>>>>>Begin Processed Spectral Data<<<<<
365.73	337.04
365.92	337.04
366.12	337.04
366.32	163.84
366.52	170.86
366.72	234.05
366.91	205.97
367.11	187.24
367.31	170.86
367.51	231.71
367.70	201.29
367.90	168.52
368.10	142.77
368.30	173.20
368.49	156.82
368.69	201.29
368.89	208.31
369.09	210.65
369.28	231.71
369.48	257.46
369.68	173.20
369.87	280.86
370.07	290.23
370.27	262.14
370.47	330.02
370.66	470.45
370.86	500.87
371.06	514.92
371.25	660.03
371.45	528.96
371.65	472.79
371.84	531.30
372.04	571.09
372.24	641.31
372.44	540.66
372.63	575.77
372.83	550.03
373.03	547.69
373.22	596.84
373.42	505.56
373.62	681.10
373.81	674.07
374.01	667.05
374.21	671.73
374.40	578.11
374.60	629.60
374.79	517.26
374.99	662.37
375.19	596.84
375.38	613.22
375.58	627.26
375.78	692.80
375.97	655.35
376.17	690.46
376.37	622.58
376.56	674.07
376.76	681.10
376.95	660.03
377.15	702.16
377.35	650.67
377.54	711.52
377.74	725.57
377.93	664.71
378.13	718.54
378.33	613.22
378.52	786.42
378.72	697.48
378.91	748.97
379.11	763.01
379.31	711.52
379.50	664.71
379.70	725.57
379.89	795.78
380.09	746.63
380.28	720.88
380.48	774.72
380.68	767.70
380.87	657.69
381.07	755.99
381.26	777.06
381.46	727.91
381.65	770.04
381.85	744.29
382.04	674.07
382.24	692.80
382.43	725.57
382.63	763.01
382.83	786.42
383.02	816.85
383.22	788.76
383.41	779.40
383.61	800.46
383.80	830.89
384.00	755.99
384.19	856.64
384.39	786.42
384.58	788.76
384.78	854.30
384.97	826.21
385.17	835.57
385.36	791.10
385.56	798.12
385.75	800.46
385.95	802.80
386.14	854.30
386.34	835.57
386.53	851.96
386.72	802.80
386.92	891.74
387.11	835.57
387.31	877.70
387.50	844.93
387.70	898.77
387.89	933.87
388.09	912.81
388.28	851.96
388.48	849.61
388.67	851.96
388.86	919.83
389.06	938.55
389.25	866.00
389.45	917.49
389.64	891.74
389.84	903.45
390.03	917.49
390.22	950.26
390.42	943.24
390.61	945.58
390.81	966.64
391.00	997.07
391.19	999.41
391.39	947.92
391.58	973.66
391.78	985.37
391.97	999.41
392.16	1018.13
392.36	997.07
392.55	1025.15
392.75	1053.24
392.94	1100.05
393.13	1032.18
393.33	1039.20
393.52	1027.50
393.71	1125.80
393.91	1039.20
394.10	1050.90
394.29	1114.10
394.49	1088.35
394.68	1022.81
394.88	1078.99
395.07	1118.78
395.26	1130.48
395.46	1146.86
395.65	1146.86
395.84	1170.27
396.04	1151.54
396.23	1156.22
396.42	1123.46
396.62	1071.97
396.81	1179.63
397.00	1132.82
397.19	1198.35
397.39	1149.20
397.58	1203.04
397.77	1254.53
397.97	1275.59
398.16	1240.48
398.35	1233.46
398.55	1231.12
398.74	1324.74
398.93	1261.55
399.12	1245.16
399.32	1210.06
399.51	1221.76
399.70	1282.61
399.90	1320.06
400.09	1301.34
400.28	1343.47
400.47	1310.70
400.67	1334.11
400.86	1416.02
401.05	1451.13
401.24	1423.05
401.44	1394.96
401.63	1427.73
401.82	1455.81
402.01	1359.85
402.21	1448.79
402.40	1467.52
402.59	1376.24
402.78	1409.00
402.97	1427.73
403.17	1427.73
403.36	1401.98
403.55	1565.82
403.74	1511.99
403.93	1455.81
404.13	1514.33
404.32	1547.09
404.51	1652.42
404.70	1600.93
404.89	1685.19
405.09	1586.88
405.28	1631.35
405.47	1650.08
405.66	1661.78
405.85	1823.28
406.05	1713.27
406.24	1654.76
406.43	1570.50
406.62	1678.16
406.81	1767.10
407.00	1736.68
407.20	1734.34
407.39	1706.25
407.58	1717.95
407.77	1785.83
407.96	1832.64
408.15	1832.64
408.34	1729.66
408.54	1842.00
408.73	1900.52
408.92	1909.88
409.11	1884.13
409.30	1944.99
409.49	1949.67
409.68	2029.24
409.87	1944.99
410.07	1973.07
410.26	1907.54
410.45	2012.86
410.64	2017.54
410.83	2059.67
411.02	2005.84
411.21	1989.46
411.40	2143.93
411.59	2015.20
411.78	2064.35
411.98	2099.46
412.17	2249.25
412.36	2162.66
412.55	2260.96
412.74	2080.74
412.93	2326.49
413.12	2214.15
413.31	2359.26
413.50	2303.09
413.69	2354.58
413.88	2326.49
414.07	2532.46
414.26	2471.61
414.45	2471.61
414.64	2345.22
414.83	2590.97
415.02	2513.74
415.22	2544.16
415.41	2534.80
415.60	2619.06
415.79	2565.23
415.98	2600.34
416.17	2551.18
416.36	2647.15
416.55	2656.51
416.74	2792.26
416.93	2576.93
417.12	2771.19
417.31	2799.28
417.50	2794.60
417.69	2738.43
417.88	2895.24
418.07	2743.11
418.26	2813.32
418.45	2911.63
418.64	3028.65
418.83	3021.63
419.02	2981.84
419.21	3038.02
419.39	3026.31
419.58	2991.20
419.77	3012.27
419.96	3155.04
420.15	3091.85
420.34	2979.50
420.53	3054.40
420.72	3103.55
420.91	3171.43
421.10	3066.10
421.29	3166.74
421.48	3157.38
421.67	3164.40
421.86	3213.56
422.05	3141.00
422.24	3246.32
422.43	3150.36
422.61	3309.52
422.80	3206.53
422.99	3225.26
423.18	3101.21
423.37	3384.41
423.56	3353.99
423.75	3150.36
423.94	3251.00
424.13	3005.25
424.32	3162.06
424.50	3335.26
424.69	3520.17
424.88	3300.16
425.07	3236.96
425.26	3337.60
425.45	3260.37
425.64	3325.90
425.83	3164.40
426.01	3318.88
426.20	3389.10
426.39	3258.03
426.58	3260.37
426.77	3302.50
426.96	3400.80
427.15	3396.12
427.33	3520.17
427.52	3403.14
427.71	3585.70
427.90	3496.76
428.09	3517.83
428.28	3543.57
428.46	3508.46
428.65	3492.08
428.84	3698.05
429.03	3592.72
429.22	3545.91
429.40	3634.85
429.59	3693.37
429.78	3454.63
429.97	3510.80
430.16	3609.11
430.34	3595.06
430.53	3751.88
430.72	3772.94
430.91	3866.56
431.10	3686.34
431.28	3667.62
431.47	3885.29
431.66	3997.64
431.85	3908.69
432.03	3920.40
432.22	4051.47
432.41	3981.25
432.60	3866.56
432.79	3880.61
432.97	3990.61
433.16	3854.86
433.35	3796.35
433.54	4086.58
433.72	3925.08
433.91	4114.66
434.10	4175.52
434.28	4093.60
434.47	4093.60
434.66	3988.27
434.85	4025.72
435.03	4086.58
435.22	4224.67
435.41	4273.82
435.59	4264.46
435.78	4292.54
435.97	4351.06
436.16	4166.15
436.34	4119.34
436.53	4196.58
436.72	4421.27
436.90	4353.40
437.09	4465.74
437.28	4308.93
437.46	4358.08
437.65	4290.20
437.84	4510.21
438.02	4500.85
438.21	4442.34
438.40	4461.06
438.58	4477.44
438.77	4531.28
438.96	4596.81
439.14	4634.26
439.33	4622.56
439.52	4798.10
439.70	4706.82
439.89	4898.74
440.08	4755.97
440.26	4823.84
440.45	4905.76
440.63	4840.23
440.82	5078.96
441.01	4945.55
441.19	5167.90
441.38	5135.14
441.57	5111.73
441.75	5130.45
441.94	5249.82
442.12	5156.20
442.31	5219.39
442.50	5352.81
442.68	5301.31
442.87	5149.18
443.05	5240.46
443.24	5348.12
443.43	5490.90
443.61	5476.85
443.80	5493.24
443.98	5142.16
444.17	5144.50
444.35	5497.92
444.54	5584.52
444.73	5406.64
444.91	5462.81
445.10	5378.55
445.28	5481.53
445.47	5448.77
445.65	5603.24
445.84	5441.75
446.02	5486.22
446.21	5460.47
446.39	5561.11
446.58	5444.09
446.77	5551.75
446.95	5474.51
447.14	5425.36
447.32	5575.16
447.51	5448.77
447.69	5535.37
447.88	5507.28
448.06	5448.77
448.25	5568.13
448.43	5713.25
448.62	5577.50
448.80	5654.73
448.99	5813.89
449.17	5617.29
449.36	5469.83
449.54	5797.51
449.73	5762.40
449.91	5830.27
450.10	5839.64
450.28	5881.77
450.46	6005.81
450.65	6080.71
450.83	5834.96
451.02	5834.96
451.20	5816.23
451.39	5949.64
451.57	5942.62
451.76	5959.00
451.94	6120.50
452.13	6073.69
452.31	6017.52
452.49	6026.88
452.68	6052.63
452.86	6113.48
453.05	5959.00
453.23	6083.05
453.42	5928.58
453.60	5968.37
453.78	6118.16
453.97	5935.60
454.15	5970.71
454.34	6146.25
454.52	6380.30
454.70	6387.32
454.89	6265.61
455.07	6373.28
455.26	6445.84
455.44	6443.49
455.62	6471.58
455.81	6377.96
455.99	6518.39
456.17	6560.52
456.36	6471.58
456.54	6668.19
456.73	6684.57
456.91	6707.98
457.09	6597.97
457.28	6787.55
457.46	6572.22
457.64	6787.55
457.83	6771.17
458.01	6827.34
458.19	6930.33
458.38	6841.39
458.56	6960.75
458.74	6853.09
458.93	6920.96
459.11	6951.39
459.29	7014.59
459.48	7101.19
459.66	7014.59
459.84	6988.84
460.03	7052.03
460.21	6906.92
460.39	6909.26
460.57	7052.03
460.76	7314.17
460.94	7229.91
461.12	7087.14
461.31	7297.79
461.49	7302.47
461.67	7243.96
461.85	7232.26
462.04	7337.58
462.22	7777.60
462.40	7581.00
462.59	7300.13
462.77	7431.20
462.95	7644.19
463.13	7365.67
463.32	7431.20
463.50	7559.93
463.68	7840.79
463.86	7627.81
464.05	7569.29
464.23	7719.09
464.41	7836.11
464.59	7517.80
464.78	7679.30
464.96	7665.25
465.14	7566.95
465.32	7700.36
465.50	7735.47
465.69	8030.38
465.87	7733.13
466.05	7896.97
466.23	7838.45
466.41	7812.71
466.60	7929.74
466.78	7698.02
466.96	8002.29
467.14	7885.26
467.32	8053.78
467.51	7997.61
467.69	7829.09
467.87	8009.31
468.05	8032.72
468.23	7969.52
468.41	8095.91
468.60	7962.50
468.78	8168.47
468.96	8030.38
469.14	8138.04
469.32	8271.45
469.50	8191.88
469.69	8468.06
469.87	8397.84
470.05	8491.46
470.23	8404.86
470.41	8512.53
470.59	8554.66
470.77	8425.93
470.95	8517.21
471.14	8713.81
471.32	8327.63
471.50	8805.10
471.68	8762.97
471.86	8732.54
472.04	8674.03
472.22	8851.91
472.40	8737.22
472.58	8730.20
472.77	8990.00
472.95	9008.72
473.13	9165.54
473.31	9139.79
473.49	9207.67
473.67	9282.56
473.85	9055.53
474.03	9284.91
474.21	9486.19
474.39	9415.98
474.57	9628.96
474.75	9614.92
474.93	9533.00
475.12	9298.95
475.30	9748.33
475.48	9778.76
475.66	9823.23
475.84	9771.74
476.02	9708.54
476.20	10036.22
476.38	10036.22
476.56	10195.37
476.74	10076.01
476.92	10104.09
477.10	10031.54
477.28	10223.46
477.46	10202.40
477.64	10335.81
477.82	10277.29
478.00	10640.08
478.18	10520.71
478.36	10700.93
478.54	10682.20
478.72	10747.74
478.90	11037.97
479.08	10942.00
479.26	11274.36
479.44	11061.37
479.62	11323.51
479.80	11248.61
479.98	11662.89
480.16	11775.24
480.34	11836.09
480.52	11716.72
480.70	11833.75
480.88	11782.26
481.06	11871.20
481.24	11747.15
481.41	12004.61
481.59	12173.13
481.77	12381.43
481.95	12444.63
482.13	12521.87
482.31	12491.44
482.49	12788.69
482.67	12751.24
482.85	12807.41
483.03	12999.34
483.21	13036.78
483.39	13242.75
483.57	13308.29
483.74	13394.89
483.92	13350.42
484.10	13224.03
484.28	13589.15
484.46	13874.70
484.64	14134.50
484.82	13923.85
485.00	13879.38
485.18	14382.59
485.35	14731.33
485.53	14295.99
485.71	14525.36
485.89	14703.25
486.07	14817.93
486.25	14792.19
486.43	14813.25
486.61	15026.24
486.78	14991.13
486.96	15426.47
487.14	15297.74
487.32	15255.61
487.50	15681.59
487.68	16137.99
487.85	15878.19
488.03	16088.84
488.21	16189.49
488.39	15943.73
488.57	16358.00
488.75	16451.63
488.92	16498.44
489.10	16718.45
489.28	16793.34
489.46	17106.98
489.64	17069.53
489.81	17406.56
489.99	17511.89
490.17	17439.33
490.35	17968.29
490.53	17991.70
490.70	17722.54
490.88	17954.25
491.06	18090.00
491.24	18136.81
491.41	18424.70
491.59	18373.21
491.77	18635.35
491.95	18422.36
492.13	18733.65
492.30	18906.85
492.48	18930.25
492.66	19066.00
492.84	19260.27
493.01	19176.01
493.19	19161.97
493.37	19316.44
493.54	19564.54
493.72	19791.57
493.90	19793.91
494.08	19847.74
494.25	19962.43
494.43	19983.49
494.61	20243.29
494.79	20390.75
494.96	20416.49
495.14	20608.42
495.32	21001.63
495.49	21036.74
495.67	20947.79
495.85	21249.72
496.02	20922.05
496.20	21369.09
496.38	21500.16
496.55	21439.31
496.73	21912.10
496.91	21972.95
497.09	22005.72
497.26	21874.65
497.44	21661.66
497.62	22171.89
497.79	22178.92
497.97	22389.56
498.14	22817.88
498.32	22530.00
498.50	22698.52
498.67	22892.78
498.85	22925.55
499.03	23077.68
499.20	23239.18
499.38	23379.61
499.56	23452.17
499.73	23400.68
499.91	23459.19
500.08	23779.84
500.26	23215.77
500.44	23688.56
500.61	23791.55
500.79	23756.44
500.97	24032.62
501.14	24247.95
501.32	24491.37
501.49	24325.19
501.67	24063.05
501.84	24503.07
502.02	24636.48
502.20	24795.64
502.37	24512.43
502.55	24704.35
502.72	24638.82
502.90	25144.38
503.07	24725.42
503.25	25125.65
503.43	24940.75
503.60	25184.16
503.78	25291.83
503.95	25123.31
504.13	25034.37
504.30	25776.32
504.48	25748.23
504.65	25734.19
504.83	25816.11
505.01	25766.96
505.18	26094.63
505.36	26197.62
505.53	26040.80
505.71	25972.92
505.88	26263.15
506.06	26106.34
506.23	26293.58
506.41	26286.56
506.58	26403.58
506.76	26604.87
506.93	26932.54
507.11	26923.18
507.28	26834.24
507.46	27019.14
507.63	26862.33
507.81	27494.27
507.98	27346.82
508.16	27096.38
508.33	27213.41
508.50	27534.06
508.68	27608.96
508.85	27613.64
509.03	27562.15
509.20	27819.61
509.38	28294.74
509.55	28135.58
509.73	28278.35
509.90	28166.01
510.08	28219.84
510.25	28393.04
510.42	27981.10
510.60	28379.00
510.77	28601.35
510.95	28772.21
511.12	28762.84
511.30	28339.21
511.47	28886.89
511.64	28884.55
511.82	28774.55
511.99	28510.07
512.17	29083.50
512.34	29198.18
512.51	29434.58
512.69	29509.47
512.86	29689.70
513.04	29539.90
513.21	29488.41
513.38	29589.05
513.56	29851.19
513.73	29551.60
513.90	29806.72
514.08	29839.49
514.25	30331.00
514.43	30066.52
514.60	30094.61
514.77	30298.23
514.95	30335.68
515.12	30689.10
515.29	30654.00
515.47	30581.44
515.64	30712.51
515.81	30574.42
515.99	30682.08
516.16	31166.57
516.33	31026.14
516.51	31012.10
516.68	31192.32
516.85	30984.01
517.03	31461.48
517.20	31110.40
517.37	31590.21
517.54	31447.44
517.72	31583.19
517.89	31576.17
518.06	31576.17
518.24	31550.42
518.41	31527.02
518.58	31702.56
518.75	31632.34
518.93	31988.10
519.10	32250.24
519.27	32027.89
519.45	32041.93
519.62	32034.91
519.79	32180.03
519.96	32348.54
520.14	32334.50
520.31	32086.40
520.48	32472.59
520.65	32315.78
520.83	33242.63
521.00	32854.10
521.17	32521.74
521.34	33076.45
521.52	32882.19
521.69	33212.20
521.86	33284.76
522.03	33661.58
522.20	33181.77
522.38	33942.45
522.55	33511.79
522.72	33682.65
522.89	33467.32
523.07	33663.93
523.24	33432.21
523.41	33757.55
523.58	33509.45
523.75	34167.14
523.92	33818.40
524.10	34003.30
524.27	34204.59
524.44	34646.95
524.61	34291.19
524.78	34052.45
524.96	34136.71
525.13	34866.96
525.30	34476.09
525.47	34576.73
525.64	34771.00
525.81	34494.82
525.98	34581.42
526.16	34838.87
526.33	34852.92
526.50	35171.23
526.67	35182.93
526.84	35009.73
527.01	35482.52
527.18	35051.86
527.36	35330.39
527.53	35828.92
527.70	35683.81
527.87	35672.10
528.04	35377.20
528.21	35496.56
528.38	35777.43
528.55	35419.33
528.72	35683.81
528.89	35693.17
529.07	35873.39
529.24	35398.26
529.41	35922.54
529.58	35620.61
529.75	35721.26
529.92	36231.49
530.09	36112.13
530.26	35931.90
530.43	36086.38
530.60	36182.34
530.77	35871.05
530.94	36336.82
531.11	35751.68
531.28	36332.14
531.46	36205.75
531.63	36374.27
531.80	36535.76
531.97	36327.45
532.14	36931.31
532.31	36825.99
532.48	36790.88
532.65	36781.52
532.82	37001.53
532.99	36659.81
533.16	36500.65
533.33	37088.13
533.50	37350.27
533.67	36996.85
533.84	36563.85
534.01	36926.63
534.18	37181.75
534.35	37727.10
534.52	37589.00
534.69	38171.80
534.86	37537.51
535.03	37596.03
535.20	38017.32
535.37	37703.69
535.54	37696.67
535.71	37553.90
535.88	38555.64
536.05	37846.46
536.22	38286.48
536.38	38380.10
536.55	38050.09
536.72	37844.12
536.89	37961.15
537.06	38213.93
537.23	38066.47
537.40	38429.26
537.57	38312.23
537.74	37926.04
537.91	38335.63
538.08	38349.68
538.25	38438.62
538.42	38993.32
538.59	38656.29
538.75	38363.72
538.92	38604.80
539.09	38614.16
539.26	38731.18
539.43	38899.70
539.60	39016.73
539.77	38684.37
539.94	39129.08
540.11	39475.48
540.28	39206.31
540.44	38981.62
540.61	38909.07
540.78	38761.61
540.95	39065.88
541.12	39108.01
541.29	39108.01
541.46	39203.97
541.62	39283.55
541.79	39662.72
541.96	39473.13
542.13	39189.93
542.30	39695.49
542.47	39852.30
542.63	40112.10
542.80	39793.79
542.97	40222.11
543.14	40629.36
543.31	40219.77
543.48	40147.21
543.64	40924.27
543.81	40748.73
543.98	40182.32
544.15	40158.91
544.32	40465.52
544.48	40832.99
544.65	40325.09
544.82	40980.44
544.99	40264.24
545.16	40582.55
545.32	40507.65
545.49	41137.26
545.66	41083.42
545.83	40814.26
546.00	40402.33
546.16	41022.57
546.33	40458.50
546.50	40547.44
546.67	40727.66
546.83	40989.80
547.00	40924.27
547.17	41233.22
547.34	41029.59
547.50	41422.80
547.67	41422.80
547.84	41036.61
548.00	41432.16
548.17	41631.11
548.34	41420.46
548.51	41436.84
548.67	41455.57
548.84	41572.60
549.01	41163.00
549.18	41684.94
549.34	41689.62
549.51	41551.53
549.68	41642.81
549.84	42043.04
550.01	41750.48
550.18	41277.69
550.34	42284.12
550.51	41989.21
550.68	42073.47
550.84	41528.13
551.01	41944.74
551.18	41724.73
551.34	41977.51
551.51	42178.79
551.68	41467.27
551.84	41942.40
552.01	41853.46
552.18	42377.74
552.34	41986.87
552.51	42183.48
552.68	42108.58
552.84	42110.92
553.01	42256.03
553.18	42075.81
553.34	42572.00
553.51	42019.64
553.67	42328.59
553.84	42419.87
554.01	42726.48
554.17	42742.86
554.34	42590.73
554.51	42319.23
554.67	43007.34
554.84	42941.81
555.00	42644.56
555.17	42696.05
555.33	42967.55
555.50	42714.78
555.67	43084.58
555.83	43093.94
556.00	42836.48
556.16	43367.79
556.33	43236.72
556.50	42913.72
556.66	43042.45
556.83	42911.38
556.99	43580.78
557.16	43557.37
557.32	43028.41
557.49	43269.48
557.65	42738.18
557.82	43330.34
557.98	43040.11
558.15	43185.22
558.32	43185.22
558.48	43304.59
558.65	42930.11
558.81	43295.23
558.98	43494.18
559.14	43349.06
559.31	43091.60
559.47	43683.76
559.64	43873.34
559.80	43782.06
559.97	43597.16
560.13	43505.88
560.30	43154.80
560.46	43531.62
560.63	44053.56
560.79	44196.34
560.96	44030.16
561.12	43948.24
561.29	43739.93
561.45	43335.02
561.61	44217.40
561.78	44102.71
561.94	43966.96
562.11	43920.15
562.27	43620.56
562.44	43889.73
562.60	44182.29
562.77	43885.04
562.93	43590.14
563.10	44184.63
563.26	44208.04
563.42	44470.18
563.59	43978.67
563.75	43906.11
563.92	44004.41
564.08	44350.81
564.24	44524.01
564.41	44430.39
564.57	43971.64
564.74	44306.34
564.90	44210.38
565.07	44093.35
565.23	44128.46
565.39	44402.30
565.56	44425.71
565.72	44425.71
565.88	44184.63
566.05	43835.89
566.21	44322.72
566.38	44512.31
566.54	44313.36
566.70	44531.03
566.87	44421.03
567.03	44619.97
567.19	44582.52
567.36	44463.16
567.52	44671.46
567.68	44463.16
567.85	44980.42
568.01	44491.24
568.17	44603.59
568.34	44577.84
568.50	45022.54
568.66	44624.65
568.83	44334.43
568.99	44409.32
569.15	44484.22
569.32	44144.84
569.48	44685.51
569.64	45062.33
569.81	45104.46
569.97	44898.50
570.13	45230.85
570.30	44931.26
570.46	44708.91
570.62	45254.26
570.78	44659.76
570.95	44783.81
571.11	45160.64
571.27	44580.18
571.43	44734.66
571.60	44903.18
571.76	44662.10
571.92	44624.65
572.09	44949.99
572.25	44973.39
572.41	44804.88
572.57	44914.88
572.74	45268.30
572.90	44781.47
573.06	45003.82
573.22	44973.39
573.38	45544.48
573.55	44706.57
573.71	45090.42
573.87	44935.95
574.03	44704.23
574.20	45516.40
574.36	45429.80
574.52	45055.31
574.68	45057.65
574.84	45495.33
575.01	45626.40
575.17	45904.93
575.33	45443.84
575.49	45022.54
575.65	45326.81
575.82	45137.23
575.98	45188.72
576.14	45670.87
576.30	45478.95
576.46	45546.82
576.62	45523.42
576.79	45064.67
576.95	44837.64
577.11	44893.82
577.27	44626.99
577.43	45027.23
577.59	44907.86
577.75	45125.53
577.92	44573.16
578.08	45593.64
578.24	45272.98
578.40	45193.40
578.56	45333.84
578.72	44818.92
578.88	44809.56
579.04	45048.29
579.21	45017.86
579.37	45170.00
579.53	45303.41
579.69	44949.99
579.85	45256.60
580.01	45731.73
580.17	45720.02
580.33	45600.66
580.49	45558.53
580.65	45612.36
580.82	45343.20
580.98	44786.15
581.14	45375.97
581.30	45476.61
581.46	44957.01
581.62	45343.20
581.78	45361.92
581.94	45656.83
582.10	45043.61
582.26	45549.17
582.42	45312.77
582.58	45647.47
582.74	45518.74
582.90	45766.84
583.06	45804.28
583.22	45551.51
583.38	45521.08
583.54	45006.16
583.70	45490.65
583.86	45656.83
584.02	45443.84
584.18	45928.33
584.34	45633.42
584.50	45729.39
584.66	45619.38
584.82	45268.30
584.98	45694.28
585.14	45923.65
585.30	45343.20
585.46	45514.06
585.62	45343.20
585.78	45603.00
585.94	45352.56
586.10	45361.92
586.26	45378.31
586.42	45607.68
586.58	45745.77
586.74	45205.11
586.90	45167.66
587.06	45535.12
587.22	45811.31
587.38	45106.80
587.54	45464.91
587.70	46136.64
587.86	45701.30
588.02	45628.74
588.18	45525.76
588.34	45858.12
588.49	45787.90
588.65	45645.13
588.81	45930.67
588.97	45832.37
589.13	45605.34
589.29	45930.67
589.45	45827.69
589.61	45717.68
589.77	45811.31
589.93	45991.53
590.08	45844.07
590.24	46064.08
590.40	46539.21
590.56	46106.21
590.72	45879.18
590.88	45588.95
591.04	45549.17
591.20	45811.31
591.35	46064.08
591.51	46433.89
591.67	46225.58
591.83	45979.82
591.99	46066.42
592.15	46033.66
592.31	45703.64
592.46	45881.52
592.62	46115.58
592.78	46522.83
592.94	46368.35
593.10	46286.43
593.26	46504.10
593.41	46408.14
593.57	46178.77
593.73	46667.94
593.89	46803.69
594.05	46726.46
594.20	46347.29
594.36	46806.03
594.52	46440.91
594.68	46124.94
594.84	46148.34
594.99	46298.14
595.15	46461.97
595.31	46471.34
595.47	46663.26
595.62	46373.03
595.78	46080.47
595.94	46646.88
596.10	46344.95
596.25	46239.62
596.41	46909.02
596.57	46176.43
596.73	46277.07
596.88	46660.92
597.04	46010.25
597.20	46183.45
597.36	46464.32
597.51	46403.46
597.67	46321.54
597.83	46822.42
597.99	46220.90
598.14	46092.17
598.30	46457.29
598.46	46099.19
598.61	46438.57
598.77	46169.41
598.93	46438.57
599.09	46211.54
599.24	46806.03
599.40	46375.37
599.56	46630.49
599.71	46553.26
599.87	47194.56
600.03	46880.93
600.18	46541.55
600.34	46466.66
600.50	46380.06
600.65	46300.48
600.81	46670.28
600.97	46958.17
601.12	46862.21
601.28	46419.84
601.44	46553.26
601.59	46663.26
601.75	46309.84
601.91	46555.60
602.06	46419.84
602.22	46555.60
602.37	46319.20
602.53	46349.63
602.69	46281.75
602.84	46504.10
603.00	46436.23
603.16	46270.05
603.31	46689.01
603.47	46571.98
603.62	46625.81
603.78	46483.04
603.94	46651.56
604.09	46813.05
604.25	46120.26
604.40	46333.24
604.56	46064.08
604.71	46780.29
604.87	46478.36
605.03	46192.81
605.18	45883.86
605.34	46106.21
605.49	46335.59
605.65	46155.36
605.80	46085.15
605.96	46560.28
606.12	46319.20
606.27	46450.27
606.43	46326.22
606.58	46593.04
606.74	46298.14
606.89	46134.30
607.05	46630.49
607.20	46590.70
607.36	46251.33
607.51	46581.34
607.67	46134.30
607.82	45951.74
607.98	46246.65
608.13	46522.83
608.29	45977.48
608.44	46384.74
608.60	45972.80
608.75	46562.62
608.91	45867.48
609.06	45846.41
609.22	46288.77
609.37	46012.59
609.53	46333.24
609.68	46607.09
609.84	45815.99
609.99	46604.75
610.15	46520.49
610.30	46127.28
610.46	46370.69
610.61	46326.22
610.76	46218.56
610.92	45846.41
611.07	45862.80
611.23	46110.89
611.38	45916.63
611.54	46270.05
611.69	46316.86
611.84	46096.85
612.00	45523.42
612.15	45954.08
612.31	46003.23
612.46	45521.08
612.62	45722.37
612.77	45975.14
612.92	46036.00
613.08	46141.32
613.23	45921.31
613.39	45921.31
613.54	45691.94
613.69	45970.46
613.85	45652.15
614.00	45855.78
614.15	46066.42
614.31	45507.04
614.46	45776.20
614.62	45867.48
614.77	45703.64
614.92	45462.57
615.08	45902.59
615.23	45720.02
615.38	45577.25
615.54	45755.13
615.69	45811.31
615.84	45748.11
616.00	46167.07
616.15	45853.44
616.30	45907.27
616.46	45310.43
616.61	45467.25
616.76	45750.45
616.92	45471.93
617.07	45682.58
617.22	45614.70
617.37	45354.90
617.53	45361.92
617.68	45476.61
617.83	45439.16
617.99	45635.77
618.14	45514.06
618.29	45375.97
618.45	45247.24
618.60	45558.53
618.75	44765.09
618.90	45296.39
619.06	45099.78
619.21	45366.60
619.36	45357.24
619.51	45106.80
619.67	45034.25
619.82	45144.25
619.97	45584.27
620.12	44966.37
620.28	45228.51
620.43	45488.31
620.58	44535.71
620.73	45326.81
620.89	45368.94
621.04	45621.72
621.19	45151.27
621.34	44828.28
621.49	44816.58
621.65	45013.18
621.80	44851.69
621.95	44566.14
622.10	45050.63
622.25	44863.39
622.41	44652.74
622.56	45088.08
622.71	44893.82
622.86	45081.06
623.01	44926.58
623.16	44699.55
623.32	44968.71
623.47	44830.62
623.62	44212.72
623.77	44608.27
623.92	44673.81
624.07	44608.27
624.23	45242.56
624.38	44947.65
624.53	44299.32
624.68	44055.90
624.83	44821.26
624.98	44938.29
625.13	43943.56
625.29	44196.34
625.44	44341.45
625.59	44545.08
625.74	44289.96
625.89	44446.77
626.04	43941.22
626.19	44273.57
626.34	44591.89
626.49	43793.76
626.65	43569.07
626.80	44072.29
626.95	43604.18
627.10	43915.47
627.25	44055.90
627.40	44119.10
627.55	43924.83
627.70	43957.60
627.85	44362.51
628.00	44067.61
628.15	44224.42
628.30	43533.96
628.45	43838.23
628.60	43508.22
628.76	43861.64
628.91	44156.55
629.06	43019.05
629.21	43559.71
629.36	43639.29
629.51	44030.16
629.66	43957.60
629.81	43681.42
629.96	43629.93
630.11	43473.11
630.26	43339.70
630.41	43533.96
630.56	43323.32
630.71	43618.22
630.86	43447.36
631.01	43271.82
631.16	43480.13
631.31	43192.25
631.46	43522.26
631.61	43917.81
631.76	43765.68
631.91	43749.29
632.06	43997.39
632.21	43477.79
632.36	43814.83
632.51	42937.13
632.66	43330.34
632.81	43000.32
632.96	42930.11
633.10	42735.84
633.25	42689.03
633.40	42993.30
633.55	43395.87
633.70	43222.67
633.85	42946.49
634.00	42951.17
634.15	42677.33
634.30	42761.59
634.45	42415.19
634.60	43007.34
634.75	43065.86
634.90	43281.19
635.05	42829.46
635.19	43217.99
635.34	43054.15
635.49	42557.96
635.64	42937.13
635.79	42890.32
635.94	42965.21
636.09	42932.45
636.24	42752.23
636.39	42550.94
636.53	42777.97
636.68	42293.48
636.83	42373.06
636.98	42476.04
637.13	42064.11
637.28	42651.58
637.43	42382.42
637.57	42433.91
637.72	42265.39
637.87	42492.43
638.02	41972.83
638.17	41979.85
638.32	42054.75
638.46	41951.76
638.61	42251.35
638.76	41717.71
638.91	42190.50
639.06	42101.56
639.20	41666.22
639.35	42220.92
639.50	41649.83
639.65	41900.27
639.80	42054.75
639.94	42295.82
640.09	42096.88
640.24	42181.13
640.39	41581.96
640.54	42050.06
640.68	42092.19
640.83	41902.61
640.98	41619.41
641.13	41694.30
641.27	41975.17
641.42	42003.25
641.57	42043.04
641.72	41851.12
641.86	41694.30
642.01	41443.87
642.16	41104.49
642.31	41350.24
642.45	41682.60
642.60	41469.61
642.75	41516.42
642.90	41633.45
643.04	41497.70
643.19	41390.03
643.34	41392.37
643.48	41120.87
643.63	41155.98
643.78	41130.23
643.93	41567.91
644.07	41811.33
644.22	41844.10
644.37	41195.77
644.51	41614.72
644.66	41338.54
644.81	41111.51
644.95	41385.35
645.10	41151.30
645.25	40973.42
645.39	40730.00
645.54	40893.84
645.69	40542.76
645.83	40697.24
645.98	40587.23
646.13	40856.39
646.27	40552.12
646.42	40645.74
646.57	40868.09
646.71	41097.47
646.86	41200.45
647.00	40875.12
647.15	41163.00
647.30	41251.94
647.44	40612.98
647.59	40751.07
647.74	40891.50
647.88	41041.29
648.03	40669.15
648.17	40788.52
648.32	40818.94
648.47	41221.52
648.61	40376.58
648.76	40746.39
648.90	40662.13
649.05	40350.84
649.20	40378.92
649.34	40634.04
649.49	40315.73
649.63	40378.92
649.78	40765.11
649.92	41008.53
650.07	40687.87
650.21	40423.39
650.36	40664.47
650.51	40535.74
650.65	40694.89
650.80	40657.45
650.94	40715.96
651.09	40116.78
651.23	39999.76
651.38	40282.96
651.52	39894.43
651.67	40135.51
651.81	39824.22
651.96	40601.27
652.10	39751.66
652.25	39679.10
652.39	40114.44
652.54	40212.74
652.68	40126.14
652.83	39763.36
652.97	40205.72
653.12	40074.65
653.26	39702.51
653.41	39431.01
653.55	39849.96
653.70	39922.52
653.84	40011.46
653.99	39999.76
654.13	39723.57
654.27	39342.06
654.42	39784.43
654.56	39693.15
654.71	39908.47
654.85	39976.35
655.00	39864.00
655.14	40119.12
655.29	40107.42
655.43	39711.87
655.57	39461.43
655.72	39459.09
655.86	39470.79
656.01	39367.81
656.15	39075.24
656.30	39548.03
656.44	39173.55
656.58	39878.05
656.73	39597.18
656.87	39398.24
657.01	38925.45
657.16	39353.77
657.30	38880.98
657.45	39267.17
657.59	39192.27
657.73	38843.53
657.88	39210.99
658.02	38855.23
658.16	39386.54
658.31	38920.77
658.45	38948.85
658.60	38904.38
658.74	39126.74
658.88	38759.27
659.03	38712.46
659.17	38616.50
659.31	38487.77
659.46	38391.81
659.60	38962.90
659.74	38349.68
659.89	38075.84
660.03	38244.35
660.17	38426.92
660.32	38087.54
660.46	38396.49
660.60	38284.14
660.74	38206.90
660.89	38129.67
661.03	37794.97
661.17	37823.06
661.32	38171.80
661.46	38185.84
661.60	37713.05
661.74	37612.41
661.89	37642.84
662.03	38127.33
662.17	37516.45
662.31	37432.19
662.46	37904.98
662.60	37708.37
662.74	37184.09
662.88	37397.08
663.03	37586.66
663.17	37184.09
663.31	37046.00
663.45	37041.32
663.60	37652.20
663.74	37380.70
663.88	37167.71
664.02	37088.13
664.17	37172.39
664.31	36659.81
664.45	36734.71
664.59	36830.67
664.73	36833.01
664.88	37106.85
665.02	36636.41
665.16	36332.14
665.30	36517.04
665.44	36601.30
665.59	36458.52
665.73	36435.12
665.87	35667.42
666.01	36620.02
666.15	36425.76
666.29	36271.28
666.44	36381.29
666.58	36430.44
666.72	36048.93
666.86	35732.96
667.00	35976.37
667.14	35922.54
667.28	36215.11
667.43	35936.59
667.57	36154.26
667.71	35868.71
667.85	35971.69
667.99	35807.86
668.13	35346.77
668.27	35180.59
668.41	35227.40
668.56	35075.27
668.70	35318.68
668.84	35047.18
668.98	34820.15
669.12	34738.23
669.26	35491.88
669.40	34960.58
669.54	35332.73
669.68	35218.04
669.82	34618.86
669.96	34696.10
670.10	34164.80
670.25	34345.02
670.39	34183.52
670.53	34560.35
670.67	34506.52
670.81	34588.44
670.95	34569.71
671.09	34405.88
671.23	33874.57
671.37	34291.19
671.51	34017.35
671.65	34010.32
671.79	33867.55
671.93	34345.02
672.07	34223.31
672.21	33858.19
672.35	33670.95
672.49	33579.67
672.63	33521.15
672.77	33593.71
672.91	33787.97
673.05	33301.14
673.19	33242.63
673.33	33163.05
673.47	33268.37
673.61	32914.95
673.75	32823.67
673.89	32966.45
674.03	32662.18
674.17	32486.64
674.31	32297.05
674.45	32240.88
674.59	32542.81
674.73	32421.10
674.87	31976.40
675.01	31908.52
675.15	32208.11
675.29	31679.15
675.43	32322.80
675.56	32542.81
675.70	32196.41
675.84	31826.60
675.98	30829.54
676.12	31728.30
676.26	31761.07
676.40	31194.66
676.54	30843.58
676.68	31159.55
676.82	30841.24
676.96	31292.96
677.10	30962.95
677.23	31194.66
677.37	31058.91
677.51	30764.00
677.65	30661.02
677.79	30450.37
677.93	30857.62
678.07	30441.01
678.21	30092.27
678.34	30141.42
678.48	29652.25
678.62	30148.44
678.76	29778.64
678.90	29762.25
679.04	29937.79
679.18	30178.87
679.31	29748.21
679.45	29420.53
679.59	29670.97
679.73	29373.72
679.87	29249.67
680.00	28980.51
680.14	29078.82
680.28	29364.36
680.42	29116.26
680.56	28580.28
680.70	28950.09
680.83	28376.66
680.97	28638.80
681.11	28720.71
681.25	28182.39
681.39	28084.09
681.52	28545.17
681.66	27896.85
681.80	27601.94
681.94	27206.39
682.07	27407.67
682.21	27288.31
682.35	27843.01
682.49	27276.60
682.62	27213.41
682.76	27384.27
682.90	27417.04
683.04	27229.79
683.17	27166.60
683.31	27229.79
683.45	26412.95
683.59	26288.90
683.72	26228.04
683.86	26485.50
684.00	26316.98
684.13	26396.56
684.27	26139.10
684.41	25790.36
684.55	26146.12
684.68	25738.87
684.82	25652.27
684.96	25568.01
685.09	25811.43
685.23	25474.39
685.37	26057.18
685.50	25757.60
685.64	26024.42
685.78	25326.94
685.91	25125.65
686.05	24657.54
686.19	24519.45
686.32	24400.08
686.46	24400.08
686.60	24294.76
686.73	24545.20
686.87	24271.36
687.01	24704.35
687.14	24196.46
687.28	24046.66
687.42	24306.46
687.55	23903.89
687.69	24121.56
687.82	23674.52
687.96	23819.63
688.10	24102.84
688.23	23381.95
688.37	23634.73
688.50	23456.85
688.64	23220.45
688.78	23363.23
688.91	23250.88
689.05	22960.66
689.18	22782.77
689.32	22689.15
689.46	22448.08
689.59	22391.91
689.73	22705.54
689.86	23096.41
690.00	22361.48
690.13	22679.79
690.27	22139.13
690.41	22244.45
690.54	22277.22
690.68	22199.98
690.81	22003.38
690.95	22012.74
691.08	21638.25
691.22	21582.08
691.35	21514.20
691.49	21874.65
691.62	21401.86
691.76	20954.82
691.89	20978.22
692.03	20828.43
692.16	20945.45
692.30	21081.21
692.43	21333.98
692.57	20374.36
692.70	20627.14
692.84	20566.29
692.97	20257.34
693.11	20631.82
693.24	20154.35
693.38	20009.24
693.51	19817.32
693.65	19878.17
693.78	19737.74
693.92	19917.96
694.05	19992.86
694.19	19527.09
694.32	19468.58
694.45	19859.45
694.59	19688.59
694.72	19613.69
694.86	19377.30
694.99	19213.46
695.13	19014.51
695.26	18906.85
695.39	18867.06
695.53	18836.63
695.66	18834.29
695.80	18824.93
695.93	18747.69
696.07	18176.60
696.20	18335.76
696.33	18164.90
696.47	18174.26
696.60	18080.64
696.73	18120.43
696.87	18132.13
697.00	18200.01
697.14	17664.02
697.27	17336.35
697.40	17598.49
697.54	17987.02
697.67	17603.17
697.80	17593.81
697.94	17624.23
698.07	17392.52
698.21	17165.49
698.34	17296.56
698.47	16886.97
698.61	16622.48
698.74	16723.13
698.87	16713.77
699.01	16386.09
699.14	16753.55
699.27	16690.36
699.40	16678.66
699.54	16465.67
699.67	16535.88
699.80	16198.85
699.94	16215.23
700.07	16266.72
700.20	16198.85
700.34	15789.25
700.47	15880.53
700.60	16226.93
700.73	16049.05
700.87	15719.04
701.00	15426.47
701.13	15590.31
701.26	15171.35
701.40	15187.74
701.53	15084.75
701.66	15293.06
701.79	15023.90
701.93	15171.35
702.06	14885.81
702.19	14665.80
702.32	14920.92
702.46	14780.48
702.59	14892.83
702.72	14878.79
702.85	14911.55
702.99	14394.29
703.12	14583.88
703.25	14633.03
703.38	14349.82
703.51	14375.57
703.65	14253.86
703.78	13870.01
703.91	13713.20
704.04	14113.43
704.17	13598.51
704.31	13848.95
704.44	13579.79
704.57	13624.26
704.70	13635.96
704.83	13446.38
704.96	13600.85
705.10	13334.03
705.23	13186.58
>>>>>End Processed Spectral Data<<<<<
