SpectraSuite Data File
++++++++++++++++++++++++++++++++++++
Date: Fri Oct 25 10:44:37 EDT 2013
User: price-jones
Dark Spectrum Present: No
Reference Spectrum Present: No
Number of Sampled Component Spectra: 1
Spectrometers: USB2+H05261
Integration Time (usec): 100000 (USB2+H05261)
Spectra Averaged: 1 (USB2+H05261)
Boxcar Smoothing: 0 (USB2+H05261)
Correct for Electrical Dark: No (USB2+H05261)
Strobe/Lamp Enabled: No (USB2+H05261)
Correct for Detector Non-linearity: No (USB2+H05261)
Correct for Stray Light: No (USB2+H05261)
Number of Pixels in Processed Spectrum: 2048
>>>>>Begin Processed Spectral Data<<<<<
365.73	184.90
365.92	184.90
366.12	184.90
366.32	74.90
366.52	30.43
366.72	88.94
366.91	18.72
367.11	44.47
367.31	60.85
367.51	0.00
367.70	0.00
367.90	35.11
368.10	44.47
368.30	0.00
368.49	0.00
368.69	39.79
368.89	0.00
369.09	0.00
369.28	58.51
369.48	72.56
369.68	9.36
369.87	23.41
370.07	39.79
370.27	114.69
370.47	163.84
370.66	318.31
370.86	489.17
371.06	383.85
371.25	442.36
371.45	489.17
371.65	491.51
371.84	451.72
372.04	479.81
372.24	402.57
372.44	510.24
372.63	601.52
372.83	493.85
373.03	489.17
373.22	461.09
373.42	510.24
373.62	482.15
373.81	510.24
374.01	505.56
374.21	554.71
374.40	491.51
374.60	552.37
374.79	566.41
374.99	505.56
375.19	557.05
375.38	528.96
375.58	533.64
375.78	610.88
375.97	540.66
376.17	587.47
376.37	543.00
376.56	634.29
376.76	528.96
376.95	545.34
377.15	566.41
377.35	557.05
377.54	636.63
377.74	634.29
377.93	550.03
378.13	561.73
378.33	596.84
378.52	610.88
378.72	645.99
378.91	594.50
379.11	620.24
379.31	645.99
379.50	624.92
379.70	615.56
379.89	678.76
380.09	641.31
380.28	620.24
380.48	638.97
380.68	610.88
380.87	657.69
381.07	678.76
381.26	660.03
381.46	746.63
381.65	648.33
381.85	664.71
382.04	638.97
382.24	606.20
382.43	725.57
382.63	671.73
382.83	674.07
383.02	678.76
383.22	660.03
383.41	638.97
383.61	711.52
383.80	748.97
384.00	737.27
384.19	798.12
384.39	688.12
384.58	744.29
384.78	737.27
384.97	753.65
385.17	767.70
385.36	713.86
385.56	765.36
385.75	788.76
385.95	716.20
386.14	781.74
386.34	802.80
386.53	744.29
386.72	779.40
386.92	807.48
387.11	798.12
387.31	880.04
387.50	727.91
387.70	737.27
387.89	807.48
388.09	746.63
388.28	791.10
388.48	709.18
388.67	936.21
388.86	849.61
389.06	854.30
389.25	950.26
389.45	840.25
389.64	882.38
389.84	840.25
390.03	863.66
390.22	922.17
390.42	917.49
390.61	903.45
390.81	945.58
391.00	915.15
391.19	929.19
391.39	912.81
391.58	954.94
391.78	915.15
391.97	891.74
392.16	959.62
392.36	1090.69
392.55	931.53
392.75	952.60
392.94	961.96
393.13	980.68
393.33	919.83
393.52	994.73
393.71	1025.15
393.91	1006.43
394.10	947.92
394.29	1057.92
394.49	1102.39
394.68	1097.71
394.88	1109.41
395.07	1144.52
395.26	1055.58
395.46	1160.91
395.65	1041.54
395.84	1076.65
396.04	1172.61
396.23	1081.33
396.42	1135.16
396.62	1086.01
396.81	1123.46
397.00	1100.05
397.19	1144.52
397.39	1174.95
397.58	1294.32
397.77	1235.80
397.97	1193.67
398.16	1256.87
398.35	1383.26
398.55	1313.04
398.74	1254.53
398.93	1327.08
399.12	1275.59
399.32	1231.12
399.51	1366.87
399.70	1329.42
399.90	1413.68
400.09	1369.21
400.28	1383.26
400.47	1423.05
400.67	1472.20
400.86	1455.81
401.05	1533.05
401.24	1619.65
401.44	1467.52
401.63	1540.07
401.82	1549.43
402.01	1549.43
402.21	1500.28
402.40	1586.88
402.59	1572.84
402.78	1549.43
402.97	1575.18
403.17	1519.01
403.36	1575.18
403.55	1621.99
403.74	1717.95
403.93	1495.60
404.13	1614.97
404.32	1624.33
404.51	1715.61
404.70	1757.74
404.89	1727.32
405.09	1748.38
405.28	1755.40
405.47	1710.93
405.66	1741.36
405.85	1839.66
406.05	1834.98
406.24	1734.34
406.43	1846.68
406.62	1802.21
406.81	1816.26
407.00	1912.22
407.20	1921.58
407.39	1867.75
407.58	1902.86
407.77	1944.99
407.96	1949.67
408.15	2017.54
408.34	1975.41
408.54	1947.33
408.73	2022.22
408.92	2141.59
409.11	2073.71
409.30	2066.69
409.49	2106.48
409.68	2143.93
409.87	2125.21
410.07	2104.14
410.26	2207.13
410.45	2043.29
410.64	2214.15
410.83	2300.75
411.02	2221.17
411.21	2293.72
411.40	2326.49
411.59	2202.44
411.78	2401.39
411.98	2263.30
412.17	2326.49
412.36	2436.50
412.55	2389.69
412.74	2434.16
412.93	2380.32
413.12	2443.52
413.31	2548.84
413.50	2558.21
413.69	2579.27
413.88	2539.48
414.07	2560.55
414.26	2602.68
414.45	2715.02
414.64	2642.46
414.83	2726.72
415.02	2612.04
415.22	2740.77
415.41	2822.69
415.60	2754.81
415.79	2864.82
415.98	2895.24
416.17	2953.76
416.36	2843.75
416.55	2895.24
416.74	2928.01
416.93	2806.30
417.12	2876.52
417.31	3087.17
417.50	2881.20
417.69	3014.61
417.88	3112.91
418.07	3087.17
418.26	3045.04
418.45	3096.53
418.64	3206.53
418.83	3122.27
419.02	3157.38
419.21	3297.81
419.39	3164.40
419.58	3286.11
419.77	3185.47
419.96	3309.52
420.15	3185.47
420.34	3283.77
420.53	3272.07
420.72	3449.95
420.91	3407.82
421.10	3361.01
421.29	3417.18
421.48	3375.05
421.67	3302.50
421.86	3337.60
422.05	3386.76
422.24	3403.14
422.43	3431.23
422.61	3466.33
422.80	3531.87
422.99	3595.06
423.18	3527.19
423.37	3597.40
423.56	3508.46
423.75	3623.15
423.94	3583.36
424.13	3258.03
424.32	3471.01
424.50	3569.32
424.69	3723.79
424.88	3625.49
425.07	3515.48
425.26	3630.17
425.45	3489.74
425.64	3585.70
425.83	3508.46
426.01	3665.28
426.20	3606.77
426.39	3669.96
426.58	3524.85
426.77	3613.79
426.96	3758.90
427.15	3707.41
427.33	3822.09
427.52	3644.21
427.71	3723.79
427.90	3660.60
428.09	3782.31
428.28	3763.58
428.46	3824.44
428.65	3918.06
428.84	3716.77
429.03	3868.91
429.22	3707.41
429.40	3826.78
429.59	3754.22
429.78	3646.55
429.97	3684.00
430.16	3908.69
430.34	3838.48
430.53	3962.53
430.72	3873.59
430.91	3927.42
431.10	3817.41
431.28	4030.40
431.47	4170.83
431.66	4215.30
431.85	4056.15
432.03	4217.65
432.22	4262.12
432.41	4159.13
432.60	4121.68
432.79	4386.16
432.97	4276.16
433.16	4421.27
433.35	4203.60
433.54	4198.92
433.72	4119.34
433.91	4287.86
434.10	4259.78
434.28	4482.13
434.47	4550.00
434.66	4360.42
434.85	4428.29
435.03	4407.23
435.22	4451.70
435.41	4655.33
435.59	4552.34
435.78	4589.79
435.97	4552.34
436.16	4540.64
436.34	4531.28
436.53	4580.43
436.72	4727.88
436.90	4657.67
437.09	4575.75
437.28	4528.94
437.46	4695.11
437.65	4777.03
437.84	4671.71
438.02	4685.75
438.21	4671.71
438.40	4587.45
438.58	4877.68
438.77	4877.68
438.96	4770.01
439.14	5022.79
439.33	4938.53
439.52	5135.14
439.70	5125.77
439.89	4980.66
440.08	5128.11
440.26	5268.55
440.45	5310.68
440.63	5453.45
440.82	5565.79
441.01	5277.91
441.19	5380.89
441.38	5488.56
441.57	5460.47
441.75	5619.63
441.94	5647.71
442.12	5790.49
442.31	5771.76
442.50	5746.02
442.68	5685.16
442.87	5696.86
443.05	5593.88
443.24	5802.19
443.43	5785.80
443.61	5879.43
443.80	5872.40
443.98	5708.57
444.17	5533.03
444.35	5806.87
444.54	5851.34
444.73	5785.80
444.91	5973.05
445.10	5914.53
445.28	5884.11
445.47	5820.91
445.65	5701.54
445.84	5961.34
446.02	6120.50
446.21	5942.62
446.39	5877.09
446.58	6101.78
446.77	5937.94
446.95	5809.21
447.14	5830.27
447.32	6059.65
447.51	6071.35
447.69	6054.97
447.88	6052.63
448.06	5944.96
448.25	6069.01
448.43	6026.88
448.62	6069.01
448.80	6150.93
448.99	6094.76
449.17	6174.33
449.36	6286.68
449.54	6272.64
449.73	6480.94
449.91	6424.77
450.10	6321.79
450.28	6607.33
450.46	6525.41
450.65	6431.79
450.83	6406.05
451.02	6506.69
451.20	6581.59
451.39	6511.37
451.57	6399.02
451.76	6410.73
451.94	6431.79
452.13	6375.62
452.31	6389.66
452.49	6544.14
452.68	6525.41
452.86	6457.54
453.05	6499.67
453.23	6738.40
453.42	6558.18
453.60	6654.14
453.78	6885.86
453.97	6586.27
454.15	6670.53
454.34	6684.57
454.52	6778.19
454.70	6764.15
454.89	6820.32
455.07	6768.83
455.26	6930.33
455.44	7098.84
455.62	6986.50
455.81	6862.45
455.99	7260.34
456.17	7150.34
456.36	7218.21
456.54	7421.84
456.73	7253.32
456.91	7389.07
457.09	7365.67
457.28	7468.65
457.46	7267.36
457.64	7398.43
457.83	7300.13
458.01	7246.30
458.19	7637.17
458.38	7492.05
458.56	7456.95
458.74	7463.97
458.93	7492.05
459.11	7552.91
459.29	7358.64
459.48	7609.08
459.66	7578.65
459.84	7695.68
460.03	7660.57
460.21	7737.81
460.39	7747.17
460.57	7578.65
460.76	7915.69
460.94	7875.90
461.12	7723.77
461.31	7761.22
461.49	7840.79
461.67	7815.05
461.85	8063.15
462.04	8002.29
462.22	8194.22
462.40	8112.30
462.59	8042.08
462.77	8002.29
462.95	8044.42
463.13	7927.39
463.32	7981.23
463.50	8175.49
463.68	8081.87
463.86	8042.08
464.05	8067.83
464.23	8196.56
464.41	8311.24
464.59	7981.23
464.78	8126.34
464.96	8245.71
465.14	8205.92
465.32	8348.69
465.50	8360.39
465.69	8411.89
465.87	8243.37
466.05	8383.80
466.23	8355.71
466.41	8180.17
466.60	8545.30
466.78	8496.14
466.96	8353.37
467.14	8484.44
467.32	8552.32
467.51	8659.98
467.69	8435.29
467.87	8652.96
468.05	8681.05
468.23	8674.03
468.41	8634.24
468.60	8734.88
468.78	8929.14
468.96	8645.94
469.14	8903.40
469.32	9160.86
469.50	8667.00
469.69	9071.92
469.87	8854.25
470.05	9022.77
470.23	8924.46
470.41	8854.25
470.59	9167.88
470.77	8894.04
470.95	9046.17
471.14	9198.31
471.32	9015.74
471.50	9551.73
471.68	9200.65
471.86	9397.25
472.04	9451.08
472.22	9542.36
472.40	9256.82
472.58	9486.19
472.77	9568.11
472.95	9488.53
473.13	9928.55
473.31	9696.84
473.49	9624.28
473.67	9659.39
473.85	9853.66
474.03	9982.38
474.21	9755.35
474.39	10228.14
474.57	10008.13
474.75	10195.37
474.93	10026.86
475.12	10120.48
475.30	10340.49
475.48	10139.20
475.66	10438.79
475.84	10253.89
476.02	10307.72
476.20	10370.91
476.38	10604.97
476.56	10815.62
476.74	10829.66
476.92	10754.76
477.10	10649.44
477.28	10789.87
477.46	10913.92
477.64	11197.12
477.82	11246.27
478.00	11501.39
478.18	11508.41
478.36	11403.09
478.54	11470.97
478.72	11538.84
478.90	11819.71
479.08	11679.27
479.26	11782.26
479.44	12035.03
479.62	12269.09
479.80	12236.32
479.98	12142.70
480.16	12620.17
480.34	12292.49
480.52	12552.29
480.70	12762.94
480.88	12210.57
481.06	12709.11
481.24	12891.67
481.41	12830.82
481.59	13200.62
481.77	12924.44
481.95	12954.87
482.13	13172.54
482.31	13249.77
482.49	13575.11
482.67	13469.78
482.85	13958.96
483.03	13923.85
483.21	14045.55
483.39	14246.84
483.57	13905.12
483.74	14354.51
483.92	14604.94
484.10	14181.31
484.28	14415.36
484.46	14576.86
484.64	14897.51
484.82	14616.65
485.00	14878.79
485.18	14974.75
485.35	15225.18
485.53	14977.09
485.71	14902.19
485.89	15180.71
486.07	15150.29
486.25	15356.25
486.43	15695.63
486.61	15702.65
486.78	15964.79
486.96	15908.62
487.14	16035.01
487.32	16358.00
487.50	16692.70
487.68	16559.29
487.85	16987.61
488.03	16767.60
488.21	16950.16
488.39	17334.01
488.57	17270.81
488.75	17418.27
488.92	17427.63
489.10	17558.70
489.28	17788.07
489.46	18312.35
489.64	18108.72
489.81	18478.53
489.99	18635.35
490.17	18417.68
490.35	18693.86
490.53	18590.88
490.70	18871.74
490.88	18946.64
491.06	19367.93
491.24	19262.61
491.41	19381.98
491.59	19276.65
491.77	19213.46
491.95	19204.10
492.13	19616.03
492.30	19655.82
492.48	19990.52
492.66	20023.28
492.84	19852.42
493.01	20320.53
493.19	20144.99
493.37	20439.90
493.54	20388.41
493.72	21362.07
493.90	20828.43
494.08	21268.45
494.25	21364.41
494.43	21186.53
494.61	21120.99
494.79	21659.32
494.96	21521.23
495.14	21841.88
495.32	21949.54
495.49	22075.93
495.67	22160.19
495.85	22134.45
496.02	22445.74
496.20	22417.65
496.38	22429.35
496.55	22532.34
496.73	23129.17
496.91	22726.60
497.09	23161.94
497.26	23161.94
497.44	23044.91
497.62	23084.70
497.79	23594.94
497.97	23257.90
498.14	23665.16
498.32	23527.06
498.50	23777.50
498.67	24027.94
498.85	23803.25
499.03	24049.00
499.20	23934.32
499.38	24205.82
499.56	24264.33
499.73	24636.48
499.91	24800.32
500.08	24542.86
500.26	24912.66
500.44	24669.25
500.61	24924.36
500.79	24615.41
500.97	24687.97
501.14	25057.78
501.32	25097.56
501.49	25413.54
501.67	25287.15
501.84	25266.08
502.02	25476.73
502.20	25743.55
502.37	25855.90
502.55	25907.39
502.72	25867.60
502.90	26143.78
503.07	26087.61
503.25	25682.70
503.43	25968.24
503.60	26157.83
503.78	26094.63
503.95	26441.03
504.13	26398.90
504.30	26359.11
504.48	26380.18
504.65	26902.12
504.83	26902.12
505.01	26965.31
505.18	26808.50
505.36	27241.50
505.53	27225.11
505.71	27468.53
505.88	27384.27
506.06	27166.60
506.23	27538.74
506.41	27510.66
506.58	27473.21
506.76	27789.18
506.93	27999.83
507.11	27817.27
507.28	28048.98
507.46	27852.38
507.63	27964.72
507.81	28535.81
507.98	27978.76
508.16	28519.43
508.33	28173.03
508.50	28620.07
508.68	28638.80
508.85	29127.97
509.03	29186.48
509.20	28931.36
509.38	28957.11
509.55	28964.13
509.73	29177.12
509.90	29312.87
510.08	28879.87
510.25	29280.10
510.42	29226.27
510.60	29689.70
510.77	29511.81
510.95	29827.79
511.12	29846.51
511.30	29708.42
511.47	30230.36
511.64	30284.19
511.82	30036.09
511.99	30015.03
512.17	30323.98
512.34	29549.26
512.51	30401.22
512.69	30361.43
512.86	30738.26
513.04	30780.39
513.21	30726.55
513.38	30621.23
513.56	30705.49
513.73	30204.61
513.90	30429.30
514.08	30661.02
514.25	30796.77
514.43	30735.92
514.60	31028.48
514.77	31185.30
514.95	31501.27
515.12	31274.24
515.29	31459.14
515.47	31569.15
515.64	31892.14
515.81	31536.38
515.99	31288.28
516.16	31894.48
516.33	31828.95
516.51	32013.85
516.68	31292.96
516.85	31569.15
517.03	31447.44
517.20	31875.76
517.37	32013.85
517.54	32266.63
517.72	31955.33
517.89	32238.54
518.06	32334.50
518.24	32147.26
518.41	32105.13
518.58	32201.09
518.75	32210.45
518.93	32776.86
519.10	32442.17
519.27	32809.63
519.45	32889.21
519.62	32708.99
519.79	33120.92
519.96	33277.74
520.14	33486.04
520.31	33034.32
520.48	33113.90
520.65	33399.44
520.83	33256.67
521.00	33572.64
521.17	33558.60
521.34	33752.87
521.52	33942.45
521.69	33635.84
521.86	33949.47
522.03	34199.91
522.20	34190.55
522.38	34307.57
522.55	34415.24
522.72	34157.78
522.89	34103.95
523.07	34220.97
523.24	34361.40
523.41	34644.61
523.58	34302.89
523.75	35089.31
523.92	34705.46
524.10	34876.32
524.27	35005.05
524.44	34939.52
524.61	35255.49
524.78	34761.64
524.96	35421.67
525.13	35641.68
525.30	35541.03
525.47	35653.38
525.64	35377.20
525.81	35222.72
525.98	35487.20
526.16	35463.80
526.33	35143.14
526.50	35438.05
526.67	35325.71
526.84	35559.76
527.01	35093.99
527.18	35938.93
527.36	35929.56
527.53	35700.19
527.70	36477.25
527.87	36102.76
528.04	35838.28
528.21	36357.88
528.38	36053.61
528.55	36809.61
528.72	36400.01
528.89	36442.14
529.07	36435.12
529.24	36264.26
529.41	36608.32
529.58	36388.31
529.75	36493.63
529.92	36924.29
530.09	36718.32
530.26	36940.68
530.43	37017.91
530.60	36870.46
530.77	36900.89
530.94	37486.02
531.11	37062.38
531.28	36907.91
531.46	37060.04
531.63	37483.68
531.80	37251.97
531.97	37352.61
532.14	37387.72
532.31	37390.06
532.48	37289.42
532.65	37675.60
532.82	37027.28
532.99	37907.32
533.16	37221.54
533.33	38321.59
533.50	37804.33
533.67	37879.23
533.84	37832.42
534.01	37780.93
534.18	37797.31
534.35	38256.06
534.52	38040.73
534.69	38153.07
534.86	38127.33
535.03	37951.79
535.20	38167.12
535.37	38850.55
535.54	38256.06
535.71	38405.85
535.88	38597.77
536.05	38525.22
536.22	38263.08
536.38	38693.74
536.55	38550.96
536.72	38686.71
536.89	38136.69
537.06	38595.43
537.23	38675.01
537.40	38745.23
537.57	38927.79
537.74	38705.44
537.91	39126.74
538.08	38848.21
538.25	39030.77
538.42	38789.70
538.59	39316.32
538.75	39129.08
538.92	38899.70
539.09	39625.27
539.26	39262.49
539.43	39454.41
539.60	39756.34
539.77	39241.42
539.94	39229.72
540.11	39592.50
540.28	39157.16
540.44	39384.19
540.61	39372.49
540.78	39016.73
540.95	39660.38
541.12	39159.50
541.29	39477.82
541.46	39367.81
541.62	39686.12
541.79	39922.52
541.96	39777.40
542.13	39646.33
542.30	39606.55
542.47	39770.38
542.63	40252.53
542.80	39894.43
542.97	40416.37
543.14	40392.97
543.31	40692.55
543.48	40088.70
543.64	40711.28
543.81	40706.60
543.98	40456.16
544.15	40793.20
544.32	40257.21
544.48	40830.65
544.65	40617.66
544.82	40837.67
544.99	41050.66
545.16	40870.43
545.32	40786.18
545.49	41202.79
545.66	41060.02
545.83	41275.35
546.00	41029.59
546.16	40617.66
546.33	40781.49
546.50	40914.90
546.67	40942.99
546.83	40620.00
547.00	41649.83
547.17	40945.33
547.34	41153.64
547.50	41230.88
547.67	41680.26
547.84	41827.71
548.00	41532.81
548.17	41661.54
548.34	41949.42
548.51	41425.14
548.67	42143.69
548.84	41848.78
549.01	41799.63
549.18	41455.57
549.34	41895.59
549.51	42014.96
549.68	42127.30
549.84	41467.27
550.01	41904.95
550.18	41834.74
550.34	41965.81
550.51	42045.38
550.68	41928.36
550.84	41483.66
551.01	42359.02
551.18	42281.78
551.34	42000.91
551.51	42162.41
551.68	42033.68
551.84	42258.37
552.01	42139.00
552.18	42323.91
552.34	41727.07
552.51	42143.69
552.68	41799.63
552.84	42747.54
553.01	42864.57
553.18	42644.56
553.34	42541.58
553.51	42176.45
553.67	42169.43
553.84	42981.60
554.01	42361.36
554.17	42937.13
554.34	42923.08
554.51	42670.31
554.67	42436.25
554.84	42740.52
555.00	42873.93
555.17	42972.24
555.33	42878.61
555.50	42637.54
555.67	42651.58
555.83	42569.66
556.00	42419.87
556.16	43129.05
556.33	42719.46
556.50	42684.35
556.66	42843.51
556.83	42618.81
556.99	43290.55
557.16	43070.54
557.32	43543.33
557.49	43250.76
557.65	42939.47
557.82	43058.84
557.98	43154.80
558.15	43332.68
558.32	43260.12
558.48	42934.79
558.65	43339.70
558.81	42845.85
558.98	42962.87
559.14	43601.84
559.31	43477.79
559.47	43058.84
559.64	43735.25
559.80	43604.18
559.97	43419.28
560.13	43122.03
560.30	43702.48
560.46	43505.88
560.63	43351.40
560.79	43543.33
560.96	43803.13
561.12	43281.19
561.29	43768.02
561.45	43395.87
561.61	43241.40
561.78	43569.07
561.94	43374.81
562.11	43442.68
562.27	43702.48
562.44	43571.41
562.60	43344.38
562.77	43552.69
562.93	43526.94
563.10	43653.33
563.26	43515.24
563.42	44053.56
563.59	43409.92
563.75	43494.18
563.92	43831.21
564.08	44006.75
564.24	43917.81
564.41	43866.32
564.57	43503.54
564.74	43819.51
564.90	43803.13
565.07	43892.07
565.23	43718.87
565.39	43908.45
565.56	44081.65
565.72	43847.60
565.88	43943.56
566.05	43709.50
566.21	43880.36
566.38	43749.29
566.54	44013.77
566.70	43976.33
566.87	44521.67
567.03	43540.99
567.19	44725.30
567.36	43793.76
567.52	44086.33
567.68	43868.66
567.85	43889.73
568.01	44158.89
568.17	44210.38
568.34	44037.18
568.50	44201.02
568.66	43892.07
568.83	44219.74
568.99	43838.23
569.15	44105.06
569.32	43782.06
569.48	44069.95
569.64	44460.82
569.81	44245.49
569.97	43859.30
570.13	44112.08
570.30	43824.19
570.46	43543.33
570.62	43758.66
570.78	43962.28
570.95	44025.48
571.11	44460.82
571.27	43957.60
571.43	44126.12
571.60	44112.08
571.76	43798.44
571.92	43901.43
572.09	44580.18
572.25	43831.21
572.41	44385.92
572.57	44198.68
572.74	44524.01
572.90	44194.00
573.06	44364.85
573.22	44100.37
573.38	44292.30
573.55	44512.31
573.71	44697.21
573.87	44369.54
574.03	44112.08
574.20	44533.37
574.36	44121.44
574.52	44643.38
574.68	43943.56
574.84	44416.35
575.01	44238.47
575.17	44222.08
575.33	44385.92
575.49	44238.47
575.65	44245.49
575.82	44421.03
575.98	44311.02
576.14	44760.40
576.30	44573.16
576.46	44322.72
576.62	44179.95
576.79	44437.41
576.95	43938.88
577.11	44421.03
577.27	44254.85
577.43	44474.86
577.59	44100.37
577.75	44196.34
577.92	44156.55
578.08	44381.24
578.24	44280.60
578.40	44315.70
578.56	44318.04
578.72	44182.29
578.88	44751.04
579.04	44687.85
579.21	44666.78
579.37	44212.72
579.53	44488.90
579.69	44435.07
579.85	44727.64
580.01	44601.25
580.17	44493.58
580.33	44582.52
580.49	44596.57
580.65	44570.82
580.82	44278.25
580.98	44683.17
581.14	44453.79
581.30	44421.03
581.46	44472.52
581.62	44758.06
581.78	44519.33
581.94	44774.45
582.10	44315.70
582.26	44636.36
582.42	44402.30
582.58	44451.45
582.74	44165.91
582.90	44610.61
583.06	44343.79
583.22	44666.78
583.38	44659.76
583.54	44870.41
583.70	44524.01
583.86	44535.71
584.02	44250.17
584.18	44566.14
584.34	45059.99
584.50	43969.30
584.66	44495.92
584.82	44236.12
584.98	44980.42
585.14	45027.23
585.30	44697.21
585.46	44825.94
585.62	44392.94
585.78	44430.39
585.94	44133.14
586.10	44622.31
586.26	44737.00
586.42	44863.39
586.58	44612.95
586.74	44992.12
586.90	44233.78
587.06	44619.97
587.22	44505.29
587.38	44484.22
587.54	44395.28
587.70	44802.53
587.86	44563.80
588.02	45059.99
588.18	44662.10
588.34	45034.25
588.49	44533.37
588.65	43882.70
588.81	44100.37
588.97	44439.75
589.13	44231.44
589.29	44683.17
589.45	44421.03
589.61	44236.12
589.77	44809.56
589.93	44893.82
590.08	44423.37
590.24	44751.04
590.40	44802.53
590.56	45537.46
590.72	44935.95
590.88	44175.27
591.04	44519.33
591.20	45095.10
591.35	45067.02
591.51	45233.19
591.67	44720.62
591.83	44685.51
591.99	45052.97
592.15	44456.14
592.31	44868.07
592.46	44912.54
592.62	44648.06
592.78	44975.73
592.94	44938.29
593.10	44942.97
593.26	44851.69
593.41	44467.84
593.57	44383.58
593.73	44914.88
593.89	44907.86
594.05	44739.34
594.20	44837.64
594.36	44861.05
594.52	44634.02
594.68	45052.97
594.84	44949.99
594.99	44954.67
595.15	44769.77
595.31	45074.04
595.47	44900.84
595.62	45118.51
595.78	44839.98
595.94	44966.37
596.10	45249.58
596.25	45375.97
596.41	45251.92
596.57	45027.23
596.73	45181.70
596.88	44825.94
597.04	44964.03
597.20	44449.11
597.36	44978.07
597.51	45137.23
597.67	45343.20
597.83	44795.51
597.99	44921.90
598.14	44875.09
598.30	45078.72
598.46	44795.51
598.61	44926.58
598.77	44790.83
598.93	44924.24
599.09	44596.57
599.24	45523.42
599.40	45106.80
599.56	45031.91
599.71	45235.53
599.87	45216.81
600.03	45193.40
600.18	45329.16
600.34	45305.75
600.50	44935.95
600.65	44933.60
600.81	45193.40
600.97	45471.93
601.12	44912.54
601.28	44907.86
601.44	44793.17
601.59	44491.24
601.75	44280.60
601.91	44608.27
602.06	44748.70
602.22	44947.65
602.37	44938.29
602.53	44910.20
602.69	45354.90
602.84	44669.12
603.00	44872.75
603.16	44891.48
603.31	45118.51
603.47	44917.22
603.62	45125.53
603.78	44935.95
603.94	44875.09
604.09	45193.40
604.25	45310.43
604.40	44825.94
604.56	44816.58
604.71	44985.10
604.87	44847.00
605.03	44617.63
605.18	44741.68
605.34	44795.51
605.49	44634.02
605.65	44601.25
605.80	44837.64
605.96	44608.27
606.12	44713.59
606.27	45130.21
606.43	44952.33
606.58	44837.64
606.74	44456.14
606.89	44884.45
607.05	44879.77
607.20	45043.61
607.36	44430.39
607.51	45146.59
607.67	44847.00
607.82	44353.15
607.98	44744.02
608.13	44582.52
608.29	44596.57
608.44	43812.49
608.60	44292.30
608.75	44151.87
608.91	44521.67
609.06	44449.11
609.22	44301.66
609.37	44240.81
609.53	44397.62
609.68	44285.28
609.84	44371.88
609.99	44381.24
610.15	44376.56
610.30	44254.85
610.46	43636.95
610.61	44119.10
610.76	44528.69
610.92	44741.68
611.07	44573.16
611.23	44186.97
611.38	44392.94
611.54	44114.42
611.69	44065.27
611.84	44257.19
612.00	43938.88
612.15	43863.98
612.31	43997.39
612.46	43871.00
612.62	44203.36
612.77	44362.51
612.92	44729.98
613.08	44163.57
613.23	44041.86
613.39	44158.89
613.54	43597.16
613.69	44170.59
613.85	43798.44
614.00	43833.55
614.15	43849.94
614.31	44250.17
614.46	43831.21
614.62	44186.97
614.77	43917.81
614.92	43885.04
615.08	43861.64
615.23	44088.67
615.38	44011.43
615.54	43459.07
615.69	43693.12
615.84	43585.46
616.00	44009.09
616.15	43650.99
616.30	43650.99
616.46	43519.92
616.61	43248.42
616.76	43751.63
616.92	42621.16
617.07	43449.70
617.22	43288.21
617.37	43255.44
617.53	43573.75
617.68	43395.87
617.83	43526.94
617.99	43536.30
618.14	43519.92
618.29	43524.60
618.45	43358.42
618.60	43215.65
618.75	43442.68
618.90	43157.14
619.06	43590.14
619.21	43117.35
619.36	43372.47
619.51	43349.06
619.67	43353.74
619.82	43421.62
619.97	43199.27
620.12	43107.99
620.28	42618.81
620.43	43117.35
620.58	43330.34
620.73	42880.95
620.89	43005.00
621.04	43320.98
621.19	42997.98
621.34	42927.77
621.49	42787.33
621.65	42897.34
621.80	42852.87
621.95	42424.55
622.10	42508.81
622.25	42408.17
622.41	42389.44
622.56	42628.18
622.71	42445.62
622.86	42649.24
623.01	42660.94
623.16	42663.28
623.32	42841.17
623.47	42450.30
623.62	42419.87
623.77	42335.61
623.92	42534.56
624.07	42300.50
624.23	42340.29
624.38	42272.42
624.53	42623.50
624.68	42089.85
624.83	42146.03
624.98	42445.62
625.13	42241.99
625.29	42223.26
625.44	42036.02
625.59	41865.16
625.74	41794.95
625.89	41544.51
626.04	41956.44
626.19	42007.94
626.34	42436.25
626.49	42389.44
626.65	42267.73
626.80	42469.02
626.95	41968.15
627.10	41844.10
627.25	42003.25
627.40	41511.74
627.55	41464.93
627.70	41125.55
627.85	41474.29
628.00	40975.76
628.15	41872.18
628.30	41528.13
628.45	41656.85
628.60	41509.40
628.76	41764.52
628.91	41420.46
629.06	41633.45
629.21	41148.96
629.36	41240.24
629.51	41069.38
629.66	41179.39
629.81	41071.72
629.96	41095.13
630.11	41535.15
630.26	41406.42
630.41	41596.00
630.56	40905.54
630.71	41535.15
630.86	41256.62
631.01	40844.69
631.16	40947.67
631.31	41352.58
631.46	40828.30
631.61	40781.49
631.76	40961.72
631.91	41345.56
632.06	41593.66
632.21	41343.22
632.36	41315.14
632.51	41031.93
632.66	40959.38
632.81	40456.16
632.96	40711.28
633.10	40662.13
633.25	40912.56
633.40	40849.37
633.55	41038.95
633.70	40587.23
633.85	40886.82
634.00	40676.17
634.15	41153.64
634.30	40535.74
634.45	40708.94
634.60	40584.89
634.75	40500.63
634.90	40870.43
635.05	40194.02
635.19	40334.45
635.34	40629.36
635.49	40215.08
635.64	40374.24
635.79	40725.32
635.94	40203.38
636.09	40451.48
636.24	39796.13
636.39	40226.79
636.53	40442.12
636.68	40140.19
636.83	40098.06
636.98	40231.47
637.13	40046.57
637.28	40397.65
637.43	40318.07
637.57	40102.74
637.72	39737.62
637.87	39906.13
638.02	40013.80
638.17	39723.57
638.32	40062.95
638.46	39819.53
638.61	39786.77
638.76	39660.38
638.91	39812.51
639.06	39732.93
639.20	39995.07
639.35	39840.60
639.50	39452.07
639.65	40280.62
639.80	39807.83
639.94	39501.22
640.09	39508.24
640.24	39878.05
640.39	38986.30
640.54	39648.68
640.68	39470.79
640.83	39765.70
640.98	39971.67
641.13	39470.79
641.27	39402.92
641.42	39285.89
641.57	39316.32
641.72	39187.59
641.86	39009.71
642.01	39580.80
642.16	39210.99
642.31	38848.21
642.45	39157.16
642.60	38848.21
642.75	38806.08
642.90	38845.87
643.04	39126.74
643.19	39044.82
643.34	39491.86
643.48	38756.93
643.63	38916.09
643.78	38707.78
643.93	38967.58
644.07	38918.43
644.22	38927.79
644.37	38476.07
644.51	38742.89
644.66	39182.91
644.81	38939.49
644.95	38899.70
645.10	39353.77
645.25	39058.86
645.39	39166.52
645.54	38817.78
645.69	38696.08
645.83	38541.60
645.98	38782.68
646.13	38932.47
646.27	38614.16
646.42	39012.05
646.57	38440.96
646.71	39075.24
646.86	38939.49
647.00	38667.99
647.15	38913.75
647.30	38684.37
647.44	38543.94
647.59	38349.68
647.74	38202.22
647.88	38506.49
648.03	38518.20
648.17	38621.18
648.32	37750.50
648.47	38340.32
648.61	38073.49
648.76	38497.13
648.90	38279.46
649.05	38106.26
649.20	38110.94
649.34	38099.24
649.49	37516.45
649.63	37848.80
649.78	37738.80
649.92	37986.89
650.07	38525.22
650.21	37813.70
650.36	37879.23
650.51	37823.06
650.65	38419.89
650.80	38403.51
650.94	38160.09
651.09	37652.20
651.23	38302.87
651.38	37834.76
651.52	37586.66
651.67	37577.30
651.81	37584.32
651.96	37411.12
652.10	37422.83
652.25	37408.78
652.39	37486.02
652.54	37827.74
652.68	37329.20
652.83	38120.31
652.97	37881.57
653.12	37551.56
653.26	37371.33
653.41	37516.45
653.55	37357.29
653.70	37528.15
653.84	37137.28
653.99	37464.96
654.13	37301.12
654.27	37216.86
654.42	37200.47
654.56	37525.81
654.71	37280.05
654.85	37027.28
655.00	37483.68
655.14	37366.65
655.29	36985.15
655.43	36566.19
655.57	37027.28
655.72	37069.40
655.86	36676.19
656.01	36587.25
656.15	36730.03
656.30	36650.45
656.44	36222.13
656.58	36669.17
656.73	36669.17
656.87	36926.63
657.01	36545.12
657.16	36514.70
657.30	36793.22
657.45	36570.87
657.59	36484.27
657.73	36315.75
657.88	36884.50
658.02	36751.09
658.16	37095.15
658.31	36116.81
658.45	36694.92
658.60	36151.91
658.74	36580.23
658.88	36243.20
659.03	36388.31
659.17	36385.97
659.31	35306.98
659.46	35976.37
659.60	36329.80
659.74	36238.51
659.89	36158.94
660.03	36009.14
660.17	36140.21
660.32	35938.93
660.46	36519.38
660.60	35871.05
660.74	35873.39
660.89	36112.13
661.03	35424.01
661.17	35704.87
661.32	35119.74
661.46	35119.74
661.60	35358.47
661.74	35721.26
661.89	35543.38
662.03	35414.65
662.17	35412.31
662.31	34932.50
662.46	35992.76
662.60	35501.25
662.74	35236.77
662.88	35157.19
663.03	34616.52
663.17	35033.14
663.31	34866.96
663.45	34506.52
663.60	34824.83
663.74	34747.59
663.88	34813.13
664.02	34527.58
664.17	35021.44
664.31	34438.64
664.45	34618.86
664.59	34904.41
664.73	34649.29
664.88	34232.68
665.02	34057.14
665.16	34438.64
665.30	34567.37
665.44	34471.41
665.59	33961.17
665.73	33996.28
665.87	34132.03
666.01	34045.43
666.15	34354.38
666.29	34431.62
666.44	33968.19
666.58	33434.55
666.72	33951.81
666.86	34125.01
667.00	34003.30
667.14	33628.82
667.28	33905.00
667.43	33462.64
667.57	33715.42
667.71	33523.49
667.85	33273.06
667.99	33186.46
668.13	33366.68
668.27	33270.72
668.41	33387.74
668.56	33104.54
668.70	33418.17
668.84	33207.52
668.98	32842.40
669.12	32374.29
669.26	32891.55
669.40	32304.07
669.54	32980.49
669.68	32793.25
669.82	31976.40
669.96	32496.00
670.10	32627.07
670.25	32844.74
670.39	32493.66
670.53	32191.73
670.67	32149.60
670.81	32367.27
670.95	32074.70
671.09	32374.29
671.23	32151.94
671.37	32449.19
671.51	32409.40
671.65	32154.28
671.79	31594.89
671.93	31744.69
672.07	32203.43
672.21	31845.33
672.35	31800.86
672.49	31723.62
672.63	31835.97
672.77	31211.04
672.91	31583.19
673.05	31615.96
673.19	31044.87
673.33	31187.64
673.47	30824.86
673.61	30820.17
673.75	30799.11
673.89	31007.42
674.03	30817.83
674.17	30485.48
674.31	30904.43
674.45	30934.86
674.59	30602.50
674.73	31037.84
674.87	30562.72
675.01	30457.39
675.15	30602.50
675.29	30462.07
675.43	30113.33
675.56	30026.73
675.70	30218.66
675.84	29832.47
675.98	29102.22
676.12	29764.59
676.26	29780.98
676.40	29579.69
676.54	29778.64
676.68	29731.83
676.82	29104.56
676.96	29474.37
677.10	29450.96
677.23	29181.80
677.37	29144.35
677.51	28907.96
677.65	28982.85
677.79	28671.56
677.93	28699.65
678.07	28596.67
678.21	28116.86
678.34	28379.00
678.48	28566.24
678.62	28013.87
678.76	27892.16
678.90	27922.59
679.04	28020.89
679.18	27812.59
679.31	27814.93
679.45	27639.39
679.59	27058.93
679.73	27615.98
679.87	27737.69
680.00	27522.36
680.14	27096.38
680.28	27426.40
680.42	27145.53
680.56	27208.73
680.70	26874.03
680.83	27028.51
680.97	27243.84
681.11	27206.39
681.25	26284.22
681.39	26389.54
681.52	26862.33
681.66	26962.97
681.80	26300.60
681.94	26459.76
682.07	26539.33
682.21	26183.57
682.35	25710.78
682.49	26338.05
682.62	25919.09
682.76	25713.13
682.90	25701.42
683.04	25745.89
683.17	25682.70
683.31	25582.06
683.45	25619.50
683.59	25247.36
683.72	24989.90
683.86	25163.10
684.00	25256.72
684.13	25329.28
684.27	24907.98
684.41	24603.71
684.55	24383.70
684.68	24734.78
684.82	24875.21
684.96	24217.52
685.09	24594.35
685.23	24549.88
685.37	24285.40
685.50	24121.56
685.64	24379.02
685.78	23779.84
685.91	23901.55
686.05	23929.64
686.19	23477.91
686.32	23587.92
686.46	23248.54
686.60	23037.89
686.73	23367.91
686.87	23187.69
687.01	22742.99
687.14	22761.71
687.28	22810.86
687.42	23070.66
687.55	22944.27
687.69	22827.24
687.82	22794.48
687.96	22878.74
688.10	22593.19
688.23	22434.03
688.37	22410.63
688.50	22359.14
688.64	22202.32
688.78	21982.31
688.91	22235.09
689.05	21944.86
689.18	22017.42
689.32	21589.10
689.46	21788.05
689.59	21970.61
689.73	22185.94
689.86	21422.92
690.00	21542.29
690.13	21355.05
690.27	21165.46
690.41	21266.11
690.54	21261.43
690.68	20980.56
690.81	20709.06
690.95	20760.55
691.08	20840.13
691.22	20954.82
691.35	20851.83
691.49	20992.26
691.62	20643.52
691.76	20688.00
691.89	20088.82
692.03	19946.05
692.16	20334.57
692.30	19976.47
692.43	20086.48
692.57	19772.85
692.70	19999.88
692.84	19861.79
692.97	19585.60
693.11	19597.31
693.24	19438.15
693.38	19517.73
693.51	19548.15
693.65	19410.06
693.78	19552.84
693.92	19711.99
694.05	19035.58
694.19	18937.27
694.32	19012.17
694.45	18581.51
694.59	18759.39
694.72	18735.99
694.86	18527.68
694.99	18672.79
695.13	18490.23
695.26	18265.54
695.39	18298.31
695.53	18284.26
695.66	18270.22
695.80	18352.14
695.93	18157.88
696.07	17942.55
696.20	18134.47
696.33	17816.16
696.47	17823.18
696.60	17767.01
696.73	17811.48
696.87	17635.94
697.00	17476.78
697.14	17500.19
697.27	17373.80
697.40	17696.79
697.54	17261.45
697.67	17039.10
697.80	17275.49
697.94	17088.25
698.07	16957.18
698.21	16678.66
698.34	16741.85
698.47	16585.04
698.61	16430.56
698.74	16435.24
698.87	16269.06
699.01	16262.04
699.14	15929.69
699.27	16070.12
699.40	15946.07
699.54	15798.62
699.67	15917.98
699.80	15700.31
699.94	15824.36
700.07	15726.06
700.20	15714.36
700.34	15573.92
700.47	15580.95
700.60	15761.17
700.73	15747.12
700.87	15585.63
701.00	15379.66
701.13	15377.32
701.26	15349.23
701.40	15150.29
701.53	15049.64
701.66	15103.48
701.79	14843.68
701.93	15129.22
702.06	14848.36
702.19	14546.43
702.32	14787.50
702.46	14700.90
702.59	14602.60
702.72	14525.36
702.85	14424.72
702.99	14354.51
703.12	14745.38
703.25	14328.76
703.38	14075.98
703.51	14101.73
703.65	13994.06
703.78	13891.08
703.91	13884.06
704.04	13785.76
704.17	13783.41
704.31	13769.37
704.44	13654.69
704.57	13605.53
704.70	13825.54
704.83	13699.16
704.96	13596.17
705.10	13544.68
705.23	13490.85
>>>>>End Processed Spectral Data<<<<<
