SpectraSuite Data File
++++++++++++++++++++++++++++++++++++
Date: Fri Oct 25 10:47:00 EDT 2013
User: price-jones
Dark Spectrum Present: No
Reference Spectrum Present: No
Number of Sampled Component Spectra: 1
Spectrometers: USB2+H05261
Integration Time (usec): 100000 (USB2+H05261)
Spectra Averaged: 1 (USB2+H05261)
Boxcar Smoothing: 0 (USB2+H05261)
Correct for Electrical Dark: No (USB2+H05261)
Strobe/Lamp Enabled: No (USB2+H05261)
Correct for Detector Non-linearity: No (USB2+H05261)
Correct for Stray Light: No (USB2+H05261)
Number of Pixels in Processed Spectrum: 2048
>>>>>Begin Processed Spectral Data<<<<<
365.73	74.90
365.92	74.90
366.12	74.90
366.32	70.22
366.52	0.00
366.72	152.13
366.91	0.00
367.11	0.00
367.31	0.00
367.51	0.00
367.70	0.00
367.90	58.51
368.10	0.00
368.30	25.75
368.49	56.17
368.69	114.69
368.89	56.17
369.09	79.58
369.28	86.60
369.48	60.85
369.68	168.52
369.87	180.22
370.07	140.43
370.27	91.28
370.47	201.29
370.66	409.59
370.86	409.59
371.06	430.66
371.25	491.51
371.45	484.49
371.65	479.81
371.84	505.56
372.04	517.26
372.24	535.98
372.44	435.34
372.63	503.22
372.83	531.30
373.03	491.51
373.22	503.22
373.42	477.47
373.62	603.86
373.81	589.82
374.01	575.77
374.21	578.11
374.40	596.84
374.60	624.92
374.79	620.24
374.99	498.53
375.19	573.43
375.38	617.90
375.58	512.58
375.78	622.58
375.97	613.22
376.17	631.94
376.37	617.90
376.56	648.33
376.76	503.22
376.95	533.64
377.15	547.69
377.35	582.79
377.54	613.22
377.74	540.66
377.93	650.67
378.13	631.94
378.33	613.22
378.52	685.78
378.72	669.39
378.91	617.90
379.11	664.71
379.31	662.37
379.50	624.92
379.70	732.59
379.89	683.44
380.09	629.60
380.28	697.48
380.48	631.94
380.68	725.57
380.87	767.70
381.07	678.76
381.26	674.07
381.46	662.37
381.65	748.97
381.85	699.82
382.04	671.73
382.24	755.99
382.43	671.73
382.63	650.67
382.83	671.73
383.02	770.04
383.22	734.93
383.41	805.14
383.61	692.80
383.80	758.33
384.00	718.54
384.19	786.42
384.39	795.78
384.58	755.99
384.78	793.44
384.97	744.29
385.17	720.88
385.36	777.06
385.56	739.61
385.75	755.99
385.95	814.51
386.14	847.27
386.34	896.43
386.53	798.12
386.72	842.59
386.92	875.36
387.11	950.26
387.31	915.15
387.50	847.27
387.70	940.90
387.89	826.21
388.09	791.10
388.28	943.24
388.48	784.08
388.67	929.19
388.86	777.06
389.06	912.81
389.25	954.94
389.45	851.96
389.64	922.17
389.84	1004.09
390.03	901.11
390.22	922.17
390.42	1027.50
390.61	950.26
390.81	931.53
391.00	971.32
391.19	1123.46
391.39	1025.15
391.58	1032.18
391.78	1008.77
391.97	994.73
392.16	1025.15
392.36	990.05
392.55	1053.24
392.75	1043.88
392.94	1039.20
393.13	983.02
393.33	1062.60
393.52	938.55
393.71	1078.99
393.91	1043.88
394.10	1069.62
394.29	1165.59
394.49	1139.84
394.68	1139.84
394.88	1144.52
395.07	1158.57
395.26	1149.20
395.46	1207.72
395.65	1135.16
395.84	1165.59
396.04	1130.48
396.23	1144.52
396.42	1151.54
396.62	1135.16
396.81	1163.25
397.00	1130.48
397.19	1186.65
397.39	1256.87
397.58	1273.25
397.77	1322.40
397.97	1392.62
398.16	1387.94
398.35	1364.53
398.55	1418.36
398.74	1437.09
398.93	1444.11
399.12	1378.58
399.32	1418.36
399.51	1397.30
399.70	1474.54
399.90	1500.28
400.09	1521.35
400.28	1500.28
400.47	1507.30
400.67	1584.54
400.86	1493.26
401.05	1586.88
401.24	1694.55
401.44	1507.30
401.63	1537.73
401.82	1570.50
402.01	1643.06
402.21	1507.30
402.40	1701.57
402.59	1621.99
402.78	1558.80
402.97	1598.59
403.17	1600.93
403.36	1645.40
403.55	1746.04
403.74	1760.08
403.93	1661.78
404.13	1717.95
404.32	1799.87
404.51	1827.96
404.70	1839.66
404.89	1750.72
405.09	1900.52
405.28	1764.76
405.47	1753.06
405.66	1860.73
405.85	1832.64
406.05	1973.07
406.24	1834.98
406.43	1991.80
406.62	1930.94
406.81	1928.60
407.00	1949.67
407.20	1886.47
407.39	1935.62
407.58	1933.28
407.77	2052.65
407.96	2073.71
408.15	2038.61
408.34	2015.20
408.54	2120.53
408.73	2139.25
408.92	2155.63
409.11	2106.48
409.30	2165.00
409.49	2064.35
409.68	2111.16
409.87	2120.53
410.07	2172.02
410.26	2225.85
410.45	2146.27
410.64	2321.81
410.83	2256.28
411.02	2284.36
411.21	2420.11
411.40	2399.05
411.59	2427.14
411.78	2448.20
411.98	2450.54
412.17	2471.61
412.36	2464.58
412.55	2480.97
412.74	2558.21
412.93	2455.22
413.12	2485.65
413.31	2607.36
413.50	2588.63
413.69	2689.28
413.88	2658.85
414.07	2665.87
414.26	2626.08
414.45	2736.09
414.64	2836.73
414.83	2782.90
415.02	2806.30
415.22	2806.30
415.41	2939.71
415.60	2918.65
415.79	2951.42
415.98	3026.31
416.17	2967.80
416.36	2946.73
416.55	2974.82
416.74	3152.70
416.93	3136.32
417.12	3026.31
417.31	3098.87
417.50	3239.30
417.69	3248.66
417.88	3150.36
418.07	3215.90
418.26	3208.87
418.45	3307.18
418.64	3283.77
418.83	3300.16
419.02	3211.22
419.21	3267.39
419.39	3419.52
419.58	3335.26
419.77	3398.46
419.96	3456.97
420.15	3487.40
420.34	3482.72
420.53	3534.21
420.72	3499.10
420.91	3583.36
421.10	3543.57
421.29	3566.98
421.48	3538.89
421.67	3667.62
421.86	3534.21
422.05	3583.36
422.24	3583.36
422.43	3548.25
422.61	3562.30
422.80	3674.64
422.99	3632.51
423.18	3679.32
423.37	3826.78
423.56	3676.98
423.75	3789.33
423.94	3496.76
424.13	3445.27
424.32	3536.55
424.50	3700.39
424.69	3770.60
424.88	3698.05
425.07	3693.37
425.26	3644.21
425.45	3669.96
425.64	3728.47
425.83	3627.83
426.01	3747.20
426.20	3817.41
426.39	3669.96
426.58	3810.39
426.77	3707.41
426.96	3653.58
427.15	3749.54
427.33	3836.14
427.52	3789.33
427.71	3805.71
427.90	3946.14
428.09	3974.23
428.28	3953.16
428.46	3819.75
428.65	3868.91
428.84	4109.98
429.03	3943.80
429.22	3976.57
429.40	4077.21
429.59	3969.55
429.78	3892.31
429.97	3777.62
430.16	3847.84
430.34	4039.76
430.53	3927.42
430.72	3934.44
430.91	4021.04
431.10	4091.26
431.28	4248.07
431.47	4329.99
431.66	4535.96
431.85	4215.30
432.03	4271.48
432.22	4475.10
432.41	4280.84
432.60	4341.69
432.79	4341.69
432.97	4379.14
433.16	4369.78
433.35	4482.13
433.54	4503.19
433.72	4414.25
433.91	4367.44
434.10	4521.92
434.28	4365.10
434.47	4552.34
434.66	4685.75
434.85	4643.62
435.03	4699.80
435.22	4683.41
435.41	4926.83
435.59	4844.91
435.78	4788.74
435.97	4847.25
436.16	4821.50
436.34	4887.04
436.53	4994.70
436.72	4772.35
436.90	4788.74
437.09	4943.21
437.28	4786.40
437.46	4711.50
437.65	4767.67
437.84	4830.87
438.02	4847.25
438.21	5022.79
438.40	4940.87
438.58	5104.71
438.77	5118.75
438.96	4992.36
439.14	5219.39
439.33	5343.44
439.52	5364.51
439.70	5245.14
439.89	5177.26
440.08	5111.73
440.26	5294.29
440.45	5334.08
440.63	5416.00
440.82	5678.14
441.01	5565.79
441.19	5764.74
441.38	5724.95
441.57	5750.70
441.75	5774.10
441.94	5795.17
442.12	5839.64
442.31	5891.13
442.50	5940.28
442.68	6015.18
442.87	5935.60
443.05	5973.05
443.24	6005.81
443.43	5884.11
443.61	5991.77
443.80	6366.26
443.98	5977.73
444.17	5830.27
444.35	6136.88
444.54	6223.48
444.73	6139.23
444.91	5944.96
445.10	6186.04
445.28	6150.93
445.47	6005.81
445.65	5994.11
445.84	6078.37
446.02	6066.67
446.21	6017.52
446.39	6101.78
446.58	6134.54
446.77	6232.85
446.95	6127.52
447.14	6143.91
447.32	6326.47
447.51	6298.38
447.69	6207.10
447.88	6417.75
448.06	6230.51
448.25	6352.21
448.43	6174.33
448.62	6270.30
448.80	6207.10
448.99	6331.15
449.17	6377.96
449.36	6108.80
449.54	6279.66
449.73	6726.70
449.91	6431.79
450.10	6576.91
450.28	6799.26
450.46	6740.74
450.65	6761.81
450.83	6696.27
451.02	6670.53
451.20	6724.36
451.39	6906.92
451.57	6539.46
451.76	6761.81
451.94	6658.82
452.13	6855.43
452.31	6710.32
452.49	6663.51
452.68	6654.14
452.86	6850.75
453.05	6904.58
453.23	6993.52
453.42	6848.41
453.60	6731.38
453.78	7089.48
453.97	6855.43
454.15	6967.77
454.34	6930.33
454.52	7225.23
454.70	6991.18
454.89	7199.49
455.07	7187.79
455.26	7211.19
455.44	7269.70
455.62	7180.76
455.81	7232.26
455.99	7358.64
456.17	7243.96
456.36	7421.84
456.54	7412.48
456.73	7449.93
456.91	7585.68
457.09	7475.67
457.28	7798.66
457.46	7522.48
457.64	7700.36
457.83	7651.21
458.01	7559.93
458.19	7805.69
458.38	7653.55
458.56	7903.99
458.74	7688.66
458.93	7721.43
459.11	7939.10
459.29	7850.16
459.48	7861.86
459.66	7801.01
459.84	7908.67
460.03	8086.55
460.21	7971.86
460.39	7854.84
460.57	8023.36
460.76	8154.43
460.94	8257.41
461.12	8365.07
461.31	8121.66
461.49	8222.30
461.67	8016.33
461.85	8145.06
462.04	8234.00
462.22	8936.17
462.40	8500.83
462.59	8290.18
462.77	8322.94
462.95	8351.03
463.13	8372.10
463.32	8271.45
463.50	8524.23
463.68	8552.32
463.86	8510.19
464.05	8248.05
464.23	8491.46
464.41	8587.43
464.59	8430.61
464.78	8652.96
464.96	8540.61
465.14	8489.12
465.32	8842.54
465.50	8720.84
465.69	8786.37
465.87	8603.81
466.05	8718.50
466.23	8748.92
466.41	8669.34
466.60	8896.38
466.78	8627.21
466.96	8636.58
467.14	8788.71
467.32	8805.10
467.51	8922.12
467.69	8540.61
467.87	8924.46
468.05	9064.89
468.23	8805.10
468.41	8823.82
468.60	9015.74
468.78	9006.38
468.96	8844.88
469.14	9188.94
469.32	9139.79
469.50	8982.98
469.69	9226.39
469.87	9638.33
470.05	9357.46
470.23	9212.35
470.41	9465.13
470.59	9444.06
470.77	9327.03
470.95	9537.68
471.14	9600.88
471.32	9338.74
471.50	9547.05
471.68	9846.63
471.86	9895.78
472.04	9745.99
472.22	10071.33
472.40	9673.43
472.58	9907.49
472.77	9633.64
472.95	9919.19
473.13	10230.48
473.31	10015.15
473.49	9844.29
473.67	10134.52
473.85	10012.81
474.03	10303.04
474.21	10305.38
474.39	10338.15
474.57	10422.41
474.75	10403.68
474.93	10373.25
475.12	10583.90
475.30	10789.87
475.48	10487.94
475.66	10747.74
475.84	10747.74
476.02	10581.56
476.20	10820.30
476.38	10867.11
476.56	11227.55
476.74	11115.20
476.92	11316.49
477.10	11199.46
477.28	11456.92
477.46	11173.72
477.64	11433.52
477.82	11480.33
478.00	11782.26
478.18	11730.76
478.36	11978.86
478.54	12013.97
478.72	12088.87
478.90	12322.92
479.08	12365.05
479.26	12175.47
479.44	12533.57
479.62	12535.91
479.80	12484.42
479.98	12559.31
480.16	12936.14
480.34	13008.70
480.52	13198.28
480.70	13144.45
480.88	12713.79
481.06	13240.41
481.24	13188.92
481.41	13441.70
481.59	13390.20
481.77	13668.73
481.95	13734.26
482.13	13785.76
482.31	13762.35
482.49	14171.94
482.67	14204.71
482.85	14197.69
483.03	14286.63
483.21	14654.09
483.39	14607.28
483.57	14466.85
483.74	14937.30
483.92	15014.54
484.10	14785.16
484.28	14953.68
484.46	15412.43
484.64	15494.35
484.82	15283.70
485.00	15318.81
485.18	15723.72
485.35	15934.37
485.53	15325.83
485.71	15461.58
485.89	15573.92
486.07	15859.47
486.25	16018.63
486.43	16133.31
486.61	16098.20
486.78	16563.97
486.96	16568.65
487.14	16791.00
487.32	16776.96
487.50	17036.76
487.68	17357.41
487.85	17420.61
488.03	17759.98
488.21	17820.84
488.39	17701.47
488.57	17701.47
488.75	17750.62
488.92	18101.70
489.10	18356.82
489.28	18469.17
489.46	18649.39
489.64	18904.51
489.81	18939.62
489.99	19143.24
490.17	19084.73
490.35	19590.28
490.53	19541.13
490.70	19304.74
490.88	19381.98
491.06	19922.64
491.24	19955.41
491.41	19590.28
491.59	19618.37
491.77	19527.09
491.95	20091.16
492.13	20098.18
492.30	20477.35
492.48	20484.37
492.66	20755.87
492.84	20664.59
493.01	21233.34
493.19	20732.47
493.37	21270.79
493.54	21493.14
493.72	21635.91
493.90	21497.82
494.08	21759.96
494.25	21994.01
494.43	22216.36
494.61	22246.79
494.79	22003.38
494.96	22223.39
495.14	22443.40
495.32	22616.60
495.49	22352.12
495.67	22728.94
495.85	22960.66
496.02	23129.17
496.20	23094.07
496.38	23295.35
496.55	23302.37
496.73	23913.25
496.91	23676.86
497.09	23899.21
497.26	23983.47
497.44	23779.84
497.62	23990.49
497.79	24386.04
497.97	24051.34
498.14	24432.85
498.32	24702.01
498.50	24362.64
498.67	24816.70
498.85	24556.90
499.03	25280.13
499.20	25219.27
499.38	24947.77
499.56	25085.86
499.73	25537.59
499.91	25301.19
500.08	25855.90
500.26	25230.98
500.44	25666.31
500.61	25799.73
500.79	25647.59
500.97	25783.34
501.14	25902.71
501.32	25986.97
501.49	25954.20
501.67	26188.25
501.84	26096.97
502.02	26398.90
502.20	26522.95
502.37	26766.37
502.55	26773.39
502.72	26663.38
502.90	27042.55
503.07	26647.00
503.25	26768.71
503.43	26801.47
503.60	27023.83
503.78	26867.01
503.95	26958.29
504.13	27597.26
504.30	27639.39
504.48	27342.14
504.65	27749.39
504.83	27431.08
505.01	27887.48
505.18	27850.03
505.36	28437.51
505.53	28395.38
505.71	28236.22
505.88	28402.40
506.06	28463.25
506.23	28503.04
506.41	28472.62
506.58	28697.31
506.76	28503.04
506.93	28711.35
507.11	28840.08
507.28	28961.79
507.46	28706.67
507.63	29064.77
507.81	29010.94
507.98	28837.74
508.16	29186.48
508.33	29270.74
508.50	29539.90
508.68	29156.05
508.85	29898.00
509.03	29832.47
509.20	29703.74
509.38	30096.95
509.55	29771.61
509.73	30153.12
509.90	30078.22
510.08	29928.43
510.25	30338.02
510.42	30820.17
510.60	30796.77
510.77	30513.56
510.95	30885.71
511.12	30717.19
511.30	31108.06
511.47	30785.07
511.64	31075.29
511.82	31213.38
511.99	30794.43
512.17	30972.31
512.34	31091.68
512.51	31522.34
512.69	31405.31
512.86	31363.18
513.04	31442.76
513.21	31688.51
513.38	31079.97
513.56	31728.30
513.73	31566.81
513.90	31796.18
514.08	31632.34
514.25	31896.82
514.43	32060.66
514.60	32079.38
514.77	32360.25
514.95	32215.13
515.12	32177.68
515.29	32285.35
515.47	32634.09
515.64	32938.36
515.81	32587.28
515.99	32900.91
516.16	32821.33
516.33	32444.51
516.51	32959.42
516.68	32598.98
516.85	32580.26
517.03	32814.31
517.20	32889.21
517.37	32947.72
517.54	33097.52
517.72	33141.99
517.89	32964.10
518.06	33001.55
518.24	33195.82
518.41	32865.80
518.58	33237.95
518.75	33741.16
518.93	33977.56
519.10	33551.58
519.27	33614.77
519.45	33996.28
519.62	33919.04
519.79	33949.47
519.96	34178.84
520.14	34054.79
520.31	34321.62
520.48	34562.69
520.65	34132.03
520.83	34607.16
521.00	35014.41
521.17	34450.35
521.34	34728.87
521.52	35112.72
521.69	34649.29
521.86	35147.82
522.03	35030.80
522.20	35035.48
522.38	35309.32
522.55	35150.17
522.72	35356.13
522.89	34876.32
523.07	35328.05
523.24	35290.60
523.41	35576.14
523.58	35082.29
523.75	35875.73
523.92	35913.18
524.10	36245.54
524.27	35674.45
524.44	35550.40
524.61	36009.14
524.78	35885.09
524.96	36233.83
525.13	36692.58
525.30	36863.44
525.47	36715.98
525.64	36821.31
525.81	36573.21
525.98	36467.89
526.16	36025.53
526.33	36479.59
526.50	36467.89
526.67	36203.41
526.84	36613.00
527.01	36680.88
527.18	37013.23
527.36	36552.15
527.53	37099.83
527.70	37418.14
527.87	37350.27
528.04	37284.73
528.21	37338.57
528.38	37125.58
528.55	37256.65
528.72	37509.43
528.89	37069.40
529.07	37453.25
529.24	37041.32
529.41	37404.10
529.58	37256.65
529.75	37586.66
529.92	37912.00
530.09	38288.82
530.26	37633.47
530.43	37883.91
530.60	37722.41
530.77	38054.77
530.94	38398.83
531.11	38115.62
531.28	38352.02
531.46	38059.45
531.63	38515.86
531.80	38422.23
531.97	38169.46
532.14	38588.41
532.31	38323.93
532.48	38384.79
532.65	38665.65
532.82	38220.95
532.99	38787.36
533.16	38651.61
533.33	38864.60
533.50	39000.35
533.67	39189.93
533.84	38560.33
534.01	39548.03
534.18	38616.50
534.35	39098.65
534.52	38773.31
534.69	39119.71
534.86	38946.51
535.03	39253.12
535.20	39555.05
535.37	39562.08
535.54	39597.18
535.71	39416.96
535.88	39695.49
536.05	39512.92
536.22	39576.12
536.38	39367.81
536.55	39445.05
536.72	40264.24
536.89	39842.94
537.06	39122.05
537.23	39878.05
537.40	39098.65
537.57	39651.02
537.74	39906.13
537.91	40535.74
538.08	40198.70
538.25	40229.13
538.42	40072.31
538.59	40027.84
538.75	39868.69
538.92	40357.86
539.09	40032.52
539.26	40055.93
539.43	40123.80
539.60	40397.65
539.77	40142.53
539.94	40463.18
540.11	40334.45
540.28	40175.30
540.44	40313.39
540.61	40512.33
540.78	40374.24
540.95	40596.59
541.12	40320.41
541.29	40432.75
541.46	40732.34
541.62	40788.52
541.79	41535.15
541.96	40629.36
542.13	40863.41
542.30	41399.40
542.47	41237.90
542.63	40751.07
542.80	41104.49
542.97	41808.99
543.14	41794.95
543.31	41352.58
543.48	41450.89
543.64	41832.39
543.81	41904.95
543.98	41993.89
544.15	41961.12
544.32	41659.20
544.48	42103.90
544.65	41469.61
544.82	41816.01
544.99	41436.84
545.16	41579.62
545.32	42103.90
545.49	42234.97
545.66	42061.77
545.83	42010.28
546.00	42398.80
546.16	42705.41
546.33	41647.49
546.50	42174.11
546.67	42209.22
546.83	41837.08
547.00	42462.00
547.17	42328.59
547.34	42108.58
547.50	42670.31
547.67	42298.16
547.84	42497.11
548.00	42518.17
548.17	42794.36
548.34	42792.01
548.51	42794.36
548.67	43002.66
548.84	42529.87
549.01	42852.87
549.18	42747.54
549.34	42944.15
549.51	43161.82
549.68	42981.60
549.84	43126.71
550.01	42696.05
550.18	42586.05
550.34	43007.34
550.51	42572.00
550.68	42454.98
550.84	42588.39
551.01	43351.40
551.18	43433.32
551.34	43260.12
551.51	43185.22
551.68	43007.34
551.84	43311.61
552.01	43166.50
552.18	42899.68
552.34	43084.58
552.51	43281.19
552.68	43686.10
552.84	43473.11
553.01	43342.04
553.18	43339.70
553.34	43304.59
553.51	43648.65
553.67	43309.27
553.84	43697.80
554.01	43693.12
554.17	44041.86
554.34	43714.19
554.51	44039.52
554.67	44067.61
554.84	43889.73
555.00	43878.02
555.17	43494.18
555.33	43941.22
555.50	43885.04
555.67	44016.11
555.83	44044.20
556.00	44055.90
556.16	44257.19
556.33	44137.82
556.50	44205.70
556.66	44051.22
556.83	43739.93
556.99	44184.63
557.16	44222.08
557.32	44301.66
557.49	44170.59
557.65	43999.73
557.82	44245.49
557.98	44037.18
558.15	44245.49
558.32	43896.75
558.48	43931.86
558.65	44481.88
558.81	44584.86
558.98	44299.32
559.14	44229.10
559.31	44388.26
559.47	44374.22
559.64	44479.54
559.80	44538.05
559.97	44694.87
560.13	44643.38
560.30	44076.97
560.46	44273.57
560.63	44449.11
560.79	44547.42
560.96	45109.14
561.12	44229.10
561.29	44395.28
561.45	44701.89
561.61	44612.95
561.78	44587.21
561.94	44212.72
562.11	44051.22
562.27	44889.13
562.44	44453.79
562.60	44636.36
562.77	45148.93
562.93	45139.57
563.10	44849.35
563.26	44048.88
563.42	44612.95
563.59	45099.78
563.75	44706.57
563.92	45022.54
564.08	44772.11
564.24	45209.79
564.41	44741.68
564.57	45062.33
564.74	45191.06
564.90	45144.25
565.07	45207.45
565.23	45041.27
565.39	44617.63
565.56	44821.26
565.72	44650.40
565.88	45013.18
566.05	44928.92
566.21	44811.90
566.38	44772.11
566.54	44830.62
566.70	45478.95
566.87	45600.66
567.03	44935.95
567.19	45528.10
567.36	45408.73
567.52	45055.31
567.68	45083.40
567.85	45272.98
568.01	44861.05
568.17	45010.84
568.34	45167.66
568.50	45469.59
568.66	44966.37
568.83	45153.62
568.99	45312.77
569.15	44538.05
569.32	45036.59
569.48	45052.97
569.64	45134.89
569.81	45120.85
569.97	45347.88
570.13	45525.76
570.30	45078.72
570.46	44605.93
570.62	45263.62
570.78	45139.57
570.95	45057.65
571.11	45354.90
571.27	45336.18
571.43	45155.96
571.60	45649.81
571.76	45298.73
571.92	45460.23
572.09	45127.87
572.25	45317.45
572.41	45167.66
572.57	45263.62
572.74	45797.26
572.90	45436.82
573.06	45642.79
573.22	45509.38
573.38	45029.57
573.55	45404.05
573.71	45572.57
573.87	45347.88
574.03	45235.53
574.20	45078.72
574.36	45329.16
574.52	45560.87
574.68	45521.08
574.84	45720.02
575.01	45455.54
575.17	45186.38
575.33	45162.98
575.49	45404.05
575.65	45790.24
575.82	45610.02
575.98	45212.13
576.14	45902.59
576.30	45624.06
576.46	45359.58
576.62	45174.68
576.79	45783.22
576.95	44776.79
577.11	45605.34
577.27	45724.71
577.43	45223.83
577.59	45588.95
577.75	45715.34
577.92	45146.59
578.08	45186.38
578.24	45553.85
578.40	45034.25
578.56	45284.68
578.72	45436.82
578.88	45413.41
579.04	45184.04
579.21	45329.16
579.37	45556.19
579.53	45469.59
579.69	45296.39
579.85	45343.20
580.01	45380.65
580.17	45769.18
580.33	45635.77
580.49	45577.25
580.65	45488.31
580.82	45670.87
580.98	45359.58
581.14	45216.81
581.30	45942.38
581.46	45684.92
581.62	45427.46
581.78	45284.68
581.94	46050.04
582.10	45162.98
582.26	45593.64
582.42	45247.24
582.58	45680.24
582.74	45525.76
582.90	45497.67
583.06	45736.41
583.22	45453.20
583.38	45684.92
583.54	45317.45
583.70	45415.76
583.86	45322.13
584.02	45020.20
584.18	45528.10
584.34	45504.70
584.50	45717.68
584.66	45127.87
584.82	45497.67
584.98	46131.96
585.14	45439.16
585.30	45331.50
585.46	45448.52
585.62	45558.53
585.78	45361.92
585.94	45214.47
586.10	45530.44
586.26	45331.50
586.42	45378.31
586.58	45682.58
586.74	45567.89
586.90	45139.57
587.06	45577.25
587.22	45890.88
587.38	45649.81
587.54	45755.13
587.70	46227.92
587.86	45858.12
588.02	45329.16
588.18	45708.32
588.34	45532.78
588.49	45467.25
588.65	44952.33
588.81	45233.19
588.97	45312.77
589.13	45439.16
589.29	45492.99
589.45	45556.19
589.61	45717.68
589.77	46174.09
589.93	45846.41
590.08	45867.48
590.24	45696.62
590.40	45893.22
590.56	46110.89
590.72	45851.09
590.88	45434.48
591.04	45530.44
591.20	46012.59
591.35	45799.60
591.51	45972.80
591.67	45961.10
591.83	45748.11
591.99	45652.15
592.15	45230.85
592.31	46146.00
592.46	46005.57
592.62	45879.18
592.78	45925.99
592.94	46272.39
593.10	45928.33
593.26	45951.74
593.41	45806.62
593.57	45558.53
593.73	45577.25
593.89	45925.99
594.05	45759.81
594.20	45443.84
594.36	45876.84
594.52	45771.52
594.68	46021.95
594.84	45518.74
594.99	46094.51
595.15	45647.47
595.31	45764.49
595.47	46075.79
595.62	45895.56
595.78	45911.95
595.94	45986.85
596.10	46003.23
596.25	46005.57
596.41	46075.79
596.57	45532.78
596.73	45869.82
596.88	45476.61
597.04	45989.19
597.20	45984.51
597.36	46000.89
597.51	45961.10
597.67	45848.75
597.83	46199.83
597.99	46040.68
598.14	45783.22
598.30	46157.70
598.46	45694.28
598.61	46064.08
598.77	45944.72
598.93	45542.14
599.09	45860.46
599.24	46403.46
599.40	46321.54
599.56	46300.48
599.71	46225.58
599.87	46321.54
600.03	46080.47
600.18	45900.25
600.34	46021.95
600.50	45888.54
600.65	46143.66
600.81	46312.18
600.97	46248.99
601.12	46422.19
601.28	46230.26
601.44	45970.46
601.59	45659.17
601.75	45633.42
601.91	45851.09
602.06	45815.99
602.22	45893.22
602.37	46047.70
602.53	46136.64
602.69	46183.45
602.84	45584.27
603.00	45532.78
603.16	45366.60
603.31	45902.59
603.47	45481.29
603.62	45799.60
603.78	46045.36
603.94	45881.52
604.09	46298.14
604.25	46190.47
604.40	45893.22
604.56	45989.19
604.71	45645.13
604.87	45663.85
605.03	45549.17
605.18	45935.35
605.34	45518.74
605.49	45530.44
605.65	45394.69
605.80	45942.38
605.96	46103.87
606.12	45968.12
606.27	46007.91
606.43	45996.21
606.58	45979.82
606.74	45872.16
606.89	45914.29
607.05	45425.12
607.20	45890.88
607.36	45776.20
607.51	45825.35
607.67	46059.40
607.82	45661.51
607.98	45488.31
608.13	45516.40
608.29	45413.41
608.44	45635.77
608.60	44870.41
608.75	45324.47
608.91	45640.45
609.06	45195.74
609.22	45860.46
609.37	45502.35
609.53	45198.09
609.68	45247.24
609.84	45483.63
609.99	45368.94
610.15	45085.74
610.30	45333.84
610.46	45408.73
610.61	45635.77
610.76	45464.91
610.92	45258.94
611.07	45230.85
611.23	45305.75
611.38	45708.32
611.54	45277.66
611.69	44921.90
611.84	45392.35
612.00	45237.87
612.15	44980.42
612.31	45790.24
612.46	45170.00
612.62	45137.23
612.77	45092.76
612.92	45174.68
613.08	45083.40
613.23	45315.11
613.39	45186.38
613.54	44268.89
613.69	44975.73
613.85	44854.03
614.00	45460.23
614.15	45125.53
614.31	45036.59
614.46	45165.32
614.62	45186.38
614.77	44891.48
614.92	45118.51
615.08	44720.62
615.23	44917.22
615.38	44912.54
615.54	44570.82
615.69	44570.82
615.84	44669.12
616.00	44610.61
616.15	44680.83
616.30	44526.35
616.46	44500.61
616.61	44261.87
616.76	44884.45
616.92	44367.20
617.07	44243.15
617.22	44444.43
617.37	44477.20
617.53	44793.17
617.68	44479.54
617.83	44577.84
617.99	44465.50
618.14	44252.51
618.29	44245.49
618.45	44334.43
618.60	44430.39
618.75	44315.70
618.90	44229.10
619.06	44011.43
619.21	44219.74
619.36	44598.91
619.51	44329.75
619.67	44154.21
619.82	44030.16
619.97	43889.73
620.12	44133.14
620.28	43753.97
620.43	43948.24
620.58	43810.15
620.73	44222.08
620.89	43990.37
621.04	44058.24
621.19	43976.33
621.34	43988.03
621.49	43625.25
621.65	43833.55
621.80	44236.12
621.95	43473.11
622.10	43796.10
622.25	43810.15
622.41	43522.26
622.56	43335.02
622.71	43826.53
622.86	43742.27
623.01	43821.85
623.16	43793.76
623.32	43676.74
623.47	43524.60
623.62	43866.32
623.77	43590.14
623.92	43379.49
624.07	43023.73
624.23	43194.59
624.38	43328.00
624.53	43412.26
624.68	43552.69
624.83	43594.82
624.98	43395.87
625.13	43063.52
625.29	43313.95
625.44	43494.18
625.59	42747.54
625.74	42878.61
625.89	42848.19
626.04	42600.09
626.19	43241.40
626.34	42890.32
626.49	43030.75
626.65	42934.79
626.80	42913.72
626.95	42628.18
627.10	42689.03
627.25	42836.48
627.40	42239.65
627.55	42513.49
627.70	42431.57
627.85	42195.18
628.00	42309.86
628.15	42857.55
628.30	42518.17
628.45	42869.25
628.60	42230.29
628.76	43236.72
628.91	42618.81
629.06	42747.54
629.21	42457.32
629.36	42241.99
629.51	42066.45
629.66	42309.86
629.81	42333.27
629.96	41656.85
630.11	42642.22
630.26	42354.33
630.41	42253.69
630.56	42321.57
630.71	42141.35
630.86	42124.96
631.01	41853.46
631.16	42293.48
631.31	42244.33
631.46	41897.93
631.61	42291.14
631.76	42239.65
631.91	42181.13
632.06	41837.08
632.21	42096.88
632.36	41956.44
632.51	42347.31
632.66	42433.91
632.81	41666.22
632.96	41935.38
633.10	41874.52
633.25	41226.20
633.40	41546.85
633.55	41837.08
633.70	42014.96
633.85	41408.76
634.00	41696.64
634.15	41694.30
634.30	41584.30
634.45	41741.11
634.60	41581.96
634.75	41301.09
634.90	41626.43
635.05	41624.09
635.19	41031.93
635.34	41656.85
635.49	41603.02
635.64	41305.77
635.79	40919.59
635.94	41378.33
636.09	40975.76
636.24	41158.32
636.39	41013.21
636.53	40994.48
636.68	41392.37
636.83	41181.73
636.98	41258.96
637.13	40521.69
637.28	41027.25
637.43	41230.88
637.57	41155.98
637.72	41366.63
637.87	40928.95
638.02	41223.86
638.17	41343.22
638.32	40739.36
638.46	40643.40
638.61	40561.48
638.76	40320.41
638.91	40547.44
639.06	40369.56
639.20	40484.25
639.35	40840.01
639.50	40701.92
639.65	40753.41
639.80	40781.49
639.94	40135.51
640.09	40825.96
640.24	40669.15
640.39	40526.38
640.54	40556.80
640.68	40823.62
640.83	40229.13
640.98	40334.45
641.13	40245.51
641.27	40891.50
641.42	40252.53
641.57	40287.64
641.72	40645.74
641.86	40076.99
642.01	40147.21
642.16	39840.60
642.31	40107.42
642.45	39756.34
642.60	40259.55
642.75	40048.91
642.90	39936.56
643.04	39658.04
643.19	39786.77
643.34	40208.06
643.48	39966.99
643.63	39842.94
643.78	39433.35
643.93	39798.47
644.07	39409.94
644.22	39770.38
644.37	39613.57
644.51	39564.42
644.66	39842.94
644.81	39871.03
644.95	39536.33
645.10	39826.56
645.25	39531.65
645.39	39494.20
645.54	40027.84
645.69	39693.15
645.83	39426.32
645.98	39086.95
646.13	39313.98
646.27	39580.80
646.42	39498.88
646.57	39643.99
646.71	39702.51
646.86	39599.52
647.00	39629.95
647.15	39676.76
647.30	39421.64
647.44	39285.89
647.59	39335.04
647.74	39133.76
647.88	39178.23
648.03	38906.73
648.17	38878.64
648.32	39028.43
648.47	38934.81
648.61	38675.01
648.76	39599.52
648.90	38951.20
649.05	38876.30
649.20	39400.58
649.34	39587.82
649.49	38937.15
649.63	39112.69
649.78	39089.29
649.92	38754.59
650.07	39220.36
650.21	39187.59
650.36	38567.35
650.51	38742.89
650.65	39253.12
650.80	39187.59
650.94	39218.02
651.09	38958.22
651.23	38686.71
651.38	38808.42
651.52	38497.13
651.67	38260.74
651.81	38635.22
651.96	38199.88
652.10	38572.03
652.25	38080.52
652.39	38192.86
652.54	38698.42
652.68	38366.06
652.83	38548.62
652.97	38337.98
653.12	38319.25
653.26	38808.42
653.41	38440.96
653.55	38337.98
653.70	38342.66
653.84	38047.75
653.99	38440.96
654.13	38349.68
654.27	38024.34
654.42	37926.04
654.56	37827.74
654.71	38356.70
654.85	38085.20
655.00	37951.79
655.14	37567.94
655.29	37565.60
655.43	37467.30
655.57	37881.57
655.72	37860.51
655.86	37869.87
656.01	37020.25
656.15	37684.97
656.30	37900.29
656.44	37179.41
656.58	37177.07
656.73	37422.83
656.87	37603.05
657.01	37436.87
657.16	37727.10
657.30	36818.97
657.45	37418.14
657.59	37310.48
657.73	37146.64
657.88	37387.72
658.02	37202.82
658.16	37303.46
658.31	37308.14
658.45	37502.40
658.60	37275.37
658.74	37277.71
658.88	36994.51
659.03	36907.91
659.17	37055.36
659.31	36753.43
659.46	36802.58
659.60	36598.96
659.74	36772.16
659.89	36381.29
660.03	36456.18
660.17	36975.78
660.32	36865.78
660.46	36985.15
660.60	36725.35
660.74	36825.99
660.89	36421.08
661.03	36608.32
661.17	36367.24
661.32	36381.29
661.46	36163.62
661.60	36140.21
661.74	36229.15
661.89	36442.14
662.03	36315.75
662.17	36350.86
662.31	36208.09
662.46	36357.88
662.60	36315.75
662.74	35985.74
662.88	36172.98
663.03	35674.45
663.17	35964.67
663.31	35512.95
663.45	35644.02
663.60	35803.17
663.74	35751.68
663.88	35370.18
664.02	35651.04
664.17	35810.20
664.31	35028.46
664.45	35271.87
664.59	35211.02
664.73	35323.36
664.88	35379.54
665.02	35012.07
665.16	35351.45
665.30	34845.90
665.44	34693.76
665.59	34700.78
665.73	34646.95
665.87	34333.32
666.01	34731.21
666.15	34993.35
666.29	34616.52
666.44	35035.48
666.58	34181.18
666.72	34452.69
666.86	34895.05
667.00	34925.47
667.14	34368.43
667.28	34621.20
667.43	34293.53
667.57	34398.85
667.71	34249.06
667.85	34499.50
667.99	34375.45
668.13	33930.75
668.27	34120.33
668.41	33872.23
668.56	33729.46
668.70	33933.09
668.84	33610.09
668.98	33476.68
669.12	33701.37
669.26	33544.56
669.40	33614.77
669.54	33469.66
669.68	34129.69
669.82	33387.74
669.96	33298.80
670.10	33317.53
670.25	33853.51
670.39	33385.40
670.53	33413.49
670.67	32769.84
670.81	33385.40
670.95	32849.42
671.09	32891.55
671.23	33116.24
671.37	32914.95
671.51	32486.64
671.65	32470.25
671.79	32252.58
671.93	32446.85
672.07	32835.38
672.21	32505.36
672.35	32397.70
672.49	32119.17
672.63	32360.25
672.77	32320.46
672.91	32287.69
673.05	31955.33
673.19	32205.77
673.33	31901.50
673.47	31791.50
673.61	31704.90
673.75	31817.24
673.89	31564.46
674.03	30958.27
674.17	31592.55
674.31	31660.43
674.45	31531.70
674.59	31349.14
674.73	31578.51
674.87	31365.52
675.01	31105.72
675.15	31330.41
675.29	31412.33
675.43	30890.39
675.56	31299.98
675.70	30944.22
675.84	30562.72
675.98	29610.12
676.12	30178.87
676.26	30551.01
676.40	30321.64
676.54	29989.28
676.68	30120.35
676.82	29310.53
676.96	29806.72
677.10	30075.88
677.23	29624.16
677.37	30258.45
677.51	29476.71
677.65	29710.76
677.79	29097.54
677.93	29429.90
678.07	29680.33
678.21	29284.78
678.34	29083.50
678.48	28989.88
678.62	29069.45
678.76	28980.51
678.90	28952.43
679.04	28774.55
679.18	28826.04
679.31	28308.78
679.45	28449.21
679.59	28240.90
679.73	28051.32
679.87	28013.87
680.00	28060.68
680.14	27737.69
680.28	27740.03
680.42	27541.08
680.56	27520.02
680.70	27744.71
680.83	27627.68
680.97	27325.75
681.11	27442.78
681.25	27201.71
681.39	26892.76
681.52	27084.68
681.66	26796.79
681.80	26984.04
681.94	27145.53
682.07	27089.36
682.21	26726.58
682.35	26801.47
682.49	26506.57
682.62	26492.52
682.76	26249.11
682.90	26176.55
683.04	26085.27
683.17	26155.49
683.31	26354.43
683.45	26089.95
683.59	25668.66
683.72	25678.02
683.86	25579.71
684.00	25343.32
684.13	25472.05
684.27	25689.72
684.41	25481.41
684.55	25568.01
684.68	25528.22
684.82	25256.72
684.96	25493.12
685.09	24898.62
685.23	24996.92
685.37	25010.96
685.50	24905.64
685.64	24767.55
685.78	24259.65
685.91	24622.44
686.05	24276.04
686.19	24264.33
686.32	24004.53
686.46	23660.48
686.60	23461.53
686.73	24030.28
686.87	23482.59
687.01	23491.96
687.14	23601.96
687.28	23548.13
687.42	23126.83
687.55	23653.45
687.69	23206.41
687.82	23131.51
687.96	23208.75
688.10	23084.70
688.23	22885.76
688.37	22890.44
688.50	22347.44
688.64	22672.77
688.78	22679.79
688.91	22546.38
689.05	22698.52
689.18	22384.88
689.32	21692.08
689.46	22122.74
689.59	22242.11
689.73	22118.06
689.86	22185.94
690.00	21659.32
690.13	22183.60
690.27	21818.47
690.41	21858.26
690.54	21490.80
690.68	21231.00
690.81	20929.07
690.95	21336.32
691.08	21102.27
691.22	21144.40
691.35	21326.96
691.49	21078.86
691.62	21266.11
691.76	21287.17
691.89	20996.95
692.03	20563.95
692.16	20577.99
692.30	20119.24
692.43	20699.70
692.57	20264.36
692.70	20496.07
692.84	20381.38
692.97	20070.09
693.11	19747.10
693.24	19817.32
693.38	19791.57
693.51	19580.92
693.65	19747.10
693.78	19758.80
693.92	19728.38
694.05	19613.69
694.19	19513.05
694.32	19536.45
694.45	19044.94
694.59	19091.75
694.72	19063.66
694.86	18951.32
694.99	18864.72
695.13	18988.77
695.26	18764.07
695.39	18787.48
695.53	18621.30
695.66	18494.91
695.80	18745.35
695.93	18363.84
696.07	18345.12
696.20	18246.82
696.33	18157.88
696.47	18162.56
696.60	18157.88
696.73	17991.70
696.87	18090.00
697.00	18164.90
697.14	17935.53
697.27	17673.39
697.40	17970.63
697.54	17785.73
697.67	17614.87
697.80	17631.26
697.94	17727.22
698.07	17357.41
698.21	17184.21
698.34	17275.49
698.47	17097.61
698.61	16596.74
698.74	16690.36
698.87	16549.93
699.01	16554.61
699.14	16608.44
699.27	16044.37
699.40	16402.47
699.54	16491.41
699.67	16388.43
699.80	16133.31
699.94	16053.73
700.07	16248.00
700.20	16177.78
700.34	15955.43
700.47	15988.20
700.60	15999.90
700.73	16152.04
700.87	15899.26
701.00	15704.99
701.13	15770.53
701.26	15517.75
701.40	15566.90
701.53	15374.98
701.66	15407.75
701.79	15152.63
701.93	15084.75
702.06	15119.86
702.19	14920.92
702.32	15040.28
702.46	15150.29
702.59	15002.83
702.72	14857.72
702.85	14675.16
702.99	14665.80
703.12	15138.58
703.25	14562.81
703.38	14562.81
703.51	14604.94
703.65	14272.59
703.78	14251.52
703.91	14083.00
704.04	14417.70
704.17	14097.05
704.31	14148.54
704.44	13797.46
704.57	14036.19
704.70	13907.46
704.83	13837.25
704.96	13905.12
705.10	13582.13
705.23	13748.31
>>>>>End Processed Spectral Data<<<<<
