SpectraSuite Data File
++++++++++++++++++++++++++++++++++++
Date: Fri Oct 25 11:33:24 EDT 2013
User: price-jones
Dark Spectrum Present: No
Reference Spectrum Present: No
Number of Sampled Component Spectra: 1
Spectrometers: USB2+H05261
Integration Time (usec): 100000 (USB2+H05261)
Spectra Averaged: 1 (USB2+H05261)
Boxcar Smoothing: 0 (USB2+H05261)
Correct for Electrical Dark: No (USB2+H05261)
Strobe/Lamp Enabled: No (USB2+H05261)
Correct for Detector Non-linearity: No (USB2+H05261)
Correct for Stray Light: No (USB2+H05261)
Number of Pixels in Processed Spectrum: 2048
>>>>>Begin Processed Spectral Data<<<<<
365.73	250.44
365.92	250.44
366.12	250.44
366.32	238.73
366.52	205.97
366.72	194.26
366.91	126.39
367.11	173.20
367.31	154.48
367.51	135.75
367.70	135.75
367.90	147.45
368.10	212.99
368.30	110.01
368.49	105.32
368.69	187.24
368.89	189.58
369.09	250.44
369.28	227.03
369.48	142.77
369.68	201.29
369.87	182.56
370.07	264.48
370.27	243.42
370.47	266.82
370.66	498.53
370.86	533.64
371.06	470.45
371.25	468.11
371.45	507.90
371.65	461.09
371.84	507.90
372.04	550.03
372.24	582.79
372.44	561.73
372.63	573.43
372.83	624.92
373.03	615.56
373.22	641.31
373.42	669.39
373.62	613.22
373.81	624.92
374.01	571.09
374.21	613.22
374.40	690.46
374.60	695.14
374.79	650.67
374.99	655.35
375.19	634.29
375.38	695.14
375.58	734.93
375.78	697.48
375.97	624.92
376.17	681.10
376.37	704.50
376.56	669.39
376.76	678.76
376.95	657.69
377.15	683.44
377.35	748.97
377.54	627.26
377.74	648.33
377.93	692.80
378.13	648.33
378.33	688.12
378.52	667.05
378.72	697.48
378.91	697.48
379.11	676.41
379.31	692.80
379.50	730.25
379.70	718.54
379.89	606.20
380.09	695.14
380.28	730.25
380.48	777.06
380.68	800.46
380.87	833.23
381.07	723.23
381.26	755.99
381.46	777.06
381.65	744.29
381.85	685.78
382.04	816.85
382.24	833.23
382.43	816.85
382.63	767.70
382.83	727.91
383.02	805.14
383.22	809.83
383.41	835.57
383.61	877.70
383.80	758.33
384.00	830.89
384.19	833.23
384.39	793.44
384.58	847.27
384.78	826.21
384.97	903.45
385.17	858.98
385.36	819.19
385.56	861.32
385.75	802.80
385.95	868.34
386.14	943.24
386.34	837.91
386.53	809.83
386.72	882.38
386.92	863.66
387.11	816.85
387.31	830.89
387.50	880.04
387.70	931.53
387.89	940.90
388.09	894.08
388.28	880.04
388.48	903.45
388.67	903.45
388.86	880.04
389.06	877.70
389.25	976.00
389.45	990.05
389.64	938.55
389.84	1013.45
390.03	1015.79
390.22	1018.13
390.42	919.83
390.61	1006.43
390.81	957.28
391.00	976.00
391.19	983.02
391.39	964.30
391.58	1018.13
391.78	987.71
391.97	1055.58
392.16	1067.28
392.36	1090.69
392.55	1090.69
392.75	1067.28
392.94	1062.60
393.13	954.94
393.33	1064.94
393.52	1114.10
393.71	1036.86
393.91	1093.03
394.10	1116.44
394.29	1118.78
394.49	1076.65
394.68	1123.46
394.88	1158.57
395.07	1198.35
395.26	1186.65
395.46	1172.61
395.65	1228.78
395.84	1139.84
396.04	1233.46
396.23	1219.42
396.42	1296.66
396.62	1233.46
396.81	1313.04
397.00	1261.55
397.19	1203.04
397.39	1165.59
397.58	1231.12
397.77	1174.95
397.97	1263.89
398.16	1226.44
398.35	1212.40
398.55	1210.06
398.74	1397.30
398.93	1306.02
399.12	1277.93
399.32	1306.02
399.51	1249.85
399.70	1348.15
399.90	1373.89
400.09	1397.30
400.28	1416.02
400.47	1336.45
400.67	1432.41
400.86	1423.05
401.05	1380.92
401.24	1369.21
401.44	1409.00
401.63	1465.18
401.82	1444.11
402.01	1526.03
402.21	1465.18
402.40	1460.49
402.59	1528.37
402.78	1504.96
402.97	1528.37
403.17	1509.65
403.36	1516.67
403.55	1479.22
403.74	1586.88
403.93	1650.08
404.13	1605.61
404.32	1537.73
404.51	1603.27
404.70	1600.93
404.89	1547.09
405.09	1671.14
405.28	1722.63
405.47	1703.91
405.66	1699.23
405.85	1678.16
406.05	1743.70
406.24	1846.68
406.43	1682.85
406.62	1872.43
406.81	1851.36
407.00	1809.23
407.20	1771.79
407.39	1680.50
407.58	1849.02
407.77	1816.26
407.96	1888.81
408.15	1921.58
408.34	1909.88
408.54	1799.87
408.73	1933.28
408.92	2036.27
409.11	1970.73
409.30	1921.58
409.49	2036.27
409.68	1973.07
409.87	1973.07
410.07	1977.75
410.26	2087.76
410.45	2012.86
410.64	2057.33
410.83	2083.08
411.02	2132.23
411.21	2277.34
411.40	2066.69
411.59	2174.36
411.78	2305.43
411.98	2193.08
412.17	2244.57
412.36	2188.40
412.55	2356.92
412.74	2361.60
412.93	2244.57
413.12	2349.90
413.31	2429.48
413.50	2436.50
413.69	2352.24
413.88	2490.33
414.07	2455.22
414.26	2434.16
414.45	2499.69
414.64	2518.42
414.83	2588.63
415.02	2576.93
415.22	2719.70
415.41	2612.04
415.60	2658.85
415.79	2677.57
415.98	2696.30
416.17	2850.77
416.36	2656.51
416.55	2684.59
416.74	2712.68
416.93	2719.70
417.12	2789.92
417.31	2757.15
417.50	2932.69
417.69	3028.65
417.88	2850.77
418.07	2925.67
418.26	3059.08
418.45	2986.52
418.64	3066.10
418.83	3089.51
419.02	3143.34
419.21	3038.02
419.39	3040.36
419.58	3056.74
419.77	3026.31
419.96	3141.00
420.15	3105.89
420.34	3208.87
420.53	3246.32
420.72	3213.56
420.91	3227.60
421.10	3297.81
421.29	3290.79
421.48	3183.13
421.67	3283.77
421.86	3290.79
422.05	3318.88
422.24	3330.58
422.43	3293.13
422.61	3424.20
422.80	3283.77
422.99	3384.41
423.18	3386.76
423.37	3433.57
423.56	3433.57
423.75	3325.90
423.94	3417.18
424.13	3094.19
424.32	3281.43
424.50	3454.63
424.69	3454.63
424.88	3405.48
425.07	3487.40
425.26	3332.92
425.45	3431.23
425.64	3407.82
425.83	3520.17
426.01	3438.25
426.20	3363.35
426.39	3487.40
426.58	3552.93
426.77	3438.25
426.96	3384.41
427.15	3496.76
427.33	3583.36
427.52	3492.08
427.71	3562.30
427.90	3599.74
428.09	3613.79
428.28	3672.30
428.46	3726.13
428.65	3686.34
428.84	3737.84
429.03	3794.01
429.22	3712.09
429.40	3772.94
429.59	3726.13
429.78	3660.60
429.97	3574.00
430.16	3810.39
430.34	3779.97
430.53	3873.59
430.72	3726.13
430.91	3946.14
431.10	3843.16
431.28	3941.46
431.47	3913.38
431.66	4070.19
431.85	3913.38
432.03	4131.05
432.22	4250.41
432.41	4042.11
432.60	4198.92
432.79	4119.34
432.97	4032.74
433.16	4128.70
433.35	4053.81
433.54	4306.59
433.72	4245.73
433.91	4133.39
434.10	4271.48
434.28	4243.39
434.47	4451.70
434.66	4276.16
434.85	4255.09
435.03	4283.18
435.22	4395.53
435.41	4496.17
435.59	4397.87
435.78	4308.93
435.97	4411.91
436.16	4372.12
436.34	4528.94
436.53	4535.96
436.72	4535.96
436.90	4416.59
437.09	4664.69
437.28	4496.17
437.46	4489.15
437.65	4475.10
437.84	4636.60
438.02	4561.70
438.21	4608.51
438.40	4507.87
438.58	4723.20
438.77	4793.42
438.96	4805.12
439.14	4922.15
439.33	4844.91
439.52	4774.69
439.70	4975.98
439.89	5039.17
440.08	5111.73
440.26	5008.75
440.45	4987.68
440.63	5128.11
440.82	4973.64
441.01	5137.48
441.19	5179.61
441.38	5156.20
441.57	5221.74
441.75	5399.62
441.94	5259.18
442.12	5357.49
442.31	5535.37
442.50	5331.74
442.68	5371.53
442.87	5514.30
443.05	5631.33
443.24	5570.48
443.43	5703.89
443.61	5668.78
443.80	5689.84
443.98	5359.83
444.17	5345.78
444.35	5638.35
444.54	5654.73
444.73	5547.07
444.91	5727.29
445.10	5605.58
445.28	5624.31
445.47	5486.22
445.65	5668.78
445.84	5671.12
446.02	5844.32
446.21	5577.50
446.39	5738.99
446.58	5781.12
446.77	5799.85
446.95	5760.06
447.14	5661.76
447.32	5837.30
447.51	5856.02
447.69	5870.06
447.88	5673.46
448.06	5994.11
448.25	5746.02
448.43	5846.66
448.62	5682.82
448.80	5746.02
448.99	6031.56
449.17	5956.66
449.36	5930.92
449.54	6052.63
449.73	5989.43
449.91	5863.04
450.10	6012.84
450.28	6141.57
450.46	6120.50
450.65	6085.39
450.83	6164.97
451.02	6094.76
451.20	6193.06
451.39	6085.39
451.57	6141.57
451.76	6099.44
451.94	6244.55
452.13	6141.57
452.31	6097.10
452.49	6277.32
452.68	6319.45
452.86	6312.42
453.05	6476.26
453.23	6363.92
453.42	6296.04
453.60	6221.14
453.78	6466.90
453.97	6342.85
454.15	6506.69
454.34	6272.64
454.52	6342.85
454.70	6553.50
454.89	6530.09
455.07	6675.21
455.26	6675.21
455.44	6602.65
455.62	6810.96
455.81	6820.32
455.99	6820.32
456.17	6822.66
456.36	6839.05
456.54	6902.24
456.73	6958.41
456.91	7049.69
457.09	7066.08
457.28	7215.87
457.46	6789.89
457.64	7112.89
457.83	7063.74
458.01	7030.97
458.19	7234.60
458.38	7080.12
458.56	7117.57
458.74	7258.00
458.93	7211.19
459.11	7206.51
459.29	7140.97
459.48	7325.88
459.66	7133.95
459.84	7274.38
460.03	7536.52
460.21	7400.77
460.39	7325.88
460.57	7375.03
460.76	7393.75
460.94	7325.88
461.12	7501.42
461.31	7529.50
461.49	7480.35
461.67	7559.93
461.85	7616.10
462.04	7573.97
462.22	8189.53
462.40	7894.63
462.59	7719.09
462.77	7597.38
462.95	7658.23
463.13	7754.19
463.32	7878.24
463.50	7836.11
463.68	7911.01
463.86	7967.18
464.05	7889.95
464.23	7920.37
464.41	7974.21
464.59	7812.71
464.78	8091.23
464.96	8016.33
465.14	7812.71
465.32	8102.93
465.50	8236.35
465.69	8224.64
465.87	8262.09
466.05	8259.75
466.23	8292.52
466.41	8243.37
466.60	8212.94
466.78	8187.19
466.96	8243.37
467.14	8411.89
467.32	8397.84
467.51	8259.75
467.69	8329.97
467.87	8418.91
468.05	8348.69
468.23	8346.35
468.41	8280.82
468.60	8362.73
468.78	8627.21
468.96	8416.57
469.14	8697.43
469.32	8678.71
469.50	8608.49
469.69	8477.42
469.87	8720.84
470.05	8856.59
470.23	8739.56
470.41	8884.67
470.59	9193.62
470.77	8968.93
470.95	8915.10
471.14	9055.53
471.32	8882.33
471.50	9062.55
471.68	9104.68
471.86	9165.54
472.04	9289.59
472.22	9603.22
472.40	9001.70
472.58	9142.13
472.77	9320.01
472.95	9439.38
473.13	9741.31
473.31	9448.74
473.49	9598.54
473.67	9401.93
473.85	9504.92
474.03	9668.75
474.21	9675.77
474.39	9893.44
474.57	9673.43
474.75	9966.00
474.93	10111.11
475.12	10026.86
475.30	9977.70
475.48	10118.14
475.66	10249.21
475.84	10115.80
476.02	10085.37
476.20	10136.86
476.38	10312.40
476.56	10703.27
476.74	10413.04
476.92	10389.64
477.10	10581.56
477.28	10544.11
477.46	10815.62
477.64	10771.15
477.82	10932.64
478.00	11300.11
478.18	11169.04
478.36	11187.76
478.54	11262.66
478.72	11501.39
478.90	11548.20
479.08	11775.24
479.26	11709.70
479.44	11641.82
479.62	11571.61
479.80	11988.22
479.98	11941.41
480.16	12037.38
480.34	12102.91
480.52	12507.82
480.70	12388.46
480.88	11925.03
481.06	12461.01
481.24	12545.27
481.41	12582.72
481.59	12833.16
481.77	12847.20
481.95	12774.64
482.13	13102.32
482.31	13008.70
482.49	13231.05
482.67	13315.31
482.85	13537.66
483.03	13582.13
483.21	13593.83
483.39	13755.33
483.57	13816.18
483.74	14085.34
483.92	14139.18
484.10	14094.71
484.28	14382.59
484.46	14490.26
484.64	14874.10
484.82	14553.45
485.00	14459.83
485.18	15037.94
485.35	15323.49
485.53	15183.06
485.71	15105.82
485.89	15267.31
486.07	15372.64
486.25	15400.72
486.43	15632.44
486.61	15875.85
486.78	15833.72
486.96	16077.14
487.14	16292.47
487.32	15981.18
487.50	16147.36
487.68	16503.12
487.85	16772.28
488.03	16886.97
488.21	16723.13
488.39	16968.88
488.57	17401.88
488.75	17076.55
488.92	17476.78
489.10	17717.86
489.28	17607.85
489.46	17633.60
489.64	17701.47
489.81	18427.04
489.99	18178.94
490.17	18640.03
490.35	18532.36
490.53	18403.63
490.70	18815.57
490.88	18717.26
491.06	19264.95
491.24	18845.99
491.41	19094.09
491.59	19190.05
491.77	19077.71
491.95	19590.28
492.13	19688.59
492.30	19744.76
492.48	19419.42
492.66	19917.96
492.84	19936.68
493.01	20233.93
493.19	20280.74
493.37	20044.35
493.54	20372.02
493.72	20592.03
493.90	20718.42
494.08	21216.96
494.25	20872.90
494.43	21039.08
494.61	21074.18
494.79	21413.56
494.96	21132.70
495.14	21481.44
495.32	21701.45
495.49	21771.66
495.67	21949.54
495.85	22108.70
496.02	22155.51
496.20	22333.39
496.38	22235.09
496.55	22279.56
496.73	22855.33
496.91	22625.96
497.09	22904.48
497.26	22750.01
497.44	23075.34
497.62	23005.13
497.79	23620.69
497.97	23342.16
498.14	23674.52
498.32	23796.23
498.50	23620.69
498.67	23817.29
498.85	23751.76
499.03	24079.43
499.20	24315.83
499.38	24463.28
499.56	24486.68
499.73	24397.74
499.91	24439.87
500.08	24769.89
500.26	24397.74
500.44	24755.85
500.61	25263.74
500.79	24732.44
500.97	25076.50
501.14	25591.42
501.32	25113.95
501.49	25373.75
501.67	25549.29
501.84	25788.02
502.02	25582.06
502.20	25446.30
502.37	25553.97
502.55	25687.38
502.72	25687.38
502.90	26108.68
503.07	25790.36
503.25	25963.56
503.43	26267.83
503.60	26331.03
503.78	26831.90
503.95	26206.98
504.13	26450.39
504.30	26705.51
504.48	26600.19
504.65	26902.12
504.83	26682.11
505.01	27229.79
505.18	27269.58
505.36	27440.44
505.53	27466.19
505.71	27035.53
505.88	27613.64
506.06	27388.95
506.23	27627.68
506.41	27688.54
506.58	28142.60
506.76	27978.76
506.93	28072.39
507.11	27906.21
507.28	27990.47
507.46	28535.81
507.63	28364.95
507.81	28577.94
507.98	28325.16
508.16	28809.65
508.33	28479.64
508.50	28924.34
508.68	28929.02
508.85	29172.44
509.03	29071.79
509.20	29383.09
509.38	29390.11
509.55	29006.26
509.73	29191.16
509.90	29652.25
510.08	29495.43
510.25	29343.30
510.42	29752.89
510.60	30202.27
510.77	29797.36
510.95	29874.60
511.12	29970.56
511.30	29734.17
511.47	30384.83
511.64	30239.72
511.82	30497.18
511.99	30209.29
512.17	30576.76
512.34	30579.10
512.51	30735.92
512.69	30944.22
512.86	30768.68
513.04	30995.71
513.21	31182.96
513.38	31316.37
513.56	31615.96
513.73	31028.48
513.90	31260.20
514.08	31307.01
514.25	32025.55
514.43	31864.05
514.60	31718.94
514.77	31728.30
514.95	32034.91
515.12	31644.04
515.29	31417.01
515.47	32093.43
515.64	32065.34
515.81	31835.97
515.99	32400.04
516.16	32393.01
516.33	32318.12
516.51	32318.12
516.68	32582.60
516.85	32416.42
517.03	32872.82
517.20	32936.02
517.37	32676.22
517.54	33275.40
517.72	32896.23
517.89	33273.06
518.06	32872.82
518.24	33287.10
518.41	33060.07
518.58	33116.24
518.75	33336.25
518.93	33408.81
519.10	33413.49
519.27	33291.78
519.45	33935.43
519.62	33647.54
519.79	33713.08
519.96	33383.06
520.14	33764.57
520.31	33937.77
520.48	34066.50
520.65	33979.90
520.83	34609.50
521.00	34623.54
521.17	34389.49
521.34	34600.14
521.52	34941.86
521.69	34918.45
521.86	34913.77
522.03	35077.61
522.20	34895.05
522.38	35260.17
522.55	35236.77
522.72	34878.66
522.89	35449.75
523.07	35372.52
523.24	35372.52
523.41	35466.14
523.58	35393.58
523.75	35859.35
523.92	35751.68
524.10	35618.27
524.27	35517.63
524.44	36180.00
524.61	35906.16
524.78	35917.86
524.96	36325.11
525.13	36065.31
525.30	36367.24
525.47	36184.68
525.64	36165.96
525.81	36521.72
525.98	36320.43
526.16	36292.35
526.33	36304.05
526.50	36662.15
526.67	36226.81
526.84	36910.25
527.01	36479.59
527.18	36978.12
527.36	36856.42
527.53	37038.98
527.70	37277.71
527.87	37226.22
528.04	37287.07
528.21	37434.53
528.38	37137.28
528.55	37687.31
528.72	36804.92
528.89	37607.73
529.07	37303.46
529.24	37324.52
529.41	37631.13
529.58	37352.61
529.75	37806.67
529.92	37462.61
530.09	37273.03
530.26	37811.35
530.43	38108.60
530.60	37801.99
530.77	37907.32
530.94	38066.47
531.11	37944.76
531.28	38024.34
531.46	38359.04
531.63	38483.09
531.80	38281.80
531.97	38731.18
532.14	38857.57
532.31	38064.13
532.48	38457.34
532.65	38869.28
532.82	38644.59
532.99	38522.88
533.16	38382.45
533.33	38885.66
533.50	39070.56
533.67	38705.44
533.84	38710.12
534.01	38892.68
534.18	38960.56
534.35	39264.83
534.52	39529.31
534.69	39789.11
534.86	39660.38
535.03	39419.30
535.20	39660.38
535.37	40009.12
535.54	39541.01
535.71	39622.93
535.88	39864.00
536.05	39746.98
536.22	39693.15
536.38	39938.90
536.55	39615.91
536.72	40074.65
536.89	39885.07
537.06	39966.99
537.23	40032.52
537.40	40112.10
537.57	40069.97
537.74	40072.31
537.91	40357.86
538.08	40226.79
538.25	39889.75
538.42	39716.55
538.59	40596.59
538.75	40308.71
538.92	40367.22
539.09	40884.48
539.26	40769.79
539.43	40383.60
539.60	41076.40
539.77	40952.35
539.94	40973.42
540.11	40928.95
540.28	40992.14
540.44	40584.89
540.61	40662.13
540.78	40666.81
540.95	40816.60
541.12	40598.93
541.29	40982.78
541.46	41275.35
541.62	41483.66
541.79	41696.64
541.96	40793.20
542.13	41015.55
542.30	41502.38
542.47	41867.50
542.63	41565.57
542.80	41392.37
542.97	41539.83
543.14	41706.01
543.31	41935.38
543.48	41771.54
543.64	42440.93
543.81	42241.99
543.98	41951.76
544.15	42206.88
544.32	42272.42
544.48	42422.21
544.65	42286.46
544.82	42351.99
544.99	42202.20
545.16	42216.24
545.32	42614.13
545.49	42618.81
545.66	42909.04
545.83	42646.90
546.00	42834.14
546.16	42920.74
546.33	42904.36
546.50	42546.26
546.67	42969.90
546.83	42164.75
547.00	42497.11
547.17	42670.31
547.34	42740.52
547.50	42993.30
547.67	43276.51
547.84	43002.66
548.00	43374.81
548.17	43358.42
548.34	43358.42
548.51	43217.99
548.67	43337.36
548.84	43309.27
549.01	43356.08
549.18	43320.98
549.34	43515.24
549.51	43313.95
549.68	43646.31
549.84	43304.59
550.01	43833.55
550.18	43463.75
550.34	43522.26
550.51	44013.77
550.68	43875.68
550.84	43344.38
551.01	44292.30
551.18	43704.82
551.34	43756.32
551.51	43796.10
551.68	44147.18
551.84	44098.03
552.01	43772.70
552.18	43756.32
552.34	43959.94
552.51	44093.35
552.68	44123.78
552.84	44062.93
553.01	44456.14
553.18	44091.01
553.34	44582.52
553.51	44411.67
553.67	44612.95
553.84	44671.46
554.01	44491.24
554.17	44411.67
554.34	44149.53
554.51	44531.03
554.67	44769.77
554.84	44554.44
555.00	44385.92
555.17	44484.22
555.33	44830.62
555.50	44650.40
555.67	44650.40
555.83	45034.25
556.00	45024.89
556.16	45542.14
556.33	44896.16
556.50	45258.94
556.66	45184.04
556.83	44718.28
556.99	45565.55
557.16	45668.53
557.32	45340.86
557.49	45593.64
557.65	45090.42
557.82	45071.70
557.98	45350.22
558.15	45336.18
558.32	45525.76
558.48	45043.61
558.65	45074.04
558.81	45432.14
558.98	45298.73
559.14	45467.25
559.31	45366.60
559.47	45291.71
559.64	45432.14
559.80	45392.35
559.97	45588.95
560.13	45397.03
560.30	45694.28
560.46	45949.40
560.63	45951.74
560.79	46129.62
560.96	45783.22
561.12	45352.56
561.29	46106.21
561.45	46110.89
561.61	45954.08
561.78	45727.05
561.94	45804.28
562.11	45663.85
562.27	45986.85
562.44	45855.78
562.60	45844.07
562.77	45565.55
562.93	46075.79
563.10	46312.18
563.26	45717.68
563.42	45900.25
563.59	46412.82
563.75	45825.35
563.92	45848.75
564.08	46031.32
564.24	46038.34
564.41	46099.19
564.57	45979.82
564.74	46354.31
564.90	46033.66
565.07	46171.75
565.23	46071.10
565.39	46370.69
565.56	46342.61
565.72	46050.04
565.88	46466.66
566.05	46288.77
566.21	46298.14
566.38	46450.27
566.54	46689.01
566.70	46621.13
566.87	46363.67
567.03	46387.08
567.19	46471.34
567.36	46513.47
567.52	46387.08
567.68	46639.86
567.85	46838.80
568.01	46658.58
568.17	46469.00
568.34	46576.66
568.50	46590.70
568.66	46204.52
568.83	46546.23
568.99	46412.82
569.15	46642.20
569.32	46586.02
569.48	46639.86
569.64	46934.76
569.81	46616.45
569.97	46616.45
570.13	47026.04
570.30	46241.96
570.46	46642.20
570.62	46693.69
570.78	47026.04
570.95	46693.69
571.11	46909.02
571.27	46597.73
571.43	46859.87
571.60	46997.96
571.76	46962.85
571.92	46740.50
572.09	46869.23
572.25	47241.37
572.41	46782.63
572.57	46663.26
572.74	47028.38
572.90	46958.17
573.06	47334.99
573.22	46960.51
573.38	47143.07
573.55	47131.37
573.71	47370.10
573.87	46831.78
574.03	47302.23
574.20	47440.32
574.36	47377.12
574.52	47206.26
574.68	46890.29
574.84	47143.07
575.01	47042.43
575.17	47693.10
575.33	47391.17
575.49	47016.68
575.65	47262.44
575.82	46625.81
575.98	47016.68
576.14	47503.51
576.30	47122.01
576.46	47445.00
576.62	47220.31
576.79	47475.43
576.95	46993.28
577.11	47358.40
577.27	47030.72
577.43	47112.64
577.59	47447.34
577.75	47161.79
577.92	46806.03
578.08	47091.58
578.24	47386.49
578.40	47782.04
578.56	47739.91
578.72	47365.42
578.88	47381.80
579.04	47395.85
579.21	47196.90
579.37	47164.14
579.53	46894.97
579.69	47522.24
579.85	47065.83
580.01	47180.52
580.17	47267.12
580.33	47702.46
580.49	47302.23
580.65	47304.57
580.82	47442.66
580.98	47533.94
581.14	46731.14
581.30	47168.82
581.46	47152.43
581.62	47264.78
581.78	46670.28
581.94	47613.52
582.10	47459.04
582.26	47262.44
582.42	47248.39
582.58	46958.17
582.74	47129.03
582.90	47665.01
583.06	47524.58
583.22	47136.05
583.38	47363.08
583.54	47526.92
583.70	47538.62
583.86	47585.43
584.02	47117.32
584.18	47650.97
584.34	47562.03
584.50	47421.59
584.66	47737.57
584.82	47625.22
584.98	48154.18
585.14	47746.93
585.30	47786.72
585.46	47526.92
585.62	47250.74
585.78	47746.93
585.94	46876.25
586.10	47309.25
586.26	47358.40
586.42	47112.64
586.58	47615.86
586.74	47543.30
586.90	47667.35
587.06	47342.02
587.22	47690.76
587.38	47398.19
587.54	48039.50
587.70	48032.47
587.86	47931.83
588.02	47461.38
588.18	47473.09
588.34	47669.69
588.49	47498.83
588.65	47760.97
588.81	47742.25
588.97	47292.86
589.13	47852.25
589.29	47309.25
589.45	47892.04
589.61	47716.50
589.77	48189.29
589.93	47636.92
590.08	48102.69
590.24	47791.40
590.40	48212.70
590.56	48612.93
590.72	48219.72
590.88	47732.89
591.04	47885.02
591.20	48140.14
591.35	48170.57
591.51	48165.88
591.67	48203.33
591.83	48275.89
591.99	48212.70
592.15	48158.86
592.31	47791.40
592.46	48067.58
592.62	48376.53
592.78	48296.95
592.94	48594.20
593.10	48720.59
593.26	48196.31
593.41	48273.55
593.57	48231.42
593.73	48240.78
593.89	48083.97
594.05	48266.53
594.20	48264.19
594.36	48486.54
594.52	48741.66
594.68	48119.07
594.84	47594.79
594.99	48521.65
595.15	48163.54
595.31	48186.95
595.47	48011.41
595.62	48369.51
595.78	47922.47
595.94	48198.65
596.10	48633.99
596.25	48603.56
596.41	48680.80
596.57	47980.98
596.73	48687.82
596.88	48495.90
597.04	48376.53
597.20	47950.56
597.36	48341.42
597.51	48147.16
597.67	48261.85
597.83	48210.35
597.99	48123.75
598.14	48172.91
598.30	48367.17
598.46	48657.40
598.61	48596.54
598.77	48729.95
598.93	48411.64
599.09	48182.27
599.24	48502.92
599.40	48151.84
599.56	48631.65
599.71	48673.78
599.87	48774.42
600.03	48315.68
600.18	48381.21
600.34	48561.44
600.50	48208.01
600.65	48093.33
600.81	48526.33
600.97	48486.54
601.12	48830.60
601.28	48474.84
601.44	48617.61
601.59	48676.12
601.75	48041.84
601.91	48844.64
602.06	48392.92
602.22	48545.05
602.37	48435.05
602.53	48540.37
602.69	48444.41
602.84	48563.78
603.00	48488.88
603.16	48477.18
603.31	48573.14
603.47	48996.77
603.62	48367.17
603.78	48643.35
603.94	48708.89
604.09	48332.06
604.25	48273.55
604.40	48444.41
604.56	48367.17
604.71	48769.74
604.87	48421.00
605.03	48526.33
605.18	48222.06
605.34	47992.68
605.49	48254.82
605.65	48392.92
605.80	48570.80
605.96	48589.52
606.12	48531.01
606.27	48512.28
606.43	48093.33
606.58	48631.65
606.74	48332.06
606.89	48292.27
607.05	48633.99
607.20	48734.63
607.36	48067.58
607.51	48254.82
607.67	48222.06
607.82	47866.30
607.98	48320.36
608.13	48486.54
608.29	48121.41
608.44	48250.14
608.60	47943.53
608.75	48425.68
608.91	48484.20
609.06	47847.57
609.22	48900.81
609.37	47573.73
609.53	48334.40
609.68	48439.73
609.84	47924.81
609.99	48100.35
610.15	47952.90
610.30	48428.02
610.46	48055.88
610.61	48175.25
610.76	48437.39
610.92	47480.11
611.07	47873.32
611.23	47714.16
611.38	47819.49
611.54	48308.66
611.69	47999.71
611.84	48399.94
612.00	47899.06
612.15	48018.43
612.31	48236.10
612.46	47711.82
612.62	47758.63
612.77	48203.33
612.92	48231.42
613.08	47847.57
613.23	48149.50
613.39	47360.74
613.54	47924.81
613.69	48367.17
613.85	47597.13
614.00	47543.30
614.15	47973.96
614.31	47763.31
614.46	47716.50
614.62	47709.48
614.77	47786.72
614.92	47880.34
615.08	48140.14
615.23	47908.43
615.38	47746.93
615.54	47550.32
615.69	47498.83
615.84	47608.84
616.00	47767.99
616.15	47870.98
616.30	47370.10
616.46	47732.89
616.61	47454.36
616.76	47707.14
616.92	47580.75
617.07	47281.16
617.22	47447.34
617.37	47063.49
617.53	47484.79
617.68	47496.49
617.83	47175.84
617.99	47557.35
618.14	47646.29
618.29	47243.71
618.45	47026.04
618.60	47552.66
618.75	46873.91
618.90	47089.24
619.06	47082.22
619.21	47419.25
619.36	47697.78
619.51	47304.57
619.67	46976.89
619.82	47339.68
619.97	47641.60
620.12	47107.96
620.28	47047.11
620.43	47533.94
620.58	47267.12
620.73	47416.91
620.89	46986.25
621.04	47143.07
621.19	47133.71
621.34	46850.50
621.49	46845.82
621.65	46862.21
621.80	47398.19
621.95	47131.37
622.10	46831.78
622.25	46777.95
622.41	46857.52
622.56	46766.24
622.71	47023.70
622.86	46944.12
623.01	46997.96
623.16	46831.78
623.32	46969.87
623.47	46988.60
623.62	46616.45
623.77	46824.76
623.92	47065.83
624.07	46473.68
624.23	46759.22
624.38	46555.60
624.53	46618.79
624.68	46192.81
624.83	46618.79
624.98	46831.78
625.13	46464.32
625.29	46476.02
625.44	45940.04
625.59	46136.64
625.74	46466.66
625.89	46340.27
626.04	46101.53
626.19	46176.43
626.34	46382.40
626.49	46087.49
626.65	45804.28
626.80	45820.67
626.95	45984.51
627.10	45696.62
627.25	46040.68
627.40	46752.20
627.55	46092.17
627.70	45820.67
627.85	46138.98
628.00	45904.93
628.15	46120.26
628.30	45588.95
628.45	45492.99
628.60	45366.60
628.76	45638.11
628.91	45944.72
629.06	45715.34
629.21	45649.81
629.36	45909.61
629.51	45925.99
629.66	45949.40
629.81	45464.91
629.96	45799.60
630.11	45818.33
630.26	45485.97
630.41	45703.64
630.56	45612.36
630.71	45830.03
630.86	45158.30
631.01	45392.35
631.16	45675.55
631.31	45265.96
631.46	45645.13
631.61	45404.05
631.76	45289.37
631.91	45558.53
632.06	45944.72
632.21	45354.90
632.36	45162.98
632.51	44935.95
632.66	45118.51
632.81	45354.90
632.96	45741.09
633.10	45139.57
633.25	45450.86
633.40	44966.37
633.55	44891.48
633.70	45272.98
633.85	44774.45
634.00	44734.66
634.15	44961.69
634.30	45191.06
634.45	45216.81
634.60	45235.53
634.75	45181.70
634.90	44821.26
635.05	45301.07
635.19	45022.54
635.34	44694.87
635.49	44690.19
635.64	44713.59
635.79	45120.85
635.94	44980.42
636.09	44737.00
636.24	44442.09
636.39	44788.49
636.53	44711.25
636.68	44566.14
636.83	44334.43
636.98	44315.70
637.13	44318.04
637.28	44416.35
637.43	44367.20
637.57	44914.88
637.72	44081.65
637.87	44189.31
638.02	44697.21
638.17	44556.78
638.32	44406.98
638.46	44123.78
638.61	44060.58
638.76	43828.87
638.91	44399.96
639.06	44128.46
639.20	43707.16
639.35	43807.81
639.50	43590.14
639.65	44343.79
639.80	44313.36
639.94	44381.24
640.09	44559.12
640.24	43985.69
640.39	43901.43
640.54	43299.91
640.68	43929.51
640.83	44327.41
640.98	43409.92
641.13	44105.06
641.27	44196.34
641.42	43758.66
641.57	43945.90
641.72	43725.89
641.86	43569.07
642.01	43849.94
642.16	43131.39
642.31	43487.15
642.45	43885.04
642.60	43262.46
642.75	43484.81
642.90	43508.22
643.04	43674.40
643.19	43353.74
643.34	43103.31
643.48	42974.58
643.63	43171.18
643.78	43398.21
643.93	43742.27
644.07	43585.46
644.22	43349.06
644.37	43131.39
644.51	43470.77
644.66	42972.24
644.81	43269.48
644.95	43196.93
645.10	43295.23
645.25	43503.54
645.39	42792.01
645.54	43180.54
645.69	42948.83
645.83	42911.38
645.98	42749.88
646.13	42806.06
646.27	42969.90
646.42	42831.80
646.57	42909.04
646.71	43040.11
646.86	43122.03
647.00	43269.48
647.15	42981.60
647.30	43086.92
647.44	42506.47
647.59	42859.89
647.74	42843.51
647.88	43056.50
648.03	43084.58
648.17	43194.59
648.32	43182.88
648.47	43026.07
648.61	42696.05
648.76	42574.34
648.90	42700.73
649.05	42602.43
649.20	42873.93
649.34	42897.34
649.49	42740.52
649.63	42541.58
649.78	42691.37
649.92	42391.78
650.07	43112.67
650.21	42635.20
650.36	42911.38
650.51	42763.93
650.65	42768.61
650.80	42541.58
650.94	42583.71
651.09	42499.45
651.23	41509.40
651.38	42426.89
651.52	41806.65
651.67	42127.30
651.81	42258.37
651.96	42370.72
652.10	42323.91
652.25	42029.00
652.39	41722.39
652.54	42117.94
652.68	41909.63
652.83	41940.06
652.97	42120.28
653.12	41820.69
653.26	41654.51
653.41	41680.26
653.55	41972.83
653.70	41972.83
653.84	41738.77
653.99	42316.89
654.13	41593.66
654.27	41645.15
654.42	41717.71
654.56	41469.61
654.71	42068.79
654.85	41914.31
655.00	41773.88
655.14	41797.29
655.29	41911.97
655.43	42096.88
655.57	41865.16
655.72	41504.72
655.86	41422.80
656.01	41237.90
656.15	41053.00
656.30	40950.01
656.44	41273.01
656.58	41460.25
656.73	41624.09
656.87	41390.03
657.01	41249.60
657.16	41654.51
657.30	41457.91
657.45	40802.56
657.59	41106.83
657.73	40940.65
657.88	41109.17
658.02	41177.04
658.16	41247.26
658.31	40889.16
658.45	40978.10
658.60	41305.77
658.74	40940.65
658.88	40512.33
659.03	40989.80
659.17	40411.69
659.31	40399.99
659.46	40488.93
659.60	40612.98
659.74	40177.64
659.89	40339.13
660.03	40072.31
660.17	40332.11
660.32	40259.55
660.46	40376.58
660.60	40004.44
660.74	39875.71
660.89	40456.16
661.03	39688.46
661.17	39690.80
661.32	39931.88
661.46	39950.60
661.60	39655.70
661.74	39615.91
661.89	39763.36
662.03	39943.58
662.17	39573.78
662.31	39445.05
662.46	39475.48
662.60	39445.05
662.74	39260.15
662.88	39225.04
663.03	39079.92
663.17	39112.69
663.31	39065.88
663.45	39356.11
663.60	39414.62
663.74	39531.65
663.88	39002.69
664.02	38822.47
664.17	39393.56
664.31	38815.44
664.45	38703.10
664.59	38572.03
664.73	39154.82
664.88	38864.60
665.02	38703.10
665.16	38616.50
665.30	38422.23
665.44	38473.73
665.59	38511.17
665.73	38148.39
665.87	38080.52
666.01	38047.75
666.15	38436.28
666.29	38288.82
666.44	37888.59
666.58	38382.45
666.72	37514.11
666.86	38106.26
667.00	37729.44
667.14	37773.91
667.28	37923.70
667.43	37928.38
667.57	37825.40
667.71	38061.79
667.85	37989.24
667.99	37282.39
668.13	37184.09
668.27	37401.76
668.41	37364.31
668.56	37273.03
668.70	37111.53
668.84	36872.80
668.98	37113.87
669.12	36692.58
669.26	36898.55
669.40	36797.90
669.54	36985.15
669.68	37024.93
669.82	36547.47
669.96	36140.21
670.10	36397.67
670.25	36760.45
670.39	36645.77
670.53	36634.06
670.67	36533.42
670.81	37095.15
670.95	36320.43
671.09	36355.54
671.23	35782.11
671.37	36264.26
671.51	35812.54
671.65	36271.28
671.79	35920.20
671.93	35580.82
672.07	35571.46
672.21	35674.45
672.35	35421.67
672.49	35323.36
672.63	35428.69
672.77	35201.66
672.91	35721.26
673.05	35222.72
673.19	35267.19
673.33	34981.65
673.47	34637.59
673.61	34562.69
673.75	34398.85
673.89	34955.90
674.03	34375.45
674.17	33989.26
674.31	33795.00
674.45	33958.83
674.59	34223.31
674.73	34003.30
674.87	34078.20
675.01	33780.95
675.15	33490.73
675.29	33645.20
675.43	33565.62
675.56	33813.72
675.70	33677.97
675.84	33181.77
675.98	32503.02
676.12	33359.66
676.26	33177.09
676.40	33233.27
676.54	32893.89
676.68	32889.21
676.82	32804.95
676.96	32847.08
677.10	32807.29
677.23	32575.58
677.37	32346.20
677.51	32393.01
677.65	32322.80
677.79	32173.00
677.93	32336.84
678.07	31978.74
678.21	32037.25
678.34	32048.96
678.48	31316.37
678.62	31566.81
678.76	31342.11
678.90	31555.10
679.04	31276.58
679.18	31646.38
679.31	31234.45
679.45	30813.15
679.59	31255.51
679.73	30927.84
679.87	30813.15
680.00	30934.86
680.14	30778.04
680.28	30754.64
680.42	30171.85
680.56	30120.35
680.70	30232.70
680.83	30082.91
680.97	30094.61
681.11	29986.94
681.25	29600.76
681.39	29584.37
681.52	29523.52
681.66	29172.44
681.80	28896.25
681.94	28835.40
682.07	28849.44
682.21	28819.02
682.35	28952.43
682.49	28936.04
682.62	28828.38
682.76	28629.43
682.90	28659.86
683.04	28526.45
683.17	28753.48
683.31	28142.60
683.45	28027.92
683.59	27843.01
683.72	27737.69
683.86	28341.55
684.00	27594.92
684.13	27852.38
684.27	27285.97
684.41	27655.77
684.55	27529.38
684.68	27393.63
684.82	27197.02
684.96	27028.51
685.09	27386.61
685.23	26972.33
685.37	27513.00
685.50	27190.00
685.64	26867.01
685.78	26700.83
685.91	26658.70
686.05	26349.75
686.19	26143.78
686.32	26497.20
686.46	25785.68
686.60	25584.40
686.73	25949.52
686.87	25696.74
687.01	25823.13
687.14	25687.38
687.28	25635.89
687.42	25455.67
687.55	25308.21
687.69	24992.24
687.82	24762.87
687.96	25252.04
688.10	25027.35
688.23	24755.85
688.37	24973.52
688.50	25261.40
688.64	25137.35
688.78	24676.27
688.91	24383.70
689.05	24706.70
689.18	24128.58
689.32	23768.14
689.46	23718.99
689.59	23978.79
689.73	23971.77
689.86	24243.27
690.00	23627.71
690.13	24093.47
690.27	23372.59
690.41	23583.24
690.54	23183.01
690.68	22984.06
690.81	23098.75
690.95	22796.82
691.08	22787.46
691.22	22824.90
691.35	22735.96
691.49	22869.37
691.62	22661.07
691.76	22279.56
691.89	22197.64
692.03	22089.98
692.16	21991.67
692.30	22026.78
692.43	21848.90
692.57	21928.48
692.70	21905.07
692.84	21921.46
692.97	21380.79
693.11	21273.13
693.24	21357.39
693.38	21242.70
693.51	21338.66
693.65	21130.36
693.78	20615.44
693.92	20954.82
694.05	20982.90
694.19	20837.79
694.32	20790.98
694.45	20957.16
694.59	20835.45
694.72	20676.29
694.86	20664.59
694.99	20273.72
695.13	20105.20
695.26	19992.86
695.39	19721.35
695.53	19503.68
695.66	20002.22
695.80	19690.93
695.93	19529.43
696.07	19360.91
696.20	19300.06
696.33	19459.21
696.47	18995.79
696.60	19302.40
696.73	19133.88
696.87	19042.60
697.00	18625.98
697.14	18860.04
697.27	18761.73
697.40	18750.03
697.54	18565.13
697.67	18452.78
697.80	18473.85
697.94	18373.21
698.07	18143.83
698.21	18026.81
698.34	18146.17
698.47	18125.11
698.61	17675.73
698.74	17633.60
698.87	17947.23
699.01	17617.21
699.14	17694.45
699.27	17399.54
699.40	17451.03
699.54	17280.18
699.67	17504.87
699.80	17156.13
699.94	16879.94
700.07	17188.89
700.20	16769.94
700.34	16652.91
700.47	16819.09
700.60	16978.25
700.73	16856.54
700.87	16369.71
701.00	16278.43
701.13	16332.26
701.26	16280.77
701.40	16531.20
701.53	16107.57
701.66	16156.72
701.79	16248.00
701.93	15679.25
702.06	15625.42
702.19	15697.97
702.32	15379.66
702.46	15850.11
702.59	15609.03
702.72	15569.24
702.85	15531.80
702.99	15506.05
703.12	15190.08
703.25	15147.95
703.38	15005.17
703.51	15161.99
703.65	14853.04
703.78	14705.59
703.91	14239.82
704.04	14588.56
704.17	14270.25
704.31	14490.26
704.44	14595.58
704.57	14380.25
704.70	14174.28
704.83	14230.46
704.96	14085.34
705.10	13987.04
705.23	14190.67
>>>>>End Processed Spectral Data<<<<<
