SpectraSuite Data File
++++++++++++++++++++++++++++++++++++
Date: Fri Oct 25 11:34:18 EDT 2013
User: price-jones
Dark Spectrum Present: No
Reference Spectrum Present: No
Number of Sampled Component Spectra: 1
Spectrometers: USB2+H05261
Integration Time (usec): 100000 (USB2+H05261)
Spectra Averaged: 1 (USB2+H05261)
Boxcar Smoothing: 0 (USB2+H05261)
Correct for Electrical Dark: No (USB2+H05261)
Strobe/Lamp Enabled: No (USB2+H05261)
Correct for Detector Non-linearity: No (USB2+H05261)
Correct for Stray Light: No (USB2+H05261)
Number of Pixels in Processed Spectrum: 2048
>>>>>Begin Processed Spectral Data<<<<<
365.73	203.63
365.92	203.63
366.12	203.63
366.32	173.20
366.52	208.31
366.72	222.35
366.91	166.18
367.11	112.35
367.31	168.52
367.51	196.60
367.70	191.92
367.90	156.82
368.10	245.76
368.30	184.90
368.49	208.31
368.69	224.69
368.89	210.65
369.09	168.52
369.28	224.69
369.48	220.01
369.68	248.10
369.87	224.69
370.07	250.44
370.27	196.60
370.47	294.91
370.66	512.58
370.86	512.58
371.06	566.41
371.25	519.60
371.45	543.00
371.65	580.45
371.84	531.30
372.04	543.00
372.24	603.86
372.44	540.66
372.63	561.73
372.83	650.67
373.03	573.43
373.22	629.60
373.42	662.37
373.62	615.56
373.81	660.03
374.01	638.97
374.21	685.78
374.40	667.05
374.60	629.60
374.79	643.65
374.99	704.50
375.19	608.54
375.38	667.05
375.58	638.97
375.78	674.07
375.97	603.86
376.17	741.95
376.37	664.71
376.56	664.71
376.76	636.63
376.95	638.97
377.15	667.05
377.35	678.76
377.54	676.41
377.74	753.65
377.93	645.99
378.13	748.97
378.33	657.69
378.52	650.67
378.72	688.12
378.91	662.37
379.11	636.63
379.31	702.16
379.50	641.31
379.70	758.33
379.89	744.29
380.09	730.25
380.28	702.16
380.48	737.27
380.68	812.17
380.87	716.20
381.07	664.71
381.26	720.88
381.46	734.93
381.65	784.08
381.85	695.14
382.04	681.10
382.24	753.65
382.43	718.54
382.63	758.33
382.83	664.71
383.02	833.23
383.22	837.91
383.41	774.72
383.61	777.06
383.80	823.87
384.00	777.06
384.19	816.85
384.39	795.78
384.58	746.63
384.78	791.10
384.97	938.55
385.17	793.44
385.36	840.25
385.56	856.64
385.75	873.02
385.95	840.25
386.14	891.74
386.34	777.06
386.53	807.48
386.72	798.12
386.92	889.40
387.11	826.21
387.31	847.27
387.50	870.68
387.70	880.04
387.89	929.19
388.09	933.87
388.28	896.43
388.48	924.51
388.67	858.98
388.86	858.98
389.06	868.34
389.25	926.85
389.45	896.43
389.64	905.79
389.84	997.07
390.03	980.68
390.22	1025.15
390.42	898.77
390.61	849.61
390.81	889.40
391.00	940.90
391.19	1025.15
391.39	978.34
391.58	1053.24
391.78	945.58
391.97	1020.47
392.16	1011.11
392.36	1062.60
392.55	1039.20
392.75	1057.92
392.94	1027.50
393.13	987.71
393.33	1057.92
393.52	1006.43
393.71	1083.67
393.91	1174.95
394.10	1060.26
394.29	1107.07
394.49	1055.58
394.68	1125.80
394.88	1060.26
395.07	1071.97
395.26	1081.33
395.46	1158.57
395.65	1109.41
395.84	1214.74
396.04	1270.91
396.23	1139.84
396.42	1184.31
396.62	1153.88
396.81	1193.67
397.00	1146.86
397.19	1219.42
397.39	1235.80
397.58	1184.31
397.77	1160.91
397.97	1191.33
398.16	1310.70
398.35	1277.93
398.55	1308.36
398.74	1238.14
398.93	1294.32
399.12	1294.32
399.32	1254.53
399.51	1296.66
399.70	1345.81
399.90	1338.79
400.09	1338.79
400.28	1352.83
400.47	1308.36
400.67	1469.86
400.86	1380.92
401.05	1364.53
401.24	1394.96
401.44	1376.24
401.63	1474.54
401.82	1401.98
402.01	1397.30
402.21	1526.03
402.40	1455.81
402.59	1444.11
402.78	1549.43
402.97	1610.29
403.17	1444.11
403.36	1502.62
403.55	1451.13
403.74	1530.71
403.93	1558.80
404.13	1537.73
404.32	1586.88
404.51	1533.05
404.70	1577.52
404.89	1598.59
405.09	1572.84
405.28	1645.40
405.47	1621.99
405.66	1598.59
405.85	1715.61
406.05	1729.66
406.24	1631.35
406.43	1729.66
406.62	1804.55
406.81	1877.11
407.00	1724.97
407.20	1720.29
407.39	1678.16
407.58	1839.66
407.77	1818.60
407.96	1912.22
408.15	1785.83
408.34	1956.69
408.54	1825.62
408.73	1851.36
408.92	1902.86
409.11	1870.09
409.30	1966.05
409.49	1898.17
409.68	1947.33
409.87	1970.73
410.07	1954.35
410.26	2029.24
410.45	1912.22
410.64	2104.14
410.83	2015.20
411.02	2101.80
411.21	2153.29
411.40	2111.16
411.59	2251.60
411.78	2167.34
411.98	2181.38
412.17	2146.27
412.36	2211.81
412.55	2246.91
412.74	2244.57
412.93	2314.79
413.12	2193.08
413.31	2324.15
413.50	2312.45
413.69	2263.30
413.88	2305.43
414.07	2464.58
414.26	2406.07
414.45	2565.23
414.64	2537.14
414.83	2443.52
415.02	2473.95
415.22	2562.89
415.41	2520.76
415.60	2513.74
415.79	2532.46
415.98	2759.49
416.17	2630.76
416.36	2534.80
416.55	2656.51
416.74	2626.08
416.93	2738.43
417.12	2773.53
417.31	2843.75
417.50	2731.41
417.69	2782.90
417.88	2745.45
418.07	2850.77
418.26	3002.91
418.45	2846.09
418.64	2925.67
418.83	3059.08
419.02	2890.56
419.21	3089.51
419.39	3162.06
419.58	2942.05
419.77	3026.31
419.96	3028.65
420.15	3110.57
420.34	3080.14
420.53	3136.32
420.72	3126.96
420.91	3251.00
421.10	3115.25
421.29	3162.06
421.48	3052.06
421.67	3171.43
421.86	3232.28
422.05	3215.90
422.24	3243.98
422.43	3241.64
422.61	3361.01
422.80	3461.65
422.99	3309.52
423.18	3346.97
423.37	3494.42
423.56	3201.85
423.75	3318.88
423.94	3251.00
424.13	3157.38
424.32	3211.22
424.50	3370.37
424.69	3445.27
424.88	3253.34
425.07	3267.39
425.26	3368.03
425.45	3321.22
425.64	3311.86
425.83	3353.99
426.01	3508.46
426.20	3342.28
426.39	3545.91
426.58	3342.28
426.77	3356.33
426.96	3585.70
427.15	3449.95
427.33	3431.23
427.52	3426.54
427.71	3506.12
427.90	3452.29
428.09	3557.61
428.28	3625.49
428.46	3538.89
428.65	3616.13
428.84	3679.32
429.03	3716.77
429.22	3625.49
429.40	3733.15
429.59	3688.68
429.78	3569.32
429.97	3496.76
430.16	3564.64
430.34	3777.62
430.53	3768.26
430.72	3599.74
430.91	3894.65
431.10	3721.45
431.28	3936.78
431.47	3829.12
431.66	3836.14
431.85	3801.03
432.03	4060.83
432.22	3955.51
432.41	3974.23
432.60	3838.48
432.79	3927.42
432.97	3939.12
433.16	4086.58
433.35	3878.27
433.54	4053.81
433.72	4142.75
433.91	4117.00
434.10	4070.19
434.28	4088.92
434.47	4084.23
434.66	4278.50
434.85	4212.96
435.03	4070.19
435.22	4126.36
435.41	4271.48
435.59	4283.18
435.78	4358.08
435.97	4351.06
436.16	4327.65
436.34	4325.31
436.53	4327.65
436.72	4365.10
436.90	4203.60
437.09	4238.71
437.28	4297.22
437.46	4428.29
437.65	4423.61
437.84	4594.47
438.02	4554.68
438.21	4449.36
438.40	4489.15
438.58	4641.28
438.77	4547.66
438.96	4606.17
439.14	4524.26
439.33	4805.12
439.52	4779.37
439.70	4685.75
439.89	4877.68
440.08	5025.13
440.26	4954.91
440.45	4856.61
440.63	5006.41
440.82	5022.79
441.01	5125.77
441.19	5004.07
441.38	5029.81
441.57	5224.08
441.75	5252.16
441.94	5217.05
442.12	5245.14
442.31	5191.31
442.50	5320.04
442.68	5287.27
442.87	5385.57
443.05	5420.68
443.24	5327.06
443.43	5231.10
443.61	5453.45
443.80	5408.98
443.98	5303.65
444.17	5170.24
444.35	5406.64
444.54	5327.06
444.73	5504.94
444.91	5469.83
445.10	5434.72
445.28	5446.43
445.47	5334.08
445.65	5451.11
445.84	5589.20
446.02	5640.69
446.21	5575.16
446.39	5584.52
446.58	5418.34
446.77	5507.28
446.95	5547.07
447.14	5591.54
447.32	5678.14
447.51	5584.52
447.69	5577.50
447.88	5544.73
448.06	5612.60
448.25	5469.83
448.43	5654.73
448.62	5584.52
448.80	5537.71
448.99	5706.23
449.17	5851.34
449.36	5769.42
449.54	5771.76
449.73	6069.01
449.91	5989.43
450.10	5944.96
450.28	5989.43
450.46	6064.33
450.65	5975.39
450.83	5951.98
451.02	5944.96
451.20	6038.58
451.39	5921.56
451.57	5881.77
451.76	6141.57
451.94	5893.47
452.13	6136.88
452.31	6195.40
452.49	6031.56
452.68	6141.57
452.86	6101.78
453.05	6263.27
453.23	6169.65
453.42	6230.51
453.60	6237.53
453.78	6265.61
453.97	6111.14
454.15	6211.78
454.34	6113.48
454.52	6347.53
454.70	6436.47
454.89	6214.12
455.07	6382.64
455.26	6471.58
455.44	6532.44
455.62	6513.71
455.81	6555.84
455.99	6478.60
456.17	6490.31
456.36	6555.84
456.54	6644.78
456.73	6764.15
456.91	6764.15
457.09	6918.62
457.28	6862.45
457.46	6836.70
457.64	6836.70
457.83	6885.86
458.01	6899.90
458.19	7077.78
458.38	7023.95
458.56	6984.16
458.74	6817.98
458.93	6913.94
459.11	6909.26
459.29	6988.84
459.48	7023.95
459.66	7089.48
459.84	7185.44
460.03	7204.17
460.21	7124.59
460.39	7110.55
460.57	7204.17
460.76	7473.33
460.94	7143.32
461.12	7234.60
461.31	7155.02
461.49	7232.26
461.67	7288.43
461.85	7480.35
462.04	7442.90
462.22	7716.75
462.40	7545.89
462.59	7569.29
462.77	7585.68
462.95	7562.27
463.13	7590.36
463.32	7569.29
463.50	7602.06
463.68	7625.47
463.86	7487.37
464.05	7592.70
464.23	7655.89
464.41	8011.65
464.59	7585.68
464.78	7894.63
464.96	7751.85
465.14	7658.23
465.32	8042.08
465.50	7850.16
465.69	7911.01
465.87	7875.90
466.05	7894.63
466.23	7960.16
466.41	7913.35
466.60	8109.96
466.78	8011.65
466.96	7999.95
467.14	7896.97
467.32	8095.91
467.51	8091.23
467.69	7859.52
467.87	8217.62
468.05	8318.26
468.23	7992.93
468.41	8116.98
468.60	8126.34
468.78	8336.99
468.96	8058.46
469.14	8271.45
469.32	8510.19
469.50	8376.78
469.69	8603.81
469.87	8325.29
470.05	8416.57
470.23	8437.63
470.41	8454.02
470.59	8475.08
470.77	8531.25
470.95	8498.49
471.14	8777.01
471.32	8554.66
471.50	8788.71
471.68	8688.07
471.86	8702.11
472.04	8809.78
472.22	9015.74
472.40	8709.13
472.58	9130.43
472.77	9149.15
472.95	8973.61
473.13	9376.19
473.31	9210.01
473.49	9252.14
473.67	9270.86
473.85	9071.92
474.03	9446.40
474.21	9514.28
474.39	9430.02
474.57	9481.51
474.75	9521.30
474.93	9628.96
475.12	9476.83
475.30	9603.22
475.48	9628.96
475.66	9619.60
475.84	9720.24
476.02	9958.98
476.20	9970.68
476.38	10097.07
476.56	10136.86
476.74	10272.61
476.92	10188.35
477.10	10174.31
477.28	10326.44
477.46	10366.23
477.64	10560.50
477.82	10586.24
478.00	10895.19
478.18	10764.12
478.36	10796.89
478.54	11159.67
478.72	11033.29
478.90	11150.31
479.08	11557.57
479.26	11323.51
479.44	11250.96
479.62	11337.56
479.80	11435.86
479.98	11571.61
480.16	11852.47
480.34	11651.19
480.52	11840.77
480.70	11796.30
480.88	11836.09
481.06	11756.51
481.24	11918.01
481.41	12152.06
481.59	12404.84
481.77	12248.02
481.95	12624.85
482.13	12556.97
482.31	12723.15
482.49	12884.65
482.67	12924.44
482.85	12961.89
483.03	13088.28
483.21	13392.55
483.39	13259.13
483.57	13626.60
483.74	13448.72
483.92	13502.55
484.10	13727.24
484.28	13678.09
484.46	13977.68
484.64	14157.90
484.82	13680.43
485.00	14064.28
485.18	14225.78
485.35	14511.32
485.53	14654.09
485.71	14588.56
485.89	14977.09
486.07	14885.81
486.25	15035.60
486.43	15159.65
486.61	15243.91
486.78	15314.13
486.96	15531.80
487.14	15812.66
487.32	15744.78
487.50	15770.53
487.68	16152.04
487.85	16102.89
488.03	16549.93
488.21	16435.24
488.39	16547.59
488.57	16425.88
488.75	16655.25
488.92	16992.29
489.10	16793.34
489.28	17177.19
489.46	17003.99
489.64	17163.15
489.81	17621.89
489.99	17884.03
490.17	17490.82
490.35	17710.83
490.53	17818.50
490.70	18153.20
490.88	17734.24
491.06	18347.46
491.24	18391.93
491.41	18384.91
491.59	18607.26
491.77	18408.31
491.95	18773.44
492.13	18941.96
492.30	19040.26
492.48	18939.62
492.66	19206.44
492.84	19372.61
493.01	19723.69
493.19	19447.51
493.37	19751.78
493.54	19557.52
493.72	19826.68
493.90	19924.98
494.08	19857.10
494.25	20297.13
494.43	20119.24
494.61	20290.10
494.79	20634.16
494.96	20709.06
495.14	21111.63
495.32	21125.68
495.49	21348.03
495.67	20985.24
495.85	21436.97
496.02	21392.50
496.20	21556.33
496.38	21769.32
496.55	21745.92
496.73	22464.46
496.91	22162.53
497.09	22230.41
497.26	22445.74
497.44	22522.98
497.62	22361.48
497.79	22604.89
497.97	22520.63
498.14	22731.28
498.32	23077.68
498.50	22995.76
498.67	22918.53
498.85	23075.34
499.03	23063.64
499.20	23545.79
499.38	23374.93
499.56	23473.23
499.73	23557.49
499.91	23728.35
500.08	23964.75
500.26	23821.97
500.44	24149.65
500.61	24004.53
500.79	23356.21
500.97	24184.76
501.14	24444.56
501.32	24503.07
501.49	24739.46
501.67	24650.52
501.84	24964.15
502.02	24631.80
502.20	24898.62
502.37	25074.16
502.55	25074.16
502.72	24989.90
502.90	25455.67
503.07	25418.22
503.25	25263.74
503.43	25102.25
503.60	25441.62
503.78	25635.89
503.95	25598.44
504.13	25773.98
504.30	25979.95
504.48	25874.62
504.65	26157.83
504.83	26309.96
505.01	26469.12
505.18	26478.48
505.36	26417.63
505.53	26506.57
505.71	26169.53
505.88	26632.96
506.06	26455.08
506.23	27112.77
506.41	26766.37
506.58	26834.24
506.76	26843.60
506.93	26888.07
507.11	27159.58
507.28	27339.80
507.46	27346.82
507.63	27674.49
507.81	27756.41
507.98	27541.08
508.16	27845.35
508.33	27618.32
508.50	27850.03
508.68	28154.30
508.85	28231.54
509.03	27791.52
509.20	28086.43
509.38	28570.92
509.55	28051.32
509.73	28477.30
509.90	28437.51
510.08	28444.53
510.25	28400.06
510.42	28732.42
510.60	28582.62
510.77	28980.51
510.95	29137.33
511.12	28730.08
511.30	29095.20
511.47	28893.91
511.64	28870.51
511.82	29434.58
511.99	29376.06
512.17	29724.80
512.34	29322.23
512.51	29881.62
512.69	29937.79
512.86	29745.87
513.04	30012.69
513.21	29743.53
513.38	30073.54
513.56	29886.30
513.73	30183.55
513.90	30103.97
514.08	30277.17
514.25	30649.32
514.43	30731.23
514.60	30871.67
514.77	30700.81
514.95	30597.82
515.12	30632.93
515.29	30827.20
515.47	30976.99
515.64	31346.79
515.81	31007.42
515.99	31098.70
516.16	31964.70
516.33	31274.24
516.51	31342.11
516.68	31199.34
516.85	31515.31
517.03	31402.97
517.20	31775.11
517.37	31314.03
517.54	31702.56
517.72	31608.93
517.89	31711.92
518.06	32257.26
518.24	31927.25
518.41	31700.22
518.58	32191.73
518.75	32163.64
518.93	32336.84
519.10	32182.37
519.27	32636.43
519.45	32196.41
519.62	32793.25
519.79	32659.84
519.96	32514.72
520.14	33132.62
520.31	32636.43
520.48	32643.45
520.65	33167.73
520.83	33640.52
521.00	33397.10
521.17	33046.02
521.34	33202.84
521.52	33467.32
521.69	33422.85
521.86	33638.18
522.03	33397.10
522.20	33996.28
522.38	33998.62
522.55	34071.18
522.72	33329.23
522.89	34157.78
523.07	33991.60
523.24	33778.61
523.41	34272.46
523.58	34188.21
523.75	34368.43
523.92	33813.72
524.10	34345.02
524.27	34925.47
524.44	34822.49
524.61	34611.84
524.78	34448.00
524.96	34813.13
525.13	34644.61
525.30	34726.53
525.47	35248.47
525.64	35306.98
525.81	34665.67
525.98	35267.19
526.16	35360.81
526.33	35194.64
526.50	35728.28
526.67	35267.19
526.84	35711.89
527.01	35285.92
527.18	34969.94
527.36	36002.12
527.53	35395.92
527.70	35866.37
527.87	36226.81
528.04	35999.78
528.21	35950.63
528.38	35786.79
528.55	36039.57
528.72	36002.12
528.89	36233.83
529.07	36079.36
529.24	35962.33
529.41	36114.47
529.58	36247.88
529.75	36584.91
529.92	36762.79
530.09	36521.72
530.26	36622.36
530.43	36715.98
530.60	36201.07
530.77	36439.80
530.94	36947.70
531.11	36418.74
531.28	37174.73
531.46	36926.63
531.63	37081.11
531.80	36959.40
531.97	37085.79
532.14	37064.72
532.31	36765.14
532.48	37247.29
532.65	37354.95
532.82	37420.48
532.99	37427.51
533.16	37502.40
533.33	37780.93
533.50	37376.01
533.67	37921.36
533.84	37088.13
534.01	37497.72
534.18	37188.77
534.35	37748.16
534.52	38007.96
534.69	38246.69
534.86	37785.61
535.03	38162.43
535.20	38190.52
535.37	38157.75
535.54	38651.61
535.71	38459.68
535.88	38368.40
536.05	38106.26
536.22	38375.42
536.38	38387.13
536.55	38565.01
536.72	38614.16
536.89	38679.69
537.06	38504.15
537.23	38717.14
537.40	38609.48
537.57	38675.01
537.74	38471.39
537.91	38941.83
538.08	39281.21
538.25	38508.83
538.42	38983.96
538.59	39196.95
538.75	39297.59
538.92	39002.69
539.09	39393.56
539.26	39302.28
539.43	39150.14
539.60	39374.83
539.77	39384.19
539.94	39524.63
540.11	39571.44
540.28	39777.40
540.44	39496.54
540.61	39339.72
540.78	39526.97
540.95	39587.82
541.12	39531.65
541.29	39409.94
541.46	39817.19
541.62	40374.24
541.79	39892.09
541.96	39660.38
542.13	39426.32
542.30	39828.90
542.47	40364.88
542.63	40259.55
542.80	40128.48
542.97	40650.42
543.14	40486.59
543.31	40538.08
543.48	40713.62
543.64	40772.13
543.81	40964.06
543.98	40760.43
544.15	40919.59
544.32	40737.02
544.48	40835.33
544.65	41071.72
544.82	41148.96
544.99	40781.49
545.16	40950.01
545.32	41074.06
545.49	40912.56
545.66	41385.35
545.83	41008.53
546.00	41366.63
546.16	41188.75
546.33	40851.71
546.50	40891.50
546.67	42033.68
546.83	41275.35
547.00	41448.55
547.17	41212.15
547.34	41165.34
547.50	41603.02
547.67	42213.90
547.84	41736.43
548.00	41860.48
548.17	42183.48
548.34	41858.14
548.51	41785.58
548.67	41904.95
548.84	42267.73
549.01	41914.31
549.18	42286.46
549.34	41808.99
549.51	42129.64
549.68	41921.34
549.84	42181.13
550.01	42036.02
550.18	42033.68
550.34	41989.21
550.51	42302.84
550.68	42452.64
550.84	41947.08
551.01	42375.40
551.18	42321.57
551.34	41998.57
551.51	42871.59
551.68	42469.02
551.84	42359.02
552.01	42363.70
552.18	42590.73
552.34	42604.77
552.51	42106.24
552.68	42698.39
552.84	42794.36
553.01	42829.46
553.18	42712.44
553.34	42644.56
553.51	42988.62
553.67	43082.24
553.84	43210.97
554.01	42920.74
554.17	42890.32
554.34	43194.59
554.51	43110.33
554.67	43367.79
554.84	43402.89
555.00	43229.69
555.17	42892.66
555.33	43391.19
555.50	43393.53
555.67	43309.27
555.83	43119.69
556.00	43173.52
556.16	43732.91
556.33	43182.88
556.50	43629.93
556.66	43246.08
556.83	43344.38
556.99	43786.74
557.16	43636.95
557.32	43655.67
557.49	44163.57
557.65	43421.62
557.82	43487.15
557.98	43737.59
558.15	43922.49
558.32	43737.59
558.48	43962.28
558.65	43632.27
558.81	43896.75
558.98	44020.80
559.14	43929.51
559.31	43810.15
559.47	43728.23
559.64	43978.67
559.80	44186.97
559.97	44205.70
560.13	43817.17
560.30	44069.95
560.46	44601.25
560.63	44037.18
560.79	44327.41
560.96	44760.40
561.12	44308.68
561.29	44538.05
561.45	45240.21
561.61	44058.24
561.78	44011.43
561.94	43812.49
562.11	44299.32
562.27	44299.32
562.44	44378.90
562.60	44418.69
562.77	44334.43
562.93	44399.96
563.10	44690.19
563.26	44198.68
563.42	45067.02
563.59	44547.42
563.75	44526.35
563.92	44683.17
564.08	44528.69
564.24	44996.80
564.41	44619.97
564.57	44598.91
564.74	44931.26
564.90	44444.43
565.07	44725.30
565.23	44706.57
565.39	44828.28
565.56	45130.21
565.72	44617.63
565.88	44980.42
566.05	44650.40
566.21	45518.74
566.38	44610.61
566.54	45151.27
566.70	45560.87
566.87	44814.24
567.03	44479.54
567.19	45411.07
567.36	45083.40
567.52	44774.45
567.68	45237.87
567.85	44729.98
568.01	45294.05
568.17	44844.66
568.34	45317.45
568.50	44938.29
568.66	44725.30
568.83	45265.96
568.99	44856.37
569.15	44999.14
569.32	45151.27
569.48	45020.20
569.64	45385.33
569.81	45230.85
569.97	45371.28
570.13	45141.91
570.30	45240.21
570.46	45244.90
570.62	45549.17
570.78	45151.27
570.95	44973.39
571.11	45404.05
571.27	45219.15
571.43	45340.86
571.60	45539.80
571.76	45287.03
571.92	45240.21
572.09	45642.79
572.25	45162.98
572.41	45336.18
572.57	45394.69
572.74	45830.03
572.90	45237.87
573.06	45186.38
573.22	45586.61
573.38	45605.34
573.55	45729.39
573.71	45633.42
573.87	45823.01
574.03	45450.86
574.20	46087.49
574.36	45588.95
574.52	45804.28
574.68	45649.81
574.84	45375.97
575.01	45521.08
575.17	45904.93
575.33	45551.51
575.49	45635.77
575.65	46080.47
575.82	45771.52
575.98	45139.57
576.14	45720.02
576.30	45691.94
576.46	45474.27
576.62	45799.60
576.79	45350.22
576.95	45258.94
577.11	45656.83
577.27	45687.26
577.43	45853.44
577.59	45825.35
577.75	45551.51
577.92	45315.11
578.08	45883.86
578.24	45361.92
578.40	45888.54
578.56	45783.22
578.72	45581.93
578.88	45998.55
579.04	45790.24
579.21	45834.71
579.37	46019.61
579.53	45677.90
579.69	45724.71
579.85	45827.69
580.01	45507.04
580.17	45654.49
580.33	45710.66
580.49	45230.85
580.65	46066.42
580.82	45972.80
580.98	45523.42
581.14	45661.51
581.30	45968.12
581.46	45911.95
581.62	45949.40
581.78	45893.22
581.94	46054.72
582.10	45827.69
582.26	45937.69
582.42	46237.28
582.58	45663.85
582.74	45801.94
582.90	45890.88
583.06	45965.78
583.22	45923.65
583.38	46412.82
583.54	45710.66
583.70	45975.14
583.86	46082.81
584.02	45787.90
584.18	46644.54
584.34	45841.73
584.50	46188.13
584.66	46089.83
584.82	45930.67
584.98	46195.15
585.14	45844.07
585.30	45858.12
585.46	46162.39
585.62	46124.94
585.78	46024.29
585.94	45586.61
586.10	46162.39
586.26	45708.32
586.42	45860.46
586.58	46150.68
586.74	45834.71
586.90	46052.38
587.06	45879.18
587.22	46007.91
587.38	46157.70
587.54	46202.18
587.70	46443.25
587.86	46473.68
588.02	45886.20
588.18	46054.72
588.34	46040.68
588.49	46162.39
588.65	45893.22
588.81	46291.12
588.97	46279.41
589.13	46033.66
589.29	45804.28
589.45	46380.06
589.61	46050.04
589.77	46263.03
589.93	46443.25
590.08	46672.62
590.24	46513.47
590.40	46366.01
590.56	46342.61
590.72	46466.66
590.88	46199.83
591.04	46340.27
591.20	46588.36
591.35	46866.89
591.51	46941.78
591.67	47009.66
591.83	46787.31
591.99	46344.95
592.15	46279.41
592.31	46586.02
592.46	46108.55
592.62	46529.85
592.78	46712.41
592.94	46677.30
593.10	46838.80
593.26	47302.23
593.41	46557.94
593.57	46656.24
593.73	46557.94
593.89	47159.45
594.05	46822.42
594.20	47089.24
594.36	47103.28
594.52	46693.69
594.68	46588.36
594.84	46698.37
594.99	46988.60
595.15	46651.56
595.31	47323.29
595.47	46574.32
595.62	46609.43
595.78	46656.24
595.94	46632.83
596.10	46581.34
596.25	46473.68
596.41	46859.87
596.57	46595.38
596.73	47297.55
596.88	46965.19
597.04	46873.91
597.20	46988.60
597.36	46686.67
597.51	47019.02
597.67	46384.74
597.83	46487.72
597.99	47129.03
598.14	46288.77
598.30	46773.27
598.46	46852.84
598.61	47138.39
598.77	47131.37
598.93	46761.56
599.09	46937.10
599.24	47505.85
599.40	47100.94
599.56	47012.00
599.71	47494.15
599.87	47344.36
600.03	47260.10
600.18	47000.30
600.34	47093.92
600.50	46902.00
600.65	47035.41
600.81	47416.91
600.97	47042.43
601.12	46813.05
601.28	47337.33
601.44	46742.84
601.59	46426.87
601.75	46904.34
601.91	47255.42
602.06	46880.93
602.22	47117.32
602.37	47229.67
602.53	46883.27
602.69	47154.77
602.84	46674.96
603.00	46948.81
603.16	47182.86
603.31	46827.10
603.47	47374.78
603.62	47185.20
603.78	47318.61
603.94	47096.26
604.09	46770.93
604.25	47000.30
604.40	46951.15
604.56	46579.00
604.71	47068.17
604.87	46693.69
605.03	46674.96
605.18	46909.02
605.34	46944.12
605.49	46485.38
605.65	46857.52
605.80	47119.66
605.96	46871.57
606.12	46983.91
606.27	46841.14
606.43	46611.77
606.58	46972.21
606.74	46883.27
606.89	47075.19
607.05	47264.78
607.20	46939.44
607.36	46681.98
607.51	46658.58
607.67	46597.73
607.82	46756.88
607.98	46799.01
608.13	46492.40
608.29	47166.48
608.44	46773.27
608.60	46506.44
608.75	46637.51
608.91	46918.38
609.06	46384.74
609.22	46742.84
609.37	46459.63
609.53	47035.41
609.68	46461.97
609.84	46923.06
609.99	46700.71
610.15	46756.88
610.30	46410.48
610.46	46707.73
610.61	46553.26
610.76	46476.02
610.92	46347.29
611.07	46277.07
611.23	45986.85
611.38	46323.88
611.54	46827.10
611.69	46831.78
611.84	46810.71
612.00	46586.02
612.15	46312.18
612.31	46429.21
612.46	46192.81
612.62	46150.68
612.77	46309.84
612.92	46579.00
613.08	46560.28
613.23	46419.84
613.39	46368.35
613.54	46263.03
613.69	46405.80
613.85	46127.28
614.00	46583.68
614.15	46213.88
614.31	45970.46
614.46	46216.22
614.62	46197.49
614.77	46188.13
614.92	46120.26
615.08	46129.62
615.23	46066.42
615.38	46569.64
615.54	46234.94
615.69	46293.46
615.84	46155.36
616.00	46354.31
616.15	46244.30
616.30	46019.61
616.46	46073.45
616.61	46321.54
616.76	46085.15
616.92	45645.13
617.07	46162.39
617.22	45710.66
617.37	45839.39
617.53	45422.78
617.68	46129.62
617.83	46012.59
617.99	46178.77
618.14	46021.95
618.29	45794.92
618.45	45696.62
618.60	45654.49
618.75	45848.75
618.90	45881.52
619.06	45720.02
619.21	46195.15
619.36	45911.95
619.51	45448.52
619.67	45794.92
619.82	45368.94
619.97	45900.25
620.12	45682.58
620.28	45577.25
620.43	45525.76
620.58	45233.19
620.73	45888.54
620.89	45654.49
621.04	46047.70
621.19	45581.93
621.34	45715.34
621.49	45551.51
621.65	45820.67
621.80	45586.61
621.95	45813.65
622.10	45546.82
622.25	45315.11
622.41	45198.09
622.56	44893.82
622.71	44989.78
622.86	44816.58
623.01	45525.76
623.16	45352.56
623.32	45043.61
623.47	44741.68
623.62	45158.30
623.77	45254.26
623.92	45305.75
624.07	45116.17
624.23	45186.38
624.38	45059.99
624.53	44938.29
624.68	44858.71
624.83	44760.40
624.98	44814.24
625.13	44591.89
625.29	44884.45
625.44	44772.11
625.59	44783.81
625.74	45329.16
625.89	44402.30
626.04	44945.31
626.19	44643.38
626.34	44645.72
626.49	44533.37
626.65	44107.40
626.80	44266.55
626.95	44128.46
627.10	44563.80
627.25	44612.95
627.40	44418.69
627.55	44615.29
627.70	44456.14
627.85	44381.24
628.00	44329.75
628.15	44547.42
628.30	44044.20
628.45	43777.38
628.60	43934.20
628.76	44341.45
628.91	44318.04
629.06	43938.88
629.21	43971.64
629.36	44109.74
629.51	44018.46
629.66	44552.10
629.81	44191.65
629.96	44252.51
630.11	43997.39
630.26	43772.70
630.41	44170.59
630.56	44086.33
630.71	44048.88
630.86	44179.95
631.01	43522.26
631.16	43770.36
631.31	43812.49
631.46	43629.93
631.61	44233.78
631.76	43725.89
631.91	43770.36
632.06	43763.34
632.21	44065.27
632.36	44243.15
632.51	43480.13
632.66	43882.70
632.81	43643.97
632.96	44065.27
633.10	43491.83
633.25	43550.35
633.40	43438.00
633.55	44236.12
633.70	43791.42
633.85	43711.84
634.00	43098.62
634.15	43119.69
634.30	43189.91
634.45	43447.36
634.60	43023.73
634.75	43201.61
634.90	43461.41
635.05	43704.82
635.19	43669.72
635.34	43583.12
635.49	43531.62
635.64	43440.34
635.79	43367.79
635.94	43463.75
636.09	43555.03
636.24	42810.74
636.39	42932.45
636.53	42941.81
636.68	43007.34
636.83	42557.96
636.98	42497.11
637.13	42913.72
637.28	43079.90
637.43	42841.17
637.57	43241.40
637.72	42490.09
637.87	42820.10
638.02	42937.13
638.17	42796.70
638.32	42820.10
638.46	42380.08
638.61	42167.09
638.76	42450.30
638.91	42670.31
639.06	42864.57
639.20	42480.72
639.35	42213.90
639.50	42431.57
639.65	42328.59
639.80	42913.72
639.94	42579.03
640.09	42712.44
640.24	42679.67
640.39	42007.94
640.54	42139.00
640.68	42190.50
640.83	42621.16
640.98	41916.65
641.13	42380.08
641.27	42230.29
641.42	42330.93
641.57	42328.59
641.72	42167.09
641.86	41968.15
642.01	42286.46
642.16	41872.18
642.31	41677.92
642.45	42499.45
642.60	41888.57
642.75	41586.64
642.90	42206.88
643.04	41610.04
643.19	41806.65
643.34	41727.07
643.48	41624.09
643.63	41832.39
643.78	42068.79
643.93	42195.18
644.07	42148.37
644.22	42274.76
644.37	41574.94
644.51	41750.48
644.66	41844.10
644.81	41516.42
644.95	41940.06
645.10	41633.45
645.25	41427.48
645.39	41488.34
645.54	41202.79
645.69	41258.96
645.83	41207.47
645.98	41626.43
646.13	41223.86
646.27	41331.52
646.42	41038.95
646.57	41567.91
646.71	41535.15
646.86	41806.65
647.00	41216.83
647.15	41574.94
647.30	41514.08
647.44	41125.55
647.59	41436.84
647.74	41045.97
647.88	41219.17
648.03	41390.03
648.17	41645.15
648.32	41413.44
648.47	41542.17
648.61	41151.30
648.76	41109.17
648.90	40704.26
649.05	41280.03
649.20	41172.36
649.34	40919.59
649.49	41076.40
649.63	40783.83
649.78	41172.36
649.92	40477.22
650.07	41324.50
650.21	41303.43
650.36	41015.55
650.51	40849.37
650.65	40671.49
650.80	40875.12
650.94	40811.92
651.09	40760.43
651.23	40603.61
651.38	40238.49
651.52	40203.38
651.67	40767.45
651.81	40524.04
651.96	39864.00
652.10	40495.95
652.25	40292.32
652.39	40308.71
652.54	40935.97
652.68	40313.39
652.83	40128.48
652.97	40266.58
653.12	40339.13
653.26	40432.75
653.41	40245.51
653.55	40306.37
653.70	40093.38
653.84	39880.39
653.99	40472.54
654.13	40116.78
654.27	40327.43
654.42	40177.64
654.56	40039.54
654.71	40617.66
654.85	40404.67
655.00	40231.47
655.14	39995.07
655.29	40072.31
655.43	40016.14
655.57	39948.26
655.72	39889.75
655.86	39793.79
656.01	39812.51
656.15	39988.05
656.30	40037.20
656.44	39594.84
656.58	39798.47
656.73	39971.67
656.87	39276.53
657.01	39091.63
657.16	39903.79
657.30	39723.57
657.45	39349.09
657.59	39353.77
657.73	39248.44
657.88	39718.89
658.02	39531.65
658.16	39840.60
658.31	39288.23
658.45	39578.46
658.60	39267.17
658.74	39655.70
658.88	39583.14
659.03	39103.33
659.17	39129.08
659.31	38756.93
659.46	39028.43
659.60	39213.34
659.74	38850.55
659.89	38457.34
660.03	38714.80
660.17	38869.28
660.32	38689.06
660.46	38930.13
660.60	38478.41
660.74	38565.01
660.89	38770.97
661.03	38469.04
661.17	38181.16
661.32	38375.42
661.46	38445.64
661.60	38302.87
661.74	38057.11
661.89	38267.76
662.03	38082.86
662.17	38242.01
662.31	37991.58
662.46	38176.48
662.60	37696.67
662.74	37944.76
662.88	37464.96
663.03	37684.97
663.17	37771.57
663.31	37570.28
663.45	37593.68
663.60	38148.39
663.74	37832.42
663.88	37837.10
664.02	37226.22
664.17	37677.94
664.31	37024.93
664.45	36847.05
664.59	37055.36
664.73	37387.72
664.88	37263.67
665.02	36896.20
665.16	36825.99
665.30	37282.39
665.44	37163.03
665.59	36711.30
665.73	37060.04
665.87	36421.08
666.01	36884.50
666.15	36910.25
666.29	36282.98
666.44	36856.42
666.58	36891.52
666.72	36517.04
666.86	36477.25
667.00	36381.29
667.14	36549.81
667.28	36318.09
667.43	36205.75
667.57	36671.51
667.71	36046.59
667.85	36327.45
667.99	36481.93
668.13	36037.23
668.27	35571.46
668.41	36226.81
668.56	35241.45
668.70	35431.03
668.84	35299.96
668.98	35515.29
669.12	35587.85
669.26	35405.28
669.40	35386.56
669.54	35709.55
669.68	35779.77
669.82	35103.35
669.96	34733.55
670.10	34740.57
670.25	34864.62
670.39	35084.63
670.53	35140.80
670.67	34836.53
670.81	35494.22
670.95	35133.78
671.09	34897.39
671.23	34302.89
671.37	34838.87
671.51	34602.48
671.65	34506.52
671.79	34171.82
671.93	34506.52
672.07	34504.18
672.21	34345.02
672.35	33811.38
672.49	34354.38
672.63	33816.06
672.77	33834.78
672.91	34113.31
673.05	33717.76
673.19	33560.94
673.33	33472.00
673.47	33675.63
673.61	33174.75
673.75	33149.01
673.89	33490.73
674.03	33078.79
674.17	32790.91
674.31	32910.27
674.45	32966.45
674.59	33088.15
674.73	32786.22
674.87	32423.44
675.01	32428.12
675.15	32313.44
675.29	32467.91
675.43	32620.05
675.56	32346.20
675.70	32173.00
675.84	32524.08
675.98	31056.57
676.12	32098.11
676.26	32313.44
676.40	31747.03
676.54	31857.03
676.68	31601.91
676.82	31035.50
676.96	31566.81
677.10	31658.09
677.23	31786.82
677.37	31122.10
677.51	31192.32
677.65	31414.67
677.79	31075.29
677.93	30623.57
678.07	31037.84
678.21	30485.48
678.34	30057.16
678.48	30326.32
678.62	29993.97
678.76	30157.80
678.90	30073.54
679.04	30263.13
679.18	30082.91
679.31	29780.98
679.45	30160.14
679.59	29694.38
679.73	30141.42
679.87	29635.86
680.00	29544.58
680.14	29450.96
680.28	29322.23
680.42	29195.84
680.56	29006.26
680.70	29228.61
680.83	28811.99
680.97	28842.42
681.11	28573.26
681.25	28704.33
681.39	28570.92
681.52	28751.14
681.66	28311.12
681.80	28116.86
681.94	27723.65
682.07	27880.46
682.21	27796.20
682.35	28072.39
682.49	27969.40
682.62	27651.09
682.76	27564.49
682.90	27700.24
683.04	27517.68
683.17	27040.21
683.31	27447.46
683.45	27112.77
683.59	26597.85
683.72	26717.22
683.86	26391.88
684.00	26558.06
684.13	26733.60
684.27	26499.55
684.41	26529.97
684.55	26459.76
684.68	26345.07
684.82	25738.87
684.96	26008.03
685.09	26195.28
685.23	26258.47
685.37	26228.04
685.50	26153.15
685.64	25834.83
685.78	25771.64
685.91	25671.00
686.05	24830.74
686.19	24826.06
686.32	25158.42
686.46	25048.41
686.60	24856.49
686.73	25006.28
686.87	24702.01
687.01	24673.93
687.14	24643.50
687.28	24538.18
687.42	24393.06
687.55	24339.23
687.69	24098.16
687.82	23880.49
687.96	23817.29
688.10	23765.80
688.23	24060.71
688.37	24301.78
688.50	23976.45
688.64	23786.86
688.78	23374.93
688.91	23360.89
689.05	23426.42
689.18	23061.30
689.32	22813.20
689.46	22735.96
689.59	23084.70
689.73	22970.02
689.86	23159.60
690.00	22817.88
690.13	22904.48
690.27	22384.88
690.41	22471.48
690.54	22504.25
690.68	22480.85
690.81	21940.18
690.95	22005.72
691.08	22279.56
691.22	21935.50
691.35	21755.28
691.49	21720.17
691.62	21731.87
691.76	21387.82
691.89	21460.37
692.03	21062.48
692.16	21018.01
692.30	21226.32
692.43	21280.15
692.57	21181.85
692.70	20837.79
692.84	20896.30
692.97	20521.82
693.11	20482.03
693.24	20636.50
693.38	20680.97
693.51	20327.55
693.65	20273.72
693.78	19903.92
693.92	20016.26
694.05	19789.23
694.19	19964.77
694.32	19899.23
694.45	20208.19
694.59	19772.85
694.72	19541.13
694.86	19611.35
694.99	19487.30
695.13	19234.52
695.26	19264.95
695.39	18923.23
695.53	19000.47
695.66	19082.39
695.80	18888.12
695.93	18895.14
696.07	18558.11
696.20	18277.24
696.33	18242.14
696.47	18157.88
696.60	18553.43
696.73	18412.99
696.87	18359.16
697.00	18120.43
697.14	18132.13
697.27	17844.24
697.40	17792.75
697.54	17640.62
697.67	17921.48
697.80	17778.71
697.94	17694.45
698.07	17413.59
698.21	17607.85
698.34	17343.37
698.47	17453.37
698.61	17020.38
698.74	17067.19
698.87	16760.58
699.01	16697.38
699.14	16933.78
699.27	16732.49
699.40	17020.38
699.54	16645.89
699.67	16772.28
699.80	16444.60
699.94	16329.92
700.07	16695.04
700.20	16561.63
700.34	16355.66
700.47	16182.46
700.60	15974.16
700.73	16128.63
700.87	15798.62
701.00	15527.11
701.13	15868.83
701.26	15566.90
701.40	15227.53
701.53	15332.85
701.66	15281.36
701.79	15344.55
701.93	15126.88
702.06	14853.04
702.19	15021.56
702.32	15103.48
702.46	15199.44
702.59	15129.22
702.72	15150.29
702.85	15035.60
702.99	14803.89
703.12	14672.82
703.25	14654.09
703.38	14490.26
703.51	14464.51
703.65	14150.88
703.78	14356.85
703.91	14216.41
704.04	14047.90
704.17	13877.04
704.31	13879.38
704.44	13839.59
704.57	13858.31
704.70	13628.94
704.83	13675.75
704.96	13678.09
705.10	13404.25
705.23	13493.19
>>>>>End Processed Spectral Data<<<<<
