SpectraSuite Data File
++++++++++++++++++++++++++++++++++++
Date: Fri Oct 25 10:44:34 EDT 2013
User: price-jones
Dark Spectrum Present: No
Reference Spectrum Present: No
Number of Sampled Component Spectra: 1
Spectrometers: USB2+H05261
Integration Time (usec): 100000 (USB2+H05261)
Spectra Averaged: 1 (USB2+H05261)
Boxcar Smoothing: 0 (USB2+H05261)
Correct for Electrical Dark: No (USB2+H05261)
Strobe/Lamp Enabled: No (USB2+H05261)
Correct for Detector Non-linearity: No (USB2+H05261)
Correct for Stray Light: No (USB2+H05261)
Number of Pixels in Processed Spectrum: 2048
>>>>>Begin Processed Spectral Data<<<<<
365.73	243.42
365.92	243.42
366.12	243.42
366.32	30.43
366.52	32.77
366.72	0.00
366.91	25.75
367.11	21.06
367.31	4.68
367.51	0.00
367.70	0.00
367.90	93.62
368.10	7.02
368.30	32.77
368.49	79.58
368.69	65.54
368.89	58.51
369.09	28.09
369.28	23.41
369.48	49.15
369.68	35.11
369.87	79.58
370.07	4.68
370.27	58.51
370.47	166.18
370.66	358.10
370.86	435.34
371.06	425.98
371.25	468.11
371.45	475.13
371.65	543.00
371.84	470.45
372.04	442.36
372.24	430.66
372.44	479.81
372.63	498.53
372.83	498.53
373.03	475.13
373.22	472.79
373.42	496.19
373.62	557.05
373.81	528.96
374.01	533.64
374.21	531.30
374.40	470.45
374.60	547.69
374.79	606.20
374.99	557.05
375.19	538.32
375.38	575.77
375.58	606.20
375.78	540.66
375.97	613.22
376.17	636.63
376.37	610.88
376.56	664.71
376.76	585.13
376.95	571.09
377.15	643.65
377.35	566.41
377.54	603.86
377.74	561.73
377.93	599.18
378.13	624.92
378.33	631.94
378.52	622.58
378.72	657.69
378.91	650.67
379.11	585.13
379.31	528.96
379.50	669.39
379.70	671.73
379.89	655.35
380.09	681.10
380.28	594.50
380.48	636.63
380.68	688.12
380.87	650.67
381.07	765.36
381.26	653.01
381.46	699.82
381.65	627.26
381.85	723.23
382.04	641.31
382.24	650.67
382.43	648.33
382.63	603.86
382.83	678.76
383.02	704.50
383.22	699.82
383.41	699.82
383.61	645.99
383.80	847.27
384.00	713.86
384.19	800.46
384.39	699.82
384.58	770.04
384.78	770.04
384.97	840.25
385.17	777.06
385.36	748.97
385.56	819.19
385.75	660.03
385.95	690.46
386.14	711.52
386.34	758.33
386.53	755.99
386.72	837.91
386.92	837.91
387.11	828.55
387.31	800.46
387.50	798.12
387.70	765.36
387.89	830.89
388.09	828.55
388.28	891.74
388.48	793.44
388.67	844.93
388.86	819.19
389.06	917.49
389.25	863.66
389.45	910.47
389.64	882.38
389.84	985.37
390.03	901.11
390.22	898.77
390.42	968.98
390.61	1020.47
390.81	912.81
391.00	926.85
391.19	1027.50
391.39	1029.84
391.58	1006.43
391.78	964.30
391.97	950.26
392.16	976.00
392.36	1001.75
392.55	915.15
392.75	985.37
392.94	973.66
393.13	997.07
393.33	1011.11
393.52	980.68
393.71	1001.75
393.91	980.68
394.10	1060.26
394.29	1018.13
394.49	1078.99
394.68	1043.88
394.88	1104.73
395.07	1142.18
395.26	1081.33
395.46	1177.29
395.65	1095.37
395.84	1123.46
396.04	1217.08
396.23	1118.78
396.42	1111.75
396.62	1008.77
396.81	1149.20
397.00	1069.62
397.19	1179.63
397.39	1214.74
397.58	1254.53
397.77	1200.69
397.97	1383.26
398.16	1303.68
398.35	1252.19
398.55	1350.49
398.74	1331.76
398.93	1343.47
399.12	1334.11
399.32	1306.02
399.51	1315.38
399.70	1287.29
399.90	1397.30
400.09	1465.18
400.28	1462.83
400.47	1495.60
400.67	1619.65
400.86	1647.74
401.05	1528.37
401.24	1451.13
401.44	1570.50
401.63	1554.12
401.82	1502.62
402.01	1502.62
402.21	1568.16
402.40	1540.07
402.59	1551.78
402.78	1469.86
402.97	1526.03
403.17	1614.97
403.36	1528.37
403.55	1582.20
403.74	1797.53
403.93	1685.19
404.13	1661.78
404.32	1664.12
404.51	1664.12
404.70	1659.44
404.89	1722.63
405.09	1802.21
405.28	1834.98
405.47	1820.94
405.66	1645.40
405.85	1736.68
406.05	1743.70
406.24	1802.21
406.43	1844.34
406.62	1865.41
406.81	1860.73
407.00	1769.44
407.20	1877.11
407.39	1865.41
407.58	1963.71
407.77	1895.83
407.96	1914.56
408.15	2010.52
408.34	1926.26
408.54	2019.88
408.73	2001.16
408.92	2017.54
409.11	2026.90
409.30	2143.93
409.49	2069.03
409.68	1952.01
409.87	2043.29
410.07	2106.48
410.26	2122.87
410.45	2176.70
410.64	2148.61
410.83	2275.00
411.02	2249.25
411.21	2342.88
411.40	2289.04
411.59	2237.55
411.78	2356.92
411.98	2314.79
412.17	2436.50
412.36	2504.37
412.55	2382.67
412.74	2506.71
412.93	2504.37
413.12	2377.98
413.31	2471.61
413.50	2523.10
413.69	2668.21
413.88	2679.91
414.07	2614.38
414.26	2693.96
414.45	2677.57
414.64	2644.81
414.83	2789.92
415.02	2733.75
415.22	2785.24
415.41	2848.43
415.60	2827.37
415.79	2731.41
415.98	2918.65
416.17	3061.42
416.36	2808.64
416.55	2883.54
416.74	2949.08
416.93	2998.23
417.12	2916.31
417.31	2953.76
417.50	3002.91
417.69	3166.74
417.88	3183.13
418.07	3145.68
418.26	3133.98
418.45	3112.91
418.64	3194.83
418.83	3239.30
419.02	3159.72
419.21	3288.45
419.39	3335.26
419.58	3162.06
419.77	3330.58
419.96	3300.16
420.15	3487.40
420.34	3262.71
420.53	3293.13
420.72	3330.58
420.91	3531.87
421.10	3555.27
421.29	3452.29
421.48	3581.02
421.67	3487.40
421.86	3438.25
422.05	3452.29
422.24	3363.35
422.43	3475.70
422.61	3609.11
422.80	3487.40
422.99	3545.91
423.18	3592.72
423.37	3501.44
423.56	3559.95
423.75	3733.15
423.94	3592.72
424.13	3386.76
424.32	3358.67
424.50	3501.44
424.69	3606.77
424.88	3606.77
425.07	3503.78
425.26	3534.21
425.45	3634.85
425.64	3735.50
425.83	3618.47
426.01	3702.73
426.20	3627.83
426.39	3756.56
426.58	3707.41
426.77	3625.49
426.96	3791.67
427.15	3665.28
427.33	3744.86
427.52	3669.96
427.71	3824.44
427.90	3726.13
428.09	3756.56
428.28	3988.27
428.46	3775.28
428.65	3906.35
428.84	3960.19
429.03	3964.87
429.22	3824.44
429.40	3777.62
429.59	3730.81
429.78	3782.31
429.97	3721.45
430.16	3784.65
430.34	3899.33
430.53	3866.56
430.72	3948.48
430.91	3808.05
431.10	3915.72
431.28	4025.72
431.47	4074.87
431.66	4381.48
431.85	4016.36
432.03	4149.77
432.22	4152.11
432.41	4271.48
432.60	4234.03
432.79	4269.14
432.97	4498.51
433.16	4311.27
433.35	4283.18
433.54	4252.75
433.72	4365.10
433.91	4292.54
434.10	4341.69
434.28	4444.68
434.47	4472.76
434.66	4379.14
434.85	4496.17
435.03	4552.34
435.22	4526.60
435.41	4638.94
435.59	4599.15
435.78	4514.89
435.97	4692.77
436.16	4554.68
436.34	4606.17
436.53	4744.27
436.72	4800.44
436.90	4765.33
437.09	4762.99
437.28	4641.28
437.46	4685.75
437.65	4887.04
437.84	4685.75
438.02	4678.73
438.21	4718.52
438.40	4795.76
438.58	4875.34
438.77	5034.49
438.96	4938.53
439.14	5097.69
439.33	5048.54
439.52	5193.65
439.70	5137.48
439.89	5320.04
440.08	5275.57
440.26	5291.95
440.45	5188.97
440.63	5275.57
440.82	5521.32
441.01	5348.12
441.19	5432.38
441.38	5502.60
441.57	5387.91
441.75	5575.16
441.94	5682.82
442.12	5757.72
442.31	5825.59
442.50	5834.96
442.68	5746.02
442.87	5717.93
443.05	5825.59
443.24	5893.47
443.43	5720.27
443.61	5834.96
443.80	6122.84
443.98	5799.85
444.17	5647.71
444.35	5951.98
444.54	6197.74
444.73	5865.38
444.91	5872.40
445.10	5944.96
445.28	5959.00
445.47	5865.38
445.65	6012.84
445.84	5984.75
446.02	6127.52
446.21	5989.43
446.39	5996.45
446.58	6239.87
446.77	6134.54
446.95	5907.51
447.14	5996.45
447.32	6160.29
447.51	5973.05
447.69	5994.11
447.88	5968.37
448.06	6085.39
448.25	6080.71
448.43	6005.81
448.62	6272.64
448.80	6134.54
448.99	6230.51
449.17	6150.93
449.36	6031.56
449.54	6279.66
449.73	6392.00
449.91	6310.08
450.10	6282.00
450.28	6626.06
450.46	6572.22
450.65	6766.49
450.83	6656.48
451.02	6724.36
451.20	6459.88
451.39	6569.88
451.57	6555.84
451.76	6289.02
451.94	6729.04
452.13	6689.25
452.31	6532.44
452.49	6576.91
452.68	6604.99
452.86	6593.29
453.05	6836.70
453.23	6745.42
453.42	6839.05
453.60	6738.40
453.78	6754.79
453.97	6609.67
454.15	6827.34
454.34	6644.78
454.52	6965.43
454.70	7052.03
454.89	6829.68
455.07	7073.10
455.26	7089.48
455.44	7068.42
455.62	6953.73
455.81	7110.55
455.99	6927.99
456.17	7007.56
456.36	7117.57
456.54	7169.06
456.73	7452.27
456.91	7576.31
457.09	7405.46
457.28	7686.32
457.46	7433.54
457.64	7527.16
457.83	7300.13
458.01	7365.67
458.19	7625.47
458.38	7630.15
458.56	7524.82
458.74	7831.43
458.93	7412.48
459.11	7719.09
459.29	7651.21
459.48	7508.44
459.66	7480.35
459.84	7651.21
460.03	7691.00
460.21	7894.63
460.39	7702.70
460.57	7618.44
460.76	7730.79
460.94	7941.44
461.12	7964.84
461.31	8046.76
461.49	7875.90
461.67	7920.37
461.85	8154.43
462.04	7995.27
462.22	8198.90
462.40	8011.65
462.59	7920.37
462.77	8035.06
462.95	8145.06
463.13	8065.49
463.32	8215.28
463.50	8327.63
463.68	8407.20
463.86	8177.83
464.05	8360.39
464.23	8079.53
464.41	8498.49
464.59	8327.63
464.78	8430.61
464.96	8336.99
465.14	8411.89
465.32	8414.23
465.50	8355.71
465.69	8409.54
465.87	8580.40
466.05	8575.72
466.23	8510.19
466.41	8608.49
466.60	8732.54
466.78	8685.73
466.96	8430.61
467.14	8479.76
467.32	8638.92
467.51	8704.45
467.69	8475.08
467.87	8674.03
468.05	8774.67
468.23	8671.68
468.41	8545.30
468.60	8683.39
468.78	8784.03
468.96	8596.79
469.14	8894.04
469.32	9100.00
469.50	8681.05
469.69	8952.55
469.87	9104.68
470.05	9050.85
470.23	8947.87
470.41	9181.92
470.59	9303.63
470.77	9069.58
470.95	9025.11
471.14	9324.69
471.32	9233.41
471.50	9544.70
471.68	9502.58
471.86	9437.04
472.04	9310.65
472.22	9846.63
472.40	9469.81
472.58	9453.42
472.77	9694.50
472.95	9764.72
473.13	10052.60
473.31	9715.56
473.49	9699.18
473.67	9809.19
473.85	9874.72
474.03	10029.20
474.21	10015.15
474.39	10326.44
474.57	10188.35
474.75	10291.34
474.93	10410.70
475.12	10410.70
475.30	10420.06
475.48	10258.57
475.66	10506.66
475.84	10106.43
476.02	10464.54
476.20	10401.34
476.38	10796.89
476.56	10970.09
476.74	11023.92
476.92	10773.49
477.10	11037.97
477.28	11176.06
477.46	11075.42
477.64	11337.56
477.82	11382.03
478.00	11646.51
478.18	11407.77
478.36	11470.97
478.54	11665.23
478.72	11850.13
478.90	11971.84
479.08	11960.14
479.26	12194.19
479.44	12074.82
479.62	12217.60
479.80	12226.96
479.98	12379.09
480.16	12688.04
480.34	12446.97
480.52	12800.39
480.70	12711.45
480.88	12327.60
481.06	12840.18
481.24	12809.75
481.41	13032.10
481.59	13174.88
481.77	13376.16
481.95	13394.89
482.13	13530.64
482.31	13551.70
482.49	13776.39
482.67	13858.31
482.85	13626.60
483.03	14094.71
483.21	13991.72
483.39	14368.55
483.57	14181.31
483.74	14525.36
483.92	14387.27
484.10	14516.00
484.28	14516.00
484.46	14937.30
484.64	15365.62
484.82	14719.63
485.00	15007.52
485.18	15435.83
485.35	15199.44
485.53	15087.09
485.71	15372.64
485.89	15585.63
486.07	15239.23
486.25	15644.14
486.43	15917.98
486.61	15922.66
486.78	16133.31
486.96	16358.00
487.14	16610.78
487.32	16243.32
487.50	16636.53
487.68	16652.91
487.85	17018.04
488.03	17048.46
488.21	17317.62
488.39	17369.12
488.57	17486.14
488.75	17481.46
488.92	17532.95
489.10	17965.95
489.28	17944.89
489.46	17961.27
489.64	18073.62
489.81	18904.51
489.99	18623.64
490.17	18895.14
490.35	19133.88
490.53	19051.96
490.70	18958.34
490.88	18948.98
491.06	19419.42
491.24	19250.91
491.41	19243.88
491.59	19456.87
491.77	19269.63
491.95	19513.05
492.13	19594.96
492.30	19810.29
492.48	20049.03
492.66	20318.19
492.84	20264.36
493.01	20336.91
493.19	20355.64
493.37	20776.94
493.54	20624.80
493.72	20833.11
493.90	21083.55
494.08	21200.57
494.25	21469.73
494.43	21752.94
494.61	21462.71
494.79	21689.74
494.96	21727.19
495.14	21481.44
495.32	22075.93
495.49	21893.37
495.67	22019.76
495.85	22544.04
496.02	22623.62
496.20	22712.56
496.38	22654.05
496.55	22794.48
496.73	23454.51
496.91	23225.14
497.09	23300.03
497.26	23349.18
497.44	23030.87
497.62	23573.88
497.79	23665.16
497.97	23791.55
498.14	23658.14
498.32	23704.95
498.50	24098.16
498.67	24240.93
498.85	24219.86
499.03	24283.06
499.20	24418.81
499.38	24594.35
499.56	24648.18
499.73	24741.80
499.91	24865.85
500.08	24980.54
500.26	24809.68
500.44	24865.85
500.61	25090.54
500.79	24907.98
500.97	24982.88
501.14	25357.36
501.32	25432.26
501.49	25301.19
501.67	25448.64
501.84	25692.06
502.02	25483.75
502.20	26010.37
502.37	25989.31
502.55	26085.27
502.72	26410.60
502.90	26328.69
503.07	26120.38
503.25	26338.05
503.43	26221.02
503.60	26363.79
503.78	26534.65
503.95	26492.52
504.13	26764.03
504.30	26817.86
504.48	26630.62
504.65	27012.12
504.83	27063.61
505.01	26813.18
505.18	27278.94
505.36	27894.50
505.53	27255.54
505.71	27847.69
505.88	27400.65
506.06	27505.98
506.23	27733.01
506.41	27775.14
506.58	27620.66
506.76	28009.19
506.93	28287.71
507.11	27871.10
507.28	27938.97
507.46	28243.24
507.63	28276.01
507.81	28238.56
507.98	27917.91
508.16	28407.08
508.33	28790.93
508.50	28952.43
508.68	28865.83
508.85	29113.92
509.03	28929.02
509.20	29406.49
509.38	29465.00
509.55	29055.41
509.73	29699.06
509.90	29404.15
510.08	29420.53
510.25	29549.26
510.42	29809.06
510.60	29895.66
510.77	29809.06
510.95	29876.94
511.12	29832.47
511.30	30651.66
511.47	30424.62
511.64	30132.06
511.82	30218.66
511.99	30206.95
512.17	30148.44
512.34	30419.94
512.51	30661.02
512.69	30661.02
512.86	30719.53
513.04	30850.60
513.21	31042.53
513.38	30918.48
513.56	30829.54
513.73	30663.36
513.90	31030.82
514.08	31084.65
514.25	31496.59
514.43	31393.61
514.60	31475.52
514.77	31470.84
514.95	31735.32
515.12	31374.88
515.29	31630.00
515.47	31798.52
515.64	32060.66
515.81	31695.53
515.99	31878.10
516.16	32208.11
516.33	31644.04
516.51	31864.05
516.68	31882.78
516.85	31779.79
517.03	32121.51
517.20	32060.66
517.37	32470.25
517.54	32381.31
517.72	32554.51
517.89	32205.77
518.06	32453.87
518.24	32753.46
518.41	32556.85
518.58	32746.44
518.75	32591.96
518.93	32851.76
519.10	32835.38
519.27	33385.40
519.45	33233.27
519.62	33200.50
519.79	33298.80
519.96	33364.34
520.14	33462.64
520.31	33607.75
520.48	33390.08
520.65	33827.76
520.83	33748.18
521.00	33893.30
521.17	34263.10
521.34	33991.60
521.52	33968.19
521.69	34246.72
521.86	34314.59
522.03	34469.07
522.20	34522.90
522.38	34246.72
522.55	34223.31
522.72	34227.99
522.89	34361.40
523.07	34817.81
523.24	34457.37
523.41	35037.82
523.58	34480.77
523.75	35227.40
523.92	35189.95
524.10	35222.72
524.27	35452.09
524.44	34998.03
524.61	35241.45
524.78	35335.07
524.96	35426.35
525.13	35501.25
525.30	35676.79
525.47	35810.20
525.64	35639.34
525.81	36020.84
525.98	35842.96
526.16	35487.20
526.33	35487.20
526.50	35543.38
526.67	35276.55
526.84	36079.36
527.01	35545.72
527.18	35756.36
527.36	36383.63
527.53	36231.49
527.70	36371.92
527.87	36430.44
528.04	37055.36
528.21	36905.57
528.38	36868.12
528.55	36854.08
528.72	37013.23
528.89	36687.90
529.07	36788.54
529.24	36341.50
529.41	36718.32
529.58	36868.12
529.75	36959.40
529.92	36921.95
530.09	37191.11
530.26	37179.41
530.43	37141.96
530.60	37090.47
530.77	37064.72
530.94	37064.72
531.11	36809.61
531.28	37481.34
531.46	37481.34
531.63	37507.08
531.80	37280.05
531.97	37434.53
532.14	37703.69
532.31	37507.08
532.48	37493.04
532.65	38134.35
532.82	37530.49
532.99	38057.11
533.16	37736.46
533.33	38309.89
533.50	38457.34
533.67	38277.12
533.84	37748.16
534.01	37773.91
534.18	38101.58
534.35	38340.32
534.52	38146.05
534.69	38438.62
534.86	38660.97
535.03	37900.29
535.20	38719.48
535.37	38918.43
535.54	39002.69
535.71	38859.91
535.88	38813.10
536.05	38483.09
536.22	38829.49
536.38	38965.24
536.55	38642.24
536.72	38972.26
536.89	38560.33
537.06	38979.28
537.23	38993.32
537.40	39061.20
537.57	38913.75
537.74	38817.78
537.91	39594.84
538.08	38972.26
538.25	39093.97
538.42	38906.73
538.59	39463.77
538.75	38988.64
538.92	39229.72
539.09	39695.49
539.26	39318.66
539.43	39739.96
539.60	39634.63
539.77	38871.62
539.94	39629.95
540.11	39180.57
540.28	39297.59
540.44	39161.84
540.61	39936.56
540.78	39810.17
540.95	39852.30
541.12	39292.91
541.29	39707.19
541.46	39580.80
541.62	40048.91
541.79	40224.45
541.96	40133.17
542.13	39976.35
542.30	40053.59
542.47	40069.97
542.63	40605.95
542.80	40203.38
542.97	40671.49
543.14	40711.28
543.31	40650.42
543.48	40561.48
543.64	41633.45
543.81	40910.22
543.98	40807.24
544.15	41092.79
544.32	40856.39
544.48	41003.85
544.65	41226.20
544.82	41036.61
544.99	41130.23
545.16	41235.56
545.32	40701.92
545.49	41614.72
545.66	41347.90
545.83	41219.17
546.00	41174.70
546.16	41223.86
546.33	41034.27
546.50	41443.87
546.67	41474.29
546.83	41273.01
547.00	41764.52
547.17	41071.72
547.34	41235.56
547.50	41106.83
547.67	41591.32
547.84	41851.12
548.00	41827.71
548.17	41907.29
548.34	41691.96
548.51	42298.16
548.67	41940.06
548.84	42082.83
549.01	42157.73
549.18	42136.66
549.34	41706.01
549.51	42052.41
549.68	42501.79
549.84	42237.31
550.01	42522.85
550.18	42029.00
550.34	41933.04
550.51	42326.25
550.68	42031.34
550.84	42047.72
551.01	42550.94
551.18	41914.31
551.34	42183.48
551.51	42607.11
551.68	42436.25
551.84	42052.41
552.01	42314.55
552.18	42579.03
552.34	42256.03
552.51	42611.79
552.68	42462.00
552.84	43166.50
553.01	42782.65
553.18	42815.42
553.34	42593.07
553.51	42623.50
553.67	42787.33
553.84	43320.98
554.01	42546.26
554.17	42859.89
554.34	43061.18
554.51	43021.39
554.67	42838.83
554.84	43000.32
555.00	42988.62
555.17	42754.57
555.33	42829.46
555.50	42787.33
555.67	42763.93
555.83	42611.79
556.00	43199.27
556.16	43253.10
556.33	43051.81
556.50	43070.54
556.66	43215.65
556.83	43316.29
556.99	43433.32
557.16	43185.22
557.32	43358.42
557.49	43594.82
557.65	43330.34
557.82	43124.37
557.98	43400.55
558.15	43529.28
558.32	43161.82
558.48	43234.38
558.65	43402.89
558.81	43503.54
558.98	43512.90
559.14	43426.30
559.31	43381.83
559.47	43517.58
559.64	44065.27
559.80	43697.80
559.97	44236.12
560.13	43358.42
560.30	43391.19
560.46	43634.61
560.63	43548.01
560.79	43995.05
560.96	43625.25
561.12	43840.57
561.29	43894.41
561.45	44133.14
561.61	43281.19
561.78	43985.69
561.94	43847.60
562.11	43674.40
562.27	43721.21
562.44	44133.14
562.60	43957.60
562.77	43604.18
562.93	43536.30
563.10	44264.21
563.26	43496.52
563.42	44083.99
563.59	43409.92
563.75	43484.81
563.92	44011.43
564.08	44439.75
564.24	44222.08
564.41	44236.12
564.57	43981.01
564.74	43810.15
564.90	44065.27
565.07	43959.94
565.23	44243.15
565.39	44371.88
565.56	44395.28
565.72	44046.54
565.88	44411.67
566.05	43746.95
566.21	44388.26
566.38	44439.75
566.54	44121.44
566.70	44182.29
566.87	44418.69
567.03	44074.63
567.19	44179.95
567.36	44790.83
567.52	44456.14
567.68	44208.04
567.85	44238.47
568.01	44437.41
568.17	44634.02
568.34	44013.77
568.50	44439.75
568.66	44072.29
568.83	44105.06
568.99	44189.31
569.15	44182.29
569.32	43969.30
569.48	44091.01
569.64	44781.47
569.81	44395.28
569.97	44271.23
570.13	44299.32
570.30	43969.30
570.46	43978.67
570.62	44123.78
570.78	44168.25
570.95	44179.95
571.11	44587.21
571.27	44460.82
571.43	43938.88
571.60	44460.82
571.76	44280.60
571.92	44458.48
572.09	44364.85
572.25	44334.43
572.41	44673.81
572.57	44877.43
572.74	44624.65
572.90	44561.46
573.06	44669.12
573.22	44715.93
573.38	44626.99
573.55	44524.01
573.71	44664.44
573.87	44631.68
574.03	44116.76
574.20	44727.64
574.36	44486.56
574.52	44437.41
574.68	44488.90
574.84	44559.12
575.01	44495.92
575.17	44577.84
575.33	44285.28
575.49	44179.95
575.65	44942.97
575.82	44332.09
575.98	44198.68
576.14	44832.96
576.30	44851.69
576.46	44760.40
576.62	44547.42
576.79	44802.53
576.95	44320.38
577.11	44406.98
577.27	44610.61
577.43	44844.66
577.59	44622.31
577.75	44268.89
577.92	44147.18
578.08	44376.56
578.24	44549.76
578.40	44498.26
578.56	44491.24
578.72	44655.08
578.88	45186.38
579.04	44989.78
579.21	44835.30
579.37	44727.64
579.53	44554.44
579.69	44301.66
579.85	44697.21
580.01	44842.32
580.17	44978.07
580.33	44610.61
580.49	44854.03
580.65	44793.17
580.82	45045.95
580.98	44655.08
581.14	44685.51
581.30	44795.51
581.46	44598.91
581.62	44804.88
581.78	44371.88
581.94	44865.73
582.10	44722.96
582.26	44634.02
582.42	44624.65
582.58	44659.76
582.74	44568.48
582.90	44837.64
583.06	45031.91
583.22	44713.59
583.38	44886.79
583.54	45294.05
583.70	45155.96
583.86	44535.71
584.02	44388.26
584.18	44776.79
584.34	44793.17
584.50	44753.38
584.66	44594.23
584.82	44589.55
584.98	45106.80
585.14	44921.90
585.30	44596.57
585.46	44460.82
585.62	44631.68
585.78	44744.02
585.94	44154.21
586.10	44619.97
586.26	44622.31
586.42	44928.92
586.58	45174.68
586.74	44835.30
586.90	44467.84
587.06	44601.25
587.22	44961.69
587.38	44446.77
587.54	45038.93
587.70	44949.99
587.86	44931.26
588.02	45043.61
588.18	45261.28
588.34	44832.96
588.49	44170.59
588.65	44521.67
588.81	44198.68
588.97	44830.62
589.13	44821.26
589.29	44804.88
589.45	44828.28
589.61	44734.66
589.77	45434.48
589.93	44774.45
590.08	45549.17
590.24	45076.38
590.40	45022.54
590.56	45139.57
590.72	44746.36
590.88	44615.29
591.04	44652.74
591.20	45277.66
591.35	45345.54
591.51	45195.74
591.67	45219.15
591.83	44786.15
591.99	44903.18
592.15	44898.50
592.31	45256.60
592.46	45029.57
592.62	45198.09
592.78	45181.70
592.94	45319.79
593.10	45003.82
593.26	44971.05
593.41	44964.03
593.57	44985.10
593.73	45043.61
593.89	45188.72
594.05	44982.76
594.20	44360.17
594.36	45799.60
594.52	44734.66
594.68	44823.60
594.84	44779.13
594.99	45275.32
595.15	44800.19
595.31	45184.04
595.47	45474.27
595.62	45141.91
595.78	44942.97
595.94	45361.92
596.10	45558.53
596.25	45532.78
596.41	45439.16
596.57	45226.17
596.73	45483.63
596.88	45233.19
597.04	44694.87
597.20	45287.03
597.36	45097.44
597.51	45104.46
597.67	45518.74
597.83	45345.54
597.99	45586.61
598.14	45633.42
598.30	44947.65
598.46	44966.37
598.61	45174.68
598.77	44760.40
598.93	45099.78
599.09	45432.14
599.24	45703.64
599.40	45783.22
599.56	45617.04
599.71	45387.67
599.87	45422.78
600.03	45165.32
600.18	45352.56
600.34	45102.12
600.50	45242.56
600.65	44971.05
600.81	44704.23
600.97	45736.41
601.12	45333.84
601.28	45326.81
601.44	45521.08
601.59	45223.83
601.75	44865.73
601.91	45399.37
602.06	44961.69
602.22	45310.43
602.37	45336.18
602.53	45179.36
602.69	45401.71
602.84	45052.97
603.00	44849.35
603.16	45284.68
603.31	45298.73
603.47	45165.32
603.62	45247.24
603.78	45558.53
603.94	45003.82
604.09	45469.59
604.25	45078.72
604.40	45502.35
604.56	45216.81
604.71	45090.42
604.87	44804.88
605.03	44942.97
605.18	45254.26
605.34	45118.51
605.49	45153.62
605.65	45380.65
605.80	45352.56
605.96	45177.02
606.12	45490.65
606.27	45118.51
606.43	44999.14
606.58	44905.52
606.74	44744.02
606.89	44638.70
607.05	44442.09
607.20	45071.70
607.36	44973.39
607.51	45216.81
607.67	45130.21
607.82	44996.80
607.98	45247.24
608.13	44896.16
608.29	44811.90
608.44	44720.62
608.60	44374.22
608.75	44549.76
608.91	44802.53
609.06	45003.82
609.22	44608.27
609.37	44463.16
609.53	44591.89
609.68	44554.44
609.84	44905.52
609.99	44472.52
610.15	44105.06
610.30	44573.16
610.46	44414.01
610.61	44673.81
610.76	44868.07
610.92	44479.54
611.07	44664.44
611.23	44776.79
611.38	44364.85
611.54	44584.86
611.69	44329.75
611.84	44177.61
612.00	44416.35
612.15	44069.95
612.31	44509.97
612.46	44126.12
612.62	44442.09
612.77	44353.15
612.92	44182.29
613.08	44222.08
613.23	44498.26
613.39	43966.96
613.54	43957.60
613.69	44376.56
613.85	44177.61
614.00	44409.32
614.15	44388.26
614.31	44484.22
614.46	44304.00
614.62	44025.48
614.77	44067.61
614.92	44037.18
615.08	44095.69
615.23	43863.98
615.38	44215.06
615.54	43943.56
615.69	43700.14
615.84	43861.64
616.00	43735.25
616.15	43826.53
616.30	44009.09
616.46	43358.42
616.61	44069.95
616.76	43849.94
616.92	43531.62
617.07	43297.57
617.22	43442.68
617.37	43330.34
617.53	43669.72
617.68	43473.11
617.83	44025.48
617.99	43782.06
618.14	44151.87
618.29	43543.33
618.45	43714.19
618.60	43529.28
618.75	43129.05
618.90	43615.88
619.06	43419.28
619.21	43707.16
619.36	43901.43
619.51	43517.58
619.67	43512.90
619.82	43835.89
619.97	43157.14
620.12	43288.21
620.28	42979.26
620.43	43117.35
620.58	43407.58
620.73	42799.04
620.89	43196.93
621.04	42979.26
621.19	42913.72
621.34	43056.50
621.49	43040.11
621.65	42726.48
621.80	42916.06
621.95	43037.77
622.10	42850.53
622.25	42541.58
622.41	42499.45
622.56	42586.05
622.71	43260.12
622.86	42607.11
623.01	43012.02
623.16	42859.89
623.32	42422.21
623.47	43030.75
623.62	43047.13
623.77	42422.21
623.92	42719.46
624.07	42623.50
624.23	42527.53
624.38	42401.14
624.53	42153.05
624.68	42424.55
624.83	42632.86
624.98	42433.91
625.13	42370.72
625.29	42440.93
625.44	42394.12
625.59	42384.76
625.74	41778.56
625.89	42129.64
626.04	42007.94
626.19	41972.83
626.34	42169.43
626.49	42131.98
626.65	42195.18
626.80	42323.91
626.95	42064.11
627.10	42274.76
627.25	41687.28
627.40	41411.10
627.55	41907.29
627.70	41900.27
627.85	41787.92
628.00	41933.04
628.15	41780.90
628.30	42094.53
628.45	42162.41
628.60	41778.56
628.76	41734.09
628.91	41942.40
629.06	41621.75
629.21	41383.01
629.36	41741.11
629.51	41450.89
629.66	41427.48
629.81	41500.04
629.96	41123.21
630.11	41464.93
630.26	41141.94
630.41	41621.75
630.56	41603.02
630.71	41612.38
630.86	41441.53
631.01	41055.34
631.16	41148.96
631.31	40921.93
631.46	41359.61
631.61	41471.95
631.76	41375.99
631.91	41277.69
632.06	41308.11
632.21	41560.89
632.36	41303.43
632.51	41174.70
632.66	41406.42
632.81	41022.57
632.96	41003.85
633.10	40648.08
633.25	40978.10
633.40	40849.37
633.55	40964.06
633.70	41053.00
633.85	40865.75
634.00	40739.36
634.15	40886.82
634.30	40456.16
634.45	40687.87
634.60	40746.39
634.75	40746.39
634.90	40444.46
635.05	40650.42
635.19	40893.84
635.34	40828.30
635.49	40322.75
635.64	40416.37
635.79	40105.08
635.94	40685.53
636.09	40514.67
636.24	40287.64
636.39	40086.36
636.53	40161.25
636.68	40065.29
636.83	39880.39
636.98	40556.80
637.13	40399.99
637.28	40072.31
637.43	40397.65
637.57	40648.08
637.72	40266.58
637.87	40081.67
638.02	40236.15
638.17	40030.18
638.32	39896.77
638.46	40222.11
638.61	40297.00
638.76	39660.38
638.91	39803.15
639.06	39849.96
639.20	39842.94
639.35	40222.11
639.50	39798.47
639.65	40605.95
639.80	39952.94
639.94	39880.39
640.09	39700.17
640.24	39625.27
640.39	39917.84
640.54	39695.49
640.68	39669.74
640.83	39765.70
640.98	39770.38
641.13	39185.25
641.27	40002.10
641.42	39653.36
641.57	39278.87
641.72	39187.59
641.86	39222.70
642.01	39220.36
642.16	39239.08
642.31	38721.82
642.45	39468.45
642.60	38780.34
642.75	39438.03
642.90	39285.89
643.04	39157.16
643.19	39398.24
643.34	39337.38
643.48	39569.10
643.63	39227.38
643.78	38899.70
643.93	39061.20
644.07	38761.61
644.22	38628.20
644.37	38953.54
644.51	38717.14
644.66	38948.85
644.81	39206.31
644.95	39342.06
645.10	39012.05
645.25	39388.88
645.39	39077.58
645.54	39274.19
645.69	38902.04
645.83	38976.94
645.98	39063.54
646.13	39313.98
646.27	39098.65
646.42	38937.15
646.57	38852.89
646.71	38562.67
646.86	39182.91
647.00	39030.77
647.15	38801.40
647.30	38211.59
647.44	38651.61
647.59	38649.27
647.74	38576.71
647.88	38539.26
648.03	38707.78
648.17	38382.45
648.32	38073.49
648.47	38675.01
648.61	38206.90
648.76	38644.59
648.90	38298.19
649.05	38373.08
649.20	38721.82
649.34	38361.38
649.49	37923.70
649.63	38237.33
649.78	38045.41
649.92	37993.92
650.07	38462.02
650.21	37558.58
650.36	38204.56
650.51	38181.16
650.65	38473.73
650.80	38532.24
650.94	38199.88
651.09	38333.29
651.23	37982.21
651.38	38279.46
651.52	37867.53
651.67	38101.58
651.81	37621.77
651.96	37270.69
652.10	37830.08
652.25	37535.17
652.39	37851.14
652.54	37736.46
652.68	38019.66
652.83	37830.08
652.97	37907.32
653.12	38089.88
653.26	37280.05
653.41	37486.02
653.55	36858.76
653.70	37399.42
653.84	37581.98
653.99	37462.61
654.13	37277.71
654.27	37371.33
654.42	37249.63
654.56	37053.02
654.71	37411.12
654.85	37148.98
655.00	37598.37
655.14	37195.79
655.29	36828.33
655.43	37053.02
655.57	36917.27
655.72	36833.01
655.86	36821.31
656.01	36535.76
656.15	36587.25
656.30	36931.31
656.44	37085.79
656.58	36790.88
656.73	36594.28
656.87	36671.51
657.01	36755.77
657.16	36634.06
657.30	36371.92
657.45	36336.82
657.59	36538.10
657.73	36343.84
657.88	36987.49
658.02	36706.62
658.16	36797.90
658.31	36980.46
658.45	36486.61
658.60	36453.84
658.74	36601.30
658.88	36353.20
659.03	36774.50
659.17	36121.49
659.31	35765.73
659.46	36048.93
659.60	36109.78
659.74	36299.37
659.89	36275.96
660.03	35831.26
660.17	36126.17
660.32	36142.55
660.46	36025.53
660.60	35997.44
660.74	35927.22
660.89	35693.17
661.03	35735.30
661.17	35679.13
661.32	35182.93
661.46	35454.44
661.60	35803.17
661.74	35714.23
661.89	35550.40
662.03	35438.05
662.17	35468.48
662.31	35208.68
662.46	35709.55
662.60	35683.81
662.74	35133.78
662.88	35515.29
663.03	34628.23
663.17	35365.49
663.31	34937.18
663.45	34689.08
663.60	35157.19
663.74	34881.00
663.88	34857.60
664.02	34581.42
664.17	35033.14
664.31	34660.99
664.45	34300.55
664.59	34665.67
664.73	34763.98
664.88	34864.62
665.02	33949.47
665.16	34251.40
665.30	34314.59
665.44	34569.71
665.59	33951.81
665.73	34370.77
665.87	34096.92
666.01	34347.36
666.15	34082.88
666.29	34316.93
666.44	34391.83
666.58	33792.65
666.72	33720.10
666.86	33865.21
667.00	34082.88
667.14	33830.10
667.28	33624.14
667.43	33923.72
667.57	34064.16
667.71	33305.82
667.85	33244.97
667.99	33399.44
668.13	33436.89
668.27	33682.65
668.41	33558.60
668.56	33113.90
668.70	33284.76
668.84	32917.29
668.98	32793.25
669.12	32891.55
669.26	32992.19
669.40	32690.26
669.54	32542.81
669.68	32542.81
669.82	32732.39
669.96	32474.93
670.10	32994.53
670.25	32903.25
670.39	32582.60
670.53	32465.57
670.67	32369.61
670.81	32772.18
670.95	32156.62
671.09	31960.02
671.23	32360.25
671.37	32364.93
671.51	32039.59
671.65	32032.57
671.79	31962.36
671.93	31709.58
672.07	32397.70
672.21	31885.12
672.35	31791.50
672.49	31337.43
672.63	31622.98
672.77	31519.99
672.91	31718.94
673.05	31660.43
673.19	31494.25
673.33	31021.46
673.47	31358.50
673.61	31379.56
673.75	30937.20
673.89	31098.70
674.03	30808.47
674.17	31047.21
674.31	31056.57
674.45	31094.02
674.59	30558.03
674.73	30869.33
674.87	30712.51
675.01	30572.08
675.15	30686.76
675.29	30714.85
675.43	30431.65
675.56	30490.16
675.70	30543.99
675.84	29949.50
675.98	29481.39
676.12	29956.52
676.26	30122.69
676.40	29570.33
676.54	29902.68
676.68	29841.83
676.82	29240.31
676.96	29926.09
677.10	29521.18
677.23	29296.49
677.37	29507.13
677.51	28788.59
677.65	29003.92
677.79	28706.67
677.93	28835.40
678.07	28816.68
678.21	28510.07
678.34	28285.37
678.48	28379.00
678.62	28556.88
678.76	27810.25
678.90	27955.36
679.04	27775.14
679.18	27447.46
679.31	27604.28
679.45	27557.47
679.59	27318.73
679.73	27098.72
679.87	27576.19
680.00	27374.91
680.14	27201.71
680.28	27545.76
680.42	27367.88
680.56	27332.78
680.70	27325.75
680.83	27047.23
680.97	27241.50
681.11	27000.42
681.25	26455.08
681.39	26696.15
681.52	26806.16
681.66	26806.16
681.80	26455.08
681.94	26307.62
682.07	26424.65
682.21	26225.70
682.35	26270.17
682.49	26040.80
682.62	26389.54
682.76	25898.03
682.90	25905.05
683.04	25722.49
683.17	25788.02
683.31	25546.95
683.45	25413.54
683.59	25188.85
683.72	25046.07
683.86	24772.23
684.00	25249.70
684.13	25233.32
684.27	25305.87
684.41	24900.96
684.55	24996.92
684.68	24428.17
684.82	25003.94
684.96	24875.21
685.09	24486.68
685.23	24697.33
685.37	24512.43
685.50	24297.10
685.64	24044.32
685.78	23878.15
685.91	23887.51
686.05	23597.28
686.19	23836.02
686.32	23461.53
686.46	23161.94
686.60	23571.54
686.73	23496.64
686.87	23295.35
687.01	23030.87
687.14	23058.96
687.28	23129.17
687.42	23147.90
687.55	22946.61
687.69	22742.99
687.82	22885.76
687.96	22801.50
688.10	22726.60
688.23	22670.43
688.37	22258.49
688.50	22043.17
688.64	22354.46
688.78	22267.86
688.91	22377.86
689.05	21963.59
689.18	21975.29
689.32	21685.06
689.46	21605.49
689.59	21893.37
689.73	21926.14
689.86	21570.38
690.00	21434.63
690.13	21664.00
690.27	21436.97
690.41	21259.09
690.54	21071.84
690.68	20861.19
690.81	21055.46
690.95	20596.71
691.08	20842.47
691.22	20737.15
691.35	21102.27
691.49	20926.73
691.62	20826.09
691.76	20608.42
691.89	20442.24
692.03	20271.38
692.16	20184.78
692.30	20088.82
692.43	19807.95
692.57	19978.81
692.70	19988.18
692.84	19601.99
692.97	19763.48
693.11	19681.56
693.24	19094.09
693.38	19585.60
693.51	19473.26
693.65	19419.42
693.78	19583.26
693.92	19082.39
694.05	19112.81
694.19	19318.78
694.32	19108.13
694.45	19157.28
694.59	18579.17
694.72	18857.70
694.86	18810.89
694.99	18455.12
695.13	18663.43
695.26	18417.68
695.39	18225.75
695.53	18319.37
695.66	18368.52
695.80	18574.49
695.93	18363.84
696.07	18155.54
696.20	17942.55
696.33	17972.97
696.47	17495.50
696.60	17823.18
696.73	17532.95
696.87	17811.48
697.00	17776.37
697.14	17619.55
697.27	17455.72
697.40	17523.59
697.54	17336.35
697.67	17263.79
697.80	17289.54
697.94	17156.13
698.07	16872.92
698.21	16596.74
698.34	16772.28
698.47	16568.65
698.61	16477.37
698.74	16299.49
698.87	16210.55
699.01	16318.22
699.14	16147.36
699.27	16236.30
699.40	16442.26
699.54	16123.95
699.67	15927.35
699.80	15850.11
699.94	15719.04
700.07	15878.19
700.20	15803.30
700.34	15541.16
700.47	15646.48
700.60	15990.54
700.73	15779.89
700.87	15590.31
701.00	15475.62
701.13	15445.20
701.26	15274.34
701.40	15424.13
701.53	15042.62
701.66	14970.07
701.79	14869.42
701.93	14853.04
702.06	14759.42
702.19	14642.39
702.32	14925.60
702.46	14738.35
702.59	14740.69
702.72	14455.15
702.85	14413.02
702.99	14450.47
703.12	14630.69
703.25	14214.07
703.38	14263.22
703.51	14286.63
703.65	14265.57
703.78	14150.88
703.91	13853.63
704.04	14150.88
704.17	14139.18
704.31	13902.78
704.44	13853.63
704.57	13865.33
704.70	13654.69
704.83	13668.73
704.96	13383.18
705.10	13355.10
705.23	13380.84
>>>>>End Processed Spectral Data<<<<<
