SpectraSuite Data File
++++++++++++++++++++++++++++++++++++
Date: Fri Oct 25 11:33:22 EDT 2013
User: price-jones
Dark Spectrum Present: No
Reference Spectrum Present: No
Number of Sampled Component Spectra: 1
Spectrometers: USB2+H05261
Integration Time (usec): 100000 (USB2+H05261)
Spectra Averaged: 1 (USB2+H05261)
Boxcar Smoothing: 0 (USB2+H05261)
Correct for Electrical Dark: No (USB2+H05261)
Strobe/Lamp Enabled: No (USB2+H05261)
Correct for Detector Non-linearity: No (USB2+H05261)
Correct for Stray Light: No (USB2+H05261)
Number of Pixels in Processed Spectrum: 2048
>>>>>Begin Processed Spectral Data<<<<<
365.73	294.91
365.92	294.91
366.12	294.91
366.32	234.05
366.52	156.82
366.72	234.05
366.91	208.31
367.11	175.54
367.31	156.82
367.51	201.29
367.70	184.90
367.90	177.88
368.10	42.13
368.30	194.26
368.49	205.97
368.69	201.29
368.89	187.24
369.09	147.45
369.28	182.56
369.48	175.54
369.68	222.35
369.87	215.33
370.07	201.29
370.27	257.46
370.47	358.10
370.66	418.96
370.86	517.26
371.06	573.43
371.25	615.56
371.45	564.07
371.65	580.45
371.84	538.32
372.04	505.56
372.24	587.47
372.44	580.45
372.63	559.39
372.83	592.16
373.03	617.90
373.22	589.82
373.42	596.84
373.62	627.26
373.81	638.97
374.01	645.99
374.21	676.41
374.40	627.26
374.60	690.46
374.79	655.35
374.99	690.46
375.19	631.94
375.38	681.10
375.58	638.97
375.78	664.71
375.97	671.73
376.17	748.97
376.37	667.05
376.56	685.78
376.76	718.54
376.95	699.82
377.15	760.67
377.35	774.72
377.54	716.20
377.74	615.56
377.93	699.82
378.13	704.50
378.33	784.08
378.52	713.86
378.72	732.59
378.91	732.59
379.11	631.94
379.31	755.99
379.50	683.44
379.70	718.54
379.89	734.93
380.09	732.59
380.28	713.86
380.48	641.31
380.68	681.10
380.87	685.78
381.07	793.44
381.26	819.19
381.46	763.01
381.65	786.42
381.85	765.36
382.04	744.29
382.24	847.27
382.43	770.04
382.63	690.46
382.83	800.46
383.02	795.78
383.22	795.78
383.41	793.44
383.61	772.38
383.80	800.46
384.00	856.64
384.19	854.30
384.39	823.87
384.58	821.53
384.78	924.51
384.97	851.96
385.17	819.19
385.36	805.14
385.56	798.12
385.75	798.12
385.95	840.25
386.14	851.96
386.34	880.04
386.53	917.49
386.72	973.66
386.92	873.02
387.11	887.06
387.31	784.08
387.50	828.55
387.70	910.47
387.89	950.26
388.09	887.06
388.28	842.59
388.48	898.77
388.67	978.34
388.86	887.06
389.06	940.90
389.25	877.70
389.45	1027.50
389.64	919.83
389.84	929.19
390.03	973.66
390.22	945.58
390.42	1004.09
390.61	1142.18
390.81	980.68
391.00	980.68
391.19	1036.86
391.39	922.17
391.58	1027.50
391.78	947.92
391.97	1011.11
392.16	983.02
392.36	1083.67
392.55	1074.31
392.75	1036.86
392.94	1076.65
393.13	1128.14
393.33	1078.99
393.52	1029.84
393.71	1118.78
393.91	1116.44
394.10	1158.57
394.29	1151.54
394.49	1149.20
394.68	1104.73
394.88	1188.99
395.07	1149.20
395.26	1156.22
395.46	1109.41
395.65	1172.61
395.84	1156.22
396.04	1280.27
396.23	1299.00
396.42	1153.88
396.62	1221.76
396.81	1256.87
397.00	1224.10
397.19	1210.06
397.39	1306.02
397.58	1219.42
397.77	1280.27
397.97	1188.99
398.16	1299.00
398.35	1233.46
398.55	1231.12
398.74	1284.95
398.93	1289.64
399.12	1315.38
399.32	1327.08
399.51	1331.76
399.70	1364.53
399.90	1357.51
400.09	1348.15
400.28	1359.85
400.47	1376.24
400.67	1430.07
400.86	1488.58
401.05	1448.79
401.24	1434.75
401.44	1467.52
401.63	1423.05
401.82	1533.05
402.01	1504.96
402.21	1549.43
402.40	1469.86
402.59	1502.62
402.78	1462.83
402.97	1621.99
403.17	1633.69
403.36	1582.20
403.55	1483.90
403.74	1596.25
403.93	1621.99
404.13	1640.72
404.32	1521.35
404.51	1586.88
404.70	1652.42
404.89	1652.42
405.09	1678.16
405.28	1605.61
405.47	1713.27
405.66	1741.36
405.85	1746.04
406.05	1710.93
406.24	1678.16
406.43	1703.91
406.62	1701.57
406.81	1846.68
407.00	1818.60
407.20	1769.44
407.39	1860.73
407.58	1842.00
407.77	1872.43
407.96	1898.17
408.15	1851.36
408.34	1893.49
408.54	1891.15
408.73	1877.11
408.92	1977.75
409.11	1914.56
409.30	1935.62
409.49	2050.31
409.68	2001.16
409.87	2054.99
410.07	2099.46
410.26	1970.73
410.45	2029.24
410.64	2104.14
410.83	2214.15
411.02	2118.18
411.21	2150.95
411.40	2155.63
411.59	2181.38
411.78	2186.06
411.98	2143.93
412.17	2359.26
412.36	2267.98
412.55	2377.98
412.74	2366.28
412.93	2417.77
413.12	2401.39
413.31	2490.33
413.50	2197.76
413.69	2359.26
413.88	2562.89
414.07	2480.97
414.26	2485.65
414.45	2520.76
414.64	2457.56
414.83	2597.99
415.02	2635.44
415.22	2724.38
415.41	2560.55
415.60	2595.65
415.79	2726.72
415.98	2818.00
416.17	2677.57
416.36	2813.32
416.55	2747.79
416.74	2869.50
416.93	2801.62
417.12	2722.04
417.31	2825.03
417.50	2932.69
417.69	2988.86
417.88	2913.97
418.07	2906.95
418.26	3002.91
418.45	2885.88
418.64	3094.19
418.83	3047.38
419.02	2958.44
419.21	3091.85
419.39	3155.04
419.58	3131.64
419.77	3183.13
419.96	3124.62
420.15	3185.47
420.34	3087.17
420.53	3148.02
420.72	3258.03
420.91	3286.11
421.10	3166.74
421.29	3370.37
421.48	3155.04
421.67	3290.79
421.86	3389.10
422.05	3314.20
422.24	3286.11
422.43	3421.86
422.61	3276.75
422.80	3335.26
422.99	3503.78
423.18	3452.29
423.37	3604.42
423.56	3480.38
423.75	3421.86
423.94	3323.56
424.13	3239.30
424.32	3309.52
424.50	3487.40
424.69	3463.99
424.88	3501.44
425.07	3372.71
425.26	3602.08
425.45	3433.57
425.64	3428.88
425.83	3417.18
426.01	3506.12
426.20	3669.96
426.39	3431.23
426.58	3618.47
426.77	3494.42
426.96	3454.63
427.15	3534.21
427.33	3527.19
427.52	3534.21
427.71	3667.62
427.90	3716.77
428.09	3676.98
428.28	3662.94
428.46	3761.24
428.65	3679.32
428.84	3864.22
429.03	3847.84
429.22	3763.58
429.40	3953.16
429.59	3794.01
429.78	3864.22
429.97	3665.28
430.16	3779.97
430.34	3761.24
430.53	3901.67
430.72	4035.08
430.91	3948.48
431.10	3929.76
431.28	3927.42
431.47	4093.60
431.66	4077.21
431.85	4084.23
432.03	4049.13
432.22	4177.86
432.41	4124.02
432.60	4187.22
432.79	4224.67
432.97	4292.54
433.16	4201.26
433.35	4152.11
433.54	4180.20
433.72	4283.18
433.91	4386.16
434.10	4236.37
434.28	4117.00
434.47	4201.26
434.66	4245.73
434.85	4280.84
435.03	4411.91
435.22	4329.99
435.41	4594.47
435.59	4414.25
435.78	4432.97
435.97	4512.55
436.16	4500.85
436.34	4505.53
436.53	4526.60
436.72	4503.19
436.90	4444.68
437.09	4475.10
437.28	4470.42
437.46	4575.75
437.65	4641.28
437.84	4676.39
438.02	4578.09
438.21	4678.73
438.40	4587.45
438.58	4791.08
438.77	4744.27
438.96	4624.90
439.14	4711.50
439.33	5006.41
439.52	4865.97
439.70	4929.17
439.89	5036.83
440.08	4870.65
440.26	5060.24
440.45	5093.01
440.63	5238.12
440.82	5158.54
441.01	5008.75
441.19	5224.08
441.38	5266.21
441.57	5275.57
441.75	5245.14
441.94	5397.28
442.12	5483.88
442.31	5540.05
442.50	5502.60
442.68	5537.71
442.87	5476.85
443.05	5549.41
443.24	5586.86
443.43	5551.75
443.61	5710.91
443.80	5877.09
443.98	5523.66
444.17	5355.15
444.35	5612.60
444.54	5713.25
444.73	5621.97
444.91	5647.71
445.10	5790.49
445.28	5713.25
445.47	5783.46
445.65	5867.72
445.84	5748.36
446.02	5699.20
446.21	5769.42
446.39	5753.04
446.58	5867.72
446.77	5720.27
446.95	5631.33
447.14	5687.50
447.32	5874.74
447.51	5720.27
447.69	5710.91
447.88	5907.51
448.06	5762.40
448.25	5900.49
448.43	5820.91
448.62	5942.62
448.80	5919.21
448.99	5764.74
449.17	6010.50
449.36	5966.03
449.54	6122.84
449.73	6101.78
449.91	6155.61
450.10	6139.23
450.28	6120.50
450.46	6207.10
450.65	6083.05
450.83	6382.64
451.02	6244.55
451.20	6211.78
451.39	6352.21
451.57	6246.89
451.76	6104.12
451.94	6193.06
452.13	6396.68
452.31	6417.75
452.49	6408.39
452.68	6392.00
452.86	6274.98
453.05	6492.65
453.23	6417.75
453.42	6368.60
453.60	6387.32
453.78	6497.33
453.97	6434.13
454.15	6429.45
454.34	6406.05
454.52	6492.65
454.70	6651.80
454.89	6516.05
455.07	6581.59
455.26	6731.38
455.44	6803.94
455.62	6825.00
455.81	6778.19
455.99	6796.92
456.17	6766.49
456.36	6810.96
456.54	6789.89
456.73	6839.05
456.91	7190.13
457.09	6944.37
457.28	7117.57
457.46	6981.82
457.64	7183.10
457.83	6970.12
458.01	7005.22
458.19	7515.46
458.38	7103.53
458.56	7253.32
458.74	7290.77
458.93	7229.91
459.11	7265.02
459.29	7037.99
459.48	7407.80
459.66	7297.79
459.84	7440.56
460.03	7513.12
460.21	7370.35
460.39	7339.92
460.57	7508.44
460.76	7588.02
460.94	7559.93
461.12	7737.81
461.31	7487.37
461.49	7648.87
461.67	7597.38
461.85	7726.11
462.04	7623.12
462.22	8004.63
462.40	7646.53
462.59	7906.33
462.77	7906.33
462.95	7801.01
463.13	7761.22
463.32	7894.63
463.50	7962.50
463.68	7925.05
463.86	7964.84
464.05	7880.58
464.23	7847.82
464.41	8091.23
464.59	7992.93
464.78	8074.85
464.96	7992.93
465.14	7967.18
465.32	8116.98
465.50	8175.49
465.69	8098.25
465.87	8168.47
466.05	8271.45
466.23	8301.88
466.41	8219.96
466.60	8463.38
466.78	8234.00
466.96	8437.63
467.14	8273.79
467.32	8484.44
467.51	8479.76
467.69	8430.61
467.87	8435.29
468.05	8482.10
468.23	8470.40
468.41	8535.93
468.60	8517.21
468.78	8751.26
468.96	8561.68
469.14	8468.06
469.32	8774.67
469.50	8652.96
469.69	8755.94
469.87	8650.62
470.05	8622.53
470.23	8854.25
470.41	8938.51
470.59	8896.38
470.77	8868.29
470.95	8954.89
471.14	9207.67
471.32	8858.93
471.50	9100.00
471.68	9130.43
471.86	9032.13
472.04	9252.14
472.22	9427.68
472.40	9139.79
472.58	9273.20
472.77	9404.27
472.95	9502.58
473.13	9736.63
473.31	9488.53
473.49	9345.76
473.67	9645.35
473.85	9535.34
474.03	9930.89
474.21	9942.60
474.39	9788.12
474.57	9834.93
474.75	9923.87
474.93	10078.35
475.12	9982.38
475.30	10190.69
475.48	10057.28
475.66	10244.52
475.84	10221.12
476.02	10307.72
476.20	10118.14
476.38	10483.26
476.56	10787.53
476.74	10750.08
476.92	10476.24
477.10	10420.06
477.28	10721.99
477.46	10888.17
477.64	10951.37
477.82	10984.13
478.00	11269.68
478.18	11138.61
478.36	11260.32
478.54	11487.35
478.72	11583.31
478.90	11470.97
479.08	11915.67
479.26	11810.34
479.44	11866.52
479.62	11922.69
479.80	11957.80
479.98	12121.63
480.16	12304.20
480.34	12327.60
480.52	12329.94
480.70	12358.03
480.88	12198.87
481.06	12386.12
481.24	12458.67
481.41	12863.58
481.59	12931.46
481.77	12856.56
481.95	12987.63
482.13	12819.11
482.31	13018.06
482.49	13380.84
482.67	13373.82
482.85	13465.10
483.03	13582.13
483.21	13678.09
483.39	13811.50
483.57	13879.38
483.74	13965.98
483.92	14263.22
484.10	14122.79
484.28	14534.73
484.46	14448.13
484.64	14679.84
484.82	14614.30
485.00	14733.67
485.18	15016.88
485.35	15400.72
485.53	15049.64
485.71	15407.75
485.89	15374.98
486.07	15484.98
486.25	15527.11
486.43	15868.83
486.61	15712.02
486.78	15763.51
486.96	16044.37
487.14	16299.49
487.32	16531.20
487.50	16301.83
487.68	16702.06
487.85	16568.65
488.03	17018.04
488.21	17128.04
488.39	17186.55
488.57	17205.28
488.75	17233.36
488.92	17582.10
489.10	17830.20
489.28	17678.07
489.46	18335.76
489.64	17652.32
489.81	18054.89
489.99	18424.70
490.17	18593.22
490.35	18726.63
490.53	18630.66
490.70	18801.52
490.88	18700.88
491.06	19019.19
491.24	19101.11
491.41	19243.88
491.59	19407.72
491.77	19342.19
491.95	19529.43
492.13	19641.78
492.30	19609.01
492.48	19807.95
492.66	20395.43
492.84	19946.05
493.01	20217.55
493.19	20404.79
493.37	20524.16
493.54	20489.05
493.72	20716.08
493.90	20795.66
494.08	21015.67
494.25	21123.33
494.43	21181.85
494.61	21216.96
494.79	21453.35
494.96	21341.00
495.14	21736.56
495.32	22015.08
495.49	21898.05
495.67	22043.17
495.85	22185.94
496.02	22424.67
496.20	22190.62
496.38	22483.19
496.55	22368.50
496.73	23187.69
496.91	22841.29
497.09	23028.53
497.26	23068.32
497.44	23218.11
497.62	23309.40
497.79	23735.37
497.97	23641.75
498.14	23992.83
498.32	24154.33
498.50	24049.00
498.67	24095.82
498.85	24084.11
499.03	24208.16
499.20	24170.71
499.38	24694.99
499.56	24556.90
499.73	24451.58
499.91	24847.13
500.08	25090.54
500.26	24692.65
500.44	24886.92
500.61	25413.54
500.79	25223.95
500.97	25439.28
501.14	25649.93
501.32	25816.11
501.49	25654.61
501.67	25757.60
501.84	25528.22
502.02	25895.69
502.20	25900.37
502.37	25837.17
502.55	26040.80
502.72	26295.92
502.90	25858.24
503.07	26228.04
503.25	26347.41
503.43	26321.66
503.60	26534.65
503.78	26480.82
503.95	26932.54
504.13	26672.74
504.30	26834.24
504.48	26742.96
504.65	26892.76
504.83	27311.71
505.01	27152.55
505.18	27754.07
505.36	27491.93
505.53	27470.87
505.71	27847.69
505.88	27555.13
506.06	27599.60
506.23	27569.17
506.41	27763.43
506.58	27892.16
506.76	28025.57
506.93	28224.52
507.11	28137.92
507.28	28278.35
507.46	28205.80
507.63	28650.50
507.81	28840.08
507.98	28556.88
508.16	28627.09
508.33	28748.80
508.50	28865.83
508.68	28606.03
508.85	29172.44
509.03	29139.67
509.20	29303.51
509.38	29537.56
509.55	29689.70
509.73	29495.43
509.90	29916.73
510.08	29783.32
510.25	29933.11
510.42	29879.28
510.60	30312.28
510.77	29986.94
510.95	30740.60
511.12	29701.40
511.30	30480.80
511.47	30574.42
511.64	30260.79
511.82	30969.97
511.99	30513.56
512.17	30766.34
512.34	30855.28
512.51	30815.49
512.69	31271.90
512.86	31005.08
513.04	31234.45
513.21	31400.63
513.38	31016.78
513.56	31262.54
513.73	31360.84
513.90	31501.27
514.08	31711.92
514.25	31721.28
514.43	31786.82
514.60	31894.48
514.77	31915.54
514.95	31821.92
515.12	32128.53
515.29	32294.71
515.47	32341.52
515.64	32346.20
515.81	31831.29
515.99	32018.53
516.16	32631.75
516.33	32327.48
516.51	32788.56
516.68	32669.20
516.85	32666.86
517.03	32978.15
517.20	33064.75
517.37	32809.63
517.54	33612.43
517.72	33359.66
517.89	33146.67
518.06	33256.67
518.24	33481.36
518.41	33394.76
518.58	33610.09
518.75	33528.17
518.93	33380.72
519.10	33851.17
519.27	33855.85
519.45	34019.69
519.62	33890.96
519.79	33900.32
519.96	33998.62
520.14	34061.82
520.31	34045.43
520.48	34443.32
520.65	34761.64
520.83	34789.72
521.00	34677.38
521.17	34143.74
521.34	35002.71
521.52	34829.51
521.69	35016.75
521.86	35276.55
522.03	34859.94
522.20	35276.55
522.38	35342.09
522.55	35143.14
522.72	35463.80
522.89	35299.96
523.07	35810.20
523.24	35580.82
523.41	35952.97
523.58	35480.18
523.75	36051.27
523.92	35632.32
524.10	35878.07
524.27	35934.24
524.44	36360.22
524.61	36362.56
524.78	36400.01
524.96	36318.09
525.13	36584.91
525.30	36332.14
525.47	36240.86
525.64	36755.77
525.81	36694.92
525.98	36802.58
526.16	36343.84
526.33	36692.58
526.50	37156.00
526.67	36975.78
526.84	36580.23
527.01	36910.25
527.18	36835.35
527.36	37581.98
527.53	37193.45
527.70	37635.81
527.87	37387.72
528.04	37113.87
528.21	37581.98
528.38	37408.78
528.55	37479.00
528.72	37720.07
528.89	37708.37
529.07	37628.79
529.24	37600.71
529.41	38085.20
529.58	37699.01
529.75	37710.71
529.92	37773.91
530.09	37619.43
530.26	38178.82
530.43	38211.59
530.60	37879.23
530.77	37830.08
530.94	38253.72
531.11	37839.44
531.28	38595.43
531.46	38527.56
531.63	38569.69
531.80	38604.80
531.97	38962.90
532.14	38342.66
532.31	38363.72
532.48	39007.37
532.65	39054.18
532.82	38937.15
532.99	39407.60
533.16	38485.43
533.33	39468.45
533.50	39082.27
533.67	39126.74
533.84	38904.38
534.01	38939.49
534.18	39159.50
534.35	39515.26
534.52	39608.89
534.69	39587.82
534.86	39992.73
535.03	39725.91
535.20	39615.91
535.37	39615.91
535.54	39735.27
535.71	39941.24
535.88	39758.68
536.05	39721.23
536.22	40465.52
536.38	39878.05
536.55	39690.80
536.72	39922.52
536.89	39782.09
537.06	39744.64
537.23	40940.65
537.40	39927.20
537.57	39873.37
537.74	40304.02
537.91	40161.25
538.08	40648.08
538.25	40161.25
538.42	40437.44
538.59	40825.96
538.75	40517.01
538.92	41446.21
539.09	40987.46
539.26	41184.07
539.43	40748.73
539.60	41010.87
539.77	40889.16
539.94	41378.33
540.11	41172.36
540.28	40591.91
540.44	40921.93
540.61	40809.58
540.78	40786.18
540.95	41368.97
541.12	40755.75
541.29	41062.36
541.46	41446.21
541.62	41408.76
541.79	41944.74
541.96	40849.37
542.13	41193.43
542.30	41642.81
542.47	41504.72
542.63	41827.71
542.80	41996.23
542.97	42169.43
543.14	42391.78
543.31	42192.84
543.48	42036.02
543.64	42623.50
543.81	42586.05
543.98	42342.63
544.15	42478.38
544.32	42424.55
544.48	42918.40
544.65	42305.18
544.82	42682.01
544.99	42351.99
545.16	42469.02
545.32	42246.67
545.49	43115.01
545.66	43529.28
545.83	43044.79
546.00	42946.49
546.16	43051.81
546.33	42962.87
546.50	43203.95
546.67	43695.46
546.83	42539.24
547.00	43058.84
547.17	42749.88
547.34	42782.65
547.50	43466.09
547.67	43660.35
547.84	43466.09
548.00	43456.73
548.17	43777.38
548.34	43758.66
548.51	43840.57
548.67	44074.63
548.84	43695.46
549.01	43948.24
549.18	43655.67
549.34	43796.10
549.51	43922.49
549.68	43515.24
549.84	43770.36
550.01	44336.77
550.18	43318.64
550.34	44048.88
550.51	43676.74
550.68	44442.09
550.84	43613.54
551.01	44273.57
551.18	43786.74
551.34	43852.28
551.51	43931.86
551.68	44116.76
551.84	44177.61
552.01	44423.37
552.18	44498.26
552.34	44318.04
552.51	44498.26
552.68	44095.69
552.84	44573.16
553.01	44467.84
553.18	44177.61
553.34	44680.83
553.51	44411.67
553.67	44428.05
553.84	44828.28
554.01	44954.67
554.17	44573.16
554.34	44734.66
554.51	44851.69
554.67	45394.69
554.84	45200.43
555.00	45029.57
555.17	44767.43
555.33	45170.00
555.50	45448.52
555.67	44790.83
555.83	44905.52
556.00	45240.21
556.16	45565.55
556.33	45312.77
556.50	45340.86
556.66	44961.69
556.83	45006.16
556.99	45422.78
557.16	45460.23
557.32	45471.93
557.49	45195.74
557.65	45333.84
557.82	45064.67
557.98	45268.30
558.15	45537.46
558.32	45441.50
558.48	45457.88
558.65	45521.08
558.81	45818.33
558.98	45860.46
559.14	45572.57
559.31	45567.89
559.47	45827.69
559.64	45422.78
559.80	45888.54
559.97	45689.60
560.13	45429.80
560.30	45769.18
560.46	45790.24
560.63	46211.54
560.79	46316.86
560.96	46532.19
561.12	46211.54
561.29	46171.75
561.45	46300.48
561.61	46305.16
561.78	45970.46
561.94	46108.55
562.11	46031.32
562.27	46555.60
562.44	46323.88
562.60	46314.52
562.77	46677.30
562.93	45556.19
563.10	46597.73
563.26	46178.77
563.42	46263.03
563.59	46260.69
563.75	46300.48
563.92	46476.02
564.08	46387.08
564.24	46471.34
564.41	46389.42
564.57	46300.48
564.74	46679.64
564.90	46366.01
565.07	46312.18
565.23	46279.41
565.39	46457.29
565.56	46567.30
565.72	46670.28
565.88	46644.54
566.05	46686.67
566.21	46705.39
566.38	46305.16
566.54	46557.94
566.70	46656.24
566.87	46955.83
567.03	46265.37
567.19	46923.06
567.36	46459.63
567.52	46543.89
567.68	47358.40
567.85	46862.21
568.01	46541.55
568.17	46576.66
568.34	47009.66
568.50	46909.02
568.66	46911.36
568.83	46579.00
568.99	47056.47
569.15	47213.29
569.32	46990.94
569.48	46787.31
569.64	47349.04
569.81	46721.77
569.97	47112.64
570.13	47014.34
570.30	46731.14
570.46	46887.95
570.62	46796.67
570.78	46960.51
570.95	47276.48
571.11	47423.93
571.27	47110.30
571.43	47234.35
571.60	46801.35
571.76	47063.49
571.92	47217.97
572.09	47042.43
572.25	46681.98
572.41	47159.45
572.57	47040.09
572.74	47339.68
572.90	47281.16
573.06	47276.48
573.22	47203.92
573.38	47082.22
573.55	47026.04
573.71	47899.06
573.87	47402.87
574.03	47159.45
574.20	47629.90
574.36	47435.64
574.52	47620.54
574.68	47222.65
574.84	47531.60
575.01	47498.83
575.17	47295.21
575.33	47241.37
575.49	47236.69
575.65	47737.57
575.82	47707.14
575.98	47334.99
576.14	47653.31
576.30	47742.25
576.46	47414.57
576.62	47749.27
576.79	47374.78
576.95	46787.31
577.11	46976.89
577.27	47154.77
577.43	47409.89
577.59	47625.22
577.75	47636.92
577.92	47524.58
578.08	47613.52
578.24	47281.16
578.40	47599.47
578.56	47452.02
578.72	47597.13
578.88	47330.31
579.04	47494.15
579.21	47484.79
579.37	47543.30
579.53	48133.12
579.69	47000.30
579.85	47398.19
580.01	47428.62
580.17	47744.59
580.33	47765.65
580.49	47732.89
580.65	47721.18
580.82	47437.98
580.98	47295.21
581.14	47192.22
581.30	47576.07
581.46	47552.66
581.62	47363.08
581.78	47423.93
581.94	47854.59
582.10	47201.58
582.26	47840.55
582.42	47260.10
582.58	47386.49
582.74	47821.83
582.90	47859.27
583.06	48090.99
583.22	47646.29
583.38	47531.60
583.54	47927.15
583.70	47725.86
583.86	47901.40
584.02	47093.92
584.18	48060.56
584.34	47957.58
584.50	47889.70
584.66	47913.11
584.82	47693.10
584.98	48051.20
585.14	48193.97
585.30	47707.14
585.46	47882.68
585.62	47854.59
585.78	47751.61
585.94	47412.23
586.10	47697.78
586.26	47896.72
586.42	47702.46
586.58	47414.57
586.74	47772.67
586.90	47437.98
587.06	47917.79
587.22	47922.47
587.38	47721.18
587.54	47812.46
587.70	48184.61
587.86	48093.33
588.02	48051.20
588.18	47587.77
588.34	47924.81
588.49	47669.69
588.65	47756.29
588.81	47899.06
588.97	48062.90
589.13	47775.02
589.29	47704.80
589.45	48051.20
589.61	48189.29
589.77	48292.27
589.93	48098.01
590.08	48371.85
590.24	48713.57
590.40	48353.13
590.56	48488.88
590.72	48198.65
590.88	47976.30
591.04	47852.25
591.20	48711.23
591.35	48210.35
591.51	48512.28
591.67	48224.40
591.83	48121.41
591.99	47721.18
592.15	48217.38
592.31	47999.71
592.46	47938.85
592.62	48289.93
592.78	48545.05
592.94	48465.47
593.10	48182.27
593.26	48767.40
593.41	48498.24
593.57	48697.19
593.73	48025.45
593.89	48308.66
594.05	48275.89
594.20	48402.28
594.36	48982.73
594.52	48432.71
594.68	48306.32
594.84	48296.95
594.99	48952.30
595.15	48542.71
595.31	48353.13
595.47	48568.46
595.62	48832.94
595.78	48809.53
595.94	48577.82
596.10	48163.54
596.25	48563.78
596.41	48811.87
596.57	48435.05
596.73	48664.42
596.88	48598.88
597.04	48804.85
597.20	48734.63
597.36	48406.96
597.51	48577.82
597.67	48325.04
597.83	48135.46
597.99	48495.90
598.14	48575.48
598.30	48453.77
598.46	48271.21
598.61	48921.88
598.77	48605.91
598.93	48699.53
599.09	48437.39
599.24	48893.79
599.40	48589.52
599.56	48425.68
599.71	49169.97
599.87	48978.05
600.03	48835.28
600.18	48907.83
600.34	48704.21
600.50	48481.86
600.65	48725.27
600.81	49069.33
600.97	48704.21
601.12	49031.88
601.28	48732.29
601.44	48608.25
601.59	48844.64
601.75	48744.00
601.91	49102.10
602.06	48390.58
602.22	48612.93
602.37	48891.45
602.53	48947.62
602.69	48992.09
602.84	48376.53
603.00	48140.14
603.16	48917.20
603.31	48755.70
603.47	48863.36
603.62	48687.82
603.78	48678.46
603.94	48790.81
604.09	48807.19
604.25	48708.89
604.40	48098.01
604.56	48655.06
604.71	48629.31
604.87	48327.38
605.03	48156.52
605.18	48584.84
605.34	48786.13
605.49	48561.44
605.65	48685.48
605.80	48392.92
605.96	48788.47
606.12	48638.67
606.27	48189.29
606.43	48236.10
606.58	48676.12
606.74	48535.69
606.89	48128.44
607.05	48715.91
607.20	48928.90
607.36	48210.35
607.51	48390.58
607.67	48505.26
607.82	48573.14
607.98	48203.33
608.13	48498.24
608.29	48413.98
608.44	48404.62
608.60	48362.49
608.75	48458.45
608.91	48381.21
609.06	47941.19
609.22	48535.69
609.37	48245.46
609.53	48556.75
609.68	48807.19
609.84	48336.74
609.99	48762.72
610.15	48303.98
610.30	48168.22
610.46	48224.40
610.61	48744.00
610.76	48215.04
610.92	47924.81
611.07	48413.98
611.23	48053.54
611.38	48076.94
611.54	48135.46
611.69	48612.93
611.84	48369.51
612.00	47957.58
612.15	48322.70
612.31	48671.44
612.46	48062.90
612.62	48383.55
612.77	48067.58
612.92	48505.26
613.08	47969.28
613.23	48610.59
613.39	47936.51
613.54	47683.73
613.69	48390.58
613.85	48247.80
614.00	48168.22
614.15	47931.83
614.31	48137.80
614.46	47854.59
614.62	47767.99
614.77	47667.35
614.92	47885.02
615.08	47679.05
615.23	48072.26
615.38	47859.27
615.54	48093.33
615.69	48004.39
615.84	47889.70
616.00	47875.66
616.15	47908.43
616.30	47938.85
616.46	47730.54
616.61	48006.73
616.76	47950.56
616.92	47342.02
617.07	47697.78
617.22	47863.96
617.37	47475.43
617.53	47917.79
617.68	47697.78
617.83	47842.89
617.99	47466.06
618.14	47810.12
618.29	47636.92
618.45	47601.82
618.60	47330.31
618.75	46902.00
618.90	47632.24
619.06	47606.50
619.21	47597.13
619.36	47800.76
619.51	47342.02
619.67	47515.22
619.82	47145.41
619.97	47980.98
620.12	47456.70
620.28	47302.23
620.43	47365.42
620.58	47601.82
620.73	47608.84
620.89	47782.04
621.04	47419.25
621.19	47021.36
621.34	47473.09
621.49	47161.79
621.65	47164.14
621.80	47681.39
621.95	47049.45
622.10	46976.89
622.25	47063.49
622.41	46710.07
622.56	47166.48
622.71	47206.26
622.86	47122.01
623.01	47107.96
623.16	46845.82
623.32	46721.77
623.47	47047.11
623.62	46932.42
623.77	47199.24
623.92	47416.91
624.07	47028.38
624.23	46773.27
624.38	46827.10
624.53	46791.99
624.68	46983.91
624.83	46871.57
624.98	47019.02
625.13	46347.29
625.29	46724.11
625.44	46958.17
625.59	46892.63
625.74	46770.93
625.89	46206.86
626.04	45993.87
626.19	46784.97
626.34	46277.07
626.49	46382.40
626.65	45958.76
626.80	46644.54
626.95	46003.23
627.10	46045.36
627.25	46518.15
627.40	46466.66
627.55	46321.54
627.70	46117.92
627.85	46714.75
628.00	46150.68
628.15	46745.18
628.30	45855.78
628.45	45771.52
628.60	45815.99
628.76	46288.77
628.91	45675.55
629.06	46183.45
629.21	45771.52
629.36	45848.75
629.51	46239.62
629.66	46188.13
629.81	45883.86
629.96	45996.21
630.11	45867.48
630.26	45961.10
630.41	45975.14
630.56	46099.19
630.71	46244.30
630.86	45453.20
631.01	45099.78
631.16	45141.91
631.31	45865.14
631.46	45567.89
631.61	45954.08
631.76	45766.84
631.91	45872.16
632.06	45645.13
632.21	46089.83
632.36	45989.19
632.51	44980.42
632.66	45982.16
632.81	45492.99
632.96	45509.38
633.10	45542.14
633.25	45099.78
633.40	45296.39
633.55	45844.07
633.70	45078.72
633.85	45188.72
634.00	45198.09
634.15	45251.92
634.30	45272.98
634.45	45125.53
634.60	44851.69
634.75	45490.65
634.90	45148.93
635.05	45284.68
635.19	45111.49
635.34	45408.73
635.49	45104.46
635.64	45507.04
635.79	45024.89
635.94	45059.99
636.09	45296.39
636.24	44978.07
636.39	45134.89
636.53	45095.10
636.68	44954.67
636.83	44811.90
636.98	44657.42
637.13	44505.29
637.28	44348.47
637.43	44645.72
637.57	44463.16
637.72	44706.57
637.87	44634.02
638.02	44697.21
638.17	44617.63
638.32	44737.00
638.46	44306.34
638.61	44341.45
638.76	43985.69
638.91	44603.59
639.06	44528.69
639.20	44065.27
639.35	44023.14
639.50	44013.77
639.65	44114.42
639.80	44261.87
639.94	44364.85
640.09	44739.34
640.24	44737.00
640.39	44252.51
640.54	43728.23
640.68	44147.18
640.83	44446.77
640.98	44215.06
641.13	43725.89
641.27	44299.32
641.42	43690.78
641.57	44383.58
641.72	44505.29
641.86	43597.16
642.01	43697.80
642.16	43824.19
642.31	43983.35
642.45	44327.41
642.60	43386.51
642.75	43702.48
642.90	44016.11
643.04	43936.54
643.19	43562.05
643.34	43505.88
643.48	43618.22
643.63	43634.61
643.78	43461.41
643.93	43585.46
644.07	44116.76
644.22	43423.96
644.37	43386.51
644.51	43276.51
644.66	43751.63
644.81	43573.75
644.95	43730.57
645.10	43409.92
645.25	43285.87
645.39	43435.66
645.54	43278.85
645.69	42784.99
645.83	43086.92
645.98	43070.54
646.13	42993.30
646.27	43412.26
646.42	43199.27
646.57	43131.39
646.71	43548.01
646.86	43166.50
647.00	43042.45
647.15	43232.04
647.30	43267.14
647.44	42806.06
647.59	42895.00
647.74	42899.68
647.88	43159.48
648.03	43496.52
648.17	43552.69
648.32	43098.62
648.47	43157.14
648.61	42581.37
648.76	42677.33
648.90	42574.34
649.05	42572.00
649.20	42782.65
649.34	42646.90
649.49	42806.06
649.63	43035.43
649.78	42705.41
649.92	43196.93
650.07	43126.71
650.21	42892.66
650.36	43374.81
650.51	42714.78
650.65	42890.32
650.80	42946.49
650.94	42918.40
651.09	42649.24
651.23	42251.35
651.38	42660.94
651.52	42143.69
651.67	42431.57
651.81	42281.78
651.96	42024.32
652.10	42162.41
652.25	42038.36
652.39	42279.44
652.54	42497.11
652.68	42209.22
652.83	42230.29
652.97	42316.89
653.12	42241.99
653.26	42075.81
653.41	42127.30
653.55	42492.43
653.70	41888.57
653.84	42471.36
653.99	41621.75
654.13	41876.86
654.27	41750.48
654.42	41951.76
654.56	41628.77
654.71	42272.42
654.85	42419.87
655.00	41834.74
655.14	42305.18
655.29	41834.74
655.43	41972.83
655.57	41516.42
655.72	41544.51
655.86	41457.91
656.01	41188.75
656.15	41111.51
656.30	41354.93
656.44	41804.31
656.58	42335.61
656.73	41436.84
656.87	41282.37
657.01	41446.21
657.16	41624.09
657.30	41329.18
657.45	41212.15
657.59	41045.97
657.73	40938.31
657.88	41055.34
658.02	41478.97
658.16	41291.73
658.31	41127.89
658.45	41242.58
658.60	40903.20
658.74	41191.09
658.88	41071.72
659.03	41074.06
659.17	40982.78
659.31	40755.75
659.46	40935.97
659.60	40734.68
659.74	41015.55
659.89	40484.25
660.03	40289.98
660.17	40765.11
660.32	40591.91
660.46	40189.34
660.60	40343.81
660.74	40442.12
660.89	40722.98
661.03	40051.25
661.17	40229.13
661.32	39941.24
661.46	40397.65
661.60	39775.06
661.74	39880.39
661.89	40067.63
662.03	40032.52
662.17	39761.02
662.31	39363.13
662.46	40112.10
662.60	39723.57
662.74	39494.20
662.88	39384.19
663.03	39454.41
663.17	39070.56
663.31	39344.41
663.45	39166.52
663.60	39416.96
663.74	39243.76
663.88	39653.36
664.02	39302.28
664.17	39440.37
664.31	39040.14
664.45	38813.10
664.59	38958.22
664.73	39075.24
664.88	39208.65
665.02	38815.44
665.16	38841.19
665.30	38691.40
665.44	38782.68
665.59	38366.06
665.73	38160.09
665.87	38026.68
666.01	38183.50
666.15	38672.67
666.29	38342.66
666.44	38710.12
666.58	38939.49
666.72	37785.61
666.86	38026.68
667.00	38260.74
667.14	37996.26
667.28	37825.40
667.43	37956.47
667.57	37596.03
667.71	38022.00
667.85	38101.58
667.99	37986.89
668.13	37689.65
668.27	37408.78
668.41	37240.26
668.56	37097.49
668.70	37310.48
668.84	36947.70
668.98	37153.66
669.12	37331.54
669.26	37490.70
669.40	36797.90
669.54	37373.67
669.68	37240.26
669.82	37057.70
669.96	36690.24
670.10	36610.66
670.25	37015.57
670.39	36601.30
670.53	36669.17
670.67	36355.54
670.81	36851.73
670.95	36425.76
671.09	35819.56
671.23	36446.82
671.37	36451.50
671.51	36247.88
671.65	36102.76
671.79	36144.89
671.93	36016.16
672.07	35950.63
672.21	35871.05
672.35	35665.08
672.49	35646.36
672.63	35957.65
672.77	35161.87
672.91	35665.08
673.05	35681.47
673.19	35248.47
673.33	35328.05
673.47	35072.93
673.61	35180.59
673.75	34565.03
673.89	34738.23
674.03	34462.05
674.17	34300.55
674.31	34462.05
674.45	34583.76
674.59	34614.18
674.73	34548.65
674.87	34150.76
675.01	34064.16
675.15	33474.34
675.29	33542.22
675.43	33635.84
675.56	33851.17
675.70	33582.01
675.84	33364.34
675.98	32781.54
676.12	33408.81
676.26	33809.04
676.40	33408.81
676.54	32987.51
676.68	32989.85
676.82	32414.08
676.96	33031.98
677.10	33029.64
677.23	32961.76
677.37	32676.22
677.51	32943.04
677.65	32603.66
677.79	32423.44
677.93	32411.74
678.07	32421.10
678.21	31779.79
678.34	31615.96
678.48	31655.75
678.62	31754.05
678.76	31833.63
678.90	31571.49
679.04	31688.51
679.18	31955.33
679.31	31288.28
679.45	31112.74
679.59	31068.27
679.73	31253.17
679.87	30682.08
680.00	31197.00
680.14	30927.84
680.28	30586.12
680.42	30656.34
680.56	30466.75
680.70	30445.69
680.83	30291.21
680.97	29827.79
681.11	30174.19
681.25	29757.57
681.39	29462.66
681.52	29734.17
681.66	29319.89
681.80	29034.35
681.94	29160.73
682.07	29078.82
682.21	28924.34
682.35	28823.70
682.49	29013.28
682.62	28844.76
682.76	29130.31
682.90	28884.55
683.04	28563.90
683.17	28212.82
683.31	28460.91
683.45	28034.94
683.59	28313.46
683.72	27955.36
683.86	28065.36
684.00	27985.79
684.13	27915.57
684.27	27564.49
684.41	27447.46
684.55	27627.68
684.68	27475.55
684.82	26955.95
684.96	27187.66
685.09	27002.76
685.23	27087.02
685.37	27857.06
685.50	27278.94
685.64	26890.41
685.78	26768.71
685.91	26518.27
686.05	26368.48
686.19	26408.26
686.32	26314.64
686.46	26068.89
686.60	25855.90
686.73	26040.80
686.87	25993.99
687.01	26387.20
687.14	26094.63
687.28	25448.64
687.42	25771.64
687.55	25455.67
687.69	25380.77
687.82	25186.50
687.96	25249.70
688.10	25188.85
688.23	25160.76
688.37	25149.06
688.50	25219.27
688.64	25088.20
688.78	24819.04
688.91	24617.75
689.05	24776.91
689.18	24264.33
689.32	24079.43
689.46	24149.65
689.59	24355.61
689.73	24376.68
689.86	23910.91
690.00	24184.76
690.13	23922.62
690.27	23566.85
690.41	23494.30
690.54	23379.61
690.68	23005.13
690.81	23183.01
690.95	23403.02
691.08	22993.42
691.22	22597.87
691.35	22906.82
691.49	22672.77
691.62	22565.10
691.76	22602.55
691.89	22593.19
692.03	21858.26
692.16	21853.58
692.30	21846.56
692.43	22089.98
692.57	22052.53
692.70	21818.47
692.84	21713.15
692.97	21495.48
693.11	21465.05
693.24	21282.49
693.38	21647.61
693.51	21275.47
693.65	20961.84
693.78	21231.00
693.92	20987.58
694.05	21083.55
694.19	20657.57
694.32	20954.82
694.45	21106.95
694.59	20805.02
694.72	20734.81
694.86	20755.87
694.99	20304.15
695.13	19854.76
695.26	20109.88
695.39	19807.95
695.53	19449.85
695.66	20290.10
695.80	19826.68
695.93	19957.75
696.07	19707.31
696.20	19431.13
696.33	19185.37
696.47	18918.55
696.60	19066.00
696.73	19274.31
696.87	19271.97
697.00	19159.63
697.14	18675.13
697.27	18855.36
697.40	18640.03
697.54	18434.06
697.67	18853.02
697.80	18141.49
697.94	18616.62
698.07	18492.57
698.21	18455.12
698.34	18216.39
698.47	17853.61
698.61	17717.86
698.74	17926.16
698.87	17666.36
699.01	17750.62
699.14	17666.36
699.27	17652.32
699.40	17696.79
699.54	17495.50
699.67	17303.58
699.80	17392.52
699.94	17153.79
700.07	17109.32
700.20	16896.33
700.34	16891.65
700.47	16786.32
700.60	17156.13
700.73	16592.06
700.87	16709.08
701.00	16414.18
701.13	16505.46
701.26	16404.81
701.40	16079.48
701.53	16081.82
701.66	16009.26
701.79	16187.14
701.93	15765.85
702.06	15861.81
702.19	15768.19
702.32	16018.63
702.46	15634.78
702.59	16079.48
702.72	15894.58
702.85	15681.59
702.99	15639.46
703.12	15260.29
703.25	15426.47
703.38	15288.38
703.51	15218.16
703.65	14764.10
703.78	14860.06
703.91	14668.14
704.04	14537.07
704.17	14700.90
704.31	14801.55
704.44	14588.56
704.57	14569.83
704.70	14534.73
704.83	14235.14
704.96	14295.99
705.10	14178.97
705.23	14139.18
>>>>>End Processed Spectral Data<<<<<
