SpectraSuite Data File
++++++++++++++++++++++++++++++++++++
Date: Fri Oct 25 10:43:38 EDT 2013
User: price-jones
Dark Spectrum Present: No
Reference Spectrum Present: No
Number of Sampled Component Spectra: 1
Spectrometers: USB2+H05261
Integration Time (usec): 100000 (USB2+H05261)
Spectra Averaged: 1 (USB2+H05261)
Boxcar Smoothing: 0 (USB2+H05261)
Correct for Electrical Dark: No (USB2+H05261)
Strobe/Lamp Enabled: No (USB2+H05261)
Correct for Detector Non-linearity: No (USB2+H05261)
Correct for Stray Light: No (USB2+H05261)
Number of Pixels in Processed Spectrum: 2048
>>>>>Begin Processed Spectral Data<<<<<
365.73	145.11
365.92	145.11
366.12	145.11
366.32	140.43
366.52	49.15
366.72	35.11
366.91	0.00
367.11	23.41
367.31	7.02
367.51	49.15
367.70	39.79
367.90	9.36
368.10	11.70
368.30	0.00
368.49	7.02
368.69	81.92
368.89	0.00
369.09	9.36
369.28	126.39
369.48	7.02
369.68	110.01
369.87	79.58
370.07	126.39
370.27	100.64
370.47	196.60
370.66	404.91
370.86	468.11
371.06	465.77
371.25	521.94
371.45	402.57
371.65	430.66
371.84	367.46
372.04	428.32
372.24	491.51
372.44	510.24
372.63	440.02
372.83	496.19
373.03	486.83
373.22	456.40
373.42	468.11
373.62	531.30
373.81	517.26
374.01	610.88
374.21	561.73
374.40	571.09
374.60	582.79
374.79	561.73
374.99	594.50
375.19	610.88
375.38	517.26
375.58	683.44
375.78	596.84
375.97	557.05
376.17	627.26
376.37	596.84
376.56	594.50
376.76	655.35
376.95	608.54
377.15	629.60
377.35	662.37
377.54	669.39
377.74	634.29
377.93	641.31
378.13	641.31
378.33	685.78
378.52	662.37
378.72	678.76
378.91	692.80
379.11	772.38
379.31	653.01
379.50	622.58
379.70	634.29
379.89	711.52
380.09	634.29
380.28	737.27
380.48	699.82
380.68	704.50
380.87	674.07
381.07	613.22
381.26	615.56
381.46	636.63
381.65	678.76
381.85	692.80
382.04	641.31
382.24	669.39
382.43	732.59
382.63	655.35
382.83	690.46
383.02	692.80
383.22	727.91
383.41	706.84
383.61	849.61
383.80	755.99
384.00	821.53
384.19	772.38
384.39	795.78
384.58	777.06
384.78	770.04
384.97	788.76
385.17	767.70
385.36	781.74
385.56	835.57
385.75	816.85
385.95	753.65
386.14	840.25
386.34	844.93
386.53	898.77
386.72	819.19
386.92	894.08
387.11	847.27
387.31	823.87
387.50	875.36
387.70	791.10
387.89	856.64
388.09	870.68
388.28	863.66
388.48	842.59
388.67	903.45
388.86	912.81
389.06	943.24
389.25	983.02
389.45	1008.77
389.64	966.64
389.84	903.45
390.03	959.62
390.22	1032.18
390.42	1034.52
390.61	1006.43
390.81	1046.22
391.00	992.39
391.19	990.05
391.39	990.05
391.58	1090.69
391.78	1029.84
391.97	1163.25
392.16	1062.60
392.36	1062.60
392.55	978.34
392.75	966.64
392.94	954.94
393.13	973.66
393.33	1095.37
393.52	1064.94
393.71	1135.16
393.91	1196.01
394.10	1144.52
394.29	1111.75
394.49	1198.35
394.68	1256.87
394.88	1231.12
395.07	1273.25
395.26	1193.67
395.46	1296.66
395.65	1291.98
395.84	1205.38
396.04	1231.12
396.23	1207.72
396.42	1128.14
396.62	1125.80
396.81	1231.12
397.00	1242.82
397.19	1233.46
397.39	1343.47
397.58	1401.98
397.77	1348.15
397.97	1465.18
398.16	1341.13
398.35	1462.83
398.55	1425.39
398.74	1476.88
398.93	1465.18
399.12	1535.39
399.32	1460.49
399.51	1556.46
399.70	1556.46
399.90	1526.03
400.09	1558.80
400.28	1629.01
400.47	1582.20
400.67	1720.29
400.86	1636.03
401.05	1610.29
401.24	1753.06
401.44	1640.72
401.63	1774.13
401.82	1797.53
402.01	1790.51
402.21	1659.44
402.40	1783.49
402.59	1778.81
402.78	1839.66
402.97	1795.19
403.17	1792.85
403.36	1872.43
403.55	1846.68
403.74	1942.64
403.93	1954.35
404.13	1954.35
404.32	1954.35
404.51	1909.88
404.70	1966.05
404.89	1919.24
405.09	2094.78
405.28	1984.77
405.47	1989.46
405.66	1968.39
405.85	1959.03
406.05	2057.33
406.24	2031.58
406.43	2010.52
406.62	2059.67
406.81	2148.61
407.00	2160.31
407.20	2057.33
407.39	2083.08
407.58	2155.63
407.77	2087.76
407.96	2232.87
408.15	2356.92
408.34	2396.71
408.54	2310.11
408.73	2509.05
408.92	2265.64
409.11	2368.62
409.30	2382.67
409.49	2326.49
409.68	2328.83
409.87	2282.02
410.07	2324.15
410.26	2361.60
410.45	2368.62
410.64	2363.94
410.83	2583.95
411.02	2483.31
411.21	2684.59
411.40	2616.72
411.59	2569.91
411.78	2668.21
411.98	2696.30
412.17	2651.83
412.36	2623.74
412.55	2733.75
412.74	2813.32
412.93	2738.43
413.12	2757.15
413.31	2818.00
413.50	2878.86
413.69	2911.63
413.88	2998.23
414.07	2956.10
414.26	2874.18
414.45	2979.50
414.64	2972.48
414.83	3136.32
415.02	3054.40
415.22	3061.42
415.41	3103.55
415.60	3290.79
415.79	3143.34
415.98	3330.58
416.17	3307.18
416.36	3248.66
416.55	3295.47
416.74	3290.79
416.93	3325.90
417.12	3346.97
417.31	3499.10
417.50	3461.65
417.69	3410.16
417.88	3421.86
418.07	3414.84
418.26	3391.44
418.45	3581.02
418.64	3728.47
418.83	3538.89
419.02	3672.30
419.21	3707.41
419.39	3719.11
419.58	3618.47
419.77	3618.47
419.96	3613.79
420.15	3782.31
420.34	3632.51
420.53	3908.69
420.72	3801.03
420.91	3861.88
421.10	3889.97
421.29	3943.80
421.48	3765.92
421.67	3922.74
421.86	3894.65
422.05	3882.95
422.24	3719.11
422.43	3726.13
422.61	3875.93
422.80	3948.48
422.99	4037.42
423.18	4028.06
423.37	4133.39
423.56	3962.53
423.75	4081.89
423.94	3971.89
424.13	3716.77
424.32	3829.12
424.50	4007.00
424.69	4175.52
424.88	3983.59
425.07	4016.36
425.26	3927.42
425.45	4030.40
425.64	3997.64
425.83	4100.62
426.01	4093.60
426.20	3974.23
426.39	4088.92
426.58	3915.72
426.77	3934.44
426.96	3840.82
427.15	3892.31
427.33	4191.90
427.52	4196.58
427.71	4098.28
427.90	4156.79
428.09	4124.02
428.28	4063.17
428.46	4280.84
428.65	4154.45
428.84	4362.76
429.03	4313.61
429.22	4196.58
429.40	4131.05
429.59	4229.35
429.78	3911.04
429.97	3962.53
430.16	3983.59
430.34	4021.04
430.53	4278.50
430.72	4266.80
430.91	4372.12
431.10	4266.80
431.28	4561.70
431.47	4561.70
431.66	4767.67
431.85	4547.66
432.03	4585.11
432.22	4662.35
432.41	4655.33
432.60	4566.39
432.79	4720.86
432.97	4863.63
433.16	4858.95
433.35	4751.29
433.54	4690.43
433.72	4753.63
433.91	4732.56
434.10	4917.47
434.28	4641.28
434.47	4819.16
434.66	4922.15
434.85	5128.11
435.03	4926.83
435.22	5034.49
435.41	5085.98
435.59	5125.77
435.78	5165.56
435.97	5090.67
436.16	5235.78
436.34	5055.56
436.53	5001.72
436.72	5254.50
436.90	5081.30
437.09	5327.06
437.28	5055.56
437.46	5240.46
437.65	5315.36
437.84	5359.83
438.02	5240.46
438.21	5207.69
438.40	5151.52
438.58	5406.64
438.77	5455.79
438.96	5373.87
439.14	5605.58
439.33	5584.52
439.52	5605.58
439.70	5598.56
439.89	5769.42
440.08	5961.34
440.26	5781.12
440.45	5755.38
440.63	6015.18
440.82	5973.05
441.01	6061.99
441.19	6061.99
441.38	6200.08
441.57	6174.33
441.75	6218.80
441.94	6406.05
442.12	6368.60
442.31	6534.78
442.50	6478.60
442.68	6296.04
442.87	6305.40
443.05	6249.23
443.24	6574.56
443.43	6424.77
443.61	6663.51
443.80	6726.70
443.98	6436.47
444.17	6473.92
444.35	6403.71
444.54	6703.29
444.73	6544.14
444.91	6443.49
445.10	6572.22
445.28	6497.33
445.47	6345.19
445.65	6553.50
445.84	6630.74
446.02	6595.63
446.21	6497.33
446.39	6665.85
446.58	6796.92
446.77	6773.51
446.95	6626.06
447.14	6820.32
447.32	6932.67
447.51	6972.46
447.69	6520.73
447.88	6670.53
448.06	6775.85
448.25	6668.19
448.43	6993.52
448.62	6829.68
448.80	6803.94
448.99	6927.99
449.17	6998.20
449.36	6906.92
449.54	6869.47
449.73	7185.44
449.91	7204.17
450.10	7124.59
450.28	7419.50
450.46	7346.94
450.65	7396.09
450.83	7428.86
451.02	7353.96
451.20	7225.23
451.39	7185.44
451.57	7297.79
451.76	7260.34
451.94	7365.67
452.13	7375.03
452.31	7297.79
452.49	7145.66
452.68	7311.83
452.86	7124.59
453.05	7283.75
453.23	7377.37
453.42	7456.95
453.60	7492.05
453.78	7566.95
453.97	7508.44
454.15	7393.75
454.34	7368.01
454.52	7648.87
454.70	7616.10
454.89	7442.90
455.07	7494.40
455.26	7768.24
455.44	7922.71
455.62	7644.19
455.81	7585.68
455.99	7943.78
456.17	7826.75
456.36	7995.27
456.54	8035.06
456.73	8039.74
456.91	8334.65
457.09	8250.39
457.28	8381.46
457.46	8234.00
457.64	8292.52
457.83	8383.80
458.01	8229.32
458.19	8278.47
458.38	8231.66
458.56	8259.75
458.74	8463.38
458.93	8208.26
459.11	8273.79
459.29	8461.04
459.48	8388.48
459.66	8278.47
459.84	8461.04
460.03	8606.15
460.21	8463.38
460.39	8631.90
460.57	8610.83
460.76	8681.05
460.94	8542.96
461.12	8678.71
461.31	8798.07
461.49	8674.03
461.67	8519.55
461.85	9156.18
462.04	8961.91
462.22	9144.47
462.40	9153.84
462.59	8964.25
462.77	8954.89
462.95	9025.11
463.13	9100.00
463.32	8800.41
463.50	9210.01
463.68	8992.34
463.86	9062.55
464.05	9020.42
464.23	8725.52
464.41	9107.02
464.59	9090.64
464.78	9467.47
464.96	9305.97
465.14	9165.54
465.32	9474.49
465.50	9432.36
465.69	9305.97
465.87	9137.45
466.05	9181.92
466.23	9352.78
466.41	9029.79
466.60	9474.49
466.78	9179.58
466.96	9329.38
467.14	9294.27
467.32	9404.27
467.51	9605.56
467.69	9376.19
467.87	9462.79
468.05	9507.26
468.23	9472.15
468.41	9514.28
468.60	9528.32
468.78	9743.65
468.96	9682.80
469.14	9776.42
469.32	10085.37
469.50	9530.66
469.69	9682.80
469.87	9799.82
470.05	9837.27
470.23	9923.87
470.41	9771.74
470.59	9987.07
470.77	9977.70
470.95	10092.39
471.14	10174.31
471.32	9987.07
471.50	10420.06
471.68	10448.15
471.86	10286.65
472.04	10452.83
472.22	10654.12
472.40	10396.66
472.58	10415.38
472.77	10434.11
472.95	10721.99
473.13	11056.69
473.31	10768.80
473.49	10743.06
473.67	10640.08
473.85	10733.70
474.03	10944.34
474.21	11164.36
474.39	11108.18
474.57	11215.85
474.75	11356.28
474.93	11257.98
475.12	11269.68
475.30	11239.25
475.48	11225.21
475.66	11382.03
475.84	11344.58
476.02	11468.62
476.20	11665.23
476.38	11672.25
476.56	12334.62
476.74	11845.45
476.92	11868.86
477.10	11906.31
477.28	12248.02
477.46	12222.28
477.64	12493.78
477.82	12592.08
478.00	12748.90
478.18	12575.70
478.36	12622.51
478.54	12734.85
478.72	13041.46
478.90	12966.57
479.08	13294.24
479.26	13434.68
479.44	13577.45
479.62	13343.39
479.80	13369.14
479.98	13572.77
480.16	13589.15
480.34	13355.10
480.52	13905.12
480.70	13926.19
480.88	13486.17
481.06	14052.58
481.24	14504.30
481.41	14546.43
481.59	14523.02
481.77	14668.14
481.95	14422.38
482.13	14696.22
482.31	14686.86
482.49	15002.83
482.67	14916.23
482.85	15089.43
483.03	15264.97
483.21	15176.03
483.39	15522.43
483.57	15330.51
483.74	15726.06
483.92	15620.74
484.10	15517.75
484.28	15922.66
484.46	16105.23
484.64	16327.58
484.82	16224.59
485.00	16168.42
485.18	16163.74
485.35	16301.83
485.53	16100.55
485.71	16255.02
485.89	16905.69
486.07	16723.13
486.25	16950.16
486.43	16851.86
486.61	17156.13
486.78	17312.94
486.96	17479.12
487.14	17558.70
487.32	17804.46
487.50	18141.49
487.68	18384.91
487.85	18424.70
488.03	18609.60
488.21	18787.48
488.39	18511.30
488.57	18604.92
488.75	18724.29
488.92	19054.30
489.10	19491.98
489.28	19632.41
489.46	19630.07
489.64	19737.74
489.81	20339.26
489.99	20266.70
490.17	20198.82
490.35	20545.22
490.53	20816.72
490.70	20585.01
490.88	20732.47
491.06	20893.96
491.24	20973.54
491.41	20793.32
491.59	21186.53
491.77	20582.67
491.95	21411.22
492.13	21193.55
492.30	21757.62
492.48	21661.66
492.66	22251.47
492.84	22010.40
493.01	22031.46
493.19	22574.47
493.37	22506.59
493.54	22637.66
493.72	22750.01
493.90	22850.65
494.08	23225.14
494.25	23611.32
494.43	23241.52
494.61	23597.28
494.79	23482.59
494.96	23721.33
495.14	23522.38
495.32	24084.11
495.49	23960.06
495.67	23875.80
495.85	24486.68
496.02	24350.93
496.20	24706.70
496.38	24439.87
496.55	24936.07
496.73	25027.35
496.91	24833.08
497.09	25235.66
497.26	25383.11
497.44	25102.25
497.62	25394.81
497.79	25223.95
497.97	25015.65
498.14	25734.19
498.32	25975.27
498.50	25783.34
498.67	26307.62
498.85	26270.17
499.03	26724.24
499.20	26534.65
499.38	26242.09
499.56	26588.49
499.73	26562.74
499.91	26764.03
500.08	26923.18
500.26	26644.66
500.44	26801.47
500.61	26707.85
500.79	26808.50
500.97	26836.58
501.14	27431.08
501.32	27271.92
501.49	27358.52
501.67	27215.75
501.84	27676.83
502.02	27325.75
502.20	27899.19
502.37	28034.94
502.55	27864.08
502.72	28140.26
502.90	28147.28
503.07	28259.63
503.25	28268.99
503.43	28016.21
503.60	28528.79
503.78	28500.70
503.95	28446.87
504.13	29060.09
504.30	28840.08
504.48	29010.94
504.65	29450.96
504.83	29366.70
505.01	29237.97
505.18	29350.32
505.36	29596.07
505.53	29795.02
505.71	29851.19
505.88	29717.78
506.06	29537.56
506.23	29802.04
506.41	29715.44
506.58	30087.59
506.76	29954.18
506.93	30167.16
507.11	30356.75
507.28	30300.58
507.46	30300.58
507.63	30164.82
507.81	30218.66
507.98	30260.79
508.16	30850.60
508.33	30834.22
508.50	30829.54
508.68	30976.99
508.85	31419.35
509.03	30981.67
509.20	31161.89
509.38	31672.13
509.55	31606.59
509.73	31601.91
509.90	31449.78
510.08	31627.66
510.25	31496.59
510.42	31824.26
510.60	32360.25
510.77	31941.29
510.95	32552.17
511.12	32079.38
511.30	32521.74
511.47	32755.80
511.64	32683.24
511.82	32608.34
511.99	32430.46
512.17	32708.99
512.34	32650.47
512.51	32914.95
512.69	32678.56
512.86	32690.26
513.04	33081.13
513.21	32999.21
513.38	32744.09
513.56	33071.77
513.73	32811.97
513.90	33156.03
514.08	33324.55
514.25	33429.87
514.43	33539.88
514.60	33329.23
514.77	33909.68
514.95	33813.72
515.12	33577.33
515.29	34071.18
515.47	34101.61
515.64	34220.97
515.81	34183.52
515.99	34185.86
516.16	34312.25
516.33	34043.09
516.51	33778.61
516.68	33649.88
516.85	33027.30
517.03	33806.70
517.20	34293.53
517.37	34569.71
517.54	34876.32
517.72	34473.75
517.89	34031.39
518.06	34492.47
518.24	34295.87
518.41	34293.53
518.58	34892.71
518.75	34759.30
518.93	34902.07
519.10	35208.68
519.27	35318.68
519.45	35335.07
519.62	35866.37
519.79	35222.72
519.96	35583.16
520.14	35880.41
520.31	35510.61
520.48	35576.14
520.65	35351.45
520.83	36191.70
521.00	36065.31
521.17	36362.56
521.34	35924.88
521.52	35875.73
521.69	36449.16
521.86	36676.19
522.03	36577.89
522.20	36432.78
522.38	36325.11
522.55	36919.61
522.72	36065.31
522.89	36641.09
523.07	36559.17
523.24	36783.86
523.41	37273.03
523.58	36732.37
523.75	37434.53
523.92	37764.54
524.10	37818.38
524.27	38019.66
524.44	37048.34
524.61	37727.10
524.78	37163.03
524.96	37799.65
525.13	37977.53
525.30	37816.04
525.47	38129.67
525.64	37937.74
525.81	37551.56
525.98	37584.32
526.16	37490.70
526.33	37759.86
526.50	37879.23
526.67	37827.74
526.84	37553.90
527.01	37418.14
527.18	37982.21
527.36	38611.82
527.53	38532.24
527.70	39124.40
527.87	38492.45
528.04	38263.08
528.21	38749.91
528.38	38574.37
528.55	39133.76
528.72	38948.85
528.89	38813.10
529.07	39103.33
529.24	38824.81
529.41	39002.69
529.58	39086.95
529.75	38789.70
529.92	39597.18
530.09	39353.77
530.26	39400.58
530.43	39651.02
530.60	39232.06
530.77	39370.15
530.94	39702.51
531.11	39643.99
531.28	39711.87
531.46	39634.63
531.63	39613.57
531.80	39807.83
531.97	39899.11
532.14	39555.05
532.31	39487.18
532.48	39620.59
532.65	39592.50
532.82	40016.14
532.99	40278.28
533.16	39955.29
533.33	40313.39
533.50	40032.52
533.67	40493.61
533.84	40032.52
534.01	40055.93
534.18	40051.25
534.35	40779.15
534.52	40367.22
534.69	40704.26
534.86	40868.09
535.03	40500.63
535.20	41228.54
535.37	40811.92
535.54	41008.53
535.71	41258.96
535.88	41074.06
536.05	40765.11
536.22	41139.60
536.38	41478.97
536.55	40591.91
536.72	40577.87
536.89	40383.60
537.06	40676.17
537.23	41102.15
537.40	41319.82
537.57	41127.89
537.74	41394.71
537.91	41998.57
538.08	41235.56
538.25	41202.79
538.42	41083.42
538.59	41469.61
538.75	41364.29
538.92	41654.51
539.09	41429.82
539.26	41813.67
539.43	41530.47
539.60	41900.27
539.77	41427.48
539.94	41493.02
540.11	41743.45
540.28	41975.17
540.44	41244.92
540.61	41830.05
540.78	41127.89
540.95	41619.41
541.12	41706.01
541.29	41773.88
541.46	42148.37
541.62	42342.63
541.79	42649.24
541.96	41635.79
542.13	41944.74
542.30	42529.87
542.47	42220.92
542.63	42473.70
542.80	42139.00
542.97	42775.63
543.14	42981.60
543.31	42941.81
543.48	42930.11
543.64	43175.86
543.81	43150.12
543.98	42953.51
544.15	42766.27
544.32	43182.88
544.48	43688.44
544.65	42990.96
544.82	43438.00
544.99	42890.32
545.16	43372.47
545.32	43037.77
545.49	43117.35
545.66	43768.02
545.83	43494.18
546.00	43711.84
546.16	43522.26
546.33	43562.05
546.50	43159.48
546.67	43489.49
546.83	43372.47
547.00	43725.89
547.17	43501.20
547.34	42906.70
547.50	43594.82
547.67	43988.03
547.84	43943.56
548.00	44243.15
548.17	44713.59
548.34	44163.57
548.51	44388.26
548.67	44357.83
548.84	44362.51
549.01	44105.06
549.18	43885.04
549.34	43753.97
549.51	43931.86
549.68	44259.53
549.84	44065.27
550.01	44011.43
550.18	43896.75
550.34	44318.04
550.51	44306.34
550.68	44240.81
550.84	43728.23
551.01	44404.64
551.18	44343.79
551.34	44261.87
551.51	44472.52
551.68	44964.03
551.84	44488.90
552.01	44385.92
552.18	44692.53
552.34	43997.39
552.51	44472.52
552.68	44322.72
552.84	44708.91
553.01	44767.43
553.18	44781.47
553.34	44748.70
553.51	44591.89
553.67	44701.89
553.84	44816.58
554.01	45057.65
554.17	45001.48
554.34	45244.90
554.51	45006.16
554.67	45085.74
554.84	45120.85
555.00	44865.73
555.17	44542.74
555.33	45160.64
555.50	44863.39
555.67	44971.05
555.83	44931.26
556.00	45155.96
556.16	45167.66
556.33	44985.10
556.50	45230.85
556.66	45174.68
556.83	44552.10
556.99	45422.78
557.16	45249.58
557.32	44985.10
557.49	45109.14
557.65	45106.80
557.82	44837.64
557.98	45312.77
558.15	44989.78
558.32	45261.28
558.48	44910.20
558.65	45174.68
558.81	45310.43
558.98	44938.29
559.14	44938.29
559.31	45244.90
559.47	45514.06
559.64	45177.02
559.80	45640.45
559.97	45546.82
560.13	45411.07
560.30	45387.67
560.46	45481.29
560.63	45834.71
560.79	45729.39
560.96	45965.78
561.12	45422.78
561.29	45523.42
561.45	45514.06
561.61	45530.44
561.78	45638.11
561.94	45401.71
562.11	45148.93
562.27	45514.06
562.44	45174.68
562.60	46012.59
562.77	45516.40
562.93	45858.12
563.10	45958.76
563.26	45563.21
563.42	46052.38
563.59	45418.10
563.75	45511.72
563.92	46026.63
564.08	45904.93
564.24	46171.75
564.41	45684.92
564.57	45773.86
564.74	46017.27
564.90	45862.80
565.07	45951.74
565.23	45923.65
565.39	45895.56
565.56	45474.27
565.72	45418.10
565.88	45738.75
566.05	45663.85
566.21	45808.96
566.38	45759.81
566.54	45780.88
566.70	46279.41
566.87	46057.06
567.03	45600.66
567.19	46059.40
567.36	46480.70
567.52	45848.75
567.68	46209.20
567.85	45713.00
568.01	46424.53
568.17	45834.71
568.34	46148.34
568.50	45787.90
568.66	45890.88
568.83	45811.31
568.99	45687.26
569.15	45911.95
569.32	45783.22
569.48	46129.62
569.64	45998.55
569.81	46141.32
569.97	45626.40
570.13	46199.83
570.30	45778.54
570.46	45790.24
570.62	45329.16
570.78	45659.17
570.95	45677.90
571.11	45750.45
571.27	45738.75
571.43	46014.93
571.60	45897.91
571.76	45656.83
571.92	45865.14
572.09	45837.05
572.25	46307.50
572.41	46033.66
572.57	46433.89
572.74	46728.80
572.90	46581.34
573.06	46389.42
573.22	46389.42
573.38	45900.25
573.55	46017.27
573.71	46281.75
573.87	46188.13
574.03	46204.52
574.20	46752.20
574.36	46403.46
574.52	46122.60
574.68	46031.32
574.84	46295.80
575.01	46113.23
575.17	46202.18
575.33	46092.17
575.49	46059.40
575.65	46335.59
575.82	46307.50
575.98	45982.16
576.14	46284.09
576.30	46344.95
576.46	46248.99
576.62	46021.95
576.79	46459.63
576.95	45954.08
577.11	46216.22
577.27	46146.00
577.43	46068.76
577.59	46253.67
577.75	46040.68
577.92	45862.80
578.08	45886.20
578.24	45874.50
578.40	46211.54
578.56	46220.90
578.72	46253.67
578.88	46227.92
579.04	46628.15
579.21	46330.90
579.37	46089.83
579.53	46211.54
579.69	45970.46
579.85	46204.52
580.01	46391.76
580.17	46251.33
580.33	46185.79
580.49	46469.00
580.65	46110.89
580.82	45804.28
580.98	45954.08
581.14	46117.92
581.30	46686.67
581.46	46106.21
581.62	46511.13
581.78	46234.94
581.94	46134.30
582.10	46026.63
582.26	46305.16
582.42	46873.91
582.58	45963.44
582.74	46195.15
582.90	46616.45
583.06	46569.64
583.22	46693.69
583.38	47012.00
583.54	46478.36
583.70	46319.20
583.86	46094.51
584.02	45942.38
584.18	46246.65
584.34	45918.97
584.50	46394.10
584.66	45947.06
584.82	46216.22
584.98	46679.64
585.14	46368.35
585.30	46124.94
585.46	46328.56
585.62	46047.70
585.78	46405.80
585.94	46138.98
586.10	46040.68
586.26	46078.13
586.42	46349.63
586.58	46815.40
586.74	46148.34
586.90	46078.13
587.06	46373.03
587.22	46394.10
587.38	46050.04
587.54	46623.47
587.70	46155.36
587.86	46401.12
588.02	45940.04
588.18	46424.53
588.34	46148.34
588.49	45741.09
588.65	45778.54
588.81	45778.54
588.97	46174.09
589.13	45715.34
589.29	45827.69
589.45	46335.59
589.61	46300.48
589.77	46204.52
589.93	46443.25
590.08	46256.01
590.24	46258.35
590.40	46953.49
590.56	46817.74
590.72	46864.55
590.88	46307.50
591.04	46138.98
591.20	46611.77
591.35	46541.55
591.51	46890.29
591.67	46024.29
591.83	46256.01
591.99	46246.65
592.15	46328.56
592.31	46738.16
592.46	46571.98
592.62	46733.48
592.78	46553.26
592.94	46562.62
593.10	46803.69
593.26	47019.02
593.41	46880.93
593.57	46237.28
593.73	46176.43
593.89	46770.93
594.05	46401.12
594.20	46337.93
594.36	46405.80
594.52	46461.97
594.68	46124.94
594.84	46422.19
594.99	46696.03
595.15	46436.23
595.31	46831.78
595.47	46305.16
595.62	46665.60
595.78	46279.41
595.94	46916.04
596.10	46773.27
596.25	46527.51
596.41	46405.80
596.57	46246.65
596.73	46511.13
596.88	46237.28
597.04	46253.67
597.20	46431.55
597.36	46319.20
597.51	46302.82
597.67	46476.02
597.83	46855.18
597.99	47026.04
598.14	46244.30
598.30	46604.75
598.46	46532.19
598.61	46171.75
598.77	46394.10
598.93	46724.11
599.09	46780.29
599.24	46904.34
599.40	46831.78
599.56	46859.87
599.71	46347.29
599.87	46684.33
600.03	46653.90
600.18	46422.19
600.34	46206.86
600.50	46358.99
600.65	46653.90
600.81	46614.11
600.97	46621.13
601.12	47171.16
601.28	46309.84
601.44	46490.06
601.59	46209.20
601.75	46277.07
601.91	46438.57
602.06	46403.46
602.22	46461.97
602.37	46354.31
602.53	46602.41
602.69	46656.24
602.84	46490.06
603.00	46216.22
603.16	46438.57
603.31	46117.92
603.47	46412.82
603.62	46260.69
603.78	46307.50
603.94	46653.90
604.09	46958.17
604.25	46649.22
604.40	46618.79
604.56	46279.41
604.71	46747.52
604.87	46340.27
605.03	46162.39
605.18	46314.52
605.34	46553.26
605.49	45923.65
605.65	46134.30
605.80	46298.14
605.96	46321.54
606.12	46497.08
606.27	46164.73
606.43	45797.26
606.58	46483.04
606.74	46562.62
606.89	46085.15
607.05	46384.74
607.20	45921.31
607.36	46389.42
607.51	45963.44
607.67	46064.08
607.82	46103.87
607.98	45956.42
608.13	46143.66
608.29	45928.33
608.44	46291.12
608.60	45677.90
608.75	46075.79
608.91	46358.99
609.06	46167.07
609.22	45890.88
609.37	46183.45
609.53	46227.92
609.68	46028.98
609.84	45769.18
609.99	45949.40
610.15	45689.60
610.30	45577.25
610.46	45736.41
610.61	45455.54
610.76	45911.95
610.92	46057.06
611.07	45933.01
611.23	46047.70
611.38	45804.28
611.54	45614.70
611.69	45752.79
611.84	45888.54
612.00	45565.55
612.15	45972.80
612.31	46045.36
612.46	45558.53
612.62	45736.41
612.77	45453.20
612.92	45930.67
613.08	45481.29
613.23	45570.23
613.39	45099.78
613.54	45455.54
613.69	45329.16
613.85	45368.94
614.00	45361.92
614.15	45193.40
614.31	45221.49
614.46	45635.77
614.62	45165.32
614.77	45048.29
614.92	45579.59
615.08	45116.17
615.23	45113.83
615.38	45251.92
615.54	44556.78
615.69	44566.14
615.84	45055.31
616.00	45202.77
616.15	44940.63
616.30	44982.76
616.46	44821.26
616.61	45041.27
616.76	45104.46
616.92	44727.64
617.07	44589.55
617.22	44917.22
617.37	44947.65
617.53	45303.41
617.68	45099.78
617.83	45013.18
617.99	44718.28
618.14	44521.67
618.29	44605.93
618.45	44547.42
618.60	44385.92
618.75	44376.56
618.90	44112.08
619.06	44797.85
619.21	44648.06
619.36	44643.38
619.51	44603.59
619.67	44533.37
619.82	44428.05
619.97	44336.77
620.12	44060.58
620.28	43910.79
620.43	44397.62
620.58	44416.35
620.73	44470.18
620.89	43992.71
621.04	44353.15
621.19	44334.43
621.34	44477.20
621.49	44264.21
621.65	44184.63
621.80	44201.02
621.95	44060.58
622.10	44416.35
622.25	43931.86
622.41	44186.97
622.56	43840.57
622.71	43838.23
622.86	43882.70
623.01	43772.70
623.16	44037.18
623.32	43924.83
623.47	44182.29
623.62	43756.32
623.77	43931.86
623.92	43812.49
624.07	43854.62
624.23	43648.65
624.38	43945.90
624.53	43445.02
624.68	43515.24
624.83	43768.02
624.98	43784.40
625.13	43386.51
625.29	43594.82
625.44	43342.04
625.59	43374.81
625.74	42958.19
625.89	43112.67
626.04	43213.31
626.19	42916.06
626.34	43138.41
626.49	43924.83
626.65	43054.15
626.80	43414.60
626.95	43028.41
627.10	42904.36
627.25	43131.39
627.40	42782.65
627.55	42476.04
627.70	42527.53
627.85	43068.20
628.00	42752.23
628.15	43103.31
628.30	43115.01
628.45	42946.49
628.60	42721.80
628.76	42703.07
628.91	42904.36
629.06	43023.73
629.21	42398.80
629.36	42314.55
629.51	42148.37
629.66	42550.94
629.81	42347.31
629.96	42763.93
630.11	42892.66
630.26	43086.92
630.41	42759.25
630.56	42653.92
630.71	42415.19
630.86	42218.58
631.01	42029.00
631.16	41996.23
631.31	41989.21
631.46	41823.03
631.61	41762.18
631.76	41923.68
631.91	42075.81
632.06	42492.43
632.21	42080.49
632.36	42600.09
632.51	41862.82
632.66	41816.01
632.81	41832.39
632.96	42129.64
633.10	41497.70
633.25	41996.23
633.40	42192.84
633.55	42246.67
633.70	41778.56
633.85	41996.23
634.00	42258.37
634.15	41851.12
634.30	41914.31
634.45	41759.84
634.60	41670.90
634.75	41649.83
634.90	41495.36
635.05	42050.06
635.19	41645.15
635.34	41975.17
635.49	41694.30
635.64	41352.58
635.79	41631.11
635.94	41273.01
636.09	41310.46
636.24	40989.80
636.39	41165.34
636.53	41298.75
636.68	41373.65
636.83	41069.38
636.98	41338.54
637.13	41375.99
637.28	41474.29
637.43	41263.64
637.57	41427.48
637.72	41411.10
637.87	41347.90
638.02	41280.03
638.17	41235.56
638.32	41450.89
638.46	41177.04
638.61	41078.74
638.76	40708.94
638.91	41109.17
639.06	41186.41
639.20	41298.75
639.35	41034.27
639.50	41120.87
639.65	40744.05
639.80	40797.88
639.94	40505.31
640.09	40495.95
640.24	40580.21
640.39	40561.48
640.54	40367.22
640.68	40428.07
640.83	40437.44
640.98	40601.27
641.13	40535.74
641.27	40596.59
641.42	40538.08
641.57	40566.16
641.72	40715.96
641.86	40617.66
642.01	39978.69
642.16	40027.84
642.31	39866.34
642.45	40268.92
642.60	40172.96
642.75	40084.01
642.90	40336.79
643.04	40308.71
643.19	40444.46
643.34	40081.67
643.48	40264.24
643.63	40126.14
643.78	40135.51
643.93	39892.09
644.07	39945.92
644.22	39746.98
644.37	40032.52
644.51	40112.10
644.66	39974.01
644.81	40020.82
644.95	40257.21
645.10	39796.13
645.25	40098.06
645.39	39768.04
645.54	39232.06
645.69	39833.58
645.83	39828.90
645.98	39255.46
646.13	39772.72
646.27	39388.88
646.42	39929.54
646.57	39288.23
646.71	39283.55
646.86	39524.63
647.00	39772.72
647.15	39255.46
647.30	38864.60
647.44	39239.08
647.59	39379.51
647.74	39555.05
647.88	39037.80
648.03	39622.93
648.17	39297.59
648.32	39161.84
648.47	39213.34
648.61	38866.94
648.76	39840.60
648.90	39108.01
649.05	38808.42
649.20	38927.79
649.34	39290.57
649.49	38822.47
649.63	39019.07
649.78	39058.86
649.92	39454.41
650.07	39276.53
650.21	38754.59
650.36	39108.01
650.51	39009.71
650.65	39440.37
650.80	39250.78
650.94	39290.57
651.09	38806.08
651.23	38834.17
651.38	38541.60
651.52	38061.79
651.67	38637.56
651.81	38773.31
651.96	38565.01
652.10	38541.60
652.25	38534.58
652.39	38672.67
652.54	38611.82
652.68	38356.70
652.83	38410.53
652.97	38710.12
653.12	38190.52
653.26	38213.93
653.41	38251.38
653.55	38176.48
653.70	38534.58
653.84	38644.59
653.99	38162.43
654.13	38352.02
654.27	38019.66
654.42	38354.36
654.56	38293.50
654.71	38281.80
654.85	38230.31
655.00	38469.04
655.14	38213.93
655.29	37464.96
655.43	37404.10
655.57	37366.65
655.72	37296.44
655.86	37134.94
656.01	37577.30
656.15	37212.18
656.30	37137.28
656.44	37130.26
656.58	37446.23
656.73	37504.74
656.87	37338.57
657.01	37287.07
657.16	37408.78
657.30	37141.96
657.45	37125.58
657.59	36825.99
657.73	37364.31
657.88	37600.71
658.02	37357.29
658.16	37523.47
658.31	37137.28
658.45	37509.43
658.60	37460.27
658.74	37504.74
658.88	37392.40
659.03	37179.41
659.17	37376.01
659.31	36917.27
659.46	36584.91
659.60	37146.64
659.74	36924.29
659.89	36758.11
660.03	36790.88
660.17	36734.71
660.32	37046.00
660.46	36987.49
660.60	36627.04
660.74	36472.57
660.89	36444.48
661.03	36360.22
661.17	36538.10
661.32	36407.03
661.46	36320.43
661.60	36229.15
661.74	36044.25
661.89	36390.65
662.03	36065.31
662.17	36435.12
662.31	36346.18
662.46	36428.10
662.60	36383.63
662.74	36189.36
662.88	35849.99
663.03	35915.52
663.17	36088.72
663.31	35775.09
663.45	35763.39
663.60	35765.73
663.74	35543.38
663.88	35606.57
664.02	35239.11
664.17	35571.46
664.31	35042.50
664.45	35267.19
664.59	34939.52
664.73	34955.90
664.88	35218.04
665.02	34677.38
665.16	34843.56
665.30	34888.03
665.44	34944.20
665.59	34543.97
665.73	35199.32
665.87	34703.12
666.01	35110.38
666.15	34857.60
666.29	34455.03
666.44	35232.08
666.58	34436.30
666.72	34731.21
666.86	34642.27
667.00	34850.58
667.14	34450.35
667.28	34148.42
667.43	34218.63
667.57	34242.04
667.71	34033.73
667.85	34092.24
667.99	34073.52
668.13	34515.88
668.27	33984.58
668.41	34614.18
668.56	33855.85
668.70	33961.17
668.84	33450.94
668.98	33394.76
669.12	33874.57
669.26	33900.32
669.40	33631.16
669.54	33589.03
669.68	33230.93
669.82	33366.68
669.96	33146.67
670.10	33116.24
670.25	33237.95
670.39	33369.02
670.53	32870.48
670.67	33413.49
670.81	33191.14
670.95	32767.50
671.09	32826.01
671.23	32797.93
671.37	32692.60
671.51	32739.41
671.65	32580.26
671.79	32519.40
671.93	32664.52
672.07	32428.12
672.21	32407.06
672.35	32311.10
672.49	32264.28
672.63	32383.65
672.77	31864.05
672.91	31833.63
673.05	32479.61
673.19	31732.98
673.33	31557.44
673.47	31768.09
673.61	31601.91
673.75	31227.43
673.89	31204.02
674.03	31723.62
674.17	31281.26
674.31	31283.60
674.45	31344.45
674.59	31505.95
674.73	31126.78
674.87	31178.28
675.01	30881.03
675.15	30787.41
675.29	30579.10
675.43	31124.44
675.56	30991.03
675.70	30656.34
675.84	30602.50
675.98	29677.99
676.12	30614.21
676.26	30644.63
676.40	30785.07
676.54	30391.86
676.68	30258.45
676.82	29689.70
676.96	30192.91
677.10	29984.60
677.23	29675.65
677.37	29914.39
677.51	29706.08
677.65	29546.92
677.79	29001.58
677.93	29156.05
678.07	28884.55
678.21	28837.74
678.34	28788.59
678.48	28786.25
678.62	28821.36
678.76	28804.97
678.90	28393.04
679.04	28245.58
679.18	28343.89
679.31	28268.99
679.45	28030.26
679.59	28259.63
679.73	28257.29
679.87	27695.56
680.00	27927.27
680.14	27807.90
680.28	27821.95
680.42	27466.19
680.56	27667.47
680.70	27824.29
680.83	27812.59
680.97	27314.05
681.11	27229.79
681.25	27274.26
681.39	27222.77
681.52	27056.59
681.66	27051.91
681.80	26941.91
681.94	26782.75
682.07	26551.04
682.21	26810.84
682.35	26579.12
682.49	26759.34
682.62	26192.94
682.76	25848.88
682.90	26024.42
683.04	26340.39
683.17	25900.37
683.31	26089.95
683.45	25729.51
683.59	25771.64
683.72	25621.84
683.86	25907.39
684.00	25748.23
684.13	25156.08
684.27	25500.14
684.41	25298.85
684.55	25032.03
684.68	25083.52
684.82	25268.42
684.96	24659.88
685.09	24720.74
685.23	24929.05
685.37	24772.23
685.50	24947.77
685.64	24676.27
685.78	24350.93
685.91	24624.78
686.05	24240.93
686.19	23681.54
686.32	24025.60
686.46	23592.60
686.60	23344.50
686.73	23178.33
686.87	23049.60
687.01	23407.70
687.14	22888.10
687.28	22925.55
687.42	23007.47
687.55	23023.85
687.69	23236.84
687.82	23115.13
687.96	22916.19
688.10	22831.93
688.23	22920.87
688.37	22537.02
688.50	22401.27
688.64	22471.48
688.78	22104.02
688.91	21968.27
689.05	22492.55
689.18	22064.23
689.32	21621.87
689.46	22246.79
689.59	22054.87
689.73	22001.04
689.86	21556.33
690.00	21811.45
690.13	22267.86
690.27	21544.63
690.41	21383.13
690.54	21329.30
690.68	21191.21
690.81	21270.79
690.95	21301.22
691.08	21163.12
691.22	21074.18
691.35	20870.56
691.49	21214.62
691.62	21151.42
691.76	20931.41
691.89	20599.05
692.03	20842.47
692.16	20407.13
692.30	20446.92
692.43	20210.53
692.57	20107.54
692.70	19791.57
692.84	19800.93
692.97	19742.42
693.11	19740.08
693.24	19550.49
693.38	19784.55
693.51	19683.91
693.65	19822.00
693.78	19297.72
693.92	19374.95
694.05	19520.07
694.19	19307.08
694.32	19206.44
694.45	19363.25
694.59	19278.99
694.72	19269.63
694.86	18700.88
694.99	18785.14
695.13	18895.14
695.26	18721.95
695.39	18480.87
695.53	18600.24
695.66	18885.78
695.80	18457.46
695.93	18263.20
696.07	18295.97
696.20	18317.03
696.33	18125.11
696.47	17996.38
696.60	17994.04
696.73	17563.38
696.87	18118.09
697.00	17542.32
697.14	17804.46
697.27	17582.10
697.40	17748.28
697.54	17439.33
697.67	17240.39
697.80	17163.15
697.94	17160.81
698.07	17195.92
698.21	17167.83
698.34	17224.00
698.47	16910.37
698.61	16774.62
698.74	16718.45
698.87	16943.14
699.01	16439.92
699.14	16411.84
699.27	16322.90
699.40	16451.63
699.54	16025.65
699.67	16042.03
699.80	16152.04
699.94	16229.27
700.07	16056.08
700.20	16386.09
700.34	16049.05
700.47	16051.39
700.60	16093.52
700.73	15988.20
700.87	15974.16
701.00	15641.80
701.13	15658.18
701.26	15543.50
701.40	15309.44
701.53	15068.37
701.66	15332.85
701.79	15166.67
701.93	14988.79
702.06	14785.16
702.19	14672.82
702.32	14892.83
702.46	14712.61
702.59	15066.03
702.72	14672.82
702.85	14766.44
702.99	14494.94
703.12	14693.88
703.25	14413.02
703.38	14333.44
703.51	14476.21
703.65	14352.16
703.78	13984.70
703.91	14064.28
704.04	14003.43
704.17	13970.66
704.31	14221.10
704.44	13973.00
704.57	13760.01
704.70	13589.15
704.83	13935.55
704.96	13561.06
705.10	13837.25
705.23	13806.82
>>>>>End Processed Spectral Data<<<<<
