SpectraSuite Data File
++++++++++++++++++++++++++++++++++++
Date: Fri Oct 25 10:43:55 EDT 2013
User: price-jones
Dark Spectrum Present: No
Reference Spectrum Present: No
Number of Sampled Component Spectra: 1
Spectrometers: USB2+H05261
Integration Time (usec): 100000 (USB2+H05261)
Spectra Averaged: 1 (USB2+H05261)
Boxcar Smoothing: 0 (USB2+H05261)
Correct for Electrical Dark: No (USB2+H05261)
Strobe/Lamp Enabled: No (USB2+H05261)
Correct for Detector Non-linearity: No (USB2+H05261)
Correct for Stray Light: No (USB2+H05261)
Number of Pixels in Processed Spectrum: 2048
>>>>>Begin Processed Spectral Data<<<<<
365.73	145.11
365.92	145.11
366.12	145.11
366.32	72.56
366.52	0.00
366.72	79.58
366.91	35.11
367.11	39.79
367.31	0.00
367.51	53.83
367.70	35.11
367.90	30.43
368.10	2.34
368.30	86.60
368.49	0.00
368.69	56.17
368.89	0.00
369.09	0.00
369.28	37.45
369.48	32.77
369.68	119.37
369.87	42.13
370.07	67.88
370.27	100.64
370.47	191.92
370.66	447.04
370.86	416.62
371.06	507.90
371.25	447.04
371.45	423.64
371.65	458.74
371.84	444.70
372.04	425.98
372.24	470.45
372.44	526.62
372.63	512.58
372.83	620.24
373.03	575.77
373.22	500.87
373.42	547.69
373.62	585.13
373.81	543.00
374.01	599.18
374.21	559.39
374.40	559.39
374.60	624.92
374.79	566.41
374.99	568.75
375.19	638.97
375.38	603.86
375.58	634.29
375.78	641.31
375.97	697.48
376.17	690.46
376.37	608.54
376.56	594.50
376.76	564.07
376.95	606.20
377.15	627.26
377.35	660.03
377.54	702.16
377.74	648.33
377.93	744.29
378.13	589.82
378.33	767.70
378.52	669.39
378.72	695.14
378.91	613.22
379.11	671.73
379.31	599.18
379.50	627.26
379.70	685.78
379.89	723.23
380.09	641.31
380.28	664.71
380.48	772.38
380.68	763.01
380.87	678.76
381.07	730.25
381.26	709.18
381.46	660.03
381.65	753.65
381.85	777.06
382.04	737.27
382.24	805.14
382.43	723.23
382.63	676.41
382.83	727.91
383.02	678.76
383.22	833.23
383.41	779.40
383.61	720.88
383.80	856.64
384.00	805.14
384.19	730.25
384.39	861.32
384.58	795.78
384.78	800.46
384.97	814.51
385.17	802.80
385.36	807.48
385.56	835.57
385.75	828.55
385.95	849.61
386.14	842.59
386.34	795.78
386.53	842.59
386.72	847.27
386.92	901.11
387.11	828.55
387.31	905.79
387.50	844.93
387.70	887.06
387.89	858.98
388.09	877.70
388.28	908.13
388.48	952.60
388.67	866.00
388.86	1048.56
389.06	959.62
389.25	999.41
389.45	1004.09
389.64	1032.18
389.84	1043.88
390.03	1020.47
390.22	1029.84
390.42	1102.39
390.61	1004.09
390.81	1121.12
391.00	1116.44
391.19	1029.84
391.39	1142.18
391.58	1158.57
391.78	1130.48
391.97	1034.52
392.16	1050.90
392.36	1081.33
392.55	1053.24
392.75	1053.24
392.94	1011.11
393.13	990.05
393.33	983.02
393.52	1160.91
393.71	1118.78
393.91	1188.99
394.10	1095.37
394.29	1203.04
394.49	1266.23
394.68	1299.00
394.88	1259.21
395.07	1287.29
395.26	1287.29
395.46	1191.33
395.65	1221.76
395.84	1219.42
396.04	1322.40
396.23	1233.46
396.42	1158.57
396.62	1174.95
396.81	1254.53
397.00	1235.80
397.19	1409.00
397.39	1406.66
397.58	1401.98
397.77	1479.22
397.97	1593.90
398.16	1497.94
398.35	1530.71
398.55	1554.12
398.74	1493.26
398.93	1666.46
399.12	1589.22
399.32	1554.12
399.51	1535.39
399.70	1626.67
399.90	1549.43
400.09	1668.80
400.28	1734.34
400.47	1668.80
400.67	1792.85
400.86	1839.66
401.05	1778.81
401.24	1797.53
401.44	1816.26
401.63	1806.89
401.82	1743.70
402.01	1823.28
402.21	1863.07
402.40	1818.60
402.59	1919.24
402.78	1785.83
402.97	1823.28
403.17	1930.94
403.36	1874.77
403.55	2022.22
403.74	1891.15
403.93	1952.01
404.13	2003.50
404.32	1952.01
404.51	2005.84
404.70	2050.31
404.89	1926.26
405.09	2064.35
405.28	2106.48
405.47	2024.56
405.66	2003.50
405.85	2118.18
406.05	2012.86
406.24	2118.18
406.43	2101.80
406.62	2143.93
406.81	2211.81
407.00	2221.17
407.20	2157.97
407.39	2253.94
407.58	2293.72
407.77	2265.64
407.96	2293.72
408.15	2331.17
408.34	2373.30
408.54	2450.54
408.73	2382.67
408.92	2396.71
409.11	2368.62
409.30	2427.14
409.49	2485.65
409.68	2368.62
409.87	2370.96
410.07	2317.13
410.26	2495.01
410.45	2492.67
410.64	2506.71
410.83	2614.38
411.02	2684.59
411.21	2738.43
411.40	2640.12
411.59	2658.85
411.78	2820.35
411.98	2761.83
412.17	2829.71
412.36	2864.82
412.55	2794.60
412.74	2890.56
412.93	2806.30
413.12	2895.24
413.31	3007.59
413.50	3005.25
413.69	2951.42
413.88	3171.43
414.07	2991.20
414.26	3087.17
414.45	3061.42
414.64	3141.00
414.83	3131.64
415.02	3199.51
415.22	3112.91
415.41	3321.22
415.60	3276.75
415.79	3358.67
415.98	3396.12
416.17	3421.86
416.36	3473.36
416.55	3412.50
416.74	3391.44
416.93	3440.59
417.12	3461.65
417.31	3288.45
417.50	3499.10
417.69	3651.24
417.88	3665.28
418.07	3583.36
418.26	3662.94
418.45	3707.41
418.64	3794.01
418.83	3726.13
419.02	3658.26
419.21	3796.35
419.39	3733.15
419.58	3812.73
419.77	3712.09
419.96	3850.18
420.15	3840.82
420.34	3908.69
420.53	3948.48
420.72	4046.79
420.91	3929.76
421.10	4138.07
421.29	4056.15
421.48	3861.88
421.67	4060.83
421.86	3943.80
422.05	3906.35
422.24	4018.70
422.43	3918.06
422.61	4004.66
422.80	4187.22
422.99	3988.27
423.18	4007.00
423.37	4119.34
423.56	4145.09
423.75	4114.66
423.94	4028.06
424.13	3810.39
424.32	3960.19
424.50	4191.90
424.69	4067.85
424.88	4205.94
425.07	4100.62
425.26	4060.83
425.45	4222.33
425.64	4154.45
425.83	4198.92
426.01	4203.60
426.20	4184.88
426.39	4156.79
426.58	4128.70
426.77	3887.63
426.96	4109.98
427.15	4187.22
427.33	4191.90
427.52	4376.80
427.71	4325.31
427.90	4329.99
428.09	4397.87
428.28	4379.14
428.46	4236.37
428.65	4245.73
428.84	4421.27
429.03	4461.06
429.22	4351.06
429.40	4255.09
429.59	4238.71
429.78	4173.18
429.97	4002.32
430.16	4194.24
430.34	4219.99
430.53	4325.31
430.72	4372.12
430.91	4430.63
431.10	4507.87
431.28	4674.05
431.47	4791.08
431.66	4643.62
431.85	4608.51
432.03	4702.14
432.22	4905.76
432.41	4844.91
432.60	4748.95
432.79	5001.72
432.97	5046.20
433.16	4973.64
433.35	4856.61
433.54	4938.53
433.72	5032.15
433.91	4863.63
434.10	4889.38
434.28	5041.51
434.47	5083.64
434.66	4983.00
434.85	5153.86
435.03	5048.54
435.22	4964.28
435.41	5289.61
435.59	5245.14
435.78	5348.12
435.97	5448.77
436.16	5343.44
436.34	5411.32
436.53	5554.09
436.72	5458.13
436.90	5305.99
437.09	5495.58
437.28	5432.38
437.46	5397.28
437.65	5528.35
437.84	5430.04
438.02	5282.59
438.21	5336.42
438.40	5397.28
438.58	5596.22
438.77	5664.10
438.96	5603.24
439.14	5844.32
439.33	5886.45
439.52	5893.47
439.70	5851.34
439.89	6054.97
440.08	5949.64
440.26	5980.07
440.45	6015.18
440.63	6050.28
440.82	6132.20
441.01	5994.11
441.19	6193.06
441.38	6239.87
441.57	6424.77
441.75	6345.19
441.94	6637.76
442.12	6506.69
442.31	6509.03
442.50	6427.11
442.68	6539.46
442.87	6490.31
443.05	6750.10
443.24	6740.74
443.43	6747.76
443.61	6815.64
443.80	6867.13
443.98	6740.74
444.17	6689.25
444.35	6789.89
444.54	6885.86
444.73	6927.99
444.91	6759.47
445.10	6710.32
445.28	6670.53
445.47	6619.04
445.65	6761.81
445.84	6953.73
446.02	6993.52
446.21	6869.47
446.39	6787.55
446.58	6825.00
446.77	6939.69
446.95	6787.55
447.14	7059.06
447.32	7063.74
447.51	7016.93
447.69	6993.52
447.88	7126.93
448.06	7124.59
448.25	6810.96
448.43	6995.86
448.62	7152.68
448.80	7002.88
448.99	7213.53
449.17	7070.76
449.36	7096.50
449.54	7269.70
449.73	7335.24
449.91	7290.77
450.10	7513.12
450.28	7482.69
450.46	7485.03
450.65	7478.01
450.83	7627.81
451.02	7384.39
451.20	7611.42
451.39	7676.96
451.57	7487.37
451.76	7452.27
451.94	7522.48
452.13	7555.25
452.31	7510.78
452.49	7400.77
452.68	7513.12
452.86	7531.84
453.05	7557.59
453.23	7747.17
453.42	7592.70
453.60	7653.55
453.78	7812.71
453.97	7686.32
454.15	7674.62
454.34	7623.12
454.52	7911.01
454.70	7861.86
454.89	7873.56
455.07	7847.82
455.26	8086.55
455.44	8238.69
455.62	8053.78
455.81	8100.59
455.99	8128.68
456.17	8112.30
456.36	8266.77
456.54	8360.39
456.73	8177.83
456.91	8641.26
457.09	8329.97
457.28	8592.11
457.46	8446.99
457.64	8561.68
457.83	8360.39
458.01	8472.74
458.19	8777.01
458.38	8393.16
458.56	8720.84
458.74	8608.49
458.93	8720.84
459.11	8578.06
459.29	8517.21
459.48	8578.06
459.66	8608.49
459.84	8788.71
460.03	9057.87
460.21	8849.57
460.39	8748.92
460.57	8915.10
460.76	9130.43
460.94	9128.09
461.12	9067.24
461.31	9132.77
461.49	9076.60
461.67	9139.79
461.85	9149.15
462.04	9095.32
462.22	9125.75
462.40	9397.25
462.59	9254.48
462.77	9116.39
462.95	9500.23
463.13	9385.55
463.32	9427.68
463.50	9589.17
463.68	9437.04
463.86	9401.93
464.05	9266.18
464.23	9245.12
464.41	9509.60
464.59	9214.69
464.78	9558.75
464.96	9558.75
465.14	9291.93
465.32	9488.53
465.50	9631.30
465.69	9783.44
465.87	9563.43
466.05	9556.41
466.23	9617.26
466.41	9423.00
466.60	9823.23
466.78	9558.75
466.96	9652.37
467.14	9621.94
467.32	9870.04
467.51	9685.14
467.69	9600.88
467.87	9764.72
468.05	9930.89
468.23	9858.34
468.41	9872.38
468.60	9856.00
468.78	9991.75
468.96	9956.64
469.14	9923.87
469.32	10188.35
469.50	9750.67
469.69	10129.84
469.87	10167.29
470.05	10195.37
470.23	10445.81
470.41	10190.69
470.59	10473.90
470.77	10228.14
470.95	10490.28
471.14	10509.01
471.32	10221.12
471.50	10649.44
471.68	10902.22
471.86	10789.87
472.04	10881.15
472.22	10899.87
472.40	10731.36
472.58	10717.31
472.77	10848.38
472.95	10824.98
473.13	11187.76
473.31	10981.79
473.49	11016.90
473.67	11171.38
473.85	11283.72
474.03	11585.65
474.21	11372.66
474.39	11597.35
474.57	11403.09
474.75	11492.03
474.93	11599.70
475.12	11749.49
475.30	11873.54
475.48	11662.89
475.66	11955.46
475.84	11641.82
476.02	11918.01
476.20	11777.58
476.38	12046.74
476.56	12053.76
476.74	12299.52
476.92	12210.57
477.10	12123.98
477.28	12526.55
477.46	12444.63
477.64	12594.42
477.82	12882.31
478.00	13034.44
478.18	12765.28
478.36	13011.04
478.54	12975.93
478.72	13046.15
478.90	13472.12
479.08	13509.57
479.26	13488.51
479.44	13558.72
479.62	13673.41
479.80	13830.23
479.98	13935.55
480.16	14363.87
480.34	13886.40
480.52	14286.63
480.70	14263.22
480.88	14040.87
481.06	14164.92
481.24	14558.13
481.41	14813.25
481.59	14843.68
481.77	14846.02
481.95	14806.23
482.13	15309.44
482.31	15075.39
482.49	15634.78
482.67	15300.08
482.85	15716.70
483.03	15894.58
483.21	15807.98
483.39	15892.24
483.57	15953.09
483.74	16329.92
483.92	16135.65
484.10	16081.82
484.28	16404.81
484.46	16624.83
484.64	17041.44
484.82	16734.83
485.00	16807.39
485.18	16992.29
485.35	17371.46
485.53	16758.24
485.71	16608.44
485.89	16884.62
486.07	16901.01
486.25	17128.04
486.43	17678.07
486.61	17593.81
486.78	17790.41
486.96	18099.36
487.14	18462.15
487.32	18450.44
487.50	18544.06
487.68	18831.95
487.85	19332.82
488.03	19049.62
488.21	19431.13
488.39	19276.65
488.57	19187.71
488.75	19711.99
488.92	19761.14
489.10	19810.29
489.28	20435.22
489.46	20414.15
489.64	20430.54
489.81	21177.17
489.99	21027.37
490.17	21195.89
490.35	21362.07
490.53	20980.56
490.70	21432.29
490.88	21331.64
491.06	21553.99
491.24	21635.91
491.41	21645.27
491.59	21656.98
491.77	21568.04
491.95	21979.97
492.13	22108.70
492.30	22389.56
492.48	22412.97
492.66	22822.56
492.84	22895.12
493.01	22871.72
493.19	22565.10
493.37	23108.11
493.54	23098.75
493.72	23452.17
493.90	23440.47
494.08	23470.89
494.25	24180.07
494.43	23936.66
494.61	23833.68
494.79	24273.70
494.96	24311.14
495.14	24353.27
495.32	24432.85
495.49	24493.71
495.67	24552.22
495.85	24999.26
496.02	25205.23
496.20	24767.55
496.38	25352.68
496.55	25282.47
496.73	25734.19
496.91	25823.13
497.09	25949.52
497.26	26155.49
497.44	26260.81
497.62	26099.31
497.79	26319.32
497.97	25888.67
498.14	26431.67
498.32	26258.47
498.50	26651.68
498.67	26766.37
498.85	27028.51
499.03	27012.12
499.20	27241.50
499.38	27314.05
499.56	27194.68
499.73	27278.94
499.91	27651.09
500.08	27402.99
500.26	27112.77
500.44	27208.73
500.61	27866.42
500.79	27688.54
500.97	27789.18
501.14	27910.89
501.32	28273.67
501.49	27941.32
501.67	27789.18
501.84	28407.08
502.02	28575.60
502.20	28697.31
502.37	28465.60
502.55	28692.63
502.72	28856.46
502.90	29165.42
503.07	28999.24
503.25	28903.28
503.43	28692.63
503.60	28896.25
503.78	29179.46
503.95	29298.83
504.13	29355.00
504.30	29406.49
504.48	29497.77
504.65	29619.48
504.83	29933.11
505.01	30441.01
505.18	30195.25
505.36	30733.57
505.53	30651.66
505.71	30714.85
505.88	30843.58
506.06	30333.34
506.23	30792.09
506.41	30485.48
506.58	30635.27
506.76	30742.94
506.93	31201.68
507.11	31044.87
507.28	31262.54
507.46	30836.56
507.63	31182.96
507.81	30955.93
507.98	31625.32
508.16	31702.56
508.33	31700.22
508.50	31887.46
508.68	31875.76
508.85	32231.52
509.03	31892.14
509.20	32259.60
509.38	32245.56
509.55	32388.33
509.73	32400.04
509.90	32758.14
510.08	32545.15
510.25	32196.41
510.42	32486.64
510.60	32741.75
510.77	32664.52
510.95	33223.90
511.12	32954.74
511.30	33242.63
511.47	33570.30
511.64	33598.39
511.82	33387.74
511.99	33347.95
512.17	33769.25
512.34	33912.02
512.51	33633.50
512.69	33799.68
512.86	33834.78
513.04	34085.22
513.21	33865.21
513.38	33813.72
513.56	33855.85
513.73	33296.46
513.90	34129.69
514.08	33680.31
514.25	34110.97
514.43	34106.29
514.60	34246.72
514.77	34403.53
514.95	34909.09
515.12	34373.11
515.29	34864.62
515.47	35227.40
515.64	35189.95
515.81	34930.16
515.99	34878.66
516.16	34799.08
516.33	34696.10
516.51	34478.43
516.68	34326.30
516.85	34469.07
517.03	34433.96
517.20	35016.75
517.37	35438.05
517.54	35234.42
517.72	35571.46
517.89	35096.33
518.06	34576.73
518.24	35089.31
518.41	35573.80
518.58	35491.88
518.75	35754.02
518.93	35873.39
519.10	35442.73
519.27	35974.03
519.45	36194.04
519.62	36105.10
519.79	36456.18
519.96	36472.57
520.14	36980.46
520.31	36006.80
520.48	36446.82
520.65	36390.65
520.83	36985.15
521.00	36847.05
521.17	37184.09
521.34	37242.60
521.52	37354.95
521.69	37167.71
521.86	37071.75
522.03	37549.21
522.20	37078.77
522.38	37251.97
522.55	37457.93
522.72	37050.68
522.89	37598.37
523.07	37584.32
523.24	37460.27
523.41	38279.46
523.58	37792.63
523.75	38464.36
523.92	38279.46
524.10	38761.61
524.27	38490.11
524.44	37851.14
524.61	38279.46
524.78	38478.41
524.96	38557.99
525.13	38759.27
525.30	38827.15
525.47	39171.21
525.64	38258.40
525.81	38536.92
525.98	38581.39
526.16	38352.02
526.33	38309.89
526.50	38380.10
526.67	38127.33
526.84	38541.60
527.01	38384.79
527.18	38948.85
527.36	39346.75
527.53	39033.11
527.70	39531.65
527.87	39873.37
528.04	39049.50
528.21	39449.73
528.38	39693.15
528.55	40264.24
528.72	40144.87
528.89	40353.18
529.07	39997.41
529.24	39828.90
529.41	40067.63
529.58	39608.89
529.75	40144.87
529.92	40299.34
530.09	40278.28
530.26	39948.26
530.43	40367.22
530.60	40423.39
530.77	40219.77
530.94	40891.50
531.11	40229.13
531.28	40502.97
531.46	40854.05
531.63	40975.76
531.80	40388.28
531.97	40645.74
532.14	40692.55
532.31	39744.64
532.48	40126.14
532.65	40521.69
532.82	40526.38
532.99	40896.18
533.16	40650.42
533.33	41284.71
533.50	41432.16
533.67	41090.44
533.84	40931.29
534.01	41031.93
534.18	41024.91
534.35	41574.94
534.52	41361.95
534.69	41294.07
534.86	41603.02
535.03	41624.09
535.20	41928.36
535.37	41937.72
535.54	42057.09
535.71	41993.89
535.88	41846.44
536.05	41954.10
536.22	42162.41
536.38	41724.73
536.55	42010.28
536.72	41745.80
536.89	41544.51
537.06	42160.07
537.23	42143.69
537.40	42192.84
537.57	42377.74
537.74	42405.83
537.91	42555.62
538.08	42218.58
538.25	42139.00
538.42	41942.40
538.59	42347.31
538.75	42160.07
538.92	42281.78
539.09	42483.06
539.26	41965.81
539.43	42277.10
539.60	42457.32
539.77	42220.92
539.94	42782.65
540.11	42354.33
540.28	42515.83
540.44	42574.34
540.61	42625.84
540.78	42462.00
540.95	42230.29
541.12	42773.29
541.29	42710.10
541.46	42773.29
541.62	43196.93
541.79	43072.88
541.96	42497.11
542.13	42780.31
542.30	42934.79
542.47	42974.58
542.63	43246.08
542.80	42997.98
542.97	43746.95
543.14	43742.27
543.31	43707.16
543.48	43751.63
543.64	43615.88
543.81	44147.18
543.98	44140.16
544.15	43805.47
544.32	43983.35
544.48	44320.38
544.65	43847.60
544.82	44355.49
544.99	43807.81
545.16	44348.47
545.32	44177.61
545.49	44753.38
545.66	44779.13
545.83	44477.20
546.00	44055.90
546.16	44397.62
546.33	44119.10
546.50	43971.64
546.67	44360.17
546.83	43800.79
547.00	44311.02
547.17	43648.65
547.34	44341.45
547.50	44406.98
547.67	44631.68
547.84	44582.52
548.00	44961.69
548.17	45102.12
548.34	44615.29
548.51	44875.09
548.67	45015.52
548.84	44655.08
549.01	44842.32
549.18	44872.75
549.34	45001.48
549.51	44978.07
549.68	45141.91
549.84	44858.71
550.01	45237.87
550.18	45057.65
550.34	45134.89
550.51	44994.46
550.68	44591.89
550.84	44964.03
551.01	45127.87
551.18	45069.36
551.34	45057.65
551.51	44912.54
551.68	45495.33
551.84	45167.66
552.01	45254.26
552.18	44903.18
552.34	45052.97
552.51	45329.16
552.68	45352.56
552.84	45160.64
553.01	45301.07
553.18	45507.04
553.34	45439.16
553.51	45153.62
553.67	45897.91
553.84	45935.35
554.01	45734.07
554.17	45680.24
554.34	45598.32
554.51	45673.21
554.67	45834.71
554.84	45717.68
555.00	45741.09
555.17	45689.60
555.33	46068.76
555.50	46050.04
555.67	46082.81
555.83	45619.38
556.00	45930.67
556.16	46426.87
556.33	45780.88
556.50	45853.44
556.66	45848.75
556.83	45525.76
556.99	45907.27
557.16	46045.36
557.32	46253.67
557.49	46033.66
557.65	46089.83
557.82	45954.08
557.98	46384.74
558.15	46174.09
558.32	46122.60
558.48	45886.20
558.65	45991.53
558.81	46124.94
558.98	46054.72
559.14	46115.58
559.31	45918.97
559.47	46265.37
559.64	46267.71
559.80	45975.14
559.97	46768.58
560.13	45909.61
560.30	46546.23
560.46	46244.30
560.63	46579.00
560.79	46536.87
560.96	46824.76
561.12	46305.16
561.29	45907.27
561.45	46328.56
561.61	46131.96
561.78	46155.36
561.94	46150.68
562.11	46038.34
562.27	46237.28
562.44	46543.89
562.60	46946.47
562.77	46518.15
562.93	46330.90
563.10	46604.75
563.26	46574.32
563.42	46794.33
563.59	46227.92
563.75	46614.11
563.92	46749.86
564.08	46597.73
564.24	47194.56
564.41	46618.79
564.57	46672.62
564.74	46033.66
564.90	46646.88
565.07	46361.33
565.23	46604.75
565.39	46312.18
565.56	46850.50
565.72	46136.64
565.88	46417.50
566.05	46616.45
566.21	46689.01
566.38	46415.16
566.54	46595.38
566.70	46845.82
566.87	47157.11
567.03	46866.89
567.19	47489.47
567.36	46794.33
567.52	46733.48
567.68	47004.98
567.85	46499.42
568.01	47098.60
568.17	46789.65
568.34	46988.60
568.50	47082.22
568.66	46644.54
568.83	46890.29
568.99	46630.49
569.15	46571.98
569.32	46546.23
569.48	46588.36
569.64	47091.58
569.81	46529.85
569.97	46866.89
570.13	46284.09
570.30	46068.76
570.46	46234.94
570.62	46288.77
570.78	46593.04
570.95	46515.81
571.11	47035.41
571.27	46539.21
571.43	46857.52
571.60	46712.41
571.76	46340.27
571.92	46960.51
572.09	46674.96
572.25	47107.96
572.41	46990.94
572.57	47082.22
572.74	47117.32
572.90	47086.90
573.06	47084.56
573.22	46944.12
573.38	46574.32
573.55	46607.09
573.71	46806.03
573.87	46993.28
574.03	46607.09
574.20	46836.46
574.36	46850.50
574.52	47042.43
574.68	46923.06
574.84	47248.39
575.01	47185.20
575.17	46878.59
575.33	46824.76
575.49	46548.57
575.65	47239.03
575.82	47049.45
575.98	46855.18
576.14	47381.80
576.30	46852.84
576.46	46815.40
576.62	46539.21
576.79	47168.82
576.95	46550.91
577.11	47313.93
577.27	47042.43
577.43	47100.94
577.59	46883.27
577.75	46813.05
577.92	46834.12
578.08	46351.97
578.24	46644.54
578.40	46745.18
578.56	46696.03
578.72	46880.93
578.88	47178.18
579.04	47437.98
579.21	46560.28
579.37	46925.40
579.53	47309.25
579.69	47122.01
579.85	46890.29
580.01	47171.16
580.17	47044.77
580.33	47049.45
580.49	46990.94
580.65	46726.46
580.82	47126.69
580.98	46639.86
581.14	46389.42
581.30	47271.80
581.46	47416.91
581.62	47564.37
581.78	47077.54
581.94	47346.70
582.10	47187.54
582.26	47232.01
582.42	47192.22
582.58	46958.17
582.74	46967.53
582.90	47299.89
583.06	47313.93
583.22	46920.72
583.38	47367.76
583.54	47236.69
583.70	47114.98
583.86	47454.36
584.02	46756.88
584.18	47559.69
584.34	47353.72
584.50	46733.48
584.66	47122.01
584.82	46859.87
584.98	47278.82
585.14	47044.77
585.30	46703.05
585.46	46838.80
585.62	46948.81
585.78	46670.28
585.94	46909.02
586.10	47030.72
586.26	47107.96
586.42	47002.64
586.58	47100.94
586.74	47327.97
586.90	47182.86
587.06	46981.57
587.22	47075.19
587.38	47096.26
587.54	47332.65
587.70	47372.44
587.86	47344.36
588.02	47105.62
588.18	47260.10
588.34	46780.29
588.49	46232.60
588.65	46637.51
588.81	46656.24
588.97	46534.53
589.13	46487.72
589.29	46997.96
589.45	46937.10
589.61	46820.08
589.77	46904.34
589.93	46976.89
590.08	47232.01
590.24	47213.29
590.40	47573.73
590.56	47585.43
590.72	47234.35
590.88	47023.70
591.04	47278.82
591.20	47302.23
591.35	47545.64
591.51	47749.27
591.67	46920.72
591.83	46979.23
591.99	47091.58
592.15	47569.05
592.31	47107.96
592.46	47552.66
592.62	46913.70
592.78	47452.02
592.94	47164.14
593.10	47054.13
593.26	47313.93
593.41	47154.77
593.57	47054.13
593.73	46904.34
593.89	47398.19
594.05	47311.59
594.20	47318.61
594.36	47454.36
594.52	47105.62
594.68	46836.46
594.84	46920.72
594.99	47353.72
595.15	47068.17
595.31	47150.09
595.47	47276.48
595.62	47154.77
595.78	47320.95
595.94	47346.70
596.10	47358.40
596.25	47255.42
596.41	47105.62
596.57	47014.34
596.73	47487.13
596.88	46993.28
597.04	47384.15
597.20	47222.65
597.36	47318.61
597.51	47786.72
597.67	47585.43
597.83	47199.24
597.99	47271.80
598.14	47061.15
598.30	47262.44
598.46	47026.04
598.61	47267.12
598.77	46862.21
598.93	46843.48
599.09	47196.90
599.24	47503.51
599.40	47419.25
599.56	47365.42
599.71	47042.43
599.87	47386.49
600.03	46958.17
600.18	46988.60
600.34	46979.23
600.50	47056.47
600.65	47173.50
600.81	47004.98
600.97	47063.49
601.12	47290.52
601.28	47356.06
601.44	47107.96
601.59	46939.44
601.75	47049.45
601.91	47210.95
602.06	46909.02
602.22	46642.20
602.37	47313.93
602.53	47227.33
602.69	47379.46
602.84	46829.44
603.00	47143.07
603.16	47203.92
603.31	47110.30
603.47	46946.47
603.62	46681.98
603.78	47454.36
603.94	47405.21
604.09	47559.69
604.25	47096.26
604.40	47033.07
604.56	46763.90
604.71	47501.17
604.87	47206.26
605.03	47004.98
605.18	46990.94
605.34	46937.10
605.49	46763.90
605.65	47201.58
605.80	46848.16
605.96	47129.03
606.12	47243.71
606.27	47210.95
606.43	46829.44
606.58	46904.34
606.74	47199.24
606.89	46859.87
607.05	46838.80
607.20	46967.53
607.36	46466.66
607.51	46969.87
607.67	47206.26
607.82	46815.40
607.98	46820.08
608.13	46539.21
608.29	46721.77
608.44	46461.97
608.60	46511.13
608.75	46775.61
608.91	46897.31
609.06	46782.63
609.22	47054.13
609.37	46761.56
609.53	46644.54
609.68	46611.77
609.84	46529.85
609.99	46667.94
610.15	45984.51
610.30	46246.65
610.46	46082.81
610.61	46920.72
610.76	46445.59
610.92	46834.12
611.07	46990.94
611.23	46696.03
611.38	46574.32
611.54	46246.65
611.69	46178.77
611.84	45801.94
612.00	46188.13
612.15	46316.86
612.31	46909.02
612.46	46087.49
612.62	46677.30
612.77	46038.34
612.92	46656.24
613.08	45860.46
613.23	46143.66
613.39	46178.77
613.54	45729.39
613.69	46045.36
613.85	45595.98
614.00	45965.78
614.15	46405.80
614.31	45904.93
614.46	45996.21
614.62	45954.08
614.77	46291.12
614.92	45890.88
615.08	46010.25
615.23	45790.24
615.38	45806.62
615.54	45703.64
615.69	45722.37
615.84	45640.45
616.00	45961.10
616.15	45703.64
616.30	45296.39
616.46	45553.85
616.61	45773.86
616.76	45588.95
616.92	45144.25
617.07	45436.82
617.22	45223.83
617.37	45624.06
617.53	45827.69
617.68	45743.43
617.83	45380.65
617.99	45631.08
618.14	45478.95
618.29	45207.45
618.45	44910.20
618.60	45345.54
618.75	44863.39
618.90	44708.91
619.06	45125.53
619.21	45085.74
619.36	45588.95
619.51	45174.68
619.67	44863.39
619.82	45507.04
619.97	45130.21
620.12	45078.72
620.28	44744.02
620.43	44790.83
620.58	45109.14
620.73	44954.67
620.89	45029.57
621.04	44919.56
621.19	45113.83
621.34	45219.15
621.49	45020.20
621.65	44554.44
621.80	44776.79
621.95	45104.46
622.10	44435.07
622.25	44858.71
622.41	44383.58
622.56	44722.96
622.71	44931.26
622.86	44376.56
623.01	44659.76
623.16	44690.19
623.32	44465.50
623.47	44779.13
623.62	44657.42
623.77	44280.60
623.92	44594.23
624.07	44273.57
624.23	44404.64
624.38	44406.98
624.53	44271.23
624.68	44685.51
624.83	44378.90
624.98	44474.86
625.13	43957.60
625.29	44147.18
625.44	43971.64
625.59	43779.72
625.74	43920.15
625.89	43669.72
626.04	43622.90
626.19	43697.80
626.34	44009.09
626.49	44158.89
626.65	43955.26
626.80	44016.11
626.95	43475.45
627.10	43601.84
627.25	43737.59
627.40	43688.44
627.55	43318.64
627.70	43028.41
627.85	43356.08
628.00	43550.35
628.15	43768.02
628.30	43283.53
628.45	43718.87
628.60	43082.24
628.76	43557.37
628.91	43519.92
629.06	43461.41
629.21	43147.78
629.36	42930.11
629.51	43267.14
629.66	43089.26
629.81	42799.04
629.96	43152.46
630.11	43131.39
630.26	43339.70
630.41	43136.07
630.56	42799.04
630.71	42944.15
630.86	42864.57
631.01	42595.41
631.16	42684.35
631.31	42494.77
631.46	42450.30
631.61	42756.91
631.76	42813.08
631.91	42925.42
632.06	43456.73
632.21	42782.65
632.36	42742.86
632.51	42644.56
632.66	42792.01
632.81	42342.63
632.96	42899.68
633.10	42876.27
633.25	42728.82
633.40	42754.57
633.55	42611.79
633.70	42204.54
633.85	42412.85
634.00	42314.55
634.15	42452.64
634.30	42164.75
634.45	42337.95
634.60	42265.39
634.75	42164.75
634.90	42007.94
635.05	42459.66
635.19	42197.52
635.34	42021.98
635.49	42321.57
635.64	42164.75
635.79	42143.69
635.94	41614.72
636.09	41907.29
636.24	41502.38
636.39	41361.95
636.53	41975.17
636.68	42129.64
636.83	41696.64
636.98	41776.22
637.13	41818.35
637.28	41848.78
637.43	42071.13
637.57	42036.02
637.72	41872.18
637.87	42103.90
638.02	41727.07
638.17	41677.92
638.32	41759.84
638.46	41450.89
638.61	41701.32
638.76	41352.58
638.91	41581.96
639.06	41258.96
639.20	41811.33
639.35	41813.67
639.50	41186.41
639.65	41588.98
639.80	41940.06
639.94	41441.53
640.09	41179.39
640.24	41102.15
640.39	40713.62
640.54	41167.68
640.68	41383.01
640.83	41387.69
640.98	41429.82
641.13	40694.89
641.27	41532.81
641.42	41247.26
641.57	41326.84
641.72	40629.36
641.86	40952.35
642.01	40596.59
642.16	40542.76
642.31	40730.00
642.45	40882.14
642.60	40627.02
642.75	40664.47
642.90	41251.94
643.04	40931.29
643.19	40816.60
643.34	40858.73
643.48	40540.42
643.63	40666.81
643.78	40704.26
643.93	40577.87
644.07	40399.99
644.22	40367.22
644.37	40156.57
644.51	40872.78
644.66	40308.71
644.81	41069.38
644.95	40666.81
645.10	40137.85
645.25	40458.50
645.39	40439.78
645.54	40692.55
645.69	40320.41
645.83	40655.11
645.98	39751.66
646.13	40128.48
646.27	40149.55
646.42	40198.70
646.57	40121.46
646.71	39391.22
646.86	40161.25
647.00	40428.07
647.15	40158.91
647.30	39952.94
647.44	39409.94
647.59	39826.56
647.74	39683.78
647.88	39658.04
648.03	39702.51
648.17	39643.99
648.32	39856.98
648.47	39817.19
648.61	39433.35
648.76	40032.52
648.90	39779.74
649.05	39669.74
649.20	39861.66
649.34	39847.62
649.49	39281.21
649.63	39627.61
649.78	39288.23
649.92	39480.16
650.07	39934.22
650.21	39452.07
650.36	39505.90
650.51	39480.16
650.65	39917.84
650.80	40144.87
650.94	39641.65
651.09	39821.87
651.23	39725.91
651.38	39515.26
651.52	38962.90
651.67	38974.60
651.81	39360.79
651.96	38857.57
652.10	39009.71
652.25	39096.31
652.39	39253.12
652.54	39168.87
652.68	38998.01
652.83	38834.17
652.97	39515.26
653.12	38937.15
653.26	39012.05
653.41	38773.31
653.55	38829.49
653.70	38501.81
653.84	39257.81
653.99	38646.93
654.13	38394.15
654.27	38366.06
654.42	38749.91
654.56	37916.68
654.71	38653.95
654.85	38377.76
655.00	38391.81
655.14	38345.00
655.29	38216.27
655.43	38426.92
655.57	38314.57
655.72	37811.35
655.86	38340.32
656.01	38190.52
656.15	37167.71
656.30	38195.20
656.44	37532.83
656.58	37706.03
656.73	38073.49
656.87	37785.61
657.01	38007.96
657.16	37801.99
657.30	37759.86
657.45	37317.50
657.59	37680.28
657.73	37991.58
657.88	38265.42
658.02	38115.62
658.16	38300.53
658.31	38185.84
658.45	37921.36
658.60	37755.18
658.74	37879.23
658.88	37776.25
659.03	37364.31
659.17	37539.85
659.31	37111.53
659.46	37469.64
659.60	37675.60
659.74	37436.87
659.89	37750.50
660.03	37291.76
660.17	37303.46
660.32	37359.63
660.46	37809.01
660.60	36935.99
660.74	37099.83
660.89	37111.53
661.03	36617.68
661.17	36884.50
661.32	36966.42
661.46	36884.50
661.60	36645.77
661.74	36376.61
661.89	36549.81
662.03	36786.20
662.17	36488.95
662.31	36662.15
662.46	36673.85
662.60	36704.28
662.74	36882.16
662.88	36510.02
663.03	36390.65
663.17	36231.49
663.31	36402.35
663.45	36172.98
663.60	36392.99
663.74	35618.27
663.88	36100.42
664.02	35700.19
664.17	36290.01
664.31	36018.50
664.45	35817.22
664.59	35644.02
664.73	35819.56
664.88	35917.86
665.02	35498.91
665.16	35580.82
665.30	35236.77
665.44	35770.41
665.59	35503.59
665.73	35276.55
665.87	35019.10
666.01	35735.30
666.15	35304.64
666.29	35531.67
666.44	35166.55
666.58	34951.22
666.72	35344.43
666.86	35136.12
667.00	34759.30
667.14	34223.31
667.28	34698.44
667.43	34731.21
667.57	34948.88
667.71	34724.19
667.85	35105.70
667.99	34635.25
668.13	34436.30
668.27	35037.82
668.41	34782.70
668.56	34237.36
668.70	34335.66
668.84	34071.18
668.98	34160.12
669.12	34218.63
669.26	33977.56
669.40	34197.57
669.54	33738.82
669.68	34085.22
669.82	33448.60
669.96	33867.55
670.10	33582.01
670.25	34010.32
670.39	33799.68
670.53	33352.63
670.67	33174.75
670.81	33401.79
670.95	33387.74
671.09	33144.33
671.23	33303.48
671.37	33364.34
671.51	33139.65
671.65	33015.60
671.79	33158.37
671.93	33200.50
672.07	33097.52
672.21	32931.34
672.35	32371.95
672.49	33008.58
672.63	32737.07
672.77	32680.90
672.91	32608.34
673.05	32613.02
673.19	32156.62
673.33	32470.25
673.47	32023.21
673.61	31709.58
673.75	31798.52
673.89	32112.15
674.03	32107.47
674.17	31978.74
674.31	31690.85
674.45	31756.39
674.59	31805.54
674.73	32016.19
674.87	31861.71
675.01	31482.55
675.15	31531.70
675.29	31473.18
675.43	31353.82
675.56	30801.45
675.70	31360.84
675.84	31241.47
675.98	30546.33
676.12	30810.81
676.26	30944.22
676.40	30930.18
676.54	30827.20
676.68	31136.15
676.82	30340.36
676.96	30101.63
677.10	30726.55
677.23	30075.88
677.37	30216.32
677.51	30288.87
677.65	29722.46
677.79	29249.67
677.93	29645.23
678.07	29401.81
678.21	29394.79
678.34	29296.49
678.48	28989.88
678.62	29076.48
678.76	29174.78
678.90	28547.51
679.04	29099.88
679.18	28882.21
679.31	28716.03
679.45	28573.26
679.59	28135.58
679.73	28381.34
679.87	28346.23
680.00	28395.38
680.14	28079.41
680.28	28613.05
680.42	28144.94
680.56	28376.66
680.70	27988.13
680.83	27758.75
680.97	27475.55
681.11	27662.79
681.25	27707.26
681.39	27599.60
681.52	27693.22
681.66	27463.85
681.80	27386.61
681.94	27220.43
682.07	27234.47
682.21	27070.64
682.35	26916.16
682.49	26857.65
682.62	26878.71
682.76	26867.01
682.90	26574.44
683.04	26551.04
683.17	26415.29
683.31	26026.76
683.45	26209.32
683.59	26195.28
683.72	25986.97
683.86	25820.79
684.00	25832.49
684.13	25865.26
684.27	25458.01
684.41	25507.16
684.55	25474.39
684.68	25450.99
684.82	25298.85
684.96	25432.26
685.09	25472.05
685.23	25046.07
685.37	25242.68
685.50	24999.26
685.64	24833.08
685.78	24727.76
685.91	24790.95
686.05	24760.53
686.19	24086.45
686.32	24308.80
686.46	23557.49
686.60	23903.89
686.73	23470.89
686.87	23398.34
687.01	23665.16
687.14	23381.95
687.28	23183.01
687.42	23510.68
687.55	23253.22
687.69	23463.87
687.82	23398.34
687.96	23524.72
688.10	23180.67
688.23	22869.37
688.37	23398.34
688.50	22977.04
688.64	22944.27
688.78	22721.92
688.91	22637.66
689.05	22485.53
689.18	22607.23
689.32	22127.42
689.46	22398.93
689.59	22302.96
689.73	22384.88
689.86	22338.07
690.00	21977.63
690.13	22263.18
690.27	21916.78
690.41	21750.60
690.54	21385.47
690.68	21343.35
690.81	21579.74
690.95	21514.20
691.08	21406.54
691.22	21593.78
691.35	21317.60
691.49	21179.51
691.62	21357.39
691.76	20861.19
691.89	21003.97
692.03	21167.80
692.16	20851.83
692.30	20882.26
692.43	20620.12
692.57	20725.44
692.70	20360.32
692.84	20439.90
692.97	20283.08
693.11	20315.85
693.24	20121.59
693.38	19962.43
693.51	20039.67
693.65	20446.92
693.78	19924.98
693.92	19754.12
694.05	19697.95
694.19	19564.54
694.32	19594.96
694.45	19536.45
694.59	19215.80
694.72	19431.13
694.86	19063.66
694.99	18988.77
695.13	19222.82
695.26	18885.78
695.39	18759.39
695.53	18941.96
695.66	19000.47
695.80	18710.24
695.93	18712.58
696.07	18527.68
696.20	18621.30
696.33	18312.35
696.47	18197.67
696.60	18209.37
696.73	18216.39
696.87	17912.12
697.00	18045.53
697.14	17767.01
697.27	17586.79
697.40	17696.79
697.54	17781.05
697.67	17661.68
697.80	17469.76
697.94	17348.05
698.07	17565.72
698.21	17621.89
698.34	17390.18
698.47	17331.67
698.61	17221.66
698.74	16849.52
698.87	16961.86
699.01	16889.31
699.14	16666.95
699.27	16589.72
699.40	16690.36
699.54	16414.18
699.67	16336.94
699.80	16432.90
699.94	16320.56
700.07	16280.77
700.20	15960.11
700.34	16081.82
700.47	16149.70
700.60	16121.61
700.73	16517.16
700.87	15913.30
701.00	16046.71
701.13	15667.55
701.26	15323.49
701.40	15789.25
701.53	15398.38
701.66	15431.15
701.79	15335.19
701.93	15225.18
702.06	15075.39
702.19	14944.32
702.32	14892.83
702.46	14956.02
702.59	15087.09
702.72	15070.71
702.85	14974.75
702.99	15054.33
703.12	14930.28
703.25	14714.95
703.38	14618.99
703.51	14581.54
703.65	14689.20
703.78	14396.64
703.91	13975.34
704.04	14160.24
704.17	14333.44
704.31	14288.97
704.44	14272.59
704.57	14101.73
704.70	13811.50
704.83	13767.03
704.96	14139.18
705.10	13760.01
705.23	13757.67
>>>>>End Processed Spectral Data<<<<<
