SpectraSuite Data File
++++++++++++++++++++++++++++++++++++
Date: Fri Oct 25 10:47:37 EDT 2013
User: price-jones
Dark Spectrum Present: No
Reference Spectrum Present: No
Number of Sampled Component Spectra: 1
Spectrometers: USB2+H05261
Integration Time (usec): 100000 (USB2+H05261)
Spectra Averaged: 1 (USB2+H05261)
Boxcar Smoothing: 0 (USB2+H05261)
Correct for Electrical Dark: No (USB2+H05261)
Strobe/Lamp Enabled: No (USB2+H05261)
Correct for Detector Non-linearity: No (USB2+H05261)
Correct for Stray Light: No (USB2+H05261)
Number of Pixels in Processed Spectrum: 2048
>>>>>Begin Processed Spectral Data<<<<<
365.73	95.96
365.92	95.96
366.12	95.96
366.32	49.15
366.52	65.54
366.72	79.58
366.91	18.72
367.11	53.83
367.31	39.79
367.51	42.13
367.70	60.85
367.90	37.45
368.10	0.00
368.30	70.22
368.49	84.26
368.69	117.03
368.89	14.04
369.09	32.77
369.28	16.38
369.48	58.51
369.68	126.39
369.87	152.13
370.07	63.19
370.27	121.71
370.47	156.82
370.66	344.06
370.86	409.59
371.06	414.27
371.25	451.72
371.45	292.57
371.65	444.70
371.84	447.04
372.04	421.30
372.24	531.30
372.44	526.62
372.63	489.17
372.83	493.85
373.03	479.81
373.22	475.13
373.42	493.85
373.62	454.06
373.81	561.73
374.01	557.05
374.21	578.11
374.40	456.40
374.60	599.18
374.79	524.28
374.99	589.82
375.19	606.20
375.38	533.64
375.58	589.82
375.78	615.56
375.97	664.71
376.17	613.22
376.37	573.43
376.56	610.88
376.76	521.94
376.95	627.26
377.15	552.37
377.35	585.13
377.54	636.63
377.74	601.52
377.93	662.37
378.13	692.80
378.33	634.29
378.52	594.50
378.72	568.75
378.91	599.18
379.11	594.50
379.31	631.94
379.50	592.16
379.70	615.56
379.89	704.50
380.09	699.82
380.28	685.78
380.48	667.05
380.68	688.12
380.87	653.01
381.07	678.76
381.26	690.46
381.46	697.48
381.65	653.01
381.85	676.41
382.04	692.80
382.24	704.50
382.43	732.59
382.63	730.25
382.83	706.84
383.02	716.20
383.22	734.93
383.41	760.67
383.61	615.56
383.80	760.67
384.00	809.83
384.19	713.86
384.39	704.50
384.58	713.86
384.78	758.33
384.97	807.48
385.17	809.83
385.36	814.51
385.56	774.72
385.75	753.65
385.95	828.55
386.14	723.23
386.34	781.74
386.53	812.17
386.72	828.55
386.92	875.36
387.11	840.25
387.31	847.27
387.50	842.59
387.70	889.40
387.89	823.87
388.09	877.70
388.28	793.44
388.48	777.06
388.67	851.96
388.86	898.77
389.06	835.57
389.25	903.45
389.45	954.94
389.64	887.06
389.84	936.21
390.03	929.19
390.22	924.51
390.42	896.43
390.61	1025.15
390.81	917.49
391.00	1006.43
391.19	887.06
391.39	954.94
391.58	1001.75
391.78	985.37
391.97	926.85
392.16	957.28
392.36	973.66
392.55	915.15
392.75	1076.65
392.94	924.51
393.13	1004.09
393.33	968.98
393.52	954.94
393.71	997.07
393.91	1022.81
394.10	1086.01
394.29	1069.62
394.49	1090.69
394.68	1036.86
394.88	1114.10
395.07	1149.20
395.26	1100.05
395.46	1130.48
395.65	1249.85
395.84	1170.27
396.04	1203.04
396.23	1118.78
396.42	1083.67
396.62	1109.41
396.81	1210.06
397.00	1100.05
397.19	1196.01
397.39	1235.80
397.58	1207.72
397.77	1233.46
397.97	1310.70
398.16	1217.08
398.35	1268.57
398.55	1394.96
398.74	1282.61
398.93	1291.98
399.12	1369.21
399.32	1373.89
399.51	1427.73
399.70	1488.58
399.90	1394.96
400.09	1420.71
400.28	1432.41
400.47	1401.98
400.67	1467.52
400.86	1523.69
401.05	1516.67
401.24	1497.94
401.44	1598.59
401.63	1561.14
401.82	1483.90
402.01	1533.05
402.21	1514.33
402.40	1511.99
402.59	1640.72
402.78	1614.97
402.97	1659.44
403.17	1593.90
403.36	1614.97
403.55	1724.97
403.74	1778.81
403.93	1614.97
404.13	1570.50
404.32	1732.00
404.51	1661.78
404.70	1750.72
404.89	1694.55
405.09	1806.89
405.28	1806.89
405.47	1657.10
405.66	1664.12
405.85	1717.95
406.05	1790.51
406.24	1792.85
406.43	1797.53
406.62	1933.28
406.81	1940.30
407.00	1842.00
407.20	1830.30
407.39	1863.07
407.58	1886.47
407.77	1914.56
407.96	1949.67
408.15	1916.90
408.34	2019.88
408.54	2106.48
408.73	2113.50
408.92	2064.35
409.11	1970.73
409.30	2031.58
409.49	2129.89
409.68	2132.23
409.87	2083.08
410.07	2127.55
410.26	2136.91
410.45	2094.78
410.64	2197.76
410.83	2174.36
411.02	2218.83
411.21	2235.21
411.40	2382.67
411.59	2267.98
411.78	2427.14
411.98	2352.24
412.17	2394.37
412.36	2272.66
412.55	2335.85
412.74	2497.35
412.93	2387.35
413.12	2448.20
413.31	2548.84
413.50	2462.24
413.69	2616.72
413.88	2682.25
414.07	2635.44
414.26	2661.19
414.45	2656.51
414.64	2761.83
414.83	2745.45
415.02	2836.73
415.22	2857.79
415.41	2834.39
415.60	2743.11
415.79	2841.41
415.98	2892.90
416.17	2925.67
416.36	2942.05
416.55	2899.92
416.74	2860.13
416.93	2958.44
417.12	2918.65
417.31	3084.83
417.50	3080.14
417.69	3225.26
417.88	3176.11
418.07	3000.57
418.26	3087.17
418.45	3164.40
418.64	3194.83
418.83	3180.79
419.02	3183.13
419.21	3262.71
419.39	3300.16
419.58	3332.92
419.77	3300.16
419.96	3201.85
420.15	3325.90
420.34	3349.31
420.53	3391.44
420.72	3494.42
420.91	3452.29
421.10	3545.91
421.29	3588.04
421.48	3468.67
421.67	3569.32
421.86	3508.46
422.05	3410.16
422.24	3501.44
422.43	3417.18
422.61	3466.33
422.80	3630.17
422.99	3562.30
423.18	3613.79
423.37	3637.19
423.56	3604.42
423.75	3658.26
423.94	3578.68
424.13	3220.58
424.32	3398.46
424.50	3684.00
424.69	3763.58
424.88	3723.79
425.07	3531.87
425.26	3595.06
425.45	3588.04
425.64	3583.36
425.83	3541.23
426.01	3517.83
426.20	3730.81
426.39	3719.11
426.58	3688.68
426.77	3660.60
426.96	3651.24
427.15	3707.41
427.33	3667.62
427.52	3698.05
427.71	3705.07
427.90	3824.44
428.09	3768.26
428.28	3808.05
428.46	3782.31
428.65	3726.13
428.84	3953.16
429.03	3887.63
429.22	3676.98
429.40	3796.35
429.59	3791.67
429.78	3730.81
429.97	3719.11
430.16	3688.68
430.34	3777.62
430.53	3948.48
430.72	3859.54
430.91	3922.74
431.10	3896.99
431.28	4191.90
431.47	4081.89
431.66	4348.72
431.85	4290.20
432.03	4301.90
432.22	4299.56
432.41	4411.91
432.60	4250.41
432.79	4189.56
432.97	4306.59
433.16	4430.63
433.35	4262.12
433.54	4248.07
433.72	4393.19
433.91	4210.62
434.10	4322.97
434.28	4322.97
434.47	4447.02
434.66	4568.73
434.85	4421.27
435.03	4484.47
435.22	4425.95
435.41	4601.49
435.59	4636.60
435.78	4695.11
435.97	4622.56
436.16	4704.48
436.34	4587.45
436.53	4624.90
436.72	4915.12
436.90	4657.67
437.09	4854.27
437.28	4631.92
437.46	4835.55
437.65	4723.20
437.84	4690.43
438.02	4917.47
438.21	4835.55
438.40	4760.65
438.58	4992.36
438.77	5018.11
438.96	5011.09
439.14	5020.45
439.33	4964.28
439.52	5123.43
439.70	5125.77
439.89	5254.50
440.08	5181.95
440.26	5261.52
440.45	5210.03
440.63	5387.91
440.82	5430.04
441.01	5455.79
441.19	5394.93
441.38	5472.17
441.57	5486.22
441.75	5614.95
441.94	5736.65
442.12	5760.06
442.31	5734.31
442.50	5729.63
442.68	5797.51
442.87	5703.89
443.05	5823.25
443.24	5870.06
443.43	5998.79
443.61	5956.66
443.80	6024.54
443.98	5647.71
444.17	5724.95
444.35	5959.00
444.54	5970.71
444.73	6071.35
444.91	5891.13
445.10	6001.13
445.28	5865.38
445.47	5944.96
445.65	5860.70
445.84	6019.86
446.02	6141.57
446.21	5841.98
446.39	5914.53
446.58	6038.58
446.77	5982.41
446.95	5813.89
447.14	6043.26
447.32	6169.65
447.51	6129.86
447.69	5923.90
447.88	6186.04
448.06	6076.03
448.25	6083.05
448.43	6129.86
448.62	6061.99
448.80	6012.84
448.99	6321.79
449.17	6136.88
449.36	6291.36
449.54	6368.60
449.73	6408.39
449.91	6361.58
450.10	6600.31
450.28	6520.73
450.46	6448.18
450.65	6464.56
450.83	6581.59
451.02	6445.84
451.20	6682.23
451.39	6424.77
451.57	6527.75
451.76	6443.49
451.94	6705.63
452.13	6719.68
452.31	6499.67
452.49	6422.43
452.68	6506.69
452.86	6649.46
453.05	6712.66
453.23	6796.92
453.42	6565.20
453.60	6637.76
453.78	6810.96
453.97	6633.08
454.15	6665.85
454.34	6637.76
454.52	6939.69
454.70	6817.98
454.89	6654.14
455.07	6857.77
455.26	7019.27
455.44	7187.79
455.62	7049.69
455.81	6904.58
455.99	7005.22
456.17	7082.46
456.36	7133.95
456.54	7279.07
456.73	7295.45
456.91	7438.22
457.09	7386.73
457.28	7662.91
457.46	7293.11
457.64	7375.03
457.83	7335.24
458.01	7332.90
458.19	7524.82
458.38	7363.33
458.56	7545.89
458.74	7651.21
458.93	7468.65
459.11	7571.63
459.29	7470.99
459.48	7463.97
459.66	7459.29
459.84	7754.19
460.03	7779.94
460.21	7833.77
460.39	7698.02
460.57	7592.70
460.76	7997.61
460.94	7772.92
461.12	7861.86
461.31	7967.18
461.49	8030.38
461.67	7915.69
461.85	8145.06
462.04	8070.17
462.22	8538.27
462.40	8084.21
462.59	8189.53
462.77	8049.10
462.95	8126.34
463.13	8219.96
463.32	8226.98
463.50	8381.46
463.68	8163.79
463.86	8432.95
464.05	8208.26
464.23	8063.15
464.41	8248.05
464.59	8126.34
464.78	8486.78
464.96	8458.70
465.14	8329.97
465.32	8486.78
465.50	8468.06
465.69	8400.18
465.87	8294.86
466.05	8531.25
466.23	8355.71
466.41	8486.78
466.60	8650.62
466.78	8404.86
466.96	8692.75
467.14	8739.56
467.32	8601.47
467.51	8697.43
467.69	8498.49
467.87	8858.93
468.05	8800.41
468.23	8564.02
468.41	8702.11
468.60	8678.71
468.78	8678.71
468.96	8578.06
469.14	8786.37
469.32	8809.78
469.50	8739.56
469.69	9001.70
469.87	9015.74
470.05	8997.02
470.23	8975.95
470.41	9212.35
470.59	9224.05
470.77	9109.36
470.95	9315.33
471.14	9329.38
471.32	9095.32
471.50	9441.72
471.68	9334.06
471.86	9635.99
472.04	9596.20
472.22	9834.93
472.40	9383.21
472.58	9518.96
472.77	9727.27
472.95	9853.66
473.13	10080.69
473.31	9633.64
473.49	9610.24
473.67	9689.82
473.85	9837.27
474.03	10003.45
474.21	9825.57
474.39	10169.63
474.57	10153.24
474.75	10345.17
474.93	10043.24
475.12	10286.65
475.30	10326.44
475.48	10319.42
475.66	10319.42
475.84	10462.19
476.02	10413.04
476.20	10408.36
476.38	10633.05
476.56	10916.26
476.74	10883.49
476.92	11030.94
477.10	11026.26
477.28	10857.75
477.46	10963.07
477.64	11080.10
477.82	11199.46
478.00	11613.74
478.18	11304.79
478.36	11410.11
478.54	11534.16
478.72	11609.06
478.90	12051.42
479.08	12030.35
479.26	12039.72
479.44	11819.71
479.62	12259.73
479.80	12238.66
479.98	12252.70
480.16	12725.49
480.34	12493.78
480.52	12594.42
480.70	12844.86
480.88	12631.87
481.06	12575.70
481.24	12943.16
481.41	13018.06
481.59	13151.47
481.77	13111.68
481.95	13369.14
482.13	13345.73
482.31	13465.10
482.49	13642.98
482.67	13544.68
482.85	13891.08
483.03	13954.27
483.21	14328.76
483.39	14345.14
483.57	14094.71
483.74	14406.00
483.92	14675.16
484.10	14333.44
484.28	14593.24
484.46	14743.03
484.64	15201.78
484.82	14721.97
485.00	15068.37
485.18	15049.64
485.35	15243.91
485.53	15161.99
485.71	15222.84
485.89	15644.14
486.07	15213.48
486.25	15583.29
486.43	15740.10
486.61	15807.98
486.78	16081.82
486.96	15889.90
487.14	16325.24
487.32	16676.32
487.50	16617.80
487.68	16854.20
487.85	17132.72
488.03	16896.33
488.21	17481.46
488.39	17312.94
488.57	17242.73
488.75	17308.26
488.92	17869.99
489.10	17855.95
489.28	18036.17
489.46	18258.52
489.64	18235.11
489.81	18305.33
489.99	18759.39
490.17	18380.23
490.35	18995.79
490.53	18958.34
490.70	19332.82
490.88	18948.98
491.06	19417.08
491.24	19278.99
491.41	19461.55
491.59	19161.97
491.77	19587.94
491.95	19775.19
492.13	19873.49
492.30	19836.04
492.48	20020.94
492.66	20112.22
492.84	20112.22
493.01	20732.47
493.19	20460.96
493.37	20833.11
493.54	20554.58
493.72	20968.86
493.90	20989.92
494.08	21179.51
494.25	21645.27
494.43	21390.16
494.61	21507.18
494.79	21970.61
494.96	21928.48
495.14	21668.68
495.32	22019.76
495.49	22068.91
495.67	22001.04
495.85	22249.13
496.02	22499.57
496.20	22637.66
496.38	22731.28
496.55	23028.53
496.73	23098.75
496.91	22981.72
497.09	23356.21
497.26	23131.51
497.44	23342.16
497.62	23459.19
497.79	23997.51
497.97	23679.20
498.14	23875.80
498.32	24269.01
498.50	23983.47
498.67	24208.16
498.85	24517.11
499.03	24620.10
499.20	24812.02
499.38	24390.72
499.56	24652.86
499.73	24713.72
499.91	24854.15
500.08	24629.46
500.26	24446.90
500.44	24917.34
500.61	24903.30
500.79	24584.99
500.97	24940.75
501.14	25326.94
501.32	25268.42
501.49	25598.44
501.67	25675.68
501.84	25771.64
502.02	25556.31
502.20	26015.05
502.37	26043.14
502.55	25914.41
502.72	25827.81
502.90	26359.11
503.07	26377.84
503.25	26534.65
503.43	26359.11
503.60	26452.73
503.78	26279.54
503.95	26384.86
504.13	26834.24
504.30	26562.74
504.48	26906.80
504.65	27016.80
504.83	26998.08
505.01	27541.08
505.18	27335.12
505.36	27374.91
505.53	27351.50
505.71	27424.06
505.88	27690.88
506.06	27517.68
506.23	27913.23
506.41	27274.26
506.58	27915.57
506.76	28053.66
506.93	28231.54
507.11	28180.05
507.28	28407.08
507.46	28128.56
507.63	28210.48
507.81	28437.51
507.98	28339.21
508.16	28664.54
508.33	28613.05
508.50	28505.38
508.68	28765.18
508.85	29153.71
509.03	29010.94
509.20	29254.36
509.38	29305.85
509.55	29823.11
509.73	29525.86
509.90	29617.14
510.08	29223.93
510.25	29362.02
510.42	29680.33
510.60	29518.84
510.77	29750.55
510.95	30251.42
511.12	29975.24
511.30	30206.95
511.47	30050.14
511.64	30354.41
511.82	30450.37
511.99	30384.83
512.17	30794.43
512.34	30448.03
512.51	30787.41
512.69	30939.54
512.86	30848.26
513.04	31061.25
513.21	30962.95
513.38	30965.29
513.56	30927.84
513.73	30756.98
513.90	31117.42
514.08	30792.09
514.25	31243.81
514.43	31112.74
514.60	31051.89
514.77	31285.94
514.95	31892.14
515.12	31335.09
515.29	31405.31
515.47	31885.12
515.64	32173.00
515.81	32180.03
515.99	32102.79
516.16	32058.32
516.33	31950.65
516.51	32474.93
516.68	31737.66
516.85	31910.86
517.03	31941.29
517.20	32400.04
517.37	32339.18
517.54	32842.40
517.72	32498.34
517.89	32161.30
518.06	32566.21
518.24	32638.77
518.41	32788.56
518.58	32833.04
518.75	32781.54
518.93	32816.65
519.10	33090.49
519.27	33137.30
519.45	33284.76
519.62	33600.73
519.79	33610.09
519.96	33263.69
520.14	33535.20
520.31	33383.06
520.48	33790.31
520.65	33556.26
520.83	34045.43
521.00	33996.28
521.17	34143.74
521.34	33862.87
521.52	34398.85
521.69	34132.03
521.86	34012.66
522.03	34675.04
522.20	34597.80
522.38	34401.19
522.55	34546.31
522.72	34345.02
522.89	34499.50
523.07	34771.00
523.24	34728.87
523.41	34466.73
523.58	34913.77
523.75	35077.61
523.92	35152.51
524.10	35173.57
524.27	35103.35
524.44	35328.05
524.61	35122.08
524.78	35576.14
524.96	35267.19
525.13	35611.25
525.30	35662.74
525.47	35629.98
525.64	35866.37
525.81	35892.12
525.98	35370.18
526.16	35505.93
526.33	35323.36
526.50	35683.81
526.67	35838.28
526.84	35552.74
527.01	35789.13
527.18	35639.34
527.36	36315.75
527.53	36491.29
527.70	36320.43
527.87	36168.30
528.04	36449.16
528.21	36364.90
528.38	36304.05
528.55	36912.59
528.72	36999.19
528.89	37273.03
529.07	36844.71
529.24	36474.91
529.41	36844.71
529.58	36928.97
529.75	36994.51
529.92	37104.51
530.09	37233.24
530.26	37055.36
530.43	37301.12
530.60	37041.32
530.77	37408.78
530.94	37298.78
531.11	37319.84
531.28	37954.13
531.46	37476.66
531.63	37706.03
531.80	37752.84
531.97	37317.50
532.14	37537.51
532.31	37605.39
532.48	37675.60
532.65	37832.42
532.82	37469.64
532.99	38014.98
533.16	37633.47
533.33	38047.75
533.50	38307.55
533.67	38059.45
533.84	37874.55
534.01	38188.18
534.18	37914.34
534.35	38649.27
534.52	38335.63
534.69	38223.29
534.86	38574.37
535.03	38153.07
535.20	38623.52
535.37	39061.20
535.54	38768.63
535.71	38899.70
535.88	38934.81
536.05	38483.09
536.22	38852.89
536.38	38520.54
536.55	38981.62
536.72	38838.85
536.89	38588.41
537.06	38904.38
537.23	38944.17
537.40	39051.84
537.57	39491.86
537.74	39311.64
537.91	39686.12
538.08	39470.79
538.25	39295.25
538.42	39201.63
538.59	39363.13
538.75	38595.43
538.92	39157.16
539.09	39651.02
539.26	39445.05
539.43	39477.82
539.60	39938.90
539.77	39681.44
539.94	39599.52
540.11	39517.60
540.28	39363.13
540.44	39775.06
540.61	39672.08
540.78	39842.94
540.95	39496.54
541.12	40133.17
541.29	39737.62
541.46	39866.34
541.62	40074.65
541.79	40517.01
541.96	39924.86
542.13	39805.49
542.30	40477.22
542.47	40470.20
542.63	40683.19
542.80	40495.95
542.97	40149.55
543.14	40835.33
543.31	40854.05
543.48	40985.12
543.64	41195.77
543.81	41069.38
543.98	40947.67
544.15	40804.90
544.32	41148.96
544.48	41205.13
544.65	40715.96
544.82	41434.50
544.99	40505.31
545.16	40444.46
545.32	40940.65
545.49	41528.13
545.66	41062.36
545.83	41530.47
546.00	41745.80
546.16	41858.14
546.33	40947.67
546.50	40704.26
546.67	41422.80
546.83	40779.15
547.00	41069.38
547.17	41392.37
547.34	41537.49
547.50	41766.86
547.67	42150.71
547.84	41411.10
548.00	42045.38
548.17	42038.36
548.34	41652.17
548.51	41780.90
548.67	41930.70
548.84	42487.74
549.01	41759.84
549.18	41921.34
549.34	41841.76
549.51	42667.97
549.68	42209.22
549.84	42330.93
550.01	42476.04
550.18	41900.27
550.34	42223.26
550.51	41808.99
550.68	42267.73
550.84	42052.41
551.01	42780.31
551.18	41984.53
551.34	42178.79
551.51	42213.90
551.68	42653.92
551.84	42843.51
552.01	42328.59
552.18	42454.98
552.34	41977.51
552.51	42948.83
552.68	42719.46
552.84	42721.80
553.01	43014.37
553.18	42836.48
553.34	42979.26
553.51	42534.56
553.67	42431.57
553.84	42866.91
554.01	43313.95
554.17	43023.73
554.34	42925.42
554.51	43239.06
554.67	43414.60
554.84	43255.44
555.00	42946.49
555.17	42595.41
555.33	43489.49
555.50	42850.53
555.67	43103.31
555.83	43028.41
556.00	43412.26
556.16	43480.13
556.33	43360.76
556.50	43115.01
556.66	42972.24
556.83	43487.15
556.99	43447.36
557.16	43222.67
557.32	43454.39
557.49	44002.07
557.65	42995.64
557.82	43388.85
557.98	43548.01
558.15	43470.77
558.32	43863.98
558.48	43730.57
558.65	43613.54
558.81	43491.83
558.98	43906.11
559.14	43440.34
559.31	43100.97
559.47	43618.22
559.64	44004.41
559.80	44158.89
559.97	43702.48
560.13	43548.01
560.30	43826.53
560.46	43650.99
560.63	43707.16
560.79	44156.55
560.96	43763.34
561.12	43768.02
561.29	43800.79
561.45	43955.26
561.61	43903.77
561.78	44252.51
561.94	43426.30
562.11	44250.17
562.27	43899.09
562.44	44044.20
562.60	44243.15
562.77	44222.08
562.93	44222.08
563.10	44737.00
563.26	43739.93
563.42	44069.95
563.59	44383.58
563.75	43880.36
563.92	44507.63
564.08	44320.38
564.24	44414.01
564.41	44037.18
564.57	43817.17
564.74	44491.24
564.90	43990.37
565.07	44161.23
565.23	44142.50
565.39	44392.94
565.56	44568.48
565.72	44259.53
565.88	43889.73
566.05	44233.78
566.21	44060.58
566.38	44027.82
566.54	44336.77
566.70	44605.93
566.87	44556.78
567.03	44472.52
567.19	44575.50
567.36	44708.91
567.52	44629.34
567.68	44601.25
567.85	44163.57
568.01	44336.77
568.17	44091.01
568.34	44346.13
568.50	44011.43
568.66	44484.22
568.83	44662.10
568.99	44282.94
569.15	44168.25
569.32	44399.96
569.48	44306.34
569.64	44692.53
569.81	44753.38
569.97	44208.04
570.13	44346.13
570.30	44055.90
570.46	43985.69
570.62	44456.14
570.78	44392.94
570.95	44526.35
571.11	44942.97
571.27	44612.95
571.43	44343.79
571.60	44935.95
571.76	44320.38
571.92	44168.25
572.09	44549.76
572.25	44697.21
572.41	44318.04
572.57	44928.92
572.74	44790.83
572.90	44692.53
573.06	44439.75
573.22	44781.47
573.38	44388.26
573.55	44568.48
573.71	44753.38
573.87	44889.13
574.03	44289.96
574.20	44589.55
574.36	44767.43
574.52	45071.70
574.68	44795.51
574.84	45141.91
575.01	44617.63
575.17	44790.83
575.33	44589.55
575.49	44325.07
575.65	44781.47
575.82	45027.23
575.98	45003.82
576.14	45326.81
576.30	44921.90
576.46	44465.50
576.62	44648.06
576.79	44208.04
576.95	44648.06
577.11	44811.90
577.27	44800.19
577.43	45102.12
577.59	44418.69
577.75	44968.71
577.92	44861.05
578.08	44311.02
578.24	44662.10
578.40	45017.86
578.56	44861.05
578.72	44968.71
578.88	44996.80
579.04	44671.46
579.21	44786.15
579.37	44882.11
579.53	44886.79
579.69	44563.80
579.85	44779.13
580.01	44856.37
580.17	44837.64
580.33	45144.25
580.49	44978.07
580.65	45319.79
580.82	44994.46
580.98	45013.18
581.14	44641.04
581.30	45242.56
581.46	44982.76
581.62	45212.13
581.78	44753.38
581.94	45340.86
582.10	44994.46
582.26	44797.85
582.42	44844.66
582.58	44933.60
582.74	44964.03
582.90	45013.18
583.06	45181.70
583.22	45134.89
583.38	45193.40
583.54	44765.09
583.70	44788.49
583.86	44666.78
584.02	44793.17
584.18	44683.17
584.34	44891.48
584.50	44996.80
584.66	44678.49
584.82	44788.49
584.98	45214.47
585.14	45081.06
585.30	44744.02
585.46	44919.56
585.62	44659.76
585.78	44622.31
585.94	44552.10
586.10	44556.78
586.26	45092.76
586.42	44751.04
586.58	45104.46
586.74	44868.07
586.90	44814.24
587.06	44949.99
587.22	45329.16
587.38	44502.95
587.54	45209.79
587.70	44835.30
587.86	45476.61
588.02	44690.19
588.18	45244.90
588.34	44889.13
588.49	44589.55
588.65	44624.65
588.81	44392.94
588.97	44737.00
589.13	44685.51
589.29	45155.96
589.45	44952.33
589.61	45275.32
589.77	45319.79
589.93	45287.03
590.08	45270.64
590.24	44966.37
590.40	45221.49
590.56	44926.58
590.72	45209.79
590.88	45083.40
591.04	45371.28
591.20	45481.29
591.35	45598.32
591.51	45652.15
591.67	45277.66
591.83	45483.63
591.99	44854.03
592.15	45340.86
592.31	45221.49
592.46	44837.64
592.62	44987.44
592.78	45165.32
592.94	45179.36
593.10	44992.12
593.26	45366.60
593.41	45441.50
593.57	45411.07
593.73	45375.97
593.89	45317.45
594.05	45127.87
594.20	45434.48
594.36	45425.12
594.52	45310.43
594.68	44978.07
594.84	45048.29
594.99	45661.51
595.15	45567.89
595.31	45385.33
595.47	45535.12
595.62	45656.83
595.78	45448.52
595.94	45757.47
596.10	45282.34
596.25	45144.25
596.41	45705.98
596.57	45378.31
596.73	45354.90
596.88	44720.62
597.04	45139.57
597.20	44879.77
597.36	45202.77
597.51	45631.08
597.67	45172.34
597.83	45375.97
597.99	45705.98
598.14	45312.77
598.30	45563.21
598.46	45244.90
598.61	45567.89
598.77	44769.77
598.93	45216.81
599.09	45474.27
599.24	45930.67
599.40	45441.50
599.56	45406.39
599.71	45485.97
599.87	45853.44
600.03	45432.14
600.18	45333.84
600.34	45626.40
600.50	45284.68
600.65	45132.55
600.81	45731.73
600.97	45333.84
601.12	45979.82
601.28	45577.25
601.44	45001.48
601.59	45375.97
601.75	45516.40
601.91	45441.50
602.06	45298.73
602.22	45581.93
602.37	45530.44
602.53	44905.52
602.69	45179.36
602.84	45441.50
603.00	45326.81
603.16	45502.35
603.31	45303.41
603.47	45439.16
603.62	45090.42
603.78	46071.10
603.94	45092.76
604.09	45223.83
604.25	45727.05
604.40	45294.05
604.56	45247.24
604.71	45003.82
604.87	45038.93
605.03	45462.57
605.18	45170.00
605.34	45780.88
605.49	44912.54
605.65	45581.93
605.80	45312.77
605.96	45588.95
606.12	45277.66
606.27	45277.66
606.43	44905.52
606.58	45256.60
606.74	45198.09
606.89	45237.87
607.05	45282.34
607.20	45198.09
607.36	45294.05
607.51	45577.25
607.67	44816.58
607.82	44765.09
607.98	45359.58
608.13	44821.26
608.29	44701.89
608.44	44751.04
608.60	44666.78
608.75	44861.05
608.91	44460.82
609.06	44900.84
609.22	45102.12
609.37	44659.76
609.53	44870.41
609.68	44910.20
609.84	44910.20
609.99	44912.54
610.15	44816.58
610.30	44875.09
610.46	44645.72
610.61	44449.11
610.76	44854.03
610.92	45097.44
611.07	44893.82
611.23	44671.46
611.38	45020.20
611.54	44409.32
611.69	44177.61
611.84	44641.04
612.00	44978.07
612.15	44350.81
612.31	44662.10
612.46	44865.73
612.62	44615.29
612.77	44760.40
612.92	44666.78
613.08	44687.85
613.23	44456.14
613.39	44254.85
613.54	43995.05
613.69	44631.68
613.85	44332.09
614.00	44697.21
614.15	44734.66
614.31	44790.83
614.46	44917.22
614.62	44271.23
614.77	44531.03
614.92	44554.44
615.08	44245.49
615.23	44224.42
615.38	44477.20
615.54	43267.14
615.69	43847.60
615.84	43941.22
616.00	43950.58
616.15	44252.51
616.30	44222.08
616.46	43856.96
616.61	43690.78
616.76	44105.06
616.92	43569.07
617.07	43875.68
617.22	44100.37
617.37	43821.85
617.53	43931.86
617.68	43641.63
617.83	43854.62
617.99	43941.22
618.14	43952.92
618.29	43435.66
618.45	43746.95
618.60	43681.42
618.75	43548.01
618.90	44112.08
619.06	43899.09
619.21	43641.63
619.36	43744.61
619.51	43592.48
619.67	43594.82
619.82	43721.21
619.97	44072.29
620.12	43445.02
620.28	43215.65
620.43	43328.00
620.58	43770.36
620.73	43491.83
620.89	43339.70
621.04	43646.31
621.19	43796.10
621.34	43304.59
621.49	43100.97
621.65	43346.72
621.80	43372.47
621.95	43466.09
622.10	43342.04
622.25	43086.92
622.41	43482.47
622.56	43047.13
622.71	42997.98
622.86	43222.67
623.01	43203.95
623.16	43714.19
623.32	43578.43
623.47	42653.92
623.62	43159.48
623.77	42614.13
623.92	42677.33
624.07	42939.47
624.23	42815.42
624.38	42799.04
624.53	42485.40
624.68	42698.39
624.83	43157.14
624.98	43271.82
625.13	43063.52
625.29	42913.72
625.44	43037.77
625.59	42541.58
625.74	42562.64
625.89	41804.31
626.04	42101.56
626.19	42534.56
626.34	42703.07
626.49	42136.66
626.65	42424.55
626.80	42431.57
626.95	42759.25
627.10	42410.51
627.25	42199.86
627.40	42054.75
627.55	42143.69
627.70	42103.90
627.85	41989.21
628.00	42464.34
628.15	42185.82
628.30	42045.38
628.45	42288.80
628.60	42148.37
628.76	42532.22
628.91	42012.62
629.06	42469.02
629.21	41935.38
629.36	41977.51
629.51	41284.71
629.66	41738.77
629.81	41830.05
629.96	42080.49
630.11	42012.62
630.26	41605.36
630.41	42047.72
630.56	42293.48
630.71	41869.84
630.86	41591.32
631.01	41581.96
631.16	41785.58
631.31	41343.22
631.46	41509.40
631.61	41439.18
631.76	41298.75
631.91	41343.22
632.06	41291.73
632.21	41771.54
632.36	41443.87
632.51	41380.67
632.66	41551.53
632.81	41031.93
632.96	41301.09
633.10	40938.31
633.25	41181.73
633.40	41368.97
633.55	41106.83
633.70	41460.25
633.85	41270.67
634.00	40999.16
634.15	41352.58
634.30	40837.67
634.45	41041.29
634.60	41268.33
634.75	41230.88
634.90	41258.96
635.05	40685.53
635.19	41020.23
635.34	41209.81
635.49	41053.00
635.64	40734.68
635.79	40865.75
635.94	40722.98
636.09	40666.81
636.24	40594.25
636.39	40411.69
636.53	40449.14
636.68	40268.92
636.83	40168.27
636.98	40753.41
637.13	40526.38
637.28	40430.41
637.43	40552.12
637.57	40924.27
637.72	40191.68
637.87	40339.13
638.02	40683.19
638.17	40369.56
638.32	40526.38
638.46	40098.06
638.61	40053.59
638.76	40493.61
638.91	40428.07
639.06	40289.98
639.20	40280.62
639.35	40823.62
639.50	40161.25
639.65	40612.98
639.80	40477.22
639.94	39995.07
640.09	40002.10
640.24	40027.84
640.39	39704.85
640.54	40067.63
640.68	39590.16
640.83	39952.94
640.98	39952.94
641.13	40018.48
641.27	39908.47
641.42	39854.64
641.57	40168.27
641.72	39903.79
641.86	39419.30
642.01	39976.35
642.16	39793.79
642.31	39325.68
642.45	40133.17
642.60	39023.75
642.75	39271.85
642.90	39737.62
643.04	39356.11
643.19	39473.13
643.34	39751.66
643.48	39573.78
643.63	39674.42
643.78	39431.01
643.93	39234.40
644.07	38799.06
644.22	39463.77
644.37	38735.87
644.51	39292.91
644.66	39138.44
644.81	39400.58
644.95	39196.95
645.10	39349.09
645.25	39175.89
645.39	39356.11
645.54	39290.57
645.69	38770.97
645.83	38873.96
645.98	39166.52
646.13	39171.21
646.27	38962.90
646.42	38827.15
646.57	39192.27
646.71	38958.22
646.86	39126.74
647.00	38972.26
647.15	38820.13
647.30	39035.45
647.44	38880.98
647.59	38981.62
647.74	38932.47
647.88	38707.78
648.03	38951.20
648.17	39049.50
648.32	38614.16
648.47	38925.45
648.61	38244.35
648.76	39040.14
648.90	38583.73
649.05	38719.48
649.20	38574.37
649.34	38789.70
649.49	38380.10
649.63	38237.33
649.78	38682.03
649.92	38864.60
650.07	38602.46
650.21	38157.75
650.36	38637.56
650.51	38258.40
650.65	38878.64
650.80	38801.40
650.94	38604.80
651.09	38445.64
651.23	38361.38
651.38	38546.28
651.52	38281.80
651.67	38106.26
651.81	38197.54
651.96	38043.07
652.10	38450.32
652.25	37825.40
652.39	37904.98
652.54	38183.50
652.68	37780.93
652.83	38059.45
652.97	38181.16
653.12	37951.79
653.26	38033.71
653.41	37750.50
653.55	37530.49
653.70	37832.42
653.84	37902.64
653.99	37837.10
654.13	37628.79
654.27	37748.16
654.42	37380.70
654.56	37663.90
654.71	37219.20
654.85	37801.99
655.00	37710.71
655.14	37422.83
655.29	37329.20
655.43	37343.25
655.57	37029.62
655.72	37116.22
655.86	37200.47
656.01	36889.18
656.15	36952.38
656.30	37277.71
656.44	36772.16
656.58	36863.44
656.73	37202.82
656.87	37069.40
657.01	36617.68
657.16	36507.68
657.30	37017.91
657.45	36498.31
657.59	36935.99
657.73	36769.82
657.88	36924.29
658.02	36898.55
658.16	37081.11
658.31	37251.97
658.45	37160.69
658.60	36828.33
658.74	37174.73
658.88	36533.42
659.03	36730.03
659.17	36535.76
659.31	36540.44
659.46	36336.82
659.60	36425.76
659.74	36346.18
659.89	36140.21
660.03	36727.69
660.17	36636.41
660.32	36116.81
660.46	36282.98
660.60	36559.17
660.74	36418.74
660.89	36404.69
661.03	35931.90
661.17	36189.36
661.32	35950.63
661.46	35840.62
661.60	35267.19
661.74	35950.63
661.89	35702.53
662.03	36030.21
662.17	35983.40
662.31	35700.19
662.46	35576.14
662.60	35594.87
662.74	35697.85
662.88	35470.82
663.03	35262.51
663.17	35548.06
663.31	35405.28
663.45	35489.54
663.60	35122.08
663.74	35239.11
663.88	35042.50
664.02	34876.32
664.17	35040.16
664.31	34398.85
664.45	35271.87
664.59	34976.97
664.73	34796.74
664.88	34998.03
665.02	34527.58
665.16	34841.21
665.30	34635.25
665.44	34417.58
665.59	34588.44
665.73	34218.63
665.87	34249.06
666.01	34391.83
666.15	34391.83
666.29	33949.47
666.44	34487.79
666.58	34298.21
666.72	34110.97
666.86	34054.79
667.00	34504.18
667.14	34328.64
667.28	33909.68
667.43	33413.49
667.57	34043.09
667.71	33727.12
667.85	33659.24
667.99	33804.36
668.13	33408.81
668.27	33830.10
668.41	33940.11
668.56	33172.41
668.70	33441.57
668.84	33055.39
668.98	33425.19
669.12	33352.63
669.26	33116.24
669.40	33139.65
669.54	32772.18
669.68	33216.88
669.82	33062.41
669.96	32727.71
670.10	32826.01
670.25	33195.82
670.39	32994.53
670.53	32781.54
670.67	32765.16
670.81	32896.23
670.95	32491.32
671.09	32875.16
671.23	32807.29
671.37	32851.76
671.51	32479.61
671.65	32180.03
671.79	32013.85
671.93	32182.37
672.07	32507.70
672.21	32077.04
672.35	31840.65
672.49	32217.47
672.63	32105.13
672.77	31995.12
672.91	31842.99
673.05	31627.66
673.19	31768.09
673.33	31335.09
673.47	31515.31
673.61	31658.09
673.75	30888.05
673.89	31047.21
674.03	30986.35
674.17	31159.55
674.31	31145.51
674.45	31180.62
674.59	31126.78
674.73	31269.56
674.87	31110.40
675.01	31143.17
675.15	30756.98
675.29	30848.26
675.43	30775.70
675.56	30759.32
675.70	30691.44
675.84	30506.54
675.98	29193.50
676.12	30078.22
676.26	30143.76
676.40	30010.35
676.54	29893.32
676.68	29921.41
676.82	29425.22
676.96	29549.26
677.10	29448.62
677.23	29874.60
677.37	29806.72
677.51	29610.12
677.65	29113.92
677.79	28870.51
677.93	29420.53
678.07	29132.65
678.21	29137.33
678.34	28620.07
678.48	28875.19
678.62	28608.37
678.76	28430.49
678.90	28510.07
679.04	27981.10
679.18	28510.07
679.31	28020.89
679.45	28268.99
679.59	27608.96
679.73	27840.67
679.87	27700.24
680.00	27742.37
680.14	27709.60
680.28	27278.94
680.42	27627.68
680.56	27517.68
680.70	27311.71
680.83	27182.98
680.97	27372.57
681.11	27147.87
681.25	26459.76
681.39	26775.73
681.52	26670.40
681.66	27033.19
681.80	26815.52
681.94	26366.13
682.07	26359.11
682.21	26572.10
682.35	26363.79
682.49	26635.30
682.62	26167.19
682.76	26115.70
682.90	25977.61
683.04	26288.90
683.17	26204.64
683.31	25706.10
683.45	26120.38
683.59	25523.54
683.72	25500.14
683.86	25486.09
684.00	25219.27
684.13	25226.29
684.27	25413.54
684.41	25228.63
684.55	25177.14
684.68	25034.37
684.82	24835.42
684.96	24886.92
685.09	24704.35
685.23	24746.48
685.37	24610.73
685.50	24397.74
685.64	24350.93
685.78	24552.22
685.91	24444.56
686.05	24386.04
686.19	23616.01
686.32	23999.85
686.46	23681.54
686.60	23208.75
686.73	23496.64
686.87	23316.42
687.01	23412.38
687.14	23314.08
687.28	23082.36
687.42	22995.76
687.55	22895.12
687.69	22745.33
687.82	22906.82
687.96	22600.21
688.10	22583.83
688.23	22621.28
688.37	22541.70
688.50	22340.41
688.64	22328.71
688.78	22054.87
688.91	22478.50
689.05	22001.04
689.18	21947.20
689.32	21675.70
689.46	22192.96
689.59	22078.27
689.73	22089.98
689.86	21781.03
690.00	21610.17
690.13	22052.53
690.27	21397.18
690.41	21474.42
690.54	21123.33
690.68	20861.19
690.81	21135.04
690.95	20821.41
691.08	20709.06
691.22	20802.68
691.35	21128.02
691.49	20919.71
691.62	20893.96
691.76	20655.23
691.89	20786.30
692.03	20386.07
692.16	19983.49
692.30	20465.64
692.43	20318.19
692.57	20362.66
692.70	20203.50
692.84	20030.30
692.97	19730.72
693.11	19819.66
693.24	19728.38
693.38	19496.66
693.51	19473.26
693.65	19782.21
693.78	19646.46
693.92	19742.42
694.05	19473.26
694.19	19307.08
694.32	18965.36
694.45	19012.17
694.59	18845.99
694.72	19229.84
694.86	18836.63
694.99	18925.57
695.13	18700.88
695.26	18321.71
695.39	18104.04
695.53	18511.30
695.66	18466.83
695.80	18544.06
695.93	18122.77
696.07	18164.90
696.20	18157.88
696.33	18129.79
696.47	18017.44
696.60	17888.71
696.73	18078.30
696.87	17867.65
697.00	17823.18
697.14	17900.42
697.27	17745.94
697.40	17568.06
697.54	17539.97
697.67	17261.45
697.80	17521.25
697.94	17156.13
698.07	17263.79
698.21	17177.19
698.34	17200.60
698.47	16994.63
698.61	16821.43
698.74	16563.97
698.87	16685.68
699.01	16301.83
699.14	16301.83
699.27	16294.81
699.40	16580.36
699.54	16196.51
699.67	16240.98
699.80	16369.71
699.94	16095.86
700.07	16107.57
700.20	16016.29
700.34	15843.09
700.47	15676.91
700.60	15805.64
700.73	15882.88
700.87	15646.48
701.00	15634.78
701.13	15456.90
701.26	15494.35
701.40	15499.03
701.53	15332.85
701.66	15449.88
701.79	15117.52
701.93	14963.04
702.06	15136.24
702.19	14654.09
702.32	15300.08
702.46	14778.14
702.59	14677.50
702.72	14860.06
702.85	14679.84
702.99	14541.75
703.12	14761.76
703.25	14651.75
703.38	14366.21
703.51	14698.56
703.65	14445.79
703.78	14448.13
703.91	14094.71
704.04	14321.74
704.17	14061.94
704.31	13813.84
704.44	13638.30
704.57	13518.93
704.70	13654.69
704.83	13441.70
704.96	13727.24
705.10	13764.69
705.23	13853.63
>>>>>End Processed Spectral Data<<<<<
