SpectraSuite Data File
++++++++++++++++++++++++++++++++++++
Date: Fri Oct 25 11:34:13 EDT 2013
User: price-jones
Dark Spectrum Present: No
Reference Spectrum Present: No
Number of Sampled Component Spectra: 1
Spectrometers: USB2+H05261
Integration Time (usec): 100000 (USB2+H05261)
Spectra Averaged: 1 (USB2+H05261)
Boxcar Smoothing: 0 (USB2+H05261)
Correct for Electrical Dark: No (USB2+H05261)
Strobe/Lamp Enabled: No (USB2+H05261)
Correct for Detector Non-linearity: No (USB2+H05261)
Correct for Stray Light: No (USB2+H05261)
Number of Pixels in Processed Spectrum: 2048
>>>>>Begin Processed Spectral Data<<<<<
365.73	334.70
365.92	334.70
366.12	334.70
366.32	182.56
366.52	203.63
366.72	231.71
366.91	170.86
367.11	121.71
367.31	168.52
367.51	117.03
367.70	161.50
367.90	156.82
368.10	154.48
368.30	168.52
368.49	224.69
368.69	212.99
368.89	194.26
369.09	205.97
369.28	229.37
369.48	203.63
369.68	201.29
369.87	299.59
370.07	196.60
370.27	238.73
370.47	322.99
370.66	444.70
370.86	454.06
371.06	613.22
371.25	519.60
371.45	573.43
371.65	550.03
371.84	585.13
372.04	543.00
372.24	596.84
372.44	606.20
372.63	587.47
372.83	561.73
373.03	631.94
373.22	568.75
373.42	653.01
373.62	606.20
373.81	631.94
374.01	620.24
374.21	671.73
374.40	671.73
374.60	617.90
374.79	613.22
374.99	606.20
375.19	681.10
375.38	606.20
375.58	535.98
375.78	692.80
375.97	678.76
376.17	751.31
376.37	681.10
376.56	713.86
376.76	669.39
376.95	685.78
377.15	660.03
377.35	704.50
377.54	690.46
377.74	657.69
377.93	669.39
378.13	688.12
378.33	730.25
378.52	662.37
378.72	702.16
378.91	634.29
379.11	704.50
379.31	638.97
379.50	606.20
379.70	723.23
379.89	781.74
380.09	685.78
380.28	802.80
380.48	678.76
380.68	765.36
380.87	718.54
381.07	704.50
381.26	791.10
381.46	648.33
381.65	777.06
381.85	795.78
382.04	844.93
382.24	802.80
382.43	716.20
382.63	774.72
382.83	760.67
383.02	770.04
383.22	884.72
383.41	875.36
383.61	702.16
383.80	840.25
384.00	800.46
384.19	746.63
384.39	837.91
384.58	847.27
384.78	844.93
384.97	861.32
385.17	816.85
385.36	784.08
385.56	816.85
385.75	861.32
385.95	788.76
386.14	917.49
386.34	807.48
386.53	774.72
386.72	802.80
386.92	915.15
387.11	891.74
387.31	896.43
387.50	851.96
387.70	910.47
387.89	922.17
388.09	1011.11
388.28	891.74
388.48	917.49
388.67	933.87
388.86	917.49
389.06	917.49
389.25	938.55
389.45	1013.45
389.64	987.71
389.84	943.24
390.03	926.85
390.22	936.21
390.42	985.37
390.61	952.60
390.81	870.68
391.00	957.28
391.19	971.32
391.39	985.37
391.58	1041.54
391.78	1008.77
391.97	1060.26
392.16	997.07
392.36	1043.88
392.55	1088.35
392.75	1057.92
392.94	961.96
393.13	987.71
393.33	1041.54
393.52	1062.60
393.71	954.94
393.91	1034.52
394.10	1041.54
394.29	1050.90
394.49	1041.54
394.68	1198.35
394.88	1032.18
395.07	1097.71
395.26	1165.59
395.46	1179.63
395.65	1217.08
395.84	1151.54
396.04	1226.44
396.23	1181.97
396.42	1125.80
396.62	1254.53
396.81	1203.04
397.00	1233.46
397.19	1235.80
397.39	1207.72
397.58	1273.25
397.77	1186.65
397.97	1263.89
398.16	1107.07
398.35	1259.21
398.55	1238.14
398.74	1207.72
398.93	1306.02
399.12	1338.79
399.32	1392.62
399.51	1334.11
399.70	1352.83
399.90	1254.53
400.09	1357.51
400.28	1291.98
400.47	1425.39
400.67	1453.47
400.86	1406.66
401.05	1462.83
401.24	1465.18
401.44	1399.64
401.63	1392.62
401.82	1514.33
402.01	1430.07
402.21	1465.18
402.40	1401.98
402.59	1465.18
402.78	1500.28
402.97	1495.60
403.17	1444.11
403.36	1462.83
403.55	1474.54
403.74	1582.20
403.93	1533.05
404.13	1547.09
404.32	1458.15
404.51	1589.22
404.70	1619.65
404.89	1582.20
405.09	1591.56
405.28	1659.44
405.47	1638.38
405.66	1659.44
405.85	1689.87
406.05	1757.74
406.24	1762.42
406.43	1694.55
406.62	1757.74
406.81	1732.00
407.00	1668.80
407.20	1678.16
407.39	1736.68
407.58	1783.49
407.77	1811.57
407.96	1762.42
408.15	1853.70
408.34	1785.83
408.54	1834.98
408.73	1879.45
408.92	1781.15
409.11	1895.83
409.30	1961.37
409.49	1991.80
409.68	1996.48
409.87	2022.22
410.07	2040.95
410.26	1989.46
410.45	1968.39
410.64	1921.58
410.83	2083.08
411.02	2054.99
411.21	2150.95
411.40	2204.78
411.59	2108.82
411.78	2134.57
411.98	2146.27
412.17	2195.42
412.36	2218.83
412.55	2225.85
412.74	2249.25
412.93	2354.58
413.12	2286.70
413.31	2275.00
413.50	2289.04
413.69	2413.09
413.88	2478.63
414.07	2387.35
414.26	2438.84
414.45	2525.44
414.64	2422.45
414.83	2523.10
415.02	2581.61
415.22	2551.18
415.41	2633.10
415.60	2649.49
415.79	2579.27
415.98	2736.09
416.17	2600.34
416.36	2708.00
416.55	2780.56
416.74	2600.34
416.93	2616.72
417.12	2806.30
417.31	2782.90
417.50	2780.56
417.69	2974.82
417.88	2855.45
418.07	2801.62
418.26	2789.92
418.45	2789.92
418.64	3042.70
418.83	2956.10
419.02	3075.46
419.21	3014.61
419.39	3045.04
419.58	3023.97
419.77	2963.12
419.96	3084.83
420.15	3178.45
420.34	3075.46
420.53	2977.16
420.72	3119.93
420.91	3063.76
421.10	3176.11
421.29	3094.19
421.48	3166.74
421.67	3185.47
421.86	3283.77
422.05	3302.50
422.24	3155.04
422.43	3449.95
422.61	3281.43
422.80	3300.16
422.99	3227.60
423.18	3358.67
423.37	3344.63
423.56	3391.44
423.75	3400.80
423.94	3227.60
424.13	3063.76
424.32	3206.53
424.50	3260.37
424.69	3316.54
424.88	3492.08
425.07	3426.54
425.26	3295.47
425.45	3468.67
425.64	3421.86
425.83	3358.67
426.01	3335.26
426.20	3377.39
426.39	3358.67
426.58	3363.35
426.77	3377.39
426.96	3403.14
427.15	3389.10
427.33	3438.25
427.52	3473.36
427.71	3400.80
427.90	3562.30
428.09	3648.90
428.28	3625.49
428.46	3550.59
428.65	3552.93
428.84	3730.81
429.03	3747.20
429.22	3609.11
429.40	3695.71
429.59	3662.94
429.78	3684.00
429.97	3529.53
430.16	3655.92
430.34	3756.56
430.53	3864.22
430.72	3904.01
430.91	3763.58
431.10	3667.62
431.28	3955.51
431.47	3974.23
431.66	3864.22
431.85	3896.99
432.03	3988.27
432.22	3922.74
432.41	3859.54
432.60	3962.53
432.79	3899.33
432.97	3819.75
433.16	3997.64
433.35	3932.10
433.54	4002.32
433.72	4070.19
433.91	4105.30
434.10	3974.23
434.28	4042.11
434.47	4245.73
434.66	4348.72
434.85	4196.58
435.03	4280.84
435.22	4238.71
435.41	4154.45
435.59	4227.01
435.78	4208.28
435.97	4444.68
436.16	4135.73
436.34	4273.82
436.53	4315.95
436.72	4440.00
436.90	4285.52
437.09	4250.41
437.28	4428.29
437.46	4402.55
437.65	4318.29
437.84	4603.83
438.02	4402.55
438.21	4662.35
438.40	4447.02
438.58	4568.73
438.77	4645.96
438.96	4627.24
439.14	4734.90
439.33	4667.03
439.52	4774.69
439.70	4833.21
439.89	4767.67
440.08	4835.55
440.26	4912.78
440.45	4748.95
440.63	5022.79
440.82	5088.32
441.01	4922.15
441.19	5130.45
441.38	5139.82
441.57	4922.15
441.75	5153.86
441.94	5233.44
442.12	5488.56
442.31	5256.84
442.50	5366.85
442.68	5371.53
442.87	5305.99
443.05	5378.55
443.24	5472.17
443.43	5359.83
443.61	5362.17
443.80	5511.96
443.98	5380.89
444.17	5191.31
444.35	5554.09
444.54	5455.79
444.73	5451.11
444.91	5462.81
445.10	5565.79
445.28	5432.38
445.47	5488.56
445.65	5481.53
445.84	5526.00
446.02	5432.38
446.21	5619.63
446.39	5568.13
446.58	5687.50
446.77	5671.12
446.95	5474.51
447.14	5465.15
447.32	5652.39
447.51	5582.18
447.69	5572.82
447.88	5708.57
448.06	5589.20
448.25	5633.67
448.43	5643.03
448.62	5582.18
448.80	5614.95
448.99	5561.11
449.17	5802.19
449.36	5717.93
449.54	5689.84
449.73	5994.11
449.91	5825.59
450.10	5982.41
450.28	5956.66
450.46	5928.58
450.65	6003.47
450.83	5977.73
451.02	5980.07
451.20	5982.41
451.39	5839.64
451.57	6045.60
451.76	5937.94
451.94	5893.47
452.13	6061.99
452.31	6057.31
452.49	6047.94
452.68	6244.55
452.86	6122.84
453.05	6171.99
453.23	6326.47
453.42	6003.47
453.60	5975.39
453.78	6141.57
453.97	6267.95
454.15	6232.85
454.34	6057.31
454.52	6214.12
454.70	6490.31
454.89	6326.47
455.07	6319.45
455.26	6523.07
455.44	6534.78
455.62	6417.75
455.81	6502.01
455.99	6427.11
456.17	6396.68
456.36	6565.20
456.54	6677.55
456.73	6862.45
456.91	6923.30
457.09	6820.32
457.28	6827.34
457.46	6715.00
457.64	6754.79
457.83	6904.58
458.01	6780.53
458.19	7159.70
458.38	6832.02
458.56	6944.37
458.74	7007.56
458.93	7122.25
459.11	7082.46
459.29	6935.01
459.48	7173.74
459.66	7250.98
459.84	7290.77
460.03	7080.12
460.21	7143.32
460.39	7005.22
460.57	7073.10
460.76	7297.79
460.94	7206.51
461.12	7470.99
461.31	7269.70
461.49	7222.89
461.67	7316.51
461.85	7564.61
462.04	7485.03
462.22	7824.41
462.40	7653.55
462.59	7400.77
462.77	7527.16
462.95	7545.89
463.13	7688.66
463.32	7566.95
463.50	7655.89
463.68	7674.62
463.86	7793.98
464.05	7613.76
464.23	7761.22
464.41	7934.42
464.59	7866.54
464.78	7791.64
464.96	7728.45
465.14	7843.14
465.32	7754.19
465.50	7985.91
465.69	7964.84
465.87	7978.89
466.05	7892.29
466.23	8107.62
466.41	7845.48
466.60	8138.04
466.78	7861.86
466.96	8084.21
467.14	7843.14
467.32	8042.08
467.51	8088.89
467.69	8072.51
467.87	8021.02
468.05	8210.60
468.23	8072.51
468.41	8121.66
468.60	8194.22
468.78	8332.31
468.96	8037.40
469.14	8231.66
469.32	8276.13
469.50	8269.11
469.69	8528.91
469.87	8341.67
470.05	8587.43
470.23	8613.17
470.41	8641.26
470.59	8631.90
470.77	8737.22
470.95	8645.94
471.14	8706.79
471.32	8655.30
471.50	8854.25
471.68	8863.61
471.86	8793.39
472.04	8901.06
472.22	9018.08
472.40	8926.80
472.58	8891.70
472.77	8954.89
472.95	9107.02
473.13	9401.93
473.31	9057.87
473.49	9259.16
473.67	9167.88
473.85	9296.61
474.03	9563.43
474.21	9390.23
474.39	9312.99
474.57	9451.08
474.75	9729.61
474.93	9687.48
475.12	9500.23
475.30	9706.20
475.48	9652.37
475.66	9888.76
475.84	9863.02
476.02	9912.17
476.20	9853.66
476.38	10354.53
476.56	10368.57
476.74	10293.68
476.92	10188.35
477.10	9998.77
477.28	10492.62
477.46	10530.07
477.64	10689.23
477.82	10956.05
478.00	10759.44
478.18	10719.65
478.36	10813.28
478.54	10963.07
478.72	10740.72
478.90	11077.76
479.08	11159.67
479.26	11288.40
479.44	11426.50
479.62	11740.13
479.80	11674.59
479.98	11669.91
480.16	11997.59
480.34	11756.51
480.52	11808.00
480.70	11880.56
480.88	11967.16
481.06	12044.40
481.24	11903.96
481.41	12138.02
481.59	12346.33
481.77	12470.37
481.95	12390.80
482.13	12517.18
482.31	12629.53
482.49	12936.14
482.67	13018.06
482.85	13025.08
483.03	13181.90
483.21	13207.64
483.39	13432.33
483.57	13296.58
483.74	13565.74
483.92	13645.32
484.10	13591.49
484.28	13928.53
484.46	14181.31
484.64	14314.72
484.82	14288.97
485.00	14354.51
485.18	14188.33
485.35	14480.89
485.53	14600.26
485.71	14930.28
485.89	14981.77
486.07	14874.10
486.25	14831.97
486.43	15059.01
486.61	15044.96
486.78	15300.08
486.96	15421.79
487.14	15672.23
487.32	15833.72
487.50	15728.40
487.68	15899.26
487.85	16140.33
488.03	16465.67
488.21	16634.19
488.39	16526.52
488.57	16470.35
488.75	16830.79
488.92	16823.77
489.10	17177.19
489.28	17259.11
489.46	17366.78
489.64	17158.47
489.81	17715.51
489.99	17507.21
490.17	17738.92
490.35	17996.38
490.53	17767.01
490.70	18052.55
490.88	18040.85
491.06	18380.23
491.24	18302.99
491.41	18384.91
491.59	18649.39
491.77	18590.88
491.95	18948.98
492.13	19164.31
492.30	19187.71
492.48	19171.33
492.66	19260.27
492.84	19307.08
493.01	19711.99
493.19	19461.55
493.37	19557.52
493.54	19676.88
493.72	19988.18
493.90	20086.48
494.08	20222.23
494.25	20549.90
494.43	20435.22
494.61	20416.49
494.79	20603.74
494.96	20350.96
495.14	20697.36
495.32	21195.89
495.49	21123.33
495.67	21366.75
495.85	21200.57
496.02	21324.62
496.20	21584.42
496.38	21593.78
496.55	21593.78
496.73	22370.84
496.91	21771.66
497.09	22352.12
497.26	22284.24
497.44	22462.12
497.62	22295.94
497.79	22558.08
497.97	22443.40
498.14	23005.13
498.32	22642.34
498.50	22724.26
498.67	23372.59
498.85	23154.92
499.03	23351.52
499.20	23281.31
499.38	23278.97
499.56	23353.87
499.73	23838.36
499.91	23625.37
500.08	24266.67
500.26	23838.36
500.44	23761.12
500.61	24081.77
500.79	24196.46
500.97	24194.12
501.14	24526.47
501.32	24339.23
501.49	24414.13
501.67	24837.76
501.84	24683.29
502.02	24863.51
502.20	24922.02
502.37	24730.10
502.55	24961.81
502.72	25064.80
502.90	25116.29
503.07	25006.28
503.25	25502.48
503.43	25301.19
503.60	25483.75
503.78	26036.12
503.95	25663.97
504.13	26141.44
504.30	25902.71
504.48	25773.98
504.65	25872.28
504.83	26228.04
505.01	26396.56
505.18	26349.75
505.36	26630.62
505.53	26391.88
505.71	26635.30
505.88	26628.27
506.06	26419.97
506.23	26986.38
506.41	26857.65
506.58	27042.55
506.76	26883.39
506.93	26993.40
507.11	27084.68
507.28	27262.56
507.46	27594.92
507.63	27651.09
507.81	27517.68
507.98	27520.02
508.16	27758.75
508.33	27899.19
508.50	27981.10
508.68	27758.75
508.85	28219.84
509.03	28044.30
509.20	28339.21
509.38	28451.55
509.55	28517.09
509.73	28666.88
509.90	28594.32
510.08	28271.33
510.25	28889.23
510.42	28669.22
510.60	29050.73
510.77	28959.45
510.95	29062.43
511.12	28786.25
511.30	28994.56
511.47	29198.18
511.64	29195.84
511.82	29516.50
511.99	29479.05
512.17	29804.38
512.34	29296.49
512.51	29649.91
512.69	29846.51
512.86	30024.39
513.04	29937.79
513.21	29820.77
513.38	30038.44
513.56	29940.13
513.73	30096.95
513.90	29989.28
514.08	30150.78
514.25	30396.54
514.43	30373.13
514.60	30738.26
514.77	30459.73
514.95	31012.10
515.12	30955.93
515.29	30862.30
515.47	31419.35
515.64	31412.33
515.81	30991.03
515.99	31328.07
516.16	31508.29
516.33	31594.89
516.51	30930.18
516.68	31463.82
516.85	31489.57
517.03	31545.74
517.20	31405.31
517.37	31873.42
517.54	31775.11
517.72	31728.30
517.89	31763.41
518.06	32133.21
518.24	31538.72
518.41	31718.94
518.58	32325.14
518.75	32264.28
518.93	32236.20
519.10	32268.97
519.27	32343.86
519.45	32723.03
519.62	32723.03
519.79	32545.15
519.96	32842.40
520.14	32793.25
520.31	32465.57
520.48	33191.14
520.65	33301.14
520.83	33432.21
521.00	33607.75
521.17	33141.99
521.34	33366.68
521.52	33205.18
521.69	33460.30
521.86	33886.28
522.03	33888.62
522.20	33979.90
522.38	34281.83
522.55	33684.99
522.72	33940.11
522.89	34127.35
523.07	34572.05
523.24	34029.05
523.41	34565.03
523.58	34061.82
523.75	34684.40
523.92	34246.72
524.10	34515.88
524.27	34658.65
524.44	34691.42
524.61	34899.73
524.78	34349.70
524.96	35056.54
525.13	35143.14
525.30	34986.33
525.47	35037.82
525.64	35173.57
525.81	35353.79
525.98	35412.31
526.16	35171.23
526.33	34766.32
526.50	35697.85
526.67	35353.79
526.84	35590.19
527.01	35601.89
527.18	35524.65
527.36	36105.10
527.53	35974.03
527.70	36308.73
527.87	36292.35
528.04	36018.50
528.21	36137.87
528.38	35739.98
528.55	36053.61
528.72	36004.46
528.89	36278.30
529.07	36252.56
529.24	35941.27
529.41	36285.33
529.58	36341.50
529.75	36151.91
529.92	36444.48
530.09	36432.78
530.26	36900.89
530.43	36566.19
530.60	36575.55
530.77	36613.00
530.94	36931.31
531.11	36577.89
531.28	36521.72
531.46	36854.08
531.63	37266.01
531.80	36882.16
531.97	37296.44
532.14	37062.38
532.31	37336.23
532.48	37422.83
532.65	37319.84
532.82	37560.92
532.99	37731.78
533.16	37270.69
533.33	37546.87
533.50	37848.80
533.67	37703.69
533.84	37308.14
534.01	38106.26
534.18	37631.13
534.35	37593.68
534.52	37919.02
534.69	38352.02
534.86	38398.83
535.03	37972.85
535.20	38330.95
535.37	38410.53
535.54	38265.42
535.71	38352.02
535.88	38469.04
536.05	38363.72
536.22	38487.77
536.38	38728.84
536.55	38295.85
536.72	38464.36
536.89	38405.85
537.06	38646.93
537.23	39119.71
537.40	38637.56
537.57	38529.90
537.74	38646.93
537.91	39243.76
538.08	38801.40
538.25	38635.22
538.42	38581.39
538.59	38965.24
538.75	39068.22
538.92	39409.94
539.09	39803.15
539.26	39093.97
539.43	39346.75
539.60	39538.67
539.77	39182.91
539.94	39746.98
540.11	39384.19
540.28	39803.15
540.44	39707.19
540.61	39477.82
540.78	39770.38
540.95	39707.19
541.12	39683.78
541.29	39620.59
541.46	39688.46
541.62	40126.14
541.79	39981.03
541.96	39496.54
542.13	40133.17
542.30	39936.56
542.47	39924.86
542.63	40250.19
542.80	40402.33
542.97	40657.45
543.14	41141.94
543.31	40416.37
543.48	40664.47
543.64	40835.33
543.81	41282.37
543.98	40657.45
544.15	40872.78
544.32	41144.28
544.48	41102.15
544.65	41099.81
544.82	40884.48
544.99	40917.25
545.16	41017.89
545.32	41179.39
545.49	41404.08
545.66	41530.47
545.83	41474.29
546.00	41530.47
546.16	41411.10
546.33	41102.15
546.50	41471.95
546.67	41656.85
546.83	41294.07
547.00	41319.82
547.17	41680.26
547.34	41315.14
547.50	41551.53
547.67	42005.59
547.84	41853.46
548.00	42014.96
548.17	42361.36
548.34	41965.81
548.51	42223.26
548.67	41888.57
548.84	42148.37
549.01	42082.83
549.18	42113.26
549.34	42141.35
549.51	42572.00
549.68	42497.11
549.84	42202.20
550.01	42103.90
550.18	41921.34
550.34	42518.17
550.51	42550.94
550.68	42632.86
550.84	42209.22
551.01	42529.87
551.18	42546.26
551.34	42478.38
551.51	42686.69
551.68	42513.49
551.84	42457.32
552.01	42588.39
552.18	42588.39
552.34	42548.60
552.51	42674.99
552.68	42394.12
552.84	42911.38
553.01	42878.61
553.18	42866.91
553.34	42916.06
553.51	42583.71
553.67	43047.13
553.84	43463.75
554.01	43248.42
554.17	42841.17
554.34	43360.76
554.51	43477.79
554.67	43299.91
554.84	43416.94
555.00	43299.91
555.17	43070.54
555.33	43707.16
555.50	43290.55
555.67	43821.85
555.83	43690.78
556.00	43564.39
556.16	44247.83
556.33	43927.17
556.50	43517.58
556.66	43466.09
556.83	43372.47
556.99	44055.90
557.16	43973.98
557.32	43962.28
557.49	44140.16
557.65	43765.68
557.82	44086.33
557.98	43545.67
558.15	43810.15
558.32	43863.98
558.48	43749.29
558.65	43571.41
558.81	43573.75
558.98	43686.10
559.14	43782.06
559.31	43854.62
559.47	44346.13
559.64	43995.05
559.80	44158.89
559.97	43992.71
560.13	44098.03
560.30	44329.75
560.46	44168.25
560.63	44374.22
560.79	44423.37
560.96	44526.35
561.12	44559.12
561.29	44526.35
561.45	44673.81
561.61	44601.25
561.78	44289.96
561.94	44032.50
562.11	44135.48
562.27	44495.92
562.44	44701.89
562.60	44790.83
562.77	44720.62
562.93	44165.91
563.10	44526.35
563.26	44596.57
563.42	44851.69
563.59	44622.31
563.75	44596.57
563.92	44399.96
564.08	44708.91
564.24	44524.01
564.41	44533.37
564.57	44519.33
564.74	45167.66
564.90	44505.29
565.07	44428.05
565.23	44643.38
565.39	44729.98
565.56	44844.66
565.72	44662.10
565.88	44947.65
566.05	44863.39
566.21	44811.90
566.38	45048.29
566.54	44968.71
566.70	45223.83
566.87	45134.89
567.03	44966.37
567.19	45020.20
567.36	44985.10
567.52	45221.49
567.68	45429.80
567.85	44821.26
568.01	44994.46
568.17	44987.44
568.34	44793.17
568.50	45542.14
568.66	44968.71
568.83	45277.66
568.99	44989.78
569.15	45272.98
569.32	45270.64
569.48	45111.49
569.64	45684.92
569.81	45221.49
569.97	45539.80
570.13	45380.65
570.30	44966.37
570.46	45324.47
570.62	45593.64
570.78	45141.91
570.95	45455.54
571.11	45687.26
571.27	45181.70
571.43	45076.38
571.60	45022.54
571.76	45411.07
571.92	45291.71
572.09	45457.88
572.25	45268.30
572.41	45476.61
572.57	45394.69
572.74	45890.88
572.90	45148.93
573.06	45553.85
573.22	45462.57
573.38	45661.51
573.55	46045.36
573.71	45989.19
573.87	45764.49
574.03	45659.17
574.20	45977.48
574.36	45605.34
574.52	45598.32
574.68	45652.15
574.84	45565.55
575.01	45869.82
575.17	45839.39
575.33	45420.44
575.49	45680.24
575.65	46169.41
575.82	46045.36
575.98	45537.46
576.14	45790.24
576.30	45595.98
576.46	45698.96
576.62	45741.09
576.79	45720.02
576.95	45478.95
577.11	45879.18
577.27	45815.99
577.43	45841.73
577.59	45881.52
577.75	45656.83
577.92	45404.05
578.08	45872.16
578.24	45785.56
578.40	46117.92
578.56	45684.92
578.72	46209.20
578.88	45982.16
579.04	46040.68
579.21	46094.51
579.37	46094.51
579.53	45977.48
579.69	45551.51
579.85	45708.32
580.01	45872.16
580.17	45741.09
580.33	46028.98
580.49	46061.74
580.65	45951.74
580.82	46010.25
580.98	46415.16
581.14	45464.91
581.30	46176.43
581.46	45921.31
581.62	46007.91
581.78	45925.99
581.94	46302.82
582.10	46263.03
582.26	46382.40
582.42	46005.57
582.58	46307.50
582.74	46085.15
582.90	46068.76
583.06	45799.60
583.22	45982.16
583.38	46155.36
583.54	46227.92
583.70	46127.28
583.86	46120.26
584.02	45537.46
584.18	46277.07
584.34	46106.21
584.50	46284.09
584.66	46223.24
584.82	46054.72
584.98	46190.47
585.14	46412.82
585.30	46195.15
585.46	46300.48
585.62	45911.95
585.78	46120.26
585.94	45965.78
586.10	46068.76
586.26	45787.90
586.42	45907.27
586.58	46253.67
586.74	45930.67
586.90	46216.22
587.06	45705.98
587.22	46366.01
587.38	46033.66
587.54	46197.49
587.70	46272.39
587.86	45979.82
588.02	46241.96
588.18	46040.68
588.34	45930.67
588.49	46349.63
588.65	46028.98
588.81	46162.39
588.97	46485.38
589.13	45804.28
589.29	46190.47
589.45	46611.77
589.61	46108.55
589.77	46471.34
589.93	46241.96
590.08	46483.04
590.24	46630.49
590.40	46817.74
590.56	46623.47
590.72	46834.12
590.88	46356.65
591.04	46501.76
591.20	46546.23
591.35	46796.67
591.51	46988.60
591.67	46579.00
591.83	47007.32
591.99	46595.38
592.15	46106.21
592.31	46983.91
592.46	46316.86
592.62	46698.37
592.78	46930.08
592.94	46838.80
593.10	46604.75
593.26	46883.27
593.41	46944.12
593.57	46340.27
593.73	46660.92
593.89	46939.44
594.05	46897.31
594.20	46705.39
594.36	46616.45
594.52	47103.28
594.68	46693.69
594.84	46850.50
594.99	46897.31
595.15	47021.36
595.31	46731.14
595.47	46653.90
595.62	46543.89
595.78	46703.05
595.94	47030.72
596.10	46930.08
596.25	47241.37
596.41	47098.60
596.57	46679.64
596.73	47173.50
596.88	47075.19
597.04	46941.78
597.20	47058.81
597.36	46904.34
597.51	47016.68
597.67	46740.50
597.83	47058.81
597.99	46859.87
598.14	46532.19
598.30	46639.86
598.46	46618.79
598.61	46899.65
598.77	46976.89
598.93	46904.34
599.09	47028.38
599.24	47538.62
599.40	46806.03
599.56	47374.78
599.71	47498.83
599.87	47250.74
600.03	47276.48
600.18	47077.54
600.34	47318.61
600.50	47122.01
600.65	46642.20
600.81	47126.69
600.97	47136.05
601.12	47145.41
601.28	47243.71
601.44	46904.34
601.59	47000.30
601.75	47091.58
601.91	46831.78
602.06	47100.94
602.22	46990.94
602.37	47082.22
602.53	47353.72
602.69	47168.82
602.84	46887.95
603.00	46763.90
603.16	47152.43
603.31	46836.46
603.47	47292.86
603.62	46960.51
603.78	47180.52
603.94	47161.79
604.09	47040.09
604.25	46808.37
604.40	46934.76
604.56	47112.64
604.71	47234.35
604.87	46911.36
605.03	46602.41
605.18	47037.75
605.34	46759.22
605.49	46831.78
605.65	47374.78
605.80	46803.69
605.96	46852.84
606.12	47114.98
606.27	47217.97
606.43	46857.52
606.58	46691.35
606.74	46934.76
606.89	47260.10
607.05	47185.20
607.20	46979.23
607.36	46981.57
607.51	46972.21
607.67	46586.02
607.82	46349.63
607.98	46681.98
608.13	47058.81
608.29	46934.76
608.44	46827.10
608.60	46366.01
608.75	46501.76
608.91	46520.49
609.06	46160.05
609.22	47271.80
609.37	46178.77
609.53	46883.27
609.68	46848.16
609.84	46887.95
609.99	46649.22
610.15	46724.11
610.30	47028.38
610.46	46440.91
610.61	46939.44
610.76	46742.84
610.92	46092.17
611.07	46698.37
611.23	46227.92
611.38	46571.98
611.54	46478.36
611.69	46869.23
611.84	46590.70
612.00	46380.06
612.15	46246.65
612.31	47166.48
612.46	46309.84
612.62	46387.08
612.77	46534.53
612.92	46459.63
613.08	46288.77
613.23	46492.40
613.39	46291.12
613.54	46373.03
613.69	46373.03
613.85	46103.87
614.00	46153.02
614.15	46855.18
614.31	45855.78
614.46	46452.61
614.62	46040.68
614.77	46525.17
614.92	46576.66
615.08	46286.43
615.23	45888.54
615.38	46939.44
615.54	45993.87
615.69	46571.98
615.84	45989.19
616.00	46270.05
616.15	46099.19
616.30	46298.14
616.46	46171.75
616.61	45998.55
616.76	46337.93
616.92	45970.46
617.07	46157.70
617.22	45918.97
617.37	45675.55
617.53	46134.30
617.68	45722.37
617.83	45738.75
617.99	46223.24
618.14	46248.99
618.29	45790.24
618.45	45357.24
618.60	45724.71
618.75	45584.27
618.90	45769.18
619.06	45687.26
619.21	45925.99
619.36	46099.19
619.51	45471.93
619.67	45460.23
619.82	46141.32
619.97	46192.81
620.12	46057.06
620.28	45893.22
620.43	45996.21
620.58	46078.13
620.73	45652.15
620.89	45933.01
621.04	45865.14
621.19	45380.65
621.34	45539.80
621.49	45731.73
621.65	45722.37
621.80	45724.71
621.95	45340.86
622.10	45523.42
622.25	45195.74
622.41	45666.19
622.56	45401.71
622.71	45476.61
622.86	45429.80
623.01	45443.84
623.16	45214.47
623.32	45511.72
623.47	45160.64
623.62	45172.34
623.77	45031.91
623.92	45343.20
624.07	45425.12
624.23	45544.48
624.38	45514.06
624.53	45226.17
624.68	45109.14
624.83	45195.74
624.98	45347.88
625.13	44598.91
625.29	45008.50
625.44	44910.20
625.59	44779.13
625.74	44926.58
625.89	44713.59
626.04	44418.69
626.19	44868.07
626.34	45230.85
626.49	44851.69
626.65	44388.26
626.80	44629.34
626.95	44308.68
627.10	44245.49
627.25	44973.39
627.40	44814.24
627.55	44732.32
627.70	44460.82
627.85	44823.60
628.00	44549.76
628.15	44278.25
628.30	43859.30
628.45	43929.51
628.60	44086.33
628.76	44535.71
628.91	44753.38
629.06	44191.65
629.21	44016.11
629.36	44378.90
629.51	44060.58
629.66	44371.88
629.81	43969.30
629.96	44191.65
630.11	44034.84
630.26	43882.70
630.41	44201.02
630.56	43976.33
630.71	44247.83
630.86	43999.73
631.01	43800.79
631.16	43620.56
631.31	43875.68
631.46	43737.59
631.61	44016.11
631.76	43910.79
631.91	44163.57
632.06	44296.98
632.21	44392.94
632.36	44304.00
632.51	43051.81
632.66	43805.47
632.81	43971.64
632.96	43969.30
633.10	43796.10
633.25	43746.95
633.40	43981.01
633.55	44135.48
633.70	43346.72
633.85	43217.99
634.00	43063.52
634.15	43306.93
634.30	43625.25
634.45	43814.83
634.60	43597.16
634.75	43580.78
634.90	43667.37
635.05	43519.92
635.19	43548.01
635.34	43775.04
635.49	43929.51
635.64	43585.46
635.79	43538.65
635.94	43863.98
636.09	43133.73
636.24	43459.07
636.39	43103.31
636.53	42923.08
636.68	42997.98
636.83	43107.99
636.98	42906.70
637.13	42834.14
637.28	42752.23
637.43	42770.95
637.57	43342.04
637.72	42562.64
637.87	42906.70
638.02	42689.03
638.17	42799.04
638.32	42642.22
638.46	42607.11
638.61	42368.38
638.76	42590.73
638.91	42958.19
639.06	42792.01
639.20	42637.54
639.35	42148.37
639.50	42431.57
639.65	42866.91
639.80	42841.17
639.94	42824.78
640.09	42969.90
640.24	42588.39
640.39	42464.34
640.54	42089.85
640.68	42501.79
640.83	42932.45
640.98	42040.70
641.13	42148.37
641.27	42904.36
641.42	42518.17
641.57	42167.09
641.72	42682.01
641.86	42337.95
642.01	42007.94
642.16	41993.89
642.31	41738.77
642.45	42014.96
642.60	42199.86
642.75	41853.46
642.90	41944.74
643.04	42087.51
643.19	42129.64
643.34	42281.78
643.48	41305.77
643.63	41614.72
643.78	41834.74
643.93	42260.71
644.07	41862.82
644.22	41944.74
644.37	42131.98
644.51	42139.00
644.66	41673.24
644.81	42021.98
644.95	41876.86
645.10	41549.19
645.25	41368.97
645.39	41764.52
645.54	41617.07
645.69	41371.31
645.83	41600.68
645.98	41457.91
646.13	41078.74
646.27	41200.45
646.42	41298.75
646.57	41886.23
646.71	41455.57
646.86	41579.62
647.00	41333.86
647.15	41514.08
647.30	41567.91
647.44	41537.49
647.59	41324.50
647.74	41574.94
647.88	41691.96
648.03	41380.67
648.17	41542.17
648.32	41523.44
648.47	41507.06
648.61	41024.91
648.76	41188.75
648.90	41385.35
649.05	41104.49
649.20	40816.60
649.34	41432.16
649.49	41706.01
649.63	41177.04
649.78	41263.64
649.92	40772.13
650.07	41270.67
650.21	41448.55
650.36	41375.99
650.51	40889.16
650.65	41265.99
650.80	41184.07
650.94	40877.46
651.09	40762.77
651.23	40589.57
651.38	40776.81
651.52	40594.25
651.67	40800.22
651.81	40437.44
651.96	40500.63
652.10	40453.82
652.25	40353.18
652.39	40730.00
652.54	40608.29
652.68	40383.60
652.83	40432.75
652.97	40720.64
653.12	40842.35
653.26	40627.02
653.41	40662.13
653.55	40423.39
653.70	40718.30
653.84	40444.46
653.99	40720.64
654.13	40367.22
654.27	40144.87
654.42	39819.53
654.56	40081.67
654.71	40048.91
654.85	40032.52
655.00	40430.41
655.14	40217.43
655.29	40509.99
655.43	40451.48
655.57	39730.59
655.72	40086.36
655.86	39962.31
656.01	39735.27
656.15	39494.20
656.30	40116.78
656.44	39737.62
656.58	40004.44
656.73	40102.74
656.87	39358.45
657.01	39161.84
657.16	39838.26
657.30	39819.53
657.45	39739.96
657.59	39700.17
657.73	39344.41
657.88	39379.51
658.02	39901.45
658.16	39840.60
658.31	39381.85
658.45	39358.45
658.60	39271.85
658.74	39498.88
658.88	39335.04
659.03	39072.90
659.17	39187.59
659.31	38768.63
659.46	39047.16
659.60	39278.87
659.74	38918.43
659.89	38990.98
660.03	38511.17
660.17	38993.32
660.32	39173.55
660.46	38782.68
660.60	38604.80
660.74	38754.59
660.89	38848.21
661.03	38164.78
661.17	38342.66
661.32	38778.00
661.46	38637.56
661.60	38565.01
661.74	38447.98
661.89	38270.10
662.03	38361.38
662.17	37860.51
662.31	38429.26
662.46	38391.81
662.60	38061.79
662.74	37677.94
662.88	37895.61
663.03	37598.37
663.17	38129.67
663.31	37865.19
663.45	38033.71
663.60	38026.68
663.74	37507.08
663.88	37816.04
664.02	37422.83
664.17	37972.85
664.31	37057.70
664.45	37408.78
664.59	37528.15
664.73	37153.66
664.88	37165.37
665.02	37113.87
665.16	37078.77
665.30	37151.32
665.44	37244.94
665.59	37139.62
665.73	37015.57
665.87	36524.06
666.01	36811.95
666.15	36783.86
666.29	36891.52
666.44	37230.90
666.58	36783.86
666.72	36414.05
666.86	36500.65
667.00	36512.36
667.14	36470.23
667.28	36748.75
667.43	36680.88
667.57	35929.56
667.71	36442.14
667.85	36875.14
667.99	36109.78
668.13	35826.58
668.27	35981.06
668.41	35864.03
668.56	35346.77
668.70	35913.18
668.84	35515.29
668.98	35725.94
669.12	35548.06
669.26	35269.53
669.40	35550.40
669.54	35688.49
669.68	35196.98
669.82	35168.89
669.96	35047.18
670.10	34904.41
670.25	34668.02
670.39	34976.97
670.53	35311.66
670.67	34813.13
670.81	35255.49
670.95	35131.44
671.09	35075.27
671.23	34794.40
671.37	34939.52
671.51	34660.99
671.65	34632.91
671.79	34293.53
671.93	34550.99
672.07	34752.27
672.21	34499.50
672.35	34164.80
672.49	34394.17
672.63	34286.51
672.77	33673.29
672.91	34431.62
673.05	34108.63
673.19	33881.60
673.33	33830.10
673.47	33724.78
673.61	33364.34
673.75	32957.08
673.89	33362.00
674.03	33048.36
674.17	32959.42
674.31	33383.06
674.45	32631.75
674.59	33172.41
674.73	33102.20
674.87	32765.16
675.01	32781.54
675.15	32196.41
675.29	32336.84
675.43	32594.30
675.56	32594.30
675.70	32666.86
675.84	32173.00
675.98	31061.25
676.12	32236.20
676.26	32477.27
676.40	31983.42
676.54	31358.50
676.68	31424.03
676.82	31428.71
676.96	31723.62
677.10	31625.32
677.23	31435.74
677.37	31199.34
677.51	31075.29
677.65	31002.74
677.79	31023.80
677.93	31087.00
678.07	31056.57
678.21	30927.84
678.34	30712.51
678.48	30511.22
678.62	30319.30
678.76	30321.64
678.90	30352.07
679.04	30331.00
679.18	30302.92
679.31	30038.44
679.45	29628.84
679.59	29783.32
679.73	30242.06
679.87	29521.18
680.00	29682.67
680.14	29659.27
680.28	29493.09
680.42	29118.60
680.56	29411.17
680.70	29041.37
680.83	28926.68
680.97	28657.52
681.11	29053.07
681.25	28231.54
681.39	28339.21
681.52	28547.51
681.66	27936.63
681.80	28135.58
681.94	27955.36
682.07	28093.45
682.21	27711.94
682.35	27997.49
682.49	27711.94
682.62	27473.21
682.76	27438.10
682.90	27786.84
683.04	27454.48
683.17	27529.38
683.31	27335.12
683.45	27154.90
683.59	27035.53
683.72	26916.16
683.86	26328.69
684.00	26810.84
684.13	26834.24
684.27	26457.42
684.41	26483.16
684.55	26586.15
684.68	26450.39
684.82	25975.27
684.96	26036.12
685.09	25958.88
685.23	25968.24
685.37	26340.39
685.50	26122.72
685.64	25949.52
685.78	25715.47
685.91	25556.31
686.05	25127.99
686.19	25127.99
686.32	24961.81
686.46	24526.47
686.60	24662.22
686.73	25046.07
686.87	25041.39
687.01	24907.98
687.14	24877.55
687.28	24491.37
687.42	24470.30
687.55	24587.33
687.69	24362.64
687.82	24034.96
687.96	23908.57
688.10	24231.57
688.23	23847.72
688.37	24114.54
688.50	24226.89
688.64	23562.17
688.78	23545.79
688.91	23723.67
689.05	23400.68
689.18	23445.15
689.32	23028.53
689.46	22862.35
689.59	22958.31
689.73	23115.13
689.86	23140.88
690.00	22874.06
690.13	22998.10
690.27	22244.45
690.41	22752.35
690.54	22696.17
690.68	22380.20
690.81	22235.09
690.95	22214.02
691.08	22190.62
691.22	21717.83
691.35	21804.43
691.49	22176.58
691.62	22005.72
691.76	21495.48
691.89	21277.81
692.03	21256.75
692.16	20903.32
692.30	21404.20
692.43	21200.57
692.57	20856.51
692.70	20830.77
692.84	21041.42
692.97	20580.33
693.11	20875.24
693.24	20386.07
693.38	20271.38
693.51	20126.27
693.65	20135.63
693.78	20240.95
693.92	20233.93
694.05	20070.09
694.19	20070.09
694.32	19716.67
694.45	20016.26
694.59	20189.46
694.72	19829.02
694.86	19585.60
694.99	19506.02
695.13	19552.84
695.26	19002.81
695.39	19145.58
695.53	19080.05
695.66	19094.09
695.80	18703.22
695.93	19087.07
696.07	18459.81
696.20	18689.18
696.33	18513.64
696.47	18368.52
696.60	18085.32
696.73	18265.54
696.87	18099.36
697.00	18377.89
697.14	18281.92
697.27	17776.37
697.40	17961.27
697.54	17919.14
697.67	17923.82
697.80	17900.42
697.94	17792.75
698.07	17532.95
698.21	17593.81
698.34	17427.63
698.47	17411.25
698.61	16947.82
698.74	17121.02
698.87	17071.87
699.01	16737.17
699.14	16901.01
699.27	17158.47
699.40	16709.08
699.54	16578.01
699.67	16638.87
699.80	16453.97
699.94	16460.99
700.07	16727.81
700.20	16760.58
700.34	16098.20
700.47	16126.29
700.60	16231.62
700.73	16259.70
700.87	15983.52
701.00	15805.64
701.13	15630.10
701.26	15578.61
701.40	15555.20
701.53	15337.53
701.66	15419.45
701.79	15580.95
701.93	15009.86
702.06	14766.44
702.19	15363.28
702.32	15108.16
702.46	15087.09
702.59	15089.43
702.72	15140.93
702.85	14831.97
702.99	14864.74
703.12	14768.78
703.25	14750.06
703.38	14560.47
703.51	14558.13
703.65	14401.32
703.78	14139.18
703.91	13994.06
704.04	14171.94
704.17	13912.14
704.31	13811.50
704.44	13998.74
704.57	13624.26
704.70	13783.41
704.83	13678.09
704.96	13795.12
705.10	13341.05
705.23	13488.51
>>>>>End Processed Spectral Data<<<<<
