SpectraSuite Data File
++++++++++++++++++++++++++++++++++++
Date: Fri Oct 25 10:47:14 EDT 2013
User: price-jones
Dark Spectrum Present: No
Reference Spectrum Present: No
Number of Sampled Component Spectra: 1
Spectrometers: USB2+H05261
Integration Time (usec): 100000 (USB2+H05261)
Spectra Averaged: 1 (USB2+H05261)
Boxcar Smoothing: 0 (USB2+H05261)
Correct for Electrical Dark: No (USB2+H05261)
Strobe/Lamp Enabled: No (USB2+H05261)
Correct for Detector Non-linearity: No (USB2+H05261)
Correct for Stray Light: No (USB2+H05261)
Number of Pixels in Processed Spectrum: 2048
>>>>>Begin Processed Spectral Data<<<<<
365.73	86.60
365.92	86.60
366.12	86.60
366.32	95.96
366.52	105.32
366.72	119.37
366.91	0.00
367.11	18.72
367.31	39.79
367.51	84.26
367.70	0.00
367.90	30.43
368.10	60.85
368.30	74.90
368.49	18.72
368.69	86.60
368.89	93.62
369.09	65.54
369.28	110.01
369.48	84.26
369.68	114.69
369.87	121.71
370.07	65.54
370.27	95.96
370.47	175.54
370.66	402.57
370.86	348.74
371.06	472.79
371.25	482.15
371.45	395.55
371.65	416.62
371.84	400.23
372.04	437.68
372.24	433.00
372.44	519.60
372.63	491.51
372.83	491.51
373.03	519.60
373.22	519.60
373.42	540.66
373.62	566.41
373.81	500.87
374.01	599.18
374.21	550.03
374.40	526.62
374.60	521.94
374.79	451.72
374.99	540.66
375.19	498.53
375.38	566.41
375.58	547.69
375.78	507.90
375.97	561.73
376.17	599.18
376.37	615.56
376.56	533.64
376.76	552.37
376.95	575.77
377.15	599.18
377.35	613.22
377.54	566.41
377.74	543.00
377.93	601.52
378.13	592.16
378.33	664.71
378.52	650.67
378.72	543.00
378.91	617.90
379.11	554.71
379.31	653.01
379.50	627.26
379.70	636.63
379.89	641.31
380.09	589.82
380.28	610.88
380.48	641.31
380.68	636.63
380.87	671.73
381.07	636.63
381.26	671.73
381.46	601.52
381.65	631.94
381.85	645.99
382.04	557.05
382.24	678.76
382.43	589.82
382.63	669.39
382.83	699.82
383.02	674.07
383.22	748.97
383.41	634.29
383.61	741.95
383.80	725.57
384.00	741.95
384.19	732.59
384.39	678.76
384.58	770.04
384.78	772.38
384.97	706.84
385.17	758.33
385.36	711.52
385.56	751.31
385.75	777.06
385.95	751.31
386.14	669.39
386.34	753.65
386.53	798.12
386.72	711.52
386.92	767.70
387.11	816.85
387.31	791.10
387.50	716.20
387.70	814.51
387.89	786.42
388.09	856.64
388.28	873.02
388.48	807.48
388.67	877.70
388.86	856.64
389.06	919.83
389.25	863.66
389.45	873.02
389.64	807.48
389.84	891.74
390.03	877.70
390.22	891.74
390.42	957.28
390.61	877.70
390.81	866.00
391.00	943.24
391.19	922.17
391.39	983.02
391.58	936.21
391.78	997.07
391.97	959.62
392.16	903.45
392.36	964.30
392.55	847.27
392.75	952.60
392.94	861.32
393.13	884.72
393.33	968.98
393.52	938.55
393.71	1020.47
393.91	971.32
394.10	978.34
394.29	1018.13
394.49	990.05
394.68	1013.45
394.88	1064.94
395.07	1104.73
395.26	1076.65
395.46	1029.84
395.65	1137.50
395.84	1076.65
396.04	1116.44
396.23	1083.67
396.42	1011.11
396.62	1114.10
396.81	1132.82
397.00	1156.22
397.19	1137.50
397.39	1132.82
397.58	1139.84
397.77	1191.33
397.97	1287.29
398.16	1247.51
398.35	1231.12
398.55	1228.78
398.74	1324.74
398.93	1245.16
399.12	1296.66
399.32	1242.82
399.51	1193.67
399.70	1343.47
399.90	1301.34
400.09	1441.77
400.28	1275.59
400.47	1420.71
400.67	1327.08
400.86	1472.20
401.05	1394.96
401.24	1397.30
401.44	1504.96
401.63	1451.13
401.82	1383.26
402.01	1462.83
402.21	1526.03
402.40	1394.96
402.59	1397.30
402.78	1355.17
402.97	1533.05
403.17	1500.28
403.36	1549.43
403.55	1565.82
403.74	1516.67
403.93	1472.20
404.13	1490.92
404.32	1533.05
404.51	1535.39
404.70	1664.12
404.89	1603.27
405.09	1708.59
405.28	1661.78
405.47	1701.57
405.66	1673.48
405.85	1734.34
406.05	1666.46
406.24	1781.15
406.43	1720.29
406.62	1727.32
406.81	1799.87
407.00	1701.57
407.20	1757.74
407.39	1774.13
407.58	1853.70
407.77	1792.85
407.96	1853.70
408.15	1874.77
408.34	1933.28
408.54	1937.96
408.73	1874.77
408.92	1975.41
409.11	1952.01
409.30	1966.05
409.49	2003.50
409.68	1998.82
409.87	2008.18
410.07	1959.03
410.26	1949.67
410.45	2073.71
410.64	2045.63
410.83	2186.06
411.02	2085.42
411.21	2181.38
411.40	2218.83
411.59	2097.12
411.78	2258.62
411.98	2139.25
412.17	2195.42
412.36	2214.15
412.55	2200.10
412.74	2345.22
412.93	2347.56
413.12	2310.11
413.31	2375.64
413.50	2429.48
413.69	2429.48
413.88	2417.77
414.07	2527.78
414.26	2562.89
414.45	2525.44
414.64	2562.89
414.83	2509.05
415.02	2609.70
415.22	2621.40
415.41	2665.87
415.60	2640.12
415.79	2708.00
415.98	2722.04
416.17	2761.83
416.36	2663.53
416.55	2778.22
416.74	2841.41
416.93	2836.73
417.12	2902.26
417.31	2813.32
417.50	2848.43
417.69	2942.05
417.88	2818.00
418.07	2937.37
418.26	3026.31
418.45	2974.82
418.64	2946.73
418.83	3105.89
419.02	3030.99
419.21	3122.27
419.39	2988.86
419.58	2944.39
419.77	2986.52
419.96	3166.74
420.15	3133.98
420.34	3166.74
420.53	3073.12
420.72	3241.64
420.91	3201.85
421.10	3288.45
421.29	3248.66
421.48	3225.26
421.67	3246.32
421.86	3265.05
422.05	3281.43
422.24	3375.05
422.43	3274.41
422.61	3417.18
422.80	3389.10
422.99	3351.65
423.18	3314.20
423.37	3445.27
423.56	3405.48
423.75	3400.80
423.94	3368.03
424.13	3180.79
424.32	3225.26
424.50	3398.46
424.69	3522.51
424.88	3548.25
425.07	3414.84
425.26	3468.67
425.45	3459.31
425.64	3487.40
425.83	3492.08
426.01	3548.25
426.20	3426.54
426.39	3471.01
426.58	3353.99
426.77	3433.57
426.96	3442.93
427.15	3485.06
427.33	3566.98
427.52	3566.98
427.71	3665.28
427.90	3613.79
428.09	3676.98
428.28	3541.23
428.46	3651.24
428.65	3648.90
428.84	3779.97
429.03	3754.22
429.22	3662.94
429.40	3805.71
429.59	3740.18
429.78	3620.81
429.97	3595.06
430.16	3702.73
430.34	3716.77
430.53	3831.46
430.72	3852.52
430.91	3700.39
431.10	3833.80
431.28	3838.48
431.47	3999.98
431.66	4046.79
431.85	3782.31
432.03	4023.38
432.22	4077.21
432.41	4046.79
432.60	4014.02
432.79	4147.43
432.97	4056.15
433.16	4063.17
433.35	4170.83
433.54	4140.41
433.72	4018.70
433.91	4126.36
434.10	4177.86
434.28	4152.11
434.47	4156.79
434.66	4360.42
434.85	4278.50
435.03	4339.35
435.22	4259.78
435.41	4329.99
435.59	4318.29
435.78	4362.76
435.97	4461.06
436.16	4414.25
436.34	4416.59
436.53	4561.70
436.72	4545.32
436.90	4442.34
437.09	4479.79
437.28	4365.10
437.46	4561.70
437.65	4423.61
437.84	4505.53
438.02	4461.06
438.21	4566.39
438.40	4552.34
438.58	4779.37
438.77	4713.84
438.96	4723.20
439.14	4816.82
439.33	4819.16
439.52	4816.82
439.70	4858.95
439.89	4835.55
440.08	5008.75
440.26	4997.04
440.45	4912.78
440.63	4910.44
440.82	5214.71
441.01	5123.43
441.19	5142.16
441.38	5371.53
441.57	5254.50
441.75	5385.57
441.94	5465.15
442.12	5488.56
442.31	5404.30
442.50	5376.21
442.68	5425.36
442.87	5420.68
443.05	5603.24
443.24	5694.52
443.43	5495.58
443.61	5589.20
443.80	5614.95
443.98	5362.17
444.17	5504.94
444.35	5605.58
444.54	5645.37
444.73	5570.48
444.91	5636.01
445.10	5628.99
445.28	5636.01
445.47	5593.88
445.65	5610.26
445.84	5645.37
446.02	5750.70
446.21	5769.42
446.39	5563.45
446.58	5729.63
446.77	5680.48
446.95	5633.67
447.14	5762.40
447.32	5865.38
447.51	5788.14
447.69	5750.70
447.88	5727.29
448.06	5877.09
448.25	5790.49
448.43	5799.85
448.62	5792.83
448.80	5834.96
448.99	5851.34
449.17	5825.59
449.36	5963.68
449.54	6148.59
449.73	6043.26
449.91	6155.61
450.10	6136.88
450.28	6115.82
450.46	6225.82
450.65	6188.38
450.83	6134.54
451.02	6125.18
451.20	6108.80
451.39	6293.70
451.57	6118.16
451.76	6286.68
451.94	6211.78
452.13	6136.88
452.31	6251.57
452.49	6204.76
452.68	6218.80
452.86	6228.17
453.05	6237.53
453.23	6471.58
453.42	6342.85
453.60	6368.60
453.78	6576.91
453.97	6434.13
454.15	6431.79
454.34	6291.36
454.52	6513.71
454.70	6614.35
454.89	6576.91
455.07	6588.61
455.26	6614.35
455.44	6546.48
455.62	6607.33
455.81	6626.06
455.99	6637.76
456.17	6729.04
456.36	6764.15
456.54	6553.50
456.73	6918.62
456.91	7061.40
457.09	6988.84
457.28	7206.51
457.46	7052.03
457.64	7166.72
457.83	7037.99
458.01	7042.67
458.19	7150.34
458.38	7171.40
458.56	7148.00
458.74	7122.25
458.93	7323.54
459.11	7089.48
459.29	7260.34
459.48	7119.91
459.66	7307.15
459.84	7246.30
460.03	7325.88
460.21	7295.45
460.39	7384.39
460.57	7618.44
460.76	7515.46
460.94	7609.08
461.12	7480.35
461.31	7506.10
461.49	7538.87
461.67	7588.02
461.85	7620.78
462.04	7496.74
462.22	8180.17
462.40	7868.88
462.59	7723.77
462.77	7756.54
462.95	7939.10
463.13	7782.28
463.32	7658.23
463.50	7850.16
463.68	7936.76
463.86	7927.39
464.05	7763.56
464.23	7892.29
464.41	7819.73
464.59	7812.71
464.78	8145.06
464.96	7920.37
465.14	7845.48
465.32	7981.23
465.50	8149.75
465.69	8051.44
465.87	8264.43
466.05	8084.21
466.23	7929.74
466.41	8032.72
466.60	8290.18
466.78	8140.38
466.96	8308.90
467.14	8098.25
467.32	8259.75
467.51	8205.92
467.69	8208.26
467.87	8374.44
468.05	8248.05
468.23	8245.71
468.41	8304.22
468.60	8332.31
468.78	8482.10
468.96	8484.44
469.14	8521.89
469.32	8507.85
469.50	8430.61
469.69	8456.36
469.87	8589.77
470.05	8758.28
470.23	8659.98
470.41	8615.51
470.59	8901.06
470.77	9064.89
470.95	8795.73
471.14	9057.87
471.32	8690.41
471.50	8755.94
471.68	8856.59
471.86	8980.64
472.04	9137.45
472.22	9132.77
472.40	8950.21
472.58	9071.92
472.77	9181.92
472.95	9158.52
473.13	9474.49
473.31	9383.21
473.49	9109.36
473.67	9315.33
473.85	9488.53
474.03	9453.42
474.21	9694.50
474.39	9650.03
474.57	10001.11
474.75	9853.66
474.93	9797.48
475.12	9717.90
475.30	9989.41
475.48	9823.23
475.66	9806.84
475.84	9935.57
476.02	10115.80
476.20	10139.20
476.38	10480.92
476.56	10609.65
476.74	10661.14
476.92	10085.37
477.10	10420.06
477.28	10604.97
477.46	10693.91
477.64	10787.53
477.82	10876.47
478.00	11000.52
478.18	10850.72
478.36	11194.78
478.54	11220.53
478.72	10934.98
478.90	11360.96
479.08	11655.87
479.26	11585.65
479.44	11665.23
479.62	11669.91
479.80	11824.39
479.98	12100.57
480.16	12100.57
480.34	11838.43
480.52	11997.59
480.70	12109.93
480.88	12018.65
481.06	12271.43
481.24	12201.21
481.41	12437.61
481.59	12753.58
481.77	12844.86
481.95	12844.86
482.13	13186.58
482.31	12634.21
482.49	13151.47
482.67	13062.53
482.85	13156.15
483.03	13369.14
483.21	13350.42
483.39	13554.04
483.57	13666.39
483.74	13860.65
483.92	14080.66
484.10	13816.18
484.28	14176.62
484.46	14270.25
484.64	14527.71
484.82	14335.78
485.00	14335.78
485.18	14649.41
485.35	15028.58
485.53	14740.69
485.71	14635.37
485.89	15042.62
486.07	15129.22
486.25	15068.37
486.43	15260.29
486.61	15253.27
486.78	15555.20
486.96	15262.63
487.14	15906.28
487.32	15784.57
487.50	16065.44
487.68	16023.31
487.85	16580.36
488.03	16634.19
488.21	16582.70
488.39	16489.07
488.57	16695.04
488.75	16868.24
488.92	16943.14
489.10	17324.65
489.28	17322.30
489.46	17495.50
489.64	17458.06
489.81	17949.57
489.99	18003.40
490.17	17951.91
490.35	18024.47
490.53	18160.22
490.70	18242.14
490.88	18412.99
491.06	18541.72
491.24	18576.83
491.41	18537.04
491.59	18656.41
491.77	18726.63
491.95	18780.46
492.13	19138.56
492.30	19199.41
492.48	19454.53
492.66	19405.38
492.84	19393.68
493.01	19658.16
493.19	19690.93
493.37	19976.47
493.54	19854.76
493.72	20189.46
493.90	20098.18
494.08	20205.84
494.25	20664.59
494.43	20563.95
494.61	20671.61
494.79	20629.48
494.96	20833.11
495.14	20889.28
495.32	21411.22
495.49	21233.34
495.67	21221.64
495.85	21511.86
496.02	21626.55
496.20	21406.54
496.38	21738.90
496.55	22015.08
496.73	22284.24
496.91	22375.52
497.09	22295.94
497.26	22352.12
497.44	22321.69
497.62	22532.34
497.79	22834.27
497.97	22686.81
498.14	23012.15
498.32	22838.95
498.50	23503.66
498.67	23438.12
498.85	23468.55
499.03	23709.63
499.20	23721.33
499.38	23737.71
499.56	23793.89
499.73	24027.94
499.91	23894.53
500.08	23946.02
500.26	24084.11
500.44	23992.83
500.61	24121.56
500.79	24217.52
500.97	24154.33
501.14	24823.72
501.32	24669.25
501.49	24680.95
501.67	25067.14
501.84	24994.58
502.02	24950.11
502.20	25158.42
502.37	25099.90
502.55	24849.47
502.72	25322.26
502.90	25453.33
503.07	25102.25
503.25	25436.94
503.43	25582.06
503.60	25909.73
503.78	25804.41
503.95	25593.76
504.13	26103.99
504.30	25891.01
504.48	25898.03
504.65	26391.88
504.83	26249.11
505.01	26487.84
505.18	26218.68
505.36	26824.88
505.53	26565.08
505.71	26377.84
505.88	26974.67
506.06	26539.33
506.23	26302.94
506.41	26785.09
506.58	26909.14
506.76	26841.26
506.93	27147.87
507.11	27309.37
507.28	27417.04
507.46	27372.57
507.63	27075.32
507.81	27213.41
507.98	27297.67
508.16	27356.18
508.33	27646.41
508.50	27381.93
508.68	27889.82
508.85	28182.39
509.03	28510.07
509.20	28268.99
509.38	28400.06
509.55	28669.22
509.73	28444.53
509.90	28418.78
510.08	28264.31
510.25	28449.21
510.42	28814.34
510.60	28746.46
510.77	28896.25
510.95	29149.03
511.12	28947.75
511.30	29207.55
511.47	29252.02
511.64	29823.11
511.82	29401.81
511.99	29064.77
512.17	29427.56
512.34	29280.10
512.51	29881.62
512.69	29497.77
512.86	29457.98
513.04	30022.05
513.21	29797.36
513.38	30359.09
513.56	29993.97
513.73	29804.38
513.90	30363.77
514.08	30029.07
514.25	30522.93
514.43	30188.23
514.60	30029.07
514.77	30396.54
514.95	30497.18
515.12	30756.98
515.29	30593.14
515.47	31051.89
515.64	31206.36
515.81	31089.34
515.99	31094.02
516.16	30866.98
516.33	31122.10
516.51	31480.21
516.68	31023.80
516.85	31007.42
517.03	31166.57
517.20	31367.86
517.37	31585.53
517.54	31566.81
517.72	31660.43
517.89	32020.87
518.06	31206.36
518.24	31627.66
518.41	31728.30
518.58	31754.05
518.75	31962.36
518.93	32437.48
519.10	31838.31
519.27	32283.01
519.45	32320.46
519.62	32643.45
519.79	32315.78
519.96	32591.96
520.14	32657.49
520.31	32294.71
520.48	32823.67
520.65	32556.85
520.83	33013.26
521.00	33039.00
521.17	33008.58
521.34	32971.13
521.52	33303.48
521.69	33455.62
521.86	33371.36
522.03	33310.50
522.20	33514.13
522.38	33362.00
522.55	33979.90
522.72	33474.34
522.89	33399.44
523.07	34061.82
523.24	33371.36
523.41	33928.41
523.58	33783.29
523.75	34302.89
523.92	33811.38
524.10	34312.25
524.27	34300.55
524.44	34319.28
524.61	34438.64
524.78	34345.02
524.96	34522.90
525.13	34789.72
525.30	34686.74
525.47	34752.27
525.64	34756.96
525.81	35007.39
525.98	34534.60
526.16	34808.45
526.33	34501.84
526.50	35009.73
526.67	34490.13
526.84	35000.37
527.01	34925.47
527.18	35126.76
527.36	35426.35
527.53	35353.79
527.70	35487.20
527.87	35857.01
528.04	35653.38
528.21	35353.79
528.38	35386.56
528.55	35559.76
528.72	36023.19
528.89	35718.92
529.07	35737.64
529.24	35281.24
529.41	36322.77
529.58	36102.76
529.75	36140.21
529.92	36037.23
530.09	35978.72
530.26	36144.89
530.43	36519.38
530.60	35988.08
530.77	35995.10
530.94	36568.53
531.11	36397.67
531.28	36535.76
531.46	36533.42
531.63	36367.24
531.80	37111.53
531.97	36650.45
532.14	36701.94
532.31	36594.28
532.48	36671.51
532.65	37200.47
532.82	36650.45
532.99	37097.49
533.16	36580.23
533.33	36975.78
533.50	37399.42
533.67	37586.66
533.84	37057.70
534.01	37762.20
534.18	37104.51
534.35	37495.38
534.52	37088.13
534.69	37883.91
534.86	37408.78
535.03	36999.19
535.20	37558.58
535.37	38148.39
535.54	37996.26
535.71	37474.32
535.88	37464.96
536.05	37600.71
536.22	37755.18
536.38	37752.84
536.55	37841.78
536.72	37706.03
536.89	37736.46
537.06	38272.44
537.23	38249.03
537.40	38410.53
537.57	38239.67
537.74	38089.88
537.91	38522.88
538.08	38335.63
538.25	37865.19
538.42	37984.55
538.59	38366.06
538.75	38232.65
538.92	38862.26
539.09	38756.93
539.26	38506.49
539.43	38316.91
539.60	38518.20
539.77	38834.17
539.94	38852.89
540.11	38417.55
540.28	38614.16
540.44	39019.07
540.61	38880.98
540.78	38770.97
540.95	39065.88
541.12	39009.71
541.29	39040.14
541.46	39168.87
541.62	38644.59
541.79	38845.87
541.96	38976.94
542.13	39388.88
542.30	39297.59
542.47	39463.77
542.63	39002.69
542.80	39744.64
542.97	40020.82
543.14	40135.51
543.31	39739.96
543.48	39643.99
543.64	40156.57
543.81	39990.39
543.98	40179.98
544.15	39814.85
544.32	40245.51
544.48	40259.55
544.65	40062.95
544.82	40156.57
544.99	39892.09
545.16	39943.58
545.32	40287.64
545.49	40545.10
545.66	40678.51
545.83	39936.56
546.00	40573.19
546.16	40481.91
546.33	40201.04
546.50	40376.58
546.67	40140.19
546.83	40297.00
547.00	40280.62
547.17	41151.30
547.34	40783.83
547.50	40931.29
547.67	40868.09
547.84	40683.19
548.00	41050.66
548.17	40772.13
548.34	40594.25
548.51	41141.94
548.67	41235.56
548.84	41024.91
549.01	41603.02
549.18	41345.56
549.34	40973.42
549.51	41144.28
549.68	41237.90
549.84	41415.78
550.01	41647.49
550.18	41235.56
550.34	41317.48
550.51	41383.01
550.68	41352.58
550.84	41045.97
551.01	41675.58
551.18	41600.68
551.34	41247.26
551.51	41708.35
551.68	41937.72
551.84	41043.63
552.01	41425.14
552.18	41331.52
552.34	41373.65
552.51	41352.58
552.68	42059.43
552.84	41729.41
553.01	42225.60
553.18	41961.12
553.34	41720.05
553.51	41551.53
553.67	41806.65
553.84	42183.48
554.01	42134.32
554.17	42246.67
554.34	41886.23
554.51	42005.59
554.67	42368.38
554.84	42148.37
555.00	42141.35
555.17	41958.78
555.33	42459.66
555.50	41757.50
555.67	42443.27
555.83	42335.61
556.00	42387.10
556.16	42445.62
556.33	42422.21
556.50	42171.77
556.66	42330.93
556.83	42398.80
556.99	42401.14
557.16	42845.85
557.32	42572.00
557.49	42342.63
557.65	42061.77
557.82	42277.10
557.98	42485.40
558.15	42747.54
558.32	42623.50
558.48	42689.03
558.65	42464.34
558.81	42497.11
558.98	42859.89
559.14	42787.33
559.31	42789.67
559.47	42866.91
559.64	42789.67
559.80	43264.80
559.97	42866.91
560.13	42976.92
560.30	42810.74
560.46	43264.80
560.63	42707.76
560.79	42946.49
560.96	43056.50
561.12	43023.73
561.29	43124.37
561.45	42986.28
561.61	42621.16
561.78	43276.51
561.94	42593.07
562.11	42920.74
562.27	42820.10
562.44	42827.12
562.60	42946.49
562.77	43627.59
562.93	42976.92
563.10	43789.08
563.26	42953.51
563.42	43019.05
563.59	43356.08
563.75	43234.38
563.92	43402.89
564.08	43161.82
564.24	43143.09
564.41	43473.11
564.57	43339.70
564.74	43564.39
564.90	43180.54
565.07	43533.96
565.23	43391.19
565.39	43194.59
565.56	43398.21
565.72	43522.26
565.88	43421.62
566.05	43653.33
566.21	43524.60
566.38	43620.56
566.54	42976.92
566.70	43629.93
566.87	43604.18
567.03	43796.10
567.19	44051.22
567.36	43648.65
567.52	43449.70
567.68	43889.73
567.85	43297.57
568.01	43526.94
568.17	43557.37
568.34	43941.22
568.50	43604.18
568.66	43775.04
568.83	44231.44
568.99	43318.64
569.15	43302.25
569.32	43761.00
569.48	43845.26
569.64	43735.25
569.81	44268.89
569.97	43709.50
570.13	43540.99
570.30	43290.55
570.46	43395.87
570.62	43508.22
570.78	43824.19
570.95	43428.64
571.11	43985.69
571.27	43962.28
571.43	43920.15
571.60	43957.60
571.76	43672.06
571.92	43658.01
572.09	44009.09
572.25	44098.03
572.41	43763.34
572.57	44318.04
572.74	44392.94
572.90	44280.60
573.06	43496.52
573.22	43751.63
573.38	43831.21
573.55	43201.61
573.71	44083.99
573.87	44062.93
574.03	43606.52
574.20	44116.76
574.36	43566.73
574.52	44271.23
574.68	43782.06
574.84	43973.98
575.01	43489.49
575.17	44189.31
575.33	43924.83
575.49	44093.35
575.65	44210.38
575.82	44011.43
575.98	44112.08
576.14	44224.42
576.30	44165.91
576.46	43777.38
576.62	43765.68
576.79	44172.93
576.95	43833.55
577.11	43833.55
577.27	44023.14
577.43	44285.28
577.59	43976.33
577.75	44177.61
577.92	43592.48
578.08	44268.89
578.24	43882.70
578.40	43920.15
578.56	43667.37
578.72	43931.86
578.88	44179.95
579.04	44135.48
579.21	43971.64
579.37	44044.20
579.53	43941.22
579.69	43414.60
579.85	43716.53
580.01	44414.01
580.17	44266.55
580.33	44198.68
580.49	44444.43
580.65	44151.87
580.82	44477.20
580.98	44144.84
581.14	44044.20
581.30	44334.43
581.46	44278.25
581.62	44409.32
581.78	44027.82
581.94	44643.38
582.10	44264.21
582.26	44254.85
582.42	44069.95
582.58	44264.21
582.74	43964.62
582.90	44278.25
583.06	44334.43
583.22	44163.57
583.38	44772.11
583.54	44313.36
583.70	44081.65
583.86	44163.57
584.02	43997.39
584.18	44081.65
584.34	44034.84
584.50	44053.56
584.66	44224.42
584.82	44055.90
584.98	44697.21
585.14	44009.09
585.30	43915.47
585.46	44135.48
585.62	44226.76
585.78	44196.34
585.94	43805.47
586.10	44189.31
586.26	44016.11
586.42	43999.73
586.58	44179.95
586.74	44308.68
586.90	44458.48
587.06	44023.14
587.22	44442.09
587.38	43576.09
587.54	44086.33
587.70	44481.88
587.86	44041.86
588.02	44465.50
588.18	44477.20
588.34	44275.91
588.49	44055.90
588.65	43906.11
588.81	44418.69
588.97	44191.65
589.13	44205.70
589.29	44219.74
589.45	44189.31
589.61	44659.76
589.77	44524.01
589.93	44598.91
590.08	44486.56
590.24	44524.01
590.40	44643.38
590.56	44767.43
590.72	44287.62
590.88	43906.11
591.04	44355.49
591.20	44935.95
591.35	44149.53
591.51	44678.49
591.67	44348.47
591.83	44519.33
591.99	44531.03
592.15	44385.92
592.31	44275.91
592.46	44091.01
592.62	44535.71
592.78	44626.99
592.94	44428.05
593.10	44016.11
593.26	44432.73
593.41	44643.38
593.57	44676.15
593.73	44266.55
593.89	44650.40
594.05	44376.56
594.20	44355.49
594.36	44634.02
594.52	44762.75
594.68	44968.71
594.84	44144.84
594.99	44891.48
595.15	44678.49
595.31	44893.82
595.47	44566.14
595.62	44353.15
595.78	44502.95
595.94	45146.59
596.10	45067.02
596.25	44575.50
596.41	44835.30
596.57	45015.52
596.73	44540.39
596.88	44430.39
597.04	44704.23
597.20	44940.63
597.36	44629.34
597.51	44634.02
597.67	44664.44
597.83	44828.28
597.99	44959.35
598.14	44994.46
598.30	44858.71
598.46	44596.57
598.61	44694.87
598.77	45167.66
598.93	44879.77
599.09	44591.89
599.24	45205.11
599.40	44746.36
599.56	45015.52
599.71	44870.41
599.87	44737.00
600.03	44657.42
600.18	44659.76
600.34	44886.79
600.50	45085.74
600.65	44687.85
600.81	44851.69
600.97	45177.02
601.12	45230.85
601.28	44884.45
601.44	44671.46
601.59	45069.36
601.75	44570.82
601.91	44797.85
602.06	44931.26
602.22	44659.76
602.37	44535.71
602.53	44526.35
602.69	44671.46
602.84	45029.57
603.00	44610.61
603.16	44252.51
603.31	44514.65
603.47	44296.98
603.62	44690.19
603.78	44437.41
603.94	44718.28
604.09	44938.29
604.25	44889.13
604.40	44863.39
604.56	44634.02
604.71	44605.93
604.87	44720.62
605.03	44566.14
605.18	44610.61
605.34	44453.79
605.49	44343.79
605.65	44170.59
605.80	44617.63
605.96	44669.12
606.12	45067.02
606.27	44870.41
606.43	44425.71
606.58	44851.69
606.74	44320.38
606.89	44430.39
607.05	44367.20
607.20	44542.74
607.36	44800.19
607.51	44762.75
607.67	44598.91
607.82	44477.20
607.98	44378.90
608.13	44495.92
608.29	44273.57
608.44	43796.10
608.60	44137.82
608.75	44395.28
608.91	44194.00
609.06	44219.74
609.22	44837.64
609.37	44285.28
609.53	44444.43
609.68	44704.23
609.84	44451.45
609.99	44030.16
610.15	43768.02
610.30	44252.51
610.46	43835.89
610.61	44320.38
610.76	43863.98
610.92	43929.51
611.07	44638.70
611.23	43662.69
611.38	44313.36
611.54	43938.88
611.69	43725.89
611.84	44236.12
612.00	44226.76
612.15	44037.18
612.31	44474.86
612.46	44341.45
612.62	44142.50
612.77	44343.79
612.92	44079.31
613.08	43908.45
613.23	44030.16
613.39	43803.13
613.54	43306.93
613.69	43491.83
613.85	43643.97
614.00	44156.55
614.15	44306.34
614.31	44105.06
614.46	43782.06
614.62	43335.02
614.77	43934.20
614.92	44083.99
615.08	43718.87
615.23	43498.86
615.38	43452.05
615.54	43688.44
615.69	43124.37
615.84	43374.81
616.00	43253.10
616.15	43438.00
616.30	43943.56
616.46	43398.21
616.61	43089.26
616.76	43709.50
616.92	43229.69
617.07	43253.10
617.22	43002.66
617.37	42967.55
617.53	43732.91
617.68	43274.16
617.83	43529.28
617.99	43477.79
618.14	43166.50
618.29	43023.73
618.45	42726.48
618.60	43086.92
618.75	43173.52
618.90	43157.14
619.06	43491.83
619.21	43395.87
619.36	42960.53
619.51	42756.91
619.67	43072.88
619.82	43225.01
619.97	43159.48
620.12	43014.37
620.28	42696.05
620.43	42738.18
620.58	42801.38
620.73	42733.50
620.89	42539.24
621.04	42972.24
621.19	42782.65
621.34	43278.85
621.49	42777.97
621.65	42747.54
621.80	42494.77
621.95	42368.38
622.10	42604.77
622.25	42869.25
622.41	42295.82
622.56	42178.79
622.71	42710.10
622.86	42796.70
623.01	42794.36
623.16	42595.41
623.32	42403.49
623.47	42824.78
623.62	42665.63
623.77	42398.80
623.92	42391.78
624.07	42075.81
624.23	42124.96
624.38	42272.42
624.53	41928.36
624.68	42574.34
624.83	42574.34
624.98	42398.80
625.13	41907.29
625.29	42078.15
625.44	42368.38
625.59	42113.26
625.74	41968.15
625.89	41799.63
626.04	41284.71
626.19	41790.27
626.34	42181.13
626.49	42213.90
626.65	41846.44
626.80	42209.22
626.95	41895.59
627.10	41502.38
627.25	41605.36
627.40	41881.55
627.55	41577.28
627.70	41476.63
627.85	41258.96
628.00	41514.08
628.15	42302.84
628.30	41633.45
628.45	41736.43
628.60	41518.76
628.76	41759.84
628.91	41706.01
629.06	41593.66
629.21	41521.10
629.36	41390.03
629.51	41371.31
629.66	41710.69
629.81	40893.84
629.96	41500.04
630.11	41434.50
630.26	41219.17
630.41	41542.17
630.56	41284.71
630.71	41013.21
630.86	41343.22
631.01	41036.61
631.16	41383.01
631.31	41118.53
631.46	40369.56
631.61	40994.48
631.76	40856.39
631.91	40931.29
632.06	41067.04
632.21	41024.91
632.36	41160.66
632.51	40634.04
632.66	40580.21
632.81	40521.69
632.96	40718.30
633.10	40973.42
633.25	40563.82
633.40	40474.88
633.55	41090.44
633.70	40739.36
633.85	40479.57
634.00	40547.44
634.15	40376.58
634.30	40395.31
634.45	40392.97
634.60	40397.65
634.75	40631.70
634.90	40718.30
635.05	40348.50
635.19	40292.32
635.34	40821.28
635.49	40753.41
635.64	40025.50
635.79	39941.24
635.94	40350.84
636.09	40622.34
636.24	39735.27
636.39	39901.45
636.53	39938.90
636.68	40046.57
636.83	39913.16
636.98	40259.55
637.13	40079.33
637.28	40446.80
637.43	40446.80
637.57	40130.83
637.72	40479.57
637.87	39721.23
638.02	39744.64
638.17	39709.53
638.32	39388.88
638.46	39576.12
638.61	39854.64
638.76	39632.29
638.91	39629.95
639.06	39536.33
639.20	39828.90
639.35	40144.87
639.50	39901.45
639.65	39482.50
639.80	39892.09
639.94	39779.74
640.09	39388.88
640.24	39519.95
640.39	39714.21
640.54	39356.11
640.68	39625.27
640.83	39639.31
640.98	39461.43
641.13	39576.12
641.27	39533.99
641.42	39033.11
641.57	39496.54
641.72	39587.82
641.86	39005.03
642.01	39234.40
642.16	39065.88
642.31	39112.69
642.45	39271.85
642.60	38623.52
642.75	39124.40
642.90	39377.17
643.04	38967.58
643.19	39253.12
643.34	39082.27
643.48	39225.04
643.63	39091.63
643.78	38602.46
643.93	38838.85
644.07	38888.00
644.22	39115.03
644.37	38934.81
644.51	38916.09
644.66	38953.54
644.81	38934.81
644.95	39145.46
645.10	39356.11
645.25	38682.03
645.39	38876.30
645.54	39103.33
645.69	38431.60
645.83	38532.24
645.98	38462.02
646.13	38871.62
646.27	38897.36
646.42	38419.89
646.57	38740.55
646.71	38859.91
646.86	38581.39
647.00	38817.78
647.15	38579.05
647.30	38728.84
647.44	39047.16
647.59	38394.15
647.74	38628.20
647.88	38143.71
648.03	38022.00
648.17	38506.49
648.32	38206.90
648.47	38330.95
648.61	38192.86
648.76	38412.87
648.90	38199.88
649.05	38436.28
649.20	38394.15
649.34	38204.56
649.49	38153.07
649.63	37986.89
649.78	38117.96
649.92	37846.46
650.07	37961.15
650.21	38005.62
650.36	37986.89
650.51	37736.46
650.65	38307.55
650.80	38452.66
650.94	38012.64
651.09	37975.19
651.23	37926.04
651.38	37970.51
651.52	37736.46
651.67	37724.75
651.81	37811.35
651.96	37333.89
652.10	37654.54
652.25	38019.66
652.39	37390.06
652.54	37699.01
652.68	37518.79
652.83	37855.82
652.97	37596.03
653.12	37778.59
653.26	37539.85
653.41	37743.48
653.55	37432.19
653.70	37427.51
653.84	37532.83
653.99	37441.55
654.13	37752.84
654.27	37385.38
654.42	37343.25
654.56	37177.07
654.71	37544.53
654.85	36982.80
655.00	37544.53
655.14	36928.97
655.29	36868.12
655.43	36882.16
655.57	36940.68
655.72	36685.56
655.86	36634.06
656.01	36898.55
656.15	36484.27
656.30	36774.50
656.44	36275.96
656.58	36416.40
656.73	36947.70
656.87	36517.04
657.01	36678.54
657.16	36528.74
657.30	36423.42
657.45	36364.90
657.59	36392.99
657.73	36048.93
657.88	36737.05
658.02	36362.56
658.16	36512.36
658.31	36627.04
658.45	37113.87
658.60	36596.62
658.74	36804.92
658.88	36652.79
659.03	36177.66
659.17	36254.90
659.31	36004.46
659.46	36004.46
659.60	36573.21
659.74	36009.14
659.89	35634.66
660.03	35873.39
660.17	35842.96
660.32	36002.12
660.46	36091.06
660.60	36119.15
660.74	36198.73
660.89	35683.81
661.03	35594.87
661.17	35615.93
661.32	35316.34
661.46	35477.84
661.60	35281.24
661.74	35447.41
661.89	35742.32
662.03	35498.91
662.17	35835.94
662.31	35292.94
662.46	35543.38
662.60	35367.84
662.74	35037.82
662.88	35447.41
663.03	34691.42
663.17	35124.42
663.31	35058.88
663.45	35028.46
663.60	34696.10
663.74	34866.96
663.88	34820.15
664.02	34452.69
664.17	34934.84
664.31	34583.76
664.45	34302.89
664.59	34192.89
664.73	34438.64
664.88	34855.26
665.02	34328.64
665.16	34558.01
665.30	33900.32
665.44	34220.97
665.59	33986.92
665.73	33872.23
665.87	33689.67
666.01	33778.61
666.15	33893.30
666.29	33848.83
666.44	34092.24
666.58	33640.52
666.72	34087.56
666.86	33958.83
667.00	34036.07
667.14	33769.25
667.28	33500.09
667.43	33333.91
667.57	33310.50
667.71	33654.56
667.85	33535.20
667.99	33106.88
668.13	33378.38
668.27	32776.86
668.41	33823.08
668.56	32889.21
668.70	32982.83
668.84	33053.05
668.98	32943.04
669.12	32861.12
669.26	33113.90
669.40	32985.17
669.54	32994.53
669.68	32994.53
669.82	32872.82
669.96	32521.74
670.10	32854.10
670.25	32840.06
670.39	32584.94
670.53	32898.57
670.67	32416.42
670.81	32851.76
670.95	32378.97
671.09	32517.06
671.23	32748.78
671.37	32128.53
671.51	32299.39
671.65	32144.92
671.79	31517.65
671.93	31683.83
672.07	32030.23
672.21	31854.69
672.35	31634.68
672.49	31833.63
672.63	31381.90
672.77	31379.56
672.91	31681.49
673.05	31311.69
673.19	31267.22
673.33	30639.95
673.47	30883.37
673.61	30848.26
673.75	30794.43
673.89	30927.84
674.03	30630.59
674.17	30553.35
674.31	30628.25
674.45	30382.49
674.59	31133.81
674.73	30878.69
674.87	30623.57
675.01	30721.87
675.15	30693.79
675.29	30548.67
675.43	30843.58
675.56	30569.74
675.70	30450.37
675.84	29764.59
675.98	29465.00
676.12	29551.60
676.26	30024.39
676.40	29816.08
676.54	29486.07
676.68	29668.63
676.82	29380.74
676.96	29465.00
677.10	29563.31
677.23	29153.71
677.37	29493.09
677.51	29184.14
677.65	29153.71
677.79	28870.51
677.93	28807.31
678.07	28697.31
678.21	28566.24
678.34	28503.04
678.48	28203.46
678.62	28580.28
678.76	28217.50
678.90	28114.52
679.04	28175.37
679.18	28215.16
679.31	27810.25
679.45	27686.20
679.59	27559.81
679.73	27536.40
679.87	27838.33
680.00	27428.74
680.14	27159.58
680.28	27028.51
680.42	27061.27
680.56	27318.73
680.70	27307.03
680.83	26852.97
680.97	26373.16
681.11	27082.34
681.25	26710.19
681.39	26862.33
681.52	26988.72
681.66	26597.85
681.80	26658.70
681.94	26324.01
682.07	26389.54
682.21	26342.73
682.35	25972.92
682.49	26291.24
682.62	25710.78
682.76	25930.80
682.90	25762.28
683.04	25675.68
683.17	25560.99
683.31	25521.20
683.45	25928.45
683.59	25603.12
683.72	25415.88
683.86	24762.87
684.00	25029.69
684.13	24985.22
684.27	25291.83
684.41	25074.16
684.55	24795.64
684.68	24753.51
684.82	24510.09
684.96	24636.48
685.09	24189.44
685.23	24360.30
685.37	24060.71
685.50	24269.01
685.64	24304.12
685.78	24081.77
685.91	24137.94
686.05	23983.47
686.19	23356.21
686.32	23688.56
686.46	23611.32
686.60	23545.79
686.73	23531.75
686.87	23033.21
687.01	23384.29
687.14	23477.91
687.28	23147.90
687.42	22960.66
687.55	22654.05
687.69	23084.70
687.82	22590.85
687.96	22712.56
688.10	22647.02
688.23	22551.06
688.37	22221.05
688.50	22197.64
688.64	22242.11
688.78	21865.28
688.91	22089.98
689.05	21984.65
689.18	21696.77
689.32	21628.89
689.46	22073.59
689.59	22052.53
689.73	21865.28
689.86	21813.79
690.00	21565.70
690.13	21771.66
690.27	21280.15
690.41	21481.44
690.54	21128.02
690.68	20877.58
690.81	21113.97
690.95	20788.64
691.08	20556.93
691.22	20507.77
691.35	20669.27
691.49	20706.72
691.62	20800.34
691.76	21153.76
691.89	20460.96
692.03	20264.36
692.16	20084.14
692.30	20042.01
692.43	20137.97
692.57	20128.61
692.70	19791.57
692.84	20187.12
692.97	19770.51
693.11	19655.82
693.24	19564.54
693.38	19281.33
693.51	19686.25
693.65	19166.65
693.78	19311.76
693.92	19253.25
694.05	19314.10
694.19	19304.74
694.32	19033.24
694.45	19016.85
694.59	18518.32
694.72	18864.72
694.86	18965.36
694.99	18391.93
695.13	19021.53
695.26	18658.75
695.39	18113.41
695.53	18333.42
695.66	18277.24
695.80	18342.78
695.93	18012.76
696.07	17893.40
696.20	18157.88
696.33	17874.67
696.47	17874.67
696.60	17668.70
696.73	17963.61
696.87	17446.35
697.00	17277.83
697.14	17376.14
697.27	17511.89
697.40	17495.50
697.54	17490.82
697.67	17125.70
697.80	17289.54
697.94	17076.55
698.07	16940.80
698.21	16844.84
698.34	17029.74
698.47	16746.53
698.61	16744.19
698.74	16482.05
698.87	16402.47
699.01	16475.03
699.14	16074.80
699.27	16046.71
699.40	16201.19
699.54	15978.84
699.67	15878.19
699.80	16105.23
699.94	15843.09
700.07	16032.67
700.20	15854.79
700.34	15695.63
700.47	15550.52
700.60	15644.14
700.73	15960.11
700.87	15438.17
701.00	15456.90
701.13	15365.62
701.26	15449.88
701.40	15108.16
701.53	15384.34
701.66	15211.14
701.79	14984.11
701.93	14963.04
702.06	14839.00
702.19	14862.40
702.32	14862.40
702.46	14789.85
702.59	14658.78
702.72	14888.15
702.85	14658.78
702.99	14565.15
703.12	14604.94
703.25	14604.94
703.38	14398.98
703.51	14108.75
703.65	13989.38
703.78	14115.77
703.91	13951.93
704.04	14270.25
704.17	13755.33
704.31	13923.85
704.44	13619.58
704.57	13493.19
704.70	13429.99
704.83	13561.06
704.96	13444.04
705.10	13729.58
705.23	13664.05
>>>>>End Processed Spectral Data<<<<<
