SpectraSuite Data File
++++++++++++++++++++++++++++++++++++
Date: Fri Oct 25 10:48:30 EDT 2013
User: price-jones
Dark Spectrum Present: No
Reference Spectrum Present: No
Number of Sampled Component Spectra: 1
Spectrometers: USB2+H05261
Integration Time (usec): 100000 (USB2+H05261)
Spectra Averaged: 1 (USB2+H05261)
Boxcar Smoothing: 0 (USB2+H05261)
Correct for Electrical Dark: No (USB2+H05261)
Strobe/Lamp Enabled: No (USB2+H05261)
Correct for Detector Non-linearity: No (USB2+H05261)
Correct for Stray Light: No (USB2+H05261)
Number of Pixels in Processed Spectrum: 2048
>>>>>Begin Processed Spectral Data<<<<<
365.73	93.62
365.92	93.62
366.12	93.62
366.32	95.96
366.52	117.03
366.72	100.64
366.91	70.22
367.11	102.98
367.31	0.00
367.51	39.79
367.70	93.62
367.90	51.49
368.10	100.64
368.30	58.51
368.49	0.00
368.69	53.83
368.89	102.98
369.09	67.88
369.28	102.98
369.48	102.98
369.68	84.26
369.87	114.69
370.07	149.79
370.27	102.98
370.47	149.79
370.66	428.32
370.86	416.62
371.06	475.13
371.25	587.47
371.45	461.09
371.65	496.19
371.84	428.32
372.04	510.24
372.24	531.30
372.44	507.90
372.63	486.83
372.83	594.50
373.03	531.30
373.22	521.94
373.42	482.15
373.62	550.03
373.81	568.75
374.01	660.03
374.21	596.84
374.40	512.58
374.60	608.54
374.79	573.43
374.99	627.26
375.19	589.82
375.38	671.73
375.58	573.43
375.78	674.07
375.97	615.56
376.17	704.50
376.37	723.23
376.56	657.69
376.76	657.69
376.95	671.73
377.15	699.82
377.35	641.31
377.54	660.03
377.74	763.01
377.93	655.35
378.13	664.71
378.33	709.18
378.52	704.50
378.72	711.52
378.91	667.05
379.11	657.69
379.31	669.39
379.50	716.20
379.70	678.76
379.89	723.23
380.09	669.39
380.28	805.14
380.48	744.29
380.68	695.14
380.87	674.07
381.07	683.44
381.26	812.17
381.46	730.25
381.65	772.38
381.85	655.35
382.04	702.16
382.24	767.70
382.43	716.20
382.63	772.38
382.83	737.27
383.02	774.72
383.22	854.30
383.41	800.46
383.61	706.84
383.80	763.01
384.00	791.10
384.19	814.51
384.39	851.96
384.58	793.44
384.78	760.67
384.97	788.76
385.17	882.38
385.36	844.93
385.56	786.42
385.75	884.72
385.95	805.14
386.14	926.85
386.34	915.15
386.53	908.13
386.72	898.77
386.92	873.02
387.11	823.87
387.31	861.32
387.50	994.73
387.70	880.04
387.89	882.38
388.09	938.55
388.28	1006.43
388.48	884.72
388.67	961.96
388.86	1027.50
389.06	978.34
389.25	1001.75
389.45	1027.50
389.64	1011.11
389.84	1053.24
390.03	1095.37
390.22	1062.60
390.42	1064.94
390.61	1071.97
390.81	1001.75
391.00	1034.52
391.19	1050.90
391.39	1139.84
391.58	1125.80
391.78	1015.79
391.97	1034.52
392.16	1090.69
392.36	1064.94
392.55	1064.94
392.75	1074.31
392.94	976.00
393.13	1048.56
393.33	1027.50
393.52	1013.45
393.71	1083.67
393.91	1200.69
394.10	1142.18
394.29	1153.88
394.49	1149.20
394.68	1228.78
394.88	1233.46
395.07	1324.74
395.26	1224.10
395.46	1160.91
395.65	1313.04
395.84	1240.48
396.04	1329.42
396.23	1235.80
396.42	1170.27
396.62	1247.51
396.81	1207.72
397.00	1343.47
397.19	1336.45
397.39	1336.45
397.58	1373.89
397.77	1416.02
397.97	1394.96
398.16	1579.86
398.35	1551.78
398.55	1502.62
398.74	1528.37
398.93	1570.50
399.12	1596.25
399.32	1537.73
399.51	1455.81
399.70	1680.50
399.90	1668.80
400.09	1570.50
400.28	1600.93
400.47	1671.14
400.67	1621.99
400.86	1703.91
401.05	1685.19
401.24	1710.93
401.44	1790.51
401.63	1788.17
401.82	1746.04
402.01	1790.51
402.21	1790.51
402.40	1715.61
402.59	1748.38
402.78	1685.19
402.97	1785.83
403.17	1762.42
403.36	1947.33
403.55	1966.05
403.74	1984.77
403.93	1942.64
404.13	1865.41
404.32	1907.54
404.51	1816.26
404.70	2008.18
404.89	1907.54
405.09	1954.35
405.28	1900.52
405.47	2040.95
405.66	2050.31
405.85	1991.80
406.05	1984.77
406.24	1975.41
406.43	1989.46
406.62	2106.48
406.81	2153.29
407.00	2111.16
407.20	2022.22
407.39	2143.93
407.58	2223.51
407.77	2246.91
407.96	2267.98
408.15	2127.55
408.34	2319.47
408.54	2335.85
408.73	2221.17
408.92	2300.75
409.11	2403.73
409.30	2319.47
409.49	2183.72
409.68	2270.32
409.87	2331.17
410.07	2352.24
410.26	2328.83
410.45	2443.52
410.64	2462.24
410.83	2443.52
411.02	2567.57
411.21	2633.10
411.40	2621.40
411.59	2686.94
411.78	2583.95
411.98	2590.97
412.17	2715.02
412.36	2747.79
412.55	2775.88
412.74	2794.60
412.93	2850.77
413.12	2787.58
413.31	3007.59
413.50	2810.98
413.69	2965.46
413.88	2979.50
414.07	2909.29
414.26	2883.54
414.45	3084.83
414.64	3002.91
414.83	2998.23
415.02	3019.29
415.22	3089.51
415.41	3218.24
415.60	3218.24
415.79	3220.58
415.98	3293.13
416.17	3332.92
416.36	3243.98
416.55	3358.67
416.74	3325.90
416.93	3328.24
417.12	3389.10
417.31	3440.59
417.50	3403.14
417.69	3480.38
417.88	3489.74
418.07	3389.10
418.26	3424.20
418.45	3557.61
418.64	3634.85
418.83	3676.98
419.02	3588.04
419.21	3592.72
419.39	3693.37
419.58	3405.48
419.77	3550.59
419.96	3768.26
420.15	3838.48
420.34	3723.79
420.53	3716.77
420.72	3824.44
420.91	3852.52
421.10	3901.67
421.29	3822.09
421.48	3873.59
421.67	3988.27
421.86	3878.27
422.05	3829.12
422.24	3805.71
422.43	3845.50
422.61	3871.25
422.80	3868.91
422.99	3929.76
423.18	3880.61
423.37	4077.21
423.56	4014.02
423.75	3911.04
423.94	3925.08
424.13	3660.60
424.32	3878.27
424.50	4039.76
424.69	3971.89
424.88	4032.74
425.07	3861.88
425.26	3946.14
425.45	3974.23
425.64	4002.32
425.83	3845.50
426.01	3974.23
426.20	4109.98
426.39	3997.64
426.58	3953.16
426.77	3969.55
426.96	4159.13
427.15	3997.64
427.33	4234.03
427.52	4025.72
427.71	4180.20
427.90	4081.89
428.09	4337.01
428.28	4159.13
428.46	4224.67
428.65	4173.18
428.84	4381.48
429.03	4358.08
429.22	4210.62
429.40	4170.83
429.59	4205.94
429.78	4117.00
429.97	4084.23
430.16	4161.47
430.34	4168.49
430.53	4273.82
430.72	4348.72
430.91	4266.80
431.10	4374.46
431.28	4435.32
431.47	4662.35
431.66	4753.63
431.85	4606.17
432.03	4554.68
432.22	4767.67
432.41	4585.11
432.60	4767.67
432.79	4746.61
432.97	4784.06
433.16	4854.27
433.35	4755.97
433.54	4816.82
433.72	4746.61
433.91	4816.82
434.10	4849.59
434.28	4739.58
434.47	5018.11
434.66	4870.65
434.85	5064.92
435.03	4917.47
435.22	5046.20
435.41	5413.66
435.59	5130.45
435.78	5137.48
435.97	5172.58
436.16	5235.78
436.34	5167.90
436.53	5160.88
436.72	5322.38
436.90	5008.75
437.09	5291.95
437.28	5167.90
437.46	5261.52
437.65	5242.80
437.84	5210.03
438.02	5193.65
438.21	5252.16
438.40	5188.97
438.58	5439.40
438.77	5427.70
438.96	5420.68
439.14	5570.48
439.33	5596.22
439.52	5650.05
439.70	5788.14
439.89	5661.76
440.08	5797.51
440.26	5809.21
440.45	5720.27
440.63	5970.71
440.82	6108.80
441.01	5907.51
441.19	6087.73
441.38	6127.52
441.57	6190.72
441.75	6237.53
441.94	6312.42
442.12	6333.49
442.31	6396.68
442.50	6609.67
442.68	6487.96
442.87	6237.53
443.05	6347.53
443.24	6649.46
443.43	6464.56
443.61	6633.08
443.80	6792.23
443.98	6387.32
444.17	6225.82
444.35	6675.21
444.54	6581.59
444.73	6560.52
444.91	6574.56
445.10	6532.44
445.28	6525.41
445.47	6516.05
445.65	6497.33
445.84	6609.67
446.02	6693.93
446.21	6630.74
446.39	6661.16
446.58	6623.72
446.77	6729.04
446.95	6555.84
447.14	6787.55
447.32	6874.15
447.51	6626.06
447.69	6925.65
447.88	6766.49
448.06	6700.95
448.25	6602.65
448.43	6874.15
448.62	6839.05
448.80	6764.15
448.99	6909.26
449.17	6827.34
449.36	6885.86
449.54	7042.67
449.73	7124.59
449.91	7002.88
450.10	7253.32
450.28	7183.10
450.46	7290.77
450.65	7269.70
450.83	7424.18
451.02	7267.36
451.20	7166.72
451.39	7267.36
451.57	7243.96
451.76	7124.59
451.94	7258.00
452.13	7363.33
452.31	7208.85
452.49	7208.85
452.68	7351.62
452.86	7068.42
453.05	7325.88
453.23	7325.88
453.42	7407.80
453.60	7300.13
453.78	7527.16
453.97	7419.50
454.15	7356.30
454.34	7478.01
454.52	7627.81
454.70	7541.21
454.89	7700.36
455.07	7562.27
455.26	7627.81
455.44	7775.26
455.62	7782.28
455.81	7817.39
455.99	7866.54
456.17	8030.38
456.36	7824.41
456.54	8109.96
456.73	7985.91
456.91	8124.00
457.09	8210.60
457.28	8379.12
457.46	8070.17
457.64	8315.92
457.83	8177.83
458.01	8124.00
458.19	8496.14
458.38	8344.01
458.56	8442.31
458.74	8325.29
458.93	8280.82
459.11	8292.52
459.29	8362.73
459.48	8561.68
459.66	8449.33
459.84	8320.60
460.03	8734.88
460.21	8620.19
460.39	8528.91
460.57	8652.96
460.76	8840.20
460.94	8706.79
461.12	8685.73
461.31	8762.97
461.49	8830.84
461.67	8648.28
461.85	9029.79
462.04	8929.14
462.22	9275.54
462.40	8964.25
462.59	8856.59
462.77	8872.97
462.95	9029.79
463.13	9008.72
463.32	9123.41
463.50	9160.86
463.68	9280.22
463.86	9071.92
464.05	9074.26
464.23	9144.47
464.41	9104.68
464.59	9078.94
464.78	9202.99
464.96	9327.03
465.14	9266.18
465.32	9432.36
465.50	9296.61
465.69	9441.72
465.87	9153.84
466.05	9270.86
466.23	9249.80
466.41	9240.44
466.60	9497.89
466.78	9430.02
466.96	9568.11
467.14	9533.00
467.32	9408.95
467.51	9680.46
467.69	9277.88
467.87	9476.83
468.05	9643.01
468.23	9390.23
468.41	9640.67
468.60	9369.16
468.78	9900.47
468.96	9647.69
469.14	9715.56
469.32	9818.55
469.50	9584.49
469.69	9886.42
469.87	9888.76
470.05	9975.36
470.23	10015.15
470.41	9937.91
470.59	10097.07
470.77	9898.13
470.95	9877.06
471.14	10214.10
471.32	10071.33
471.50	10420.06
471.68	10394.32
471.86	10546.45
472.04	10480.92
472.22	10640.08
472.40	10373.25
472.58	10310.06
472.77	10511.35
472.95	10864.77
473.13	10946.69
473.31	10651.78
473.49	10438.79
473.67	10501.98
473.85	10857.75
474.03	11204.14
474.21	10995.84
474.39	11068.39
474.57	10963.07
474.75	11293.08
474.93	11520.12
475.12	11375.00
475.30	11524.80
475.48	11400.75
475.66	11466.28
475.84	11461.60
476.02	11517.78
476.20	11770.55
476.38	11698.00
476.56	11908.65
476.74	12084.19
476.92	11873.54
477.10	11997.59
477.28	12236.32
477.46	12271.43
477.64	12299.52
477.82	12432.93
478.00	12741.88
478.18	12561.66
478.36	12833.16
478.54	12695.07
478.72	12966.57
478.90	13043.81
479.08	12894.01
479.26	13376.16
479.44	13408.93
479.62	13507.23
479.80	13628.94
479.98	13685.11
480.16	14012.79
480.34	13650.00
480.52	14038.53
480.70	13865.33
480.88	13568.09
481.06	14157.90
481.24	14207.05
481.41	14539.41
481.59	14497.28
481.77	14523.02
481.95	14698.56
482.13	14607.28
482.31	14916.23
482.49	14923.26
482.67	15105.82
482.85	15264.97
483.03	15534.14
483.21	15492.01
483.39	15723.72
483.57	15742.44
483.74	15700.31
483.92	15929.69
484.10	15602.01
484.28	16053.73
484.46	16280.77
484.64	16814.41
484.82	16077.14
485.00	16606.10
485.18	16580.36
485.35	16847.18
485.53	16704.40
485.71	16374.39
485.89	16699.72
486.07	16540.57
486.25	16671.64
486.43	17483.80
486.61	17282.52
486.78	17518.91
486.96	17790.41
487.14	17914.46
487.32	17816.16
487.50	18192.98
487.68	18228.09
487.85	18602.58
488.03	18878.76
488.21	18684.50
488.39	18794.50
488.57	19227.50
488.75	18925.57
488.92	19552.84
489.10	19473.26
489.28	19768.16
489.46	19768.16
489.64	19789.23
489.81	20257.34
489.99	20444.58
490.17	20517.14
490.35	20482.03
490.53	20442.24
490.70	20615.44
490.88	20697.36
491.06	21074.18
491.24	20968.86
491.41	20989.92
491.59	21083.55
491.77	21113.97
491.95	21102.27
492.13	21422.92
492.30	22082.95
492.48	22134.45
492.66	22111.04
492.84	22483.19
493.01	22279.56
493.19	22272.54
493.37	22307.65
493.54	22647.02
493.72	22806.18
493.90	23250.88
494.08	23227.48
494.25	23578.56
494.43	23599.62
494.61	23798.57
494.79	23644.09
494.96	23910.91
495.14	23630.05
495.32	23960.06
495.49	24112.20
495.67	24032.62
495.85	24517.11
496.02	24482.00
496.20	24533.50
496.38	24496.05
496.55	24992.24
496.73	25273.10
496.91	24879.89
497.09	25598.44
497.26	25195.87
497.44	25322.26
497.62	25209.91
497.79	25666.31
497.97	25315.23
498.14	25525.88
498.32	26047.82
498.50	25895.69
498.67	26312.30
498.85	26387.20
499.03	26595.51
499.20	26590.83
499.38	26757.00
499.56	26529.97
499.73	27344.48
499.91	26813.18
500.08	26764.03
500.26	26862.33
500.44	26977.01
500.61	27140.85
500.79	27260.22
500.97	27225.11
501.14	27793.86
501.32	27646.41
501.49	27290.65
501.67	27852.38
501.84	27695.56
502.02	27758.75
502.20	28250.27
502.37	28212.82
502.55	28177.71
502.72	28056.00
502.90	28304.10
503.07	28329.84
503.25	28215.16
503.43	28613.05
503.60	28432.83
503.78	28659.86
503.95	28842.42
504.13	29001.58
504.30	28753.48
504.48	28802.63
504.65	29483.73
504.83	29516.50
505.01	29776.30
505.18	29294.14
505.36	29743.53
505.53	29879.28
505.71	29940.13
505.88	29825.45
506.06	30047.80
506.23	30019.71
506.41	29799.70
506.58	30340.36
506.76	30143.76
506.93	30775.70
507.11	30590.80
507.28	30485.48
507.46	30686.76
507.63	30361.43
507.81	30845.92
507.98	30548.67
508.16	30436.33
508.33	31236.79
508.50	31150.19
508.68	31098.70
508.85	31402.97
509.03	31618.30
509.20	31297.64
509.38	31475.52
509.55	31875.76
509.73	31538.72
509.90	32048.96
510.08	31667.45
510.25	31758.73
510.42	31854.69
510.60	32238.54
510.77	31880.44
510.95	32751.12
511.12	32393.01
511.30	32184.71
511.47	32826.01
511.64	32952.40
511.82	32687.92
511.99	32966.45
512.17	32975.81
512.34	32727.71
512.51	33151.35
512.69	33305.82
512.86	33242.63
513.04	33362.00
513.21	33366.68
513.38	33310.50
513.56	33443.91
513.73	32989.85
513.90	33439.23
514.08	33282.42
514.25	33792.65
514.43	34155.44
514.60	33610.09
514.77	33846.49
514.95	34103.95
515.12	33954.15
515.29	34115.65
515.47	34335.66
515.64	35044.84
515.81	34003.30
515.99	34230.33
516.16	34099.26
516.33	34174.16
516.51	34113.31
516.68	34022.03
516.85	33858.19
517.03	34031.39
517.20	34763.98
517.37	34761.64
517.54	35215.70
517.72	34670.36
517.89	34525.24
518.06	34653.97
518.24	34457.37
518.41	35051.86
518.58	34850.58
518.75	35201.66
518.93	35482.52
519.10	35742.32
519.27	35597.21
519.45	35735.30
519.62	35805.52
519.79	35770.41
519.96	35526.99
520.14	35887.43
520.31	35716.58
520.48	36095.74
520.65	36119.15
520.83	36381.29
521.00	36842.37
521.17	36341.50
521.34	36404.69
521.52	36863.44
521.69	36835.35
521.86	36837.69
522.03	36854.08
522.20	36650.45
522.38	36659.81
522.55	37137.28
522.72	36538.10
522.89	36961.74
523.07	37310.48
523.24	37244.94
523.41	36973.44
523.58	37076.43
523.75	37895.61
523.92	37893.27
524.10	37635.81
524.27	37968.17
524.44	37809.01
524.61	38129.67
524.78	37867.53
524.96	37914.34
525.13	38244.35
525.30	38368.40
525.47	38160.09
525.64	38106.26
525.81	37921.36
525.98	38279.46
526.16	37853.48
526.33	37832.42
526.50	38199.88
526.67	37727.10
526.84	37907.32
527.01	38162.43
527.18	38314.57
527.36	38621.18
527.53	38787.36
527.70	39505.90
527.87	39321.00
528.04	39040.14
528.21	39007.37
528.38	39012.05
528.55	39381.85
528.72	39164.18
528.89	39491.86
529.07	39618.25
529.24	39335.04
529.41	39501.22
529.58	39372.49
529.75	39583.14
529.92	39501.22
530.09	39351.43
530.26	39761.02
530.43	39959.97
530.60	39700.17
530.77	39569.10
530.94	39791.45
531.11	39943.58
531.28	39796.13
531.46	40362.54
531.63	40238.49
531.80	39924.86
531.97	40311.05
532.14	40381.26
532.31	39988.05
532.48	39711.87
532.65	40002.10
532.82	40219.77
532.99	40343.81
533.16	39971.67
533.33	40364.88
533.50	41174.70
533.67	40573.19
533.84	40624.68
534.01	40612.98
534.18	41130.23
534.35	41095.13
534.52	40495.95
534.69	41200.45
534.86	41296.41
535.03	40959.38
535.20	41233.22
535.37	41310.46
535.54	41621.75
535.71	41404.08
535.88	41525.78
536.05	41034.27
536.22	41284.71
536.38	41352.58
536.55	41565.57
536.72	41558.55
536.89	41460.25
537.06	40957.03
537.23	41567.91
537.40	41621.75
537.57	41663.88
537.74	41635.79
537.91	41759.84
538.08	42305.18
538.25	41612.38
538.42	41579.62
538.59	41986.87
538.75	41771.54
538.92	41668.56
539.09	41881.55
539.26	41970.49
539.43	41755.16
539.60	41986.87
539.77	41930.70
539.94	42602.43
540.11	42211.56
540.28	41806.65
540.44	41977.51
540.61	41729.41
540.78	42131.98
540.95	42036.02
541.12	42178.79
541.29	42270.08
541.46	42115.60
541.62	42813.08
541.79	42759.25
541.96	42471.36
542.13	42389.44
542.30	42724.14
542.47	42848.19
542.63	42689.03
542.80	42834.14
542.97	42883.30
543.14	43215.65
543.31	43079.90
543.48	43428.64
543.64	43213.31
543.81	43306.93
543.98	43856.96
544.15	43388.85
544.32	43655.67
544.48	43636.95
544.65	43688.44
544.82	43005.00
544.99	43435.66
545.16	43545.67
545.32	43571.41
545.49	44114.42
545.66	43875.68
545.83	43978.67
546.00	43833.55
546.16	43569.07
546.33	43688.44
546.50	43620.56
546.67	43852.28
546.83	43665.03
547.00	43606.52
547.17	43789.08
547.34	43803.13
547.50	44156.55
547.67	44254.85
547.84	44055.90
548.00	44346.13
548.17	44608.27
548.34	44215.06
548.51	44516.99
548.67	44271.23
548.84	44711.25
549.01	44690.19
549.18	44156.55
549.34	44479.54
549.51	44385.92
549.68	44683.17
549.84	44488.90
550.01	44725.30
550.18	44280.60
550.34	44549.76
550.51	44175.27
550.68	44835.30
550.84	43997.39
551.01	44626.99
551.18	44566.14
551.34	44851.69
551.51	44737.00
551.68	45015.52
551.84	44732.32
552.01	44982.76
552.18	45006.16
552.34	44514.65
552.51	45081.06
552.68	44921.90
552.84	45223.83
553.01	45085.74
553.18	45095.10
553.34	45090.42
553.51	45118.51
553.67	45177.02
553.84	45439.16
554.01	45415.76
554.17	45294.05
554.34	45179.36
554.51	45668.53
554.67	45490.65
554.84	45233.19
555.00	45387.67
555.17	45518.74
555.33	45713.00
555.50	45301.07
555.67	45265.96
555.83	45453.20
556.00	45432.14
556.16	45715.34
556.33	45734.07
556.50	45595.98
556.66	45736.41
556.83	45338.52
556.99	45993.87
557.16	46085.15
557.32	45558.53
557.49	46295.80
557.65	45371.28
557.82	45446.18
557.98	45516.40
558.15	45897.91
558.32	45766.84
558.48	45682.58
558.65	46073.45
558.81	45944.72
558.98	45745.77
559.14	45867.48
559.31	45734.07
559.47	45888.54
559.64	45949.40
559.80	46436.23
559.97	45930.67
560.13	45675.55
560.30	46036.00
560.46	45872.16
560.63	46012.59
560.79	46195.15
560.96	46396.44
561.12	46057.06
561.29	46220.90
561.45	46052.38
561.61	46188.13
561.78	46188.13
561.94	46012.59
562.11	46213.88
562.27	46026.63
562.44	45954.08
562.60	46508.79
562.77	46808.37
562.93	46660.92
563.10	46443.25
563.26	46014.93
563.42	46419.84
563.59	46586.02
563.75	46504.10
563.92	46546.23
564.08	46330.90
564.24	46536.87
564.41	46773.27
564.57	46394.10
564.74	46148.34
564.90	46806.03
565.07	46520.49
565.23	46382.40
565.39	46213.88
565.56	46590.70
565.72	46366.01
565.88	46307.50
566.05	46337.93
566.21	46258.35
566.38	46124.94
566.54	46632.83
566.70	46855.18
566.87	46899.65
567.03	46665.60
567.19	47042.43
567.36	46951.15
567.52	46663.26
567.68	46770.93
567.85	46232.60
568.01	46546.23
568.17	45867.48
568.34	46529.85
568.50	46525.17
568.66	46653.90
568.83	46190.47
568.99	46307.50
569.15	46454.95
569.32	46590.70
569.48	46452.61
569.64	46850.50
569.81	46862.21
569.97	47297.55
570.13	46724.11
570.30	46403.46
570.46	46412.82
570.62	46361.33
570.78	46447.93
570.95	46590.70
571.11	46724.11
571.27	46515.81
571.43	46347.29
571.60	47035.41
571.76	46438.57
571.92	46471.34
572.09	46923.06
572.25	46609.43
572.41	46761.56
572.57	46857.52
572.74	47398.19
572.90	46543.89
573.06	46780.29
573.22	46768.58
573.38	46604.75
573.55	46504.10
573.71	46478.36
573.87	46639.86
574.03	46579.00
574.20	46569.64
574.36	46749.86
574.52	46494.74
574.68	46850.50
574.84	46887.95
575.01	46506.44
575.17	46476.02
575.33	46312.18
575.49	46859.87
575.65	46990.94
575.82	47131.37
575.98	46799.01
576.14	46693.69
576.30	46827.10
576.46	46693.69
576.62	46419.84
576.79	46824.76
576.95	46541.55
577.11	47033.07
577.27	46738.16
577.43	46855.18
577.59	46759.22
577.75	46609.43
577.92	46520.49
578.08	46438.57
578.24	46429.21
578.40	46602.41
578.56	46780.29
578.72	46747.52
578.88	47304.57
579.04	46899.65
579.21	47086.90
579.37	46649.22
579.53	46845.82
579.69	47047.11
579.85	47096.26
580.01	46906.68
580.17	47047.11
580.33	47346.70
580.49	47384.15
580.65	47107.96
580.82	46323.88
580.98	47173.50
581.14	46848.16
581.30	46993.28
581.46	46958.17
581.62	47070.51
581.78	46824.76
581.94	47222.65
582.10	46820.08
582.26	46944.12
582.42	47133.71
582.58	46714.75
582.74	46967.53
582.90	47220.31
583.06	46990.94
583.22	47316.27
583.38	47129.03
583.54	47306.91
583.70	46904.34
583.86	47056.47
584.02	46878.59
584.18	47327.97
584.34	46927.74
584.50	46939.44
584.66	46756.88
584.82	46862.21
584.98	47166.48
585.14	47210.95
585.30	46972.21
585.46	46974.55
585.62	47112.64
585.78	47061.15
585.94	46679.64
586.10	46707.73
586.26	46677.30
586.42	46887.95
586.58	47133.71
586.74	46777.95
586.90	46955.83
587.06	47250.74
587.22	46878.59
587.38	47292.86
587.54	47274.14
587.70	47234.35
587.86	46951.15
588.02	46836.46
588.18	46703.05
588.34	46845.82
588.49	46337.93
588.65	46422.19
588.81	46644.54
588.97	46265.37
589.13	46756.88
589.29	46829.44
589.45	46597.73
589.61	46644.54
589.77	46976.89
589.93	46880.93
590.08	47124.35
590.24	47243.71
590.40	47061.15
590.56	46916.04
590.72	46637.51
590.88	46796.67
591.04	47255.42
591.20	47316.27
591.35	46934.76
591.51	47473.09
591.67	47178.18
591.83	46983.91
591.99	46974.55
592.15	46866.89
592.31	47049.45
592.46	47192.22
592.62	46831.78
592.78	47119.66
592.94	47325.63
593.10	47133.71
593.26	47470.75
593.41	47487.13
593.57	47150.09
593.73	47000.30
593.89	47009.66
594.05	46911.36
594.20	46969.87
594.36	47103.28
594.52	47196.90
594.68	47248.39
594.84	46815.40
594.99	47508.19
595.15	47140.73
595.31	47445.00
595.47	47140.73
595.62	46796.67
595.78	47337.33
595.94	47246.05
596.10	47716.50
596.25	47100.94
596.41	47423.93
596.57	46967.53
596.73	47351.38
596.88	47028.38
597.04	47206.26
597.20	47236.69
597.36	47093.92
597.51	47611.18
597.67	47246.05
597.83	47456.70
597.99	47192.22
598.14	46909.02
598.30	47079.88
598.46	46813.05
598.61	47367.76
598.77	46665.60
598.93	47075.19
599.09	47454.36
599.24	47889.70
599.40	47311.59
599.56	47150.09
599.71	47136.05
599.87	47152.43
600.03	46988.60
600.18	47297.55
600.34	47173.50
600.50	47002.64
600.65	46995.62
600.81	47550.32
600.97	47604.16
601.12	47547.98
601.28	47203.92
601.44	47327.97
601.59	47082.22
601.75	46752.20
601.91	46920.72
602.06	47278.82
602.22	47072.85
602.37	46876.25
602.53	47426.28
602.69	46993.28
602.84	47056.47
603.00	46719.43
603.16	46965.19
603.31	47194.56
603.47	46890.29
603.62	46784.97
603.78	47154.77
603.94	47051.79
604.09	47566.71
604.25	47297.55
604.40	47089.24
604.56	47035.41
604.71	47194.56
604.87	46824.76
605.03	47395.85
605.18	46918.38
605.34	47257.76
605.49	46841.14
605.65	47051.79
605.80	47367.76
605.96	47208.61
606.12	47068.17
606.27	46965.19
606.43	46927.74
606.58	46941.78
606.74	46761.56
606.89	46841.14
607.05	47054.13
607.20	47063.49
607.36	47236.69
607.51	47267.12
607.67	46993.28
607.82	46852.84
607.98	46712.41
608.13	46686.67
608.29	47105.62
608.44	46581.34
608.60	46614.11
608.75	46469.00
608.91	46330.90
609.06	46464.32
609.22	47009.66
609.37	46670.28
609.53	46934.76
609.68	46658.58
609.84	45951.74
609.99	46454.95
610.15	46787.31
610.30	46515.81
610.46	46300.48
610.61	46646.88
610.76	46188.13
610.92	46550.91
611.07	46649.22
611.23	46263.03
611.38	46295.80
611.54	46050.04
611.69	46560.28
611.84	46190.47
612.00	46323.88
612.15	46181.11
612.31	46124.94
612.46	46213.88
612.62	46340.27
612.77	46403.46
612.92	46515.81
613.08	46234.94
613.23	46583.68
613.39	45954.08
613.54	46124.94
613.69	46288.77
613.85	45794.92
614.00	46251.33
614.15	46227.92
614.31	46342.61
614.46	46131.96
614.62	45977.48
614.77	45977.48
614.92	45902.59
615.08	45844.07
615.23	45762.15
615.38	45785.56
615.54	45893.22
615.69	45422.78
615.84	45296.39
616.00	45724.71
616.15	45738.75
616.30	45996.21
616.46	45219.15
616.61	45621.72
616.76	46021.95
616.92	45394.69
617.07	45429.80
617.22	45174.68
617.37	45586.61
617.53	45624.06
617.68	45968.12
617.83	45727.05
617.99	45546.82
618.14	45689.60
618.29	45525.76
618.45	45312.77
618.60	45277.66
618.75	45450.86
618.90	45687.26
619.06	45558.53
619.21	45745.77
619.36	45345.54
619.51	45329.16
619.67	45745.77
619.82	45207.45
619.97	45757.47
620.12	44858.71
620.28	44877.43
620.43	44933.60
620.58	45198.09
620.73	45191.06
620.89	45338.52
621.04	45350.22
621.19	45155.96
621.34	45050.63
621.49	45272.98
621.65	44720.62
621.80	45298.73
621.95	45076.38
622.10	45024.89
622.25	44659.76
622.41	44594.23
622.56	44531.03
622.71	45357.24
622.86	44273.57
623.01	45055.31
623.16	44287.62
623.32	45301.07
623.47	44751.04
623.62	44964.03
623.77	44584.86
623.92	44650.40
624.07	44559.12
624.23	44273.57
624.38	44065.27
624.53	44105.06
624.68	44470.18
624.83	44437.41
624.98	44472.52
625.13	44535.71
625.29	44346.13
625.44	44669.12
625.59	44135.48
625.74	43438.00
625.89	43798.44
626.04	43866.32
626.19	43917.81
626.34	44044.20
626.49	44191.65
626.65	44027.82
626.80	44243.15
626.95	44011.43
627.10	44217.40
627.25	43728.23
627.40	43463.75
627.55	43143.09
627.70	43047.13
627.85	43325.66
628.00	43756.32
628.15	43796.10
628.30	43105.65
628.45	43976.33
628.60	43615.88
628.76	43608.86
628.91	43667.37
629.06	43316.29
629.21	43147.78
629.36	43285.87
629.51	43489.49
629.66	43299.91
629.81	42960.53
629.96	43253.10
630.11	43512.90
630.26	43175.86
630.41	43440.34
630.56	43136.07
630.71	43201.61
630.86	43079.90
631.01	43049.47
631.16	43208.63
631.31	42976.92
631.46	42616.47
631.61	43103.31
631.76	43068.20
631.91	43126.71
632.06	43297.57
632.21	43182.88
632.36	43232.04
632.51	43065.86
632.66	42911.38
632.81	42602.43
632.96	42766.27
633.10	42494.77
633.25	42590.73
633.40	42831.80
633.55	42983.94
633.70	43021.39
633.85	42443.27
634.00	43026.07
634.15	42462.00
634.30	42752.23
634.45	42316.89
634.60	42061.77
634.75	42532.22
634.90	42794.36
635.05	42642.22
635.19	42726.48
635.34	42876.27
635.49	42075.81
635.64	42351.99
635.79	42220.92
635.94	42412.85
636.09	42150.71
636.24	42188.16
636.39	41563.23
636.53	41911.97
636.68	41816.01
636.83	41769.20
636.98	42625.84
637.13	42323.91
637.28	42380.08
637.43	42096.88
637.57	42192.84
637.72	42232.63
637.87	42396.46
638.02	42260.71
638.17	41942.40
638.32	41698.98
638.46	41579.62
638.61	41635.79
638.76	41729.41
638.91	41684.94
639.06	41614.72
639.20	41750.48
639.35	41907.29
639.50	42181.13
639.65	41820.69
639.80	41368.97
639.94	41415.78
640.09	41706.01
640.24	41654.51
640.39	41097.47
640.54	41036.61
640.68	41448.55
640.83	41511.74
640.98	41385.35
641.13	40971.08
641.27	41453.23
641.42	41294.07
641.57	41624.09
641.72	41385.35
641.86	41048.32
642.01	41104.49
642.16	41102.15
642.31	40610.64
642.45	41516.42
642.60	40985.12
642.75	40704.26
642.90	41141.94
643.04	40914.90
643.19	41104.49
643.34	40767.45
643.48	41280.03
643.63	40762.77
643.78	40884.48
643.93	40500.63
644.07	40369.56
644.22	40655.11
644.37	40500.63
644.51	40744.05
644.66	40748.73
644.81	40659.79
644.95	40519.35
645.10	40830.65
645.25	41120.87
645.39	40449.14
645.54	40975.76
645.69	40652.76
645.83	40584.89
645.98	40320.41
646.13	40416.37
646.27	40493.61
646.42	40121.46
646.57	40311.05
646.71	40456.16
646.86	40430.41
647.00	40336.79
647.15	40088.70
647.30	40823.62
647.44	40215.08
647.59	40467.86
647.74	39901.45
647.88	40357.86
648.03	39707.19
648.17	39864.00
648.32	39931.88
648.47	39941.24
648.61	39852.30
648.76	40381.26
648.90	39669.74
649.05	39887.41
649.20	40102.74
649.34	39709.53
649.49	39576.12
649.63	39702.51
649.78	39849.96
649.92	39676.76
650.07	39976.35
650.21	39423.98
650.36	39328.02
650.51	39412.28
650.65	40034.86
650.80	40268.92
650.94	40060.61
651.09	39873.37
651.23	39414.62
651.38	39545.69
651.52	39423.98
651.67	39693.15
651.81	39100.99
651.96	38778.00
652.10	39187.59
652.25	39196.95
652.39	39112.69
652.54	39304.62
652.68	39491.86
652.83	39220.36
652.97	39606.55
653.12	39372.49
653.26	39461.43
653.41	39166.52
653.55	38953.54
653.70	38808.42
653.84	39030.77
653.99	39061.20
654.13	39241.42
654.27	38953.54
654.42	38986.30
654.56	39196.95
654.71	38665.65
654.85	38763.95
655.00	38902.04
655.14	38719.48
655.29	38609.48
655.43	38726.50
655.57	38085.20
655.72	38333.29
655.86	38419.89
656.01	38525.22
656.15	38185.84
656.30	38415.21
656.44	38675.01
656.58	38204.56
656.73	37888.59
656.87	38061.79
657.01	37696.67
657.16	37797.31
657.30	37755.18
657.45	37855.82
657.59	37930.72
657.73	38213.93
657.88	38106.26
658.02	37965.83
658.16	38113.28
658.31	38256.06
658.45	38099.24
658.60	37471.98
658.74	38120.31
658.88	38141.37
659.03	37603.05
659.17	37972.85
659.31	37792.63
659.46	37266.01
659.60	37511.77
659.74	37553.90
659.89	37612.41
660.03	37727.10
660.17	37780.93
660.32	37460.27
660.46	37708.37
660.60	37315.16
660.74	37626.45
660.89	37525.81
661.03	37071.75
661.17	36818.97
661.32	36924.29
661.46	37120.90
661.60	36783.86
661.74	37062.38
661.89	37399.42
662.03	37095.15
662.17	37097.49
662.31	36636.41
662.46	37057.70
662.60	37144.30
662.74	36865.78
662.88	36444.48
663.03	36753.43
663.17	36360.22
663.31	36556.83
663.45	36411.71
663.60	36973.44
663.74	36451.50
663.88	36622.36
664.02	35847.64
664.17	36442.14
664.31	36184.68
664.45	36261.92
664.59	36287.67
664.73	36126.17
664.88	36346.18
665.02	35812.54
665.16	35800.83
665.30	36432.78
665.44	35941.27
665.59	35548.06
665.73	35950.63
665.87	35695.51
666.01	35559.76
666.15	35470.82
666.29	35634.66
666.44	35234.42
666.58	35323.36
666.72	35573.80
666.86	35531.67
667.00	35913.18
667.14	35337.41
667.28	35110.38
667.43	35330.39
667.57	35058.88
667.71	35072.93
667.85	34913.77
667.99	34960.58
668.13	34763.98
668.27	34459.71
668.41	35016.75
668.56	34321.62
668.70	34583.76
668.84	34719.51
668.98	34593.12
669.12	34508.86
669.26	34588.44
669.40	34249.06
669.54	34373.11
669.68	34717.17
669.82	34600.14
669.96	34249.06
670.10	33614.77
670.25	33741.16
670.39	33956.49
670.53	33823.08
670.67	33701.37
670.81	33961.17
670.95	34071.18
671.09	33944.79
671.23	33865.21
671.37	34099.26
671.51	33493.07
671.65	33195.82
671.79	32954.74
671.93	33090.49
672.07	33371.36
672.21	33511.79
672.35	33078.79
672.49	32804.95
672.63	33235.61
672.77	32662.18
672.91	32994.53
673.05	33118.58
673.19	32975.81
673.33	32524.08
673.47	32491.32
673.61	32442.17
673.75	32737.07
673.89	32133.21
674.03	32044.27
674.17	32229.18
674.31	32053.64
674.45	31585.53
674.59	32058.32
674.73	32048.96
674.87	32294.71
675.01	31704.90
675.15	32123.85
675.29	31658.09
675.43	31763.41
675.56	31744.69
675.70	31864.05
675.84	31527.02
675.98	30302.92
676.12	30822.51
676.26	31154.87
676.40	30923.16
676.54	30876.35
676.68	31419.35
676.82	30682.08
676.96	30501.86
677.10	30415.26
677.23	31009.76
677.37	30646.97
677.51	30064.18
677.65	30312.28
677.79	29769.27
677.93	30293.55
678.07	30017.37
678.21	29968.22
678.34	29759.91
678.48	29289.46
678.62	29523.52
678.76	29397.13
678.90	29385.43
679.04	29209.89
679.18	29666.29
679.31	28809.65
679.45	28938.38
679.59	28650.50
679.73	28851.78
679.87	28720.71
680.00	29102.22
680.14	28683.27
680.28	28240.90
680.42	28559.22
680.56	28725.39
680.70	28503.04
680.83	27941.32
680.97	27700.24
681.11	27978.76
681.25	28025.57
681.39	27398.31
681.52	28002.17
681.66	27838.33
681.80	27510.66
681.94	27318.73
682.07	27571.51
682.21	27552.79
682.35	27000.42
682.49	27328.10
682.62	27190.00
682.76	26874.03
682.90	26906.80
683.04	26700.83
683.17	26679.77
683.31	26719.56
683.45	26792.11
683.59	26574.44
683.72	26223.36
683.86	26185.91
684.00	26012.71
684.13	26338.05
684.27	26164.85
684.41	25560.99
684.55	25600.78
684.68	25820.79
684.82	25649.93
684.96	25790.36
685.09	25333.96
685.23	25453.33
685.37	25596.10
685.50	25020.33
685.64	25458.01
685.78	25090.54
685.91	25221.61
686.05	24877.55
686.19	24779.25
686.32	25015.65
686.46	24397.74
686.60	24112.20
686.73	24264.33
686.87	23555.15
687.01	23915.59
687.14	23601.96
687.28	23421.74
687.42	24013.90
687.55	23440.47
687.69	23356.21
687.82	23264.92
687.96	23557.49
688.10	23318.76
688.23	23339.82
688.37	23084.70
688.50	23131.51
688.64	23293.01
688.78	22909.16
688.91	22771.07
689.05	22771.07
689.18	22888.10
689.32	22635.32
689.46	22569.79
689.59	22806.18
689.73	22647.02
689.86	22347.44
690.00	22419.99
690.13	22635.32
690.27	22530.00
690.41	22382.54
690.54	22075.93
690.68	21781.03
690.81	21802.09
690.95	21701.45
691.08	21855.92
691.22	21568.04
691.35	21589.10
691.49	21612.51
691.62	21589.10
691.76	21291.85
691.89	21551.65
692.03	20833.11
692.16	20996.95
692.30	21003.97
692.43	20982.90
692.57	20748.85
692.70	20746.51
692.84	20624.80
692.97	20638.84
693.11	20133.29
693.24	20526.50
693.38	20325.21
693.51	19990.52
693.65	19878.17
693.78	19936.68
693.92	20056.05
694.05	20046.69
694.19	19749.44
694.32	19901.58
694.45	19784.55
694.59	19822.00
694.72	19342.19
694.86	19283.67
694.99	19178.35
695.13	18953.66
695.26	19241.54
695.39	18881.10
695.53	18803.86
695.66	19159.63
695.80	18785.14
695.93	18951.32
696.07	18684.50
696.20	18850.67
696.33	18726.63
696.47	18384.91
696.60	18511.30
696.73	18583.85
696.87	18305.33
697.00	18607.26
697.14	18092.34
697.27	18218.73
697.40	17919.14
697.54	17947.23
697.67	17741.26
697.80	17649.98
697.94	17715.51
698.07	17790.41
698.21	17565.72
698.34	17359.75
698.47	17432.31
698.61	17139.74
698.74	17022.72
698.87	17048.46
699.01	16800.37
699.14	16664.61
699.27	16816.75
699.40	17114.00
699.54	16678.66
699.67	16662.27
699.80	16542.91
699.94	16596.74
700.07	16690.36
700.20	16294.81
700.34	16238.64
700.47	16304.17
700.60	16215.23
700.73	16383.75
700.87	16255.02
701.00	15969.48
701.13	15723.72
701.26	15761.17
701.40	15878.19
701.53	15789.25
701.66	15901.60
701.79	15782.23
701.93	15279.02
702.06	15412.43
702.19	15461.58
702.32	15225.18
702.46	15257.95
702.59	14970.07
702.72	14979.43
702.85	14890.49
702.99	14808.57
703.12	15272.00
703.25	14855.38
703.38	15002.83
703.51	15105.82
703.65	14757.08
703.78	14736.01
703.91	14534.73
704.04	14661.12
704.17	14487.92
704.31	14279.61
704.44	14127.47
704.57	14127.47
704.70	14223.44
704.83	13973.00
704.96	14059.60
705.10	14349.82
705.23	14026.83
>>>>>End Processed Spectral Data<<<<<
