SpectraSuite Data File
++++++++++++++++++++++++++++++++++++
Date: Fri Oct 25 10:43:20 EDT 2013
User: price-jones
Dark Spectrum Present: No
Reference Spectrum Present: No
Number of Sampled Component Spectra: 1
Spectrometers: USB2+H05261
Integration Time (usec): 100000 (USB2+H05261)
Spectra Averaged: 1 (USB2+H05261)
Boxcar Smoothing: 0 (USB2+H05261)
Correct for Electrical Dark: No (USB2+H05261)
Strobe/Lamp Enabled: No (USB2+H05261)
Correct for Detector Non-linearity: No (USB2+H05261)
Correct for Stray Light: No (USB2+H05261)
Number of Pixels in Processed Spectrum: 2048
>>>>>Begin Processed Spectral Data<<<<<
365.73	93.62
365.92	93.62
366.12	93.62
366.32	0.00
366.52	0.00
366.72	30.43
366.91	0.00
367.11	39.79
367.31	0.00
367.51	74.90
367.70	0.00
367.90	100.64
368.10	18.72
368.30	39.79
368.49	98.30
368.69	114.69
368.89	60.85
369.09	63.19
369.28	65.54
369.48	18.72
369.68	140.43
369.87	88.94
370.07	9.36
370.27	161.50
370.47	191.92
370.66	358.10
370.86	470.45
371.06	472.79
371.25	482.15
371.45	411.93
371.65	521.94
371.84	477.47
372.04	411.93
372.24	449.38
372.44	491.51
372.63	477.47
372.83	482.15
373.03	585.13
373.22	500.87
373.42	543.00
373.62	538.32
373.81	566.41
374.01	543.00
374.21	540.66
374.40	559.39
374.60	552.37
374.79	582.79
374.99	653.01
375.19	533.64
375.38	596.84
375.58	596.84
375.78	690.46
375.97	582.79
376.17	634.29
376.37	564.07
376.56	554.71
376.76	608.54
376.95	575.77
377.15	557.05
377.35	730.25
377.54	674.07
377.74	629.60
377.93	702.16
378.13	653.01
378.33	690.46
378.52	634.29
378.72	660.03
378.91	627.26
379.11	655.35
379.31	657.69
379.50	671.73
379.70	629.60
379.89	751.31
380.09	599.18
380.28	692.80
380.48	676.41
380.68	702.16
380.87	641.31
381.07	697.48
381.26	744.29
381.46	634.29
381.65	655.35
381.85	748.97
382.04	631.94
382.24	638.97
382.43	690.46
382.63	685.78
382.83	660.03
383.02	718.54
383.22	720.88
383.41	767.70
383.61	748.97
383.80	828.55
384.00	744.29
384.19	793.44
384.39	741.95
384.58	755.99
384.78	713.86
384.97	802.80
385.17	723.23
385.36	791.10
385.56	779.40
385.75	823.87
385.95	835.57
386.14	912.81
386.34	793.44
386.53	851.96
386.72	877.70
386.92	877.70
387.11	882.38
387.31	910.47
387.50	884.72
387.70	844.93
387.89	763.01
388.09	809.83
388.28	931.53
388.48	976.00
388.67	898.77
388.86	929.19
389.06	994.73
389.25	973.66
389.45	1020.47
389.64	924.51
389.84	978.34
390.03	903.45
390.22	945.58
390.42	964.30
390.61	976.00
390.81	1004.09
391.00	1006.43
391.19	1064.94
391.39	971.32
391.58	1083.67
391.78	1048.56
391.97	1090.69
392.16	1025.15
392.36	1107.07
392.55	1196.01
392.75	973.66
392.94	1020.47
393.13	1071.97
393.33	987.71
393.52	1060.26
393.71	1032.18
393.91	1139.84
394.10	1055.58
394.29	1177.29
394.49	1158.57
394.68	1151.54
394.88	1198.35
395.07	1275.59
395.26	1273.25
395.46	1266.23
395.65	1228.78
395.84	1233.46
396.04	1191.33
396.23	1259.21
396.42	1165.59
396.62	1172.61
396.81	1238.14
397.00	1268.57
397.19	1181.97
397.39	1249.85
397.58	1409.00
397.77	1303.68
397.97	1483.90
398.16	1411.34
398.35	1394.96
398.55	1385.60
398.74	1467.52
398.93	1577.52
399.12	1523.69
399.32	1441.77
399.51	1514.33
399.70	1654.76
399.90	1582.20
400.09	1544.75
400.28	1643.06
400.47	1596.25
400.67	1743.70
400.86	1666.46
401.05	1596.25
401.24	1598.59
401.44	1680.50
401.63	1750.72
401.82	1710.93
402.01	1591.56
402.21	1680.50
402.40	1818.60
402.59	1774.13
402.78	1827.96
402.97	1720.29
403.17	1696.89
403.36	1722.63
403.55	1804.55
403.74	1804.55
403.93	1778.81
404.13	1820.94
404.32	1820.94
404.51	1832.64
404.70	1989.46
404.89	1919.24
405.09	1991.80
405.28	1865.41
405.47	1825.62
405.66	1923.92
405.85	2017.54
406.05	1912.22
406.24	1944.99
406.43	1902.86
406.62	2050.31
406.81	2083.08
407.00	2062.01
407.20	1984.77
407.39	2087.76
407.58	2176.70
407.77	2211.81
407.96	2193.08
408.15	2253.94
408.34	2181.38
408.54	2380.32
408.73	2260.96
408.92	2265.64
409.11	2314.79
409.30	2249.25
409.49	2303.09
409.68	2345.22
409.87	2314.79
410.07	2230.53
410.26	2333.51
410.45	2382.67
410.64	2368.62
410.83	2485.65
411.02	2483.31
411.21	2567.57
411.40	2586.29
411.59	2588.63
411.78	2586.29
411.98	2588.63
412.17	2628.42
412.36	2745.45
412.55	2642.46
412.74	2743.11
412.93	2754.81
413.12	2757.15
413.31	2857.79
413.50	2864.82
413.69	2834.39
413.88	2920.99
414.07	2942.05
414.26	2960.78
414.45	2986.52
414.64	2881.20
414.83	3094.19
415.02	3098.87
415.22	3133.98
415.41	3049.72
415.60	3145.68
415.79	3166.74
415.98	3243.98
416.17	3260.37
416.36	3208.87
416.55	3180.79
416.74	3307.18
416.93	3192.49
417.12	3283.77
417.31	3332.92
417.50	3187.81
417.69	3400.80
417.88	3419.52
418.07	3541.23
418.26	3515.48
418.45	3513.14
418.64	3506.12
418.83	3588.04
419.02	3492.08
419.21	3674.64
419.39	3564.64
419.58	3510.80
419.77	3499.10
419.96	3517.83
420.15	3672.30
420.34	3754.22
420.53	3819.75
420.72	3864.22
420.91	3735.50
421.10	3845.50
421.29	3798.69
421.48	3791.67
421.67	3824.44
421.86	3772.94
422.05	3901.67
422.24	3749.54
422.43	3882.95
422.61	3850.18
422.80	3882.95
422.99	3864.22
423.18	3756.56
423.37	3880.61
423.56	3873.59
423.75	3880.61
423.94	3822.09
424.13	3646.55
424.32	3808.05
424.50	3796.35
424.69	3906.35
424.88	4021.04
425.07	3969.55
425.26	3831.46
425.45	3808.05
425.64	3768.26
425.83	3889.97
426.01	4044.45
426.20	3967.21
426.39	4042.11
426.58	3981.25
426.77	3843.16
426.96	3925.08
427.15	3896.99
427.33	4042.11
427.52	4114.66
427.71	4091.26
427.90	4105.30
428.09	4198.92
428.28	4215.30
428.46	4189.56
428.65	4149.77
428.84	4241.05
429.03	4334.67
429.22	4145.09
429.40	4159.13
429.59	4063.17
429.78	3913.38
429.97	3974.23
430.16	3983.59
430.34	4081.89
430.53	4201.26
430.72	4142.75
430.91	4131.05
431.10	4264.46
431.28	4517.23
431.47	4648.30
431.66	4667.03
431.85	4554.68
432.03	4753.63
432.22	4655.33
432.41	4491.49
432.60	4709.16
432.79	4734.90
432.97	4732.56
433.16	4566.39
433.35	4655.33
433.54	4758.31
433.72	4671.71
433.91	4545.32
434.10	4758.31
434.28	4767.67
434.47	4999.38
434.66	4887.04
434.85	4959.60
435.03	4961.94
435.22	4910.44
435.41	5029.81
435.59	5095.35
435.78	4851.93
435.97	5179.61
436.16	5137.48
436.34	5046.20
436.53	5013.43
436.72	5235.78
436.90	5043.85
437.09	5341.10
437.28	5149.18
437.46	5123.43
437.65	5132.79
437.84	5165.56
438.02	5008.75
438.21	5048.54
438.40	5146.84
438.58	5439.40
438.77	5291.95
438.96	5397.28
439.14	5542.39
439.33	5537.71
439.52	5617.29
439.70	5678.14
439.89	5682.82
440.08	5469.83
440.26	5628.99
440.45	5664.10
440.63	5870.06
440.82	5748.36
441.01	5893.47
441.19	5912.19
441.38	6237.53
441.57	5933.26
441.75	6195.40
441.94	6300.72
442.12	6246.89
442.31	6338.17
442.50	6242.21
442.68	6314.77
442.87	6286.68
443.05	6314.77
443.24	6567.54
443.43	6310.08
443.61	6471.58
443.80	6356.90
443.98	6342.85
444.17	6277.32
444.35	6560.52
444.54	6551.16
444.73	6534.78
444.91	6597.97
445.10	6377.96
445.28	6415.41
445.47	6342.85
445.65	6464.56
445.84	6586.27
446.02	6471.58
446.21	6361.58
446.39	6654.14
446.58	6637.76
446.77	6621.38
446.95	6413.07
447.14	6698.61
447.32	6429.45
447.51	6504.35
447.69	6600.31
447.88	6562.86
448.06	6703.29
448.25	6677.55
448.43	6773.51
448.62	6726.70
448.80	6684.57
448.99	6637.76
449.17	6834.36
449.36	6825.00
449.54	6932.67
449.73	7112.89
449.91	7101.19
450.10	6970.12
450.28	7279.07
450.46	7346.94
450.65	7206.51
450.83	7089.48
451.02	7124.59
451.20	7335.24
451.39	7133.95
451.57	7311.83
451.76	7396.09
451.94	7162.04
452.13	7311.83
452.31	7101.19
452.49	6953.73
452.68	7094.16
452.86	7138.63
453.05	7229.91
453.23	7372.69
453.42	7042.67
453.60	7293.11
453.78	7623.12
453.97	7403.11
454.15	7555.25
454.34	7344.60
454.52	7595.04
454.70	7459.29
454.89	7447.58
455.07	7466.31
455.26	7634.83
455.44	7744.83
455.62	7707.38
455.81	7709.72
455.99	7634.83
456.17	7885.26
456.36	7789.30
456.54	7868.88
456.73	7861.86
456.91	8145.06
457.09	8119.32
457.28	8304.22
457.46	7925.05
457.64	8032.72
457.83	8140.38
458.01	7985.91
458.19	8306.56
458.38	8168.47
458.56	8320.60
458.74	8028.04
458.93	8086.55
459.11	8273.79
459.29	8184.85
459.48	8355.71
459.66	8299.54
459.84	8325.29
460.03	8505.51
460.21	8573.38
460.39	8407.20
460.57	8528.91
460.76	8713.81
460.94	8542.96
461.12	8503.17
461.31	8514.87
461.49	8678.71
461.67	8575.72
461.85	8863.61
462.04	8645.94
462.22	9085.96
462.40	8854.25
462.59	8674.03
462.77	8844.88
462.95	8842.54
463.13	8872.97
463.32	8751.26
463.50	9067.24
463.68	9071.92
463.86	8952.55
464.05	8758.28
464.23	8788.71
464.41	9064.89
464.59	8767.65
464.78	9083.62
464.96	9184.26
465.14	9067.24
465.32	9254.48
465.50	9273.20
465.69	9207.67
465.87	9214.69
466.05	9011.06
466.23	8987.66
466.41	9097.66
466.60	9322.35
466.78	9071.92
466.96	9142.13
467.14	9338.74
467.32	9277.88
467.51	9521.30
467.69	9050.85
467.87	9336.40
468.05	9664.07
468.23	9287.25
468.41	9390.23
468.60	9301.29
468.78	9631.30
468.96	9453.42
469.14	9832.59
469.32	9577.47
469.50	9444.06
469.69	9640.67
469.87	9848.97
470.05	9802.16
470.23	9825.57
470.41	9940.26
470.59	9916.85
470.77	9923.87
470.95	9898.13
471.14	10113.45
471.32	10036.22
471.50	10193.03
471.68	10258.57
471.86	10331.12
472.04	10232.82
472.22	10619.01
472.40	10382.62
472.58	10296.02
472.77	10338.15
472.95	10544.11
473.13	10885.83
473.31	10464.54
473.49	10204.74
473.67	10595.61
473.85	10693.91
474.03	10752.42
474.21	10808.59
474.39	11211.17
474.57	10934.98
474.75	11194.78
474.93	11066.05
475.12	11222.87
475.30	11176.06
475.48	11098.82
475.66	11332.87
475.84	11136.27
476.02	11346.92
476.20	11239.25
476.38	11590.33
476.56	11580.97
476.74	11676.93
476.92	11693.32
477.10	11587.99
477.28	11997.59
477.46	11873.54
477.64	12231.64
477.82	12229.30
478.00	12526.55
478.18	12299.52
478.36	12437.61
478.54	12781.67
478.72	12575.70
478.90	12601.44
479.08	13001.68
479.26	13111.68
479.44	12938.48
479.62	13188.92
479.80	13355.10
479.98	13289.56
480.16	13689.79
480.34	13521.27
480.52	13729.58
480.70	13715.54
480.88	13752.99
481.06	13867.67
481.24	13980.02
481.41	14478.55
481.59	14490.26
481.77	14630.69
481.95	14300.67
482.13	14670.48
482.31	14356.85
482.49	15051.99
482.67	14661.12
482.85	14801.55
483.03	15016.88
483.21	15026.24
483.39	15391.36
483.57	15150.29
483.74	15393.70
483.92	15843.09
484.10	15529.45
484.28	15765.85
484.46	16245.66
484.64	16170.76
484.82	15899.26
485.00	15953.09
485.18	16149.70
485.35	16500.78
485.53	16065.44
485.71	15903.94
485.89	16475.03
486.07	16451.63
486.25	16575.67
486.43	16870.58
486.61	16608.44
486.78	17317.62
486.96	17427.63
487.14	17341.03
487.32	17614.87
487.50	17853.61
487.68	18340.44
487.85	18333.42
488.03	18415.34
488.21	18576.83
488.39	18345.12
488.57	18202.35
488.75	18576.83
488.92	18927.91
489.10	19358.57
489.28	19520.07
489.46	19550.49
489.64	19323.46
489.81	20222.23
489.99	19969.45
490.17	20163.72
490.35	20126.27
490.53	20051.37
490.70	20486.71
490.88	20437.56
491.06	20950.14
491.24	20507.77
491.41	20662.25
491.59	20987.58
491.77	20517.14
491.95	21378.45
492.13	21247.38
492.30	21252.06
492.48	21806.77
492.66	21731.87
492.84	21514.20
493.01	21720.17
493.19	21724.85
493.37	22352.12
493.54	22167.21
493.72	22417.65
493.90	22073.59
494.08	22834.27
494.25	23129.17
494.43	22939.59
494.61	23126.83
494.79	23175.98
494.96	23276.63
495.14	23232.16
495.32	23463.87
495.49	23632.39
495.67	23414.72
495.85	24290.08
496.02	23985.81
496.20	24112.20
496.38	24439.87
496.55	24453.92
496.73	24802.66
496.91	24854.15
497.09	24954.79
497.26	24734.78
497.44	24858.83
497.62	24842.45
497.79	25125.65
497.97	25472.05
498.14	25825.47
498.32	25228.63
498.50	25324.60
498.67	25741.21
498.85	26267.83
499.03	26190.59
499.20	25977.61
499.38	26305.28
499.56	26309.96
499.73	26717.22
499.91	26228.04
500.08	26441.03
500.26	26017.40
500.44	26398.90
500.61	26665.72
500.79	26361.45
500.97	26426.99
501.14	26979.36
501.32	26836.58
501.49	26827.22
501.67	27030.85
501.84	27314.05
502.02	27630.02
502.20	27988.13
502.37	27742.37
502.55	27758.75
502.72	27489.59
502.90	28011.53
503.07	27538.74
503.25	28158.99
503.43	28102.81
503.60	28353.25
503.78	27887.48
503.95	27718.96
504.13	28236.22
504.30	28692.63
504.48	28460.91
504.65	28896.25
504.83	28730.08
505.01	29242.65
505.18	28952.43
505.36	29600.76
505.53	29612.46
505.71	29895.66
505.88	29750.55
506.06	29355.00
506.23	29640.54
506.41	29509.47
506.58	29607.78
506.76	29989.28
506.93	29846.51
507.11	29762.25
507.28	29975.24
507.46	29577.35
507.63	29982.26
507.81	30106.31
507.98	30132.06
508.16	30382.49
508.33	30749.96
508.50	30679.74
508.68	30794.43
508.85	31054.23
509.03	30506.54
509.20	30749.96
509.38	31026.14
509.55	31456.80
509.73	31009.76
509.90	31283.60
510.08	31505.95
510.25	31346.79
510.42	31075.29
510.60	31325.73
510.77	31304.67
510.95	31903.84
511.12	31662.77
511.30	31955.33
511.47	32180.03
511.64	32180.03
511.82	32690.26
511.99	32191.73
512.17	32568.55
512.34	31875.76
512.51	32472.59
512.69	32575.58
512.86	32191.73
513.04	32481.95
513.21	32582.60
513.38	32746.44
513.56	32861.12
513.73	32580.26
513.90	32900.91
514.08	32725.37
514.25	32959.42
514.43	33074.11
514.60	33373.70
514.77	32959.42
514.95	33441.57
515.12	33165.39
515.29	33015.60
515.47	33844.15
515.64	34087.56
515.81	33670.95
515.99	33652.22
516.16	33383.06
516.33	33331.57
516.51	33626.48
516.68	33137.30
516.85	32818.99
517.03	33132.62
517.20	34155.44
517.37	34382.47
517.54	34429.28
517.72	34363.75
517.89	33846.49
518.06	33687.33
518.24	33804.36
518.41	34087.56
518.58	34567.37
518.75	34675.04
518.93	34415.24
519.10	34300.55
519.27	34593.12
519.45	34890.37
519.62	34801.43
519.79	35449.75
519.96	35150.17
520.14	35332.73
520.31	34998.03
520.48	35590.19
520.65	35328.05
520.83	35859.35
521.00	35566.78
521.17	35576.14
521.34	35651.04
521.52	35892.12
521.69	36137.87
521.86	36163.62
522.03	36240.86
522.20	35990.42
522.38	35754.02
522.55	36304.05
522.72	36126.17
522.89	36123.83
523.07	36423.42
523.24	36282.98
523.41	36638.75
523.58	36783.86
523.75	37017.91
523.92	36596.62
524.10	36926.63
524.27	37034.30
524.44	37057.70
524.61	36933.65
524.78	37556.24
524.96	37425.17
525.13	37198.13
525.30	37736.46
525.47	37280.05
525.64	37148.98
525.81	37347.93
525.98	37460.27
526.16	36987.49
526.33	36804.92
526.50	37518.79
526.67	37207.50
526.84	36861.10
527.01	37092.81
527.18	37542.19
527.36	37694.33
527.53	38363.72
527.70	38508.83
527.87	38043.07
528.04	38012.64
528.21	38565.01
528.38	38333.29
528.55	38696.08
528.72	38658.63
528.89	39009.71
529.07	38429.26
529.24	38532.24
529.41	38335.63
529.58	38553.30
529.75	38330.95
529.92	38651.61
530.09	38831.83
530.26	38733.53
530.43	38843.53
530.60	38541.60
530.77	38749.91
530.94	39185.25
531.11	38948.85
531.28	39241.42
531.46	39192.27
531.63	39374.83
531.80	39117.37
531.97	39143.12
532.14	38873.96
532.31	38522.88
532.48	39152.48
532.65	39393.56
532.82	39480.16
532.99	39868.69
533.16	39180.57
533.33	39763.36
533.50	39597.18
533.67	39580.80
533.84	39452.07
534.01	40004.44
534.18	39875.71
534.35	40465.52
534.52	39548.03
534.69	40076.99
534.86	40086.36
535.03	39833.58
535.20	40484.25
535.37	40959.38
535.54	40678.51
535.71	40542.76
535.88	40123.80
536.05	40458.50
536.22	40793.20
536.38	40533.40
536.55	40582.55
536.72	40488.93
536.89	40301.68
537.06	40739.36
537.23	40776.81
537.40	40432.75
537.57	40460.84
537.74	41397.06
537.91	41411.10
538.08	40821.28
538.25	41076.40
538.42	40697.24
538.59	41790.27
538.75	41057.68
538.92	40861.07
539.09	40797.88
539.26	41436.84
539.43	41247.26
539.60	41361.95
539.77	41097.47
539.94	41125.55
540.11	40928.95
540.28	41223.86
540.44	41500.04
540.61	41518.76
540.78	41230.88
540.95	41003.85
541.12	41621.75
541.29	41741.11
541.46	41755.16
541.62	41591.32
541.79	41478.97
541.96	41242.58
542.13	41909.63
542.30	42117.94
542.47	41914.31
542.63	42029.00
542.80	42623.50
542.97	42155.39
543.14	42260.71
543.31	42351.99
543.48	42553.28
543.64	42263.05
543.81	42815.42
543.98	42185.82
544.15	42550.94
544.32	42628.18
544.48	43208.63
544.65	42763.93
544.82	42817.76
544.99	42375.40
545.16	42466.68
545.32	42396.46
545.49	43316.29
545.66	42990.96
545.83	42862.23
546.00	43040.11
546.16	42981.60
546.33	42614.13
546.50	42539.24
546.67	43196.93
546.83	43019.05
547.00	43124.37
547.17	43112.67
547.34	42742.86
547.50	43253.10
547.67	43288.21
547.84	43297.57
548.00	43529.28
548.17	43681.42
548.34	43075.22
548.51	43608.86
548.67	43627.59
548.84	43702.48
549.01	43538.65
549.18	43414.60
549.34	43812.49
549.51	43515.24
549.68	43526.94
549.84	43768.02
550.01	43688.44
550.18	43604.18
550.34	43693.12
550.51	43826.53
550.68	43564.39
550.84	43103.31
551.01	43800.79
551.18	43487.15
551.34	43665.03
551.51	43665.03
551.68	43920.15
551.84	43746.95
552.01	43997.39
552.18	43826.53
552.34	43812.49
552.51	43934.20
552.68	44119.10
552.84	44360.17
553.01	43913.13
553.18	44406.98
553.34	44383.58
553.51	44257.19
553.67	44137.82
553.84	44861.05
554.01	44669.12
554.17	44399.96
554.34	44755.72
554.51	44645.72
554.67	44701.89
554.84	44411.67
555.00	44500.61
555.17	44191.65
555.33	44538.05
555.50	45041.27
555.67	44432.73
555.83	44790.83
556.00	44631.68
556.16	44896.16
556.33	44795.51
556.50	44924.24
556.66	44690.19
556.83	44416.35
556.99	44531.03
557.16	44713.59
557.32	44938.29
557.49	44818.92
557.65	44631.68
557.82	44755.72
557.98	44626.99
558.15	44935.95
558.32	44947.65
558.48	44451.45
558.65	44442.09
558.81	44767.43
558.98	44325.07
559.14	44919.56
559.31	44645.72
559.47	44903.18
559.64	45113.83
559.80	44938.29
559.97	45272.98
560.13	45031.91
560.30	45113.83
560.46	44884.45
560.63	45130.21
560.79	45228.51
560.96	45216.81
561.12	44996.80
561.29	44542.74
561.45	45148.93
561.61	45174.68
561.78	44928.92
561.94	45167.66
562.11	44856.37
562.27	45268.30
562.44	45659.17
562.60	45359.58
562.77	45233.19
562.93	45371.28
563.10	45525.76
563.26	45397.03
563.42	45502.35
563.59	45195.74
563.75	45392.35
563.92	45530.44
564.08	45558.53
564.24	45371.28
564.41	45584.27
564.57	45441.50
564.74	45209.79
564.90	45179.36
565.07	45230.85
565.23	45476.61
565.39	45298.73
565.56	45270.64
565.72	45017.86
565.88	45303.41
566.05	45427.46
566.21	45078.72
566.38	45172.34
566.54	45659.17
566.70	45546.82
566.87	46160.05
567.03	45364.26
567.19	46078.13
567.36	45745.77
567.52	46127.28
567.68	45612.36
567.85	45556.19
568.01	45944.72
568.17	45553.85
568.34	45565.55
568.50	45434.48
568.66	45705.98
568.83	45661.51
568.99	45397.03
569.15	44994.46
569.32	45303.41
569.48	45478.95
569.64	46028.98
569.81	45652.15
569.97	46059.40
570.13	45979.82
570.30	45041.27
570.46	45455.54
570.62	44912.54
570.78	44947.65
570.95	45270.64
571.11	45385.33
571.27	45209.79
571.43	45663.85
571.60	45738.75
571.76	45312.77
571.92	45799.60
572.09	45900.25
572.25	46190.47
572.41	45628.74
572.57	45610.02
572.74	46148.34
572.90	45415.76
573.06	45801.94
573.22	45661.51
573.38	45717.68
573.55	45170.00
573.71	46040.68
573.87	45640.45
574.03	45551.51
574.20	45755.13
574.36	45748.11
574.52	46031.32
574.68	45759.81
574.84	45432.14
575.01	45584.27
575.17	46005.57
575.33	45654.49
575.49	45738.75
575.65	45979.82
575.82	45624.06
575.98	45771.52
576.14	46391.76
576.30	45717.68
576.46	45528.10
576.62	45722.37
576.79	46064.08
576.95	45057.65
577.11	46096.85
577.27	45914.29
577.43	45818.33
577.59	45607.68
577.75	45745.77
577.92	45336.18
578.08	45752.79
578.24	45797.26
578.40	45652.15
578.56	45546.82
578.72	46117.92
578.88	46223.24
579.04	45904.93
579.21	45212.13
579.37	45441.50
579.53	45975.14
579.69	45308.09
579.85	45626.40
580.01	45947.06
580.17	45904.93
580.33	45942.38
580.49	45720.02
580.65	46014.93
580.82	45808.96
580.98	45380.65
581.14	45141.91
581.30	45787.90
581.46	45507.04
581.62	46143.66
581.78	45507.04
581.94	46401.12
582.10	46064.08
582.26	46134.30
582.42	46146.00
582.58	45310.43
582.74	46309.84
582.90	46024.29
583.06	45907.27
583.22	46248.99
583.38	46417.50
583.54	45815.99
583.70	46082.81
583.86	45921.31
584.02	45762.15
584.18	45998.55
584.34	45989.19
584.50	45963.44
584.66	45888.54
584.82	45827.69
584.98	45923.65
585.14	45848.75
585.30	45666.19
585.46	45588.95
585.62	45233.19
585.78	45914.29
585.94	45528.10
586.10	45593.64
586.26	45916.63
586.42	46031.32
586.58	45944.72
586.74	46265.37
586.90	45979.82
587.06	46103.87
587.22	46005.57
587.38	46028.98
587.54	46293.46
587.70	46223.24
587.86	45811.31
588.02	45757.47
588.18	46036.00
588.34	45654.49
588.49	45099.78
588.65	45191.06
588.81	45418.10
588.97	45666.19
589.13	45270.64
589.29	45326.81
589.45	45900.25
589.61	46124.94
589.77	46113.23
589.93	45778.54
590.08	46232.60
590.24	46120.26
590.40	46157.70
590.56	46057.06
590.72	46225.58
590.88	45642.79
591.04	46412.82
591.20	45923.65
591.35	46270.05
591.51	46384.74
591.67	45989.19
591.83	45982.16
591.99	45574.91
592.15	45975.14
592.31	46103.87
592.46	46241.96
592.62	45853.44
592.78	46050.04
592.94	46340.27
593.10	46129.62
593.26	46157.70
593.41	46541.55
593.57	45701.30
593.73	45656.83
593.89	46239.62
594.05	46192.81
594.20	46183.45
594.36	46115.58
594.52	46089.83
594.68	45888.54
594.84	46227.92
594.99	46223.24
595.15	45801.94
595.31	46384.74
595.47	46000.89
595.62	46171.75
595.78	46457.29
595.94	46358.99
596.10	45904.93
596.25	45879.18
596.41	46487.72
596.57	45937.69
596.73	45813.65
596.88	46143.66
597.04	46134.30
597.20	46356.65
597.36	46394.10
597.51	46808.37
597.67	45827.69
597.83	46052.38
597.99	46597.73
598.14	45991.53
598.30	46330.90
598.46	46050.04
598.61	46124.94
598.77	45991.53
598.93	46155.36
599.09	46323.88
599.24	46546.23
599.40	46267.71
599.56	46263.03
599.71	46288.77
599.87	46574.32
600.03	46248.99
600.18	45940.04
600.34	46073.45
600.50	45808.96
600.65	46021.95
600.81	46094.51
600.97	46380.06
601.12	46218.56
601.28	45787.90
601.44	45970.46
601.59	46197.49
601.75	45874.50
601.91	46190.47
602.06	45364.26
602.22	46040.68
602.37	46424.53
602.53	46169.41
602.69	46454.95
602.84	45970.46
603.00	45991.53
603.16	46443.25
603.31	46003.23
603.47	45738.75
603.62	45841.73
603.78	45677.90
603.94	45904.93
604.09	46141.32
604.25	46263.03
604.40	46019.61
604.56	46485.38
604.71	46064.08
604.87	46138.98
605.03	45986.85
605.18	45937.69
605.34	45947.06
605.49	45567.89
605.65	45755.13
605.80	46010.25
605.96	45806.62
606.12	46040.68
606.27	46115.58
606.43	45825.35
606.58	45993.87
606.74	45703.64
606.89	46131.96
607.05	45834.71
607.20	45776.20
607.36	45560.87
607.51	46075.79
607.67	45827.69
607.82	45818.33
607.98	46028.98
608.13	45612.36
608.29	45537.46
608.44	45350.22
608.60	45574.91
608.75	46230.26
608.91	45633.42
609.06	45741.09
609.22	45869.82
609.37	45118.51
609.53	45717.68
609.68	45514.06
609.84	45867.48
609.99	45457.88
610.15	45184.04
610.30	45500.01
610.46	44786.15
610.61	45490.65
610.76	45387.67
610.92	45586.61
611.07	45605.34
611.23	45656.83
611.38	45834.71
611.54	45078.72
611.69	45352.56
611.84	45315.11
612.00	45354.90
612.15	45130.21
612.31	45600.66
612.46	45481.29
612.62	45610.02
612.77	45174.68
612.92	45600.66
613.08	44851.69
613.23	45193.40
613.39	44641.04
613.54	44818.92
613.69	44898.50
613.85	44451.45
614.00	44772.11
614.15	44959.35
614.31	45001.48
614.46	45399.37
614.62	45132.55
614.77	44533.37
614.92	44334.43
615.08	45113.83
615.23	44561.46
615.38	44783.81
615.54	44318.04
615.69	44650.40
615.84	44172.93
616.00	44636.36
616.15	44598.91
616.30	44975.73
616.46	44327.41
616.61	44296.98
616.76	44470.18
616.92	44264.21
617.07	44491.24
617.22	44418.69
617.37	44563.80
617.53	45137.23
617.68	44460.82
617.83	44378.90
617.99	44348.47
618.14	44561.46
618.29	44348.47
618.45	44065.27
618.60	44102.71
618.75	43983.35
618.90	43936.54
619.06	43901.43
619.21	43697.80
619.36	43983.35
619.51	44123.78
619.67	43934.20
619.82	44112.08
619.97	44100.37
620.12	43585.46
620.28	43955.26
620.43	44238.47
620.58	43978.67
620.73	43786.74
620.89	43983.35
621.04	44474.86
621.19	43950.58
621.34	44076.97
621.49	43505.88
621.65	43192.25
621.80	43896.75
621.95	43861.64
622.10	44039.52
622.25	43618.22
622.41	43842.92
622.56	43697.80
622.71	44163.57
622.86	43665.03
623.01	43856.96
623.16	43480.13
623.32	43250.76
623.47	43292.89
623.62	43552.69
623.77	43456.73
623.92	43508.22
624.07	43166.50
624.23	43194.59
624.38	43597.16
624.53	43800.79
624.68	42939.47
624.83	43456.73
624.98	43098.62
625.13	42897.34
625.29	42850.53
625.44	43093.94
625.59	42986.28
625.74	42632.86
625.89	42693.71
626.04	42251.35
626.19	43152.46
626.34	42775.63
626.49	42948.83
626.65	42550.94
626.80	42761.59
626.95	42728.82
627.10	42167.09
627.25	42752.23
627.40	42429.23
627.55	42925.42
627.70	42466.68
627.85	42635.20
628.00	42197.52
628.15	42653.92
628.30	42698.39
628.45	42752.23
628.60	42469.02
628.76	42548.60
628.91	42164.75
629.06	42108.58
629.21	42162.41
629.36	42171.77
629.51	42171.77
629.66	41918.99
629.81	42110.92
629.96	42185.82
630.11	41933.04
630.26	42492.43
630.41	42010.28
630.56	42232.63
630.71	42024.32
630.86	42094.53
631.01	41907.29
631.16	41596.00
631.31	41675.58
631.46	41504.72
631.61	41888.57
631.76	41567.91
631.91	41876.86
632.06	41722.39
632.21	42270.08
632.36	41897.93
632.51	41588.98
632.66	41588.98
632.81	41855.80
632.96	41394.71
633.10	41422.80
633.25	41783.24
633.40	41001.50
633.55	41727.07
633.70	41294.07
633.85	41659.20
634.00	41322.16
634.15	41626.43
634.30	41441.53
634.45	41603.02
634.60	41312.80
634.75	41429.82
634.90	41113.85
635.05	41226.20
635.19	41008.53
635.34	41408.76
635.49	41006.19
635.64	41010.87
635.79	40753.41
635.94	41167.68
636.09	41345.56
636.24	40737.02
636.39	40896.18
636.53	40849.37
636.68	40940.65
636.83	40966.40
636.98	41200.45
637.13	41130.23
637.28	41020.23
637.43	41062.36
637.57	41226.20
637.72	40776.81
637.87	41099.81
638.02	40926.61
638.17	41127.89
638.32	40605.95
638.46	40385.94
638.61	40594.25
638.76	40254.87
638.91	40840.01
639.06	40854.05
639.20	40821.28
639.35	40978.10
639.50	40411.69
639.65	40643.40
639.80	40577.87
639.94	40594.25
640.09	40584.89
640.24	40252.53
640.39	39735.27
640.54	40189.34
640.68	39971.67
640.83	40208.06
640.98	40079.33
641.13	40165.93
641.27	40294.66
641.42	39885.07
641.57	40144.87
641.72	40158.91
641.86	40037.20
642.01	39578.46
642.16	40100.40
642.31	39737.62
642.45	39852.30
642.60	39674.42
642.75	39833.58
642.90	40203.38
643.04	39943.58
643.19	40076.99
643.34	39653.36
643.48	39995.07
643.63	39601.86
643.78	39615.91
643.93	39805.49
644.07	39374.83
644.22	39433.35
644.37	39353.77
644.51	39428.66
644.66	39164.18
644.81	40020.82
644.95	40147.21
645.10	39531.65
645.25	39971.67
645.39	39636.97
645.54	39395.90
645.69	39241.42
645.83	38990.98
645.98	39278.87
646.13	39065.88
646.27	39000.35
646.42	39093.97
646.57	38937.15
646.71	39026.09
646.86	39370.15
647.00	39044.82
647.15	38857.57
647.30	39007.37
647.44	39526.97
647.59	39246.10
647.74	38546.28
647.88	38471.39
648.03	38607.14
648.17	38873.96
648.32	38403.51
648.47	38679.69
648.61	38899.70
648.76	38859.91
648.90	38941.83
649.05	38967.58
649.20	39002.69
649.34	38600.12
649.49	38136.69
649.63	38859.91
649.78	38972.26
649.92	38478.41
650.07	38600.12
650.21	38565.01
650.36	38464.36
650.51	38553.30
650.65	38600.12
650.80	39185.25
650.94	38539.26
651.09	38148.39
651.23	38199.88
651.38	38433.94
651.52	38089.88
651.67	37958.81
651.81	38068.81
651.96	37890.93
652.10	37935.40
652.25	38447.98
652.39	38127.33
652.54	38307.55
652.68	38192.86
652.83	38330.95
652.97	38838.85
653.12	38394.15
653.26	37895.61
653.41	37792.63
653.55	38220.95
653.70	37855.82
653.84	37715.39
653.99	37766.88
654.13	37563.26
654.27	38057.11
654.42	37867.53
654.56	38426.92
654.71	37975.19
654.85	38022.00
655.00	37975.19
655.14	37195.79
655.29	36971.10
655.43	36989.83
655.57	37226.22
655.72	37029.62
655.86	36973.44
656.01	36884.50
656.15	36833.01
656.30	36765.14
656.44	37497.72
656.58	37633.47
656.73	37113.87
656.87	36851.73
657.01	37233.24
657.16	37127.92
657.30	36598.96
657.45	36872.80
657.59	36982.80
657.73	36669.17
657.88	36861.10
658.02	37333.89
658.16	36954.72
658.31	37308.14
658.45	37230.90
658.60	36921.95
658.74	37603.05
658.88	36900.89
659.03	36591.94
659.17	36676.19
659.31	36673.85
659.46	36598.96
659.60	36671.51
659.74	36348.52
659.89	35880.41
660.03	36835.35
660.17	36598.96
660.32	36444.48
660.46	36870.46
660.60	36196.38
660.74	36378.95
660.89	36622.36
661.03	36383.63
661.17	36088.72
661.32	36322.77
661.46	36084.04
661.60	35494.22
661.74	35749.34
661.89	35964.67
662.03	36058.29
662.17	36140.21
662.31	36142.55
662.46	36460.87
662.60	36257.24
662.74	35442.73
662.88	35721.26
663.03	35552.74
663.17	35707.21
663.31	35311.66
663.45	35442.73
663.60	35835.94
663.74	35255.49
663.88	35391.24
664.02	35117.40
664.17	34976.97
664.31	35115.06
664.45	35166.55
664.59	35222.72
664.73	35349.11
664.88	34960.58
665.02	34375.45
665.16	34630.57
665.30	34682.06
665.44	34345.02
665.59	34370.77
665.73	34618.86
665.87	34302.89
666.01	34288.85
666.15	34312.25
666.29	34246.72
666.44	34553.33
666.58	34377.79
666.72	34579.07
666.86	34064.16
667.00	34433.96
667.14	33600.73
667.28	34347.36
667.43	34122.67
667.57	33993.94
667.71	33867.55
667.85	33593.71
667.99	34307.57
668.13	33790.31
668.27	33731.80
668.41	33680.31
668.56	33703.71
668.70	33362.00
668.84	33525.83
668.98	33462.64
669.12	33483.70
669.26	33401.79
669.40	32528.77
669.54	33240.29
669.68	33188.80
669.82	32907.93
669.96	32816.65
670.10	32739.41
670.25	32987.51
670.39	32533.45
670.53	32769.84
670.67	32879.85
670.81	32582.60
670.95	32694.94
671.09	32442.17
671.23	32182.37
671.37	32491.32
671.51	32369.61
671.65	32271.31
671.79	31964.70
671.93	31957.67
672.07	31857.03
672.21	32112.15
672.35	31915.54
672.49	32025.55
672.63	31566.81
672.77	31690.85
672.91	31447.44
673.05	31494.25
673.19	31763.41
673.33	31428.71
673.47	31199.34
673.61	31576.17
673.75	30871.67
673.89	31562.12
674.03	30895.07
674.17	30778.04
674.31	31054.23
674.45	31227.43
674.59	30745.28
674.73	31328.07
674.87	30998.06
675.01	30347.39
675.15	30752.30
675.29	30431.65
675.43	30457.39
675.56	30661.02
675.70	30761.66
675.84	30441.01
675.98	29654.59
676.12	30569.74
676.26	30628.25
676.40	30003.33
676.54	30354.41
676.68	30450.37
676.82	29766.93
676.96	29890.98
677.10	29827.79
677.23	29385.43
677.37	29663.95
677.51	29457.98
677.65	28877.53
677.79	28919.66
677.93	28959.45
678.07	29013.28
678.21	28723.05
678.34	28350.91
678.48	28364.95
678.62	28290.06
678.76	28173.03
678.90	28261.97
679.04	28133.24
679.18	28320.48
679.31	28173.03
679.45	27704.92
679.59	27843.01
679.73	27517.68
679.87	27845.35
680.00	27681.52
680.14	28013.87
680.28	27276.60
680.42	27365.54
680.56	27314.05
680.70	27438.10
680.83	27243.84
680.97	27297.67
681.11	27342.14
681.25	27044.89
681.39	27250.86
681.52	26843.60
681.66	26689.13
681.80	26647.00
681.94	26539.33
682.07	26576.78
682.21	26218.68
682.35	26167.19
682.49	26494.86
682.62	26274.85
682.76	26389.54
682.90	26120.38
683.04	25883.98
683.17	25699.08
683.31	25628.87
683.45	25312.89
683.59	25600.78
683.72	25551.63
683.86	25715.47
684.00	25156.08
684.13	25109.27
684.27	24720.74
684.41	25092.88
684.55	24760.53
684.68	24849.47
684.82	24360.30
684.96	25055.43
685.09	24404.77
685.23	24624.78
685.37	24442.21
685.50	24746.48
685.64	24519.45
685.78	24084.11
685.91	24060.71
686.05	24496.05
686.19	23707.29
686.32	24091.13
686.46	23386.63
686.60	23281.31
686.73	23122.15
686.87	23323.44
687.01	23098.75
687.14	23122.15
687.28	22719.58
687.42	22806.18
687.55	22930.23
687.69	22728.94
687.82	22974.70
687.96	22754.69
688.10	22462.12
688.23	22663.41
688.37	22731.28
688.50	22618.94
688.64	22483.19
688.78	22171.89
688.91	21942.52
689.05	21902.73
689.18	21837.20
689.32	21680.38
689.46	21795.07
689.59	22209.34
689.73	22010.40
689.86	21790.39
690.00	21722.51
690.13	21628.89
690.27	21074.18
690.41	20936.09
690.54	21254.40
690.68	21088.23
690.81	21137.38
690.95	21142.06
691.08	20870.56
691.22	21060.14
691.35	20823.75
691.49	20877.58
691.62	20528.84
691.76	20828.43
691.89	20346.28
692.03	20624.80
692.16	20121.59
692.30	20114.56
692.43	20084.14
692.57	19910.94
692.70	20013.92
692.84	19995.20
692.97	19564.54
693.11	19667.52
693.24	19681.56
693.38	19538.79
693.51	19414.74
693.65	19232.18
693.78	19318.78
693.92	19009.83
694.05	19440.49
694.19	19140.90
694.32	19035.58
694.45	19281.33
694.59	19112.81
694.72	19084.73
694.86	18600.24
694.99	18523.00
695.13	18696.20
695.26	18504.28
695.39	18508.96
695.53	18558.11
695.66	18497.25
695.80	18312.35
695.93	18260.86
696.07	18073.62
696.20	18324.05
696.33	18019.78
696.47	17907.44
696.60	17605.51
696.73	17694.45
696.87	17825.52
697.00	17633.60
697.14	17589.13
697.27	17146.76
697.40	17303.58
697.54	17200.60
697.67	17132.72
697.80	17228.68
697.94	17055.48
698.07	17057.82
698.21	16945.48
698.34	16912.71
698.47	16828.45
698.61	16629.51
698.74	16699.72
698.87	16615.46
699.01	16418.86
699.14	16208.21
699.27	16250.34
699.40	16201.19
699.54	16313.53
699.67	16020.97
699.80	15889.90
699.94	15906.28
700.07	16025.65
700.20	16140.33
700.34	16163.74
700.47	15637.12
700.60	15843.09
700.73	15784.57
700.87	15543.50
701.00	15529.45
701.13	15166.67
701.26	15154.97
701.40	15199.44
701.53	15218.16
701.66	15161.99
701.79	14857.72
701.93	15077.73
702.06	14839.00
702.19	14965.39
702.32	14558.13
702.46	14487.92
702.59	14913.89
702.72	14806.23
702.85	14796.87
702.99	14881.13
703.12	14483.24
703.25	14504.30
703.38	14279.61
703.51	14441.11
703.65	14291.31
703.78	13921.51
703.91	13872.36
704.04	13593.83
704.17	13895.76
704.31	13823.20
704.44	13769.37
704.57	13774.05
704.70	13654.69
704.83	13579.79
704.96	13635.96
705.10	13497.87
705.23	13355.10
>>>>>End Processed Spectral Data<<<<<
