SpectraSuite Data File
++++++++++++++++++++++++++++++++++++
Date: Fri Oct 25 10:47:08 EDT 2013
User: price-jones
Dark Spectrum Present: No
Reference Spectrum Present: No
Number of Sampled Component Spectra: 1
Spectrometers: USB2+H05261
Integration Time (usec): 100000 (USB2+H05261)
Spectra Averaged: 1 (USB2+H05261)
Boxcar Smoothing: 0 (USB2+H05261)
Correct for Electrical Dark: No (USB2+H05261)
Strobe/Lamp Enabled: No (USB2+H05261)
Correct for Detector Non-linearity: No (USB2+H05261)
Correct for Stray Light: No (USB2+H05261)
Number of Pixels in Processed Spectrum: 2048
>>>>>Begin Processed Spectral Data<<<<<
365.73	142.77
365.92	142.77
366.12	142.77
366.32	37.45
366.52	65.54
366.72	63.19
366.91	0.00
367.11	0.00
367.31	86.60
367.51	44.47
367.70	4.68
367.90	46.81
368.10	37.45
368.30	18.72
368.49	44.47
368.69	91.28
368.89	21.06
369.09	16.38
369.28	70.22
369.48	81.92
369.68	124.05
369.87	112.35
370.07	95.96
370.27	187.24
370.47	161.50
370.66	407.25
370.86	409.59
371.06	491.51
371.25	411.93
371.45	435.34
371.65	425.98
371.84	362.78
372.04	414.27
372.24	519.60
372.44	407.25
372.63	554.71
372.83	442.36
373.03	510.24
373.22	521.94
373.42	437.68
373.62	533.64
373.81	493.85
374.01	545.34
374.21	596.84
374.40	543.00
374.60	627.26
374.79	521.94
374.99	557.05
375.19	617.90
375.38	582.79
375.58	524.28
375.78	589.82
375.97	660.03
376.17	603.86
376.37	627.26
376.56	535.98
376.76	540.66
376.95	550.03
377.15	667.05
377.35	648.33
377.54	599.18
377.74	521.94
377.93	697.48
378.13	634.29
378.33	690.46
378.52	561.73
378.72	641.31
378.91	566.41
379.11	622.58
379.31	624.92
379.50	664.71
379.70	629.60
379.89	620.24
380.09	613.22
380.28	608.54
380.48	650.67
380.68	608.54
380.87	613.22
381.07	692.80
381.26	592.16
381.46	575.77
381.65	606.20
381.85	645.99
382.04	620.24
382.24	667.05
382.43	690.46
382.63	641.31
382.83	667.05
383.02	685.78
383.22	671.73
383.41	610.88
383.61	690.46
383.80	744.29
384.00	744.29
384.19	702.16
384.39	711.52
384.58	795.78
384.78	734.93
384.97	755.99
385.17	788.76
385.36	760.67
385.56	702.16
385.75	713.86
385.95	748.97
386.14	753.65
386.34	767.70
386.53	739.61
386.72	842.59
386.92	835.57
387.11	812.17
387.31	770.04
387.50	709.18
387.70	798.12
387.89	880.04
388.09	887.06
388.28	819.19
388.48	798.12
388.67	919.83
388.86	894.08
389.06	863.66
389.25	959.62
389.45	882.38
389.64	795.78
389.84	847.27
390.03	863.66
390.22	905.79
390.42	875.36
390.61	798.12
390.81	819.19
391.00	966.64
391.19	1001.75
391.39	945.58
391.58	901.11
391.78	1025.15
391.97	931.53
392.16	772.38
392.36	880.04
392.55	950.26
392.75	964.30
392.94	933.87
393.13	919.83
393.33	889.40
393.52	940.90
393.71	999.41
393.91	1123.46
394.10	1039.20
394.29	1090.69
394.49	1055.58
394.68	1018.13
394.88	1060.26
395.07	1104.73
395.26	1046.22
395.46	1015.79
395.65	1167.93
395.84	1064.94
396.04	1158.57
396.23	1081.33
396.42	1086.01
396.62	1062.60
396.81	1062.60
397.00	1163.25
397.19	1177.29
397.39	1151.54
397.58	1205.38
397.77	1179.63
397.97	1219.42
398.16	1284.95
398.35	1259.21
398.55	1221.76
398.74	1245.16
398.93	1306.02
399.12	1317.72
399.32	1266.23
399.51	1317.72
399.70	1366.87
399.90	1341.13
400.09	1425.39
400.28	1362.19
400.47	1345.81
400.67	1537.73
400.86	1460.49
401.05	1364.53
401.24	1476.88
401.44	1472.20
401.63	1502.62
401.82	1441.77
402.01	1394.96
402.21	1479.22
402.40	1490.92
402.59	1516.67
402.78	1544.75
402.97	1509.65
403.17	1455.81
403.36	1514.33
403.55	1563.48
403.74	1703.91
403.93	1561.14
404.13	1511.99
404.32	1652.42
404.51	1526.03
404.70	1680.50
404.89	1647.74
405.09	1736.68
405.28	1724.97
405.47	1687.53
405.66	1703.91
405.85	1804.55
406.05	1832.64
406.24	1753.06
406.43	1727.32
406.62	1802.21
406.81	1844.34
407.00	1760.08
407.20	1785.83
407.39	1799.87
407.58	1785.83
407.77	1893.49
407.96	1870.09
408.15	1827.96
408.34	1877.11
408.54	1912.22
408.73	1952.01
408.92	1973.07
409.11	2059.67
409.30	1984.77
409.49	1949.67
409.68	2012.86
409.87	2017.54
410.07	2073.71
410.26	2118.18
410.45	2104.14
410.64	2062.01
410.83	2090.10
411.02	2146.27
411.21	2263.30
411.40	2246.91
411.59	2193.08
411.78	2153.29
411.98	2228.19
412.17	2286.70
412.36	2279.68
412.55	2284.36
412.74	2286.70
412.93	2284.36
413.12	2361.60
413.31	2478.63
413.50	2375.64
413.69	2394.37
413.88	2352.24
414.07	2502.03
414.26	2560.55
414.45	2651.83
414.64	2574.59
414.83	2708.00
415.02	2637.78
415.22	2668.21
415.41	2555.86
415.60	2684.59
415.79	2801.62
415.98	2747.79
416.17	2832.05
416.36	2818.00
416.55	2803.96
416.74	2939.71
416.93	2747.79
417.12	2895.24
417.31	2951.42
417.50	2944.39
417.69	3049.72
417.88	2993.55
418.07	2970.14
418.26	2993.55
418.45	3082.49
418.64	3169.09
418.83	3164.40
419.02	2988.86
419.21	3159.72
419.39	3143.34
419.58	3049.72
419.77	3038.02
419.96	3096.53
420.15	3239.30
420.34	3243.98
420.53	3183.13
420.72	3272.07
420.91	3293.13
421.10	3323.56
421.29	3255.69
421.48	3199.51
421.67	3375.05
421.86	3325.90
422.05	3400.80
422.24	3290.79
422.43	3241.64
422.61	3339.94
422.80	3468.67
422.99	3506.12
423.18	3508.46
423.37	3487.40
423.56	3487.40
423.75	3452.29
423.94	3412.50
424.13	3229.94
424.32	3295.47
424.50	3564.64
424.69	3520.17
424.88	3695.71
425.07	3517.83
425.26	3431.23
425.45	3508.46
425.64	3522.51
425.83	3400.80
426.01	3623.15
426.20	3471.01
426.39	3611.45
426.58	3566.98
426.77	3400.80
426.96	3536.55
427.15	3597.40
427.33	3574.00
427.52	3578.68
427.71	3566.98
427.90	3644.21
428.09	3676.98
428.28	3684.00
428.46	3777.62
428.65	3644.21
428.84	3777.62
429.03	3770.60
429.22	3557.61
429.40	3707.41
429.59	3709.75
429.78	3524.85
429.97	3590.38
430.16	3700.39
430.34	3653.58
430.53	3817.41
430.72	3854.86
430.91	3927.42
431.10	3892.31
431.28	3925.08
431.47	3995.29
431.66	4046.79
431.85	3829.12
432.03	4138.07
432.22	4102.96
432.41	4203.60
432.60	4077.21
432.79	4102.96
432.97	4196.58
433.16	4128.70
433.35	4072.53
433.54	4053.81
433.72	4177.86
433.91	4154.45
434.10	4269.14
434.28	4107.64
434.47	4353.40
434.66	4397.87
434.85	4360.42
435.03	4390.84
435.22	4458.72
435.41	4545.32
435.59	4404.89
435.78	4608.51
435.97	4542.98
436.16	4409.57
436.34	4435.32
436.53	4458.72
436.72	4676.39
436.90	4306.59
437.09	4613.20
437.28	4468.08
437.46	4517.23
437.65	4629.58
437.84	4489.15
438.02	4540.64
438.21	4608.51
438.40	4582.77
438.58	4786.40
438.77	4706.82
438.96	4896.40
439.14	4917.47
439.33	5004.07
439.52	4873.00
439.70	4903.42
439.89	5123.43
440.08	5121.09
440.26	5167.90
440.45	5095.35
440.63	5093.01
440.82	5158.54
441.01	5226.42
441.19	5160.88
441.38	5610.26
441.57	5366.85
441.75	5364.51
441.94	5448.77
442.12	5397.28
442.31	5741.33
442.50	5462.81
442.68	5444.09
442.87	5514.30
443.05	5530.69
443.24	5713.25
443.43	5638.35
443.61	5664.10
443.80	5797.51
443.98	5621.97
444.17	5551.75
444.35	5600.90
444.54	5823.25
444.73	5774.10
444.91	5554.09
445.10	5788.14
445.28	5593.88
445.47	5603.24
445.65	5696.86
445.84	5715.59
446.02	5778.78
446.21	5834.96
446.39	5504.94
446.58	5799.85
446.77	5839.64
446.95	5802.19
447.14	5870.06
447.32	5860.70
447.51	5877.09
447.69	5827.93
447.88	5788.14
448.06	5809.21
448.25	5858.36
448.43	5895.81
448.62	5909.85
448.80	6012.84
448.99	5937.94
449.17	6162.63
449.36	6071.35
449.54	6113.48
449.73	6183.70
449.91	6190.72
450.10	6139.23
450.28	6274.98
450.46	6246.89
450.65	6356.90
450.83	6394.34
451.02	6279.66
451.20	6272.64
451.39	6370.94
451.57	6314.77
451.76	6183.70
451.94	6265.61
452.13	6497.33
452.31	6375.62
452.49	6239.87
452.68	6420.09
452.86	6441.15
453.05	6651.80
453.23	6597.97
453.42	6487.96
453.60	6551.16
453.78	6670.53
453.97	6293.70
454.15	6445.84
454.34	6406.05
454.52	6628.40
454.70	6548.82
454.89	6612.01
455.07	6480.94
455.26	6630.74
455.44	6782.87
455.62	6691.59
455.81	6642.44
455.99	7016.93
456.17	6970.12
456.36	6932.67
456.54	6869.47
456.73	6949.05
456.91	7143.32
457.09	7016.93
457.28	7424.18
457.46	6998.20
457.64	7098.84
457.83	7045.01
458.01	6963.09
458.19	7035.65
458.38	7145.66
458.56	7400.77
458.74	7468.65
458.93	7297.79
459.11	7241.62
459.29	7368.01
459.48	7297.79
459.66	7243.96
459.84	7286.09
460.03	7382.05
460.21	7454.61
460.39	7557.59
460.57	7424.18
460.76	7569.29
460.94	7782.28
461.12	7571.63
461.31	7667.60
461.49	7555.25
461.67	7478.01
461.85	7695.68
462.04	7688.66
462.22	8271.45
462.40	7854.84
462.59	7793.98
462.77	7854.84
462.95	7819.73
463.13	7810.37
463.32	7894.63
463.50	7955.48
463.68	7999.95
463.86	7817.39
464.05	7857.18
464.23	7861.86
464.41	7927.39
464.59	7908.67
464.78	8056.12
464.96	8046.76
465.14	8154.43
465.32	8119.32
465.50	8217.62
465.69	8131.02
465.87	8079.53
466.05	8306.56
466.23	8245.71
466.41	8243.37
466.60	8404.86
466.78	8196.56
466.96	8224.64
467.14	8360.39
467.32	8404.86
467.51	8451.67
467.69	8194.22
467.87	8245.71
468.05	8306.56
468.23	8442.31
468.41	8423.59
468.60	8430.61
468.78	8407.20
468.96	8362.73
469.14	8692.75
469.32	8669.34
469.50	8344.01
469.69	8762.97
469.87	8840.20
470.05	8954.89
470.23	8842.54
470.41	8891.70
470.59	8922.12
470.77	8870.63
470.95	8952.55
471.14	9125.75
471.32	8772.33
471.50	9062.55
471.68	9057.87
471.86	9146.81
472.04	9165.54
472.22	9371.50
472.40	9284.91
472.58	9336.40
472.77	9174.90
472.95	9666.41
473.13	9598.54
473.31	9315.33
473.49	9315.33
473.67	9252.14
473.85	9437.04
474.03	9706.20
474.21	9598.54
474.39	9984.73
474.57	9916.85
474.75	9977.70
474.93	9949.62
475.12	9994.09
475.30	10143.88
475.48	10160.27
475.66	10223.46
475.84	10207.08
476.02	10249.21
476.20	10239.84
476.38	10427.09
476.56	10513.69
476.74	10675.18
476.92	10530.07
477.10	10801.57
477.28	11014.56
477.46	10848.38
477.64	10965.41
477.82	10942.00
478.00	11143.29
478.18	11384.37
478.36	11059.03
478.54	11257.98
478.72	11365.64
478.90	11571.61
479.08	11529.48
479.26	11510.75
479.44	11698.00
479.62	11695.66
479.80	11782.26
479.98	11988.22
480.16	12121.63
480.34	11999.93
480.52	12355.69
480.70	12170.79
480.88	12329.94
481.06	12489.10
481.24	12435.27
481.41	12578.04
481.59	12690.38
481.77	12908.05
481.95	12793.37
482.13	12823.80
482.31	13142.11
482.49	13348.08
482.67	13252.11
482.85	13483.83
483.03	13558.72
483.21	13640.64
483.39	13727.24
483.57	13703.84
483.74	13685.11
483.92	13928.53
484.10	14139.18
484.28	14303.01
484.46	14490.26
484.64	14682.18
484.82	14455.15
485.00	14384.93
485.18	14717.29
485.35	14979.43
485.53	14745.38
485.71	14862.40
485.89	15124.54
486.07	15035.60
486.25	14965.39
486.43	15246.25
486.61	15529.45
486.78	15742.44
486.96	15697.97
487.14	16074.80
487.32	16332.26
487.50	16208.21
487.68	16276.09
487.85	16575.67
488.03	16713.77
488.21	16793.34
488.39	16512.48
488.57	16952.50
488.75	17081.23
488.92	17216.98
489.10	17436.99
489.28	17359.75
489.46	17568.06
489.64	17687.43
489.81	18223.41
489.99	18104.04
490.17	18256.18
490.35	18279.58
490.53	18005.74
490.70	18644.71
490.88	18354.48
491.06	18766.42
491.24	18637.69
491.41	18892.80
491.59	18841.31
491.77	18705.56
491.95	19168.99
492.13	19487.30
492.30	19499.00
492.48	19704.97
492.66	19601.99
492.84	19594.96
493.01	19906.26
493.19	19882.85
493.37	19997.54
493.54	20154.35
493.72	20657.57
493.90	20556.93
494.08	20524.16
494.25	20753.53
494.43	20898.64
494.61	21137.38
494.79	21027.37
494.96	21128.02
495.14	21144.40
495.32	21479.10
495.49	21425.26
495.67	21413.56
495.85	21724.85
496.02	22033.80
496.20	22286.58
496.38	22031.46
496.55	22462.12
496.73	22740.64
496.91	22242.11
497.09	22281.90
497.26	22544.04
497.44	22370.84
497.62	22897.46
497.79	23332.80
497.97	23019.17
498.14	22944.27
498.32	23241.52
498.50	23550.47
498.67	23716.65
498.85	23520.04
499.03	23763.46
499.20	23847.72
499.38	23824.31
499.56	23896.87
499.73	23875.80
499.91	24184.76
500.08	24582.65
500.26	24283.06
500.44	24243.27
500.61	24570.94
500.79	24329.87
500.97	24215.18
501.14	24725.42
501.32	24505.41
501.49	24589.67
501.67	25111.61
501.84	25165.44
502.02	25167.78
502.20	25340.98
502.37	25322.26
502.55	25584.40
502.72	25523.54
502.90	25867.60
503.07	25504.82
503.25	25621.84
503.43	26019.74
503.60	25795.04
503.78	25986.97
503.95	25853.56
504.13	26134.42
504.30	26518.27
504.48	26080.59
504.65	26225.70
504.83	26544.02
505.01	26848.29
505.18	26251.45
505.36	27019.14
505.53	26740.62
505.71	27005.10
505.88	26668.06
506.06	26700.83
506.23	27089.36
506.41	26899.78
506.58	27730.67
506.76	27257.88
506.93	27250.86
507.11	27274.26
507.28	27468.53
507.46	27653.43
507.63	28034.94
507.81	28158.99
507.98	27672.15
508.16	28109.83
508.33	27833.65
508.50	28170.69
508.68	28030.26
508.85	28416.44
509.03	28404.74
509.20	28870.51
509.38	28641.14
509.55	28718.37
509.73	28606.03
509.90	28790.93
510.08	28790.93
510.25	28858.81
510.42	29071.79
510.60	29050.73
510.77	29137.33
510.95	29113.92
511.12	29090.52
511.30	29453.30
511.47	29624.16
511.64	29411.17
511.82	29844.17
511.99	29670.97
512.17	29790.34
512.34	29549.26
512.51	29745.87
512.69	30101.63
512.86	30164.82
513.04	30267.81
513.21	29907.37
513.38	30209.29
513.56	30436.33
513.73	30380.15
513.90	30162.48
514.08	30778.04
514.25	30494.84
514.43	30548.67
514.60	30487.82
514.77	30403.56
514.95	31199.34
515.12	30995.71
515.29	30742.94
515.47	31512.97
515.64	31220.41
515.81	31079.97
515.99	31307.01
516.16	31562.12
516.33	31257.85
516.51	31377.22
516.68	31374.88
516.85	31601.91
517.03	31395.95
517.20	31805.54
517.37	32023.21
517.54	31625.32
517.72	32191.73
517.89	32086.40
518.06	31676.81
518.24	32018.53
518.41	31503.61
518.58	31913.20
518.75	31955.33
518.93	32425.78
519.10	32575.58
519.27	32170.66
519.45	32477.27
519.62	32498.34
519.79	32842.40
519.96	32980.49
520.14	32917.29
520.31	32739.41
520.48	33067.09
520.65	33029.64
520.83	33057.73
521.00	33343.27
521.17	32936.02
521.34	33656.90
521.52	33273.06
521.69	33205.18
521.86	33612.43
522.03	33787.97
522.20	33469.66
522.38	33614.77
522.55	33666.27
522.72	33696.69
522.89	33544.56
523.07	34312.25
523.24	33647.54
523.41	34527.58
523.58	34202.25
523.75	34550.99
523.92	34396.51
524.10	34747.59
524.27	34513.54
524.44	34405.88
524.61	34368.43
524.78	34991.01
524.96	35021.44
525.13	34682.06
525.30	34728.87
525.47	35033.14
525.64	34983.99
525.81	34855.26
525.98	35222.72
526.16	35122.08
526.33	35234.42
526.50	35526.99
526.67	34981.65
526.84	34733.55
527.01	35292.94
527.18	35297.62
527.36	35433.37
527.53	35545.72
527.70	35910.84
527.87	35934.24
528.04	35782.11
528.21	35732.96
528.38	35882.75
528.55	36023.19
528.72	36051.27
528.89	35999.78
529.07	35765.73
529.24	36364.90
529.41	36123.83
529.58	36062.97
529.75	35967.01
529.92	35988.08
530.09	36060.63
530.26	36531.08
530.43	36769.82
530.60	35852.33
530.77	36187.02
530.94	36903.23
531.11	36526.40
531.28	36844.71
531.46	36830.67
531.63	37095.15
531.80	36971.10
531.97	37163.03
532.14	36992.17
532.31	36891.52
532.48	37158.34
532.65	37081.11
532.82	37017.91
532.99	37116.22
533.16	36889.18
533.33	37251.97
533.50	37537.51
533.67	37612.41
533.84	37237.92
534.01	37729.44
534.18	37469.64
534.35	37930.72
534.52	37729.44
534.69	37659.22
534.86	37907.32
535.03	37315.16
535.20	38206.90
535.37	38061.79
535.54	38253.72
535.71	38244.35
535.88	37832.42
536.05	38068.81
536.22	38195.20
536.38	38672.67
536.55	38363.72
536.72	38014.98
536.89	38052.43
537.06	38061.79
537.23	38534.58
537.40	37970.51
537.57	38213.93
537.74	38518.20
537.91	39260.15
538.08	38698.42
538.25	38567.35
538.42	38740.55
538.59	38869.28
538.75	38305.21
538.92	39028.43
539.09	38761.61
539.26	38803.74
539.43	39157.16
539.60	39145.46
539.77	38670.33
539.94	38911.41
540.11	38993.32
540.28	39089.29
540.44	39384.19
540.61	38976.94
540.78	38820.13
540.95	38976.94
541.12	38934.81
541.29	39236.74
541.46	38834.17
541.62	39379.51
541.79	39030.77
541.96	38998.01
542.13	39901.45
542.30	39779.74
542.47	39564.42
542.63	39723.57
542.80	39716.55
542.97	40369.56
543.14	40444.46
543.31	39845.28
543.48	40608.29
543.64	40556.80
543.81	40509.99
543.98	40388.28
544.15	40250.19
544.32	40563.82
544.48	40229.13
544.65	40360.20
544.82	40212.74
544.99	40170.61
545.16	40451.48
545.32	40648.08
545.49	40989.80
545.66	40603.61
545.83	40502.97
546.00	40758.09
546.16	40308.71
546.33	40549.78
546.50	39995.07
546.67	40699.58
546.83	39817.19
547.00	40519.35
547.17	40814.26
547.34	40594.25
547.50	40903.20
547.67	41191.09
547.84	41305.77
548.00	41188.75
548.17	41256.62
548.34	41092.79
548.51	41584.30
548.67	41425.14
548.84	41228.54
549.01	40875.12
549.18	41319.82
549.34	41336.20
549.51	41808.99
549.68	41511.74
549.84	41628.77
550.01	41773.88
550.18	41111.51
550.34	41677.92
550.51	41532.81
550.68	41516.42
550.84	41296.41
551.01	41771.54
551.18	41392.37
551.34	41563.23
551.51	42043.04
551.68	41698.98
551.84	41900.27
552.01	41900.27
552.18	41907.29
552.34	41771.54
552.51	42078.15
552.68	41841.76
552.84	41794.95
553.01	42384.76
553.18	42476.04
553.34	42061.77
553.51	42075.81
553.67	41942.40
553.84	42405.83
554.01	42403.49
554.17	42485.40
554.34	42440.93
554.51	41963.46
554.67	42536.90
554.84	42887.98
555.00	42485.40
555.17	42192.84
555.33	42679.67
555.50	42520.51
555.67	42674.99
555.83	42490.09
556.00	42792.01
556.16	43199.27
556.33	42880.95
556.50	42682.01
556.66	42885.64
556.83	42525.19
556.99	42986.28
557.16	42792.01
557.32	42754.57
557.49	42841.17
557.65	42595.41
557.82	42918.40
557.98	42756.91
558.15	42836.48
558.32	43091.60
558.48	42923.08
558.65	43054.15
558.81	42873.93
558.98	42986.28
559.14	42869.25
559.31	42756.91
559.47	43395.87
559.64	43416.94
559.80	43646.31
559.97	43494.18
560.13	42981.60
560.30	43000.32
560.46	43267.14
560.63	43222.67
560.79	43545.67
560.96	43540.99
561.12	42789.67
561.29	43182.88
561.45	43435.66
561.61	43332.68
561.78	43182.88
561.94	43264.80
562.11	43356.08
562.27	43129.05
562.44	42955.85
562.60	43421.62
562.77	43758.66
562.93	43381.83
563.10	43468.43
563.26	42927.77
563.42	43814.83
563.59	43367.79
563.75	43503.54
563.92	43412.26
564.08	43606.52
564.24	43744.61
564.41	43852.28
564.57	43386.51
564.74	43569.07
564.90	44044.20
565.07	43730.57
565.23	43761.00
565.39	43367.79
565.56	43812.49
565.72	43599.50
565.88	44046.54
566.05	43615.88
566.21	43931.86
566.38	43803.13
566.54	43540.99
566.70	44123.78
566.87	43761.00
567.03	43611.20
567.19	43950.58
567.36	43775.04
567.52	43470.77
567.68	44144.84
567.85	43646.31
568.01	43936.54
568.17	43723.55
568.34	44322.72
568.50	43899.09
568.66	43463.75
568.83	44126.12
568.99	43526.94
569.15	43517.58
569.32	43761.00
569.48	43695.46
569.64	44369.54
569.81	44048.88
569.97	43964.62
570.13	44322.72
570.30	43430.98
570.46	43330.34
570.62	43515.24
570.78	43667.37
570.95	43681.42
571.11	43821.85
571.27	43861.64
571.43	44041.86
571.60	43981.01
571.76	43571.41
571.92	44046.54
572.09	43725.89
572.25	43545.67
572.41	44020.80
572.57	43810.15
572.74	44313.36
572.90	44374.22
573.06	43854.62
573.22	43943.56
573.38	44144.84
573.55	43646.31
573.71	43997.39
573.87	43585.46
574.03	44044.20
574.20	44191.65
574.36	43662.69
574.52	44477.20
574.68	44083.99
574.84	44318.04
575.01	44348.47
575.17	44004.41
575.33	44247.83
575.49	44072.29
575.65	44076.97
575.82	44299.32
575.98	44048.88
576.14	44790.83
576.30	44437.41
576.46	44282.94
576.62	44086.33
576.79	44273.57
576.95	43910.79
577.11	43861.64
577.27	44554.44
577.43	44542.74
577.59	44048.88
577.75	44318.04
577.92	43924.83
578.08	43973.98
578.24	43969.30
578.40	44123.78
578.56	44189.31
578.72	44451.45
578.88	44603.59
579.04	44156.55
579.21	44432.73
579.37	44341.45
579.53	43957.60
579.69	44069.95
579.85	44626.99
580.01	44123.78
580.17	44465.50
580.33	44737.00
580.49	44734.66
580.65	44957.01
580.82	44439.75
580.98	44201.02
581.14	43955.26
581.30	44573.16
581.46	44507.63
581.62	44275.91
581.78	44163.57
581.94	44631.68
582.10	44418.69
582.26	44591.89
582.42	44273.57
582.58	44172.93
582.74	43746.95
582.90	44418.69
583.06	44208.04
583.22	44451.45
583.38	44657.42
583.54	44388.26
583.70	44069.95
583.86	44079.31
584.02	44039.52
584.18	44282.94
584.34	44264.21
584.50	44418.69
584.66	44416.35
584.82	44818.92
584.98	44552.10
585.14	44292.30
585.30	44095.69
585.46	44322.72
585.62	44364.85
585.78	44720.62
585.94	43943.56
586.10	44355.49
586.26	44275.91
586.42	44582.52
586.58	44414.01
586.74	44734.66
586.90	44119.10
587.06	44243.15
587.22	44952.33
587.38	44395.28
587.54	44734.66
587.70	44863.39
587.86	44790.83
588.02	45340.86
588.18	44495.92
588.34	44385.92
588.49	44371.88
588.65	44083.99
588.81	43950.58
588.97	44444.43
589.13	44318.04
589.29	44233.78
589.45	44964.03
589.61	44664.44
589.77	44601.25
589.93	44690.19
590.08	44746.36
590.24	44938.29
590.40	45059.99
590.56	44748.70
590.72	44760.40
590.88	44488.90
591.04	44676.15
591.20	45127.87
591.35	45317.45
591.51	45116.17
591.67	44456.14
591.83	44903.18
591.99	44626.99
592.15	44329.75
592.31	44671.46
592.46	44493.58
592.62	44128.46
592.78	44830.62
592.94	45130.21
593.10	45069.36
593.26	44753.38
593.41	44804.88
593.57	44783.81
593.73	44706.57
593.89	44662.10
594.05	45120.85
594.20	44559.12
594.36	44650.40
594.52	44729.98
594.68	44755.72
594.84	44875.09
594.99	45015.52
595.15	44584.86
595.31	45249.58
595.47	44949.99
595.62	45022.54
595.78	44844.66
595.94	45052.97
596.10	45443.84
596.25	44641.04
596.41	44793.17
596.57	44465.50
596.73	44701.89
596.88	44446.77
597.04	44762.75
597.20	44744.02
597.36	44643.38
597.51	45125.53
597.67	45015.52
597.83	45249.58
597.99	45223.83
598.14	44741.68
598.30	45029.57
598.46	45567.89
598.61	44769.77
598.77	44921.90
598.93	44538.05
599.09	44608.27
599.24	44882.11
599.40	44945.31
599.56	45277.66
599.71	44964.03
599.87	45340.86
600.03	45233.19
600.18	44505.29
600.34	45151.27
600.50	45029.57
600.65	44912.54
600.81	45319.79
600.97	45701.30
601.12	45251.92
601.28	45174.68
601.44	44662.10
601.59	44718.28
601.75	44776.79
601.91	44882.11
602.06	44823.60
602.22	44933.60
602.37	45088.08
602.53	44718.28
602.69	44847.00
602.84	45015.52
603.00	44882.11
603.16	44484.22
603.31	44474.86
603.47	44458.48
603.62	44683.17
603.78	44641.04
603.94	45209.79
604.09	45010.84
604.25	45198.09
604.40	45265.96
604.56	44882.11
604.71	44854.03
604.87	44804.88
605.03	44781.47
605.18	44634.02
605.34	44570.82
605.49	44313.36
605.65	44631.68
605.80	44287.62
605.96	44767.43
606.12	44626.99
606.27	45177.02
606.43	44835.30
606.58	44435.07
606.74	44250.17
606.89	44659.76
607.05	44664.44
607.20	44638.70
607.36	44814.24
607.51	44816.58
607.67	44942.97
607.82	44596.57
607.98	44994.46
608.13	44823.60
608.29	44435.07
608.44	44519.33
608.60	44067.61
608.75	44315.70
608.91	44500.61
609.06	44006.75
609.22	44603.59
609.37	44079.31
609.53	44910.20
609.68	44694.87
609.84	44243.15
609.99	44339.11
610.15	44463.16
610.30	44318.04
610.46	44357.83
610.61	44247.83
610.76	44474.86
610.92	44404.64
611.07	44133.14
611.23	44231.44
611.38	44119.10
611.54	43955.26
611.69	43784.40
611.84	44013.77
612.00	43948.24
612.15	44285.28
612.31	44545.08
612.46	43917.81
612.62	44416.35
612.77	44371.88
612.92	44336.77
613.08	44081.65
613.23	43842.92
613.39	44083.99
613.54	44137.82
613.69	44198.68
613.85	44409.32
614.00	44250.17
614.15	44491.24
614.31	43849.94
614.46	44645.72
614.62	44027.82
614.77	44009.09
614.92	43936.54
615.08	43756.32
615.23	43871.00
615.38	43964.62
615.54	43842.92
615.69	43641.63
615.84	43372.47
616.00	43854.62
616.15	43732.91
616.30	44048.88
616.46	43454.39
616.61	43892.07
616.76	43714.19
616.92	43290.55
617.07	43332.68
617.22	43311.61
617.37	43203.95
617.53	43856.96
617.68	43803.13
617.83	43414.60
617.99	43784.40
618.14	43962.28
618.29	43835.89
618.45	43019.05
618.60	43477.79
618.75	42988.62
618.90	43241.40
619.06	43515.24
619.21	43229.69
619.36	43222.67
619.51	43346.72
619.67	42827.12
619.82	43367.79
619.97	43349.06
620.12	43243.74
620.28	42632.86
620.43	43225.01
620.58	43187.56
620.73	43035.43
620.89	42630.52
621.04	43093.94
621.19	43122.03
621.34	43086.92
621.49	42698.39
621.65	42754.57
621.80	43030.75
621.95	42686.69
622.10	42653.92
622.25	42836.48
622.41	42511.15
622.56	42838.83
622.71	42876.27
622.86	43044.79
623.01	42686.69
623.16	42848.19
623.32	42820.10
623.47	43021.39
623.62	42990.96
623.77	42293.48
623.92	42347.31
624.07	42256.03
624.23	42054.75
624.38	42148.37
624.53	42321.57
624.68	42873.93
624.83	42480.72
624.98	42211.56
625.13	42059.43
625.29	42597.75
625.44	42621.16
625.59	42328.59
625.74	42270.08
625.89	41977.51
626.04	41830.05
626.19	41907.29
626.34	42384.76
626.49	42237.31
626.65	42522.85
626.80	42150.71
626.95	41544.51
627.10	41794.95
627.25	41663.88
627.40	41476.63
627.55	41385.35
627.70	41567.91
627.85	41273.01
628.00	41736.43
628.15	41858.14
628.30	41729.41
628.45	42054.75
628.60	41731.75
628.76	41661.54
628.91	41928.36
629.06	41757.50
629.21	41607.70
629.36	41640.47
629.51	41233.22
629.66	41638.13
629.81	40966.40
629.96	41684.94
630.11	41343.22
630.26	41621.75
630.41	41478.97
630.56	41755.16
630.71	41918.99
630.86	41542.17
631.01	41422.80
631.16	41483.66
631.31	41017.89
631.46	40842.35
631.61	41530.47
631.76	41074.06
631.91	41366.63
632.06	41074.06
632.21	41134.92
632.36	41680.26
632.51	40966.40
632.66	40987.46
632.81	40620.00
632.96	41340.88
633.10	40584.89
633.25	40605.95
633.40	40690.21
633.55	40989.80
633.70	41228.54
633.85	41193.43
634.00	40921.93
634.15	40837.67
634.30	40832.99
634.45	40498.29
634.60	40945.33
634.75	40840.01
634.90	41036.61
635.05	40634.04
635.19	40566.16
635.34	41177.04
635.49	40362.54
635.64	40339.13
635.79	40397.65
635.94	40184.66
636.09	40453.82
636.24	40219.77
636.39	39800.81
636.53	40147.21
636.68	40095.72
636.83	39983.37
636.98	40058.27
637.13	40224.45
637.28	40353.18
637.43	40376.58
637.57	39997.41
637.72	40238.49
637.87	39920.18
638.02	40381.26
638.17	40130.83
638.32	39517.60
638.46	39639.31
638.61	40020.82
638.76	39840.60
638.91	39278.87
639.06	39583.14
639.20	40046.57
639.35	39716.55
639.50	39831.24
639.65	39941.24
639.80	40568.51
639.94	40060.61
640.09	39868.69
640.24	39522.29
640.39	39313.98
640.54	39648.68
640.68	39548.03
640.83	39349.09
640.98	39302.28
641.13	39501.22
641.27	39690.80
641.42	40128.48
641.57	39636.97
641.72	39442.71
641.86	39047.16
642.01	39241.42
642.16	39358.45
642.31	38827.15
642.45	38995.67
642.60	38792.04
642.75	39264.83
642.90	39007.37
643.04	39126.74
643.19	39281.21
643.34	39227.38
643.48	39070.56
643.63	38623.52
643.78	39126.74
643.93	38780.34
644.07	38937.15
644.22	38525.22
644.37	38728.84
644.51	39002.69
644.66	38817.78
644.81	38679.69
644.95	39122.05
645.10	39005.03
645.25	39138.44
645.39	39576.12
645.54	39232.06
645.69	38682.03
645.83	38836.51
645.98	39089.29
646.13	38892.68
646.27	39243.76
646.42	38845.87
646.57	39000.35
646.71	38918.43
646.86	38738.21
647.00	38740.55
647.15	38483.09
647.30	39304.62
647.44	38974.60
647.59	38553.30
647.74	38312.23
647.88	38134.35
648.03	38555.64
648.17	38492.45
648.32	38234.99
648.47	38305.21
648.61	38087.54
648.76	38455.00
648.90	38452.66
649.05	38534.58
649.20	38579.05
649.34	38115.62
649.49	38408.19
649.63	38314.57
649.78	38249.03
649.92	38089.88
650.07	38710.12
650.21	37792.63
650.36	37954.13
650.51	37813.70
650.65	38223.29
650.80	38705.44
650.94	38450.32
651.09	38085.20
651.23	38162.43
651.38	37860.51
651.52	37673.26
651.67	37860.51
651.81	38073.49
651.96	37443.89
652.10	37659.22
652.25	37469.64
652.39	37406.44
652.54	37586.66
652.68	37392.40
652.83	37710.71
652.97	37769.22
653.12	37696.67
653.26	37474.32
653.41	37581.98
653.55	37359.63
653.70	37904.98
653.84	37343.25
653.99	37357.29
654.13	37787.95
654.27	37099.83
654.42	37280.05
654.56	37455.59
654.71	37319.84
654.85	37244.94
655.00	37401.76
655.14	37034.30
655.29	37209.84
655.43	37024.93
655.57	36786.20
655.72	37151.32
655.86	36704.28
656.01	36795.56
656.15	36985.15
656.30	36891.52
656.44	36971.10
656.58	36854.08
656.73	36549.81
656.87	36636.41
657.01	36488.95
657.16	36577.89
657.30	36488.95
657.45	36751.09
657.59	36673.85
657.73	36624.70
657.88	36711.30
658.02	36467.89
658.16	36282.98
658.31	36685.56
658.45	36582.57
658.60	36570.87
658.74	36591.94
658.88	36650.45
659.03	36800.24
659.17	36341.50
659.31	35814.88
659.46	35622.95
659.60	36044.25
659.74	36070.00
659.89	35959.99
660.03	36163.62
660.17	36126.17
660.32	36278.30
660.46	36378.95
660.60	36243.20
660.74	35915.52
660.89	35772.75
661.03	36009.14
661.17	35522.31
661.32	35573.80
661.46	35651.04
661.60	35454.44
661.74	35363.15
661.89	35372.52
662.03	35440.39
662.17	35470.82
662.31	35461.46
662.46	35564.44
662.60	35852.33
662.74	35632.32
662.88	35531.67
663.03	34881.00
663.17	35395.92
663.31	34815.47
663.45	35077.61
663.60	34719.51
663.74	34735.89
663.88	34939.52
664.02	34766.32
664.17	34925.47
664.31	34555.67
664.45	34412.90
664.59	34670.36
664.73	34628.23
664.88	34686.74
665.02	34265.44
665.16	34635.25
665.30	34445.66
665.44	34323.96
665.59	34171.82
665.73	33949.47
665.87	34169.48
666.01	34089.90
666.15	34225.65
666.29	34391.83
666.44	34120.33
666.58	34190.55
666.72	34251.40
666.86	34132.03
667.00	34195.23
667.14	33771.59
667.28	33404.13
667.43	33647.54
667.57	33633.50
667.71	33401.79
667.85	33369.02
667.99	33790.31
668.13	33240.29
668.27	33273.06
668.41	33383.06
668.56	32985.17
668.70	33006.23
668.84	33167.73
668.98	32767.50
669.12	32772.18
669.26	32891.55
669.40	32767.50
669.54	32828.35
669.68	32786.22
669.82	32589.62
669.96	32947.72
670.10	32617.71
670.25	32446.85
670.39	32753.46
670.53	32907.93
670.67	32201.09
670.81	33003.89
670.95	32598.98
671.09	32348.54
671.23	32411.74
671.37	32491.32
671.51	32287.69
671.65	31913.20
671.79	31714.26
671.93	32039.59
672.07	31981.08
672.21	32114.49
672.35	31728.30
672.49	31845.33
672.63	32060.66
672.77	31175.94
672.91	31833.63
673.05	31314.03
673.19	31316.37
673.33	31569.15
673.47	31255.51
673.61	30913.80
673.75	30862.30
673.89	30742.94
674.03	30838.90
674.17	31042.53
674.31	30979.33
674.45	30595.48
674.59	30710.17
674.73	30962.95
674.87	30820.17
675.01	30670.38
675.15	30951.24
675.29	30738.26
675.43	30670.38
675.56	30478.46
675.70	30293.55
675.84	29928.43
675.98	29191.16
676.12	29975.24
676.26	30061.84
676.40	29827.79
676.54	29647.57
676.68	29771.61
676.82	29078.82
676.96	29544.58
677.10	29268.40
677.23	29202.86
677.37	29289.46
677.51	29219.25
677.65	29179.46
677.79	28994.56
677.93	28999.24
678.07	28622.41
678.21	28683.27
678.34	28421.13
678.48	28535.81
678.62	28332.18
678.76	28383.68
678.90	28259.63
679.04	28013.87
679.18	28086.43
679.31	28273.67
679.45	27782.16
679.59	27456.82
679.73	27391.29
679.87	27768.12
680.00	27648.75
680.14	27321.07
680.28	27351.50
680.42	26946.59
680.56	27185.32
680.70	27407.67
680.83	27063.61
680.97	27040.21
681.11	27168.94
681.25	26429.33
681.39	26764.03
681.52	26714.87
681.66	26473.80
681.80	26586.15
681.94	27005.10
682.07	26457.42
682.21	26190.59
682.35	26106.34
682.49	26438.69
682.62	25951.86
682.76	25781.00
682.90	25830.15
683.04	25921.43
683.17	25600.78
683.31	25930.80
683.45	25792.70
683.59	25373.75
683.72	25301.19
683.86	25624.18
684.00	24648.18
684.13	25275.45
684.27	24968.84
684.41	25116.29
684.55	24936.07
684.68	25060.12
684.82	24610.73
684.96	24760.53
685.09	24655.20
685.23	24276.04
685.37	24809.68
685.50	24472.64
685.64	24252.63
685.78	24119.22
685.91	24285.40
686.05	23913.25
686.19	23513.02
686.32	23824.31
686.46	23454.51
686.60	23285.99
686.73	23304.71
686.87	23129.17
687.01	23381.95
687.14	23063.64
687.28	23061.30
687.42	22876.40
687.55	22651.70
687.69	22581.49
687.82	23194.71
687.96	22726.60
688.10	22764.05
688.23	22888.10
688.37	22501.91
688.50	22274.88
688.64	22331.05
688.78	22347.44
688.91	21895.71
689.05	21956.57
689.18	21860.60
689.32	21837.20
689.46	21879.33
689.59	21909.75
689.73	22155.51
689.86	21649.96
690.00	21781.03
690.13	21509.52
690.27	21088.23
690.41	21298.88
690.54	20865.88
690.68	21240.36
690.81	21125.68
690.95	20882.26
691.08	20648.21
691.22	20655.23
691.35	20865.88
691.49	20772.25
691.62	21022.69
691.76	20758.21
691.89	20467.98
692.03	20240.95
692.16	20222.23
692.30	20210.53
692.43	20236.27
692.57	19791.57
692.70	19929.66
692.84	20346.28
692.97	19826.68
693.11	19639.44
693.24	19222.82
693.38	19578.58
693.51	19405.38
693.65	19470.92
693.78	19363.25
693.92	19520.07
694.05	19133.88
694.19	19073.03
694.32	19021.53
694.45	19257.93
694.59	18958.34
694.72	18995.79
694.86	18782.80
694.99	18782.80
695.13	18611.94
695.26	18335.76
695.39	18078.30
695.53	18356.82
695.66	18071.28
695.80	18291.29
695.93	18293.63
696.07	18052.55
696.20	18052.55
696.33	18082.98
696.47	17954.25
696.60	17816.16
696.73	17741.26
696.87	17771.69
697.00	17640.62
697.14	17696.79
697.27	17392.52
697.40	17504.87
697.54	17474.44
697.67	17032.08
697.80	17172.51
697.94	16931.44
698.07	16856.54
698.21	16844.84
698.34	16924.41
698.47	16837.81
698.61	16453.97
698.74	16507.80
698.87	16446.94
699.01	16353.32
699.14	16304.17
699.27	16224.59
699.40	16423.54
699.54	16053.73
699.67	15838.41
699.80	15981.18
699.94	16060.76
700.07	16109.91
700.20	15726.06
700.34	15609.03
700.47	15700.31
700.60	15646.48
700.73	16224.59
700.87	15674.57
701.00	15424.13
701.13	15309.44
701.26	15166.67
701.40	15145.61
701.53	15112.84
701.66	15159.65
701.79	15051.99
701.93	15026.24
702.06	14843.68
702.19	14909.21
702.32	15061.35
702.46	14724.31
702.59	14558.13
702.72	14771.12
702.85	14644.73
702.99	14490.26
703.12	14635.37
703.25	14724.31
703.38	14501.96
703.51	14127.47
703.65	14253.86
703.78	14061.94
703.91	13902.78
704.04	14052.58
704.17	14057.26
704.31	14026.83
704.44	13736.60
704.57	13621.92
704.70	13692.13
704.83	13886.40
704.96	13645.32
705.10	13647.66
705.23	13673.41
>>>>>End Processed Spectral Data<<<<<
