SpectraSuite Data File
++++++++++++++++++++++++++++++++++++
Date: Fri Oct 25 10:46:56 EDT 2013
User: price-jones
Dark Spectrum Present: No
Reference Spectrum Present: No
Number of Sampled Component Spectra: 1
Spectrometers: USB2+H05261
Integration Time (usec): 100000 (USB2+H05261)
Spectra Averaged: 1 (USB2+H05261)
Boxcar Smoothing: 0 (USB2+H05261)
Correct for Electrical Dark: No (USB2+H05261)
Strobe/Lamp Enabled: No (USB2+H05261)
Correct for Detector Non-linearity: No (USB2+H05261)
Correct for Stray Light: No (USB2+H05261)
Number of Pixels in Processed Spectrum: 2048
>>>>>Begin Processed Spectral Data<<<<<
365.73	189.58
365.92	189.58
366.12	189.58
366.32	53.83
366.52	0.00
366.72	114.69
366.91	60.85
367.11	37.45
367.31	32.77
367.51	11.70
367.70	18.72
367.90	51.49
368.10	58.51
368.30	72.56
368.49	77.24
368.69	23.41
368.89	74.90
369.09	72.56
369.28	0.00
369.48	58.51
369.68	49.15
369.87	149.79
370.07	140.43
370.27	133.41
370.47	163.84
370.66	276.18
370.86	451.72
371.06	489.17
371.25	482.15
371.45	449.38
371.65	472.79
371.84	477.47
372.04	386.19
372.24	484.49
372.44	510.24
372.63	582.79
372.83	517.26
373.03	521.94
373.22	566.41
373.42	573.43
373.62	617.90
373.81	592.16
374.01	550.03
374.21	634.29
374.40	603.86
374.60	631.94
374.79	514.92
374.99	573.43
375.19	573.43
375.38	573.43
375.58	568.75
375.78	645.99
375.97	575.77
376.17	648.33
376.37	627.26
376.56	711.52
376.76	566.41
376.95	599.18
377.15	690.46
377.35	685.78
377.54	643.65
377.74	697.48
377.93	641.31
378.13	629.60
378.33	634.29
378.52	683.44
378.72	695.14
378.91	641.31
379.11	681.10
379.31	681.10
379.50	681.10
379.70	655.35
379.89	753.65
380.09	601.52
380.28	699.82
380.48	671.73
380.68	711.52
380.87	713.86
381.07	767.70
381.26	751.31
381.46	648.33
381.65	709.18
381.85	688.12
382.04	655.35
382.24	709.18
382.43	671.73
382.63	683.44
382.83	674.07
383.02	753.65
383.22	706.84
383.41	688.12
383.61	725.57
383.80	798.12
384.00	727.91
384.19	788.76
384.39	828.55
384.58	807.48
384.78	830.89
384.97	866.00
385.17	858.98
385.36	814.51
385.56	821.53
385.75	833.23
385.95	856.64
386.14	847.27
386.34	821.53
386.53	816.85
386.72	830.89
386.92	894.08
387.11	863.66
387.31	870.68
387.50	842.59
387.70	880.04
387.89	863.66
388.09	870.68
388.28	889.40
388.48	922.17
388.67	952.60
388.86	931.53
389.06	922.17
389.25	945.58
389.45	940.90
389.64	966.64
389.84	1097.71
390.03	873.02
390.22	1011.11
390.42	1013.45
390.61	943.24
390.81	990.05
391.00	1029.84
391.19	1142.18
391.39	1057.92
391.58	1076.65
391.78	1032.18
391.97	1032.18
392.16	1071.97
392.36	1046.22
392.55	973.66
392.75	1062.60
392.94	994.73
393.13	1055.58
393.33	1001.75
393.52	1015.79
393.71	1156.22
393.91	1158.57
394.10	1086.01
394.29	1100.05
394.49	1177.29
394.68	1130.48
394.88	1074.31
395.07	1277.93
395.26	1263.89
395.46	1259.21
395.65	1273.25
395.84	1219.42
396.04	1163.25
396.23	1210.06
396.42	1165.59
396.62	1165.59
396.81	1317.72
397.00	1196.01
397.19	1200.69
397.39	1294.32
397.58	1343.47
397.77	1430.07
397.97	1430.07
398.16	1394.96
398.35	1394.96
398.55	1441.77
398.74	1458.15
398.93	1547.09
399.12	1495.60
399.32	1483.90
399.51	1511.99
399.70	1593.90
399.90	1504.96
400.09	1572.84
400.28	1519.01
400.47	1633.69
400.67	1645.40
400.86	1706.25
401.05	1717.95
401.24	1675.82
401.44	1710.93
401.63	1673.48
401.82	1743.70
402.01	1556.46
402.21	1734.34
402.40	1713.27
402.59	1823.28
402.78	1680.50
402.97	1806.89
403.17	1788.17
403.36	1797.53
403.55	1727.32
403.74	1820.94
403.93	1919.24
404.13	1984.77
404.32	1816.26
404.51	1900.52
404.70	1888.81
404.89	1746.04
405.09	1921.58
405.28	1893.49
405.47	1914.56
405.66	1881.79
405.85	1952.01
406.05	1893.49
406.24	2040.95
406.43	2040.95
406.62	2136.91
406.81	2071.37
407.00	2008.18
407.20	2066.69
407.39	2040.95
407.58	2214.15
407.77	2179.04
407.96	2120.53
408.15	2104.14
408.34	2328.83
408.54	2272.66
408.73	2160.31
408.92	2190.74
409.11	2244.57
409.30	2298.41
409.49	2300.75
409.68	2310.11
409.87	2148.61
410.07	2347.56
410.26	2328.83
410.45	2317.13
410.64	2354.58
410.83	2532.46
411.02	2532.46
411.21	2558.21
411.40	2504.37
411.59	2567.57
411.78	2597.99
411.98	2527.78
412.17	2684.59
412.36	2600.34
412.55	2621.40
412.74	2745.45
412.93	2658.85
413.12	2764.17
413.31	2878.86
413.50	2572.25
413.69	2841.41
413.88	2899.92
414.07	2972.48
414.26	2981.84
414.45	2942.05
414.64	2923.33
414.83	2956.10
415.02	2923.33
415.22	3035.67
415.41	2998.23
415.60	3105.89
415.79	3061.42
415.98	3110.57
416.17	3204.19
416.36	3262.71
416.55	3117.59
416.74	3262.71
416.93	3133.98
417.12	3288.45
417.31	3342.28
417.50	3307.18
417.69	3288.45
417.88	3335.26
418.07	3463.99
418.26	3447.61
418.45	3545.91
418.64	3494.42
418.83	3641.87
419.02	3578.68
419.21	3529.53
419.39	3478.04
419.58	3494.42
419.77	3471.01
419.96	3599.74
420.15	3824.44
420.34	3606.77
420.53	3726.13
420.72	3691.02
420.91	3744.86
421.10	3838.48
421.29	3770.60
421.48	3850.18
421.67	3744.86
421.86	3674.64
422.05	3770.60
422.24	3801.03
422.43	3803.37
422.61	3751.88
422.80	4025.72
422.99	3892.31
423.18	3913.38
423.37	3953.16
423.56	3906.35
423.75	3946.14
423.94	3784.65
424.13	3686.34
424.32	3768.26
424.50	3964.87
424.69	4063.17
424.88	3999.98
425.07	3847.84
425.26	3866.56
425.45	3962.53
425.64	3906.35
425.83	3911.04
426.01	3896.99
426.20	3747.20
426.39	3950.82
426.58	3925.08
426.77	3974.23
426.96	4067.85
427.15	4002.32
427.33	3962.53
427.52	4152.11
427.71	4044.45
427.90	3957.85
428.09	4131.05
428.28	4156.79
428.46	4142.75
428.65	4138.07
428.84	4142.75
429.03	4194.24
429.22	4145.09
429.40	4084.23
429.59	4147.43
429.78	3904.01
429.97	3871.25
430.16	3906.35
430.34	4093.60
430.53	4145.09
430.72	4056.15
430.91	4215.30
431.10	4327.65
431.28	4503.19
431.47	4585.11
431.66	4587.45
431.85	4564.04
432.03	4355.74
432.22	4599.15
432.41	4580.43
432.60	4573.41
432.79	4627.24
432.97	4741.93
433.16	4699.80
433.35	4533.62
433.54	4690.43
433.72	4667.03
433.91	4683.41
434.10	4800.44
434.28	4667.03
434.47	4650.64
434.66	4835.55
434.85	4802.78
435.03	4992.36
435.22	4997.04
435.41	4889.38
435.59	5060.24
435.78	5149.18
435.97	4931.51
436.16	5083.64
436.34	5032.15
436.53	5188.97
436.72	5191.31
436.90	4924.49
437.09	5097.69
437.28	4987.68
437.46	5170.24
437.65	5191.31
437.84	5041.51
438.02	5104.71
438.21	5153.86
438.40	5144.50
438.58	5397.28
438.77	5329.40
438.96	5282.59
439.14	5432.38
439.33	5455.79
439.52	5596.22
439.70	5575.16
439.89	5645.37
440.08	5535.37
440.26	5621.97
440.45	5572.82
440.63	5851.34
440.82	5951.98
441.01	5891.13
441.19	5982.41
441.38	6111.14
441.57	5902.83
441.75	5998.79
441.94	6031.56
442.12	6211.78
442.31	6251.57
442.50	6202.42
442.68	6157.95
442.87	6176.67
443.05	6340.51
443.24	6403.71
443.43	6188.38
443.61	6377.96
443.80	6619.04
443.98	6328.81
444.17	6190.72
444.35	6289.02
444.54	6593.29
444.73	6387.32
444.91	6415.41
445.10	6455.20
445.28	6478.60
445.47	6359.24
445.65	6279.66
445.84	6282.00
446.02	6431.79
446.21	6349.87
446.39	6532.44
446.58	6628.40
446.77	6403.71
446.95	6504.35
447.14	6623.72
447.32	6600.31
447.51	6539.46
447.69	6569.88
447.88	6679.89
448.06	6677.55
448.25	6607.33
448.43	6649.46
448.62	6588.61
448.80	6635.42
448.99	6731.38
449.17	6750.10
449.36	6679.89
449.54	6930.33
449.73	7033.31
449.91	6885.86
450.10	7023.95
450.28	7066.08
450.46	7019.27
450.65	7005.22
450.83	7054.37
451.02	7042.67
451.20	7351.62
451.39	7171.40
451.57	7155.02
451.76	6906.92
451.94	7112.89
452.13	7295.45
452.31	7089.48
452.49	6993.52
452.68	7077.78
452.86	7173.74
453.05	7253.32
453.23	7138.63
453.42	7197.15
453.60	7302.47
453.78	7335.24
453.97	7377.37
454.15	7363.33
454.34	7199.49
454.52	7358.64
454.70	7363.33
454.89	7391.41
455.07	7480.35
455.26	7569.29
455.44	7527.16
455.62	7585.68
455.81	7667.60
455.99	7913.35
456.17	7639.51
456.36	7665.25
456.54	7857.18
456.73	7880.58
456.91	8142.72
457.09	8067.83
457.28	8105.28
457.46	7990.59
457.64	7995.27
457.83	7934.42
458.01	7946.12
458.19	8231.66
458.38	8070.17
458.56	8224.64
458.74	8161.45
458.93	8060.80
459.11	8285.50
459.29	8264.43
459.48	8325.29
459.66	8175.49
459.84	8280.82
460.03	8353.37
460.21	8418.91
460.39	8276.13
460.57	8344.01
460.76	8571.04
460.94	8524.23
461.12	8685.73
461.31	8542.96
461.49	8500.83
461.67	8528.91
461.85	8997.02
462.04	8648.28
462.22	8940.85
462.40	8713.81
462.59	8585.08
462.77	8795.73
462.95	8877.65
463.13	8800.41
463.32	8924.46
463.50	8870.63
463.68	9036.81
463.86	8823.82
464.05	8730.20
464.23	8636.58
464.41	8748.92
464.59	8615.51
464.78	9224.05
464.96	9027.45
465.14	9158.52
465.32	9240.44
465.50	9238.09
465.69	9298.95
465.87	8975.95
466.05	9207.67
466.23	9069.58
466.41	9057.87
466.60	9142.13
466.78	9100.00
466.96	9214.69
467.14	8940.85
467.32	9221.71
467.51	9235.75
467.69	9193.62
467.87	9268.52
468.05	9336.40
468.23	9287.25
468.41	9081.28
468.60	9448.74
468.78	9626.62
468.96	9411.29
469.14	9617.26
469.32	9673.43
469.50	9469.81
469.69	9497.89
469.87	9701.52
470.05	9666.41
470.23	9748.33
470.41	9647.69
470.59	10033.88
470.77	9797.48
470.95	9696.84
471.14	10008.13
471.32	10012.81
471.50	10197.71
471.68	10178.99
471.86	10263.25
472.04	10087.71
472.22	10438.79
472.40	10244.52
472.58	10188.35
472.77	10237.50
472.95	10602.63
473.13	10874.13
473.31	10443.47
473.49	10647.10
473.67	10569.86
473.85	10729.02
474.03	10909.24
474.21	11014.56
474.39	10771.15
474.57	11075.42
474.75	10911.58
474.93	11183.08
475.12	10972.43
475.30	11363.30
475.48	10988.82
475.66	11157.33
475.84	11140.95
476.02	11424.15
476.20	11131.59
476.38	11627.78
476.56	11939.07
476.74	11744.81
476.92	11843.11
477.10	11791.62
477.28	12133.34
477.46	11730.76
477.64	12166.10
477.82	12343.99
478.00	12468.03
478.18	12404.84
478.36	12367.39
478.54	12463.35
478.72	12833.16
478.90	12779.32
479.08	12592.08
479.26	12973.59
479.44	12912.74
479.62	13099.98
479.80	12994.65
479.98	13331.69
480.16	13589.15
480.34	13516.59
480.52	13710.86
480.70	13748.31
480.88	13268.50
481.06	13589.15
481.24	14134.50
481.41	13834.91
481.59	14338.12
481.77	14288.97
481.95	14214.07
482.13	14607.28
482.31	14384.93
482.49	14750.06
482.67	14815.59
482.85	14675.16
483.03	15164.33
483.21	15133.90
483.39	15353.91
483.57	15037.94
483.74	15309.44
483.92	15557.54
484.10	15335.19
484.28	15789.25
484.46	16102.89
484.64	16154.38
484.82	15810.32
485.00	15871.17
485.18	16142.67
485.35	16379.07
485.53	16091.18
485.71	16002.24
485.89	16493.76
486.07	16374.39
486.25	16664.61
486.43	16695.04
486.61	16975.91
486.78	17280.18
486.96	17444.01
487.14	17465.08
487.32	17638.28
487.50	17682.75
487.68	18036.17
487.85	18106.38
488.03	18164.90
488.21	18469.17
488.39	18319.37
488.57	18469.17
488.75	18654.07
488.92	18750.03
489.10	19157.28
489.28	19213.46
489.46	19374.95
489.64	19466.24
489.81	19784.55
489.99	20112.22
490.17	20121.59
490.35	20336.91
490.53	20023.28
490.70	20280.74
490.88	20510.11
491.06	20657.57
491.24	20940.77
491.41	20484.37
491.59	20727.78
491.77	20882.26
491.95	21163.12
492.13	21240.36
492.30	21352.71
492.48	21341.00
492.66	21937.84
492.84	21415.90
493.01	21909.75
493.19	21696.77
493.37	22085.30
493.54	21909.75
493.72	22216.36
493.90	22527.66
494.08	22860.01
494.25	22869.37
494.43	23075.34
494.61	23073.00
494.79	23370.25
494.96	23131.51
495.14	23393.65
495.32	23620.69
495.49	23147.90
495.67	23503.66
495.85	23648.77
496.02	24257.31
496.20	23831.33
496.38	24278.38
496.55	24238.59
496.73	24716.06
496.91	24727.76
497.09	24957.13
497.26	24690.31
497.44	24744.14
497.62	25102.25
497.79	25352.68
497.97	25025.01
498.14	25010.96
498.32	25518.86
498.50	25647.59
498.67	25539.93
498.85	25450.99
499.03	25902.71
499.20	26153.15
499.38	25795.04
499.56	25975.27
499.73	26256.13
499.91	26466.78
500.08	26459.76
500.26	26340.39
500.44	26298.26
500.61	26436.35
500.79	26824.88
500.97	26593.17
501.14	27232.13
501.32	27035.53
501.49	27058.93
501.67	27051.91
501.84	27311.71
502.02	27164.26
502.20	27515.34
502.37	27730.67
502.55	27730.67
502.72	27592.58
502.90	27899.19
503.07	27674.49
503.25	28123.88
503.43	27962.38
503.60	28257.29
503.78	28379.00
503.95	27924.93
504.13	28386.02
504.30	28215.16
504.48	28268.99
504.65	28697.31
504.83	28811.99
505.01	28811.99
505.18	29074.13
505.36	29415.85
505.53	28999.24
505.71	29593.73
505.88	29654.59
506.06	29362.02
506.23	29560.97
506.41	29600.76
506.58	29993.97
506.76	29909.71
506.93	29942.47
507.11	29642.88
507.28	29860.55
507.46	29799.70
507.63	30036.09
507.81	30108.65
507.98	29687.36
508.16	30412.92
508.33	30225.68
508.50	30419.94
508.68	30976.99
508.85	30986.35
509.03	31058.91
509.20	30735.92
509.38	31131.47
509.55	31501.27
509.73	31398.29
509.90	31363.18
510.08	31049.55
510.25	31344.45
510.42	31339.77
510.60	31828.95
510.77	31641.70
510.95	31634.68
511.12	31772.77
511.30	32182.37
511.47	31936.61
511.64	32416.42
511.82	32339.18
511.99	31798.52
512.17	32219.81
512.34	32180.03
512.51	32503.02
512.69	32811.97
512.86	32451.53
513.04	32903.25
513.21	32828.35
513.38	32762.82
513.56	32711.33
513.73	32711.33
513.90	32669.20
514.08	32769.84
514.25	33132.62
514.43	33333.91
514.60	33422.85
514.77	33727.12
514.95	33488.38
515.12	33132.62
515.29	33617.11
515.47	33846.49
515.64	33979.90
515.81	33415.83
515.99	33703.71
516.16	33696.69
516.33	33722.44
516.51	33738.82
516.68	33207.52
516.85	33336.25
517.03	33771.59
517.20	33776.27
517.37	33675.63
517.54	34319.28
517.72	34436.30
517.89	34122.67
518.06	33802.02
518.24	33766.91
518.41	34288.85
518.58	34401.19
518.75	34611.84
518.93	34522.90
519.10	34843.56
519.27	34890.37
519.45	34794.40
519.62	35288.26
519.79	35512.95
519.96	35391.24
520.14	35381.88
520.31	35690.83
520.48	35475.50
520.65	35606.57
520.83	35655.72
521.00	35414.65
521.17	36086.38
521.34	35833.60
521.52	36137.87
521.69	36247.88
521.86	36545.12
522.03	36598.96
522.20	36095.74
522.38	36510.02
522.55	36282.98
522.72	36362.56
522.89	36842.37
523.07	36563.85
523.24	36568.53
523.41	37020.25
523.58	36814.29
523.75	37486.02
523.92	37244.94
524.10	37450.91
524.27	37291.76
524.44	37041.32
524.61	37361.97
524.78	37659.22
524.96	37537.51
525.13	37436.87
525.30	37741.14
525.47	38000.94
525.64	37511.77
525.81	37518.79
525.98	37474.32
526.16	37771.57
526.33	37237.92
526.50	37401.76
526.67	37989.24
526.84	37448.57
527.01	37890.93
527.18	37769.22
527.36	37624.11
527.53	38408.19
527.70	38520.54
527.87	38710.12
528.04	38099.24
528.21	38740.55
528.38	38103.92
528.55	38885.66
528.72	38583.73
528.89	38934.81
529.07	38998.01
529.24	38972.26
529.41	38873.96
529.58	38639.90
529.75	38724.16
529.92	39131.42
530.09	39054.18
530.26	39028.43
530.43	38962.90
530.60	39096.31
530.77	39103.33
530.94	39178.23
531.11	39196.95
531.28	39381.85
531.46	39517.60
531.63	39651.02
531.80	39548.03
531.97	39487.18
532.14	39484.84
532.31	39349.09
532.48	39810.17
532.65	39503.56
532.82	40086.36
532.99	39871.03
533.16	39557.39
533.33	39948.26
533.50	40058.27
533.67	40142.53
533.84	39739.96
534.01	40062.95
534.18	40006.78
534.35	40123.80
534.52	39899.11
534.69	40762.77
534.86	40903.20
535.03	40409.35
535.20	40554.46
535.37	40484.25
535.54	41085.76
535.71	40612.98
535.88	40900.86
536.05	40514.67
536.22	40502.97
536.38	40399.99
536.55	40788.52
536.72	40748.73
536.89	40875.12
537.06	40837.67
537.23	41329.18
537.40	40821.28
537.57	41228.54
537.74	41462.59
537.91	41427.48
538.08	41015.55
538.25	40868.09
538.42	41031.93
538.59	41097.47
538.75	40959.38
538.92	41345.56
539.09	41434.50
539.26	41478.97
539.43	41495.36
539.60	41326.84
539.77	41469.61
539.94	41432.16
540.11	41256.62
540.28	41607.70
540.44	41743.45
540.61	41354.93
540.78	41244.92
540.95	41184.07
541.12	41682.60
541.29	41581.96
541.46	41989.21
541.62	41926.02
541.79	42007.94
541.96	41357.27
542.13	41640.47
542.30	42164.75
542.47	42120.28
542.63	42012.62
542.80	42401.14
542.97	42674.99
543.14	42829.46
543.31	42948.83
543.48	42457.32
543.64	43012.02
543.81	43257.78
543.98	42728.82
544.15	42632.86
544.32	42953.51
544.48	42649.24
544.65	43332.68
544.82	43030.75
544.99	43063.52
545.16	43161.82
545.32	43016.71
545.49	43292.89
545.66	43047.13
545.83	43281.19
546.00	43863.98
546.16	43096.28
546.33	42855.21
546.50	43019.05
546.67	43423.96
546.83	42827.12
547.00	43089.26
547.17	43669.72
547.34	43449.70
547.50	43351.40
547.67	43894.41
547.84	43688.44
548.00	43749.29
548.17	43512.90
548.34	43908.45
548.51	44027.82
548.67	43943.56
548.84	43929.51
549.01	43962.28
549.18	43531.62
549.34	44030.16
549.51	43721.21
549.68	43978.67
549.84	44346.13
550.01	44282.94
550.18	44034.84
550.34	44179.95
550.51	43997.39
550.68	44275.91
550.84	43578.43
551.01	44011.43
551.18	43889.73
551.34	43634.61
551.51	44011.43
551.68	44053.56
551.84	44259.53
552.01	44402.30
552.18	44406.98
552.34	44182.29
552.51	44383.58
552.68	44563.80
552.84	44559.12
553.01	44781.47
553.18	44512.31
553.34	44479.54
553.51	44236.12
553.67	44507.63
553.84	44722.96
554.01	44669.12
554.17	44795.51
554.34	44980.42
554.51	44739.34
554.67	44776.79
554.84	45010.84
555.00	44896.16
555.17	45055.31
555.33	44914.88
555.50	44790.83
555.67	44882.11
555.83	44996.80
556.00	45090.42
556.16	45188.72
556.33	45139.57
556.50	44919.56
556.66	45116.17
556.83	44938.29
556.99	44949.99
557.16	44919.56
557.32	45036.59
557.49	45013.18
557.65	44802.53
557.82	45090.42
557.98	45041.27
558.15	45151.27
558.32	45272.98
558.48	45350.22
558.65	45254.26
558.81	44945.31
558.98	45233.19
559.14	44889.13
559.31	45551.51
559.47	45155.96
559.64	45677.90
559.80	45649.81
559.97	45272.98
560.13	45230.85
560.30	45184.04
560.46	45645.13
560.63	45689.60
560.79	45617.04
560.96	45984.51
561.12	45516.40
561.29	45078.72
561.45	45722.37
561.61	45907.27
561.78	45818.33
561.94	45425.12
562.11	45457.88
562.27	45333.84
562.44	45303.41
562.60	45827.69
562.77	45729.39
562.93	45778.54
563.10	45923.65
563.26	45326.81
563.42	45385.33
563.59	45734.07
563.75	45560.87
563.92	45965.78
564.08	45464.91
564.24	46174.09
564.41	45928.33
564.57	45984.51
564.74	45619.38
564.90	45925.99
565.07	45792.58
565.23	45752.79
565.39	45701.30
565.56	46256.01
565.72	45478.95
565.88	45652.15
566.05	45858.12
566.21	45755.13
566.38	45507.04
566.54	45631.08
566.70	45886.20
566.87	46050.04
567.03	46082.81
567.19	46232.60
567.36	46131.96
567.52	45682.58
567.68	46440.91
567.85	45797.26
568.01	46134.30
568.17	46230.26
568.34	46197.49
568.50	46157.70
568.66	45823.01
568.83	46078.13
568.99	45914.29
569.15	45996.21
569.32	45956.42
569.48	45764.49
569.64	46281.75
569.81	46204.52
569.97	46461.97
570.13	46375.37
570.30	45680.24
570.46	45617.04
570.62	45916.63
570.78	45635.77
570.95	45750.45
571.11	46314.52
571.27	45687.26
571.43	45886.20
571.60	46204.52
571.76	46426.87
571.92	46040.68
572.09	46075.79
572.25	46054.72
572.41	46309.84
572.57	46560.28
572.74	46295.80
572.90	46937.10
573.06	46237.28
573.22	46028.98
573.38	45949.40
573.55	46019.61
573.71	46157.70
573.87	45935.35
574.03	46476.02
574.20	46110.89
574.36	46017.27
574.52	45949.40
574.68	46085.15
574.84	46234.94
575.01	46057.06
575.17	46398.78
575.33	45872.16
575.49	46033.66
575.65	46445.59
575.82	46272.39
575.98	46216.22
576.14	46480.70
576.30	46361.33
576.46	45937.69
576.62	46518.15
576.79	45895.56
576.95	46066.42
577.11	46382.40
577.27	46431.55
577.43	46850.50
577.59	46263.03
577.75	46506.44
577.92	46218.56
578.08	46120.26
578.24	46043.02
578.40	46433.89
578.56	46190.47
578.72	46478.36
578.88	46300.48
579.04	46681.98
579.21	46260.69
579.37	46295.80
579.53	46483.04
579.69	46190.47
579.85	45961.10
580.01	46756.88
580.17	46314.52
580.33	46134.30
580.49	46642.20
580.65	46314.52
580.82	46351.97
580.98	46681.98
581.14	46377.72
581.30	46181.11
581.46	46712.41
581.62	46312.18
581.78	46422.19
581.94	46890.29
582.10	46623.47
582.26	46579.00
582.42	46405.80
582.58	46527.51
582.74	46223.24
582.90	46330.90
583.06	46302.82
583.22	46251.33
583.38	47000.30
583.54	46705.39
583.70	46499.42
583.86	46548.57
584.02	46160.05
584.18	46553.26
584.34	46469.00
584.50	46562.62
584.66	46431.55
584.82	46628.15
584.98	46141.32
585.14	46178.77
585.30	46569.64
585.46	46309.84
585.62	46363.67
585.78	46457.29
585.94	46120.26
586.10	46246.65
586.26	46506.44
586.42	46321.54
586.58	46717.09
586.74	46485.38
586.90	46522.83
587.06	46564.96
587.22	46644.54
587.38	46068.76
587.54	46763.90
587.70	46344.95
587.86	46560.28
588.02	46724.11
588.18	46937.10
588.34	46642.20
588.49	46293.46
588.65	46012.59
588.81	46138.98
588.97	46202.18
589.13	45507.04
589.29	46040.68
589.45	46110.89
589.61	46508.79
589.77	46836.46
589.93	46667.94
590.08	46665.60
590.24	46609.43
590.40	46681.98
590.56	47295.21
590.72	46773.27
590.88	46176.43
591.04	46588.36
591.20	46719.43
591.35	46902.00
591.51	47026.04
591.67	46897.31
591.83	46548.57
591.99	46028.98
592.15	46471.34
592.31	46799.01
592.46	46796.67
592.62	46082.81
592.78	46880.93
592.94	46515.81
593.10	46279.41
593.26	46859.87
593.41	46562.62
593.57	46724.11
593.73	46504.10
593.89	46948.81
594.05	46384.74
594.20	46794.33
594.36	46951.15
594.52	46518.15
594.68	46424.53
594.84	46295.80
594.99	46916.04
595.15	46604.75
595.31	46588.36
595.47	46756.88
595.62	46543.89
595.78	46419.84
595.94	46878.59
596.10	46684.33
596.25	46878.59
596.41	46993.28
596.57	46941.78
596.73	47047.11
596.88	46363.67
597.04	46569.64
597.20	46983.91
597.36	46639.86
597.51	46745.18
597.67	46684.33
597.83	46885.61
597.99	47236.69
598.14	46560.28
598.30	46721.77
598.46	46747.52
598.61	46731.14
598.77	46195.15
598.93	47061.15
599.09	46777.95
599.24	46923.06
599.40	47037.75
599.56	46595.38
599.71	47168.82
599.87	47096.26
600.03	47110.30
600.18	46714.75
600.34	46955.83
600.50	46674.96
600.65	46696.03
600.81	46733.48
600.97	46820.08
601.12	47363.08
601.28	46637.51
601.44	46096.85
601.59	46691.35
601.75	46630.49
601.91	46813.05
602.06	46447.93
602.22	46209.20
602.37	46780.29
602.53	46527.51
602.69	46763.90
602.84	46241.96
603.00	46525.17
603.16	46646.88
603.31	46422.19
603.47	46574.32
603.62	46387.08
603.78	46681.98
603.94	46820.08
604.09	46855.18
604.25	46614.11
604.40	46623.47
604.56	46576.66
604.71	46656.24
604.87	46946.47
605.03	47098.60
605.18	46937.10
605.34	47030.72
605.49	46403.46
605.65	46363.67
605.80	46700.71
605.96	46817.74
606.12	46586.02
606.27	46824.76
606.43	46220.90
606.58	46820.08
606.74	46307.50
606.89	46438.57
607.05	46614.11
607.20	46864.55
607.36	46513.47
607.51	46417.50
607.67	46707.73
607.82	46958.17
607.98	46820.08
608.13	46490.06
608.29	46347.29
608.44	46251.33
608.60	46216.22
608.75	45879.18
608.91	46316.86
609.06	46040.68
609.22	46445.59
609.37	46012.59
609.53	46206.86
609.68	46206.86
609.84	46092.17
609.99	46052.38
610.15	46279.41
610.30	46117.92
610.46	46038.34
610.61	46466.66
610.76	46131.96
610.92	46064.08
611.07	46120.26
611.23	45937.69
611.38	46382.40
611.54	46078.13
611.69	45799.60
611.84	45769.18
612.00	45956.42
612.15	45518.74
612.31	45649.81
612.46	45825.35
612.62	46078.13
612.77	45689.60
612.92	45954.08
613.08	45858.12
613.23	45921.31
613.39	45947.06
613.54	45441.50
613.69	45579.59
613.85	45453.20
614.00	45528.10
614.15	46059.40
614.31	45572.57
614.46	45738.75
614.62	45689.60
614.77	45504.70
614.92	45645.13
615.08	45464.91
615.23	45532.78
615.38	45556.19
615.54	45240.21
615.69	45385.33
615.84	45198.09
616.00	45209.79
616.15	45315.11
616.30	45471.93
616.46	45130.21
616.61	44844.66
616.76	45483.63
616.92	45055.31
617.07	45034.25
617.22	45055.31
617.37	45221.49
617.53	44748.70
617.68	45179.36
617.83	45408.73
617.99	45205.11
618.14	45406.39
618.29	44921.90
618.45	45083.40
618.60	44835.30
618.75	44919.56
618.90	44776.79
619.06	44753.38
619.21	45181.70
619.36	45024.89
619.51	45170.00
619.67	44729.98
619.82	45078.72
619.97	44643.38
620.12	44163.57
620.28	44601.25
620.43	45052.97
620.58	44884.45
620.73	44673.81
620.89	44708.91
621.04	44795.51
621.19	44938.29
621.34	44847.00
621.49	44687.85
621.65	44320.38
621.80	44311.02
621.95	44100.37
622.10	44758.06
622.25	44109.74
622.41	44507.63
622.56	44196.34
622.71	44348.47
622.86	44133.14
623.01	44467.84
623.16	43878.02
623.32	44587.21
623.47	44392.94
623.62	44175.27
623.77	44196.34
623.92	43896.75
624.07	44179.95
624.23	44257.19
624.38	44058.24
624.53	43356.08
624.68	43662.69
624.83	44065.27
624.98	43587.80
625.13	43599.50
625.29	43983.35
625.44	43985.69
625.59	43847.60
625.74	43435.66
625.89	43515.24
626.04	43372.47
626.19	43536.30
626.34	43992.71
626.49	43524.60
626.65	43519.92
626.80	43985.69
626.95	43386.51
627.10	43463.75
627.25	43175.86
627.40	42909.04
627.55	42784.99
627.70	42726.48
627.85	42766.27
628.00	42895.00
628.15	43564.39
628.30	43278.85
628.45	43119.69
628.60	43473.11
628.76	42969.90
628.91	43367.79
629.06	42979.26
629.21	43250.76
629.36	42712.44
629.51	43187.56
629.66	42937.13
629.81	42859.89
629.96	43175.86
630.11	42918.40
630.26	43098.62
630.41	42913.72
630.56	43007.34
630.71	42895.00
630.86	43377.15
631.01	42408.17
631.16	42572.00
631.31	42642.22
631.46	42457.32
631.61	42733.50
631.76	42686.69
631.91	42880.95
632.06	42735.84
632.21	42630.52
632.36	42359.02
632.51	42298.16
632.66	42710.10
632.81	41923.68
632.96	42445.62
633.10	42108.58
633.25	41982.19
633.40	42564.98
633.55	42780.31
633.70	42277.10
633.85	42270.08
634.00	42342.63
634.15	41790.27
634.30	42185.82
634.45	42377.74
634.60	41713.03
634.75	42274.76
634.90	42059.43
635.05	42361.36
635.19	41839.42
635.34	42073.47
635.49	41546.85
635.64	41904.95
635.79	41841.76
635.94	41778.56
636.09	41619.41
636.24	41918.99
636.39	41453.23
636.53	41455.57
636.68	41502.38
636.83	41443.87
636.98	41773.88
637.13	41661.54
637.28	41310.46
637.43	41668.56
637.57	42071.13
637.72	41724.73
637.87	41888.57
638.02	41710.69
638.17	41495.36
638.32	41553.87
638.46	41572.60
638.61	40830.65
638.76	41001.50
638.91	41610.04
639.06	41394.71
639.20	41387.69
639.35	41682.60
639.50	41041.29
639.65	41392.37
639.80	41158.32
639.94	41254.28
640.09	41614.72
640.24	40938.31
640.39	40868.09
640.54	41172.36
640.68	41031.93
640.83	41205.13
640.98	40985.12
641.13	40495.95
641.27	40825.96
641.42	40877.46
641.57	40718.30
641.72	41230.88
641.86	40722.98
642.01	40477.22
642.16	40730.00
642.31	40488.93
642.45	41006.19
642.60	40797.88
642.75	40704.26
642.90	40268.92
643.04	40570.85
643.19	40048.91
643.34	40261.90
643.48	40196.36
643.63	40524.04
643.78	40322.75
643.93	40355.52
644.07	40460.84
644.22	40479.57
644.37	40467.86
644.51	40336.79
644.66	40336.79
644.81	39936.56
644.95	40210.40
645.10	40088.70
645.25	40643.40
645.39	40615.32
645.54	40208.06
645.69	39784.43
645.83	40484.25
645.98	40301.68
646.13	40037.20
646.27	40229.13
646.42	40027.84
646.57	40170.61
646.71	39618.25
646.86	40123.80
647.00	39407.60
647.15	39924.86
647.30	39793.79
647.44	40076.99
647.59	39681.44
647.74	39999.76
647.88	39674.42
648.03	39697.83
648.17	39629.95
648.32	39250.78
648.47	39512.92
648.61	39328.02
648.76	40294.66
648.90	39849.96
649.05	39707.19
649.20	39468.45
649.34	40100.40
649.49	39377.17
649.63	39414.62
649.78	39496.54
649.92	39646.33
650.07	39990.39
650.21	39342.06
650.36	39533.99
650.51	39526.97
650.65	39299.94
650.80	39683.78
650.94	39398.24
651.09	38988.64
651.23	39058.86
651.38	39428.66
651.52	38834.17
651.67	39260.15
651.81	39201.63
651.96	38941.83
652.10	38993.32
652.25	38883.32
652.39	38869.28
652.54	39236.74
652.68	39491.86
652.83	39370.15
652.97	39058.86
653.12	39063.54
653.26	38579.05
653.41	39035.45
653.55	38419.89
653.70	38742.89
653.84	38862.26
653.99	38930.13
654.13	38464.36
654.27	38700.76
654.42	38656.29
654.56	38478.41
654.71	38625.86
654.85	38139.03
655.00	38356.70
655.14	38447.98
655.29	37848.80
655.43	38253.72
655.57	38101.58
655.72	38270.10
655.86	38202.22
656.01	37720.07
656.15	37689.65
656.30	37528.15
656.44	37855.82
656.58	37961.15
656.73	37624.11
656.87	38003.28
657.01	37446.23
657.16	37797.31
657.30	37811.35
657.45	37771.57
657.59	37745.82
657.73	37460.27
657.88	37832.42
658.02	37785.61
658.16	37780.93
658.31	37731.78
658.45	38007.96
658.60	37598.37
658.74	37638.15
658.88	37696.67
659.03	37642.84
659.17	37436.87
659.31	37441.55
659.46	37214.52
659.60	37397.08
659.74	37755.18
659.89	36921.95
660.03	36685.56
660.17	37191.11
660.32	37151.32
660.46	37069.40
660.60	37242.60
660.74	37151.32
660.89	37392.40
661.03	37104.51
661.17	37174.73
661.32	36910.25
661.46	36802.58
661.60	36385.97
661.74	36589.59
661.89	36851.73
662.03	36837.69
662.17	36486.61
662.31	36484.27
662.46	36685.56
662.60	36657.47
662.74	36725.35
662.88	36371.92
663.03	36243.20
663.17	35976.37
663.31	35889.77
663.45	36369.58
663.60	35711.89
663.74	35962.33
663.88	35981.06
664.02	35676.79
664.17	36140.21
664.31	35447.41
664.45	35419.33
664.59	35519.97
664.73	35608.91
664.88	36041.91
665.02	34939.52
665.16	35613.59
665.30	35292.94
665.44	35058.88
665.59	35255.49
665.73	35211.02
665.87	35110.38
666.01	35583.16
666.15	35124.42
666.29	34841.21
666.44	35096.33
666.58	34761.64
666.72	34841.21
666.86	35318.68
667.00	35297.62
667.14	34700.78
667.28	34792.06
667.43	34785.04
667.57	34714.83
667.71	34656.31
667.85	34394.17
667.99	34892.71
668.13	34501.84
668.27	34405.88
668.41	34583.76
668.56	34213.95
668.70	34174.16
668.84	34195.23
668.98	33677.97
669.12	34122.67
669.26	34312.25
669.40	34071.18
669.54	34036.07
669.68	34061.82
669.82	34136.71
669.96	33729.46
670.10	34061.82
670.25	33895.64
670.39	33989.26
670.53	33715.42
670.67	33041.34
670.81	33647.54
670.95	33563.28
671.09	33488.38
671.23	33249.65
671.37	33895.64
671.51	32760.48
671.65	33149.01
671.79	32872.82
671.93	33031.98
672.07	33205.18
672.21	32704.31
672.35	32561.53
672.49	33029.64
672.63	33001.55
672.77	32882.19
672.91	32526.42
673.05	32395.35
673.19	32467.91
673.33	32121.51
673.47	32739.41
673.61	32091.09
673.75	31873.42
673.89	31861.71
674.03	31562.12
674.17	31931.93
674.31	31805.54
674.45	32065.34
674.59	31646.38
674.73	31730.64
674.87	31976.40
675.01	31695.53
675.15	31758.73
675.29	31515.31
675.43	31456.80
675.56	31325.73
675.70	30909.11
675.84	30988.69
675.98	30246.74
676.12	30794.43
676.26	30658.68
676.40	30579.10
676.54	30724.21
676.68	30925.50
676.82	30368.45
676.96	30532.29
677.10	29923.75
677.23	29869.92
677.37	30132.06
677.51	30106.31
677.65	29872.26
677.79	29415.85
677.93	30043.12
678.07	29954.18
678.21	29387.77
678.34	29530.54
678.48	29298.83
678.62	29156.05
678.76	29291.80
678.90	29244.99
679.04	29205.20
679.18	29371.38
679.31	28837.74
679.45	28685.61
679.59	28678.58
679.73	28601.35
679.87	28383.68
680.00	28147.28
680.14	28187.07
680.28	28203.46
680.42	28250.27
680.56	28053.66
680.70	27873.44
680.83	28276.01
680.97	28154.30
681.11	27463.85
681.25	27599.60
681.39	27283.62
681.52	27627.68
681.66	27477.89
681.80	27606.62
681.94	27241.50
682.07	26998.08
682.21	27061.27
682.35	26487.84
682.49	27140.85
682.62	26911.48
682.76	26663.38
682.90	26480.82
683.04	26656.36
683.17	26511.25
683.31	26658.70
683.45	26829.56
683.59	26352.09
683.72	25678.02
683.86	25612.48
684.00	25825.47
684.13	25923.77
684.27	26019.74
684.41	25406.52
684.55	25336.30
684.68	25322.26
684.82	25713.13
684.96	25401.83
685.09	25551.63
685.23	24877.55
685.37	25085.86
685.50	25106.93
685.64	24865.85
685.78	24987.56
685.91	25242.68
686.05	24505.41
686.19	24350.93
686.32	24053.69
686.46	24266.67
686.60	24151.99
686.73	24107.52
686.87	23866.44
687.01	23697.92
687.14	23634.73
687.28	23676.86
687.42	23428.76
687.55	23255.56
687.69	23269.61
687.82	23288.33
687.96	23463.87
688.10	22993.42
688.23	23494.30
688.37	23201.73
688.50	23021.51
688.64	22537.02
688.78	22401.27
688.91	22820.22
689.05	22754.69
689.18	22607.23
689.32	21940.18
689.46	22153.17
689.59	22661.07
689.73	22274.88
689.86	22127.42
690.00	21994.01
690.13	22359.14
690.27	21673.36
690.41	21783.37
690.54	21483.78
690.68	21408.88
690.81	21542.29
690.95	21259.09
691.08	21392.50
691.22	21425.26
691.35	21481.44
691.49	21256.75
691.62	21621.87
691.76	21160.78
691.89	21439.31
692.03	20800.34
692.16	20802.68
692.30	20695.02
692.43	20929.07
692.57	20622.46
692.70	20641.18
692.84	20365.00
692.97	19985.83
693.11	20280.74
693.24	19854.76
693.38	20245.63
693.51	19840.72
693.65	20159.03
693.78	19941.36
693.92	20056.05
694.05	19777.53
694.19	19922.64
694.32	19428.79
694.45	19550.49
694.59	19332.82
694.72	19234.52
694.86	19351.55
694.99	19103.45
695.13	19246.23
695.26	18951.32
695.39	19023.87
695.53	19197.07
695.66	18686.84
695.80	18698.54
695.93	18855.36
696.07	18377.89
696.20	18721.95
696.33	18534.70
696.47	18548.75
696.60	18359.16
696.73	18106.38
696.87	17834.88
697.00	17647.64
697.14	18080.64
697.27	17736.58
697.40	18148.51
697.54	17722.54
697.67	17521.25
697.80	17645.30
697.94	17582.10
698.07	17355.07
698.21	17631.26
698.34	17661.68
698.47	17455.72
698.61	17273.15
698.74	17160.81
698.87	16879.94
699.01	16896.33
699.14	16732.49
699.27	16800.37
699.40	16521.84
699.54	16468.01
699.67	16339.28
699.80	16372.05
699.94	16631.85
700.07	16416.52
700.20	16283.11
700.34	16325.24
700.47	16505.46
700.60	16404.81
700.73	16383.75
700.87	15960.11
701.00	15672.23
701.13	15950.75
701.26	15836.06
701.40	15716.70
701.53	15421.79
701.66	15475.62
701.79	15262.63
701.93	15136.24
702.06	15150.29
702.19	15248.59
702.32	15236.89
702.46	15087.09
702.59	15129.22
702.72	14967.73
702.85	15304.76
702.99	15051.99
703.12	14913.89
703.25	15035.60
703.38	14644.73
703.51	14637.71
703.65	14574.52
703.78	14452.81
703.91	14415.36
704.04	14525.36
704.17	14469.19
704.31	14490.26
704.44	14129.81
704.57	14024.49
704.70	13926.19
704.83	14108.75
704.96	14188.33
705.10	14288.97
705.23	14115.77
>>>>>End Processed Spectral Data<<<<<
