SpectraSuite Data File
++++++++++++++++++++++++++++++++++++
Date: Fri Oct 25 11:34:38 EDT 2013
User: price-jones
Dark Spectrum Present: No
Reference Spectrum Present: No
Number of Sampled Component Spectra: 1
Spectrometers: USB2+H05261
Integration Time (usec): 100000 (USB2+H05261)
Spectra Averaged: 1 (USB2+H05261)
Boxcar Smoothing: 0 (USB2+H05261)
Correct for Electrical Dark: No (USB2+H05261)
Strobe/Lamp Enabled: No (USB2+H05261)
Correct for Detector Non-linearity: No (USB2+H05261)
Correct for Stray Light: No (USB2+H05261)
Number of Pixels in Processed Spectrum: 2048
>>>>>Begin Processed Spectral Data<<<<<
365.73	236.39
365.92	236.39
366.12	236.39
366.32	236.39
366.52	220.01
366.72	210.65
366.91	175.54
367.11	203.63
367.31	163.84
367.51	161.50
367.70	182.56
367.90	189.58
368.10	203.63
368.30	191.92
368.49	184.90
368.69	269.16
368.89	177.88
369.09	255.12
369.28	264.48
369.48	238.73
369.68	315.97
369.87	236.39
370.07	234.05
370.27	257.46
370.47	294.91
370.66	437.68
370.86	482.15
371.06	505.56
371.25	496.19
371.45	472.79
371.65	526.62
371.84	512.58
372.04	545.34
372.24	550.03
372.44	528.96
372.63	645.99
372.83	566.41
373.03	589.82
373.22	543.00
373.42	657.69
373.62	608.54
373.81	608.54
374.01	606.20
374.21	603.86
374.40	643.65
374.60	669.39
374.79	554.71
374.99	704.50
375.19	587.47
375.38	624.92
375.58	683.44
375.78	763.01
375.97	641.31
376.17	765.36
376.37	662.37
376.56	744.29
376.76	730.25
376.95	704.50
377.15	655.35
377.35	601.52
377.54	695.14
377.74	655.35
377.93	692.80
378.13	594.50
378.33	660.03
378.52	723.23
378.72	709.18
378.91	720.88
379.11	720.88
379.31	657.69
379.50	683.44
379.70	753.65
379.89	692.80
380.09	737.27
380.28	706.84
380.48	753.65
380.68	699.82
380.87	704.50
381.07	753.65
381.26	720.88
381.46	706.84
381.65	837.91
381.85	741.95
382.04	755.99
382.24	777.06
382.43	699.82
382.63	767.70
382.83	793.44
383.02	788.76
383.22	753.65
383.41	751.31
383.61	830.89
383.80	786.42
384.00	751.31
384.19	805.14
384.39	821.53
384.58	748.97
384.78	791.10
384.97	791.10
385.17	770.04
385.36	781.74
385.56	858.98
385.75	805.14
385.95	795.78
386.14	884.72
386.34	814.51
386.53	856.64
386.72	854.30
386.92	947.92
387.11	802.80
387.31	854.30
387.50	884.72
387.70	833.23
387.89	917.49
388.09	903.45
388.28	933.87
388.48	868.34
388.67	835.57
388.86	940.90
389.06	964.30
389.25	919.83
389.45	894.08
389.64	858.98
389.84	1029.84
390.03	919.83
390.22	908.13
390.42	961.96
390.61	940.90
390.81	889.40
391.00	968.98
391.19	908.13
391.39	976.00
391.58	868.34
391.78	964.30
391.97	1055.58
392.16	978.34
392.36	1078.99
392.55	1022.81
392.75	999.41
392.94	1043.88
393.13	1135.16
393.33	997.07
393.52	940.90
393.71	1083.67
393.91	1050.90
394.10	1029.84
394.29	1053.24
394.49	968.98
394.68	1039.20
394.88	1102.39
395.07	1114.10
395.26	1086.01
395.46	1053.24
395.65	1062.60
395.84	1186.65
396.04	1198.35
396.23	1104.73
396.42	1205.38
396.62	1224.10
396.81	1217.08
397.00	1146.86
397.19	1181.97
397.39	1125.80
397.58	1186.65
397.77	1200.69
397.97	1200.69
398.16	1193.67
398.35	1174.95
398.55	1207.72
398.74	1224.10
398.93	1242.82
399.12	1284.95
399.32	1261.55
399.51	1207.72
399.70	1399.64
399.90	1331.76
400.09	1306.02
400.28	1254.53
400.47	1341.13
400.67	1343.47
400.86	1331.76
401.05	1406.66
401.24	1411.34
401.44	1334.11
401.63	1385.60
401.82	1350.49
402.01	1380.92
402.21	1427.73
402.40	1474.54
402.59	1511.99
402.78	1401.98
402.97	1490.92
403.17	1549.43
403.36	1418.36
403.55	1497.94
403.74	1448.79
403.93	1441.77
404.13	1577.52
404.32	1507.30
404.51	1425.39
404.70	1643.06
404.89	1535.39
405.09	1596.25
405.28	1638.38
405.47	1549.43
405.66	1638.38
405.85	1664.12
406.05	1661.78
406.24	1568.16
406.43	1678.16
406.62	1638.38
406.81	1760.08
407.00	1741.36
407.20	1701.57
407.39	1753.06
407.58	1802.21
407.77	1664.12
407.96	1694.55
408.15	1797.53
408.34	1802.21
408.54	1919.24
408.73	1811.57
408.92	1781.15
409.11	1839.66
409.30	1888.81
409.49	2033.93
409.68	1923.92
409.87	1919.24
410.07	1912.22
410.26	1909.88
410.45	1970.73
410.64	2033.93
410.83	2038.61
411.02	2036.27
411.21	2040.95
411.40	2087.76
411.59	2085.42
411.78	2172.02
411.98	2080.74
412.17	2136.91
412.36	2155.63
412.55	2172.02
412.74	2263.30
412.93	2260.96
413.12	2108.82
413.31	2345.22
413.50	2305.43
413.69	2354.58
413.88	2356.92
414.07	2279.68
414.26	2420.11
414.45	2544.16
414.64	2459.90
414.83	2478.63
415.02	2492.67
415.22	2450.54
415.41	2455.22
415.60	2490.33
415.79	2574.59
415.98	2562.89
416.17	2619.06
416.36	2656.51
416.55	2745.45
416.74	2710.34
416.93	2649.49
417.12	2698.64
417.31	2743.11
417.50	2782.90
417.69	2818.00
417.88	2869.50
418.07	2888.22
418.26	2736.09
418.45	2813.32
418.64	2967.80
418.83	2899.92
419.02	2888.22
419.21	2906.95
419.39	2928.01
419.58	2965.46
419.77	2825.03
419.96	3033.33
420.15	2937.37
420.34	3131.64
420.53	3084.83
420.72	3087.17
420.91	2972.48
421.10	3211.22
421.29	3084.83
421.48	3080.14
421.67	3143.34
421.86	3105.89
422.05	3143.34
422.24	3164.40
422.43	3234.62
422.61	3054.40
422.80	3325.90
422.99	3213.56
423.18	3279.09
423.37	3288.45
423.56	3279.09
423.75	3192.49
423.94	3155.04
424.13	3098.87
424.32	3150.36
424.50	3290.79
424.69	3417.18
424.88	3321.22
425.07	3246.32
425.26	3288.45
425.45	3225.26
425.64	3375.05
425.83	3335.26
426.01	3300.16
426.20	3400.80
426.39	3379.73
426.58	3332.92
426.77	3321.22
426.96	3290.79
427.15	3365.69
427.33	3407.82
427.52	3346.97
427.71	3489.74
427.90	3421.86
428.09	3501.44
428.28	3449.95
428.46	3475.70
428.65	3438.25
428.84	3564.64
429.03	3574.00
429.22	3569.32
429.40	3574.00
429.59	3534.21
429.78	3510.80
429.97	3489.74
430.16	3660.60
430.34	3604.42
430.53	3679.32
430.72	3772.94
430.91	3721.45
431.10	3632.51
431.28	3817.41
431.47	3786.99
431.66	3779.97
431.85	3761.24
432.03	3889.97
432.22	4025.72
432.41	3786.99
432.60	3817.41
432.79	3939.12
432.97	3913.38
433.16	3978.91
433.35	3854.86
433.54	3946.14
433.72	3964.87
433.91	4138.07
434.10	4032.74
434.28	4028.06
434.47	3995.29
434.66	3962.53
434.85	4065.51
435.03	4058.49
435.22	4070.19
435.41	4259.78
435.59	4135.73
435.78	4173.18
435.97	4269.14
436.16	4257.43
436.34	4189.56
436.53	4203.60
436.72	4348.72
436.90	4285.52
437.09	4273.82
437.28	4269.14
437.46	4297.22
437.65	4280.84
437.84	4404.89
438.02	4519.57
438.21	4393.19
438.40	4376.80
438.58	4678.73
438.77	4493.83
438.96	4582.77
439.14	4599.15
439.33	4704.48
439.52	4678.73
439.70	4624.90
439.89	4772.35
440.08	4737.24
440.26	4755.97
440.45	4821.50
440.63	4718.52
440.82	4844.91
441.01	4795.76
441.19	4917.47
441.38	5118.75
441.57	4945.55
441.75	5050.88
441.94	4954.91
442.12	5043.85
442.31	5303.65
442.50	5221.74
442.68	5137.48
442.87	5238.12
443.05	5303.65
443.24	5385.57
443.43	5263.86
443.61	5348.12
443.80	5373.87
443.98	5170.24
444.17	4954.91
444.35	5296.63
444.54	5385.57
444.73	5294.29
444.91	5350.46
445.10	5366.85
445.28	5348.12
445.47	5380.89
445.65	5432.38
445.84	5535.37
446.02	5490.90
446.21	5434.72
446.39	5329.40
446.58	5411.32
446.77	5467.49
446.95	5418.34
447.14	5453.45
447.32	5600.90
447.51	5460.47
447.69	5460.47
447.88	5408.98
448.06	5483.88
448.25	5483.88
448.43	5661.76
448.62	5521.32
448.80	5458.13
448.99	5554.09
449.17	5710.91
449.36	5682.82
449.54	5514.30
449.73	5778.78
449.91	5769.42
450.10	5738.99
450.28	5905.17
450.46	5816.23
450.65	5769.42
450.83	5797.51
451.02	5795.17
451.20	5769.42
451.39	5900.49
451.57	5898.15
451.76	5785.80
451.94	5851.34
452.13	5881.77
452.31	6022.20
452.49	5921.56
452.68	5998.79
452.86	5982.41
453.05	6197.74
453.23	6139.23
453.42	6162.63
453.60	6050.28
453.78	6033.90
453.97	5977.73
454.15	6169.65
454.34	6078.37
454.52	6235.19
454.70	6195.40
454.89	6267.95
455.07	6289.02
455.26	6274.98
455.44	6310.08
455.62	6193.06
455.81	6410.73
455.99	6317.11
456.17	6492.65
456.36	6342.85
456.54	6429.45
456.73	6516.05
456.91	6871.81
457.09	6649.46
457.28	6771.17
457.46	6679.89
457.64	6677.55
457.83	6668.19
458.01	6836.70
458.19	7063.74
458.38	6654.14
458.56	6637.76
458.74	6761.81
458.93	6974.80
459.11	6813.30
459.29	6803.94
459.48	6841.39
459.66	6817.98
459.84	6848.41
460.03	7014.59
460.21	7080.12
460.39	6937.35
460.57	7126.93
460.76	7166.72
460.94	7136.29
461.12	7028.63
461.31	7012.24
461.49	6942.03
461.67	7140.97
461.85	7276.73
462.04	7253.32
462.22	7688.66
462.40	7386.73
462.59	7407.80
462.77	7272.04
462.95	7293.11
463.13	7414.82
463.32	7405.46
463.50	7611.42
463.68	7499.08
463.86	7599.72
464.05	7339.92
464.23	7456.95
464.41	7609.08
464.59	7318.86
464.78	7836.11
464.96	7590.36
465.14	7655.89
465.32	7655.89
465.50	7779.94
465.69	7655.89
465.87	7744.83
466.05	7681.64
466.23	7576.31
466.41	7866.54
466.60	7885.26
466.78	7761.22
466.96	7695.68
467.14	7719.09
467.32	7791.64
467.51	7852.50
467.69	7655.89
467.87	7838.45
468.05	7929.74
468.23	7793.98
468.41	7943.78
468.60	7955.48
468.78	7971.86
468.96	7974.21
469.14	8140.38
469.32	8074.85
469.50	7894.63
469.69	8283.16
469.87	8203.58
470.05	8428.27
470.23	8418.91
470.41	8315.92
470.59	8451.67
470.77	8215.28
470.95	8458.70
471.14	8528.91
471.32	8512.53
471.50	8517.21
471.68	8669.34
471.86	8723.18
472.04	8678.71
472.22	8758.28
472.40	8652.96
472.58	8643.60
472.77	8896.38
472.95	9015.74
473.13	9097.66
473.31	8870.63
473.49	8943.19
473.67	8931.48
473.85	9032.13
474.03	9240.44
474.21	9184.26
474.39	9104.68
474.57	9444.06
474.75	9233.41
474.93	9455.76
475.12	9411.29
475.30	9359.80
475.48	9476.83
475.66	9666.41
475.84	9481.51
476.02	9811.53
476.20	9652.37
476.38	10099.41
476.56	10029.20
476.74	9961.32
476.92	10104.09
477.10	9743.65
477.28	10303.04
477.46	10363.89
477.64	10230.48
477.82	10567.52
478.00	10616.67
478.18	10494.96
478.36	10738.38
478.54	10553.48
478.72	10740.72
478.90	10839.02
479.08	10993.50
479.26	11145.63
479.44	11021.58
479.62	11180.74
479.80	11337.56
479.98	11304.79
480.16	11662.89
480.34	11520.12
480.52	11679.27
480.70	11543.52
480.88	11552.88
481.06	11538.84
481.24	11803.32
481.41	11808.00
481.59	11906.31
481.77	12105.25
481.95	12243.34
482.13	11985.88
482.31	12318.24
482.49	12540.59
482.67	12695.07
482.85	12774.64
483.03	12971.25
483.21	12945.50
483.39	12856.56
483.57	12994.65
483.74	13130.41
483.92	13067.21
484.10	13050.83
484.28	13425.31
484.46	13844.27
484.64	13870.01
484.82	13502.55
485.00	13764.69
485.18	13919.17
485.35	14300.67
485.53	14303.01
485.71	14272.59
485.89	14565.15
486.07	14590.90
486.25	14562.81
486.43	14586.22
486.61	14897.51
486.78	14965.39
486.96	15194.76
487.14	15201.78
487.32	15264.97
487.50	15733.08
487.68	15531.80
487.85	15845.43
488.03	15829.04
488.21	16095.86
488.39	16053.73
488.57	16259.70
488.75	16013.95
488.92	16662.27
489.10	16634.19
489.28	16580.36
489.46	16854.20
489.64	16793.34
489.81	17177.19
489.99	17027.40
490.17	17008.67
490.35	17369.12
490.53	17415.93
490.70	17975.31
490.88	17926.16
491.06	17987.02
491.24	17951.91
491.41	17923.82
491.59	18221.07
491.77	18150.85
491.95	18487.89
492.13	18387.25
492.30	18515.98
492.48	18951.32
492.66	18838.97
492.84	18904.51
493.01	19070.68
493.19	18920.89
493.37	18946.64
493.54	19339.85
493.72	19381.98
493.90	19213.46
494.08	19726.04
494.25	19611.35
494.43	19623.05
494.61	20056.05
494.79	20058.39
494.96	20067.75
495.14	20315.85
495.32	20486.71
495.49	20776.94
495.67	20680.97
495.85	20861.19
496.02	20896.30
496.20	20917.37
496.38	21184.19
496.55	21172.49
496.73	21734.21
496.91	21570.38
497.09	21462.71
497.26	21537.61
497.44	21666.34
497.62	21893.37
497.79	22038.48
497.97	21766.98
498.14	22216.36
498.32	22347.44
498.50	22434.03
498.67	22501.91
498.85	22597.87
499.03	22703.20
499.20	22925.55
499.38	22782.77
499.56	23278.97
499.73	22628.30
499.91	23370.25
500.08	23506.00
500.26	23342.16
500.44	23384.29
500.61	23398.34
500.79	23255.56
500.97	23414.72
501.14	23742.39
501.32	24004.53
501.49	24247.95
501.67	23723.67
501.84	24245.61
502.02	24144.97
502.20	24065.39
502.37	24201.14
502.55	24582.65
502.72	24805.00
502.90	24570.94
503.07	24577.97
503.25	24861.17
503.43	24732.44
503.60	24692.65
503.78	25146.72
503.95	25186.50
504.13	24947.77
504.30	25125.65
504.48	25062.46
504.65	25078.84
504.83	25741.21
505.01	25348.00
505.18	25507.16
505.36	25720.15
505.53	25450.99
505.71	25729.51
505.88	26043.14
506.06	25675.68
506.23	26148.46
506.41	26127.40
506.58	26485.50
506.76	26157.83
506.93	26089.95
507.11	26111.02
507.28	26799.13
507.46	26583.80
507.63	26572.10
507.81	27208.73
507.98	26728.92
508.16	26794.45
508.33	27124.47
508.50	27019.14
508.68	27072.98
508.85	27199.37
509.03	27428.74
509.20	27138.51
509.38	27716.62
509.55	27630.02
509.73	27328.10
509.90	28025.57
510.08	27653.43
510.25	27718.96
510.42	27943.66
510.60	28243.24
510.77	28210.48
510.95	28517.09
511.12	28175.37
511.30	27960.04
511.47	28442.19
511.64	28613.05
511.82	28940.72
511.99	28491.34
512.17	28865.83
512.34	28545.17
512.51	29076.48
512.69	29142.01
512.86	29228.61
513.04	29591.39
513.21	29294.14
513.38	29345.64
513.56	29551.60
513.73	29661.61
513.90	29427.56
514.08	29701.40
514.25	29958.86
514.43	29811.40
514.60	29839.49
514.77	30157.80
514.95	30136.74
515.12	30110.99
515.29	29830.13
515.47	30307.60
515.64	30398.88
515.81	30331.00
515.99	30281.85
516.16	30417.60
516.33	30632.93
516.51	30604.84
516.68	30735.92
516.85	31068.27
517.03	31087.00
517.20	30834.22
517.37	30789.75
517.54	31189.98
517.72	31110.40
517.89	30719.53
518.06	31211.04
518.24	31126.78
518.41	31206.36
518.58	31601.91
518.75	31000.40
518.93	31468.50
519.10	31292.96
519.27	31524.68
519.45	31578.51
519.62	31700.22
519.79	31896.82
519.96	31927.25
520.14	32095.77
520.31	31641.70
520.48	32023.21
520.65	32339.18
520.83	32479.61
521.00	32184.71
521.17	32067.68
521.34	32212.79
521.52	32725.37
521.69	32659.84
521.86	32638.77
522.03	32720.69
522.20	32842.40
522.38	33179.43
522.55	33027.30
522.72	32741.75
522.89	33354.97
523.07	33680.31
523.24	33270.72
523.41	33610.09
523.58	33483.70
523.75	33771.59
523.92	33392.42
524.10	33811.38
524.27	33827.76
524.44	33998.62
524.61	33593.71
524.78	34160.12
524.96	34321.62
525.13	34012.66
525.30	34408.22
525.47	34340.34
525.64	34293.53
525.81	34272.46
525.98	34155.44
526.16	34668.02
526.33	33844.15
526.50	34759.30
526.67	34160.12
526.84	34625.89
527.01	34330.98
527.18	34501.84
527.36	35379.54
527.53	35016.75
527.70	35311.66
527.87	35201.66
528.04	34883.34
528.21	34953.56
528.38	35211.02
528.55	35442.73
528.72	35337.41
528.89	35173.57
529.07	35072.93
529.24	35391.24
529.41	35332.73
529.58	35587.85
529.75	35220.38
529.92	35367.84
530.09	35136.12
530.26	35304.64
530.43	35536.35
530.60	35819.56
530.77	35421.67
530.94	35674.45
531.11	35765.73
531.28	35800.83
531.46	36072.34
531.63	36250.22
531.80	35852.33
531.97	35981.06
532.14	36098.08
532.31	36400.01
532.48	36418.74
532.65	36561.51
532.82	36552.15
532.99	36589.59
533.16	36397.67
533.33	36634.06
533.50	36657.47
533.67	36690.24
533.84	36701.94
534.01	36980.46
534.18	36907.91
534.35	37258.99
534.52	36921.95
534.69	37350.27
534.86	37106.85
535.03	37017.91
535.20	37188.77
535.37	37027.28
535.54	37371.33
535.71	37333.89
535.88	37273.03
536.05	37453.25
536.22	37759.86
536.38	37280.05
536.55	37710.71
536.72	37542.19
536.89	37305.80
537.06	37619.43
537.23	37670.92
537.40	37832.42
537.57	37893.27
537.74	37778.59
537.91	38010.30
538.08	37600.71
538.25	37603.05
538.42	37993.92
538.59	38581.39
538.75	38295.85
538.92	38700.76
539.09	38471.39
539.26	37949.45
539.43	38398.83
539.60	38543.94
539.77	38293.50
539.94	38794.38
540.11	38511.17
540.28	38480.75
540.44	38520.54
540.61	38667.99
540.78	38696.08
540.95	38646.93
541.12	38885.66
541.29	38349.68
541.46	38967.58
541.62	38862.26
541.79	38862.26
541.96	38845.87
542.13	39091.63
542.30	38838.85
542.47	38742.89
542.63	39257.81
542.80	39119.71
542.97	39365.47
543.14	39578.46
543.31	39648.68
543.48	39496.54
543.64	39864.00
543.81	39716.55
543.98	39744.64
544.15	39824.22
544.32	40135.51
544.48	40617.66
544.65	40449.14
544.82	40493.61
544.99	39496.54
545.16	39948.26
545.32	39845.28
545.49	40376.58
545.66	40395.31
545.83	40320.41
546.00	40538.08
546.16	39950.60
546.33	40093.38
546.50	40409.35
546.67	40467.86
546.83	40189.34
547.00	40608.29
547.17	40540.42
547.34	40217.43
547.50	40732.34
547.67	40996.82
547.84	40568.51
548.00	40900.86
548.17	40477.22
548.34	41184.07
548.51	41261.30
548.67	40945.33
548.84	40875.12
549.01	40973.42
549.18	41172.36
549.34	41062.36
549.51	41390.03
549.68	40811.92
549.84	41368.97
550.01	40753.41
550.18	41088.10
550.34	40945.33
550.51	41537.49
550.68	41645.15
550.84	41268.33
551.01	41682.60
551.18	41343.22
551.34	41141.94
551.51	41570.25
551.68	41801.97
551.84	41368.97
552.01	41762.18
552.18	41958.78
552.34	41769.20
552.51	41841.76
552.68	41783.24
552.84	41432.16
553.01	41783.24
553.18	41670.90
553.34	41745.80
553.51	41785.58
553.67	41965.81
553.84	42202.20
554.01	41963.46
554.17	42160.07
554.34	41890.91
554.51	42033.68
554.67	42899.68
554.84	42483.06
555.00	41773.88
555.17	41977.51
555.33	42447.96
555.50	42270.08
555.67	42089.85
555.83	42469.02
556.00	42457.32
556.16	43012.02
556.33	43007.34
556.50	42307.52
556.66	42754.57
556.83	42405.83
556.99	42529.87
557.16	43023.73
557.32	42740.52
557.49	43189.91
557.65	42609.45
557.82	42410.51
557.98	42295.82
558.15	42422.21
558.32	42770.95
558.48	42689.03
558.65	43129.05
558.81	42890.32
558.98	42794.36
559.14	42672.65
559.31	42878.61
559.47	42714.78
559.64	43278.85
559.80	42983.94
559.97	43332.68
560.13	42934.79
560.30	43407.58
560.46	43426.30
560.63	43044.79
560.79	43580.78
560.96	43477.79
561.12	43812.49
561.29	43550.35
561.45	43501.20
561.61	43260.12
561.78	43215.65
561.94	43566.73
562.11	43206.29
562.27	43180.54
562.44	43243.74
562.60	43548.01
562.77	43812.49
562.93	43430.98
563.10	43555.03
563.26	43271.82
563.42	43658.01
563.59	43587.80
563.75	43746.95
563.92	43356.08
564.08	43496.52
564.24	43880.36
564.41	43641.63
564.57	43782.06
564.74	43910.79
564.90	43594.82
565.07	43945.90
565.23	43770.36
565.39	43578.43
565.56	43784.40
565.72	43955.26
565.88	43765.68
566.05	43852.28
566.21	43995.05
566.38	43665.03
566.54	44364.85
566.70	43901.43
566.87	43903.77
567.03	43550.35
567.19	44432.73
567.36	44109.74
567.52	43763.34
567.68	44261.87
567.85	44196.34
568.01	44446.77
568.17	43566.73
568.34	44062.93
568.50	44289.96
568.66	44306.34
568.83	44257.19
568.99	43992.71
569.15	44072.29
569.32	43973.98
569.48	43885.04
569.64	44257.19
569.81	44664.44
569.97	44009.09
570.13	44041.86
570.30	43981.01
570.46	44435.07
570.62	44175.27
570.78	44287.62
570.95	43945.90
571.11	44706.57
571.27	44236.12
571.43	44285.28
571.60	44416.35
571.76	44353.15
571.92	44161.23
572.09	43393.53
572.25	44273.57
572.41	44144.84
572.57	44238.47
572.74	44779.13
572.90	44257.19
573.06	44598.91
573.22	44641.04
573.38	44257.19
573.55	44299.32
573.71	44842.32
573.87	44446.77
574.03	44289.96
574.20	44900.84
574.36	44596.57
574.52	44573.16
574.68	44327.41
574.84	44514.65
575.01	44509.97
575.17	44383.58
575.33	44582.52
575.49	44467.84
575.65	44631.68
575.82	44699.55
575.98	44559.12
576.14	44994.46
576.30	44552.10
576.46	44907.86
576.62	44514.65
576.79	44957.01
576.95	44442.09
577.11	44304.00
577.27	44219.74
577.43	44444.43
577.59	44767.43
577.75	44395.28
577.92	44570.82
578.08	44240.81
578.24	44282.94
578.40	44935.95
578.56	44678.49
578.72	44816.58
578.88	44718.28
579.04	44818.92
579.21	44648.06
579.37	45179.36
579.53	44481.88
579.69	44851.69
579.85	44577.84
580.01	44622.31
580.17	44781.47
580.33	44566.14
580.49	44734.66
580.65	45258.94
580.82	44535.71
580.98	44884.45
581.14	44280.60
581.30	44624.65
581.46	44472.52
581.62	44512.31
581.78	44706.57
581.94	44989.78
582.10	44868.07
582.26	45226.17
582.42	44781.47
582.58	45001.48
582.74	44854.03
582.90	44772.11
583.06	44893.82
583.22	44816.58
583.38	44985.10
583.54	45153.62
583.70	44722.96
583.86	44734.66
584.02	44760.40
584.18	45457.88
584.34	45158.30
584.50	45485.97
584.66	44872.75
584.82	45036.59
584.98	45317.45
585.14	45008.50
585.30	45001.48
585.46	45074.04
585.62	44348.47
585.78	45340.86
585.94	44409.32
586.10	45069.36
586.26	44645.72
586.42	45179.36
586.58	44985.10
586.74	45137.23
586.90	44678.49
587.06	44772.11
587.22	45095.10
587.38	44575.50
587.54	45237.87
587.70	45652.15
587.86	45364.26
588.02	45221.49
588.18	44765.09
588.34	44800.19
588.49	45179.36
588.65	45118.51
588.81	45008.50
588.97	45326.81
589.13	45123.19
589.29	45057.65
589.45	45387.67
589.61	45045.95
589.77	44964.03
589.93	45242.56
590.08	45572.57
590.24	45474.27
590.40	45490.65
590.56	45537.46
590.72	45736.41
590.88	45392.35
591.04	45216.81
591.20	45654.49
591.35	45397.03
591.51	45680.24
591.67	45677.90
591.83	45373.63
591.99	45144.25
592.15	45261.28
592.31	45219.15
592.46	45488.31
592.62	45471.93
592.78	45890.88
592.94	45942.38
593.10	45757.47
593.26	45963.44
593.41	45603.00
593.57	45675.55
593.73	46014.93
593.89	45722.37
594.05	45947.06
594.20	45682.58
594.36	45794.92
594.52	45900.25
594.68	45797.26
594.84	45436.82
594.99	45581.93
595.15	45406.39
595.31	45708.32
595.47	46021.95
595.62	45666.19
595.78	45750.45
595.94	45645.13
596.10	45626.40
596.25	45949.40
596.41	45830.03
596.57	45654.49
596.73	45752.79
596.88	45841.73
597.04	45846.41
597.20	45925.99
597.36	45497.67
597.51	45619.38
597.67	46146.00
597.83	46047.70
597.99	45462.57
598.14	45677.90
598.30	45474.27
598.46	45476.61
598.61	46078.13
598.77	46157.70
598.93	45811.31
599.09	46000.89
599.24	46286.43
599.40	45785.56
599.56	45947.06
599.71	46064.08
599.87	45984.51
600.03	46185.79
600.18	46115.58
600.34	46087.49
600.50	46026.63
600.65	45780.88
600.81	46366.01
600.97	46005.57
601.12	46064.08
601.28	46092.17
601.44	45738.75
601.59	45787.90
601.75	46012.59
601.91	46124.94
602.06	45773.86
602.22	46000.89
602.37	46387.08
602.53	46075.79
602.69	45860.46
602.84	45628.74
603.00	46103.87
603.16	46043.02
603.31	46113.23
603.47	46480.70
603.62	45839.39
603.78	46490.06
603.94	46408.14
604.09	45794.92
604.25	45832.37
604.40	45982.16
604.56	45930.67
604.71	46122.60
604.87	45778.54
605.03	45605.34
605.18	45741.09
605.34	45691.94
605.49	46057.06
605.65	45841.73
605.80	45827.69
605.96	45373.63
606.12	45591.30
606.27	46028.98
606.43	45340.86
606.58	46181.11
606.74	45476.61
606.89	45476.61
607.05	45542.14
607.20	45865.14
607.36	45792.58
607.51	46031.32
607.67	45663.85
607.82	45607.68
607.98	45780.88
608.13	45446.18
608.29	46026.63
608.44	45478.95
608.60	45673.21
608.75	45820.67
608.91	45251.92
609.06	45462.57
609.22	45591.30
609.37	45331.50
609.53	45612.36
609.68	45886.20
609.84	45322.13
609.99	45851.09
610.15	45787.90
610.30	45588.95
610.46	44882.11
610.61	46017.27
610.76	45780.88
610.92	45373.63
611.07	45090.42
611.23	45062.33
611.38	45329.16
611.54	45902.59
611.69	45418.10
611.84	45799.60
612.00	45010.84
612.15	45514.06
612.31	45223.83
612.46	45296.39
612.62	45174.68
612.77	45167.66
612.92	45467.25
613.08	45560.87
613.23	45113.83
613.39	45429.80
613.54	45139.57
613.69	45170.00
613.85	45408.73
614.00	45315.11
614.15	45294.05
614.31	45132.55
614.46	44952.33
614.62	44753.38
614.77	45258.94
614.92	45476.61
615.08	45038.93
615.23	45298.73
615.38	45092.76
615.54	44989.78
615.69	45375.97
615.84	45427.46
616.00	45539.80
616.15	44877.43
616.30	45109.14
616.46	45162.98
616.61	45090.42
616.76	44847.00
616.92	45130.21
617.07	44863.39
617.22	45390.01
617.37	44278.25
617.53	44737.00
617.68	45113.83
617.83	45008.50
617.99	45212.13
618.14	45392.35
618.29	44584.86
618.45	44889.13
618.60	44465.50
618.75	44769.77
618.90	44886.79
619.06	44634.02
619.21	44701.89
619.36	44893.82
619.51	44690.19
619.67	44779.13
619.82	44629.34
619.97	44711.25
620.12	44198.68
620.28	44409.32
620.43	44261.87
620.58	44704.23
620.73	44559.12
620.89	44842.32
621.04	44524.01
621.19	44533.37
621.34	44486.56
621.49	43957.60
621.65	44554.44
621.80	44289.96
621.95	43913.13
622.10	44318.04
622.25	44304.00
622.41	43835.89
622.56	44027.82
622.71	44121.44
622.86	44320.38
623.01	44561.46
623.16	44252.51
623.32	43934.20
623.47	44065.27
623.62	44369.54
623.77	44098.03
623.92	44189.31
624.07	44257.19
624.23	44165.91
624.38	44116.76
624.53	43962.28
624.68	43714.19
624.83	43672.06
624.98	43917.81
625.13	43515.24
625.29	43707.16
625.44	43952.92
625.59	43566.73
625.74	43936.54
625.89	43398.21
626.04	43697.80
626.19	44039.52
626.34	43447.36
626.49	43548.01
626.65	43206.29
626.80	43438.00
626.95	43042.45
627.10	43590.14
627.25	43515.24
627.40	43606.52
627.55	43482.47
627.70	43023.73
627.85	43477.79
628.00	43360.76
628.15	43744.61
628.30	43136.07
628.45	43138.41
628.60	43044.79
628.76	43456.73
628.91	43356.08
629.06	43030.75
629.21	42705.41
629.36	42630.52
629.51	42939.47
629.66	43358.42
629.81	43040.11
629.96	43054.15
630.11	42859.89
630.26	42841.17
630.41	43056.50
630.56	42525.19
630.71	42691.37
630.86	42696.05
631.01	42698.39
631.16	42789.67
631.31	42546.26
631.46	42857.55
631.61	43021.39
631.76	42820.10
631.91	42696.05
632.06	42932.45
632.21	43098.62
632.36	42822.44
632.51	42349.65
632.66	42801.38
632.81	42480.72
632.96	42476.04
633.10	42263.05
633.25	42656.26
633.40	42373.06
633.55	42520.51
633.70	42588.39
633.85	42195.18
634.00	42447.96
634.15	42218.58
634.30	42440.93
634.45	42260.71
634.60	42375.40
634.75	42609.45
634.90	42492.43
635.05	42337.95
635.19	42218.58
635.34	42349.65
635.49	42059.43
635.64	42471.36
635.79	42651.58
635.94	41607.70
636.09	42117.94
636.24	41916.65
636.39	42010.28
636.53	42183.48
636.68	42157.73
636.83	41914.31
636.98	41766.86
637.13	41858.14
637.28	41677.92
637.43	41598.34
637.57	41923.68
637.72	41731.75
637.87	41783.24
638.02	41794.95
638.17	41624.09
638.32	41481.31
638.46	41268.33
638.61	41773.88
638.76	41280.03
638.91	41708.35
639.06	41792.61
639.20	41291.73
639.35	41163.00
639.50	41219.17
639.65	41329.18
639.80	41551.53
639.94	41443.87
640.09	41240.24
640.24	41500.04
640.39	41155.98
640.54	41064.70
640.68	41493.02
640.83	41574.94
640.98	41120.87
641.13	41125.55
641.27	41654.51
641.42	41549.19
641.57	40931.29
641.72	41497.70
641.86	40987.46
642.01	41008.53
642.16	40779.15
642.31	40404.67
642.45	41174.70
642.60	40999.16
642.75	40861.07
642.90	40914.90
643.04	41158.32
643.19	40954.69
643.34	40950.01
643.48	40605.95
643.63	40655.11
643.78	40917.25
643.93	41113.85
644.07	40863.41
644.22	41198.11
644.37	40718.30
644.51	40973.42
644.66	40844.69
644.81	40818.94
644.95	40570.85
645.10	40638.72
645.25	40297.00
645.39	40325.09
645.54	40140.19
645.69	40526.38
645.83	40399.99
645.98	40472.54
646.13	40322.75
646.27	40416.37
646.42	39856.98
646.57	40231.47
646.71	40573.19
646.86	40257.21
647.00	40292.32
647.15	40456.16
647.30	40552.12
647.44	40371.90
647.59	40245.51
647.74	39985.71
647.88	40107.42
648.03	40849.37
648.17	40418.71
648.32	40339.13
648.47	40287.64
648.61	39751.66
648.76	39931.88
648.90	39756.34
649.05	39981.03
649.20	39749.32
649.34	40624.68
649.49	40016.14
649.63	39997.41
649.78	40067.63
649.92	40112.10
650.07	40205.72
650.21	40142.53
650.36	40034.86
650.51	40055.93
650.65	39896.77
650.80	39945.92
650.94	40161.25
651.09	39580.80
651.23	39405.26
651.38	39407.60
651.52	39037.80
651.67	39421.64
651.81	39910.82
651.96	39786.77
652.10	39360.79
652.25	39311.64
652.39	39356.11
652.54	39625.27
652.68	39321.00
652.83	39442.71
652.97	39353.77
653.12	39129.08
653.26	39416.96
653.41	39438.03
653.55	39323.34
653.70	39564.42
653.84	39580.80
653.99	39761.02
654.13	39405.26
654.27	39267.17
654.42	39646.33
654.56	39262.49
654.71	39100.99
654.85	39145.46
655.00	38754.59
655.14	39196.95
655.29	39409.94
655.43	39089.29
655.57	39063.54
655.72	38494.79
655.86	38902.04
656.01	38464.36
656.15	38171.80
656.30	38721.82
656.44	38218.61
656.58	39182.91
656.73	38227.97
656.87	38040.73
657.01	38384.79
657.16	39070.56
657.30	38539.26
657.45	39037.80
657.59	38143.71
657.73	38267.76
657.88	38536.92
658.02	38567.35
658.16	38792.04
658.31	38302.87
658.45	38429.26
658.60	38010.30
658.74	38384.79
658.88	38529.90
659.03	38532.24
659.17	37979.87
659.31	37993.92
659.46	37703.69
659.60	38321.59
659.74	37977.53
659.89	37670.92
660.03	37406.44
660.17	37897.95
660.32	37619.43
660.46	37368.99
660.60	37401.76
660.74	37778.59
660.89	37919.02
661.03	37567.94
661.17	37350.27
661.32	37069.40
661.46	37682.62
661.60	37312.82
661.74	37340.91
661.89	37567.94
662.03	37090.47
662.17	36732.37
662.31	37146.64
662.46	37193.45
662.60	37036.64
662.74	36762.79
662.88	36645.77
663.03	36350.86
663.17	36533.42
663.31	36477.25
663.45	37235.58
663.60	37202.82
663.74	37013.23
663.88	36975.78
664.02	36098.08
664.17	36935.99
664.31	36231.49
664.45	35864.03
664.59	36542.78
664.73	36109.78
664.88	36517.04
665.02	35761.05
665.16	36074.68
665.30	35964.67
665.44	36378.95
665.59	35562.10
665.73	35777.43
665.87	35405.28
666.01	35618.27
666.15	35803.17
666.29	35784.45
666.44	35871.05
666.58	35625.29
666.72	35634.66
666.86	35629.98
667.00	35353.79
667.14	35395.92
667.28	35316.34
667.43	35508.27
667.57	35550.40
667.71	35257.83
667.85	35440.39
667.99	35393.58
668.13	34852.92
668.27	34536.94
668.41	35166.55
668.56	33900.32
668.70	34602.48
668.84	34511.20
668.98	34625.89
669.12	34759.30
669.26	34550.99
669.40	34534.60
669.54	34473.75
669.68	34529.92
669.82	34560.35
669.96	33963.51
670.10	33982.24
670.25	34220.97
670.39	33893.30
670.53	34167.14
670.67	33802.02
670.81	34160.12
670.95	34136.71
671.09	33684.99
671.23	33755.21
671.37	33954.15
671.51	33706.05
671.65	33563.28
671.79	33624.14
671.93	33472.00
672.07	34040.75
672.21	33184.12
672.35	32968.79
672.49	32723.03
672.63	33446.26
672.77	33408.81
672.91	32818.99
673.05	32744.09
673.19	32486.64
673.33	32919.63
673.47	32367.27
673.61	32624.73
673.75	32287.69
673.89	32306.41
674.03	32140.24
674.17	31913.20
674.31	32051.30
674.45	31981.08
674.59	31931.93
674.73	32463.23
674.87	32182.37
675.01	31613.62
675.15	31531.70
675.29	31468.50
675.43	31522.34
675.56	31763.41
675.70	31215.72
675.84	31152.53
675.98	30455.05
676.12	31164.23
676.26	31461.48
676.40	30796.77
676.54	30857.62
676.68	31108.06
676.82	30160.14
676.96	30920.82
677.10	30448.03
677.23	30632.93
677.37	30249.08
677.51	30232.70
677.65	30307.60
677.79	30092.27
677.93	30122.69
678.07	30000.99
678.21	30064.18
678.34	29612.46
678.48	29450.96
678.62	29383.09
678.76	29479.05
678.90	29376.06
679.04	29345.64
679.18	29249.67
679.31	29034.35
679.45	28947.75
679.59	28893.91
679.73	28905.62
679.87	28634.11
680.00	28711.35
680.14	28402.40
680.28	28421.13
680.42	28547.51
680.56	28414.10
680.70	28437.51
680.83	28147.28
680.97	27929.61
681.11	27791.52
681.25	27976.42
681.39	27740.03
681.52	27615.98
681.66	27185.32
681.80	27391.29
681.94	27222.77
682.07	26969.99
682.21	27180.64
682.35	26792.11
682.49	27061.27
682.62	26984.04
682.76	26647.00
682.90	26862.33
683.04	26637.64
683.17	26686.79
683.31	26518.27
683.45	26078.25
683.59	26284.22
683.72	25876.96
683.86	25809.09
684.00	25729.51
684.13	25989.31
684.27	25703.76
684.41	25530.56
684.55	25532.90
684.68	25678.02
684.82	25273.10
684.96	25238.00
685.09	25230.98
685.23	25254.38
685.37	25397.15
685.50	25226.29
685.64	24950.11
685.78	24755.85
685.91	24613.07
686.05	24390.72
686.19	24201.14
686.32	24166.03
686.46	23992.83
686.60	23967.09
686.73	24060.71
686.87	23962.40
687.01	24348.59
687.14	23990.49
687.28	23763.46
687.42	24121.56
687.55	23700.26
687.69	23477.91
687.82	23328.12
687.96	23157.26
688.10	23454.51
688.23	23407.70
688.37	23506.00
688.50	23307.05
688.64	22977.04
688.78	22740.64
688.91	22951.29
689.05	22595.53
689.18	22476.16
689.32	22480.85
689.46	22515.95
689.59	22408.29
689.73	22190.62
689.86	22843.63
690.00	22260.84
690.13	22120.40
690.27	21813.79
690.41	22169.55
690.54	21511.86
690.68	21701.45
690.81	21647.61
690.95	21532.93
691.08	21647.61
691.22	21324.62
691.35	21280.15
691.49	21006.31
691.62	21254.40
691.76	20692.68
691.89	20594.37
692.03	20477.35
692.16	20376.70
692.30	20664.59
692.43	20475.01
692.57	20531.18
692.70	20421.17
692.84	20292.44
692.97	20147.33
693.11	20294.79
693.24	19814.98
693.38	19660.50
693.51	19665.18
693.65	19601.99
693.78	19433.47
693.92	19454.53
694.05	19723.69
694.19	19248.57
694.32	19066.00
694.45	19557.52
694.59	19494.32
694.72	19590.28
694.86	19157.28
694.99	18733.65
695.13	18860.04
695.26	18466.83
695.39	18490.23
695.53	18553.43
695.66	18689.18
695.80	18452.78
695.93	18408.31
696.07	18455.12
696.20	17947.23
696.33	17584.44
696.47	17743.60
696.60	17937.87
696.73	17975.31
696.87	17926.16
697.00	17699.13
697.14	17673.39
697.27	17387.84
697.40	17282.52
697.54	17460.40
697.67	17397.20
697.80	17331.67
697.94	17305.92
698.07	16924.41
698.21	16884.62
698.34	16695.04
698.47	16734.83
698.61	16599.08
698.74	16449.28
698.87	16393.11
699.01	16346.30
699.14	16479.71
699.27	16224.59
699.40	15990.54
699.54	16491.41
699.67	15892.24
699.80	16140.33
699.94	16086.50
700.07	16100.55
700.20	15807.98
700.34	15506.05
700.47	16058.42
700.60	15852.45
700.73	15800.96
700.87	15765.85
701.00	15286.04
701.13	15297.74
701.26	15176.03
701.40	15215.82
701.53	15101.14
701.66	15042.62
701.79	14984.11
701.93	14541.75
702.06	14663.46
702.19	14724.31
702.32	14726.65
702.46	14747.72
702.59	14623.67
702.72	14607.28
702.85	14721.97
702.99	14317.06
703.12	14373.23
703.25	14272.59
703.38	13956.61
703.51	14214.07
703.65	14111.09
703.78	13703.84
703.91	13453.40
704.04	13694.47
704.17	13720.22
704.31	13411.27
704.44	13650.00
704.57	13582.13
704.70	13603.19
704.83	13289.56
704.96	13355.10
705.10	13327.01
705.23	13186.58
>>>>>End Processed Spectral Data<<<<<
