SpectraSuite Data File
++++++++++++++++++++++++++++++++++++
Date: Fri Oct 25 10:47:16 EDT 2013
User: price-jones
Dark Spectrum Present: No
Reference Spectrum Present: No
Number of Sampled Component Spectra: 1
Spectrometers: USB2+H05261
Integration Time (usec): 100000 (USB2+H05261)
Spectra Averaged: 1 (USB2+H05261)
Boxcar Smoothing: 0 (USB2+H05261)
Correct for Electrical Dark: No (USB2+H05261)
Strobe/Lamp Enabled: No (USB2+H05261)
Correct for Detector Non-linearity: No (USB2+H05261)
Correct for Stray Light: No (USB2+H05261)
Number of Pixels in Processed Spectrum: 2048
>>>>>Begin Processed Spectral Data<<<<<
365.73	166.18
365.92	166.18
366.12	166.18
366.32	77.24
366.52	91.28
366.72	65.54
366.91	67.88
367.11	51.49
367.31	86.60
367.51	0.00
367.70	51.49
367.90	72.56
368.10	9.36
368.30	49.15
368.49	28.09
368.69	56.17
368.89	37.45
369.09	93.62
369.28	117.03
369.48	91.28
369.68	9.36
369.87	88.94
370.07	81.92
370.27	107.66
370.47	198.95
370.66	351.08
370.86	491.51
371.06	344.06
371.25	486.83
371.45	433.00
371.65	442.36
371.84	507.90
372.04	390.87
372.24	407.25
372.44	456.40
372.63	514.92
372.83	517.26
373.03	454.06
373.22	449.38
373.42	505.56
373.62	500.87
373.81	540.66
374.01	543.00
374.21	575.77
374.40	547.69
374.60	524.28
374.79	402.57
374.99	578.11
375.19	519.60
375.38	533.64
375.58	486.83
375.78	573.43
375.97	561.73
376.17	627.26
376.37	571.09
376.56	521.94
376.76	528.96
376.95	585.13
377.15	582.79
377.35	599.18
377.54	599.18
377.74	582.79
377.93	606.20
378.13	645.99
378.33	594.50
378.52	594.50
378.72	603.86
378.91	674.07
379.11	615.56
379.31	587.47
379.50	585.13
379.70	643.65
379.89	629.60
380.09	643.65
380.28	631.94
380.48	615.56
380.68	627.26
380.87	603.86
381.07	601.52
381.26	615.56
381.46	594.50
381.65	744.29
381.85	641.31
382.04	709.18
382.24	683.44
382.43	662.37
382.63	674.07
382.83	674.07
383.02	702.16
383.22	704.50
383.41	678.76
383.61	695.14
383.80	678.76
384.00	702.16
384.19	676.41
384.39	772.38
384.58	779.40
384.78	744.29
384.97	711.52
385.17	709.18
385.36	760.67
385.56	791.10
385.75	730.25
385.95	847.27
386.14	837.91
386.34	744.29
386.53	763.01
386.72	685.78
386.92	767.70
387.11	814.51
387.31	854.30
387.50	683.44
387.70	828.55
387.89	802.80
388.09	746.63
388.28	723.23
388.48	863.66
388.67	866.00
388.86	758.33
389.06	858.98
389.25	912.81
389.45	887.06
389.64	842.59
389.84	858.98
390.03	854.30
390.22	863.66
390.42	959.62
390.61	842.59
390.81	833.23
391.00	891.74
391.19	877.70
391.39	894.08
391.58	997.07
391.78	980.68
391.97	945.58
392.16	964.30
392.36	1013.45
392.55	957.28
392.75	926.85
392.94	915.15
393.13	915.15
393.33	1008.77
393.52	931.53
393.71	936.21
393.91	1020.47
394.10	966.64
394.29	1055.58
394.49	997.07
394.68	943.24
394.88	1041.54
395.07	1088.35
395.26	990.05
395.46	1069.62
395.65	1020.47
395.84	1057.92
396.04	1071.97
396.23	1125.80
396.42	1116.44
396.62	1069.62
396.81	1121.12
397.00	1123.46
397.19	1137.50
397.39	1102.39
397.58	1165.59
397.77	1158.57
397.97	1200.69
398.16	1167.93
398.35	1310.70
398.55	1226.44
398.74	1268.57
398.93	1352.83
399.12	1252.19
399.32	1238.14
399.51	1198.35
399.70	1294.32
399.90	1245.16
400.09	1254.53
400.28	1359.85
400.47	1371.55
400.67	1401.98
400.86	1306.02
401.05	1383.26
401.24	1369.21
401.44	1404.32
401.63	1439.43
401.82	1451.13
402.01	1378.58
402.21	1390.28
402.40	1441.77
402.59	1472.20
402.78	1430.07
402.97	1652.42
403.17	1521.35
403.36	1430.07
403.55	1516.67
403.74	1598.59
403.93	1540.07
404.13	1584.54
404.32	1607.95
404.51	1540.07
404.70	1619.65
404.89	1584.54
405.09	1687.53
405.28	1643.06
405.47	1689.87
405.66	1753.06
405.85	1755.40
406.05	1614.97
406.24	1671.14
406.43	1640.72
406.62	1629.01
406.81	1802.21
407.00	1657.10
407.20	1708.59
407.39	1799.87
407.58	1778.81
407.77	1898.17
407.96	1778.81
408.15	1748.38
408.34	1823.28
408.54	1802.21
408.73	1863.07
408.92	1973.07
409.11	1933.28
409.30	1933.28
409.49	1919.24
409.68	1956.69
409.87	1909.88
410.07	1963.71
410.26	1987.11
410.45	1973.07
410.64	2008.18
410.83	2118.18
411.02	2125.21
411.21	2129.89
411.40	2111.16
411.59	2279.68
411.78	2122.87
411.98	2207.13
412.17	2165.00
412.36	2209.47
412.55	2422.45
412.74	2305.43
412.93	2354.58
413.12	2284.36
413.31	2420.11
413.50	2314.79
413.69	2363.94
413.88	2417.77
414.07	2471.61
414.26	2424.80
414.45	2450.54
414.64	2495.01
414.83	2609.70
415.02	2504.37
415.22	2656.51
415.41	2607.36
415.60	2651.83
415.79	2677.57
415.98	2768.85
416.17	2670.55
416.36	2724.38
416.55	2775.88
416.74	2799.28
416.93	2689.28
417.12	2942.05
417.31	2808.64
417.50	2841.41
417.69	2892.90
417.88	2932.69
418.07	2867.16
418.26	2918.65
418.45	3059.08
418.64	3162.06
418.83	3112.91
419.02	2806.30
419.21	3108.23
419.39	3066.10
419.58	3059.08
419.77	2972.48
419.96	2984.18
420.15	3091.85
420.34	3098.87
420.53	3211.22
420.72	3187.81
420.91	3183.13
421.10	3248.66
421.29	3304.84
421.48	3178.45
421.67	3262.71
421.86	3171.43
422.05	3248.66
422.24	3332.92
422.43	3234.62
422.61	3309.52
422.80	3206.53
422.99	3325.90
423.18	3330.58
423.37	3449.95
423.56	3283.77
423.75	3222.92
423.94	3311.86
424.13	3126.96
424.32	3155.04
424.50	3421.86
424.69	3562.30
424.88	3335.26
425.07	3321.22
425.26	3225.26
425.45	3290.79
425.64	3438.25
425.83	3393.78
426.01	3398.46
426.20	3372.71
426.39	3496.76
426.58	3485.06
426.77	3410.16
426.96	3466.33
427.15	3480.38
427.33	3400.80
427.52	3611.45
427.71	3592.72
427.90	3571.66
428.09	3531.87
428.28	3620.81
428.46	3719.11
428.65	3611.45
428.84	3857.20
429.03	3665.28
429.22	3648.90
429.40	3688.68
429.59	3637.19
429.78	3576.34
429.97	3667.62
430.16	3768.26
430.34	3691.02
430.53	3794.01
430.72	3740.18
430.91	3672.30
431.10	3658.26
431.28	3922.74
431.47	3992.95
431.66	3939.12
431.85	3878.27
432.03	4030.40
432.22	4112.32
432.41	4072.53
432.60	4060.83
432.79	3885.29
432.97	4025.72
433.16	3995.29
433.35	4039.76
433.54	4121.68
433.72	4091.26
433.91	4072.53
434.10	4114.66
434.28	4030.40
434.47	4231.69
434.66	4280.84
434.85	4264.46
435.03	4109.98
435.22	4276.16
435.41	4432.97
435.59	4381.48
435.78	4447.02
435.97	4196.58
436.16	4416.59
436.34	4379.14
436.53	4440.00
436.72	4573.41
436.90	4498.51
437.09	4601.49
437.28	4486.81
437.46	4603.83
437.65	4489.15
437.84	4578.09
438.02	4507.87
438.21	4500.85
438.40	4475.10
438.58	4526.60
438.77	4737.24
438.96	4744.27
439.14	4767.67
439.33	4765.33
439.52	4833.21
439.70	4809.80
439.89	4947.89
440.08	4870.65
440.26	5025.13
440.45	4882.36
440.63	4999.38
440.82	5139.82
441.01	5011.09
441.19	5085.98
441.38	5144.50
441.57	5142.16
441.75	5235.78
441.94	5359.83
442.12	5355.15
442.31	5310.68
442.50	5280.25
442.68	5331.74
442.87	5406.64
443.05	5362.17
443.24	5507.28
443.43	5390.25
443.61	5596.22
443.80	5600.90
443.98	5352.81
444.17	5362.17
444.35	5504.94
444.54	5762.40
444.73	5619.63
444.91	5680.48
445.10	5481.53
445.28	5610.26
445.47	5451.11
445.65	5455.79
445.84	5605.58
446.02	5636.01
446.21	5640.69
446.39	5418.34
446.58	5685.16
446.77	5617.29
446.95	5575.16
447.14	5692.18
447.32	5762.40
447.51	5776.44
447.69	5453.45
447.88	5575.16
448.06	5706.23
448.25	5865.38
448.43	5788.14
448.62	5727.29
448.80	5603.24
448.99	5830.27
449.17	5900.49
449.36	5738.99
449.54	6015.18
449.73	5984.75
449.91	6076.03
450.10	6223.48
450.28	6139.23
450.46	6012.84
450.65	6108.80
450.83	6099.44
451.02	6228.17
451.20	6296.04
451.39	6246.89
451.57	6092.41
451.76	6092.41
451.94	6164.97
452.13	6181.35
452.31	6225.82
452.49	6132.20
452.68	6282.00
452.86	6125.18
453.05	6202.42
453.23	6406.05
453.42	6305.40
453.60	6277.32
453.78	6396.68
453.97	6291.36
454.15	6328.81
454.34	6270.30
454.52	6597.97
454.70	6597.97
454.89	6487.96
455.07	6551.16
455.26	6422.43
455.44	6635.42
455.62	6754.79
455.81	6768.83
455.99	6787.55
456.17	6656.48
456.36	6731.38
456.54	6719.68
456.73	6817.98
456.91	7005.22
457.09	6829.68
457.28	6993.52
457.46	6876.49
457.64	7033.31
457.83	7159.70
458.01	6897.56
458.19	7026.29
458.38	6937.35
458.56	7176.08
458.74	7007.56
458.93	7218.21
459.11	7241.62
459.29	7232.26
459.48	7229.91
459.66	7229.91
459.84	7250.98
460.03	7410.14
460.21	7379.71
460.39	7389.07
460.57	7192.47
460.76	7349.28
460.94	7309.49
461.12	7389.07
461.31	7506.10
461.49	7276.73
461.67	7330.56
461.85	7485.03
462.04	7543.55
462.22	7992.93
462.40	7672.28
462.59	7691.00
462.77	7573.97
462.95	7559.93
463.13	7719.09
463.32	7712.07
463.50	7765.90
463.68	7772.92
463.86	7728.45
464.05	7691.00
464.23	7726.11
464.41	7967.18
464.59	7641.85
464.78	7864.20
464.96	7899.31
465.14	7742.49
465.32	8028.04
465.50	8098.25
465.69	8079.53
465.87	8025.70
466.05	8088.89
466.23	8044.42
466.41	8079.53
466.60	8149.75
466.78	8067.83
466.96	8042.08
467.14	7955.48
467.32	8152.09
467.51	8215.28
467.69	8049.10
467.87	8163.79
468.05	8252.73
468.23	8191.88
468.41	8273.79
468.60	8205.92
468.78	8465.72
468.96	8259.75
469.14	8500.83
469.32	8559.34
469.50	8238.69
469.69	8449.33
469.87	8664.66
470.05	8557.00
470.23	8723.18
470.41	8444.65
470.59	8585.08
470.77	8592.11
470.95	8744.24
471.14	8659.98
471.32	8463.38
471.50	8847.22
471.68	8762.97
471.86	8985.32
472.04	8966.59
472.22	9135.11
472.40	8987.66
472.58	8954.89
472.77	9046.17
472.95	9186.60
473.13	9455.76
473.31	9221.71
473.49	9029.79
473.67	9352.78
473.85	9338.74
474.03	9444.06
474.21	9589.17
474.39	9551.73
474.57	9657.05
474.75	9635.99
474.93	9720.24
475.12	9626.62
475.30	9853.66
475.48	9816.21
475.66	9940.26
475.84	9820.89
476.02	9827.91
476.20	10249.21
476.38	10200.05
476.56	10593.26
476.74	10146.22
476.92	10296.02
477.10	10368.57
477.28	10647.10
477.46	10317.08
477.64	10494.96
477.82	10824.98
478.00	10773.49
478.18	10834.34
478.36	11049.67
478.54	11052.01
478.72	11098.82
478.90	11398.41
479.08	11283.72
479.26	11358.62
479.44	11445.22
479.62	11620.76
479.80	11658.21
479.98	11712.04
480.16	12084.19
480.34	11782.26
480.52	11913.33
480.70	11946.09
480.88	12035.03
481.06	12109.93
481.24	12039.72
481.41	12320.58
481.59	12608.47
481.77	12458.67
481.95	12968.91
482.13	12950.18
482.31	12594.42
482.49	12922.10
482.67	13071.89
482.85	13177.22
483.03	13062.53
483.21	13383.18
483.39	13378.50
483.57	13565.74
483.74	13547.02
483.92	13846.61
484.10	13596.17
484.28	13858.31
484.46	14092.37
484.64	14232.80
484.82	13989.38
485.00	14237.48
485.18	14338.12
485.35	14679.84
485.53	14679.84
485.71	14595.58
485.89	15030.92
486.07	14717.29
486.25	15047.30
486.43	14883.47
486.61	15264.97
486.78	15400.72
486.96	15304.76
487.14	15426.47
487.32	15697.97
487.50	15847.77
487.68	15807.98
487.85	15917.98
488.03	16374.39
488.21	16208.21
488.39	16168.42
488.57	16491.41
488.75	16666.95
488.92	17076.55
489.10	17001.65
489.28	17448.69
489.46	17287.20
489.64	17397.20
489.81	17647.64
489.99	17689.77
490.17	17891.06
490.35	18108.72
490.53	17998.72
490.70	18185.96
490.88	18019.78
491.06	18600.24
491.24	18319.37
491.41	18375.55
491.59	18773.44
491.77	18747.69
491.95	18735.99
492.13	18588.53
492.30	19185.37
492.48	19255.59
492.66	19288.35
492.84	19108.13
493.01	19529.43
493.19	19737.74
493.37	19948.39
493.54	19786.89
493.72	19723.69
493.90	20283.08
494.08	20236.27
494.25	20442.24
494.43	20388.41
494.61	20594.37
494.79	20596.71
494.96	20634.16
495.14	20336.91
495.32	21109.29
495.49	20947.79
495.67	21376.11
495.85	21378.45
496.02	21336.32
496.20	21422.92
496.38	21722.51
496.55	21764.64
496.73	22244.45
496.91	21900.39
497.09	22242.11
497.26	22089.98
497.44	22387.22
497.62	22265.52
497.79	22572.13
497.97	22567.45
498.14	22515.95
498.32	22682.13
498.50	22647.02
498.67	23023.85
498.85	23056.62
499.03	23520.04
499.20	23152.58
499.38	23632.39
499.56	23517.70
499.73	23531.75
499.91	23915.59
500.08	23751.76
500.26	23728.35
500.44	23950.70
500.61	24123.90
500.79	24067.73
500.97	23913.25
501.14	24180.07
501.32	24664.57
501.49	24561.58
501.67	24425.83
501.84	24889.26
502.02	24823.72
502.20	25144.38
502.37	25043.73
502.55	24999.26
502.72	25050.75
502.90	24840.11
503.07	25081.18
503.25	25240.34
503.43	25205.23
503.60	25551.63
503.78	25317.57
503.95	25493.12
504.13	25378.43
504.30	25694.40
504.48	25352.68
504.65	26059.52
504.83	26033.78
505.01	26136.76
505.18	26064.21
505.36	26508.91
505.53	26476.14
505.71	26302.94
505.88	26473.80
506.06	26019.74
506.23	26551.04
506.41	26441.03
506.58	26712.53
506.76	26771.05
506.93	27115.11
507.11	27072.98
507.28	26827.22
507.46	27019.14
507.63	26630.62
507.81	27339.80
507.98	27491.93
508.16	27435.76
508.33	27374.91
508.50	27513.00
508.68	27615.98
508.85	28203.46
509.03	27871.10
509.20	27590.24
509.38	28247.93
509.55	27936.63
509.73	28189.41
509.90	28341.55
510.08	28285.37
510.25	28175.37
510.42	28458.57
510.60	28636.45
510.77	28687.95
510.95	29142.01
511.12	28783.91
511.30	28996.90
511.47	28992.22
511.64	29013.28
511.82	29146.69
511.99	28907.96
512.17	29003.92
512.34	29422.87
512.51	29439.26
512.69	29521.18
512.86	29699.06
513.04	29680.33
513.21	29776.30
513.38	29820.77
513.56	30277.17
513.73	29935.45
513.90	29570.33
514.08	29818.42
514.25	29921.41
514.43	30363.77
514.60	30389.52
514.77	30141.42
514.95	30726.55
515.12	30394.20
515.29	30611.87
515.47	30775.70
515.64	30976.99
515.81	30836.56
515.99	30642.29
516.16	30771.02
516.33	30881.03
516.51	30799.11
516.68	30768.68
516.85	30768.68
517.03	30850.60
517.20	30754.64
517.37	31129.12
517.54	31307.01
517.72	31346.79
517.89	31758.73
518.06	31087.00
518.24	31395.95
518.41	31220.41
518.58	31639.36
518.75	31618.30
518.93	32013.85
519.10	31648.72
519.27	32063.00
519.45	31857.03
519.62	32360.25
519.79	32481.95
519.96	32601.32
520.14	32624.73
520.31	32198.75
520.48	32638.77
520.65	32566.21
520.83	32818.99
521.00	32840.06
521.17	33043.68
521.34	32601.32
521.52	32933.68
521.69	32680.90
521.86	33043.68
522.03	33280.08
522.20	32943.04
522.38	33205.18
522.55	33383.06
522.72	33495.41
522.89	33340.93
523.07	33621.80
523.24	33120.92
523.41	33584.35
523.58	33315.19
523.75	33912.02
523.92	34117.99
524.10	34040.75
524.27	33780.95
524.44	34375.45
524.61	34258.42
524.78	34249.06
524.96	34677.38
525.13	34448.00
525.30	34616.52
525.47	34501.84
525.64	34548.65
525.81	34373.11
525.98	34696.10
526.16	34373.11
526.33	34345.02
526.50	34609.50
526.67	34405.88
526.84	34328.64
527.01	34415.24
527.18	34983.99
527.36	35026.12
527.53	35129.10
527.70	35557.42
527.87	35367.84
528.04	34962.92
528.21	35601.89
528.38	35131.44
528.55	35473.16
528.72	35426.35
528.89	35559.76
529.07	35672.10
529.24	35512.95
529.41	35440.39
529.58	35737.64
529.75	35089.31
529.92	35461.46
530.09	35786.79
530.26	36081.70
530.43	36098.08
530.60	35913.18
530.77	35653.38
530.94	36341.50
531.11	36030.21
531.28	35941.27
531.46	36554.49
531.63	36194.04
531.80	36540.44
531.97	35969.35
532.14	36442.14
532.31	36542.78
532.48	36311.07
532.65	36758.11
532.82	36189.36
532.99	37038.98
533.16	36945.36
533.33	36755.77
533.50	37343.25
533.67	36844.71
533.84	36898.55
534.01	37010.89
534.18	36713.64
534.35	37038.98
534.52	36840.03
534.69	37453.25
534.86	37537.51
535.03	37165.37
535.20	37324.52
535.37	37689.65
535.54	37249.63
535.71	37537.51
535.88	37818.38
536.05	37563.26
536.22	37839.44
536.38	38026.68
536.55	38031.36
536.72	38122.65
536.89	37448.57
537.06	37720.07
537.23	37820.72
537.40	37549.21
537.57	37635.81
537.74	38132.01
537.91	37968.17
538.08	38108.60
538.25	38492.45
538.42	38370.74
538.59	38059.45
538.75	38071.15
538.92	38553.30
539.09	38417.55
539.26	38143.71
539.43	38675.01
539.60	38225.63
539.77	38227.97
539.94	38604.80
540.11	38644.59
540.28	38375.42
540.44	38387.13
540.61	38693.74
540.78	38593.09
540.95	38583.73
541.12	38562.67
541.29	38590.75
541.46	38611.82
541.62	38902.04
541.79	39288.23
541.96	38520.54
542.13	39157.16
542.30	39098.65
542.47	38958.22
542.63	39089.29
542.80	39435.69
542.97	39316.32
543.14	39531.65
543.31	39674.42
543.48	39768.04
543.64	39793.79
543.81	39716.55
543.98	39735.27
544.15	39943.58
544.32	40109.76
544.48	40002.10
544.65	39892.09
544.82	39910.82
544.99	39438.03
545.16	40187.00
545.32	39543.35
545.49	40135.51
545.66	40095.72
545.83	39934.22
546.00	40254.87
546.16	40407.01
546.33	40018.48
546.50	39718.89
546.67	40376.58
546.83	39971.67
547.00	40645.74
547.17	40151.89
547.34	40025.50
547.50	40751.07
547.67	41230.88
547.84	40161.25
548.00	40549.78
548.17	40697.24
548.34	40629.36
548.51	41184.07
548.67	40978.10
548.84	40671.49
549.01	40769.79
549.18	40720.64
549.34	41153.64
549.51	41116.19
549.68	41170.02
549.84	40975.76
550.01	40982.78
550.18	40851.71
550.34	40807.24
550.51	40715.96
550.68	40968.74
550.84	41081.08
551.01	41413.44
551.18	41219.17
551.34	41415.78
551.51	41425.14
551.68	41368.97
551.84	41553.87
552.01	41165.34
552.18	41317.48
552.34	41076.40
552.51	41729.41
552.68	41368.97
552.84	41500.04
553.01	41298.75
553.18	41324.50
553.34	41773.88
553.51	41350.24
553.67	41738.77
553.84	42204.54
554.01	41839.42
554.17	41647.49
554.34	42457.32
554.51	41773.88
554.67	42429.23
554.84	41935.38
555.00	41607.70
555.17	41933.04
555.33	42050.06
555.50	41476.63
555.67	42038.36
555.83	42162.41
556.00	42017.30
556.16	42316.89
556.33	42220.92
556.50	42274.76
556.66	42632.86
556.83	42120.28
556.99	42483.06
557.16	42389.44
557.32	42342.63
557.49	42511.15
557.65	42522.85
557.82	42270.08
557.98	42335.61
558.15	42813.08
558.32	42206.88
558.48	42658.60
558.65	42412.85
558.81	42492.43
558.98	42513.49
559.14	42897.34
559.31	42529.87
559.47	42286.46
559.64	43014.37
559.80	42843.51
559.97	42864.57
560.13	42309.86
560.30	42333.27
560.46	42724.14
560.63	42623.50
560.79	43201.61
560.96	42887.98
561.12	42401.14
561.29	42902.02
561.45	42555.62
561.61	42871.59
561.78	42611.79
561.94	42408.17
562.11	42602.43
562.27	42644.56
562.44	43311.61
562.60	43044.79
562.77	43072.88
562.93	42815.42
563.10	43159.48
563.26	42927.77
563.42	42904.36
563.59	42930.11
563.75	42899.68
563.92	43056.50
564.08	43019.05
564.24	43578.43
564.41	42974.58
564.57	43147.78
564.74	43295.23
564.90	43426.30
565.07	43232.04
565.23	43381.83
565.39	43225.01
565.56	43243.74
565.72	43072.88
565.88	43494.18
566.05	43014.37
566.21	43428.64
566.38	43164.16
566.54	43054.15
566.70	43398.21
566.87	43957.60
567.03	43826.53
567.19	43688.44
567.36	43475.45
567.52	43044.79
567.68	43508.22
567.85	43042.45
568.01	43351.40
568.17	43299.91
568.34	43349.06
568.50	43835.89
568.66	43325.66
568.83	43683.76
568.99	42916.06
569.15	43367.79
569.32	43157.14
569.48	43536.30
569.64	43484.81
569.81	43632.27
569.97	43576.09
570.13	43262.46
570.30	43058.84
570.46	43299.91
570.62	43264.80
570.78	43344.38
570.95	43281.19
571.11	43737.59
571.27	43690.78
571.43	43723.55
571.60	43634.61
571.76	43800.79
571.92	43077.56
572.09	43449.70
572.25	43772.70
572.41	43517.58
572.57	43882.70
572.74	43908.45
572.90	43615.88
573.06	43524.60
573.22	43550.35
573.38	43796.10
573.55	43461.41
573.71	44018.46
573.87	43938.88
574.03	43461.41
574.20	43828.87
574.36	43386.51
574.52	43751.63
574.68	44032.50
574.84	43852.28
575.01	43922.49
575.17	43842.92
575.33	43571.41
575.49	43650.99
575.65	44296.98
575.82	44046.54
575.98	44044.20
576.14	43807.81
576.30	43908.45
576.46	43405.23
576.62	43835.89
576.79	43634.61
576.95	43225.01
577.11	43751.63
577.27	43634.61
577.43	44039.52
577.59	43854.62
577.75	44032.50
577.92	43910.79
578.08	43805.47
578.24	43789.08
578.40	43639.29
578.56	43882.70
578.72	43629.93
578.88	44128.46
579.04	44142.50
579.21	43775.04
579.37	43728.23
579.53	43955.26
579.69	43842.92
579.85	44060.58
580.01	44098.03
580.17	44083.99
580.33	43917.81
580.49	44112.08
580.65	43854.62
580.82	43962.28
580.98	43761.00
581.14	43391.19
581.30	44037.18
581.46	44086.33
581.62	44217.40
581.78	44264.21
581.94	44025.48
582.10	43676.74
582.26	44296.98
582.42	43945.90
582.58	44130.80
582.74	43634.61
582.90	44018.46
583.06	44371.88
583.22	44273.57
583.38	43917.81
583.54	43796.10
583.70	43863.98
583.86	43765.68
584.02	43606.52
584.18	43976.33
584.34	43997.39
584.50	43856.96
584.66	44142.50
584.82	43529.28
584.98	44526.35
585.14	43962.28
585.30	43842.92
585.46	44189.31
585.62	43435.66
585.78	43852.28
585.94	43620.56
586.10	43845.26
586.26	44149.53
586.42	44205.70
586.58	44086.33
586.74	43779.72
586.90	43934.20
587.06	43882.70
587.22	44194.00
587.38	43456.73
587.54	44088.67
587.70	44322.72
587.86	44006.75
588.02	44233.78
588.18	44144.84
588.34	43791.42
588.49	44144.84
588.65	44236.12
588.81	43742.27
588.97	43922.49
589.13	43489.49
589.29	44238.47
589.45	44011.43
589.61	43976.33
589.77	44746.36
589.93	44360.17
590.08	44491.24
590.24	44748.70
590.40	44327.41
590.56	43995.05
590.72	44311.02
590.88	43824.19
591.04	44083.99
591.20	44423.37
591.35	44584.86
591.51	44456.14
591.67	44315.70
591.83	44655.08
591.99	44313.36
592.15	44257.19
592.31	44549.76
592.46	44184.63
592.62	44126.12
592.78	44311.02
592.94	44032.50
593.10	44559.12
593.26	44643.38
593.41	43915.47
593.57	44128.46
593.73	44123.78
593.89	44507.63
594.05	44334.43
594.20	43988.03
594.36	44514.65
594.52	44559.12
594.68	44648.06
594.84	44643.38
594.99	44634.02
595.15	44308.68
595.31	44521.67
595.47	44685.51
595.62	44378.90
595.78	44121.44
595.94	44825.94
596.10	44954.67
596.25	44245.49
596.41	44687.85
596.57	44566.14
596.73	44631.68
596.88	44315.70
597.04	44491.24
597.20	44198.68
597.36	44570.82
597.51	44488.90
597.67	44107.40
597.83	44720.62
597.99	45151.27
598.14	44811.90
598.30	44318.04
598.46	44369.54
598.61	44058.24
598.77	44245.49
598.93	44357.83
599.09	44376.56
599.24	44854.03
599.40	44257.19
599.56	44842.32
599.71	44582.52
599.87	44823.60
600.03	44610.61
600.18	44704.23
600.34	44570.82
600.50	44406.98
600.65	44392.94
600.81	44493.58
600.97	45027.23
601.12	44945.31
601.28	44856.37
601.44	44526.35
601.59	44545.08
601.75	44266.55
601.91	44755.72
602.06	44006.75
602.22	44299.32
602.37	44414.01
602.53	44399.96
602.69	44774.45
602.84	44421.03
603.00	44294.64
603.16	44203.36
603.31	44273.57
603.47	44540.39
603.62	44404.64
603.78	44603.59
603.94	44889.13
604.09	44931.26
604.25	44619.97
604.40	44760.40
604.56	44086.33
604.71	44343.79
604.87	44460.82
605.03	44388.26
605.18	44144.84
605.34	44734.66
605.49	44147.18
605.65	44713.59
605.80	44294.64
605.96	44816.58
606.12	44566.14
606.27	44989.78
606.43	44432.73
606.58	44502.95
606.74	44156.55
606.89	44194.00
607.05	44619.97
607.20	44332.09
607.36	44236.12
607.51	44758.06
607.67	44690.19
607.82	44652.74
607.98	44268.89
608.13	44280.60
608.29	43770.36
608.44	44060.58
608.60	44175.27
608.75	43819.51
608.91	43374.81
609.06	44449.11
609.22	44519.33
609.37	44020.80
609.53	44055.90
609.68	43978.67
609.84	44329.75
609.99	44013.77
610.15	44140.16
610.30	44011.43
610.46	44102.71
610.61	43686.10
610.76	43693.12
610.92	43983.35
611.07	43737.59
611.23	43985.69
611.38	43732.91
611.54	43887.39
611.69	43938.88
611.84	44243.15
612.00	43950.58
612.15	43746.95
612.31	44289.96
612.46	43660.35
612.62	43856.96
612.77	43732.91
612.92	43461.41
613.08	43622.90
613.23	43784.40
613.39	43789.08
613.54	43463.75
613.69	43655.67
613.85	43540.99
614.00	43552.69
614.15	44126.12
614.31	43709.50
614.46	43927.17
614.62	43716.53
614.77	43695.46
614.92	43545.67
615.08	43538.65
615.23	42897.34
615.38	43447.36
615.54	43297.57
615.69	43164.16
615.84	43152.46
616.00	43374.81
616.15	43246.08
616.30	43442.68
616.46	43260.12
616.61	43274.16
616.76	43068.20
616.92	43030.75
617.07	43210.97
617.22	42967.55
617.37	42927.77
617.53	43318.64
617.68	43360.76
617.83	43016.71
617.99	43276.51
618.14	42981.60
618.29	43091.60
618.45	43255.44
618.60	43098.62
618.75	43278.85
618.90	43030.75
619.06	43288.21
619.21	43105.65
619.36	42934.79
619.51	42745.20
619.67	43140.75
619.82	43047.13
619.97	43393.53
620.12	42665.63
620.28	42593.07
620.43	42817.76
620.58	42560.30
620.73	42309.86
620.89	42621.16
621.04	42756.91
621.19	42604.77
621.34	42462.00
621.49	42600.09
621.65	42623.50
621.80	42651.58
621.95	42087.51
622.10	42302.84
622.25	42649.24
622.41	42131.98
622.56	42436.25
622.71	42941.81
622.86	42459.66
623.01	42646.90
623.16	42485.40
623.32	42569.66
623.47	42815.42
623.62	42270.08
623.77	42047.72
623.92	42532.22
624.07	41926.02
624.23	42415.19
624.38	41799.63
624.53	41965.81
624.68	42298.16
624.83	42216.24
624.98	42342.63
625.13	41755.16
625.29	42029.00
625.44	41989.21
625.59	42099.22
625.74	41422.80
625.89	41457.91
626.04	41670.90
626.19	41752.82
626.34	41827.71
626.49	42178.79
626.65	41790.27
626.80	41741.11
626.95	41551.53
627.10	41750.48
627.25	41801.97
627.40	41397.06
627.55	41226.20
627.70	41338.54
627.85	41467.27
628.00	41167.68
628.15	41827.71
628.30	41521.10
628.45	41729.41
628.60	41766.86
628.76	41785.58
628.91	41392.37
629.06	40959.38
629.21	41495.36
629.36	41270.67
629.51	41425.14
629.66	40973.42
629.81	41202.79
629.96	41750.48
630.11	41394.71
630.26	41244.92
630.41	41647.49
630.56	41282.37
630.71	41223.86
630.86	41074.06
631.01	41146.62
631.16	41013.21
631.31	40526.38
631.46	40786.18
631.61	40879.80
631.76	40727.66
631.91	40907.88
632.06	40994.48
632.21	40509.99
632.36	41020.23
632.51	40399.99
632.66	41099.81
632.81	40549.78
632.96	40411.69
633.10	40245.51
633.25	40545.10
633.40	40650.42
633.55	40573.19
633.70	40624.68
633.85	40194.02
634.00	40666.81
634.15	40364.88
634.30	40208.06
634.45	40278.28
634.60	40491.27
634.75	40407.01
634.90	40601.27
635.05	40348.50
635.19	40198.70
635.34	40507.65
635.49	40477.22
635.64	40102.74
635.79	40088.70
635.94	39922.52
636.09	40053.59
636.24	39646.33
636.39	39667.40
636.53	39814.85
636.68	39615.91
636.83	40011.46
636.98	40217.43
637.13	39856.98
637.28	40100.40
637.43	40121.46
637.57	40313.39
637.72	40580.21
637.87	39920.18
638.02	39707.19
638.17	39903.79
638.32	39281.21
638.46	39468.45
638.61	39761.02
638.76	39175.89
638.91	39718.89
639.06	39601.86
639.20	39959.97
639.35	39962.31
639.50	39660.38
639.65	39548.03
639.80	39985.71
639.94	39641.65
640.09	39501.22
640.24	39496.54
640.39	39318.66
640.54	39246.10
640.68	39337.38
640.83	39332.70
640.98	39344.41
641.13	38792.04
641.27	39683.78
641.42	39203.97
641.57	39557.39
641.72	39271.85
641.86	38677.35
642.01	38759.27
642.16	39243.76
642.31	38466.70
642.45	39182.91
642.60	38747.57
642.75	38841.19
642.90	39269.51
643.04	39328.02
643.19	38651.61
643.34	39234.40
643.48	39103.33
643.63	38904.38
643.78	38859.91
643.93	38462.02
644.07	38705.44
644.22	38733.53
644.37	38651.61
644.51	38586.07
644.66	38127.33
644.81	38775.66
644.95	38611.82
645.10	38721.82
645.25	39182.91
645.39	38553.30
645.54	38780.34
645.69	38700.76
645.83	38389.47
645.98	38394.15
646.13	38527.56
646.27	39075.24
646.42	38445.64
646.57	38345.00
646.71	38925.45
646.86	38455.00
647.00	38644.59
647.15	38422.23
647.30	38967.58
647.44	38368.40
647.59	38293.50
647.74	37635.81
647.88	38265.42
648.03	38225.63
648.17	38263.08
648.32	38124.99
648.47	38330.95
648.61	38007.96
648.76	38550.96
648.90	38068.81
649.05	38106.26
649.20	38167.12
649.34	38171.80
649.49	38040.73
649.63	37933.06
649.78	37872.21
649.92	37874.55
650.07	38014.98
650.21	37832.42
650.36	37596.03
650.51	37694.33
650.65	37909.66
650.80	38120.31
650.94	38033.71
651.09	38291.16
651.23	37876.89
651.38	37401.76
651.52	37586.66
651.67	37661.56
651.81	37771.57
651.96	37209.84
652.10	37368.99
652.25	37376.01
652.39	37303.46
652.54	37486.02
652.68	37471.98
652.83	37663.90
652.97	37385.38
653.12	37813.70
653.26	36823.65
653.41	37462.61
653.55	37247.29
653.70	37081.11
653.84	37343.25
653.99	37390.06
654.13	36737.05
654.27	37221.54
654.42	37523.47
654.56	37270.69
654.71	37523.47
654.85	37305.80
655.00	37081.11
655.14	36708.96
655.29	36732.37
655.43	36854.08
655.57	36989.83
655.72	36311.07
655.86	37015.57
656.01	36601.30
656.15	36622.36
656.30	36685.56
656.44	36102.76
656.58	36711.30
656.73	36741.73
656.87	36297.03
657.01	36360.22
657.16	36320.43
657.30	36119.15
657.45	36568.53
657.59	36662.15
657.73	36297.03
657.88	36594.28
658.02	36297.03
658.16	36407.03
658.31	36451.50
658.45	36238.51
658.60	35988.08
658.74	36130.85
658.88	36510.02
659.03	36004.46
659.17	36046.59
659.31	35922.54
659.46	36051.27
659.60	35988.08
659.74	35922.54
659.89	35480.18
660.03	35824.24
660.17	35585.50
660.32	35644.02
660.46	35594.87
660.60	35903.82
660.74	35580.82
660.89	35716.58
661.03	35751.68
661.17	35267.19
661.32	35311.66
661.46	34927.81
661.60	35407.62
661.74	35276.55
661.89	35019.10
662.03	35166.55
662.17	35161.87
662.31	35339.75
662.46	35005.05
662.60	35211.02
662.74	34873.98
662.88	34859.94
663.03	35056.54
663.17	34962.92
663.31	34677.38
663.45	34609.50
663.60	35433.37
663.74	34639.93
663.88	34693.76
664.02	34794.40
664.17	34543.97
664.31	34169.48
664.45	34473.75
664.59	34408.22
664.73	34031.39
664.88	34183.52
665.02	33935.43
665.16	34515.88
665.30	34120.33
665.44	34019.69
665.59	33675.63
665.73	33806.70
665.87	33825.42
666.01	33720.10
666.15	33720.10
666.29	33846.49
666.44	34305.23
666.58	33769.25
666.72	33956.49
666.86	34235.02
667.00	33895.64
667.14	33710.74
667.28	34101.61
667.43	33116.24
667.57	33572.64
667.71	33591.37
667.85	33420.51
667.99	33312.84
668.13	32966.45
668.27	32704.31
668.41	33153.69
668.56	32807.29
668.70	32975.81
668.84	32816.65
668.98	33046.02
669.12	33146.67
669.26	32484.30
669.40	32542.81
669.54	32655.15
669.68	32645.79
669.82	32472.59
669.96	32222.16
670.10	32451.53
670.25	32407.06
670.39	32510.04
670.53	32528.77
670.67	32430.46
670.81	32549.83
670.95	32430.46
671.09	32044.27
671.23	32168.32
671.37	32243.22
671.51	32105.13
671.65	31931.93
671.79	31630.00
671.93	31498.93
672.07	32095.77
672.21	31695.53
672.35	31367.86
672.49	31573.83
672.63	31807.88
672.77	31145.51
672.91	31496.59
673.05	31428.71
673.19	31056.57
673.33	30920.82
673.47	31110.40
673.61	31016.78
673.75	30625.91
673.89	30328.66
674.03	30473.78
674.17	30342.70
674.31	30539.31
674.45	30721.87
674.59	30951.24
674.73	31133.81
674.87	30632.93
675.01	30553.35
675.15	30768.68
675.29	30752.30
675.43	30543.99
675.56	30394.20
675.70	30185.89
675.84	29930.77
675.98	29317.55
676.12	29670.97
676.26	29579.69
676.40	29355.00
676.54	29600.76
676.68	29804.38
676.82	29156.05
676.96	29319.89
677.10	28957.11
677.23	29284.78
677.37	29137.33
677.51	28744.12
677.65	28975.83
677.79	28868.17
677.93	28854.12
678.07	28325.16
678.21	28411.76
678.34	28582.62
678.48	28758.16
678.62	28308.78
678.76	28072.39
678.90	28058.34
679.04	28037.28
679.18	28383.68
679.31	27611.30
679.45	27608.96
679.59	27805.56
679.73	27271.92
679.87	27601.94
680.00	27578.53
680.14	27351.50
680.28	27318.73
680.42	27393.63
680.56	27007.44
680.70	27325.75
680.83	26883.39
680.97	26555.72
681.11	26792.11
681.25	26441.03
681.39	26342.73
681.52	26747.64
681.66	26546.36
681.80	26424.65
681.94	26607.21
682.07	26157.83
682.21	26466.78
682.35	26075.91
682.49	26108.68
682.62	26043.14
682.76	25736.53
682.90	25647.59
683.04	25446.30
683.17	25614.82
683.31	25759.94
683.45	25488.43
683.59	25422.90
683.72	25010.96
683.86	24961.81
684.00	24945.43
684.13	24849.47
684.27	24938.41
684.41	24936.07
684.55	25130.33
684.68	24702.01
684.82	24856.49
684.96	24711.38
685.09	24362.64
685.23	24655.20
685.37	24725.42
685.50	24416.47
685.64	24098.16
685.78	24137.94
685.91	23915.59
686.05	24030.28
686.19	23644.09
686.32	23744.73
686.46	23452.17
686.60	23473.23
686.73	23379.61
686.87	23506.00
687.01	23449.83
687.14	23377.27
687.28	23129.17
687.42	22628.30
687.55	22621.28
687.69	23051.94
687.82	22546.38
687.96	22766.39
688.10	22738.30
688.23	22640.00
688.37	22314.67
688.50	21846.56
688.64	22150.83
688.78	22223.39
688.91	22218.71
689.05	22003.38
689.18	21900.39
689.32	21514.20
689.46	21935.50
689.59	21774.00
689.73	21668.68
689.86	21769.32
690.00	21376.11
690.13	21624.21
690.27	21497.82
690.41	20966.52
690.54	20842.47
690.68	21186.53
690.81	20830.77
690.95	20442.24
691.08	20613.10
691.22	20772.25
691.35	20865.88
691.49	20695.02
691.62	20608.42
691.76	20664.59
691.89	20781.62
692.03	20318.19
692.16	20130.95
692.30	20233.93
692.43	20130.95
692.57	20100.52
692.70	19857.10
692.84	19861.79
692.97	19566.88
693.11	19616.03
693.24	19723.69
693.38	19370.27
693.51	19620.71
693.65	19215.80
693.78	19293.04
693.92	19122.18
694.05	18991.11
694.19	19089.41
694.32	18977.06
694.45	18934.93
694.59	18984.09
694.72	18668.11
694.86	18759.39
694.99	18370.86
695.13	18822.59
695.26	18398.95
695.39	17996.38
695.53	18347.46
695.66	18270.22
695.80	17951.91
695.93	18195.32
696.07	17727.22
696.20	17900.42
696.33	17699.13
696.47	17935.53
696.60	18033.83
696.73	17930.84
696.87	17631.26
697.00	17205.28
697.14	17427.63
697.27	17495.50
697.40	17378.48
697.54	17387.84
697.67	17296.56
697.80	17144.42
697.94	16807.39
698.07	16936.12
698.21	16957.18
698.34	16819.09
698.47	16706.74
698.61	16496.10
698.74	16549.93
698.87	16524.18
699.01	16367.37
699.14	16063.10
699.27	16145.02
699.40	16058.42
699.54	15775.21
699.67	15850.11
699.80	15927.35
699.94	15768.19
700.07	15964.79
700.20	15683.93
700.34	15501.37
700.47	15742.44
700.60	15704.99
700.73	15765.85
700.87	15627.76
701.00	15365.62
701.13	15545.84
701.26	15386.68
701.40	15309.44
701.53	15110.50
701.66	15267.31
701.79	14934.96
701.93	14937.30
702.06	14754.74
702.19	14855.38
702.32	14817.93
702.46	14647.07
702.59	14455.15
702.72	14518.34
702.85	14295.99
702.99	14590.90
703.12	14436.42
703.25	14347.48
703.38	14328.76
703.51	14178.97
703.65	14085.34
703.78	14057.26
703.91	14064.28
704.04	14043.21
704.17	14270.25
704.31	13528.30
704.44	13664.05
704.57	13624.26
704.70	13376.16
704.83	13369.14
704.96	13586.81
705.10	13657.03
705.23	13453.40
>>>>>End Processed Spectral Data<<<<<
