SpectraSuite Data File
++++++++++++++++++++++++++++++++++++
Date: Fri Oct 25 10:48:11 EDT 2013
User: price-jones
Dark Spectrum Present: No
Reference Spectrum Present: No
Number of Sampled Component Spectra: 1
Spectrometers: USB2+H05261
Integration Time (usec): 100000 (USB2+H05261)
Spectra Averaged: 1 (USB2+H05261)
Boxcar Smoothing: 0 (USB2+H05261)
Correct for Electrical Dark: No (USB2+H05261)
Strobe/Lamp Enabled: No (USB2+H05261)
Correct for Detector Non-linearity: No (USB2+H05261)
Correct for Stray Light: No (USB2+H05261)
Number of Pixels in Processed Spectrum: 2048
>>>>>Begin Processed Spectral Data<<<<<
365.73	135.75
365.92	135.75
366.12	135.75
366.32	110.01
366.52	9.36
366.72	79.58
366.91	84.26
367.11	93.62
367.31	0.00
367.51	35.11
367.70	51.49
367.90	77.24
368.10	37.45
368.30	53.83
368.49	74.90
368.69	98.30
368.89	42.13
369.09	72.56
369.28	56.17
369.48	102.98
369.68	102.98
369.87	72.56
370.07	152.13
370.27	140.43
370.47	187.24
370.66	355.76
370.86	484.49
371.06	507.90
371.25	496.19
371.45	456.40
371.65	479.81
371.84	430.66
372.04	428.32
372.24	489.17
372.44	510.24
372.63	519.60
372.83	559.39
373.03	599.18
373.22	411.93
373.42	547.69
373.62	517.26
373.81	533.64
374.01	561.73
374.21	610.88
374.40	538.32
374.60	554.71
374.79	540.66
374.99	521.94
375.19	531.30
375.38	606.20
375.58	629.60
375.78	688.12
375.97	650.67
376.17	571.09
376.37	514.92
376.56	547.69
376.76	587.47
376.95	533.64
377.15	664.71
377.35	550.03
377.54	606.20
377.74	627.26
377.93	589.82
378.13	641.31
378.33	622.58
378.52	552.37
378.72	643.65
378.91	601.52
379.11	610.88
379.31	594.50
379.50	594.50
379.70	669.39
379.89	699.82
380.09	608.54
380.28	645.99
380.48	636.63
380.68	641.31
380.87	559.39
381.07	627.26
381.26	688.12
381.46	671.73
381.65	669.39
381.85	643.65
382.04	657.69
382.24	706.84
382.43	622.58
382.63	620.24
382.83	643.65
383.02	678.76
383.22	802.80
383.41	746.63
383.61	692.80
383.80	697.48
384.00	713.86
384.19	814.51
384.39	821.53
384.58	856.64
384.78	688.12
384.97	774.72
385.17	732.59
385.36	727.91
385.56	748.97
385.75	744.29
385.95	751.31
386.14	753.65
386.34	800.46
386.53	725.57
386.72	774.72
386.92	795.78
387.11	833.23
387.31	819.19
387.50	772.38
387.70	816.85
387.89	875.36
388.09	854.30
388.28	908.13
388.48	919.83
388.67	840.25
388.86	819.19
389.06	901.11
389.25	823.87
389.45	861.32
389.64	961.96
389.84	917.49
390.03	980.68
390.22	964.30
390.42	1004.09
390.61	954.94
390.81	933.87
391.00	999.41
391.19	1001.75
391.39	1015.79
391.58	1046.22
391.78	896.43
391.97	943.24
392.16	1046.22
392.36	1006.43
392.55	976.00
392.75	987.71
392.94	985.37
393.13	947.92
393.33	980.68
393.52	1004.09
393.71	1064.94
393.91	978.34
394.10	1057.92
394.29	1071.97
394.49	1048.56
394.68	1137.50
394.88	1069.62
395.07	1116.44
395.26	1114.10
395.46	1121.12
395.65	1146.86
395.84	1100.05
396.04	1149.20
396.23	1135.16
396.42	1123.46
396.62	1167.93
396.81	1088.35
397.00	1121.12
397.19	1128.14
397.39	1191.33
397.58	1219.42
397.77	1249.85
397.97	1151.54
398.16	1284.95
398.35	1268.57
398.55	1231.12
398.74	1310.70
398.93	1341.13
399.12	1401.98
399.32	1355.17
399.51	1317.72
399.70	1446.45
399.90	1315.38
400.09	1270.91
400.28	1448.79
400.47	1458.15
400.67	1376.24
400.86	1495.60
401.05	1547.09
401.24	1507.30
401.44	1514.33
401.63	1614.97
401.82	1504.96
402.01	1488.58
402.21	1556.46
402.40	1474.54
402.59	1535.39
402.78	1514.33
402.97	1591.56
403.17	1526.03
403.36	1542.41
403.55	1603.27
403.74	1643.06
403.93	1584.54
404.13	1636.03
404.32	1652.42
404.51	1654.76
404.70	1783.49
404.89	1603.27
405.09	1668.80
405.28	1668.80
405.47	1713.27
405.66	1699.23
405.85	1687.53
406.05	1799.87
406.24	1806.89
406.43	1757.74
406.62	1886.47
406.81	1820.94
407.00	1872.43
407.20	1886.47
407.39	1813.92
407.58	1884.13
407.77	1867.75
407.96	2010.52
408.15	1968.39
408.34	1877.11
408.54	2127.55
408.73	2003.50
408.92	1954.35
409.11	2076.06
409.30	2059.67
409.49	2132.23
409.68	2038.61
409.87	2094.78
410.07	2024.56
410.26	2078.40
410.45	2143.93
410.64	2188.40
410.83	2319.47
411.02	2291.38
411.21	2263.30
411.40	2277.34
411.59	2319.47
411.78	2249.25
411.98	2286.70
412.17	2375.64
412.36	2363.94
412.55	2368.62
412.74	2359.26
412.93	2424.80
413.12	2537.14
413.31	2530.12
413.50	2429.48
413.69	2546.50
413.88	2616.72
414.07	2619.06
414.26	2684.59
414.45	2607.36
414.64	2495.01
414.83	2668.21
415.02	2829.71
415.22	2761.83
415.41	2764.17
415.60	2693.96
415.79	2874.18
415.98	2818.00
416.17	2810.98
416.36	2937.37
416.55	2974.82
416.74	2839.07
416.93	2925.67
417.12	2970.14
417.31	2939.71
417.50	3033.33
417.69	3028.65
417.88	3040.36
418.07	3045.04
418.26	3126.96
418.45	3059.08
418.64	3248.66
418.83	3194.83
419.02	3279.09
419.21	3194.83
419.39	3243.98
419.58	3206.53
419.77	3178.45
419.96	3318.88
420.15	3311.86
420.34	3251.00
420.53	3335.26
420.72	3398.46
420.91	3349.31
421.10	3449.95
421.29	3398.46
421.48	3391.44
421.67	3496.76
421.86	3461.65
422.05	3482.72
422.24	3377.39
422.43	3478.04
422.61	3281.43
422.80	3447.61
422.99	3480.38
423.18	3566.98
423.37	3641.87
423.56	3482.72
423.75	3463.99
423.94	3524.85
424.13	3342.28
424.32	3330.58
424.50	3632.51
424.69	3639.53
424.88	3602.08
425.07	3403.14
425.26	3382.07
425.45	3648.90
425.64	3602.08
425.83	3543.57
426.01	3723.79
426.20	3517.83
426.39	3611.45
426.58	3520.17
426.77	3442.93
426.96	3742.52
427.15	3632.51
427.33	3735.50
427.52	3653.58
427.71	3740.18
427.90	3681.66
428.09	3639.53
428.28	3927.42
428.46	3789.33
428.65	3723.79
428.84	3971.89
429.03	3969.55
429.22	3777.62
429.40	3838.48
429.59	3819.75
429.78	3786.99
429.97	3688.68
430.16	3838.48
430.34	3798.69
430.53	3861.88
430.72	3892.31
430.91	4007.00
431.10	4072.53
431.28	4098.28
431.47	4107.64
431.66	4037.42
431.85	3918.06
432.03	4124.02
432.22	4287.86
432.41	4278.50
432.60	4238.71
432.79	4189.56
432.97	4367.44
433.16	4283.18
433.35	4154.45
433.54	4217.65
433.72	4259.78
433.91	4255.09
434.10	4241.05
434.28	4236.37
434.47	4416.59
434.66	4383.82
434.85	4437.66
435.03	4397.87
435.22	4430.63
435.41	4594.47
435.59	4561.70
435.78	4674.05
435.97	4568.73
436.16	4528.94
436.34	4533.62
436.53	4608.51
436.72	4809.80
436.90	4479.79
437.09	4716.18
437.28	4596.81
437.46	4615.54
437.65	4575.75
437.84	4800.44
438.02	4767.67
438.21	4748.95
438.40	4755.97
438.58	4812.14
438.77	4983.00
438.96	4889.38
439.14	5004.07
439.33	4968.96
439.52	5125.77
439.70	5085.98
439.89	5078.96
440.08	5039.17
440.26	5193.65
440.45	5153.86
440.63	5214.71
440.82	5526.00
441.01	5294.29
441.19	5434.72
441.38	5383.23
441.57	5420.68
441.75	5397.28
441.94	5565.79
442.12	5647.71
442.31	5713.25
442.50	5563.45
442.68	5788.14
442.87	5603.24
443.05	5731.97
443.24	5659.42
443.43	5715.59
443.61	5769.42
443.80	5893.47
443.98	5881.77
444.17	5565.79
444.35	5895.81
444.54	5928.58
444.73	5926.24
444.91	5703.89
445.10	5879.43
445.28	5912.19
445.47	5682.82
445.65	5795.17
445.84	5748.36
446.02	5884.11
446.21	5816.23
446.39	5944.96
446.58	6087.73
446.77	6181.35
446.95	5893.47
447.14	6019.86
447.32	5870.06
447.51	5776.44
447.69	5989.43
447.88	6052.63
448.06	6012.84
448.25	5954.32
448.43	6059.65
448.62	5975.39
448.80	5921.56
448.99	6164.97
449.17	6136.88
449.36	5944.96
449.54	6242.21
449.73	6141.57
449.91	6099.44
450.10	6333.49
450.28	6511.37
450.46	6359.24
450.65	6518.39
450.83	6312.42
451.02	6251.57
451.20	6370.94
451.39	6420.09
451.57	6438.81
451.76	6417.75
451.94	6438.81
452.13	6492.65
452.31	6408.39
452.49	6368.60
452.68	6637.76
452.86	6583.93
453.05	6633.08
453.23	6792.23
453.42	6670.53
453.60	6806.28
453.78	6621.38
453.97	6640.10
454.15	6600.31
454.34	6413.07
454.52	6825.00
454.70	6712.66
454.89	6855.43
455.07	6731.38
455.26	6864.79
455.44	6993.52
455.62	6810.96
455.81	6916.28
455.99	7143.32
456.17	7056.72
456.36	6977.14
456.54	7187.79
456.73	7009.90
456.91	7344.60
457.09	7321.20
457.28	7442.90
457.46	7258.00
457.64	7325.88
457.83	7295.45
458.01	7183.10
458.19	7468.65
458.38	7339.92
458.56	7377.37
458.74	7447.58
458.93	7358.64
459.11	7503.76
459.29	7496.74
459.48	7470.99
459.66	7515.46
459.84	7705.04
460.03	7595.04
460.21	7683.98
460.39	7847.82
460.57	7674.62
460.76	7831.43
460.94	7646.53
461.12	7822.07
461.31	7859.52
461.49	7756.54
461.67	7700.36
461.85	7852.50
462.04	7948.46
462.22	8430.61
462.40	8147.40
462.59	7964.84
462.77	8042.08
462.95	8248.05
463.13	7941.44
463.32	7808.03
463.50	7922.71
463.68	8049.10
463.86	8210.60
464.05	8109.96
464.23	8086.55
464.41	8131.02
464.59	8016.33
464.78	8285.50
464.96	8381.46
465.14	8219.96
465.32	8287.84
465.50	8379.12
465.69	8421.25
465.87	8320.60
466.05	8568.70
466.23	8255.07
466.41	8435.29
466.60	8592.11
466.78	8241.03
466.96	8376.78
467.14	8472.74
467.32	8521.89
467.51	8465.72
467.69	8332.31
467.87	8557.00
468.05	8634.24
468.23	8524.23
468.41	8505.51
468.60	8535.93
468.78	8650.62
468.96	8587.43
469.14	8812.12
469.32	8683.39
469.50	8713.81
469.69	8912.76
469.87	8971.27
470.05	9001.70
470.23	9167.88
470.41	8917.44
470.59	9118.73
470.77	8889.35
470.95	8847.22
471.14	9245.12
471.32	8980.64
471.50	9392.57
471.68	9092.98
471.86	9385.55
472.04	9366.82
472.22	9692.16
472.40	9427.68
472.58	9280.22
472.77	9544.70
472.95	9589.17
473.13	9881.74
473.31	9523.64
473.49	9455.76
473.67	9582.15
473.85	9710.88
474.03	10076.01
474.21	9942.60
474.39	10097.07
474.57	10050.26
474.75	10134.52
474.93	10300.70
475.12	10204.74
475.30	10218.78
475.48	10183.67
475.66	10293.68
475.84	10305.38
476.02	10476.24
476.20	10251.55
476.38	10684.55
476.56	10698.59
476.74	10682.20
476.92	10658.80
477.10	10588.58
477.28	11049.67
477.46	10829.66
477.64	11117.54
477.82	11150.31
478.00	11356.28
478.18	11496.71
478.36	11590.33
478.54	11632.46
478.72	11585.65
478.90	11477.99
479.08	11964.82
479.26	12004.61
479.44	11957.80
479.62	12028.01
479.80	12163.76
479.98	12088.87
480.16	12346.33
480.34	12156.74
480.52	12362.71
480.70	12601.44
480.88	12613.15
481.06	12863.58
481.24	12439.95
481.41	12912.74
481.59	13020.40
481.77	13067.21
481.95	12945.50
482.13	13406.59
482.31	13341.05
482.49	13432.33
482.67	13348.08
482.85	13544.68
483.03	13703.84
483.21	13865.33
483.39	14031.51
483.57	14045.55
483.74	14197.69
483.92	14185.99
484.10	13989.38
484.28	14324.08
484.46	14829.63
484.64	15019.22
484.82	14541.75
485.00	14803.89
485.18	15192.42
485.35	15154.97
485.53	15290.72
485.71	14878.79
485.89	15529.45
486.07	15435.83
486.25	15400.72
486.43	15452.22
486.61	15646.48
486.78	15936.71
486.96	15864.15
487.14	16105.23
487.32	16250.34
487.50	16374.39
487.68	16709.08
487.85	16929.09
488.03	16606.10
488.21	17146.76
488.39	16985.27
488.57	17177.19
488.75	17362.09
488.92	17668.70
489.10	17598.49
489.28	17692.11
489.46	17738.92
489.64	17867.65
489.81	18347.46
489.99	18256.18
490.17	18537.04
490.35	18778.12
490.53	18925.57
490.70	18773.44
490.88	18724.29
491.06	19082.39
491.24	19075.37
491.41	19103.45
491.59	19225.16
491.77	19435.81
491.95	19613.69
492.13	19733.06
492.30	20109.88
492.48	19910.94
492.66	20037.33
492.84	20243.29
493.01	20231.59
493.19	20159.03
493.37	20676.29
493.54	20503.09
493.72	20849.49
493.90	20727.78
494.08	20975.88
494.25	21064.82
494.43	21163.12
494.61	21774.00
494.79	21317.60
494.96	21348.03
495.14	21633.57
495.32	21914.44
495.49	22001.04
495.67	21926.14
495.85	22242.11
496.02	22113.38
496.20	22347.44
496.38	22518.29
496.55	22312.33
496.73	22682.13
496.91	22810.86
497.09	22939.59
497.26	23126.83
497.44	23042.57
497.62	22993.42
497.79	23718.99
497.97	23405.36
498.14	23695.58
498.32	23768.14
498.50	23473.23
498.67	23754.10
498.85	23983.47
499.03	24444.56
499.20	24039.64
499.38	24198.80
499.56	24467.96
499.73	24774.57
499.91	24781.59
500.08	24713.72
500.26	24493.71
500.44	24334.55
500.61	24802.66
500.79	24657.54
500.97	24819.04
501.14	25565.67
501.32	25177.14
501.49	25270.76
501.67	25472.05
501.84	25284.81
502.02	25586.74
502.20	25448.64
502.37	25493.12
502.55	25888.67
502.72	25509.50
502.90	25891.01
503.07	25893.35
503.25	25956.54
503.43	26024.42
503.60	26335.71
503.78	26354.43
503.95	26335.71
504.13	26181.23
504.30	26230.38
504.48	26639.98
504.65	26810.84
504.83	26953.61
505.01	27227.45
505.18	26890.41
505.36	27548.11
505.53	27133.83
505.71	27433.42
505.88	27522.36
506.06	27023.83
506.23	27899.19
506.41	27290.65
506.58	27887.48
506.76	27550.45
506.93	27997.49
507.11	28123.88
507.28	28191.75
507.46	27857.06
507.63	27854.72
507.81	28079.41
507.98	28004.51
508.16	28456.23
508.33	28481.98
508.50	28554.54
508.68	28631.77
508.85	28594.32
509.03	28842.42
509.20	28910.30
509.38	28872.85
509.55	29462.66
509.73	29146.69
509.90	28931.36
510.08	29350.32
510.25	29387.77
510.42	29153.71
510.60	29663.95
510.77	29436.92
510.95	29909.71
511.12	29876.94
511.30	29692.04
511.47	30340.36
511.64	30190.57
511.82	30253.76
511.99	30050.14
512.17	30338.02
512.34	30281.85
512.51	30457.39
512.69	30712.51
512.86	30782.73
513.04	30988.69
513.21	30920.82
513.38	30799.11
513.56	31150.19
513.73	30773.36
513.90	31030.82
514.08	31000.40
514.25	31438.08
514.43	31070.61
514.60	31164.23
514.77	31241.47
514.95	31213.38
515.12	31447.44
515.29	31421.69
515.47	31644.04
515.64	32212.79
515.81	31948.31
515.99	31555.10
516.16	31555.10
516.33	31562.12
516.51	32055.98
516.68	31700.22
516.85	31370.20
517.03	32182.37
517.20	31833.63
517.37	31957.67
517.54	32163.64
517.72	32414.08
517.89	32215.13
518.06	32362.59
518.24	32306.41
518.41	32439.82
518.58	32346.20
518.75	32486.64
518.93	32861.12
519.10	32914.95
519.27	33083.47
519.45	32875.16
519.62	33205.18
519.79	33055.39
519.96	33226.24
520.14	33589.03
520.31	33322.21
520.48	33495.41
520.65	33191.14
520.83	33422.85
521.00	33771.59
521.17	34136.71
521.34	33752.87
521.52	33762.23
521.69	34106.29
521.86	34323.96
522.03	33738.82
522.20	33926.07
522.38	34260.76
522.55	34604.82
522.72	34192.89
522.89	34295.87
523.07	34541.63
523.24	34244.38
523.41	34911.43
523.58	34106.29
523.75	35260.17
523.92	34787.38
524.10	34916.11
524.27	34890.37
524.44	34998.03
524.61	35379.54
524.78	35311.66
524.96	35030.80
525.13	35470.82
525.30	35667.42
525.47	35796.15
525.64	35510.61
525.81	35416.99
525.98	35693.17
526.16	35321.02
526.33	35393.58
526.50	36098.08
526.67	35536.35
526.84	35519.97
527.01	35550.40
527.18	35381.88
527.36	36285.33
527.53	36332.14
527.70	36479.59
527.87	36428.10
528.04	36194.04
528.21	36039.57
528.38	35758.70
528.55	36765.14
528.72	36568.53
528.89	36891.52
529.07	36945.36
529.24	36676.19
529.41	37013.23
529.58	36608.32
529.75	36795.56
529.92	36591.94
530.09	36559.17
530.26	36786.20
530.43	37008.55
530.60	36816.63
530.77	37167.71
530.94	37848.80
531.11	37036.64
531.28	37277.71
531.46	37497.72
531.63	37331.54
531.80	37331.54
531.97	37453.25
532.14	37361.97
532.31	37097.49
532.48	37750.50
532.65	37771.57
532.82	37525.81
532.99	37567.94
533.16	37464.96
533.33	38019.66
533.50	38295.85
533.67	37904.98
533.84	37589.00
534.01	37785.61
534.18	37745.82
534.35	38504.15
534.52	38132.01
534.69	37909.66
534.86	38431.60
535.03	38354.36
535.20	38185.84
535.37	38831.83
535.54	38646.93
535.71	38609.48
535.88	38834.17
536.05	38473.73
536.22	38359.04
536.38	38866.94
536.55	38747.57
536.72	38621.18
536.89	38520.54
537.06	38691.40
537.23	38988.64
537.40	38955.88
537.57	38878.64
537.74	38934.81
537.91	39194.61
538.08	38731.18
538.25	38766.29
538.42	39229.72
538.59	39484.84
538.75	39292.91
538.92	39206.31
539.09	39416.96
539.26	38962.90
539.43	39454.41
539.60	39805.49
539.77	39576.12
539.94	38967.58
540.11	39431.01
540.28	39182.91
540.44	39440.37
540.61	39363.13
540.78	39594.84
540.95	39803.15
541.12	39416.96
541.29	39882.73
541.46	39995.07
541.62	39758.68
541.79	39922.52
541.96	39697.83
542.13	39768.04
542.30	40182.32
542.47	40107.42
542.63	40423.39
542.80	40519.35
542.97	40950.01
543.14	40676.17
543.31	40226.79
543.48	40849.37
543.64	41223.86
543.81	40699.58
543.98	40456.16
544.15	40678.51
544.32	41263.64
544.48	40610.64
544.65	41139.60
544.82	40842.35
544.99	40589.57
545.16	41074.06
545.32	40823.62
545.49	41296.41
545.66	41457.91
545.83	41380.67
546.00	41413.44
546.16	41408.76
546.33	41345.56
546.50	40568.51
546.67	41219.17
546.83	41151.30
547.00	41530.47
547.17	41015.55
547.34	41256.62
547.50	41516.42
547.67	41982.19
547.84	41483.66
548.00	41940.06
548.17	41862.82
548.34	41425.14
548.51	41640.47
548.67	41902.61
548.84	41855.80
549.01	41336.20
549.18	41790.27
549.34	42113.26
549.51	41972.83
549.68	42012.62
549.84	42312.20
550.01	42396.46
550.18	42021.98
550.34	41904.95
550.51	42064.11
550.68	41989.21
550.84	41708.35
551.01	42337.95
551.18	42106.24
551.34	42174.11
551.51	42354.33
551.68	43035.43
551.84	42899.68
552.01	42141.35
552.18	42401.14
552.34	41865.16
552.51	42546.26
552.68	42597.75
552.84	42539.24
553.01	42845.85
553.18	42597.75
553.34	42667.97
553.51	42218.58
553.67	42473.70
553.84	43351.40
554.01	43033.09
554.17	42855.21
554.34	43138.41
554.51	43030.75
554.67	43288.21
554.84	42843.51
555.00	42607.11
555.17	42796.70
555.33	42810.74
555.50	42740.52
555.67	42719.46
555.83	42770.95
556.00	43533.96
556.16	43407.58
556.33	43175.86
556.50	43466.09
556.66	43311.61
556.83	42843.51
556.99	43356.08
557.16	43107.99
557.32	43622.90
557.49	43363.11
557.65	43236.72
557.82	43365.45
557.98	43236.72
558.15	43552.69
558.32	43573.75
558.48	43187.56
558.65	43449.70
558.81	43079.90
558.98	43714.19
559.14	43222.67
559.31	43360.76
559.47	43503.54
559.64	43863.98
559.80	44041.86
559.97	43662.69
560.13	43828.87
560.30	43295.23
560.46	43700.14
560.63	43779.72
560.79	43489.49
560.96	43847.60
561.12	43945.90
561.29	43683.76
561.45	43863.98
561.61	43679.08
561.78	43917.81
561.94	43498.86
562.11	43768.02
562.27	43599.50
562.44	43821.85
562.60	44123.78
562.77	43887.39
562.93	43744.61
563.10	43833.55
563.26	43639.29
563.42	44416.35
563.59	43992.71
563.75	44037.18
563.92	44147.18
564.08	44072.29
564.24	44254.85
564.41	44449.11
564.57	44069.95
564.74	44456.14
564.90	44416.35
565.07	43693.12
565.23	43990.37
565.39	44074.63
565.56	44261.87
565.72	43863.98
565.88	44425.71
566.05	44020.80
566.21	44392.94
566.38	44271.23
566.54	44205.70
566.70	44257.19
566.87	44287.62
567.03	44240.81
567.19	44615.29
567.36	44357.83
567.52	44212.72
567.68	44453.79
567.85	44072.29
568.01	44409.32
568.17	44346.13
568.34	44594.23
568.50	44004.41
568.66	44479.54
568.83	44240.81
568.99	43723.55
569.15	44374.22
569.32	44308.68
569.48	43992.71
569.64	44587.21
569.81	44933.60
569.97	44079.31
570.13	44547.42
570.30	44013.77
570.46	43875.68
570.62	43959.94
570.78	44306.34
570.95	44055.90
571.11	44690.19
571.27	44694.87
571.43	44470.18
571.60	44617.63
571.76	44264.21
571.92	44451.45
572.09	44264.21
572.25	44638.70
572.41	44327.41
572.57	44697.21
572.74	44996.80
572.90	44898.50
573.06	44552.10
573.22	44615.29
573.38	44519.33
573.55	44278.25
573.71	45099.78
573.87	44837.64
574.03	44603.59
574.20	44062.93
574.36	44388.26
574.52	44832.96
574.68	44533.37
574.84	44451.45
575.01	44406.98
575.17	44793.17
575.33	44626.99
575.49	44390.60
575.65	45329.16
575.82	45488.31
575.98	44313.36
576.14	45085.74
576.30	44788.49
576.46	44362.51
576.62	44594.23
576.79	44994.46
576.95	44540.39
577.11	44477.20
577.27	44545.08
577.43	44706.57
577.59	44512.31
577.75	44849.35
577.92	44659.76
578.08	44699.55
578.24	44439.75
578.40	44524.01
578.56	44388.26
578.72	44493.58
578.88	45254.26
579.04	44966.37
579.21	44278.25
579.37	44694.87
579.53	44444.43
579.69	44666.78
579.85	44938.29
580.01	44940.63
580.17	44816.58
580.33	45088.08
580.49	44774.45
580.65	44856.37
580.82	44959.35
580.98	44811.90
581.14	44774.45
581.30	44751.04
581.46	44617.63
581.62	44877.43
581.78	44729.98
581.94	45216.81
582.10	45106.80
582.26	44907.86
582.42	44938.29
582.58	44769.77
582.74	44460.82
582.90	44961.69
583.06	45137.23
583.22	44596.57
583.38	44938.29
583.54	45198.09
583.70	45102.12
583.86	44882.11
584.02	44416.35
584.18	44973.39
584.34	44776.79
584.50	44767.43
584.66	44715.93
584.82	45008.50
584.98	45373.63
585.14	45055.31
585.30	44790.83
585.46	45020.20
585.62	44538.05
585.78	44964.03
585.94	44229.10
586.10	44942.97
586.26	44762.75
586.42	45024.89
586.58	45010.84
586.74	45036.59
586.90	44671.46
587.06	44652.74
587.22	45441.50
587.38	44601.25
587.54	45146.59
587.70	45436.82
587.86	45109.14
588.02	45010.84
588.18	45137.23
588.34	44671.46
588.49	45235.53
588.65	44807.22
588.81	44629.34
588.97	44381.24
589.13	44282.94
589.29	44353.15
589.45	45193.40
589.61	45172.34
589.77	45457.88
589.93	44877.43
590.08	45198.09
590.24	45254.26
590.40	45275.32
590.56	45315.11
590.72	45116.17
590.88	44612.95
591.04	45214.47
591.20	45481.29
591.35	45251.92
591.51	45015.52
591.67	45006.16
591.83	45275.32
591.99	45174.68
592.15	44610.61
592.31	44835.30
592.46	45198.09
592.62	45333.84
592.78	45642.79
592.94	45076.38
593.10	44893.82
593.26	45226.17
593.41	45448.52
593.57	45226.17
593.73	45382.99
593.89	45263.62
594.05	45006.16
594.20	44903.18
594.36	45095.10
594.52	45280.00
594.68	45275.32
594.84	45111.49
594.99	45483.63
595.15	45317.45
595.31	45769.18
595.47	45256.60
595.62	45284.68
595.78	45287.03
595.94	45432.14
596.10	45577.25
596.25	45338.52
596.41	45528.10
596.57	45813.65
596.73	45574.91
596.88	44832.96
597.04	45624.06
597.20	45434.48
597.36	45165.32
597.51	45483.63
597.67	45291.71
597.83	45670.87
597.99	45258.94
598.14	45691.94
598.30	45291.71
598.46	45191.06
598.61	45673.21
598.77	45198.09
598.93	45326.81
599.09	45088.08
599.24	45626.40
599.40	45556.19
599.56	45654.49
599.71	45455.54
599.87	45485.97
600.03	45167.66
600.18	45322.13
600.34	45528.10
600.50	45748.11
600.65	45408.73
600.81	45202.77
600.97	45675.55
601.12	45291.71
601.28	45476.61
601.44	45198.09
601.59	45446.18
601.75	44907.86
601.91	45399.37
602.06	45319.79
602.22	45081.06
602.37	45347.88
602.53	45710.66
602.69	45776.20
602.84	45390.01
603.00	45633.42
603.16	45247.24
603.31	45188.72
603.47	45385.33
603.62	45102.12
603.78	45296.39
603.94	45029.57
604.09	45102.12
604.25	45528.10
604.40	45485.97
604.56	44692.53
604.71	45322.13
604.87	45509.38
605.03	45083.40
605.18	45001.48
605.34	45322.13
605.49	44964.03
605.65	45446.18
605.80	45010.84
605.96	45572.57
606.12	45052.97
606.27	45434.48
606.43	44980.42
606.58	45345.54
606.74	45254.26
606.89	45059.99
607.05	45170.00
607.20	45111.49
607.36	44994.46
607.51	44968.71
607.67	45322.13
607.82	45240.21
607.98	45387.67
608.13	45294.05
608.29	44914.88
608.44	44821.26
608.60	44502.95
608.75	44957.01
608.91	44179.95
609.06	44561.46
609.22	45294.05
609.37	44390.60
609.53	45059.99
609.68	45284.68
609.84	45010.84
609.99	44678.49
610.15	45200.43
610.30	45214.47
610.46	44940.63
610.61	44692.53
610.76	44666.78
610.92	44847.00
611.07	44479.54
611.23	44704.23
611.38	44917.22
611.54	45153.62
611.69	44177.61
611.84	44350.81
612.00	44755.72
612.15	44830.62
612.31	44942.97
612.46	44751.04
612.62	44505.29
612.77	44907.86
612.92	44774.45
613.08	44514.65
613.23	44636.36
613.39	44397.62
613.54	44301.66
613.69	44467.84
613.85	44442.09
614.00	44495.92
614.15	45045.95
614.31	44282.94
614.46	44458.48
614.62	44229.10
614.77	44170.59
614.92	44140.16
615.08	44664.44
615.23	44559.12
615.38	44566.14
615.54	44196.34
615.69	44147.18
615.84	43786.74
616.00	43917.81
616.15	43976.33
616.30	44184.63
616.46	43936.54
616.61	43725.89
616.76	43922.49
616.92	43959.94
617.07	43866.32
617.22	43763.34
617.37	44069.95
617.53	44189.31
617.68	44046.54
617.83	44252.51
617.99	44287.62
618.14	43508.22
618.29	43873.34
618.45	43639.29
618.60	43732.91
618.75	43849.94
618.90	43477.79
619.06	44194.00
619.21	43482.47
619.36	44238.47
619.51	43751.63
619.67	43889.73
619.82	43765.68
619.97	43887.39
620.12	43615.88
620.28	43367.79
620.43	43737.59
620.58	43618.22
620.73	43536.30
620.89	43285.87
621.04	43494.18
621.19	43342.04
621.34	43665.03
621.49	43056.50
621.65	43250.76
621.80	43201.61
621.95	43105.65
622.10	43234.38
622.25	43152.46
622.41	42862.23
622.56	42885.64
622.71	43463.75
622.86	42986.28
623.01	42925.42
623.16	43477.79
623.32	43339.70
623.47	43522.26
623.62	43154.80
623.77	43115.01
623.92	42803.72
624.07	42904.36
624.23	42188.16
624.38	42712.44
624.53	42696.05
624.68	42696.05
624.83	43234.38
624.98	42913.72
625.13	42380.08
625.29	42302.84
625.44	42974.58
625.59	42478.38
625.74	42347.31
625.89	42150.71
626.04	42480.72
626.19	42424.55
626.34	42586.05
626.49	42279.44
626.65	42375.40
626.80	42546.26
626.95	42241.99
627.10	41706.01
627.25	42370.72
627.40	42206.88
627.55	41673.24
627.70	41689.62
627.85	42227.95
628.00	42169.43
628.15	42057.09
628.30	42377.74
628.45	42513.49
628.60	42202.20
628.76	42284.12
628.91	42302.84
629.06	41958.78
629.21	42075.81
629.36	42188.16
629.51	41750.48
629.66	42024.32
629.81	41879.21
629.96	41675.58
630.11	42323.91
630.26	41811.33
630.41	42064.11
630.56	41748.14
630.71	42038.36
630.86	42012.62
631.01	41284.71
631.16	41691.96
631.31	41277.69
631.46	40741.71
631.61	41366.63
631.76	41478.97
631.91	41759.84
632.06	41399.40
632.21	41771.54
632.36	41787.92
632.51	41427.48
632.66	41446.21
632.81	41312.80
632.96	41062.36
633.10	41242.58
633.25	40891.50
633.40	41230.88
633.55	41338.54
633.70	41471.95
633.85	41097.47
634.00	41464.93
634.15	41022.57
634.30	41593.66
634.45	40973.42
634.60	41298.75
634.75	41331.52
634.90	40989.80
635.05	41296.41
635.19	41038.95
635.34	41179.39
635.49	40685.53
635.64	41078.74
635.79	40938.31
635.94	40847.03
636.09	40673.83
636.24	41083.42
636.39	40603.61
636.53	40573.19
636.68	40495.95
636.83	40390.62
636.98	40905.54
637.13	40594.25
637.28	40727.66
637.43	40870.43
637.57	40486.59
637.72	40678.51
637.87	40601.27
638.02	40914.90
638.17	40835.33
638.32	40509.99
638.46	40004.44
638.61	40435.10
638.76	40329.77
638.91	40395.31
639.06	40409.35
639.20	40402.33
639.35	40367.22
639.50	40355.52
639.65	40224.45
639.80	40215.08
639.94	40313.39
640.09	39962.31
640.24	39885.07
640.39	39784.43
640.54	39866.34
640.68	40016.14
640.83	39962.31
640.98	39875.71
641.13	39335.04
641.27	40208.06
641.42	39920.18
641.57	40051.25
641.72	39461.43
641.86	39342.06
642.01	39856.98
642.16	39569.10
642.31	39601.86
642.45	40175.30
642.60	39096.31
642.75	39325.68
642.90	39056.52
643.04	39683.78
643.19	39653.36
643.34	39192.27
643.48	39328.02
643.63	39793.79
643.78	39330.36
643.93	39187.59
644.07	39157.16
644.22	39196.95
644.37	39089.29
644.51	39201.63
644.66	39180.57
644.81	39629.95
644.95	39428.66
645.10	39077.58
645.25	39470.79
645.39	39679.10
645.54	39606.55
645.69	39096.31
645.83	38719.48
645.98	39321.00
646.13	39292.91
646.27	39185.25
646.42	39115.03
646.57	38983.96
646.71	38939.49
646.86	39159.50
647.00	38878.64
647.15	38864.60
647.30	39175.89
647.44	39243.76
647.59	38873.96
647.74	39030.77
647.88	38319.25
648.03	39014.39
648.17	39002.69
648.32	38490.11
648.47	38789.70
648.61	38169.46
648.76	38862.26
648.90	38864.60
649.05	38562.67
649.20	38988.64
649.34	38885.66
649.49	38534.58
649.63	38508.83
649.78	38525.22
649.92	38305.21
650.07	38361.38
650.21	38199.88
650.36	38597.77
650.51	38230.31
650.65	38719.48
650.80	38693.74
650.94	38359.04
651.09	38445.64
651.23	38075.84
651.38	38682.03
651.52	38263.08
651.67	38120.31
651.81	38300.53
651.96	37963.49
652.10	38064.13
652.25	37741.14
652.39	37916.68
652.54	38073.49
652.68	38073.49
652.83	38106.26
652.97	38541.60
653.12	38047.75
653.26	38117.96
653.41	37926.04
653.55	37734.12
653.70	37563.26
653.84	37752.84
653.99	38326.27
654.13	37937.74
654.27	37638.15
654.42	37986.89
654.56	38232.65
654.71	37724.75
654.85	37919.02
655.00	37624.11
655.14	37731.78
655.29	37460.27
655.43	37036.64
655.57	37141.96
655.72	37280.05
655.86	37074.09
656.01	37240.26
656.15	36917.27
656.30	37144.30
656.44	37521.13
656.58	37347.93
656.73	36741.73
656.87	37050.68
657.01	36910.25
657.16	36847.05
657.30	36811.95
657.45	36601.30
657.59	36437.46
657.73	36928.97
657.88	36769.82
658.02	36825.99
658.16	36950.04
658.31	37095.15
658.45	37090.47
658.60	36863.44
658.74	37134.94
658.88	37167.71
659.03	36966.42
659.17	36505.34
659.31	36589.59
659.46	36484.27
659.60	36472.57
659.74	35967.01
659.89	36180.00
660.03	36528.74
660.17	36198.73
660.32	36280.64
660.46	36950.04
660.60	36463.21
660.74	36753.43
660.89	36531.08
661.03	35613.59
661.17	35901.48
661.32	36004.46
661.46	36084.04
661.60	35541.03
661.74	36123.83
661.89	36156.60
662.03	36020.84
662.17	35618.27
662.31	35775.09
662.46	36041.91
662.60	35866.37
662.74	35370.18
662.88	35835.94
663.03	35459.12
663.17	35681.47
663.31	35819.56
663.45	35505.93
663.60	35328.05
663.74	35201.66
663.88	35145.48
664.02	34848.24
664.17	34981.65
664.31	34932.50
664.45	34745.25
664.59	34981.65
664.73	35182.93
664.88	34991.01
665.02	34586.10
665.16	34855.26
665.30	34749.93
665.44	34567.37
665.59	34384.81
665.73	34359.06
665.87	34567.37
666.01	34553.33
666.15	34668.02
666.29	34396.51
666.44	34831.85
666.58	34335.66
666.72	34478.43
666.86	34429.28
667.00	34611.84
667.14	34213.95
667.28	34335.66
667.43	34160.12
667.57	33977.56
667.71	34082.88
667.85	33996.28
667.99	33663.93
668.13	33352.63
668.27	33481.36
668.41	33462.64
668.56	33570.30
668.70	33425.19
668.84	33151.35
668.98	33324.55
669.12	33420.51
669.26	33809.04
669.40	33312.84
669.54	33558.60
669.68	33497.75
669.82	32933.68
669.96	33228.59
670.10	32737.07
670.25	32903.25
670.39	32999.21
670.53	32636.43
670.67	32797.93
670.81	32676.22
670.95	32861.12
671.09	32629.41
671.23	32751.12
671.37	33104.54
671.51	32102.79
671.65	32563.87
671.79	32098.11
671.93	32088.74
672.07	32414.08
672.21	32278.33
672.35	31992.78
672.49	32133.21
672.63	31922.57
672.77	32437.48
672.91	31960.02
673.05	31826.60
673.19	31798.52
673.33	31569.15
673.47	31665.11
673.61	31529.36
673.75	30981.67
673.89	31171.25
674.03	31021.46
674.17	30916.14
674.31	31154.87
674.45	30803.79
674.59	31140.83
674.73	31185.30
674.87	30799.11
675.01	31063.59
675.15	31309.35
675.29	30649.32
675.43	30529.95
675.56	30778.04
675.70	30740.60
675.84	30735.92
675.98	29453.30
676.12	30295.89
676.26	30459.73
676.40	29706.08
676.54	29909.71
676.68	29907.37
676.82	29315.21
676.96	29500.11
677.10	29415.85
677.23	29605.44
677.37	29488.41
677.51	29116.26
677.65	29184.14
677.79	28774.55
677.93	29249.67
678.07	29071.79
678.21	28872.85
678.34	28821.36
678.48	28821.36
678.62	28594.32
678.76	28369.63
678.90	28638.80
679.04	28725.39
679.18	28594.32
679.31	28500.70
679.45	28170.69
679.59	27735.35
679.73	28215.16
679.87	27946.00
680.00	27894.50
680.14	27608.96
680.28	27838.33
680.42	27810.25
680.56	27681.52
680.70	27613.64
680.83	27587.89
680.97	26988.72
681.11	27204.05
681.25	26684.45
681.39	26852.97
681.52	27281.28
681.66	27012.12
681.80	26581.46
681.94	26675.09
682.07	26719.56
682.21	26015.05
682.35	26412.95
682.49	26185.91
682.62	26225.70
682.76	26225.70
682.90	26309.96
683.04	25902.71
683.17	25879.30
683.31	25694.40
683.45	25881.64
683.59	25429.92
683.72	25633.55
683.86	25443.96
684.00	25448.64
684.13	25579.71
684.27	25277.79
684.41	25193.53
684.55	25027.35
684.68	24889.26
684.82	25348.00
684.96	24781.59
685.09	24613.07
685.23	24364.98
685.37	24760.53
685.50	24613.07
685.64	24489.03
685.78	24339.23
685.91	24320.51
686.05	24184.76
686.19	24098.16
686.32	24133.26
686.46	23861.76
686.60	23552.81
686.73	23782.18
686.87	23524.72
687.01	23344.50
687.14	23321.10
687.28	23033.21
687.42	23166.62
687.55	22911.50
687.69	23012.15
687.82	23070.66
687.96	23082.36
688.10	22728.94
688.23	22785.12
688.37	22642.34
688.50	22246.79
688.64	22771.07
688.78	22595.53
688.91	22288.92
689.05	22532.34
689.18	22157.85
689.32	21834.86
689.46	22026.78
689.59	22373.18
689.73	22324.03
689.86	21858.26
690.00	22033.80
690.13	21998.70
690.27	21909.75
690.41	21701.45
690.54	21757.62
690.68	21160.78
690.81	20996.95
690.95	21420.58
691.08	21125.68
691.22	21053.12
691.35	20767.57
691.49	20968.86
691.62	21010.99
691.76	20802.68
691.89	20926.73
692.03	20446.92
692.16	20650.55
692.30	20538.20
692.43	20063.07
692.57	20278.40
692.70	20231.59
692.84	20231.59
692.97	20105.20
693.11	19875.83
693.24	20042.01
693.38	19445.17
693.51	19723.69
693.65	19807.95
693.78	19414.74
693.92	19601.99
694.05	19278.99
694.19	19798.59
694.32	19386.66
694.45	19152.60
694.59	19262.61
694.72	18813.23
694.86	18878.76
694.99	18422.36
695.13	18483.21
695.26	18518.32
695.39	18579.17
695.53	18417.68
695.66	18621.30
695.80	18396.61
695.93	18284.26
696.07	18003.40
696.20	18326.39
696.33	18197.67
696.47	18148.51
696.60	18052.55
696.73	18122.77
696.87	17785.73
697.00	17937.87
697.14	17720.20
697.27	17472.10
697.40	17558.70
697.54	17486.14
697.67	17420.61
697.80	17106.98
697.94	17221.66
698.07	17083.57
698.21	17179.53
698.34	17165.49
698.47	16737.17
698.61	16568.65
698.74	16671.64
698.87	16837.81
699.01	16386.09
699.14	16123.95
699.27	16547.59
699.40	16402.47
699.54	16372.05
699.67	16156.72
699.80	16269.06
699.94	15908.62
700.07	16166.08
700.20	16027.99
700.34	15995.22
700.47	15726.06
700.60	15946.07
700.73	15913.30
700.87	15775.21
701.00	15508.39
701.13	15482.64
701.26	15506.05
701.40	15655.84
701.53	15428.81
701.66	15218.16
701.79	15030.92
701.93	15136.24
702.06	14806.23
702.19	15019.22
702.32	14815.59
702.46	14958.36
702.59	14764.10
702.72	14796.87
702.85	14717.29
702.99	14846.02
703.12	14794.53
703.25	14642.39
703.38	14707.93
703.51	14279.61
703.65	14298.33
703.78	14356.85
703.91	14221.10
704.04	14520.68
704.17	13970.66
704.31	14008.11
704.44	13650.00
704.57	13867.67
704.70	13839.59
704.83	13652.34
704.96	13731.92
705.10	13783.41
705.23	13495.53
>>>>>End Processed Spectral Data<<<<<
