SpectraSuite Data File
++++++++++++++++++++++++++++++++++++
Date: Fri Oct 25 11:33:38 EDT 2013
User: price-jones
Dark Spectrum Present: No
Reference Spectrum Present: No
Number of Sampled Component Spectra: 1
Spectrometers: USB2+H05261
Integration Time (usec): 100000 (USB2+H05261)
Spectra Averaged: 1 (USB2+H05261)
Boxcar Smoothing: 0 (USB2+H05261)
Correct for Electrical Dark: No (USB2+H05261)
Strobe/Lamp Enabled: No (USB2+H05261)
Correct for Detector Non-linearity: No (USB2+H05261)
Correct for Stray Light: No (USB2+H05261)
Number of Pixels in Processed Spectrum: 2048
>>>>>Begin Processed Spectral Data<<<<<
365.73	322.99
365.92	322.99
366.12	322.99
366.32	285.55
366.52	224.69
366.72	262.14
366.91	135.75
367.11	170.86
367.31	168.52
367.51	217.67
367.70	187.24
367.90	234.05
368.10	133.41
368.30	170.86
368.49	203.63
368.69	217.67
368.89	168.52
369.09	215.33
369.28	285.55
369.48	245.76
369.68	203.63
369.87	243.42
370.07	198.95
370.27	252.78
370.47	299.59
370.66	512.58
370.86	507.90
371.06	547.69
371.25	538.32
371.45	575.77
371.65	545.34
371.84	636.63
372.04	571.09
372.24	517.26
372.44	587.47
372.63	521.94
372.83	578.11
373.03	620.24
373.22	667.05
373.42	603.86
373.62	578.11
373.81	557.05
374.01	608.54
374.21	671.73
374.40	653.01
374.60	657.69
374.79	681.10
374.99	671.73
375.19	638.97
375.38	601.52
375.58	671.73
375.78	784.08
375.97	671.73
376.17	688.12
376.37	669.39
376.56	730.25
376.76	732.59
376.95	674.07
377.15	667.05
377.35	615.56
377.54	688.12
377.74	664.71
377.93	688.12
378.13	695.14
378.33	718.54
378.52	657.69
378.72	709.18
378.91	737.27
379.11	660.03
379.31	730.25
379.50	685.78
379.70	732.59
379.89	720.88
380.09	671.73
380.28	716.20
380.48	683.44
380.68	734.93
380.87	821.53
381.07	681.10
381.26	784.08
381.46	739.61
381.65	709.18
381.85	713.86
382.04	791.10
382.24	720.88
382.43	746.63
382.63	786.42
382.83	753.65
383.02	861.32
383.22	826.21
383.41	763.01
383.61	786.42
383.80	816.85
384.00	751.31
384.19	772.38
384.39	922.17
384.58	866.00
384.78	842.59
384.97	891.74
385.17	760.67
385.36	758.33
385.56	847.27
385.75	884.72
385.95	851.96
386.14	943.24
386.34	835.57
386.53	936.21
386.72	807.48
386.92	924.51
387.11	936.21
387.31	894.08
387.50	931.53
387.70	905.79
387.89	952.60
388.09	919.83
388.28	854.30
388.48	873.02
388.67	973.66
388.86	938.55
389.06	873.02
389.25	940.90
389.45	983.02
389.64	1008.77
389.84	926.85
390.03	966.64
390.22	976.00
390.42	1006.43
390.61	912.81
390.81	950.26
391.00	1013.45
391.19	1041.54
391.39	952.60
391.58	940.90
391.78	1029.84
391.97	1055.58
392.16	997.07
392.36	1034.52
392.55	1032.18
392.75	1036.86
392.94	1048.56
393.13	1102.39
393.33	994.73
393.52	1093.03
393.71	1081.33
393.91	1034.52
394.10	1081.33
394.29	1125.80
394.49	1088.35
394.68	1132.82
394.88	1142.18
395.07	1135.16
395.26	1174.95
395.46	1191.33
395.65	1151.54
395.84	1210.06
396.04	1322.40
396.23	1177.29
396.42	1165.59
396.62	1181.97
396.81	1256.87
397.00	1167.93
397.19	1277.93
397.39	1254.53
397.58	1348.15
397.77	1273.25
397.97	1289.64
398.16	1231.12
398.35	1249.85
398.55	1266.23
398.74	1385.60
398.93	1376.24
399.12	1291.98
399.32	1263.89
399.51	1306.02
399.70	1320.06
399.90	1364.53
400.09	1315.38
400.28	1373.89
400.47	1317.72
400.67	1369.21
400.86	1394.96
401.05	1425.39
401.24	1437.09
401.44	1373.89
401.63	1458.15
401.82	1465.18
402.01	1427.73
402.21	1455.81
402.40	1439.43
402.59	1511.99
402.78	1448.79
402.97	1556.46
403.17	1570.50
403.36	1565.82
403.55	1575.18
403.74	1533.05
403.93	1554.12
404.13	1584.54
404.32	1528.37
404.51	1629.01
404.70	1626.67
404.89	1600.93
405.09	1799.87
405.28	1696.89
405.47	1650.08
405.66	1661.78
405.85	1652.42
406.05	1666.46
406.24	1820.94
406.43	1886.47
406.62	1802.21
406.81	1816.26
407.00	1905.20
407.20	1729.66
407.39	1666.46
407.58	1795.19
407.77	1858.39
407.96	1949.67
408.15	1865.41
408.34	1891.15
408.54	2010.52
408.73	1952.01
408.92	1970.73
409.11	2036.27
409.30	1959.03
409.49	1998.82
409.68	2057.33
409.87	2076.06
410.07	1921.58
410.26	2038.61
410.45	2059.67
410.64	2043.29
410.83	2174.36
411.02	2080.74
411.21	2249.25
411.40	2139.25
411.59	2237.55
411.78	2172.02
411.98	2186.06
412.17	2279.68
412.36	2338.20
412.55	2267.98
412.74	2399.05
412.93	2345.22
413.12	2244.57
413.31	2499.69
413.50	2413.09
413.69	2291.38
413.88	2403.73
414.07	2321.81
414.26	2516.08
414.45	2506.71
414.64	2525.44
414.83	2544.16
415.02	2708.00
415.22	2705.66
415.41	2731.41
415.60	2616.72
415.79	2691.62
415.98	2665.87
416.17	2649.49
416.36	2703.32
416.55	2682.25
416.74	2789.92
416.93	2799.28
417.12	2843.75
417.31	2864.82
417.50	2923.33
417.69	2942.05
417.88	2979.50
418.07	2878.86
418.26	2899.92
418.45	2998.23
418.64	3110.57
418.83	3091.85
419.02	2970.14
419.21	3066.10
419.39	3110.57
419.58	3096.53
419.77	3045.04
419.96	3251.00
420.15	3178.45
420.34	3234.62
420.53	3204.19
420.72	3307.18
420.91	3176.11
421.10	3199.51
421.29	3159.72
421.48	3232.28
421.67	3283.77
421.86	3246.32
422.05	3372.71
422.24	3368.03
422.43	3325.90
422.61	3438.25
422.80	3461.65
422.99	3405.48
423.18	3431.23
423.37	3442.93
423.56	3386.76
423.75	3337.60
423.94	3227.60
424.13	3246.32
424.32	3389.10
424.50	3529.53
424.69	3332.92
424.88	3503.78
425.07	3403.14
425.26	3419.52
425.45	3510.80
425.64	3496.76
425.83	3410.16
426.01	3595.06
426.20	3478.04
426.39	3421.86
426.58	3419.52
426.77	3435.91
426.96	3517.83
427.15	3590.38
427.33	3616.13
427.52	3527.19
427.71	3728.47
427.90	3604.42
428.09	3630.17
428.28	3709.75
428.46	3796.35
428.65	3641.87
428.84	3721.45
429.03	3754.22
429.22	3653.58
429.40	3749.54
429.59	3749.54
429.78	3632.51
429.97	3616.13
430.16	3681.66
430.34	3798.69
430.53	3838.48
430.72	3927.42
430.91	3871.25
431.10	3822.09
431.28	4077.21
431.47	4074.87
431.66	3960.19
431.85	3932.10
432.03	4016.36
432.22	4086.58
432.41	4065.51
432.60	3964.87
432.79	4198.92
432.97	4217.65
433.16	4217.65
433.35	4051.47
433.54	4184.88
433.72	4084.23
433.91	4161.47
434.10	4299.56
434.28	4196.58
434.47	4248.07
434.66	4241.05
434.85	4262.12
435.03	4337.01
435.22	4332.33
435.41	4353.40
435.59	4334.67
435.78	4512.55
435.97	4362.76
436.16	4437.66
436.34	4414.25
436.53	4585.11
436.72	4519.57
436.90	4360.42
437.09	4505.53
437.28	4386.16
437.46	4498.51
437.65	4554.68
437.84	4688.09
438.02	4667.03
438.21	4657.67
438.40	4547.66
438.58	4770.01
438.77	4814.48
438.96	4662.35
439.14	4692.77
439.33	4926.83
439.52	4910.44
439.70	5050.88
439.89	4983.00
440.08	4954.91
440.26	5149.18
440.45	4931.51
440.63	5144.50
440.82	5142.16
441.01	5032.15
441.19	5287.27
441.38	5434.72
441.57	5275.57
441.75	5359.83
441.94	5383.23
442.12	5458.13
442.31	5568.13
442.50	5399.62
442.68	5493.24
442.87	5495.58
443.05	5430.04
443.24	5659.42
443.43	5596.22
443.61	5504.94
443.80	5788.14
443.98	5577.50
444.17	5336.42
444.35	5668.78
444.54	5741.33
444.73	5631.33
444.91	5643.03
445.10	5717.93
445.28	5614.95
445.47	5542.39
445.65	5748.36
445.84	5636.01
446.02	5806.87
446.21	5785.80
446.39	5673.46
446.58	5785.80
446.77	5682.82
446.95	5654.73
447.14	5823.25
447.32	5675.80
447.51	5643.03
447.69	5827.93
447.88	5685.16
448.06	5792.83
448.25	5827.93
448.43	5825.59
448.62	5806.87
448.80	5746.02
448.99	5774.10
449.17	5863.04
449.36	5942.62
449.54	5977.73
449.73	5907.51
449.91	6111.14
450.10	6064.33
450.28	6022.20
450.46	6120.50
450.65	6146.25
450.83	6078.37
451.02	6083.05
451.20	6136.88
451.39	6244.55
451.57	6141.57
451.76	6186.04
451.94	6127.52
452.13	6347.53
452.31	6296.04
452.49	6321.79
452.68	6342.85
452.86	6384.98
453.05	6253.91
453.23	6291.36
453.42	6314.77
453.60	6300.72
453.78	6567.54
453.97	6413.07
454.15	6523.07
454.34	6417.75
454.52	6600.31
454.70	6672.87
454.89	6647.12
455.07	6691.59
455.26	6511.37
455.44	6487.96
455.62	6799.26
455.81	6850.75
455.99	6764.15
456.17	6925.65
456.36	6766.49
456.54	6923.30
456.73	6860.11
456.91	7148.00
457.09	6951.39
457.28	7098.84
457.46	7091.82
457.64	7197.15
457.83	7124.59
458.01	7068.42
458.19	7302.47
458.38	7101.19
458.56	7241.62
458.74	7199.49
458.93	7152.68
459.11	7126.93
459.29	7442.90
459.48	7379.71
459.66	7307.15
459.84	7346.94
460.03	7510.78
460.21	7466.31
460.39	7461.63
460.57	7433.54
460.76	7375.03
460.94	7442.90
461.12	7417.16
461.31	7576.31
461.49	7398.43
461.67	7438.22
461.85	7798.66
462.04	7751.85
462.22	8018.68
462.40	7782.28
462.59	7688.66
462.77	7756.54
462.95	7786.96
463.13	7793.98
463.32	7946.12
463.50	7967.18
463.68	7932.08
463.86	7817.39
464.05	7887.61
464.23	7941.44
464.41	7882.92
464.59	8018.68
464.78	8072.51
464.96	8074.85
465.14	7957.82
465.32	8201.24
465.50	8182.51
465.69	8138.04
465.87	8077.19
466.05	8306.56
466.23	8095.91
466.41	8255.07
466.60	8409.54
466.78	8437.63
466.96	8236.35
467.14	8133.36
467.32	8285.50
467.51	8435.29
467.69	8329.97
467.87	8297.20
468.05	8540.61
468.23	8250.39
468.41	8219.96
468.60	8381.46
468.78	8517.21
468.96	8407.20
469.14	8695.09
469.32	8788.71
469.50	8306.56
469.69	8622.53
469.87	8636.58
470.05	8774.67
470.23	8865.95
470.41	8725.52
470.59	8793.39
470.77	8748.92
470.95	8765.31
471.14	9011.06
471.32	8753.60
471.50	8896.38
471.68	9139.79
471.86	8973.61
472.04	9249.80
472.22	9448.74
472.40	8957.23
472.58	9268.52
472.77	9371.50
472.95	9343.42
473.13	9549.39
473.31	9273.20
473.49	9371.50
473.67	9500.23
473.85	9561.09
474.03	9596.20
474.21	9928.55
474.39	9767.06
474.57	9844.29
474.75	9827.91
474.93	10090.05
475.12	10054.94
475.30	10052.60
475.48	9996.43
475.66	10120.48
475.84	10054.94
476.02	10356.87
476.20	10408.36
476.38	10469.22
476.56	10544.11
476.74	10541.77
476.92	10731.36
477.10	10558.16
477.28	10759.44
477.46	10768.80
477.64	10892.85
477.82	10888.17
478.00	11375.00
478.18	11185.42
478.36	11126.91
478.54	11225.21
478.72	11382.03
478.90	11737.79
479.08	11585.65
479.26	11775.24
479.44	11545.86
479.62	11707.36
479.80	11791.62
479.98	12023.33
480.16	12259.73
480.34	12154.40
480.52	12241.00
480.70	12271.43
480.88	12212.92
481.06	12472.71
481.24	12439.95
481.41	12432.93
481.59	12688.04
481.77	12613.15
481.95	12982.95
482.13	13266.16
482.31	12746.56
482.49	13181.90
482.67	13486.17
482.85	13537.66
483.03	13565.74
483.21	13778.73
483.39	13874.70
483.57	13687.45
483.74	13947.25
483.92	14038.53
484.10	13916.83
484.28	14396.64
484.46	14513.66
484.64	14654.09
484.82	14300.67
485.00	14876.44
485.18	14934.96
485.35	15143.27
485.53	14881.13
485.71	14892.83
485.89	15403.07
486.07	15475.62
486.25	15363.28
486.43	15639.46
486.61	15906.28
486.78	15665.21
486.96	15805.64
487.14	16100.55
487.32	16074.80
487.50	16350.98
487.68	16524.18
487.85	16774.62
488.03	16891.65
488.21	17003.99
488.39	16992.29
488.57	17193.58
488.75	17303.58
488.92	17102.29
489.10	17481.46
489.28	17638.28
489.46	17755.30
489.64	17872.33
489.81	18195.32
489.99	17937.87
490.17	18045.53
490.35	18298.31
490.53	18476.19
490.70	18530.02
490.88	18633.00
491.06	18817.91
491.24	18944.30
491.41	18761.73
491.59	19080.05
491.77	19115.16
491.95	19428.79
492.13	19730.72
492.30	19892.21
492.48	19871.15
492.66	19730.72
492.84	20025.62
493.01	19803.27
493.19	20060.73
493.37	20512.46
493.54	20599.05
493.72	20552.24
493.90	20671.61
494.08	20809.70
494.25	20865.88
494.43	20957.16
494.61	21259.09
494.79	21200.57
494.96	20919.71
495.14	21411.22
495.32	21631.23
495.49	21689.74
495.67	21745.92
495.85	22174.24
496.02	22125.08
496.20	22146.15
496.38	22424.67
496.55	22544.04
496.73	23159.60
496.91	22878.74
497.09	22640.00
497.26	23108.11
497.44	22717.24
497.62	23061.30
497.79	23421.74
497.97	23468.55
498.14	23601.96
498.32	23660.48
498.50	23697.92
498.67	24058.37
498.85	23878.15
499.03	23700.26
499.20	24072.41
499.38	24009.22
499.56	24622.44
499.73	24477.32
499.91	24723.08
500.08	24788.61
500.26	24769.89
500.44	25095.22
500.61	24669.25
500.79	24975.86
500.97	25483.75
501.14	25458.01
501.32	24805.00
501.49	25142.03
501.67	25062.46
501.84	25766.96
502.02	25656.95
502.20	25600.78
502.37	25947.18
502.55	25642.91
502.72	25848.88
502.90	25614.82
503.07	25986.97
503.25	26026.76
503.43	26195.28
503.60	26616.57
503.78	26600.19
503.95	26441.03
504.13	26742.96
504.30	26902.12
504.48	26897.44
504.65	26796.79
504.83	27225.11
505.01	27175.96
505.18	27126.81
505.36	27400.65
505.53	27344.48
505.71	27803.22
505.88	27608.96
506.06	27246.18
506.23	27711.94
506.41	27597.26
506.58	27728.33
506.76	28318.14
506.93	28116.86
507.11	28126.22
507.28	28196.43
507.46	28346.23
507.63	28168.35
507.81	28734.76
507.98	28556.88
508.16	28528.79
508.33	28748.80
508.50	28261.97
508.68	28566.24
508.85	28828.38
509.03	28690.29
509.20	28844.76
509.38	29539.90
509.55	29535.22
509.73	29359.68
509.90	29200.52
510.08	29462.66
510.25	29720.12
510.42	29401.81
510.60	29834.81
510.77	29841.83
510.95	30279.51
511.12	29942.47
511.30	29816.08
511.47	29867.58
511.64	30174.19
511.82	30221.00
511.99	30300.58
512.17	30326.32
512.34	30398.88
512.51	30845.92
512.69	30897.41
512.86	30455.05
513.04	30703.15
513.21	30553.35
513.38	31185.30
513.56	31428.71
513.73	30855.28
513.90	31236.79
514.08	31349.14
514.25	31585.53
514.43	31798.52
514.60	31379.56
514.77	31534.04
514.95	32116.83
515.12	31765.75
515.29	31601.91
515.47	31735.32
515.64	31927.25
515.81	32329.82
515.99	32233.86
516.16	32421.10
516.33	32327.48
516.51	32582.60
516.68	32692.60
516.85	32521.74
517.03	32989.85
517.20	32891.55
517.37	32699.62
517.54	32889.21
517.72	32992.19
517.89	33046.02
518.06	33347.95
518.24	33106.88
518.41	32989.85
518.58	33301.14
518.75	33160.71
518.93	33165.39
519.10	33504.77
519.27	33263.69
519.45	33656.90
519.62	33776.27
519.79	34036.07
519.96	33975.22
520.14	33883.94
520.31	34314.59
520.48	33975.22
520.65	34017.35
520.83	34307.57
521.00	34660.99
521.17	34007.98
521.34	34398.85
521.52	34223.31
521.69	34607.16
521.86	35108.04
522.03	34747.59
522.20	34630.57
522.38	35199.32
522.55	35433.37
522.72	34773.34
522.89	34885.68
523.07	35306.98
523.24	34920.79
523.41	35709.55
523.58	35072.93
523.75	35634.66
523.92	35255.49
524.10	35545.72
524.27	35931.90
524.44	35906.16
524.61	35594.87
524.78	36037.23
524.96	36048.93
525.13	36023.19
525.30	36362.56
525.47	35943.61
525.64	36034.89
525.81	36369.58
525.98	36392.99
526.16	36350.86
526.33	36168.30
526.50	36542.78
526.67	36332.14
526.84	36505.34
527.01	36460.87
527.18	36739.39
527.36	36945.36
527.53	36879.82
527.70	36968.76
527.87	37708.37
528.04	37008.55
528.21	36676.19
528.38	36959.40
528.55	37392.40
528.72	37481.34
528.89	37291.76
529.07	36921.95
529.24	37088.13
529.41	38082.86
529.58	37460.27
529.75	37965.83
529.92	37745.82
530.09	37635.81
530.26	37865.19
530.43	38029.02
530.60	37614.75
530.77	37581.98
530.94	38099.24
531.11	37663.90
531.28	37738.80
531.46	38120.31
531.63	38345.00
531.80	38473.73
531.97	38579.05
532.14	38314.57
532.31	38281.80
532.48	39005.03
532.65	39100.99
532.82	38586.07
532.99	38754.59
533.16	38249.03
533.33	38714.80
533.50	38733.53
533.67	38614.16
533.84	38663.31
534.01	38923.11
534.18	38682.03
534.35	39246.10
534.52	39133.76
534.69	39636.97
534.86	39379.51
535.03	38927.79
535.20	39538.67
535.37	39543.35
535.54	39674.42
535.71	39543.35
535.88	39414.62
536.05	39445.05
536.22	39997.41
536.38	39541.01
536.55	39585.48
536.72	39840.60
536.89	39707.19
537.06	40133.17
537.23	40126.14
537.40	40156.57
537.57	39845.28
537.74	39810.17
537.91	40088.70
538.08	40020.82
538.25	39798.47
538.42	40329.77
538.59	40364.88
538.75	40311.05
538.92	40423.39
539.09	41216.83
539.26	40624.68
539.43	40133.17
539.60	40849.37
539.77	40751.07
539.94	41273.01
540.11	40835.33
540.28	40818.94
540.44	41036.61
540.61	41221.52
540.78	40753.41
540.95	40954.69
541.12	40776.81
541.29	41069.38
541.46	40973.42
541.62	41212.15
541.79	41207.47
541.96	40954.69
542.13	41031.93
542.30	41354.93
542.47	41375.99
542.63	41507.06
542.80	41530.47
542.97	41668.56
543.14	41724.73
543.31	41989.21
543.48	41876.86
543.64	42160.07
543.81	41921.34
543.98	41942.40
544.15	42129.64
544.32	42239.65
544.48	42635.20
544.65	42384.76
544.82	42094.53
544.99	42073.47
545.16	42293.48
545.32	42300.50
545.49	42628.18
545.66	42932.45
545.83	42550.94
546.00	42895.00
546.16	42742.86
546.33	42373.06
546.50	42454.98
546.67	43409.92
546.83	42382.42
547.00	42700.73
547.17	42476.04
547.34	42588.39
547.50	43012.02
547.67	43445.02
547.84	43100.97
548.00	43370.13
548.17	43515.24
548.34	43475.45
548.51	43608.86
548.67	43225.01
548.84	43564.39
549.01	43325.66
549.18	43093.94
549.34	43456.73
549.51	43533.96
549.68	43592.48
549.84	43423.96
550.01	43313.95
550.18	43152.46
550.34	43765.68
550.51	43723.55
550.68	43416.94
550.84	43564.39
551.01	44062.93
551.18	43990.37
551.34	43585.46
551.51	44170.59
551.68	44182.29
551.84	43615.88
552.01	43908.45
552.18	44142.50
552.34	44268.89
552.51	43742.27
552.68	43789.08
552.84	44533.37
553.01	43992.71
553.18	44116.76
553.34	44376.56
553.51	44065.27
553.67	44320.38
553.84	44261.87
554.01	44381.24
554.17	44680.83
554.34	44634.02
554.51	44306.34
554.67	44676.15
554.84	45001.48
555.00	44648.06
555.17	44428.05
555.33	45067.02
555.50	44563.80
555.67	44659.76
555.83	44746.36
556.00	45050.63
556.16	45432.14
556.33	45352.56
556.50	44949.99
556.66	45184.04
556.83	44865.73
556.99	44964.03
557.16	45235.53
557.32	45338.52
557.49	45385.33
557.65	45088.08
557.82	44893.82
557.98	44678.49
558.15	44935.95
558.32	45301.07
558.48	45052.97
558.65	45092.76
558.81	45097.44
558.98	45680.24
559.14	45591.30
559.31	45380.65
559.47	45214.47
559.64	45483.63
559.80	45464.91
559.97	45820.67
560.13	45460.23
560.30	45254.26
560.46	46068.76
560.63	46052.38
560.79	46045.36
560.96	45427.46
561.12	45837.05
561.29	45523.42
561.45	46021.95
561.61	45539.80
561.78	45654.49
561.94	45502.35
562.11	45860.46
562.27	45689.60
562.44	45687.26
562.60	46017.27
562.77	46075.79
562.93	45593.64
563.10	46096.85
563.26	45808.96
563.42	46021.95
563.59	45785.56
563.75	45759.81
563.92	45970.46
564.08	45736.41
564.24	46078.13
564.41	46134.30
564.57	46185.79
564.74	46213.88
564.90	45872.16
565.07	46387.08
565.23	46347.29
565.39	45888.54
565.56	46206.86
565.72	46068.76
565.88	46281.75
566.05	45881.52
566.21	46464.32
566.38	46211.54
566.54	46171.75
566.70	46438.57
566.87	46550.91
567.03	46337.93
567.19	46834.12
567.36	46361.33
567.52	46602.41
567.68	46738.16
567.85	46707.73
568.01	46705.39
568.17	46178.77
568.34	46822.42
568.50	46705.39
568.66	46616.45
568.83	46698.37
568.99	46368.35
569.15	46298.14
569.32	46380.06
569.48	46040.68
569.64	46801.35
569.81	46679.64
569.97	46447.93
570.13	46897.31
570.30	46780.29
570.46	46600.07
570.62	47107.96
570.78	46504.10
570.95	46408.14
571.11	46628.15
571.27	46941.78
571.43	46396.44
571.60	46490.06
571.76	46440.91
571.92	46752.20
572.09	46651.56
572.25	46260.69
572.41	47143.07
572.57	46354.31
572.74	47299.89
572.90	46473.68
573.06	47229.67
573.22	46976.89
573.38	46827.10
573.55	47002.64
573.71	47349.04
573.87	47007.32
574.03	47437.98
574.20	46962.85
574.36	47100.94
574.52	46958.17
574.68	47019.02
574.84	47173.50
575.01	46902.00
575.17	47302.23
575.33	47026.04
575.49	46939.44
575.65	47100.94
575.82	46946.47
575.98	46934.76
576.14	47388.83
576.30	47690.76
576.46	46993.28
576.62	47077.54
576.79	46876.25
576.95	46754.54
577.11	46672.62
577.27	47288.18
577.43	46944.12
577.59	46988.60
577.75	46939.44
577.92	46546.23
578.08	47283.50
578.24	47000.30
578.40	47318.61
578.56	47634.58
578.72	47150.09
578.88	47285.84
579.04	47124.35
579.21	47227.33
579.37	47051.79
579.53	47274.14
579.69	47224.99
579.85	47126.69
580.01	47332.65
580.17	46923.06
580.33	47117.32
580.49	47505.85
580.65	47269.46
580.82	47278.82
580.98	46916.04
581.14	46979.23
581.30	47180.52
581.46	46756.88
581.62	47072.85
581.78	46965.19
581.94	47533.94
582.10	47056.47
582.26	47423.93
582.42	47213.29
582.58	47510.53
582.74	47447.34
582.90	47114.98
583.06	47363.08
583.22	46876.25
583.38	47735.23
583.54	47391.17
583.70	47470.75
583.86	47611.18
584.02	47283.50
584.18	47660.33
584.34	47466.06
584.50	47870.98
584.66	47196.90
584.82	47332.65
584.98	47613.52
585.14	47583.09
585.30	47009.66
585.46	47292.86
585.62	47276.48
585.78	47388.83
585.94	47175.84
586.10	47683.73
586.26	47480.11
586.42	47494.15
586.58	47892.04
586.74	47461.38
586.90	47100.94
587.06	47562.03
587.22	47845.23
587.38	47136.05
587.54	47587.77
587.70	47330.31
587.86	47597.13
588.02	47540.96
588.18	47334.99
588.34	47662.67
588.49	47381.80
588.65	47370.10
588.81	47494.15
588.97	47746.93
589.13	47683.73
589.29	47578.41
589.45	47995.03
589.61	47599.47
589.77	47894.38
589.93	47669.69
590.08	47702.46
590.24	48236.10
590.40	48034.81
590.56	48226.74
590.72	47868.64
590.88	47370.10
591.04	47625.22
591.20	47973.96
591.35	47536.28
591.51	48226.74
591.67	48243.12
591.83	48238.44
591.99	47873.32
592.15	47828.85
592.31	47878.00
592.46	47997.37
592.62	48027.79
592.78	48046.52
592.94	48306.32
593.10	48058.22
593.26	48385.89
593.41	48210.35
593.57	47955.24
593.73	47828.85
593.89	48416.32
594.05	48315.68
594.20	48095.67
594.36	47847.57
594.52	48123.75
594.68	48435.05
594.84	47742.25
594.99	48514.62
595.15	48182.27
595.31	48053.54
595.47	48126.10
595.62	48016.09
595.78	48018.43
595.94	48563.78
596.10	47746.93
596.25	48158.86
596.41	48165.88
596.57	48109.71
596.73	48208.01
596.88	48467.81
597.04	48177.59
597.20	48147.16
597.36	48245.46
597.51	48320.36
597.67	47922.47
597.83	47962.26
597.99	48208.01
598.14	48107.37
598.30	48107.37
598.46	48168.22
598.61	48526.33
598.77	48126.10
598.93	48243.12
599.09	48100.35
599.24	48495.90
599.40	48006.73
599.56	48633.99
599.71	48711.23
599.87	48767.40
600.03	48392.92
600.18	48439.73
600.34	48245.46
600.50	48318.02
600.65	48390.58
600.81	48587.18
600.97	48732.29
601.12	48395.26
601.28	48458.45
601.44	48259.51
601.59	48727.61
601.75	47992.68
601.91	48535.69
602.06	48388.24
602.22	48423.34
602.37	48325.04
602.53	48493.56
602.69	48846.98
602.84	48477.18
603.00	48044.18
603.16	48212.70
603.31	48409.30
603.47	48914.86
603.62	48308.66
603.78	48275.89
603.94	48301.64
604.09	48601.22
604.25	48381.21
604.40	48088.65
604.56	48360.15
604.71	48767.40
604.87	48231.42
605.03	48156.52
605.18	48250.14
605.34	48509.94
605.49	48009.07
605.65	47980.98
605.80	48156.52
605.96	48107.37
606.12	48374.19
606.27	48381.21
606.43	48018.43
606.58	48442.07
606.74	47927.15
606.89	48350.79
607.05	48278.23
607.20	48144.82
607.36	48381.21
607.51	48210.35
607.67	48184.61
607.82	48060.56
607.98	48163.54
608.13	48023.11
608.29	48348.45
608.44	48467.81
608.60	48025.45
608.75	48114.39
608.91	48247.80
609.06	47744.59
609.22	48229.08
609.37	47840.55
609.53	48463.13
609.68	48619.95
609.84	48158.86
609.99	47908.43
610.15	47985.66
610.30	48252.48
610.46	48081.63
610.61	48020.77
610.76	48287.59
610.92	47784.38
611.07	47894.38
611.23	47456.70
611.38	47995.03
611.54	48395.26
611.69	48107.37
611.84	48158.86
612.00	47856.93
612.15	47966.94
612.31	47948.21
612.46	47714.16
612.62	47908.43
612.77	47810.12
612.92	48198.65
613.08	47929.49
613.23	47957.58
613.39	47620.54
613.54	47559.69
613.69	48093.33
613.85	47868.64
614.00	47852.25
614.15	47908.43
614.31	47276.48
614.46	47416.91
614.62	47571.39
614.77	47674.37
614.92	47519.90
615.08	47744.59
615.23	47917.79
615.38	47606.50
615.54	47536.28
615.69	47863.96
615.84	47608.84
616.00	47782.04
616.15	47363.08
616.30	47927.15
616.46	47454.36
616.61	47452.02
616.76	47613.52
616.92	47910.77
617.07	47665.01
617.22	47381.80
617.37	47192.22
617.53	47484.79
617.68	47484.79
617.83	47346.70
617.99	47620.54
618.14	47562.03
618.29	47435.64
618.45	46864.55
618.60	46944.12
618.75	46780.29
618.90	47122.01
619.06	46763.90
619.21	47498.83
619.36	47372.44
619.51	47112.64
619.67	46770.93
619.82	47206.26
619.97	47643.94
620.12	46724.11
620.28	47014.34
620.43	47161.79
620.58	47217.97
620.73	46974.55
620.89	47182.86
621.04	47283.50
621.19	47051.79
621.34	46845.82
621.49	47012.00
621.65	47086.90
621.80	47154.77
621.95	46791.99
622.10	47168.82
622.25	46997.96
622.41	46473.68
622.56	46625.81
622.71	47086.90
622.86	47004.98
623.01	46490.06
623.16	46902.00
623.32	46586.02
623.47	46616.45
623.62	46391.76
623.77	46719.43
623.92	46878.59
624.07	46628.15
624.23	47089.24
624.38	46789.65
624.53	46422.19
624.68	46260.69
624.83	46431.55
624.98	46691.35
625.13	46167.07
625.29	46148.34
625.44	46347.29
625.59	46314.52
625.74	46380.06
625.89	45586.61
626.04	45790.24
626.19	46178.77
626.34	45844.07
626.49	45780.88
626.65	45818.33
626.80	46103.87
626.95	45982.16
627.10	45338.52
627.25	46253.67
627.40	45968.12
627.55	45729.39
627.70	45907.27
627.85	46337.93
628.00	45769.18
628.15	45890.88
628.30	45375.97
628.45	45860.46
628.60	45731.73
628.76	45509.38
628.91	45324.47
629.06	45757.47
629.21	45221.49
629.36	45794.92
629.51	45759.81
629.66	45916.63
629.81	45542.14
629.96	45378.31
630.11	45577.25
630.26	45729.39
630.41	45666.19
630.56	45181.70
630.71	45298.73
630.86	45446.18
631.01	45041.27
631.16	45272.98
631.31	45483.63
631.46	45460.23
631.61	45893.22
631.76	45694.28
631.91	45694.28
632.06	45663.85
632.21	45446.18
632.36	45420.44
632.51	45041.27
632.66	45263.62
632.81	45357.24
632.96	45834.71
633.10	44849.35
633.25	45378.31
633.40	45174.68
633.55	45333.84
633.70	44884.45
633.85	45137.23
634.00	44678.49
634.15	44699.55
634.30	44615.29
634.45	44968.71
634.60	45160.64
634.75	44865.73
634.90	44940.63
635.05	44942.97
635.19	44505.29
635.34	44809.56
635.49	44928.92
635.64	44458.48
635.79	44835.30
635.94	44610.61
636.09	44650.40
636.24	44882.11
636.39	45137.23
636.53	44580.18
636.68	44744.02
636.83	44093.35
636.98	44439.75
637.13	44348.47
637.28	44175.27
637.43	44481.88
637.57	44524.01
637.72	44421.03
637.87	44528.69
638.02	44238.47
638.17	44435.07
638.32	44116.76
638.46	43908.45
638.61	43927.17
638.76	43775.04
638.91	44182.29
639.06	43732.91
639.20	43658.01
639.35	43590.14
639.50	43618.22
639.65	44203.36
639.80	44245.49
639.94	44268.89
640.09	44154.21
640.24	43936.54
640.39	43580.78
640.54	43711.84
640.68	43768.02
640.83	44076.97
640.98	43863.98
641.13	43323.32
641.27	44114.42
641.42	43604.18
641.57	43770.36
641.72	44009.09
641.86	43393.53
642.01	43400.55
642.16	43203.95
642.31	43164.16
642.45	43477.79
642.60	43044.79
642.75	43337.36
642.90	43384.17
643.04	43669.72
643.19	43253.10
643.34	43220.33
643.48	42663.28
643.63	43217.99
643.78	43344.38
643.93	43482.47
644.07	43533.96
644.22	43232.04
644.37	43295.23
644.51	43154.80
644.66	43643.97
644.81	43206.29
644.95	43388.85
645.10	42796.70
645.25	43157.14
645.39	42829.46
645.54	42883.30
645.69	42410.51
645.83	42923.08
645.98	42450.30
646.13	42602.43
646.27	42960.53
646.42	42682.01
646.57	42646.90
646.71	43115.01
646.86	42789.67
647.00	42761.59
647.15	42686.69
647.30	42930.11
647.44	42997.98
647.59	43100.97
647.74	42356.67
647.88	42958.19
648.03	43199.27
648.17	42852.87
648.32	42752.23
648.47	42780.31
648.61	42405.83
648.76	42136.66
648.90	42527.53
649.05	42398.80
649.20	42660.94
649.34	42452.64
649.49	42267.73
649.63	42513.49
649.78	42653.92
649.92	42527.53
650.07	42899.68
650.21	42738.18
650.36	42728.82
650.51	42330.93
650.65	42529.87
650.80	42141.35
650.94	42443.27
651.09	42522.85
651.23	41841.76
651.38	41729.41
651.52	41528.13
651.67	42092.19
651.81	42012.62
651.96	41970.49
652.10	41158.32
652.25	41645.15
652.39	41713.03
652.54	41909.63
652.68	41696.64
652.83	42019.64
652.97	41911.97
653.12	41883.89
653.26	41872.18
653.41	41696.64
653.55	41652.17
653.70	42099.22
653.84	41717.71
653.99	41933.04
654.13	41631.11
654.27	41406.42
654.42	41642.81
654.56	41521.10
654.71	41563.23
654.85	41619.41
655.00	41605.36
655.14	41890.91
655.29	41729.41
655.43	41612.38
655.57	41244.92
655.72	41397.06
655.86	40924.27
656.01	41160.66
656.15	40870.43
656.30	41408.76
656.44	40989.80
656.58	41516.42
656.73	41368.97
656.87	40835.33
657.01	40790.86
657.16	41223.86
657.30	41471.95
657.45	40992.14
657.59	40638.72
657.73	40528.72
657.88	40856.39
658.02	41209.81
658.16	41352.58
658.31	41074.06
658.45	40992.14
658.60	41092.79
658.74	40760.43
658.88	40727.66
659.03	40701.92
659.17	40313.39
659.31	40411.69
659.46	40584.89
659.60	40699.58
659.74	39936.56
659.89	40161.25
660.03	40002.10
660.17	40526.38
660.32	40034.86
660.46	40460.84
660.60	40006.78
660.74	39646.33
660.89	40404.67
661.03	39924.86
661.17	39519.95
661.32	39702.51
661.46	40297.00
661.60	39777.40
661.74	39812.51
661.89	39604.20
662.03	39835.92
662.17	39636.97
662.31	39667.40
662.46	39824.22
662.60	39365.47
662.74	39463.77
662.88	38979.28
663.03	39215.68
663.17	38895.02
663.31	38899.70
663.45	39103.33
663.60	39501.22
663.74	39473.13
663.88	38630.54
664.02	38632.88
664.17	39276.53
664.31	38431.60
664.45	38845.87
664.59	38330.95
664.73	38476.07
664.88	39098.65
665.02	38143.71
665.16	38780.34
665.30	38476.07
665.44	38478.41
665.59	38263.08
665.73	38227.97
665.87	37844.12
666.01	38220.95
666.15	38267.76
666.29	38054.77
666.44	38277.12
666.58	38169.46
666.72	37993.92
666.86	38103.92
667.00	37832.42
667.14	37724.75
667.28	37621.77
667.43	37244.94
667.57	37965.83
667.71	37579.64
667.85	37488.36
667.99	37851.14
668.13	37490.70
668.27	37027.28
668.41	37361.97
668.56	36889.18
668.70	36788.54
668.84	36645.77
668.98	36615.34
669.12	37083.45
669.26	36872.80
669.40	37053.02
669.54	36739.39
669.68	36755.77
669.82	36236.17
669.96	36414.05
670.10	36294.69
670.25	36006.80
670.39	36362.56
670.53	36432.78
670.67	36278.30
670.81	36364.90
670.95	36343.84
671.09	35988.08
671.23	35920.20
671.37	35557.42
671.51	35562.10
671.65	35885.09
671.79	36006.80
671.93	35580.82
672.07	36224.47
672.21	36130.85
672.35	34815.47
672.49	35433.37
672.63	35082.29
672.77	35236.77
672.91	35400.60
673.05	35283.58
673.19	34941.86
673.33	34792.06
673.47	35063.57
673.61	34389.49
673.75	34607.16
673.89	34639.93
674.03	34080.54
674.17	34314.59
674.31	34099.26
674.45	33893.30
674.59	34532.26
674.73	34089.90
674.87	33380.72
675.01	33694.35
675.15	33661.58
675.29	33551.58
675.43	33752.87
675.56	33687.33
675.70	33692.01
675.84	33415.83
675.98	32184.71
676.12	33366.68
676.26	33436.89
676.40	32910.27
676.54	32538.13
676.68	32446.85
676.82	32350.88
676.96	32699.62
677.10	32636.43
677.23	32858.78
677.37	32481.95
677.51	32170.66
677.65	32236.20
677.79	32474.93
677.93	32053.64
678.07	32135.56
678.21	31641.70
678.34	31491.91
678.48	31157.21
678.62	31417.01
678.76	31407.65
678.90	31283.60
679.04	31681.49
679.18	31314.03
679.31	30738.26
679.45	31117.42
679.59	30602.50
679.73	31402.97
679.87	30382.49
680.00	30693.79
680.14	30724.21
680.28	30415.26
680.42	30469.09
680.56	30073.54
680.70	29930.77
680.83	29972.90
680.97	29528.20
681.11	29848.85
681.25	29371.38
681.39	29577.35
681.52	29593.73
681.66	29092.86
681.80	28835.40
681.94	29027.32
682.07	28786.25
682.21	28900.94
682.35	28547.51
682.49	28617.73
682.62	28727.74
682.76	28931.36
682.90	28360.27
683.04	28371.97
683.17	28498.36
683.31	28304.10
683.45	28034.94
683.59	27702.58
683.72	27573.85
683.86	27637.05
684.00	27536.40
684.13	27529.38
684.27	27119.79
684.41	27468.53
684.55	27358.52
684.68	27171.28
684.82	27339.80
684.96	27194.68
685.09	27232.13
685.23	26897.44
685.37	27248.52
685.50	27180.64
685.64	27077.66
685.78	26649.34
685.91	26497.20
686.05	26565.08
686.19	25834.83
686.32	26106.34
686.46	25921.43
686.60	25233.32
686.73	25797.38
686.87	25963.56
687.01	25858.24
687.14	25666.31
687.28	25371.41
687.42	25460.35
687.55	25350.34
687.69	24849.47
687.82	24905.64
687.96	24617.75
688.10	25322.26
688.23	24807.34
688.37	25067.14
688.50	25177.14
688.64	24535.84
688.78	24760.53
688.91	24596.69
689.05	24643.50
689.18	24023.26
689.32	23859.42
689.46	24130.92
689.59	23534.09
689.73	23946.02
689.86	24109.86
690.00	23786.86
690.13	23660.48
690.27	23484.94
690.41	23477.91
690.54	23520.04
690.68	23253.22
690.81	23152.58
690.95	22794.48
691.08	22728.94
691.22	22754.69
691.35	22897.46
691.49	22874.06
691.62	22899.80
691.76	22661.07
691.89	22078.27
692.03	21961.25
692.16	22094.66
692.30	21965.93
692.43	21862.94
692.57	21525.91
692.70	21823.16
692.84	21860.60
692.97	21287.17
693.11	21404.20
693.24	20964.18
693.38	21261.43
693.51	21099.93
693.65	20898.64
693.78	20638.84
693.92	20987.58
694.05	20772.25
694.19	20386.07
694.32	20673.95
694.45	20734.81
694.59	20919.71
694.72	20725.44
694.86	20334.57
694.99	20119.24
695.13	20027.96
695.26	19899.23
695.39	19983.49
695.53	19711.99
695.66	20215.21
695.80	19644.12
695.93	19679.22
696.07	19396.02
696.20	18927.91
696.33	19190.05
696.47	19164.31
696.60	18916.21
696.73	18965.36
696.87	19159.63
697.00	19161.97
697.14	18714.92
697.27	18611.94
697.40	18422.36
697.54	18506.62
697.67	18494.91
697.80	18464.49
697.94	18302.99
698.07	18003.40
698.21	18265.54
698.34	18146.17
698.47	18127.45
698.61	17458.06
698.74	17483.80
698.87	17781.05
699.01	17664.02
699.14	17633.60
699.27	17561.04
699.40	17549.34
699.54	17224.00
699.67	17247.41
699.80	17184.21
699.94	17212.30
700.07	16947.82
700.20	16748.87
700.34	16833.13
700.47	16931.44
700.60	17015.69
700.73	16776.96
700.87	16528.86
701.00	16126.29
701.13	16182.46
701.26	16400.13
701.40	16161.40
701.53	16135.65
701.66	16039.69
701.79	16191.83
701.93	15899.26
702.06	15829.04
702.19	15363.28
702.32	15407.75
702.46	15733.08
702.59	15606.69
702.72	15489.67
702.85	15499.03
702.99	15609.03
703.12	15166.67
703.25	15171.35
703.38	14974.75
703.51	15166.67
703.65	14743.03
703.78	14846.02
703.91	14546.43
704.04	14740.69
704.17	14740.69
704.31	14607.28
704.44	14253.86
704.57	14317.06
704.70	14560.47
704.83	14637.71
704.96	14090.02
705.10	13891.08
705.23	14090.02
>>>>>End Processed Spectral Data<<<<<
