SpectraSuite Data File
++++++++++++++++++++++++++++++++++++
Date: Fri Oct 25 11:34:44 EDT 2013
User: price-jones
Dark Spectrum Present: No
Reference Spectrum Present: No
Number of Sampled Component Spectra: 1
Spectrometers: USB2+H05261
Integration Time (usec): 100000 (USB2+H05261)
Spectra Averaged: 1 (USB2+H05261)
Boxcar Smoothing: 0 (USB2+H05261)
Correct for Electrical Dark: No (USB2+H05261)
Strobe/Lamp Enabled: No (USB2+H05261)
Correct for Detector Non-linearity: No (USB2+H05261)
Correct for Stray Light: No (USB2+H05261)
Number of Pixels in Processed Spectrum: 2048
>>>>>Begin Processed Spectral Data<<<<<
365.73	280.86
365.92	280.86
366.12	280.86
366.32	191.92
366.52	212.99
366.72	198.95
366.91	201.29
367.11	152.13
367.31	234.05
367.51	145.11
367.70	124.05
367.90	145.11
368.10	201.29
368.30	107.66
368.49	163.84
368.69	262.14
368.89	156.82
369.09	152.13
369.28	248.10
369.48	180.22
369.68	156.82
369.87	201.29
370.07	227.03
370.27	299.59
370.47	332.36
370.66	414.27
370.86	484.49
371.06	512.58
371.25	533.64
371.45	526.62
371.65	608.54
371.84	559.39
372.04	526.62
372.24	514.92
372.44	587.47
372.63	610.88
372.83	582.79
373.03	610.88
373.22	601.52
373.42	528.96
373.62	613.22
373.81	578.11
374.01	592.16
374.21	545.34
374.40	683.44
374.60	643.65
374.79	648.33
374.99	559.39
375.19	685.78
375.38	664.71
375.58	678.76
375.78	650.67
375.97	622.58
376.17	744.29
376.37	676.41
376.56	671.73
376.76	622.58
376.95	653.01
377.15	669.39
377.35	615.56
377.54	613.22
377.74	669.39
377.93	667.05
378.13	692.80
378.33	716.20
378.52	650.67
378.72	688.12
378.91	716.20
379.11	650.67
379.31	727.91
379.50	685.78
379.70	732.59
379.89	741.95
380.09	664.71
380.28	779.40
380.48	685.78
380.68	798.12
380.87	706.84
381.07	763.01
381.26	758.33
381.46	763.01
381.65	706.84
381.85	732.59
382.04	688.12
382.24	777.06
382.43	692.80
382.63	798.12
382.83	823.87
383.02	758.33
383.22	770.04
383.41	734.93
383.61	828.55
383.80	779.40
384.00	695.14
384.19	779.40
384.39	725.57
384.58	791.10
384.78	851.96
384.97	802.80
385.17	798.12
385.36	760.67
385.56	819.19
385.75	805.14
385.95	809.83
386.14	851.96
386.34	770.04
386.53	847.27
386.72	788.76
386.92	903.45
387.11	840.25
387.31	807.48
387.50	835.57
387.70	870.68
387.89	870.68
388.09	931.53
388.28	891.74
388.48	917.49
388.67	947.92
388.86	882.38
389.06	877.70
389.25	931.53
389.45	971.32
389.64	931.53
389.84	875.36
390.03	968.98
390.22	896.43
390.42	966.64
390.61	894.08
390.81	1036.86
391.00	896.43
391.19	999.41
391.39	926.85
391.58	931.53
391.78	964.30
391.97	990.05
392.16	1008.77
392.36	983.02
392.55	1004.09
392.75	1067.28
392.94	1064.94
393.13	985.37
393.33	1013.45
393.52	1076.65
393.71	1081.33
393.91	1039.20
394.10	1006.43
394.29	1022.81
394.49	1022.81
394.68	1109.41
394.88	1165.59
395.07	1151.54
395.26	1029.84
395.46	1050.90
395.65	1041.54
395.84	1071.97
396.04	1167.93
396.23	1081.33
396.42	1137.50
396.62	1158.57
396.81	1200.69
397.00	1146.86
397.19	1081.33
397.39	1146.86
397.58	1163.25
397.77	1170.27
397.97	1273.25
398.16	1254.53
398.35	1224.10
398.55	1219.42
398.74	1261.55
398.93	1233.46
399.12	1270.91
399.32	1186.65
399.51	1284.95
399.70	1306.02
399.90	1296.66
400.09	1376.24
400.28	1308.36
400.47	1273.25
400.67	1380.92
400.86	1334.11
401.05	1397.30
401.24	1329.42
401.44	1406.66
401.63	1409.00
401.82	1287.29
402.01	1406.66
402.21	1500.28
402.40	1331.76
402.59	1423.05
402.78	1413.68
402.97	1458.15
403.17	1462.83
403.36	1345.81
403.55	1479.22
403.74	1526.03
403.93	1549.43
404.13	1483.90
404.32	1547.09
404.51	1521.35
404.70	1678.16
404.89	1551.78
405.09	1647.74
405.28	1575.18
405.47	1643.06
405.66	1629.01
405.85	1636.03
406.05	1647.74
406.24	1636.03
406.43	1739.02
406.62	1757.74
406.81	1842.00
407.00	1654.76
407.20	1774.13
407.39	1797.53
407.58	1776.47
407.77	1832.64
407.96	1682.85
408.15	1708.59
408.34	1706.25
408.54	1846.68
408.73	1916.90
408.92	1839.66
409.11	1856.04
409.30	1830.30
409.49	1860.73
409.68	1940.30
409.87	1933.28
410.07	1994.14
410.26	2026.90
410.45	1944.99
410.64	1956.69
410.83	2019.88
411.02	1968.39
411.21	2097.12
411.40	2129.89
411.59	2059.67
411.78	2057.33
411.98	2115.84
412.17	2122.87
412.36	2101.80
412.55	2221.17
412.74	2202.44
412.93	2324.15
413.12	2239.89
413.31	2354.58
413.50	2207.13
413.69	2370.96
413.88	2427.14
414.07	2251.60
414.26	2485.65
414.45	2389.69
414.64	2298.41
414.83	2441.18
415.02	2504.37
415.22	2511.39
415.41	2665.87
415.60	2520.76
415.79	2499.69
415.98	2684.59
416.17	2703.32
416.36	2525.44
416.55	2595.65
416.74	2736.09
416.93	2597.99
417.12	2724.38
417.31	2780.56
417.50	2775.88
417.69	2850.77
417.88	2815.66
418.07	2794.60
418.26	2827.37
418.45	2778.22
418.64	2864.82
418.83	2850.77
419.02	2930.35
419.21	2913.97
419.39	2998.23
419.58	3080.14
419.77	2956.10
419.96	2993.55
420.15	3049.72
420.34	2995.89
420.53	3063.76
420.72	3110.57
420.91	3169.09
421.10	3141.00
421.29	3143.34
421.48	3059.08
421.67	3215.90
421.86	3143.34
422.05	3215.90
422.24	3150.36
422.43	3133.98
422.61	3124.62
422.80	3267.39
422.99	3204.19
423.18	3229.94
423.37	3222.92
423.56	3330.58
423.75	3239.30
423.94	3117.59
424.13	3016.95
424.32	3103.55
424.50	3293.13
424.69	3314.20
424.88	3260.37
425.07	3274.41
425.26	3293.13
425.45	3269.73
425.64	3316.54
425.83	3302.50
426.01	3407.82
426.20	3197.17
426.39	3316.54
426.58	3232.28
426.77	3349.31
426.96	3330.58
427.15	3421.86
427.33	3405.48
427.52	3393.78
427.71	3527.19
427.90	3482.72
428.09	3499.10
428.28	3503.78
428.46	3485.06
428.65	3534.21
428.84	3583.36
429.03	3688.68
429.22	3438.25
429.40	3386.76
429.59	3578.68
429.78	3541.23
429.97	3522.51
430.16	3510.80
430.34	3599.74
430.53	3576.34
430.72	3691.02
430.91	3810.39
431.10	3602.08
431.28	3758.90
431.47	3709.75
431.66	3885.29
431.85	3761.24
432.03	3843.16
432.22	3978.91
432.41	3873.59
432.60	4025.72
432.79	3838.48
432.97	3892.31
433.16	3953.16
433.35	3852.52
433.54	3887.63
433.72	3985.93
433.91	4081.89
434.10	3990.61
434.28	3985.93
434.47	4070.19
434.66	4086.58
434.85	3943.80
435.03	4053.81
435.22	4184.88
435.41	4283.18
435.59	4168.49
435.78	4081.89
435.97	4250.41
436.16	4264.46
436.34	4128.70
436.53	4208.28
436.72	4273.82
436.90	4306.59
437.09	4280.84
437.28	4313.61
437.46	4273.82
437.65	4292.54
437.84	4287.86
438.02	4269.14
438.21	4369.78
438.40	4353.40
438.58	4449.36
438.77	4557.02
438.96	4648.30
439.14	4542.98
439.33	4627.24
439.52	4727.88
439.70	4727.88
439.89	4748.95
440.08	4674.05
440.26	4746.61
440.45	4755.97
440.63	4751.29
440.82	4915.12
441.01	4922.15
441.19	4910.44
441.38	4994.70
441.57	4954.91
441.75	5064.92
441.94	5020.45
442.12	5060.24
442.31	5160.88
442.50	5188.97
442.68	5057.90
442.87	5123.43
443.05	5212.37
443.24	5369.19
443.43	5301.31
443.61	5153.86
443.80	5399.62
443.98	5128.11
444.17	4999.38
444.35	5425.36
444.54	5273.23
444.73	5301.31
444.91	5338.76
445.10	5359.83
445.28	5362.17
445.47	5362.17
445.65	5338.76
445.84	5408.98
446.02	5523.66
446.21	5348.12
446.39	5245.14
446.58	5434.72
446.77	5584.52
446.95	5233.44
447.14	5453.45
447.32	5551.75
447.51	5659.42
447.69	5430.04
447.88	5558.77
448.06	5523.66
448.25	5516.64
448.43	5603.24
448.62	5469.83
448.80	5675.80
448.99	5570.48
449.17	5596.22
449.36	5528.35
449.54	5582.18
449.73	5755.38
449.91	5823.25
450.10	5858.36
450.28	5820.91
450.46	5935.60
450.65	5898.15
450.83	5860.70
451.02	5914.53
451.20	5926.24
451.39	6040.92
451.57	5930.92
451.76	5827.93
451.94	5893.47
452.13	5865.38
452.31	6066.67
452.49	5926.24
452.68	5994.11
452.86	6094.76
453.05	6043.26
453.23	5987.09
453.42	6183.70
453.60	6069.01
453.78	6078.37
453.97	5909.85
454.15	6015.18
454.34	5935.60
454.52	6050.28
454.70	6298.38
454.89	6125.18
455.07	6167.31
455.26	6296.04
455.44	6354.55
455.62	6359.24
455.81	6370.94
455.99	6434.13
456.17	6310.08
456.36	6382.64
456.54	6534.78
456.73	6366.26
456.91	6565.20
457.09	6750.10
457.28	6853.09
457.46	6520.73
457.64	6829.68
457.83	6740.74
458.01	6633.08
458.19	6857.77
458.38	6740.74
458.56	6822.66
458.74	6710.32
458.93	6663.51
459.11	6883.52
459.29	6745.42
459.48	6871.81
459.66	6883.52
459.84	6920.96
460.03	7173.74
460.21	7110.55
460.39	7159.70
460.57	6993.52
460.76	7040.33
460.94	6991.18
461.12	7211.19
461.31	7070.76
461.49	7318.86
461.67	7042.67
461.85	7258.00
462.04	7204.17
462.22	7379.71
462.40	7396.09
462.59	7339.92
462.77	7368.01
462.95	7452.27
463.13	7412.48
463.32	7456.95
463.50	7470.99
463.68	7363.33
463.86	7606.74
464.05	7410.14
464.23	7417.16
464.41	7716.75
464.59	7492.05
464.78	7662.91
464.96	7489.71
465.14	7644.19
465.32	7698.02
465.50	7747.17
465.69	7590.36
465.87	7683.98
466.05	7719.09
466.23	7726.11
466.41	7772.92
466.60	8006.97
466.78	7913.35
466.96	7730.79
467.14	7756.54
467.32	7728.45
467.51	7950.80
467.69	7831.43
467.87	7925.05
468.05	8011.65
468.23	7920.37
468.41	7950.80
468.60	7915.69
468.78	8072.51
468.96	8217.62
469.14	8245.71
469.32	8100.59
469.50	8056.12
469.69	8334.65
469.87	8369.76
470.05	8428.27
470.23	8149.75
470.41	8325.29
470.59	8423.59
470.77	8217.62
470.95	8210.60
471.14	8381.46
471.32	8241.03
471.50	8580.40
471.68	8517.21
471.86	8573.38
472.04	8772.33
472.22	8915.10
472.40	8643.60
472.58	8903.40
472.77	8690.41
472.95	8837.86
473.13	9184.26
473.31	8840.20
473.49	8882.33
473.67	8641.26
473.85	9048.51
474.03	9132.77
474.21	9207.67
474.39	9198.31
474.57	9280.22
474.75	9593.86
474.93	9376.19
475.12	9425.34
475.30	9474.49
475.48	9678.12
475.66	9633.64
475.84	9547.05
476.02	9650.03
476.20	9696.84
476.38	9802.16
476.56	9919.19
476.74	9811.53
476.92	9877.06
477.10	10026.86
477.28	10129.84
477.46	10026.86
477.64	10221.12
477.82	10368.57
478.00	10579.22
478.18	10553.48
478.36	10544.11
478.54	10731.36
478.72	10607.31
478.90	10836.68
479.08	11030.94
479.26	10878.81
479.44	11140.95
479.62	11337.56
479.80	11108.18
479.98	11199.46
480.16	11499.05
480.34	11442.88
480.52	11639.48
480.70	11543.52
480.88	11440.54
481.06	11740.13
481.24	11896.94
481.41	11824.39
481.59	11833.75
481.77	11957.80
481.95	12184.83
482.13	12187.17
482.31	12266.75
482.49	12769.96
482.67	12620.17
482.85	12758.26
483.03	12903.37
483.21	12765.28
483.39	12968.91
483.57	12954.87
483.74	13076.57
483.92	13284.88
484.10	13209.98
484.28	13458.08
484.46	13652.34
484.64	13996.40
484.82	13338.71
485.00	13713.20
485.18	14019.81
485.35	14342.80
485.53	14118.11
485.71	14242.16
485.89	14726.65
486.07	14492.60
486.25	14588.56
486.43	14654.09
486.61	14803.89
486.78	15161.99
486.96	15066.03
487.14	15253.27
487.32	15176.03
487.50	15227.53
487.68	15445.20
487.85	15550.52
488.03	15613.71
488.21	16168.42
488.39	16088.84
488.57	15960.11
488.75	16032.67
488.92	16376.73
489.10	16521.84
489.28	16610.78
489.46	16776.96
489.64	16870.58
489.81	17219.32
489.99	17097.61
490.17	17106.98
490.35	17633.60
490.53	17411.25
490.70	17708.49
490.88	17359.75
491.06	17879.35
491.24	17664.02
491.41	17823.18
491.59	18251.50
491.77	17886.37
491.95	18363.84
492.13	18558.11
492.30	18281.92
492.48	18850.67
492.66	18663.43
492.84	18979.40
493.01	19297.72
493.19	18759.39
493.37	19290.70
493.54	19484.96
493.72	19688.59
493.90	19697.95
494.08	19623.05
494.25	19662.84
494.43	19988.18
494.61	19941.36
494.79	20418.83
494.96	19889.87
495.14	19964.77
495.32	20430.54
495.49	20442.24
495.67	20507.77
495.85	20821.41
496.02	20849.49
496.20	21076.52
496.38	20994.61
496.55	20922.05
496.73	21678.04
496.91	21467.39
497.09	21546.97
497.26	21802.09
497.44	21813.79
497.62	21699.11
497.79	22122.74
497.97	21886.35
498.14	22232.75
498.32	22443.40
498.50	22150.83
498.67	22742.99
498.85	22473.82
499.03	22761.71
499.20	22841.29
499.38	22974.70
499.56	22625.96
499.73	22857.67
499.91	23054.28
500.08	23166.62
500.26	23068.32
500.44	23419.40
500.61	23164.28
500.79	23367.91
500.97	23828.99
501.14	23672.18
501.32	23929.64
501.49	23768.14
501.67	24130.92
501.84	24098.16
502.02	24105.18
502.20	24212.84
502.37	24002.19
502.55	24306.46
502.72	24264.33
502.90	24624.78
503.07	24643.50
503.25	24746.48
503.43	24428.17
503.60	24992.24
503.78	25046.07
503.95	25055.43
504.13	25095.22
504.30	25163.10
504.48	25055.43
504.65	25411.20
504.83	25502.48
505.01	25577.37
505.18	25804.41
505.36	25687.38
505.53	25560.99
505.71	26085.27
505.88	25626.53
506.06	25668.66
506.23	26277.19
506.41	25867.60
506.58	26150.81
506.76	26450.39
506.93	26171.87
507.11	26513.59
507.28	26553.38
507.46	26506.57
507.63	26656.36
507.81	26747.64
507.98	26696.15
508.16	26771.05
508.33	26916.16
508.50	26993.40
508.68	27054.25
508.85	27585.55
509.03	27161.92
509.20	27344.48
509.38	27744.71
509.55	27496.61
509.73	27817.27
509.90	27573.85
510.08	27543.42
510.25	27714.28
510.42	27505.98
510.60	27988.13
510.77	27744.71
510.95	28367.29
511.12	28098.13
511.30	28369.63
511.47	28240.90
511.64	28465.60
511.82	28514.75
511.99	28575.60
512.17	28900.94
512.34	28201.11
512.51	29081.16
512.69	29118.60
512.86	29151.37
513.04	29202.86
513.21	28875.19
513.38	29125.63
513.56	29575.01
513.73	29205.20
513.90	29453.30
514.08	29528.20
514.25	29855.87
514.43	29811.40
514.60	29949.50
514.77	29549.26
514.95	29991.62
515.12	30075.88
515.29	29905.02
515.47	30043.12
515.64	30045.46
515.81	30050.14
515.99	30345.05
516.16	30749.96
516.33	30441.01
516.51	30534.63
516.68	30424.62
516.85	30665.70
517.03	30682.08
517.20	31030.82
517.37	30651.66
517.54	30850.60
517.72	30969.97
517.89	31344.45
518.06	31262.54
518.24	31229.77
518.41	31250.83
518.58	31543.40
518.75	31175.94
518.93	31548.08
519.10	31370.20
519.27	31412.33
519.45	31615.96
519.62	31417.01
519.79	31580.85
519.96	31732.98
520.14	32018.53
520.31	31924.91
520.48	32393.01
520.65	31990.44
520.83	32545.15
521.00	32231.52
521.17	32531.11
521.34	32627.07
521.52	32591.96
521.69	32818.99
521.86	32479.61
522.03	32713.67
522.20	32921.98
522.38	33179.43
522.55	33024.96
522.72	33141.99
522.89	32975.81
523.07	33006.23
523.24	33343.27
523.41	33397.10
523.58	33050.70
523.75	33244.97
523.92	33256.67
524.10	33610.09
524.27	33806.70
524.44	33865.21
524.61	33940.11
524.78	33776.27
524.96	33989.26
525.13	34174.16
525.30	34295.87
525.47	34220.97
525.64	34073.52
525.81	34443.32
525.98	34483.11
526.16	34668.02
526.33	34349.70
526.50	34298.21
526.67	34113.31
526.84	34562.69
527.01	34501.84
527.18	34438.64
527.36	34670.36
527.53	34443.32
527.70	34925.47
527.87	34876.32
528.04	34651.63
528.21	34506.52
528.38	35084.63
528.55	35433.37
528.72	34813.13
528.89	35115.06
529.07	35360.81
529.24	34761.64
529.41	35555.08
529.58	35232.08
529.75	35435.71
529.92	35295.28
530.09	35232.08
530.26	35789.13
530.43	35861.69
530.60	35044.84
530.77	35676.79
530.94	36046.59
531.11	35693.17
531.28	35775.09
531.46	35931.90
531.63	36266.60
531.80	35833.60
531.97	36479.59
532.14	35885.09
532.31	36004.46
532.48	36566.19
532.65	36903.23
532.82	36222.13
532.99	36535.76
533.16	35995.10
533.33	36620.02
533.50	36559.17
533.67	36786.20
533.84	36402.35
534.01	36753.43
534.18	36727.69
534.35	36926.63
534.52	36615.34
534.69	37022.59
534.86	37202.82
535.03	37111.53
535.20	37525.81
535.37	37563.26
535.54	37116.22
535.71	37146.64
535.88	37661.56
536.05	37322.18
536.22	37392.40
536.38	37364.31
536.55	37474.32
536.72	37113.87
536.89	37574.96
537.06	37684.97
537.23	37532.83
537.40	37628.79
537.57	37418.14
537.74	37937.74
537.91	37855.82
538.08	37930.72
538.25	37858.17
538.42	38022.00
538.59	38110.94
538.75	37965.83
538.92	37972.85
539.09	38539.26
539.26	38150.73
539.43	38075.84
539.60	38560.33
539.77	38113.28
539.94	38693.74
540.11	38242.01
540.28	38773.31
540.44	38581.39
540.61	38693.74
540.78	38569.69
540.95	38389.47
541.12	38412.87
541.29	38932.47
541.46	38810.76
541.62	38700.76
541.79	39077.58
541.96	38356.70
542.13	39077.58
542.30	39014.39
542.47	39171.21
542.63	38920.77
542.80	39009.71
542.97	39461.43
543.14	39538.67
543.31	39386.54
543.48	39255.46
543.64	39786.77
543.81	39864.00
543.98	39849.96
544.15	39491.86
544.32	39833.58
544.48	40334.45
544.65	39597.18
544.82	40121.46
544.99	39700.17
545.16	40030.18
545.32	39709.53
545.49	40165.93
545.66	39934.22
545.83	40182.32
546.00	40119.12
546.16	40664.47
546.33	40151.89
546.50	40676.17
546.67	40322.75
546.83	39777.40
547.00	40048.91
547.17	39789.11
547.34	40215.08
547.50	40722.98
547.67	40657.45
547.84	40694.89
548.00	40844.69
548.17	41088.10
548.34	41078.74
548.51	41226.20
548.67	40795.54
548.84	41134.92
549.01	40477.22
549.18	41083.42
549.34	40989.80
549.51	41371.31
549.68	40996.82
549.84	40730.00
550.01	41251.94
550.18	40957.03
550.34	41174.70
550.51	41081.08
550.68	41378.33
550.84	40847.03
551.01	41565.57
551.18	41448.55
551.34	41165.34
551.51	41549.19
551.68	41577.28
551.84	41041.29
552.01	41174.70
552.18	41329.18
552.34	41588.98
552.51	41144.28
552.68	41467.27
552.84	41799.63
553.01	41951.76
553.18	41691.96
553.34	41682.60
553.51	41935.38
553.67	41794.95
553.84	41855.80
554.01	42073.47
554.17	41727.07
554.34	41865.16
554.51	42021.98
554.67	42040.70
554.84	41909.63
555.00	42099.22
555.17	42003.25
555.33	42340.29
555.50	42171.77
555.67	42417.53
555.83	42218.58
556.00	42019.64
556.16	43005.00
556.33	42546.26
556.50	42684.35
556.66	42593.07
556.83	42178.79
556.99	42972.24
557.16	42534.56
557.32	43161.82
557.49	42628.18
557.65	42230.29
557.82	42726.48
557.98	42351.99
558.15	42550.94
558.32	42572.00
558.48	42450.30
558.65	42469.02
558.81	42691.37
558.98	43005.00
559.14	42937.13
559.31	42960.53
559.47	42667.97
559.64	42880.95
559.80	42436.25
559.97	43161.82
560.13	42747.54
560.30	42780.31
560.46	42981.60
560.63	43145.44
560.79	43552.69
560.96	43084.58
561.12	43419.28
561.29	43117.35
561.45	43349.06
561.61	43386.51
561.78	43367.79
561.94	43107.99
562.11	43388.85
562.27	42979.26
562.44	43370.13
562.60	43161.82
562.77	43377.15
562.93	43283.53
563.10	43878.02
563.26	43262.46
563.42	43990.37
563.59	43353.74
563.75	43487.15
563.92	43817.17
564.08	43250.76
564.24	43606.52
564.41	43433.32
564.57	43629.93
564.74	43515.24
564.90	43538.65
565.07	43707.16
565.23	43569.07
565.39	43147.78
565.56	43793.76
565.72	43320.98
565.88	43627.59
566.05	44009.09
566.21	43711.84
566.38	43681.42
566.54	43545.67
566.70	43559.71
566.87	43751.63
567.03	43746.95
567.19	43709.50
567.36	43784.40
567.52	43810.15
567.68	44280.60
567.85	44374.22
568.01	43995.05
568.17	43873.34
568.34	43782.06
568.50	43831.21
568.66	43658.01
568.83	43910.79
568.99	43889.73
569.15	43597.16
569.32	43999.73
569.48	44332.09
569.64	44107.40
569.81	44252.51
569.97	44088.67
570.13	43992.71
570.30	43856.96
570.46	44231.44
570.62	44348.47
570.78	44172.93
570.95	44601.25
571.11	44348.47
571.27	43948.24
571.43	44072.29
571.60	43775.04
571.76	44009.09
571.92	43903.77
572.09	44229.10
572.25	43889.73
572.41	44315.70
572.57	44259.53
572.74	44617.63
572.90	44224.42
573.06	44196.34
573.22	44615.29
573.38	44467.84
573.55	44755.72
573.71	44643.38
573.87	44423.37
574.03	44299.32
574.20	44753.38
574.36	44442.09
574.52	44353.15
574.68	44458.48
574.84	44687.85
575.01	44865.73
575.17	44535.71
575.33	44631.68
575.49	44500.61
575.65	44416.35
575.82	44460.82
575.98	44556.78
576.14	44954.67
576.30	44931.26
576.46	44807.22
576.62	44664.44
576.79	44456.14
576.95	44287.62
577.11	44273.57
577.27	44212.72
577.43	44683.17
577.59	44577.84
577.75	44399.96
577.92	43973.98
578.08	44973.39
578.24	44945.31
578.40	44744.02
578.56	44680.83
578.72	44624.65
578.88	44561.46
579.04	44545.08
579.21	44582.52
579.37	44790.83
579.53	45153.62
579.69	44186.97
579.85	44371.88
580.01	44470.18
580.17	44432.73
580.33	44802.53
580.49	45024.89
580.65	44847.00
580.82	44292.30
580.98	44374.22
581.14	44273.57
581.30	44830.62
581.46	44404.64
581.62	44884.45
581.78	44748.70
581.94	44804.88
582.10	44463.16
582.26	44641.04
582.42	44463.16
582.58	44591.89
582.74	44851.69
582.90	44835.30
583.06	44683.17
583.22	44847.00
583.38	44514.65
583.54	44622.31
583.70	44863.39
583.86	44762.75
584.02	44725.30
584.18	45235.53
584.34	44662.10
584.50	45076.38
584.66	45319.79
584.82	45202.77
584.98	44856.37
585.14	45219.15
585.30	44847.00
585.46	44531.03
585.62	44631.68
585.78	45034.25
585.94	44528.69
586.10	44678.49
586.26	44753.38
586.42	44957.01
586.58	44975.73
586.74	44596.57
586.90	44839.98
587.06	44685.51
587.22	44694.87
587.38	44573.16
587.54	44966.37
587.70	44987.44
587.86	45146.59
588.02	44854.03
588.18	44914.88
588.34	44945.31
588.49	44800.19
588.65	44910.20
588.81	45003.82
588.97	45301.07
589.13	44818.92
589.29	44797.85
589.45	45097.44
589.61	45329.16
589.77	45436.82
589.93	45195.74
590.08	45380.65
590.24	45392.35
590.40	45301.07
590.56	45485.97
590.72	45375.97
590.88	45165.32
591.04	45462.57
591.20	45104.46
591.35	45406.39
591.51	45635.77
591.67	45432.14
591.83	45977.48
591.99	45195.74
592.15	45497.67
592.31	45717.68
592.46	45432.14
592.62	45404.05
592.78	45598.32
592.94	45565.55
593.10	45504.70
593.26	45872.16
593.41	45701.30
593.57	45221.49
593.73	45507.04
593.89	45757.47
594.05	45785.56
594.20	45509.38
594.36	45961.10
594.52	45710.66
594.68	45109.14
594.84	45265.96
594.99	45872.16
595.15	45191.06
595.31	45684.92
595.47	45923.65
595.62	45598.32
595.78	45350.22
595.94	45776.20
596.10	46164.73
596.25	45481.29
596.41	45595.98
596.57	45581.93
596.73	45535.12
596.88	45495.33
597.04	45720.02
597.20	45865.14
597.36	45881.52
597.51	45659.17
597.67	45537.46
597.83	45422.78
597.99	45743.43
598.14	45439.16
598.30	45862.80
598.46	45579.59
598.61	46239.62
598.77	45448.52
598.93	45661.51
599.09	45624.06
599.24	46143.66
599.40	45605.34
599.56	45764.49
599.71	46181.11
599.87	46279.41
600.03	46195.15
600.18	45720.02
600.34	45942.38
600.50	45820.67
600.65	45385.33
600.81	46047.70
600.97	46525.17
601.12	45975.14
601.28	45698.96
601.44	45642.79
601.59	45729.39
601.75	45778.54
601.91	46192.81
602.06	45607.68
602.22	46361.33
602.37	45495.33
602.53	46085.15
602.69	46075.79
602.84	45429.80
603.00	45331.50
603.16	45813.65
603.31	45736.41
603.47	46014.93
603.62	46171.75
603.78	45708.32
603.94	45961.10
604.09	45422.78
604.25	45736.41
604.40	45717.68
604.56	45886.20
604.71	46082.81
604.87	45303.41
605.03	45869.82
605.18	45715.34
605.34	45844.07
605.49	45439.16
605.65	45764.49
605.80	45401.71
605.96	45958.76
606.12	45820.67
606.27	45705.98
606.43	45350.22
606.58	45766.84
606.74	45713.00
606.89	45528.10
607.05	45947.06
607.20	45865.14
607.36	45390.01
607.51	45514.06
607.67	45839.39
607.82	45212.13
607.98	45532.78
608.13	45507.04
608.29	45605.34
608.44	45640.45
608.60	45375.97
608.75	45467.25
608.91	45003.82
609.06	45024.89
609.22	45923.65
609.37	45373.63
609.53	45464.91
609.68	45736.41
609.84	45125.53
609.99	45338.52
610.15	45696.62
610.30	45626.40
610.46	45373.63
610.61	45272.98
610.76	45516.40
610.92	45113.83
611.07	44985.10
611.23	45455.54
611.38	45563.21
611.54	45603.00
611.69	45668.53
611.84	45708.32
612.00	45497.67
612.15	45109.14
612.31	45406.39
612.46	45226.17
612.62	44821.26
612.77	45125.53
612.92	45315.11
613.08	45008.50
613.23	44999.14
613.39	45455.54
613.54	45078.72
613.69	45603.00
613.85	45050.63
614.00	45385.33
614.15	45158.30
614.31	45132.55
614.46	44886.79
614.62	45045.95
614.77	44362.51
614.92	45361.92
615.08	45207.45
615.23	45270.64
615.38	44964.03
615.54	45312.77
615.69	45221.49
615.84	45118.51
616.00	45165.32
616.15	44690.19
616.30	44601.25
616.46	44673.81
616.61	44882.11
616.76	45024.89
616.92	44957.01
617.07	45113.83
617.22	44765.09
617.37	44615.29
617.53	44699.55
617.68	44847.00
617.83	44626.99
617.99	44987.44
618.14	44699.55
618.29	44697.21
618.45	44264.21
618.60	43924.83
618.75	44289.96
618.90	44587.21
619.06	44589.55
619.21	44748.70
619.36	44502.95
619.51	44208.04
619.67	44385.92
619.82	44601.25
619.97	44779.13
620.12	44538.05
620.28	44313.36
620.43	44526.35
620.58	44329.75
620.73	44526.35
620.89	44591.89
621.04	44442.09
621.19	44250.17
621.34	44516.99
621.49	44322.72
621.65	44259.53
621.80	44807.22
621.95	44285.28
622.10	44289.96
622.25	44411.67
622.41	43849.94
622.56	43765.68
622.71	44069.95
622.86	44285.28
623.01	44163.57
623.16	44158.89
623.32	44098.03
623.47	44414.01
623.62	43873.34
623.77	44034.84
623.92	44184.63
624.07	43831.21
624.23	44184.63
624.38	44371.88
624.53	43798.44
624.68	43512.90
624.83	43555.03
624.98	43978.67
625.13	43697.80
625.29	43480.13
625.44	43665.03
625.59	43555.03
625.74	43320.98
625.89	43583.12
626.04	43746.95
626.19	43320.98
626.34	43559.71
626.49	43328.00
626.65	43086.92
626.80	43454.39
626.95	43178.20
627.10	43386.51
627.25	43665.03
627.40	43400.55
627.55	43531.62
627.70	43803.13
627.85	43402.89
628.00	43189.91
628.15	43342.04
628.30	42721.80
628.45	42604.77
628.60	42808.40
628.76	42873.93
628.91	43367.79
629.06	42738.18
629.21	42728.82
629.36	42646.90
629.51	42784.99
629.66	43540.99
629.81	43049.47
629.96	43089.26
630.11	42588.39
630.26	42635.20
630.41	42920.74
630.56	42944.15
630.71	42939.47
630.86	42899.68
631.01	42639.88
631.16	42480.72
631.31	42548.60
631.46	42600.09
631.61	43285.87
631.76	42834.14
631.91	42958.19
632.06	42990.96
632.21	42995.64
632.36	43047.13
632.51	42471.36
632.66	42801.38
632.81	42621.16
632.96	42583.71
633.10	42415.19
633.25	42003.25
633.40	42349.65
633.55	42527.53
633.70	42356.67
633.85	41888.57
634.00	41928.36
634.15	41762.18
634.30	41998.57
634.45	41893.25
634.60	42326.25
634.75	41993.89
634.90	42487.74
635.05	42302.84
635.19	41883.89
635.34	42230.29
635.49	42162.41
635.64	42216.24
635.79	42167.09
635.94	42061.77
636.09	42422.21
636.24	42529.87
636.39	41989.21
636.53	42101.56
636.68	41701.32
636.83	41439.18
636.98	41769.20
637.13	41839.42
637.28	41701.32
637.43	41872.18
637.57	41357.27
637.72	41844.10
637.87	41476.63
638.02	41977.51
638.17	41914.31
638.32	41223.86
638.46	41148.96
638.61	41621.75
638.76	41617.07
638.91	41645.15
639.06	41324.50
639.20	41296.41
639.35	40620.00
639.50	41549.19
639.65	41275.35
639.80	41268.33
639.94	41567.91
640.09	41394.71
640.24	41141.94
640.39	41078.74
640.54	40893.84
640.68	41289.39
640.83	41549.19
640.98	41048.32
641.13	40760.43
641.27	41596.00
641.42	40905.54
641.57	40825.96
641.72	40842.35
641.86	41076.40
642.01	40928.95
642.16	40889.16
642.31	40554.46
642.45	40870.43
642.60	40734.68
642.75	40907.88
642.90	41322.16
643.04	41001.50
643.19	40392.97
643.34	40666.81
643.48	40470.20
643.63	40807.24
643.78	40622.34
643.93	40727.66
644.07	40641.06
644.22	40669.15
644.37	40399.99
644.51	40863.41
644.66	40837.67
644.81	40133.17
644.95	40919.59
645.10	40311.05
645.25	40467.86
645.39	40399.99
645.54	40060.61
645.69	40252.53
645.83	39971.67
645.98	39868.69
646.13	40025.50
646.27	39697.83
646.42	39948.26
646.57	40243.17
646.71	40624.68
646.86	40741.71
647.00	39810.17
647.15	40100.40
647.30	40378.92
647.44	39838.26
647.59	40198.70
647.74	40402.33
647.88	40488.93
648.03	39931.88
648.17	40247.85
648.32	40020.82
648.47	40430.41
648.61	40020.82
648.76	39901.45
648.90	39758.68
649.05	39683.78
649.20	39737.62
649.34	39978.69
649.49	39707.19
649.63	40201.04
649.78	39974.01
649.92	39695.49
650.07	40339.13
650.21	39983.37
650.36	39842.94
650.51	39959.97
650.65	39833.58
650.80	40297.00
650.94	39796.13
651.09	39475.48
651.23	39484.84
651.38	39313.98
651.52	39229.72
651.67	39281.21
651.81	39536.33
651.96	39690.80
652.10	39463.77
652.25	39344.41
652.39	39337.38
652.54	39187.59
652.68	38763.95
652.83	39505.90
652.97	39405.26
653.12	38878.64
653.26	38920.77
653.41	38988.64
653.55	39133.76
653.70	39501.22
653.84	38761.61
653.99	39297.59
654.13	39016.73
654.27	39391.22
654.42	39040.14
654.56	38937.15
654.71	39304.62
654.85	38794.38
655.00	39000.35
655.14	39049.50
655.29	39545.69
655.43	39302.28
655.57	38740.55
655.72	38429.26
655.86	38663.31
656.01	38555.64
656.15	38581.39
656.30	38677.35
656.44	38770.97
656.58	38822.47
656.73	38319.25
656.87	38389.47
657.01	38403.51
657.16	38593.09
657.30	38223.29
657.45	38614.16
657.59	38457.34
657.73	37998.60
657.88	38939.49
658.02	38803.74
658.16	38478.41
658.31	38085.20
658.45	38342.66
658.60	38089.88
658.74	38356.70
658.88	38410.53
659.03	37874.55
659.17	38073.49
659.31	38005.62
659.46	38124.99
659.60	38040.73
659.74	37888.59
659.89	37570.28
660.03	37479.00
660.17	37612.41
660.32	37233.24
660.46	37123.24
660.60	37322.18
660.74	37764.54
660.89	37649.86
661.03	37134.94
661.17	37085.79
661.32	37226.22
661.46	37240.26
661.60	37127.92
661.74	37273.03
661.89	36830.67
662.03	37256.65
662.17	37053.02
662.31	36966.42
662.46	37301.12
662.60	36655.13
662.74	36411.71
662.88	36430.44
663.03	36608.32
663.17	36678.54
663.31	36201.07
663.45	36704.28
663.60	36945.36
663.74	36720.66
663.88	36634.06
664.02	36760.45
664.17	36844.71
664.31	35917.86
664.45	36147.23
664.59	36147.23
664.73	36041.91
664.88	36067.66
665.02	35749.34
665.16	36081.70
665.30	35817.22
665.44	36084.04
665.59	35653.38
665.73	35573.80
665.87	35438.05
666.01	35667.42
666.15	35798.49
666.29	35702.53
666.44	35920.20
666.58	35433.37
666.72	35292.94
666.86	35569.12
667.00	35299.96
667.14	35278.89
667.28	35182.93
667.43	35040.16
667.57	35309.32
667.71	35026.12
667.85	35351.45
667.99	35105.70
668.13	34520.56
668.27	34761.64
668.41	34855.26
668.56	34873.98
668.70	34298.21
668.84	34352.04
668.98	34286.51
669.12	34693.76
669.26	34464.39
669.40	34724.19
669.54	34483.11
669.68	34352.04
669.82	34005.64
669.96	34031.39
670.10	33905.00
670.25	34026.71
670.39	33883.94
670.53	34129.69
670.67	33881.60
670.81	34366.09
670.95	34071.18
671.09	33741.16
671.23	33425.19
671.37	33504.77
671.51	33687.33
671.65	33469.66
671.79	33259.01
671.93	33614.77
672.07	33570.30
672.21	33174.75
672.35	32954.74
672.49	32779.20
672.63	33198.16
672.77	33202.84
672.91	33048.36
673.05	32708.99
673.19	32451.53
673.33	32491.32
673.47	32470.25
673.61	32023.21
673.75	32133.21
673.89	31871.07
674.03	31978.74
674.17	31772.77
674.31	31835.97
674.45	31857.03
674.59	31850.01
674.73	32105.13
674.87	31391.26
675.01	31524.68
675.15	31475.52
675.29	31208.70
675.43	31388.92
675.56	31531.70
675.70	31356.16
675.84	31173.60
675.98	30026.73
676.12	31337.43
676.26	31255.51
676.40	30508.88
676.54	30654.00
676.68	30764.00
676.82	30389.52
676.96	30728.89
677.10	30459.73
677.23	30412.92
677.37	30635.27
677.51	30209.29
677.65	30256.11
677.79	30059.50
677.93	29792.68
678.07	30087.59
678.21	29795.02
678.34	29432.24
678.48	29191.16
678.62	29406.49
678.76	29443.94
678.90	29462.66
679.04	29532.88
679.18	29270.74
679.31	28865.83
679.45	28854.12
679.59	28809.65
679.73	28877.53
679.87	28676.24
680.00	28655.18
680.14	28814.34
680.28	28470.28
680.42	28336.87
680.56	27981.10
680.70	28114.52
680.83	28006.85
680.97	27896.85
681.11	27810.25
681.25	27735.35
681.39	27648.75
681.52	27630.02
681.66	27234.47
681.80	26857.65
681.94	26644.66
682.07	27087.02
682.21	27168.94
682.35	26852.97
682.49	26867.01
682.62	26897.44
682.76	26885.73
682.90	26883.39
683.04	26618.91
683.17	26604.87
683.31	26354.43
683.45	26230.38
683.59	26129.74
683.72	26188.25
683.86	25666.31
684.00	25762.28
684.13	25965.90
684.27	25617.16
684.41	25631.21
684.55	25565.67
684.68	25338.64
684.82	25336.30
684.96	25039.05
685.09	25083.52
685.23	25167.78
685.37	25186.50
685.50	25338.64
685.64	25432.26
685.78	24968.84
685.91	24449.24
686.05	24540.52
686.19	24184.76
686.32	24034.96
686.46	24119.22
686.60	23962.40
686.73	24397.74
686.87	23990.49
687.01	24479.66
687.14	23765.80
687.28	23711.97
687.42	23859.42
687.55	23655.79
687.69	23538.77
687.82	23522.38
687.96	23569.19
688.10	23396.00
688.23	23360.89
688.37	23253.22
688.50	23180.67
688.64	23178.33
688.78	22838.95
688.91	23070.66
689.05	22544.04
689.18	22431.69
689.32	22277.22
689.46	22225.73
689.59	22331.05
689.73	22579.15
689.86	22471.48
690.00	22075.93
690.13	22141.47
690.27	21781.03
690.41	22101.68
690.54	21703.79
690.68	21619.53
690.81	21600.80
690.95	21422.92
691.08	21029.71
691.22	20872.90
691.35	20968.86
691.49	21348.03
691.62	21109.29
691.76	20861.19
691.89	20650.55
692.03	20617.78
692.16	20573.31
692.30	20704.38
692.43	20386.07
692.57	20119.24
692.70	19929.66
692.84	20161.37
692.97	19861.79
693.11	20016.26
693.24	19803.27
693.38	19955.41
693.51	19756.46
693.65	19789.23
693.78	19433.47
693.92	19173.67
694.05	19236.86
694.19	19531.77
694.32	19283.67
694.45	19407.72
694.59	19515.39
694.72	19250.91
694.86	18979.40
694.99	19021.53
695.13	18841.31
695.26	18569.81
695.39	18583.85
695.53	18473.85
695.66	18387.25
695.80	18380.23
695.93	18267.88
696.07	18258.52
696.20	17834.88
696.33	17666.36
696.47	17619.55
696.60	17736.58
696.73	17715.51
696.87	18047.87
697.00	17837.22
697.14	17357.41
697.27	17493.16
697.40	17348.05
697.54	17563.38
697.67	17144.42
697.80	17343.37
697.94	17317.62
698.07	16966.54
698.21	16999.31
698.34	16966.54
698.47	16847.18
698.61	16421.20
698.74	16386.09
698.87	16526.52
699.01	16456.31
699.14	16278.43
699.27	16105.23
699.40	16130.97
699.54	16039.69
699.67	15990.54
699.80	15948.41
699.94	15639.46
700.07	15976.50
700.20	15756.49
700.34	15702.65
700.47	15665.21
700.60	15667.55
700.73	15740.10
700.87	15597.33
701.00	15295.40
701.13	15295.40
701.26	15021.56
701.40	15204.12
701.53	14834.32
701.66	15201.78
701.79	14724.31
701.93	14881.13
702.06	14686.86
702.19	14328.76
702.32	14761.76
702.46	14661.12
702.59	14417.70
702.72	14588.56
702.85	14679.84
702.99	14387.27
703.12	14113.43
703.25	14225.78
703.38	13937.89
703.51	13802.14
703.65	13919.17
703.78	13479.15
703.91	13486.17
704.04	13731.92
704.17	13493.19
704.31	13399.57
704.44	13460.42
704.57	13614.90
704.70	13439.36
704.83	13399.57
704.96	13088.28
705.10	13305.95
705.23	13020.40
>>>>>End Processed Spectral Data<<<<<
