SpectraSuite Data File
++++++++++++++++++++++++++++++++++++
Date: Fri Oct 25 10:44:14 EDT 2013
User: price-jones
Dark Spectrum Present: No
Reference Spectrum Present: No
Number of Sampled Component Spectra: 1
Spectrometers: USB2+H05261
Integration Time (usec): 100000 (USB2+H05261)
Spectra Averaged: 1 (USB2+H05261)
Boxcar Smoothing: 0 (USB2+H05261)
Correct for Electrical Dark: No (USB2+H05261)
Strobe/Lamp Enabled: No (USB2+H05261)
Correct for Detector Non-linearity: No (USB2+H05261)
Correct for Stray Light: No (USB2+H05261)
Number of Pixels in Processed Spectrum: 2048
>>>>>Begin Processed Spectral Data<<<<<
365.73	194.26
365.92	194.26
366.12	194.26
366.32	81.92
366.52	0.00
366.72	9.36
366.91	9.36
367.11	70.22
367.31	0.00
367.51	0.00
367.70	44.47
367.90	65.54
368.10	28.09
368.30	7.02
368.49	74.90
368.69	44.47
368.89	88.94
369.09	72.56
369.28	51.49
369.48	70.22
369.68	126.39
369.87	70.22
370.07	18.72
370.27	133.41
370.47	168.52
370.66	358.10
370.86	435.34
371.06	369.80
371.25	524.28
371.45	428.32
371.65	367.46
371.84	491.51
372.04	470.45
372.24	498.53
372.44	521.94
372.63	521.94
372.83	545.34
373.03	512.58
373.22	458.74
373.42	444.70
373.62	535.98
373.81	507.90
374.01	561.73
374.21	540.66
374.40	543.00
374.60	636.63
374.79	545.34
374.99	519.60
375.19	533.64
375.38	514.92
375.58	627.26
375.78	575.77
375.97	610.88
376.17	599.18
376.37	613.22
376.56	594.50
376.76	585.13
376.95	543.00
377.15	641.31
377.35	587.47
377.54	624.92
377.74	645.99
377.93	709.18
378.13	603.86
378.33	730.25
378.52	606.20
378.72	589.82
378.91	582.79
379.11	638.97
379.31	627.26
379.50	571.09
379.70	617.90
379.89	653.01
380.09	690.46
380.28	645.99
380.48	695.14
380.68	692.80
380.87	706.84
381.07	702.16
381.26	683.44
381.46	645.99
381.65	706.84
381.85	676.41
382.04	620.24
382.24	702.16
382.43	777.06
382.63	674.07
382.83	641.31
383.02	713.86
383.22	770.04
383.41	599.18
383.61	716.20
383.80	662.37
384.00	671.73
384.19	779.40
384.39	746.63
384.58	835.57
384.78	765.36
384.97	760.67
385.17	681.10
385.36	753.65
385.56	894.08
385.75	828.55
385.95	802.80
386.14	912.81
386.34	837.91
386.53	858.98
386.72	840.25
386.92	826.21
387.11	835.57
387.31	858.98
387.50	936.21
387.70	889.40
387.89	842.59
388.09	851.96
388.28	873.02
388.48	933.87
388.67	940.90
388.86	1034.52
389.06	943.24
389.25	971.32
389.45	1006.43
389.64	903.45
389.84	950.26
390.03	943.24
390.22	947.92
390.42	990.05
390.61	999.41
390.81	1015.79
391.00	1078.99
391.19	1088.35
391.39	1036.86
391.58	999.41
391.78	992.39
391.97	1025.15
392.16	889.40
392.36	1137.50
392.55	1027.50
392.75	1022.81
392.94	1027.50
393.13	997.07
393.33	1020.47
393.52	1081.33
393.71	1114.10
393.91	1125.80
394.10	1132.82
394.29	1151.54
394.49	1165.59
394.68	1240.48
394.88	1212.40
395.07	1322.40
395.26	1207.72
395.46	1291.98
395.65	1252.19
395.84	1284.95
396.04	1254.53
396.23	1165.59
396.42	1144.52
396.62	1196.01
396.81	1139.84
397.00	1135.16
397.19	1247.51
397.39	1313.04
397.58	1327.08
397.77	1373.89
397.97	1413.68
398.16	1364.53
398.35	1350.49
398.55	1430.07
398.74	1439.43
398.93	1507.30
399.12	1483.90
399.32	1460.49
399.51	1446.45
399.70	1521.35
399.90	1598.59
400.09	1514.33
400.28	1685.19
400.47	1607.95
400.67	1593.90
400.86	1584.54
401.05	1680.50
401.24	1607.95
401.44	1647.74
401.63	1694.55
401.82	1727.32
402.01	1675.82
402.21	1776.47
402.40	1736.68
402.59	1699.23
402.78	1701.57
402.97	1797.53
403.17	1727.32
403.36	1746.04
403.55	1769.44
403.74	1806.89
403.93	1851.36
404.13	1905.20
404.32	1797.53
404.51	1994.14
404.70	1933.28
404.89	1970.73
405.09	1994.14
405.28	1947.33
405.47	1914.56
405.66	1905.20
405.85	1891.15
406.05	1947.33
406.24	1980.09
406.43	1909.88
406.62	1994.14
406.81	1987.11
407.00	2099.46
407.20	2083.08
407.39	2040.95
407.58	2113.50
407.77	2073.71
407.96	2143.93
408.15	2165.00
408.34	2155.63
408.54	2209.47
408.73	2270.32
408.92	2256.28
409.11	2347.56
409.30	2347.56
409.49	2202.44
409.68	2214.15
409.87	2235.21
410.07	2389.69
410.26	2272.66
410.45	2359.26
410.64	2487.99
410.83	2431.82
411.02	2518.42
411.21	2544.16
411.40	2527.78
411.59	2539.48
411.78	2602.68
411.98	2583.95
412.17	2644.81
412.36	2672.89
412.55	2670.55
412.74	2525.44
412.93	2675.23
413.12	2612.04
413.31	2745.45
413.50	2780.56
413.69	2757.15
413.88	2902.26
414.07	2843.75
414.26	2920.99
414.45	2904.60
414.64	3033.33
414.83	2977.16
415.02	3042.70
415.22	2998.23
415.41	3103.55
415.60	3103.55
415.79	3122.27
415.98	3208.87
416.17	3129.30
416.36	3159.72
416.55	3164.40
416.74	3229.94
416.93	3199.51
417.12	3183.13
417.31	3339.94
417.50	3337.60
417.69	3485.06
417.88	3410.16
418.07	3487.40
418.26	3496.76
418.45	3499.10
418.64	3538.89
418.83	3515.48
419.02	3613.79
419.21	3562.30
419.39	3646.55
419.58	3501.44
419.77	3520.17
419.96	3726.13
420.15	3536.55
420.34	3747.20
420.53	3751.88
420.72	3857.20
420.91	3763.58
421.10	3695.71
421.29	3810.39
421.48	3625.49
421.67	3899.33
421.86	3719.11
422.05	3702.73
422.24	3744.86
422.43	3721.45
422.61	3833.80
422.80	3861.88
422.99	3847.84
423.18	3929.76
423.37	3826.78
423.56	3770.60
423.75	3817.41
423.94	3901.67
424.13	3653.58
424.32	3707.41
424.50	3866.56
424.69	4035.08
424.88	3985.93
425.07	3913.38
425.26	3864.22
425.45	3857.20
425.64	3763.58
425.83	3896.99
426.01	4039.76
426.20	3964.87
426.39	4037.42
426.58	4018.70
426.77	3861.88
426.96	3948.48
427.15	4018.70
427.33	3985.93
427.52	4060.83
427.71	4072.53
427.90	3988.27
428.09	4184.88
428.28	4234.03
428.46	4152.11
428.65	3964.87
428.84	4304.25
429.03	4276.16
429.22	4175.52
429.40	4133.39
429.59	4170.83
429.78	3932.10
429.97	3988.27
430.16	4072.53
430.34	4133.39
430.53	4067.85
430.72	4196.58
430.91	4276.16
431.10	4299.56
431.28	4589.79
431.47	4554.68
431.66	4498.51
431.85	4571.07
432.03	4622.56
432.22	4571.07
432.41	4500.85
432.60	4713.84
432.79	4690.43
432.97	4692.77
433.16	4767.67
433.35	4645.96
433.54	4461.06
433.72	4643.62
433.91	4622.56
434.10	4713.84
434.28	4901.08
434.47	4690.43
434.66	4861.29
434.85	4814.48
435.03	4917.47
435.22	4938.53
435.41	5149.18
435.59	5078.96
435.78	5074.28
435.97	5055.56
436.16	5174.92
436.34	5198.33
436.53	5114.07
436.72	5296.63
436.90	5032.15
437.09	5160.88
437.28	5207.69
437.46	5277.91
437.65	5249.82
437.84	5273.23
438.02	4971.30
438.21	5135.14
438.40	5205.35
438.58	5249.82
438.77	5303.65
438.96	5488.56
439.14	5547.07
439.33	5380.89
439.52	5654.73
439.70	5790.49
439.89	5554.09
440.08	5556.43
440.26	5666.44
440.45	5547.07
440.63	5774.10
440.82	5856.02
441.01	5851.34
441.19	6001.13
441.38	5966.03
441.57	6090.07
441.75	6083.05
441.94	6150.93
442.12	6076.03
442.31	6307.74
442.50	6293.70
442.68	6296.04
442.87	6246.89
443.05	6324.13
443.24	6328.81
443.43	6375.62
443.61	6253.91
443.80	6548.82
443.98	6380.30
444.17	6118.16
444.35	6399.02
444.54	6497.33
444.73	6509.03
444.91	6548.82
445.10	6277.32
445.28	6408.39
445.47	6310.08
445.65	6497.33
445.84	6544.14
446.02	6494.99
446.21	6586.27
446.39	6555.84
446.58	6651.80
446.77	6651.80
446.95	6537.12
447.14	6635.42
447.32	6546.48
447.51	6462.22
447.69	6743.08
447.88	6899.90
448.06	6523.07
448.25	6649.46
448.43	6663.51
448.62	6623.72
448.80	6644.78
448.99	6717.34
449.17	6869.47
449.36	6850.75
449.54	6829.68
449.73	7037.99
449.91	6998.20
450.10	7117.57
450.28	7169.06
450.46	7164.38
450.65	7358.64
450.83	7101.19
451.02	7140.97
451.20	7021.61
451.39	7262.68
451.57	7101.19
451.76	7021.61
451.94	7220.55
452.13	7145.66
452.31	7143.32
452.49	7148.00
452.68	7171.40
452.86	7262.68
453.05	7279.07
453.23	7171.40
453.42	7148.00
453.60	7316.51
453.78	7440.56
453.97	7229.91
454.15	7187.79
454.34	7302.47
454.52	7510.78
454.70	7499.08
454.89	7403.11
455.07	7428.86
455.26	7562.27
455.44	7676.96
455.62	7803.35
455.81	7681.64
455.99	7683.98
456.17	7779.94
456.36	7672.28
456.54	7861.86
456.73	7950.80
456.91	7985.91
457.09	8049.10
457.28	8016.33
457.46	8088.89
457.64	8084.21
457.83	7969.52
458.01	7929.74
458.19	8072.51
458.38	8100.59
458.56	8315.92
458.74	8250.39
458.93	8126.34
459.11	8255.07
459.29	8081.87
459.48	8283.16
459.66	8189.53
459.84	8365.07
460.03	8484.44
460.21	8416.57
460.39	8505.51
460.57	8505.51
460.76	8524.23
460.94	8446.99
461.12	8601.47
461.31	8753.60
461.49	8461.04
461.67	8891.70
461.85	8692.75
462.04	8622.53
462.22	8798.07
462.40	8725.52
462.59	8971.27
462.77	8767.65
462.95	8865.95
463.13	8821.48
463.32	8903.40
463.50	9121.07
463.68	8863.61
463.86	9118.73
464.05	8840.20
464.23	8674.03
464.41	9041.49
464.59	8751.26
464.78	9081.28
464.96	9193.62
465.14	9188.94
465.32	9097.66
465.50	9245.12
465.69	9193.62
465.87	9102.34
466.05	9252.14
466.23	9053.19
466.41	9224.05
466.60	9540.02
466.78	9163.20
466.96	9118.73
467.14	9214.69
467.32	9242.78
467.51	9525.98
467.69	8924.46
467.87	9399.59
468.05	9394.91
468.23	9481.51
468.41	9350.44
468.60	9430.02
468.78	9528.32
468.96	9570.45
469.14	9600.88
469.32	9753.01
469.50	9664.07
469.69	9537.68
469.87	9729.61
470.05	10015.15
470.23	9575.13
470.41	9734.29
470.59	9898.13
470.77	9717.90
470.95	9764.72
471.14	10036.22
471.32	9874.72
471.50	10225.80
471.68	10080.69
471.86	10284.31
472.04	10284.31
472.22	10321.76
472.40	10256.23
472.58	10349.85
472.77	10303.04
472.95	10607.31
473.13	10874.13
473.31	10485.60
473.49	10312.40
473.67	10410.70
473.85	10834.34
474.03	10920.94
474.21	10904.56
474.39	10871.79
474.57	10958.39
474.75	11190.10
474.93	11197.12
475.12	10995.84
475.30	11183.08
475.48	11197.12
475.66	11367.98
475.84	11119.89
476.02	11304.79
476.20	11351.60
476.38	11468.62
476.56	11922.69
476.74	11688.64
476.92	11690.98
477.10	11681.61
477.28	11850.13
477.46	12074.82
477.64	12343.99
477.82	12299.52
478.00	12606.13
478.18	12269.09
478.36	12290.15
478.54	12559.31
478.72	12697.41
478.90	12863.58
479.08	13034.44
479.26	12926.78
479.44	13144.45
479.62	12954.87
479.80	13121.04
479.98	13338.71
480.16	13605.53
480.34	13516.59
480.52	13696.82
480.70	13638.30
480.88	13397.23
481.06	14061.94
481.24	13888.74
481.41	14010.45
481.59	14129.81
481.77	14534.73
481.95	14340.46
482.13	14483.24
482.31	14565.15
482.49	14803.89
482.67	14621.33
482.85	14731.33
483.03	15124.54
483.21	15201.78
483.39	15431.15
483.57	15187.74
483.74	15456.90
483.92	15297.74
484.10	15389.02
484.28	15447.54
484.46	15903.94
484.64	16205.87
484.82	15747.12
485.00	16049.05
485.18	16250.34
485.35	16320.56
485.53	16208.21
485.71	15988.20
485.89	16570.99
486.07	16278.43
486.25	16517.16
486.43	16805.05
486.61	17139.74
486.78	16985.27
486.96	17308.26
487.14	17795.09
487.32	17778.71
487.50	17921.48
487.68	18188.30
487.85	18202.35
488.03	18445.76
488.21	18768.76
488.39	18314.69
488.57	18504.28
488.75	18576.83
488.92	19232.18
489.10	19208.78
489.28	19307.08
489.46	19562.20
489.64	19548.15
489.81	19953.07
489.99	20006.90
490.17	20135.63
490.35	20425.86
490.53	19950.73
490.70	20350.96
490.88	20208.19
491.06	20641.18
491.24	20617.78
491.41	20725.44
491.59	20521.82
491.77	20765.23
491.95	20732.47
492.13	21378.45
492.30	21535.27
492.48	21631.23
492.66	21895.71
492.84	21523.57
493.01	21907.41
493.19	21806.77
493.37	22251.47
493.54	22263.18
493.72	22188.28
493.90	22345.09
494.08	22913.84
494.25	23243.86
494.43	22824.90
494.61	22944.27
494.79	23241.52
494.96	23323.44
495.14	23459.19
495.32	23653.45
495.49	24004.53
495.67	23590.26
495.85	24196.46
496.02	24325.19
496.20	24367.32
496.38	24205.82
496.55	24587.33
496.73	24952.45
496.91	24826.06
497.09	24870.53
497.26	25053.09
497.44	25043.73
497.62	25333.96
497.79	25397.15
497.97	24945.43
498.14	25399.49
498.32	25509.50
498.50	25631.21
498.67	25797.38
498.85	25668.66
499.03	26101.65
499.20	26085.27
499.38	26251.45
499.56	26331.03
499.73	26539.33
499.91	26394.22
500.08	26602.53
500.26	26274.85
500.44	26391.88
500.61	26403.58
500.79	26492.52
500.97	26651.68
501.14	27225.11
501.32	26927.86
501.49	27002.76
501.67	27124.47
501.84	26967.65
502.02	27283.62
502.20	27428.74
502.37	27779.82
502.55	27824.29
502.72	27857.06
502.90	27793.86
503.07	27489.59
503.25	28187.07
503.43	27850.03
503.60	28233.88
503.78	27953.02
503.95	28032.60
504.13	28479.64
504.30	28563.90
504.48	28346.23
504.65	28599.01
504.83	28697.31
505.01	29200.52
505.18	29053.07
505.36	29432.24
505.53	29446.28
505.71	29649.91
505.88	29294.14
506.06	29338.62
506.23	29347.98
506.41	29523.52
506.58	29841.83
506.76	29729.48
506.93	29951.84
507.11	29572.67
507.28	29883.96
507.46	29757.57
507.63	29844.17
507.81	30178.87
507.98	30199.93
508.16	29862.90
508.33	30506.54
508.50	30700.81
508.68	30780.39
508.85	31138.49
509.03	30925.50
509.20	31211.04
509.38	31283.60
509.55	31159.55
509.73	30855.28
509.90	31215.72
510.08	31166.57
510.25	31056.57
510.42	31365.52
510.60	31814.90
510.77	32126.19
510.95	32051.30
511.12	31491.91
511.30	32072.36
511.47	32357.91
511.64	32151.94
511.82	32479.61
511.99	32245.56
512.17	32334.50
512.34	32151.94
512.51	32364.93
512.69	32826.01
512.86	32708.99
513.04	32856.44
513.21	32498.34
513.38	32378.97
513.56	32720.69
513.73	32826.01
513.90	32886.87
514.08	32821.33
514.25	33067.09
514.43	32790.91
514.60	33125.60
514.77	33603.07
514.95	33205.18
515.12	33551.58
515.29	33731.80
515.47	33975.22
515.64	33853.51
515.81	33715.42
515.99	33574.98
516.16	33443.91
516.33	33511.79
516.51	33177.09
516.68	33383.06
516.85	33221.56
517.03	33521.15
517.20	33584.35
517.37	33680.31
517.54	34300.55
517.72	33975.22
517.89	33823.08
518.06	34059.48
518.24	33984.58
518.41	34380.13
518.58	34359.06
518.75	34436.30
518.93	34597.80
519.10	34946.54
519.27	34562.69
519.45	34792.06
519.62	35035.48
519.79	35136.12
519.96	35262.51
520.14	35700.19
520.31	34967.60
520.48	35515.29
520.65	35255.49
520.83	35522.31
521.00	35995.10
521.17	35622.95
521.34	35803.17
521.52	35941.27
521.69	35765.73
521.86	36065.31
522.03	36226.81
522.20	36079.36
522.38	36093.40
522.55	36615.34
522.72	36435.12
522.89	36364.90
523.07	36814.29
523.24	36563.85
523.41	36795.56
523.58	36669.17
523.75	37095.15
523.92	37151.32
524.10	37268.35
524.27	37441.55
524.44	37174.73
524.61	37268.35
524.78	37462.61
524.96	37266.01
525.13	37221.54
525.30	37837.10
525.47	37242.60
525.64	37380.70
525.81	37797.31
525.98	37198.13
526.16	37130.26
526.33	37071.75
526.50	37523.47
526.67	37179.41
526.84	37638.15
527.01	37179.41
527.18	37434.53
527.36	37975.19
527.53	38377.76
527.70	38326.27
527.87	38462.02
528.04	38120.31
528.21	38464.36
528.38	38471.39
528.55	38464.36
528.72	39218.02
528.89	38686.71
529.07	38719.48
529.24	38272.44
529.41	38845.87
529.58	38810.76
529.75	38993.32
529.92	39367.81
530.09	38869.28
530.26	38815.44
530.43	39386.54
530.60	38909.07
530.77	39063.54
530.94	39213.34
531.11	39133.76
531.28	39271.85
531.46	39723.57
531.63	39566.76
531.80	39349.09
531.97	39220.36
532.14	39248.44
532.31	39012.05
532.48	39374.83
532.65	39388.88
532.82	39578.46
532.99	39885.07
533.16	39613.57
533.33	39641.65
533.50	39908.47
533.67	39992.73
533.84	39723.57
534.01	39920.18
534.18	40196.36
534.35	40149.55
534.52	39847.62
534.69	39700.17
534.86	40533.40
535.03	40687.87
535.20	40879.80
535.37	40718.30
535.54	40713.62
535.71	40395.31
535.88	40479.57
536.05	40568.51
536.22	40603.61
536.38	40205.72
536.55	41013.21
536.72	40872.78
536.89	40566.16
537.06	40708.94
537.23	40896.18
537.40	40790.86
537.57	41141.94
537.74	41385.35
537.91	41294.07
538.08	41317.48
538.25	40802.56
538.42	41198.11
538.59	41574.94
538.75	40816.60
538.92	40992.14
539.09	41165.34
539.26	41109.17
539.43	40914.90
539.60	40987.46
539.77	41481.31
539.94	41617.07
540.11	41165.34
540.28	41387.69
540.44	41308.11
540.61	41743.45
540.78	41167.68
540.95	41708.35
541.12	41284.71
541.29	41462.59
541.46	41776.22
541.62	41645.15
541.79	41993.89
541.96	41792.61
542.13	41741.11
542.30	41963.46
542.47	42110.92
542.63	41904.95
542.80	42337.95
542.97	42473.70
543.14	42892.66
543.31	42480.72
543.48	42450.30
543.64	42822.44
543.81	42813.08
543.98	42841.17
544.15	42658.60
544.32	42653.92
544.48	42766.27
544.65	43005.00
544.82	43201.61
544.99	42651.58
545.16	42883.30
545.32	42843.51
545.49	43220.33
545.66	43175.86
545.83	43124.37
546.00	43313.95
546.16	43150.12
546.33	42941.81
546.50	42513.49
546.67	43129.05
546.83	42703.07
547.00	42813.08
547.17	43302.25
547.34	42838.83
547.50	43096.28
547.67	43489.49
547.84	43311.61
548.00	43248.42
548.17	43943.56
548.34	43152.46
548.51	43590.14
548.67	43943.56
548.84	43653.33
549.01	43440.34
549.18	43672.06
549.34	43559.71
549.51	43730.57
549.68	43887.39
549.84	43817.17
550.01	44032.50
550.18	43901.43
550.34	43695.46
550.51	43973.98
550.68	43538.65
550.84	43875.68
551.01	43878.02
551.18	44074.63
551.34	44116.76
551.51	43952.92
551.68	44589.55
551.84	44266.55
552.01	43957.60
552.18	44626.99
552.34	43814.83
552.51	44341.45
552.68	44002.07
552.84	44289.96
553.01	44175.27
553.18	44055.90
553.34	44495.92
553.51	44416.35
553.67	44229.10
553.84	44933.60
554.01	44762.75
554.17	44596.57
554.34	44711.25
554.51	45027.23
554.67	44811.90
554.84	44811.90
555.00	44919.56
555.17	44952.33
555.33	44411.67
555.50	44079.31
555.67	44542.74
555.83	44624.65
556.00	44928.92
556.16	45207.45
556.33	44650.40
556.50	44921.90
556.66	44362.51
556.83	44439.75
556.99	45099.78
557.16	45380.65
557.32	45125.53
557.49	44790.83
557.65	44762.75
557.82	45010.84
557.98	44935.95
558.15	44994.46
558.32	45078.72
558.48	44708.91
558.65	44858.71
558.81	45179.36
558.98	44973.39
559.14	45134.89
559.31	45048.29
559.47	45193.40
559.64	45275.32
559.80	45277.66
559.97	45193.40
560.13	44865.73
560.30	45134.89
560.46	45375.97
560.63	45483.63
560.79	45237.87
560.96	46103.87
561.12	44938.29
561.29	45305.75
561.45	45289.37
561.61	45181.70
561.78	45258.94
561.94	44910.20
562.11	45137.23
562.27	45469.59
562.44	45511.72
562.60	45235.53
562.77	45691.94
562.93	45626.40
563.10	45897.91
563.26	44959.35
563.42	45577.25
563.59	45193.40
563.75	45542.14
563.92	45696.62
564.08	45839.39
564.24	45956.42
564.41	45860.46
564.57	45621.72
564.74	45247.24
564.90	45612.36
565.07	45567.89
565.23	45612.36
565.39	45764.49
565.56	45731.73
565.72	45429.80
565.88	45649.81
566.05	45769.18
566.21	45492.99
566.38	45677.90
566.54	45841.73
566.70	46124.94
566.87	45729.39
567.03	45940.04
567.19	45993.87
567.36	45736.41
567.52	45450.86
567.68	45918.97
567.85	45752.79
568.01	45801.94
568.17	45886.20
568.34	45684.92
568.50	45687.26
568.66	45654.49
568.83	45670.87
568.99	45530.44
569.15	45851.09
569.32	45429.80
569.48	45703.64
569.64	45916.63
569.81	45972.80
569.97	45680.24
570.13	46167.07
570.30	45853.44
570.46	45577.25
570.62	45439.16
570.78	45701.30
570.95	45528.10
571.11	46291.12
571.27	45794.92
571.43	45570.23
571.60	45778.54
571.76	45687.26
571.92	45507.04
572.09	45900.25
572.25	45666.19
572.41	45907.27
572.57	45935.35
572.74	46401.12
572.90	46206.86
573.06	46148.34
573.22	45844.07
573.38	45773.86
573.55	45518.74
573.71	46419.84
573.87	46033.66
574.03	45881.52
574.20	45865.14
574.36	45727.05
574.52	45893.22
574.68	46071.10
574.84	46028.98
575.01	46087.49
575.17	46176.43
575.33	45820.67
575.49	45659.17
575.65	46094.51
575.82	45942.38
575.98	45727.05
576.14	46047.70
576.30	46471.34
576.46	45605.34
576.62	45801.94
576.79	45684.92
576.95	46092.17
577.11	45937.69
577.27	46117.92
577.43	45947.06
577.59	45893.22
577.75	46146.00
577.92	45350.22
578.08	45890.88
578.24	45752.79
578.40	45769.18
578.56	45886.20
578.72	46106.21
578.88	46204.52
579.04	46117.92
579.21	46256.01
579.37	46188.13
579.53	45879.18
579.69	45918.97
579.85	45830.03
580.01	46164.73
580.17	45804.28
580.33	46155.36
580.49	46349.63
580.65	46279.41
580.82	46543.89
580.98	46075.79
581.14	45507.04
581.30	46246.65
581.46	46403.46
581.62	46230.26
581.78	46263.03
581.94	46562.62
582.10	46000.89
582.26	46337.93
582.42	45830.03
582.58	46515.81
582.74	45858.12
582.90	46433.89
583.06	46162.39
583.22	46057.06
583.38	45851.09
583.54	46464.32
583.70	46443.25
583.86	45986.85
584.02	45635.77
584.18	46089.83
584.34	46136.64
584.50	46307.50
584.66	45708.32
584.82	45689.60
584.98	46291.12
585.14	46103.87
585.30	45900.25
585.46	46052.38
585.62	46230.26
585.78	45984.51
585.94	45689.60
586.10	46281.75
586.26	45682.58
586.42	46220.90
586.58	46569.64
586.74	46422.19
586.90	45975.14
587.06	45949.40
587.22	46052.38
587.38	45968.12
587.54	46014.93
587.70	46443.25
587.86	46426.87
588.02	46298.14
588.18	46623.47
588.34	46150.68
588.49	45670.87
588.65	45490.65
588.81	45567.89
588.97	45783.22
589.13	45652.15
589.29	46157.70
589.45	46005.57
589.61	46014.93
589.77	46103.87
589.93	46312.18
590.08	45940.04
590.24	46478.36
590.40	46871.57
590.56	46438.57
590.72	46700.71
590.88	46192.81
591.04	46522.83
591.20	46419.84
591.35	46649.22
591.51	47037.75
591.67	46293.46
591.83	46621.13
591.99	46094.51
592.15	46267.71
592.31	46368.35
592.46	46040.68
592.62	46309.84
592.78	46396.44
592.94	46358.99
593.10	46363.67
593.26	46590.70
593.41	46073.45
593.57	46099.19
593.73	46223.24
593.89	46408.14
594.05	46515.81
594.20	46286.43
594.36	46349.63
594.52	46323.88
594.68	45902.59
594.84	45883.86
594.99	46522.83
595.15	46642.20
595.31	46293.46
595.47	46106.21
595.62	46204.52
595.78	46583.68
595.94	46972.21
596.10	46611.77
596.25	46396.44
596.41	46791.99
596.57	46080.47
596.73	46791.99
596.88	46323.88
597.04	46050.04
597.20	46724.11
597.36	46674.96
597.51	46726.46
597.67	46174.09
597.83	46518.15
597.99	46677.30
598.14	46274.73
598.30	46398.78
598.46	46417.50
598.61	46157.70
598.77	46185.79
598.93	46195.15
599.09	46021.95
599.24	46958.17
599.40	46504.10
599.56	46693.69
599.71	46679.64
599.87	46527.51
600.03	46305.16
600.18	46410.48
600.34	46174.09
600.50	46630.49
600.65	46256.01
600.81	46721.77
600.97	46284.09
601.12	46298.14
601.28	46719.43
601.44	46490.06
601.59	46258.35
601.75	46024.29
601.91	46438.57
602.06	46181.11
602.22	46724.11
602.37	46155.36
602.53	46485.38
602.69	46726.46
602.84	46274.73
603.00	46492.40
603.16	45940.04
603.31	46478.36
603.47	46260.69
603.62	46405.80
603.78	46234.94
603.94	45965.78
604.09	46700.71
604.25	46700.71
604.40	46108.55
604.56	46532.19
604.71	46010.25
604.87	46333.24
605.03	46160.05
605.18	45935.35
605.34	46122.60
605.49	45839.39
605.65	46337.93
605.80	46096.85
605.96	46569.64
606.12	46185.79
606.27	46279.41
606.43	46335.59
606.58	46136.64
606.74	46387.08
606.89	46162.39
607.05	45944.72
607.20	46515.81
607.36	45890.88
607.51	46059.40
607.67	45853.44
607.82	46005.57
607.98	45972.80
608.13	45603.00
608.29	45984.51
608.44	45617.04
608.60	45401.71
608.75	45851.09
608.91	45876.84
609.06	45806.62
609.22	45654.49
609.37	45605.34
609.53	46012.59
609.68	45895.56
609.84	45380.65
609.99	45801.94
610.15	45373.63
610.30	45626.40
610.46	45092.76
610.61	45815.99
610.76	46000.89
610.92	46000.89
611.07	45668.53
611.23	45806.62
611.38	45956.42
611.54	45427.46
611.69	45860.46
611.84	45088.08
612.00	45219.15
612.15	45904.93
612.31	45502.35
612.46	45116.17
612.62	45354.90
612.77	45312.77
612.92	45895.56
613.08	45085.74
613.23	45429.80
613.39	45221.49
613.54	45345.54
613.69	45483.63
613.85	45343.20
614.00	45387.67
614.15	45607.68
614.31	45422.78
614.46	46153.02
614.62	45312.77
614.77	45146.59
614.92	45071.70
615.08	45380.65
615.23	44949.99
615.38	45160.64
615.54	45010.84
615.69	44893.82
615.84	45013.18
616.00	44952.33
616.15	45155.96
616.30	45034.25
616.46	45052.97
616.61	45006.16
616.76	44734.66
616.92	44350.81
617.07	44467.84
617.22	44542.74
617.37	44428.05
617.53	45282.34
617.68	44856.37
617.83	45102.12
617.99	44987.44
618.14	44931.26
618.29	44704.23
618.45	44549.76
618.60	44512.31
618.75	44051.22
618.90	44423.37
619.06	44610.61
619.21	44685.51
619.36	44722.96
619.51	44231.44
619.67	44704.23
619.82	44942.97
619.97	44463.16
620.12	44135.48
620.28	44095.69
620.43	44254.85
620.58	44346.13
620.73	44322.72
620.89	44531.03
621.04	44296.98
621.19	44311.02
621.34	44027.82
621.49	43920.15
621.65	43599.50
621.80	44451.45
621.95	44238.47
622.10	44170.59
622.25	43995.05
622.41	43952.92
622.56	43927.17
622.71	44149.53
622.86	43955.26
623.01	44116.76
623.16	43973.98
623.32	43936.54
623.47	43856.96
623.62	43587.80
623.77	43559.71
623.92	43753.97
624.07	44002.07
624.23	43552.69
624.38	43222.67
624.53	43377.15
624.68	43459.07
624.83	43697.80
624.98	43253.10
625.13	43274.16
625.29	43688.44
625.44	43398.21
625.59	43328.00
625.74	42834.14
625.89	42792.01
626.04	42831.80
626.19	42962.87
626.34	43122.03
626.49	43414.60
626.65	43316.29
626.80	43526.94
626.95	43239.06
627.10	42948.83
627.25	43288.21
627.40	42754.57
627.55	42789.67
627.70	42419.87
627.85	42604.77
628.00	42625.84
628.15	43026.07
628.30	42693.71
628.45	42829.46
628.60	43014.37
628.76	42836.48
628.91	43012.02
629.06	42899.68
629.21	42485.40
629.36	42630.52
629.51	42562.64
629.66	42749.88
629.81	41839.42
629.96	42674.99
630.11	42010.28
630.26	42366.04
630.41	42375.40
630.56	42492.43
630.71	42916.06
630.86	41930.70
631.01	42443.27
631.16	42349.65
631.31	42309.86
631.46	41720.05
631.61	42267.73
631.76	41935.38
631.91	42232.63
632.06	42274.76
632.21	42183.48
632.36	42600.09
632.51	41918.99
632.66	41970.49
632.81	41368.97
632.96	41603.02
633.10	41621.75
633.25	42361.36
633.40	42082.83
633.55	42085.17
633.70	41986.87
633.85	41755.16
634.00	41696.64
634.15	41635.79
634.30	41820.69
634.45	41673.24
634.60	41787.92
634.75	42029.00
634.90	41542.17
635.05	41319.82
635.19	41535.15
635.34	41691.96
635.49	41614.72
635.64	41441.53
635.79	41680.26
635.94	41434.50
636.09	41706.01
636.24	41380.67
636.39	40795.54
636.53	41254.28
636.68	40732.34
636.83	41408.76
636.98	41422.80
637.13	41151.30
637.28	40699.58
637.43	41654.51
637.57	41621.75
637.72	41287.05
637.87	41132.57
638.02	41340.88
638.17	40935.97
638.32	40903.20
638.46	41111.51
638.61	41088.10
638.76	40818.94
638.91	41153.64
639.06	40687.87
639.20	41174.70
639.35	40989.80
639.50	40982.78
639.65	41265.99
639.80	41055.34
639.94	40430.41
640.09	41081.08
640.24	41062.36
640.39	40620.00
640.54	40507.65
640.68	40495.95
640.83	40509.99
640.98	40783.83
641.13	40444.46
641.27	40388.28
641.42	40446.80
641.57	39927.20
641.72	40519.35
641.86	40643.40
642.01	40076.99
642.16	40383.60
642.31	40233.81
642.45	39775.06
642.60	39903.79
642.75	39878.05
642.90	40086.36
643.04	40573.19
643.19	39796.13
643.34	40023.16
643.48	40067.63
643.63	40385.94
643.78	39938.90
643.93	39945.92
644.07	40039.54
644.22	39849.96
644.37	39707.19
644.51	40313.39
644.66	39590.16
644.81	40175.30
644.95	40313.39
645.10	39798.47
645.25	39821.87
645.39	39742.30
645.54	39728.25
645.69	39452.07
645.83	39412.28
645.98	39934.22
646.13	39962.31
646.27	39545.69
646.42	39552.71
646.57	39297.59
646.71	39508.24
646.86	39281.21
647.00	39690.80
647.15	39812.51
647.30	39484.84
647.44	39058.86
647.59	39356.11
647.74	39302.28
647.88	39367.81
648.03	39585.48
648.17	39580.80
648.32	39117.37
648.47	39009.71
648.61	39306.96
648.76	39262.49
648.90	39208.65
649.05	39103.33
649.20	38969.92
649.34	38969.92
649.49	39187.59
649.63	38653.95
649.78	38972.26
649.92	38497.13
650.07	38937.15
650.21	38836.51
650.36	38948.85
650.51	38679.69
650.65	38976.94
650.80	39423.98
650.94	39171.21
651.09	38656.29
651.23	38958.22
651.38	38618.84
651.52	38337.98
651.67	38834.17
651.81	38607.14
651.96	38352.02
652.10	38749.91
652.25	38555.64
652.39	38600.12
652.54	38066.47
652.68	38408.19
652.83	38462.02
652.97	38356.70
653.12	38120.31
653.26	38527.56
653.41	38094.56
653.55	37914.34
653.70	37773.91
653.84	38071.15
653.99	37998.60
654.13	38136.69
654.27	38162.43
654.42	37642.84
654.56	37539.85
654.71	38108.60
654.85	38061.79
655.00	38101.58
655.14	37731.78
655.29	37453.25
655.43	37549.21
655.57	37633.47
655.72	37551.56
655.86	37427.51
656.01	37296.44
656.15	37385.38
656.30	37184.09
656.44	37675.60
656.58	37387.72
656.73	37186.43
656.87	37373.67
657.01	37354.95
657.16	37975.19
657.30	37418.14
657.45	37195.79
657.59	37673.26
657.73	37289.42
657.88	37565.60
658.02	37570.28
658.16	37888.59
658.31	37647.52
658.45	37310.48
658.60	37364.31
658.74	37226.22
658.88	37383.04
659.03	37378.36
659.17	36891.52
659.31	37223.88
659.46	37598.37
659.60	37219.20
659.74	36856.42
659.89	36989.83
660.03	36437.46
660.17	36943.02
660.32	36776.84
660.46	36935.99
660.60	36718.32
660.74	36582.57
660.89	36641.09
661.03	36453.84
661.17	36371.92
661.32	36074.68
661.46	36629.38
661.60	36315.75
661.74	36107.44
661.89	36428.10
662.03	36364.90
662.17	35842.96
662.31	35868.71
662.46	36554.49
662.60	36676.19
662.74	35861.69
662.88	35943.61
663.03	35840.62
663.17	35735.30
663.31	35548.06
663.45	36311.07
663.60	35416.99
663.74	35314.00
663.88	35845.30
664.02	35747.00
664.17	35660.40
664.31	35505.93
664.45	35505.93
664.59	35215.70
664.73	35363.15
664.88	35255.49
665.02	35061.22
665.16	35021.44
665.30	35185.27
665.44	35166.55
665.59	34548.65
665.73	34646.95
665.87	34838.87
666.01	35370.18
666.15	34714.83
666.29	34913.77
666.44	34794.40
666.58	34675.04
666.72	34726.53
666.86	34373.11
667.00	34450.35
667.14	33972.88
667.28	34728.87
667.43	34003.30
667.57	34284.17
667.71	34139.05
667.85	34419.92
667.99	34024.37
668.13	34078.20
668.27	34459.71
668.41	34295.87
668.56	33907.34
668.70	34352.04
668.84	33792.65
668.98	33572.64
669.12	33537.54
669.26	33514.13
669.40	33074.11
669.54	33589.03
669.68	33216.88
669.82	32982.83
669.96	32875.16
670.10	32833.04
670.25	33134.96
670.39	32882.19
670.53	32980.49
670.67	33226.24
670.81	32884.53
670.95	33420.51
671.09	33067.09
671.23	32872.82
671.37	32975.81
671.51	32758.14
671.65	32526.42
671.79	32336.84
671.93	32547.49
672.07	32898.57
672.21	32500.68
672.35	32589.62
672.49	32395.35
672.63	32327.48
672.77	31934.27
672.91	32191.73
673.05	32175.34
673.19	32130.87
673.33	32133.21
673.47	31477.86
673.61	31814.90
673.75	31545.74
673.89	31461.48
674.03	31728.30
674.17	31175.94
674.31	31527.02
674.45	31594.89
674.59	31580.85
674.73	31850.01
674.87	31433.39
675.01	31339.77
675.15	31218.07
675.29	31269.56
675.43	31192.32
675.56	30749.96
675.70	30511.22
675.84	30705.49
675.98	29883.96
676.12	30483.14
676.26	30852.94
676.40	30441.01
676.54	30682.08
676.68	30625.91
676.82	29890.98
676.96	30352.07
677.10	30176.53
677.23	30143.76
677.37	30094.61
677.51	29663.95
677.65	29488.41
677.79	29226.27
677.93	29738.85
678.07	29355.00
678.21	29017.96
678.34	28891.57
678.48	28744.12
678.62	28861.15
678.76	28329.84
678.90	28690.29
679.04	28699.65
679.18	28350.91
679.31	28308.78
679.45	28208.14
679.59	28041.96
679.73	28091.11
679.87	28074.73
680.00	27969.40
680.14	28027.92
680.28	27758.75
680.42	27798.54
680.56	28004.51
680.70	27641.73
680.83	27910.89
680.97	27477.89
681.11	27033.19
681.25	27290.65
681.39	27101.06
681.52	27236.81
681.66	27215.75
681.80	27204.05
681.94	27002.76
682.07	27040.21
682.21	26663.38
682.35	26295.92
682.49	26639.98
682.62	26394.22
682.76	26106.34
682.90	26431.67
683.04	26450.39
683.17	25872.28
683.31	25975.27
683.45	26143.78
683.59	25926.11
683.72	25596.10
683.86	25687.38
684.00	26019.74
684.13	25701.42
684.27	25355.02
684.41	25432.26
684.55	25097.56
684.68	25010.96
684.82	25233.32
684.96	25186.50
685.09	25331.62
685.23	24648.18
685.37	24819.04
685.50	24580.31
685.64	24573.28
685.78	24266.67
685.91	24264.33
686.05	24119.22
686.19	24039.64
686.32	23885.17
686.46	23639.41
686.60	23311.74
686.73	23489.62
686.87	23103.43
687.01	23140.88
687.14	23316.42
687.28	23115.13
687.42	23194.71
687.55	23314.08
687.69	23337.48
687.82	23030.87
687.96	23218.11
688.10	23021.51
688.23	22923.21
688.37	22691.49
688.50	22656.39
688.64	22459.78
688.78	22518.29
688.91	22211.68
689.05	22604.89
689.18	22588.51
689.32	22125.08
689.46	22015.08
689.59	22199.98
689.73	22214.02
689.86	22061.89
690.00	21563.36
690.13	22089.98
690.27	21853.58
690.41	21504.84
690.54	21376.11
690.68	21266.11
690.81	21734.21
690.95	21259.09
691.08	21277.81
691.22	21008.65
691.35	21123.33
691.49	21436.97
691.62	20973.54
691.76	20943.11
691.89	20798.00
692.03	20561.61
692.16	21006.31
692.30	20648.21
692.43	20173.08
692.57	20063.07
692.70	20336.91
692.84	20386.07
692.97	20159.03
693.11	19838.38
693.24	19903.92
693.38	19939.02
693.51	19693.27
693.65	19660.50
693.78	19714.33
693.92	19494.32
694.05	19765.82
694.19	19414.74
694.32	19424.11
694.45	19075.37
694.59	18862.38
694.72	18705.56
694.86	18838.97
694.99	18740.67
695.13	18843.65
695.26	19016.85
695.39	18848.33
695.53	19054.30
695.66	18553.43
695.80	18532.36
695.93	18452.78
696.07	18368.52
696.20	18310.01
696.33	18216.39
696.47	18359.16
696.60	18092.34
696.73	18038.51
696.87	18061.91
697.00	17994.04
697.14	17820.84
697.27	17841.90
697.40	18015.10
697.54	17413.59
697.67	17317.62
697.80	17350.39
697.94	17401.88
698.07	17043.78
698.21	17029.74
698.34	17053.14
698.47	16748.87
698.61	16821.43
698.74	16580.36
698.87	16519.50
699.01	16334.60
699.14	16446.94
699.27	16372.05
699.40	16444.60
699.54	16161.40
699.67	16479.71
699.80	16208.21
699.94	16135.65
700.07	16109.91
700.20	15920.32
700.34	16095.86
700.47	16243.32
700.60	15868.83
700.73	16170.76
700.87	15793.94
701.00	15688.61
701.13	15426.47
701.26	15318.81
701.40	15630.10
701.53	15398.38
701.66	15431.15
701.79	15300.08
701.93	15124.54
702.06	14820.27
702.19	15161.99
702.32	14810.91
702.46	14862.40
702.59	14736.01
702.72	14759.42
702.85	14778.14
702.99	14822.61
703.12	14778.14
703.25	14518.34
703.38	14218.75
703.51	14298.33
703.65	14237.48
703.78	14225.78
703.91	14239.82
704.04	14141.52
704.17	14150.88
704.31	13916.83
704.44	14244.50
704.57	13970.66
704.70	13778.73
704.83	13832.57
704.96	13757.67
705.10	13734.26
705.23	13467.44
>>>>>End Processed Spectral Data<<<<<
