SpectraSuite Data File
++++++++++++++++++++++++++++++++++++
Date: Fri Oct 25 10:48:12 EDT 2013
User: price-jones
Dark Spectrum Present: No
Reference Spectrum Present: No
Number of Sampled Component Spectra: 1
Spectrometers: USB2+H05261
Integration Time (usec): 100000 (USB2+H05261)
Spectra Averaged: 1 (USB2+H05261)
Boxcar Smoothing: 0 (USB2+H05261)
Correct for Electrical Dark: No (USB2+H05261)
Strobe/Lamp Enabled: No (USB2+H05261)
Correct for Detector Non-linearity: No (USB2+H05261)
Correct for Stray Light: No (USB2+H05261)
Number of Pixels in Processed Spectrum: 2048
>>>>>Begin Processed Spectral Data<<<<<
365.73	182.56
365.92	182.56
366.12	182.56
366.32	16.38
366.52	51.49
366.72	72.56
366.91	0.00
367.11	0.00
367.31	67.88
367.51	42.13
367.70	65.54
367.90	0.00
368.10	35.11
368.30	46.81
368.49	18.72
368.69	21.06
368.89	0.00
369.09	65.54
369.28	105.32
369.48	35.11
369.68	145.11
369.87	72.56
370.07	126.39
370.27	163.84
370.47	117.03
370.66	341.72
370.86	383.85
371.06	482.15
371.25	500.87
371.45	435.34
371.65	386.19
371.84	409.59
372.04	503.22
372.24	444.70
372.44	454.06
372.63	531.30
372.83	442.36
373.03	484.49
373.22	535.98
373.42	528.96
373.62	547.69
373.81	561.73
374.01	514.92
374.21	608.54
374.40	521.94
374.60	613.22
374.79	503.22
374.99	484.49
375.19	531.30
375.38	580.45
375.58	599.18
375.78	622.58
375.97	521.94
376.17	617.90
376.37	514.92
376.56	620.24
376.76	582.79
376.95	585.13
377.15	655.35
377.35	559.39
377.54	582.79
377.74	638.97
377.93	622.58
378.13	603.86
378.33	669.39
378.52	580.45
378.72	650.67
378.91	674.07
379.11	660.03
379.31	610.88
379.50	653.01
379.70	603.86
379.89	650.67
380.09	683.44
380.28	739.61
380.48	636.63
380.68	653.01
380.87	645.99
381.07	662.37
381.26	683.44
381.46	685.78
381.65	770.04
381.85	704.50
382.04	657.69
382.24	676.41
382.43	648.33
382.63	737.27
382.83	697.48
383.02	807.48
383.22	718.54
383.41	706.84
383.61	674.07
383.80	739.61
384.00	711.52
384.19	716.20
384.39	777.06
384.58	699.82
384.78	737.27
384.97	758.33
385.17	744.29
385.36	734.93
385.56	826.21
385.75	744.29
385.95	807.48
386.14	849.61
386.34	816.85
386.53	725.57
386.72	730.25
386.92	805.14
387.11	807.48
387.31	730.25
387.50	870.68
387.70	763.01
387.89	828.55
388.09	807.48
388.28	833.23
388.48	884.72
388.67	849.61
388.86	875.36
389.06	877.70
389.25	973.66
389.45	800.46
389.64	943.24
389.84	945.58
390.03	952.60
390.22	933.87
390.42	966.64
390.61	936.21
390.81	954.94
391.00	929.19
391.19	980.68
391.39	954.94
391.58	990.05
391.78	1001.75
391.97	1090.69
392.16	1001.75
392.36	1048.56
392.55	1029.84
392.75	1015.79
392.94	931.53
393.13	943.24
393.33	971.32
393.52	1041.54
393.71	908.13
393.91	1074.31
394.10	1064.94
394.29	1048.56
394.49	1093.03
394.68	1090.69
394.88	1090.69
395.07	1097.71
395.26	1109.41
395.46	1184.31
395.65	1193.67
395.84	1219.42
396.04	1179.63
396.23	1125.80
396.42	1109.41
396.62	1146.86
396.81	1163.25
397.00	1163.25
397.19	1184.31
397.39	1198.35
397.58	1277.93
397.77	1280.27
397.97	1256.87
398.16	1254.53
398.35	1324.74
398.55	1263.89
398.74	1394.96
398.93	1336.45
399.12	1294.32
399.32	1348.15
399.51	1320.06
399.70	1420.71
399.90	1409.00
400.09	1413.68
400.28	1490.92
400.47	1401.98
400.67	1521.35
400.86	1486.24
401.05	1432.41
401.24	1474.54
401.44	1504.96
401.63	1549.43
401.82	1392.62
402.01	1523.69
402.21	1490.92
402.40	1544.75
402.59	1568.16
402.78	1589.22
402.97	1680.50
403.17	1593.90
403.36	1526.03
403.55	1563.48
403.74	1603.27
403.93	1629.01
404.13	1654.76
404.32	1743.70
404.51	1671.14
404.70	1816.26
404.89	1666.46
405.09	1722.63
405.28	1687.53
405.47	1762.42
405.66	1802.21
405.85	1839.66
406.05	1776.47
406.24	1746.04
406.43	1872.43
406.62	1849.02
406.81	1977.75
407.00	1842.00
407.20	1813.92
407.39	1905.20
407.58	1914.56
407.77	1952.01
407.96	2003.50
408.15	1977.75
408.34	1984.77
408.54	2017.54
408.73	2050.31
408.92	1947.33
409.11	1975.41
409.30	2043.29
409.49	2005.84
409.68	2090.10
409.87	2003.50
410.07	1966.05
410.26	2050.31
410.45	2167.34
410.64	2108.82
410.83	2253.94
411.02	2279.68
411.21	2333.51
411.40	2239.89
411.59	2380.32
411.78	2359.26
411.98	2284.36
412.17	2377.98
412.36	2455.22
412.55	2469.27
412.74	2359.26
412.93	2516.08
413.12	2502.03
413.31	2581.61
413.50	2410.75
413.69	2595.65
413.88	2562.89
414.07	2595.65
414.26	2614.38
414.45	2637.78
414.64	2642.46
414.83	2740.77
415.02	2626.08
415.22	2834.39
415.41	2768.85
415.60	2815.66
415.79	2801.62
415.98	2902.26
416.17	2841.41
416.36	2895.24
416.55	2843.75
416.74	2895.24
416.93	3035.67
417.12	2981.84
417.31	3005.25
417.50	3101.21
417.69	3035.67
417.88	3152.70
418.07	3054.40
418.26	3059.08
418.45	3297.81
418.64	3185.47
418.83	3138.66
419.02	3101.21
419.21	3265.05
419.39	3166.74
419.58	3115.25
419.77	3265.05
419.96	3211.22
420.15	3419.52
420.34	3358.67
420.53	3342.28
420.72	3286.11
420.91	3428.88
421.10	3361.01
421.29	3459.31
421.48	3424.20
421.67	3471.01
421.86	3417.18
422.05	3487.40
422.24	3353.99
422.43	3344.63
422.61	3431.23
422.80	3648.90
422.99	3574.00
423.18	3590.38
423.37	3494.42
423.56	3463.99
423.75	3545.91
423.94	3496.76
424.13	3328.24
424.32	3405.48
424.50	3588.04
424.69	3707.41
424.88	3672.30
425.07	3569.32
425.26	3485.06
425.45	3503.78
425.64	3716.77
425.83	3552.93
426.01	3688.68
426.20	3674.64
426.39	3676.98
426.58	3576.34
426.77	3555.27
426.96	3588.04
427.15	3606.77
427.33	3623.15
427.52	3712.09
427.71	3702.73
427.90	3878.27
428.09	3775.28
428.28	3758.90
428.46	3875.93
428.65	3744.86
428.84	3929.76
429.03	4004.66
429.22	3751.88
429.40	3815.07
429.59	3829.12
429.78	3620.81
429.97	3712.09
430.16	3709.75
430.34	3955.51
430.53	3911.04
430.72	3794.01
430.91	3896.99
431.10	3981.25
431.28	3920.40
431.47	4184.88
431.66	4168.49
431.85	4147.43
432.03	4198.92
432.22	4234.03
432.41	4131.05
432.60	4191.90
432.79	4198.92
432.97	4306.59
433.16	4187.22
433.35	4227.01
433.54	4290.20
433.72	4341.69
433.91	4271.48
434.10	4482.13
434.28	4404.89
434.47	4512.55
434.66	4547.66
434.85	4552.34
435.03	4603.83
435.22	4482.13
435.41	4648.30
435.59	4571.07
435.78	4592.13
435.97	4727.88
436.16	4638.94
436.34	4594.47
436.53	4681.07
436.72	4678.73
436.90	4697.46
437.09	4641.28
437.28	4627.24
437.46	4755.97
437.65	4690.43
437.84	4716.18
438.02	4741.93
438.21	4657.67
438.40	4697.46
438.58	4767.67
438.77	4931.51
438.96	4950.23
439.14	5022.79
439.33	5165.56
439.52	5111.73
439.70	4966.62
439.89	5104.71
440.08	5378.55
440.26	5064.92
440.45	5284.93
440.63	5219.39
440.82	5366.85
441.01	5277.91
441.19	5423.02
441.38	5352.81
441.57	5605.58
441.75	5476.85
441.94	5645.37
442.12	5748.36
442.31	5790.49
442.50	5741.33
442.68	5729.63
442.87	5753.04
443.05	5753.04
443.24	5867.72
443.43	5617.29
443.61	5937.94
443.80	5767.08
443.98	5558.77
444.17	5621.97
444.35	5912.19
444.54	6008.16
444.73	5926.24
444.91	5966.03
445.10	5905.17
445.28	5692.18
445.47	5792.83
445.65	6022.20
445.84	5989.43
446.02	5926.24
446.21	5954.32
446.39	5905.17
446.58	5933.26
446.77	5940.28
446.95	5865.38
447.14	5949.64
447.32	6047.94
447.51	6143.91
447.69	6005.81
447.88	6066.67
448.06	6211.78
448.25	5996.45
448.43	6218.80
448.62	6033.90
448.80	5930.92
448.99	6064.33
449.17	6296.04
449.36	6328.81
449.54	6174.33
449.73	6284.34
449.91	6296.04
450.10	6300.72
450.28	6392.00
450.46	6256.25
450.65	6553.50
450.83	6415.41
451.02	6382.64
451.20	6544.14
451.39	6520.73
451.57	6464.56
451.76	6612.01
451.94	6614.35
452.13	6595.63
452.31	6422.43
452.49	6399.02
452.68	6502.01
452.86	6586.27
453.05	6651.80
453.23	6548.82
453.42	6539.46
453.60	6569.88
453.78	6640.10
453.97	6822.66
454.15	6780.53
454.34	6523.07
454.52	6869.47
454.70	6731.38
454.89	6796.92
455.07	6960.75
455.26	6857.77
455.44	6869.47
455.62	7040.33
455.81	6855.43
455.99	6874.15
456.17	6953.73
456.36	7094.16
456.54	7157.36
456.73	7145.66
456.91	7288.43
457.09	7232.26
457.28	7344.60
457.46	7180.76
457.64	7468.65
457.83	7255.66
458.01	7211.19
458.19	7463.97
458.38	7368.01
458.56	7405.46
458.74	7571.63
458.93	7372.69
459.11	7541.21
459.29	7463.97
459.48	7564.61
459.66	7576.31
459.84	7578.65
460.03	7763.56
460.21	7709.72
460.39	7810.37
460.57	7662.91
460.76	7815.05
460.94	7850.16
461.12	7768.24
461.31	7826.75
461.49	7915.69
461.67	7857.18
461.85	8063.15
462.04	7899.31
462.22	8348.69
462.40	8098.25
462.59	7960.16
462.77	8053.78
462.95	8011.65
463.13	7957.82
463.32	8042.08
463.50	7978.89
463.68	8248.05
463.86	8025.70
464.05	7880.58
464.23	8095.91
464.41	8234.00
464.59	8194.22
464.78	8311.24
464.96	8238.69
465.14	7992.93
465.32	8493.80
465.50	8255.07
465.69	8599.13
465.87	8582.74
466.05	8402.52
466.23	8140.38
466.41	8365.07
466.60	8498.49
466.78	8306.56
466.96	8341.67
467.14	8444.65
467.32	8507.85
467.51	8767.65
467.69	8348.69
467.87	8638.92
468.05	8786.37
468.23	8601.47
468.41	8486.78
468.60	8631.90
468.78	8809.78
468.96	8786.37
469.14	8762.97
469.32	8924.46
469.50	8669.34
469.69	8802.75
469.87	8982.98
470.05	9088.30
470.23	9100.00
470.41	8966.59
470.59	9121.07
470.77	8992.34
470.95	8982.98
471.14	9130.43
471.32	9226.39
471.50	9369.16
471.68	9261.50
471.86	9310.65
472.04	9224.05
472.22	9673.43
472.40	9310.65
472.58	9310.65
472.77	9523.64
472.95	9645.35
473.13	9804.50
473.31	9678.12
473.49	9497.89
473.67	9521.30
473.85	9797.48
474.03	9750.67
474.21	9961.32
474.39	10012.81
474.57	9987.07
474.75	10040.90
474.93	10134.52
475.12	10129.84
475.30	10244.52
475.48	10284.31
475.66	10326.44
475.84	10516.03
476.02	10565.18
476.20	10553.48
476.38	10754.76
476.56	10792.21
476.74	10878.81
476.92	10895.19
477.10	10747.74
477.28	10998.18
477.46	11131.59
477.64	10911.58
477.82	11234.57
478.00	11552.88
478.18	11384.37
478.36	11463.94
478.54	11419.47
478.72	11531.82
478.90	11868.86
479.08	11833.75
479.26	11880.56
479.44	11882.90
479.62	12039.72
479.80	11775.24
479.98	12217.60
480.16	12449.31
480.34	12353.35
480.52	12353.35
480.70	12659.96
480.88	12589.74
481.06	12849.54
481.24	12683.36
481.41	13121.04
481.59	13282.54
481.77	13296.58
481.95	13163.17
482.13	13188.92
482.31	13202.96
482.49	13591.49
482.67	13455.74
482.85	13350.42
483.03	13556.38
483.21	13846.61
483.39	13970.66
483.57	14401.32
483.74	14164.92
483.92	14335.78
484.10	14197.69
484.28	14497.28
484.46	14656.43
484.64	14998.15
484.82	14604.94
485.00	14909.21
485.18	14988.79
485.35	15206.46
485.53	15066.03
485.71	15208.80
485.89	15159.65
486.07	15283.70
486.25	15391.36
486.43	15779.89
486.61	15613.71
486.78	16145.02
486.96	16126.29
487.14	16271.40
487.32	16465.67
487.50	16542.91
487.68	16657.59
487.85	16877.60
488.03	16929.09
488.21	17345.71
488.39	17151.45
488.57	17177.19
488.75	17462.74
488.92	17530.61
489.10	17724.88
489.28	17748.28
489.46	18012.76
489.64	17776.37
489.81	18359.16
489.99	18249.16
490.17	18497.25
490.35	18728.97
490.53	18890.46
490.70	18956.00
490.88	18799.18
491.06	19407.72
491.24	19007.49
491.41	19136.22
491.59	19487.30
491.77	19283.67
491.95	19592.62
492.13	19548.15
492.30	19953.07
492.48	19793.91
492.66	20180.10
492.84	20170.74
493.01	20608.42
493.19	20081.80
493.37	20484.37
493.54	20755.87
493.72	20746.51
493.90	20779.28
494.08	20776.94
494.25	21102.27
494.43	21434.63
494.61	21558.67
494.79	21584.42
494.96	21336.32
495.14	21479.10
495.32	21839.54
495.49	21846.56
495.67	22045.51
495.85	22008.06
496.02	22202.32
496.20	22494.89
496.38	22185.94
496.55	22888.10
496.73	22796.82
496.91	22857.67
497.09	22876.40
497.26	22876.40
497.44	23232.16
497.62	23274.29
497.79	23590.26
497.97	23234.50
498.14	23363.23
498.32	23410.04
498.50	23608.98
498.67	23864.10
498.85	24208.16
499.03	24182.42
499.20	24346.25
499.38	24584.99
499.56	24599.03
499.73	24432.85
499.91	24285.40
500.08	24517.11
500.26	24489.03
500.44	24755.85
500.61	24809.68
500.79	24402.43
500.97	24957.13
501.14	25123.31
501.32	25432.26
501.49	25092.88
501.67	25223.95
501.84	25624.18
502.02	25329.28
502.20	25408.86
502.37	25900.37
502.55	25448.64
502.72	26075.91
502.90	26099.31
503.07	26040.80
503.25	26270.17
503.43	25965.90
503.60	26450.39
503.78	26263.15
503.95	26462.10
504.13	26307.62
504.30	26651.68
504.48	26445.71
504.65	26785.09
504.83	26984.04
505.01	27009.78
505.18	27072.98
505.36	27585.55
505.53	27494.27
505.71	27454.48
505.88	27667.47
506.06	27470.87
506.23	27372.57
506.41	27428.74
506.58	27812.59
506.76	27828.97
506.93	27880.46
507.11	27896.85
507.28	27601.94
507.46	27910.89
507.63	27943.66
507.81	28236.22
507.98	28079.41
508.16	28215.16
508.33	28575.60
508.50	28624.75
508.68	28587.30
508.85	28837.74
509.03	29214.57
509.20	29123.29
509.38	29453.30
509.55	29132.65
509.73	29259.04
509.90	29069.45
510.08	29324.57
510.25	29338.62
510.42	29549.26
510.60	29516.50
510.77	29567.99
510.95	30000.99
511.12	29837.15
511.30	29961.20
511.47	30249.08
511.64	29968.22
511.82	30345.05
511.99	30235.04
512.17	30251.42
512.34	29848.85
512.51	30387.18
512.69	30583.78
512.86	30382.49
513.04	31213.38
513.21	30958.27
513.38	30951.24
513.56	31035.50
513.73	30904.43
513.90	30962.95
514.08	31007.42
514.25	30848.26
514.43	30883.37
514.60	31154.87
514.77	31405.31
514.95	31384.24
515.12	31484.89
515.29	31732.98
515.47	31915.54
515.64	32187.05
515.81	31924.91
515.99	32006.83
516.16	31943.63
516.33	31599.57
516.51	32119.17
516.68	31601.91
516.85	31927.25
517.03	31964.70
517.20	31988.10
517.37	32313.44
517.54	32790.91
517.72	32222.16
517.89	31941.29
518.06	32320.46
518.24	32201.09
518.41	32315.78
518.58	32402.38
518.75	32601.32
518.93	32940.70
519.10	33099.86
519.27	33031.98
519.45	33006.23
519.62	33127.94
519.79	33134.96
519.96	33511.79
520.14	32898.57
520.31	33354.97
520.48	33387.74
520.65	33046.02
520.83	33825.42
521.00	34155.44
521.17	33837.12
521.34	33755.21
521.52	33986.92
521.69	34328.64
521.86	34127.35
522.03	34347.36
522.20	34288.85
522.38	34607.16
522.55	34384.81
522.72	34272.46
522.89	34855.26
523.07	34415.24
523.24	34239.70
523.41	34974.63
523.58	34583.76
523.75	34782.70
523.92	35218.04
524.10	35138.46
524.27	35122.08
524.44	35414.65
524.61	35309.32
524.78	35105.70
524.96	35496.56
525.13	35529.33
525.30	35564.44
525.47	35402.94
525.64	36006.80
525.81	35541.03
525.98	35487.20
526.16	35541.03
526.33	35735.30
526.50	35922.54
526.67	35512.95
526.84	35618.27
527.01	35791.47
527.18	36077.02
527.36	36067.66
527.53	36311.07
527.70	36760.45
527.87	36205.75
528.04	36282.98
528.21	36163.62
528.38	36212.77
528.55	36474.91
528.72	36231.49
528.89	36718.32
529.07	36444.48
529.24	36381.29
529.41	36493.63
529.58	36577.89
529.75	36687.90
529.92	36891.52
530.09	36912.59
530.26	36907.91
530.43	36835.35
530.60	36959.40
530.77	37160.69
530.94	37261.33
531.11	37357.29
531.28	37226.22
531.46	37528.15
531.63	37567.94
531.80	37359.63
531.97	37453.25
532.14	37130.26
532.31	37567.94
532.48	37715.39
532.65	37844.12
532.82	37677.94
532.99	37900.29
533.16	37691.99
533.33	38197.54
533.50	37876.89
533.67	38115.62
533.84	37752.84
534.01	38337.98
534.18	38000.94
534.35	38272.44
534.52	37879.23
534.69	38211.59
534.86	38066.47
535.03	38026.68
535.20	38586.07
535.37	38614.16
535.54	38974.60
535.71	38487.77
535.88	38529.90
536.05	38639.90
536.22	38667.99
536.38	38717.14
536.55	38803.74
536.72	38497.13
536.89	38642.24
537.06	38665.65
537.23	38873.96
537.40	38705.44
537.57	38567.35
537.74	38979.28
537.91	39236.74
538.08	38967.58
538.25	38712.46
538.42	38909.07
538.59	39777.40
538.75	38951.20
538.92	39257.81
539.09	39290.57
539.26	39344.41
539.43	39234.40
539.60	39990.39
539.77	39566.76
539.94	39674.42
540.11	39463.77
540.28	39555.05
540.44	39463.77
540.61	39379.51
540.78	39508.24
540.95	39538.67
541.12	39529.31
541.29	39618.25
541.46	39498.88
541.62	39683.78
541.79	39896.77
541.96	39573.78
542.13	39665.06
542.30	40357.86
542.47	40098.06
542.63	40149.55
542.80	40339.13
542.97	40617.66
543.14	40617.66
543.31	40428.07
543.48	40800.22
543.64	40900.86
543.81	40945.33
543.98	40708.94
544.15	40493.61
544.32	40673.83
544.48	40933.63
544.65	41324.50
544.82	40638.72
544.99	40545.10
545.16	40865.75
545.32	41031.93
545.49	41188.75
545.66	40795.54
545.83	41289.39
546.00	41659.20
546.16	41092.79
546.33	41205.13
546.50	40947.67
546.67	41074.06
546.83	41139.60
547.00	41394.71
547.17	41282.37
547.34	41326.84
547.50	41565.57
547.67	41626.43
547.84	41525.78
548.00	41628.77
548.17	41811.33
548.34	41755.16
548.51	41928.36
548.67	41862.82
548.84	41755.16
549.01	41731.75
549.18	41624.09
549.34	42197.52
549.51	41509.40
549.68	41837.08
549.84	42288.80
550.01	42110.92
550.18	41837.08
550.34	42080.49
550.51	42014.96
550.68	41790.27
550.84	41729.41
551.01	42220.92
551.18	42239.65
551.34	42120.28
551.51	42487.74
551.68	42309.86
551.84	42270.08
552.01	41785.58
552.18	42302.84
552.34	42124.96
552.51	42445.62
552.68	42649.24
552.84	42410.51
553.01	42691.37
553.18	42733.50
553.34	42380.08
553.51	42321.57
553.67	42742.86
553.84	42953.51
554.01	42895.00
554.17	42813.08
554.34	42990.96
554.51	43234.38
554.67	43243.74
554.84	43136.07
555.00	42864.57
555.17	43126.71
555.33	42733.50
555.50	43171.18
555.67	43084.58
555.83	43126.71
556.00	43419.28
556.16	43639.29
556.33	43047.13
556.50	43349.06
556.66	43402.89
556.83	43255.44
556.99	43229.69
557.16	43700.14
557.32	43234.38
557.49	43510.56
557.65	42880.95
557.82	43248.42
557.98	43154.80
558.15	43466.09
558.32	43164.16
558.48	43491.83
558.65	43311.61
558.81	43377.15
558.98	43587.80
559.14	43278.85
559.31	43641.63
559.47	43576.09
559.64	44076.97
559.80	43789.08
559.97	43374.81
560.13	43274.16
560.30	43620.56
560.46	43672.06
560.63	43491.83
560.79	43899.09
560.96	43751.63
561.12	43847.60
561.29	43786.74
561.45	43758.66
561.61	43936.54
561.78	43681.42
561.94	44004.41
562.11	43753.97
562.27	43620.56
562.44	44006.75
562.60	44079.31
562.77	44163.57
562.93	43981.01
563.10	43936.54
563.26	43536.30
563.42	44201.02
563.59	43936.54
563.75	44069.95
563.92	43868.66
564.08	43772.70
564.24	44250.17
564.41	43899.09
564.57	44240.81
564.74	44233.78
564.90	43950.58
565.07	44081.65
565.23	44245.49
565.39	44388.26
565.56	44163.57
565.72	43700.14
565.88	43852.28
566.05	44322.72
566.21	43924.83
566.38	43962.28
566.54	43985.69
566.70	44205.70
566.87	44659.76
567.03	44142.50
567.19	43969.30
567.36	44397.62
567.52	43981.01
567.68	44839.98
567.85	44170.59
568.01	44149.53
568.17	44437.41
568.34	43952.92
568.50	44184.63
568.66	44301.66
568.83	44554.44
568.99	44271.23
569.15	43824.19
569.32	44268.89
569.48	44355.49
569.64	44818.92
569.81	44762.75
569.97	44350.81
570.13	44095.69
570.30	44282.94
570.46	44273.57
570.62	44318.04
570.78	43983.35
570.95	44414.01
571.11	44502.95
571.27	44409.32
571.43	44587.21
571.60	44516.99
571.76	44655.08
571.92	44091.01
572.09	44486.56
572.25	44479.54
572.41	44720.62
572.57	44573.16
572.74	45167.66
572.90	44769.77
573.06	44598.91
573.22	44776.79
573.38	44648.06
573.55	44779.13
573.71	44797.85
573.87	43917.81
574.03	44474.86
574.20	44612.95
574.36	44732.32
574.52	44421.03
574.68	44641.04
574.84	44811.90
575.01	44554.44
575.17	44758.06
575.33	44659.76
575.49	44786.15
575.65	44746.36
575.82	44865.73
575.98	44582.52
576.14	45216.81
576.30	44694.87
576.46	44011.43
576.62	44451.45
576.79	44772.11
576.95	44378.90
577.11	44612.95
577.27	44861.05
577.43	44376.56
577.59	44535.71
577.75	44849.35
577.92	44273.57
578.08	44142.50
578.24	44533.37
578.40	44552.10
578.56	44706.57
578.72	44804.88
578.88	45113.83
579.04	44694.87
579.21	44458.48
579.37	44339.11
579.53	44753.38
579.69	44470.18
579.85	44554.44
580.01	44514.65
580.17	44947.65
580.33	45188.72
580.49	44662.10
580.65	45088.08
580.82	44753.38
580.98	44961.69
581.14	44479.54
581.30	44711.25
581.46	44727.64
581.62	44839.98
581.78	44851.69
581.94	45301.07
582.10	44636.36
582.26	44884.45
582.42	45027.23
582.58	44938.29
582.74	44545.08
582.90	44624.65
583.06	44683.17
583.22	44968.71
583.38	45240.21
583.54	44720.62
583.70	44795.51
583.86	44549.76
584.02	44643.38
584.18	45120.85
584.34	44507.63
584.50	45193.40
584.66	44910.20
584.82	44575.50
584.98	44973.39
585.14	45022.54
585.30	44744.02
585.46	44699.55
585.62	44699.55
585.78	44971.05
585.94	44402.30
586.10	44788.49
586.26	44669.12
586.42	44999.14
586.58	45092.76
586.74	44758.06
586.90	44879.77
587.06	44439.75
587.22	45109.14
587.38	44814.24
587.54	45041.27
587.70	45059.99
587.86	45006.16
588.02	44793.17
588.18	44814.24
588.34	44786.15
588.49	44369.54
588.65	44634.02
588.81	44722.96
588.97	44509.97
589.13	44699.55
589.29	44643.38
589.45	44931.26
589.61	44921.90
589.77	45511.72
589.93	44729.98
590.08	45144.25
590.24	44821.26
590.40	45446.18
590.56	45378.31
590.72	45139.57
590.88	44917.22
591.04	44854.03
591.20	44961.69
591.35	45116.17
591.51	45521.08
591.67	45109.14
591.83	45134.89
591.99	45013.18
592.15	45017.86
592.31	45165.32
592.46	45158.30
592.62	45315.11
592.78	45296.39
592.94	45308.09
593.10	45261.28
593.26	45333.84
593.41	45052.97
593.57	45495.33
593.73	45549.17
593.89	44978.07
594.05	44795.51
594.20	45148.93
594.36	45432.14
594.52	45081.06
594.68	45139.57
594.84	44863.39
594.99	45387.67
595.15	45254.26
595.31	45031.91
595.47	45172.34
595.62	45603.00
595.78	45270.64
595.94	45797.26
596.10	45287.03
596.25	45670.87
596.41	45303.41
596.57	45106.80
596.73	45310.43
596.88	45067.02
597.04	45574.91
597.20	45502.35
597.36	44966.37
597.51	45830.03
597.67	44942.97
597.83	45542.14
597.99	45605.34
598.14	44868.07
598.30	45116.17
598.46	45043.61
598.61	45514.06
598.77	45160.64
598.93	45024.89
599.09	45242.56
599.24	45914.29
599.40	45270.64
599.56	45146.59
599.71	45312.77
599.87	45450.86
600.03	45139.57
600.18	45064.67
600.34	45645.13
600.50	45174.68
600.65	45347.88
600.81	45436.82
600.97	45453.20
601.12	46040.68
601.28	45186.38
601.44	45132.55
601.59	45193.40
601.75	44786.15
601.91	44982.76
602.06	45347.88
602.22	45167.66
602.37	45446.18
602.53	45195.74
602.69	45542.14
602.84	45450.86
603.00	45495.33
603.16	45366.60
603.31	45294.05
603.47	45167.66
603.62	45106.80
603.78	45495.33
603.94	45120.85
604.09	45446.18
604.25	45207.45
604.40	45422.78
604.56	45530.44
604.71	45202.77
604.87	45162.98
605.03	45237.87
605.18	45352.56
605.34	45137.23
605.49	44744.02
605.65	45514.06
605.80	45345.54
605.96	45057.65
606.12	45518.74
606.27	45378.31
606.43	45572.57
606.58	45008.50
606.74	44844.66
606.89	45216.81
607.05	45141.91
607.20	45408.73
607.36	45619.38
607.51	45048.29
607.67	45521.08
607.82	45394.69
607.98	45235.53
608.13	44957.01
608.29	45031.91
608.44	44673.81
608.60	44512.31
608.75	44509.97
608.91	44732.32
609.06	45013.18
609.22	44940.63
609.37	44926.58
609.53	45181.70
609.68	44823.60
609.84	45078.72
609.99	44931.26
610.15	44847.00
610.30	44610.61
610.46	44577.84
610.61	44650.40
610.76	44847.00
610.92	44807.22
611.07	44673.81
611.23	44851.69
611.38	44589.55
611.54	44229.10
611.69	44952.33
611.84	44186.97
612.00	44877.43
612.15	44509.97
612.31	44687.85
612.46	44591.89
612.62	44980.42
612.77	44626.99
612.92	44919.56
613.08	44294.64
613.23	44563.80
613.39	44210.38
613.54	44528.69
613.69	44624.65
613.85	44456.14
614.00	44442.09
614.15	44615.29
614.31	44559.12
614.46	44128.46
614.62	44491.24
614.77	44460.82
614.92	44189.31
615.08	43831.21
615.23	44692.53
615.38	44364.85
615.54	44032.50
615.69	43746.95
615.84	43409.92
616.00	43899.09
616.15	43590.14
616.30	44154.21
616.46	44254.85
616.61	43875.68
616.76	44186.97
616.92	43522.26
617.07	43948.24
617.22	44121.44
617.37	43927.17
617.53	44409.32
617.68	43814.83
617.83	44109.74
617.99	43339.70
618.14	43775.04
618.29	44154.21
618.45	43854.62
618.60	43384.17
618.75	43878.02
618.90	43700.14
619.06	43658.01
619.21	43592.48
619.36	43721.21
619.51	43873.34
619.67	43461.41
619.82	43779.72
619.97	43819.51
620.12	43426.30
620.28	42813.08
620.43	43590.14
620.58	43456.73
620.73	43555.03
620.89	43508.22
621.04	43091.60
621.19	43358.42
621.34	43159.48
621.49	43496.52
621.65	42869.25
621.80	43693.12
621.95	43042.45
622.10	43311.61
622.25	43194.59
622.41	42862.23
622.56	43391.19
622.71	43236.72
622.86	42983.94
623.01	43115.01
623.16	43180.54
623.32	43023.73
623.47	43295.23
623.62	43206.29
623.77	42766.27
623.92	42944.15
624.07	42906.70
624.23	42651.58
624.38	42452.64
624.53	42541.58
624.68	43117.35
624.83	42796.70
624.98	42859.89
625.13	42436.25
625.29	42969.90
625.44	42492.43
625.59	42323.91
625.74	42288.80
625.89	41944.74
626.04	41937.72
626.19	42857.55
626.34	42553.28
626.49	42550.94
626.65	42319.23
626.80	42766.27
626.95	42305.18
627.10	42171.77
627.25	41930.70
627.40	42005.59
627.55	42033.68
627.70	41783.24
627.85	41947.08
628.00	42075.81
628.15	42176.45
628.30	42064.11
628.45	42068.79
628.60	41256.62
628.76	42096.88
628.91	42471.36
629.06	42431.57
629.21	41844.10
629.36	41851.12
629.51	41347.90
629.66	41453.23
629.81	42314.55
629.96	42157.73
630.11	42059.43
630.26	42115.60
630.41	41832.39
630.56	41563.23
630.71	41799.63
630.86	41546.85
631.01	41741.11
631.16	41495.36
631.31	41310.46
631.46	41163.00
631.61	41123.21
631.76	41453.23
631.91	41804.31
632.06	41345.56
632.21	41600.68
632.36	41434.50
632.51	41385.35
632.66	41490.68
632.81	41085.76
632.96	41261.30
633.10	40940.65
633.25	41361.95
633.40	41155.98
633.55	41120.87
633.70	41104.49
633.85	41291.73
634.00	41060.02
634.15	41483.66
634.30	41177.04
634.45	41352.58
634.60	40734.68
634.75	40856.39
634.90	41188.75
635.05	41109.17
635.19	40699.58
635.34	40928.95
635.49	41146.62
635.64	40704.26
635.79	41216.83
635.94	40535.74
636.09	40683.19
636.24	40811.92
636.39	40488.93
636.53	40671.49
636.68	40704.26
636.83	40587.23
636.98	40500.63
637.13	40250.19
637.28	40683.19
637.43	40797.88
637.57	40650.42
637.72	40343.81
637.87	40973.42
638.02	40399.99
638.17	40304.02
638.32	39955.29
638.46	39929.54
638.61	40215.08
638.76	40292.32
638.91	40161.25
639.06	40336.79
639.20	40332.11
639.35	39892.09
639.50	40161.25
639.65	40191.68
639.80	40065.29
639.94	40416.37
640.09	39812.51
640.24	40020.82
640.39	40062.95
640.54	39625.27
640.68	40046.57
640.83	40208.06
640.98	39342.06
641.13	39838.26
641.27	39892.09
641.42	40175.30
641.57	40322.75
641.72	39971.67
641.86	39899.11
642.01	39250.78
642.16	39533.99
642.31	39438.03
642.45	39880.39
642.60	39440.37
642.75	39351.43
642.90	39164.18
643.04	39990.39
643.19	39365.47
643.34	39634.63
643.48	39615.91
643.63	39470.79
643.78	39482.50
643.93	39580.80
644.07	39243.76
644.22	38852.89
644.37	38628.20
644.51	39243.76
644.66	39288.23
644.81	39316.32
644.95	39260.15
645.10	39318.66
645.25	39161.84
645.39	39386.54
645.54	39393.56
645.69	39267.17
645.83	38852.89
645.98	39208.65
646.13	39049.50
646.27	39005.03
646.42	38913.75
646.57	38911.41
646.71	39159.50
646.86	38775.66
647.00	38827.15
647.15	39157.16
647.30	38906.73
647.44	39021.41
647.59	38955.88
647.74	38951.20
647.88	38625.86
648.03	38637.56
648.17	38579.05
648.32	38838.85
648.47	38504.15
648.61	38799.06
648.76	38480.75
648.90	38703.10
649.05	38291.16
649.20	38789.70
649.34	38443.30
649.49	38394.15
649.63	38480.75
649.78	38541.60
649.92	38272.44
650.07	38490.11
650.21	38183.50
650.36	38574.37
650.51	38185.84
650.65	38553.30
650.80	38455.00
650.94	38630.54
651.09	38134.35
651.23	38246.69
651.38	38288.82
651.52	37923.70
651.67	38330.95
651.81	38054.77
651.96	37923.70
652.10	38026.68
652.25	37827.74
652.39	37785.61
652.54	38031.36
652.68	37734.12
652.83	38132.01
652.97	38359.04
653.12	37816.04
653.26	38038.39
653.41	38050.09
653.55	37752.84
653.70	37659.22
653.84	37748.16
653.99	37818.38
654.13	37794.97
654.27	37940.08
654.42	37755.18
654.56	37787.95
654.71	37715.39
654.85	37696.67
655.00	37982.21
655.14	37287.07
655.29	36933.65
655.43	37710.71
655.57	37090.47
655.72	37153.66
655.86	36966.42
656.01	37261.33
656.15	37188.77
656.30	37156.00
656.44	37333.89
656.58	36910.25
656.73	36999.19
656.87	36718.32
657.01	36741.73
657.16	36631.72
657.30	36435.12
657.45	36495.97
657.59	37069.40
657.73	36804.92
657.88	36900.89
658.02	36683.22
658.16	36800.24
658.31	36973.44
658.45	37251.97
658.60	36758.11
658.74	37153.66
658.88	36711.30
659.03	36566.19
659.17	36091.06
659.31	36390.65
659.46	36414.05
659.60	36254.90
659.74	36491.29
659.89	36123.83
660.03	36212.77
660.17	36172.98
660.32	36151.91
660.46	36505.34
660.60	36348.52
660.74	36486.61
660.89	36109.78
661.03	36240.86
661.17	36142.55
661.32	36044.25
661.46	36142.55
661.60	35594.87
661.74	36140.21
661.89	35529.33
662.03	36156.60
662.17	35482.52
662.31	35875.73
662.46	35838.28
662.60	35569.12
662.74	35693.17
662.88	35489.54
663.03	35508.27
663.17	35604.23
663.31	35063.57
663.45	35496.56
663.60	35264.85
663.74	35241.45
663.88	35416.99
664.02	34852.92
664.17	34995.69
664.31	34763.98
664.45	34983.99
664.59	35285.92
664.73	34838.87
664.88	35009.73
665.02	34941.86
665.16	34838.87
665.30	34703.12
665.44	34391.83
665.59	34291.19
665.73	34508.86
665.87	34272.46
666.01	34548.65
666.15	34314.59
666.29	34642.27
666.44	34560.35
666.58	34223.31
666.72	34494.82
666.86	34424.60
667.00	34251.40
667.14	34190.55
667.28	33968.19
667.43	34003.30
667.57	33834.78
667.71	34005.64
667.85	33954.15
667.99	33422.85
668.13	33354.97
668.27	33415.83
668.41	34064.16
668.56	33596.05
668.70	33645.20
668.84	33450.94
668.98	33476.68
669.12	33249.65
669.26	33263.69
669.40	33551.58
669.54	33179.43
669.68	33167.73
669.82	33092.83
669.96	32580.26
670.10	32821.33
670.25	32987.51
670.39	32655.15
670.53	32753.46
670.67	33006.23
670.81	32748.78
670.95	32790.91
671.09	32861.12
671.23	32603.66
671.37	32547.49
671.51	32084.06
671.65	32283.01
671.79	31908.52
671.93	32009.17
672.07	32233.86
672.21	32254.92
672.35	32006.83
672.49	32294.71
672.63	32229.18
672.77	32156.62
672.91	31899.16
673.05	31768.09
673.19	31552.76
673.33	31929.59
673.47	31468.50
673.61	31346.79
673.75	31215.72
673.89	30906.77
674.03	30799.11
674.17	30962.95
674.31	31152.53
674.45	31122.10
674.59	31276.58
674.73	30607.19
674.87	31070.61
675.01	31014.44
675.15	30717.19
675.29	30448.03
675.43	30768.68
675.56	30815.49
675.70	30412.92
675.84	30225.68
675.98	29612.46
676.12	29881.62
676.26	30120.35
676.40	29633.52
676.54	30075.88
676.68	29984.60
676.82	29642.88
676.96	29275.42
677.10	29394.79
677.23	29509.47
677.37	29331.59
677.51	29415.85
677.65	29446.28
677.79	28924.34
677.93	29235.63
678.07	29202.86
678.21	28673.90
678.34	28697.31
678.48	28954.77
678.62	28388.36
678.76	28306.44
678.90	28456.23
679.04	28278.35
679.18	28376.66
679.31	28156.64
679.45	28095.79
679.59	27625.34
679.73	27793.86
679.87	28121.54
680.00	28128.56
680.14	27969.40
680.28	27733.01
680.42	27398.31
680.56	27522.36
680.70	27105.74
680.83	27269.58
680.97	27520.02
681.11	26986.38
681.25	26801.47
681.39	26642.32
681.52	27204.05
681.66	26967.65
681.80	26609.55
681.94	26738.28
682.07	26710.19
682.21	26476.14
682.35	26181.23
682.49	26544.02
682.62	26630.62
682.76	25954.20
682.90	26246.77
683.04	26122.72
683.17	25888.67
683.31	25968.24
683.45	25710.78
683.59	25645.25
683.72	25572.69
683.86	25259.06
684.00	25575.03
684.13	25481.41
684.27	25312.89
684.41	25104.59
684.55	24702.01
684.68	24968.84
684.82	25032.03
684.96	24690.31
685.09	24683.29
685.23	24580.31
685.37	25163.10
685.50	24594.35
685.64	24662.22
685.78	24140.29
685.91	24442.21
686.05	24032.62
686.19	23931.98
686.32	24004.53
686.46	23758.78
686.60	23267.27
686.73	23508.34
686.87	23218.11
687.01	23335.14
687.14	23295.35
687.28	23075.34
687.42	22913.84
687.55	23044.91
687.69	22677.45
687.82	22906.82
687.96	23054.28
688.10	22738.30
688.23	22572.13
688.37	22520.63
688.50	22277.22
688.64	22579.15
688.78	22298.28
688.91	22218.71
689.05	22403.61
689.18	22082.95
689.32	21741.24
689.46	21994.01
689.59	22164.87
689.73	22115.72
689.86	22017.42
690.00	21659.32
690.13	21979.97
690.27	21556.33
690.41	21797.41
690.54	21228.66
690.68	21048.44
690.81	21109.29
690.95	20905.66
691.08	21359.73
691.22	21074.18
691.35	21057.80
691.49	20809.70
691.62	20886.94
691.76	21062.48
691.89	20872.90
692.03	20594.37
692.16	20449.26
692.30	20168.40
692.43	20395.43
692.57	20411.81
692.70	20180.10
692.84	20161.37
692.97	19726.04
693.11	19756.46
693.24	19264.95
693.38	19784.55
693.51	19356.23
693.65	19634.75
693.78	19365.59
693.92	19651.14
694.05	19248.57
694.19	19054.30
694.32	19271.97
694.45	19225.16
694.59	19180.69
694.72	18923.23
694.86	18892.80
694.99	18349.80
695.13	18466.83
695.26	18707.90
695.39	18310.01
695.53	18649.39
695.66	18530.02
695.80	18647.05
695.93	18087.66
696.07	17869.99
696.20	18195.32
696.33	18113.41
696.47	18298.31
696.60	17949.57
696.73	17933.18
696.87	17902.76
697.00	17898.08
697.14	17607.85
697.27	17476.78
697.40	17467.42
697.54	17362.09
697.67	17469.76
697.80	17099.95
697.94	17160.81
698.07	17188.89
698.21	17186.55
698.34	16886.97
698.47	17069.53
698.61	16681.00
698.74	16468.01
698.87	16570.99
699.01	16416.52
699.14	16269.06
699.27	16372.05
699.40	16245.66
699.54	16343.96
699.67	15873.51
699.80	16049.05
699.94	15999.90
700.07	16264.38
700.20	15859.47
700.34	15494.35
700.47	15634.78
700.60	15988.20
700.73	15594.99
700.87	15604.35
701.00	15587.97
701.13	15751.81
701.26	15594.99
701.40	15489.67
701.53	15428.81
701.66	15288.38
701.79	15417.11
701.93	15173.69
702.06	14913.89
702.19	14949.00
702.32	14958.36
702.46	14707.93
702.59	14941.98
702.72	14787.50
702.85	14806.23
702.99	14747.72
703.12	14567.49
703.25	14384.93
703.38	14567.49
703.51	14295.99
703.65	14380.25
703.78	14340.46
703.91	13928.53
704.04	14120.45
704.17	14101.73
704.31	13982.36
704.44	13713.20
704.57	13692.13
704.70	13743.63
704.83	13708.52
704.96	13813.84
705.10	13785.76
705.23	13802.14
>>>>>End Processed Spectral Data<<<<<
