SpectraSuite Data File
++++++++++++++++++++++++++++++++++++
Date: Fri Oct 25 11:34:36 EDT 2013
User: price-jones
Dark Spectrum Present: No
Reference Spectrum Present: No
Number of Sampled Component Spectra: 1
Spectrometers: USB2+H05261
Integration Time (usec): 100000 (USB2+H05261)
Spectra Averaged: 1 (USB2+H05261)
Boxcar Smoothing: 0 (USB2+H05261)
Correct for Electrical Dark: No (USB2+H05261)
Strobe/Lamp Enabled: No (USB2+H05261)
Correct for Detector Non-linearity: No (USB2+H05261)
Correct for Stray Light: No (USB2+H05261)
Number of Pixels in Processed Spectrum: 2048
>>>>>Begin Processed Spectral Data<<<<<
365.73	196.60
365.92	196.60
366.12	196.60
366.32	187.24
366.52	184.90
366.72	184.90
366.91	205.97
367.11	124.05
367.31	163.84
367.51	124.05
367.70	149.79
367.90	198.95
368.10	161.50
368.30	217.67
368.49	133.41
368.69	184.90
368.89	196.60
369.09	163.84
369.28	205.97
369.48	159.16
369.68	191.92
369.87	166.18
370.07	245.76
370.27	250.44
370.47	285.55
370.66	351.08
370.86	491.51
371.06	557.05
371.25	606.20
371.45	568.75
371.65	475.13
371.84	526.62
372.04	505.56
372.24	638.97
372.44	564.07
372.63	601.52
372.83	514.92
373.03	653.01
373.22	624.92
373.42	587.47
373.62	655.35
373.81	585.13
374.01	674.07
374.21	681.10
374.40	557.05
374.60	643.65
374.79	585.13
374.99	667.05
375.19	662.37
375.38	734.93
375.58	599.18
375.78	601.52
375.97	561.73
376.17	645.99
376.37	650.67
376.56	631.94
376.76	594.50
376.95	592.16
377.15	692.80
377.35	629.60
377.54	716.20
377.74	676.41
377.93	641.31
378.13	662.37
378.33	692.80
378.52	720.88
378.72	711.52
378.91	744.29
379.11	620.24
379.31	676.41
379.50	683.44
379.70	779.40
379.89	709.18
380.09	692.80
380.28	627.26
380.48	765.36
380.68	678.76
380.87	734.93
381.07	772.38
381.26	744.29
381.46	798.12
381.65	734.93
381.85	784.08
382.04	772.38
382.24	688.12
382.43	795.78
382.63	713.86
382.83	671.73
383.02	828.55
383.22	788.76
383.41	793.44
383.61	875.36
383.80	842.59
384.00	770.04
384.19	887.06
384.39	798.12
384.58	795.78
384.78	774.72
384.97	770.04
385.17	870.68
385.36	844.93
385.56	814.51
385.75	748.97
385.95	915.15
386.14	809.83
386.34	875.36
386.53	781.74
386.72	816.85
386.92	830.89
387.11	898.77
387.31	851.96
387.50	912.81
387.70	816.85
387.89	894.08
388.09	901.11
388.28	908.13
388.48	917.49
388.67	849.61
388.86	849.61
389.06	922.17
389.25	868.34
389.45	887.06
389.64	961.96
389.84	940.90
390.03	938.55
390.22	910.47
390.42	922.17
390.61	959.62
390.81	950.26
391.00	950.26
391.19	992.39
391.39	1006.43
391.58	1022.81
391.78	976.00
391.97	994.73
392.16	891.74
392.36	1078.99
392.55	957.28
392.75	1036.86
392.94	1029.84
393.13	1046.22
393.33	954.94
393.52	1039.20
393.71	1041.54
393.91	1104.73
394.10	1029.84
394.29	1088.35
394.49	1071.97
394.68	1025.15
394.88	1055.58
395.07	1111.75
395.26	1144.52
395.46	1128.14
395.65	1130.48
395.84	1074.31
396.04	1252.19
396.23	1151.54
396.42	1130.48
396.62	1205.38
396.81	1158.57
397.00	1184.31
397.19	1188.99
397.39	1118.78
397.58	1259.21
397.77	1142.18
397.97	1268.57
398.16	1132.82
398.35	1228.78
398.55	1151.54
398.74	1188.99
398.93	1233.46
399.12	1277.93
399.32	1273.25
399.51	1224.10
399.70	1270.91
399.90	1336.45
400.09	1263.89
400.28	1327.08
400.47	1259.21
400.67	1345.81
400.86	1299.00
401.05	1418.36
401.24	1352.83
401.44	1406.66
401.63	1306.02
401.82	1373.89
402.01	1348.15
402.21	1369.21
402.40	1409.00
402.59	1434.75
402.78	1399.64
402.97	1451.13
403.17	1490.92
403.36	1420.71
403.55	1474.54
403.74	1549.43
403.93	1554.12
404.13	1537.73
404.32	1500.28
404.51	1490.92
404.70	1636.03
404.89	1572.84
405.09	1614.97
405.28	1685.19
405.47	1645.40
405.66	1680.50
405.85	1696.89
406.05	1722.63
406.24	1657.10
406.43	1722.63
406.62	1652.42
406.81	1699.23
407.00	1785.83
407.20	1746.04
407.39	1694.55
407.58	1739.02
407.77	1736.68
407.96	1832.64
408.15	1870.09
408.34	1893.49
408.54	1898.17
408.73	1853.70
408.92	1813.92
409.11	1858.39
409.30	1886.47
409.49	1842.00
409.68	2036.27
409.87	1905.20
410.07	1977.75
410.26	2003.50
410.45	1937.96
410.64	2099.46
410.83	1944.99
411.02	2059.67
411.21	2069.03
411.40	2141.59
411.59	2097.12
411.78	2146.27
411.98	2071.37
412.17	2134.57
412.36	2176.70
412.55	2139.25
412.74	2200.10
412.93	2115.84
413.12	2209.47
413.31	2282.02
413.50	2258.62
413.69	2282.02
413.88	2396.71
414.07	2331.17
414.26	2319.47
414.45	2324.15
414.64	2417.77
414.83	2513.74
415.02	2502.03
415.22	2527.78
415.41	2457.56
415.60	2495.01
415.79	2495.01
415.98	2511.39
416.17	2623.74
416.36	2605.02
416.55	2670.55
416.74	2574.59
416.93	2593.31
417.12	2579.27
417.31	2722.04
417.50	2731.41
417.69	2827.37
417.88	2813.32
418.07	2871.84
418.26	2815.66
418.45	2789.92
418.64	2878.86
418.83	2820.35
419.02	2892.90
419.21	2925.67
419.39	2867.16
419.58	2928.01
419.77	2864.82
419.96	2984.18
420.15	3054.40
420.34	3084.83
420.53	3133.98
420.72	3061.42
420.91	3045.04
421.10	3178.45
421.29	3206.53
421.48	3164.40
421.67	3103.55
421.86	3082.49
422.05	3178.45
422.24	3101.21
422.43	3253.34
422.61	3253.34
422.80	3251.00
422.99	3272.07
423.18	3297.81
423.37	3241.64
423.56	3197.17
423.75	3267.39
423.94	3110.57
424.13	3080.14
424.32	3129.30
424.50	3234.62
424.69	3337.60
424.88	3225.26
425.07	3218.24
425.26	3274.41
425.45	3353.99
425.64	3290.79
425.83	3190.15
426.01	3356.33
426.20	3400.80
426.39	3438.25
426.58	3241.64
426.77	3265.05
426.96	3475.70
427.15	3258.03
427.33	3445.27
427.52	3262.71
427.71	3447.61
427.90	3471.01
428.09	3585.70
428.28	3489.74
428.46	3520.17
428.65	3543.57
428.84	3604.42
429.03	3684.00
429.22	3454.63
429.40	3576.34
429.59	3569.32
429.78	3524.85
429.97	3300.16
430.16	3534.21
430.34	3681.66
430.53	3709.75
430.72	3630.17
430.91	3681.66
431.10	3782.31
431.28	3812.73
431.47	3688.68
431.66	3911.04
431.85	3772.94
432.03	3712.09
432.22	3894.65
432.41	3962.53
432.60	3882.95
432.79	3843.16
432.97	3911.04
433.16	3861.88
433.35	3866.56
433.54	3953.16
433.72	3859.54
433.91	3913.38
434.10	3840.82
434.28	3985.93
434.47	4035.08
434.66	3978.91
434.85	4161.47
435.03	4194.24
435.22	4133.39
435.41	4109.98
435.59	4198.92
435.78	4297.22
435.97	4154.45
436.16	4187.22
436.34	4177.86
436.53	4168.49
436.72	4332.33
436.90	4229.35
437.09	4245.73
437.28	4159.13
437.46	4269.14
437.65	4170.83
437.84	4517.23
438.02	4332.33
438.21	4411.91
438.40	4325.31
438.58	4540.64
438.77	4566.39
438.96	4540.64
439.14	4645.96
439.33	4545.32
439.52	4805.12
439.70	4697.46
439.89	4802.78
440.08	4690.43
440.26	4772.35
440.45	4643.62
440.63	4704.48
440.82	4854.27
441.01	4812.14
441.19	4877.68
441.38	4950.23
441.57	5090.67
441.75	5022.79
441.94	5067.26
442.12	5074.28
442.31	5268.55
442.50	5210.03
442.68	5184.29
442.87	5090.67
443.05	5289.61
443.24	5331.74
443.43	5261.52
443.61	5317.70
443.80	5404.30
443.98	5198.33
444.17	4964.28
444.35	5486.22
444.54	5334.08
444.73	5193.65
444.91	5390.25
445.10	5296.63
445.28	5423.02
445.47	5298.97
445.65	5420.68
445.84	5467.49
446.02	5451.11
446.21	5341.10
446.39	5357.49
446.58	5486.22
446.77	5493.24
446.95	5385.57
447.14	5413.66
447.32	5373.87
447.51	5537.71
447.69	5401.96
447.88	5530.69
448.06	5547.07
448.25	5523.66
448.43	5357.49
448.62	5565.79
448.80	5495.58
448.99	5516.64
449.17	5769.42
449.36	5481.53
449.54	5694.52
449.73	5689.84
449.91	5708.57
450.10	5476.85
450.28	5687.50
450.46	5818.57
450.65	5881.77
450.83	5830.27
451.02	5624.31
451.20	5989.43
451.39	5659.42
451.57	5743.67
451.76	5830.27
451.94	5865.38
452.13	5994.11
452.31	5998.79
452.49	5853.68
452.68	5987.09
452.86	6106.46
453.05	6047.94
453.23	6150.93
453.42	6017.52
453.60	5998.79
453.78	6094.76
453.97	6174.33
454.15	6195.40
454.34	6232.85
454.52	6230.51
454.70	6155.61
454.89	6200.08
455.07	6333.49
455.26	6401.37
455.44	6441.15
455.62	6328.81
455.81	6284.34
455.99	6422.43
456.17	6354.55
456.36	6450.52
456.54	6532.44
456.73	6628.40
456.91	6576.91
457.09	6565.20
457.28	6686.91
457.46	6682.23
457.64	6764.15
457.83	6752.45
458.01	6705.63
458.19	6825.00
458.38	6668.19
458.56	6991.18
458.74	6740.74
458.93	6822.66
459.11	6752.45
459.29	6937.35
459.48	6920.96
459.66	6839.05
459.84	6862.45
460.03	7131.61
460.21	7103.53
460.39	6935.01
460.57	7016.93
460.76	7213.53
460.94	6988.84
461.12	7148.00
461.31	7089.48
461.49	7056.72
461.67	7082.46
461.85	7445.24
462.04	7183.10
462.22	7665.25
462.40	7466.31
462.59	7473.33
462.77	7283.75
462.95	7269.70
463.13	7297.79
463.32	7475.67
463.50	7419.50
463.68	7522.48
463.86	7524.82
464.05	7365.67
464.23	7426.52
464.41	7674.62
464.59	7508.44
464.78	7726.11
464.96	7548.23
465.14	7433.54
465.32	7613.76
465.50	7798.66
465.69	7815.05
465.87	7854.84
466.05	7667.60
466.23	7691.00
466.41	7868.88
466.60	8063.15
466.78	7721.43
466.96	7772.92
467.14	7754.19
467.32	7974.21
467.51	8039.74
467.69	7812.71
467.87	7971.86
468.05	7988.25
468.23	7765.90
468.41	7824.41
468.60	8013.99
468.78	8149.75
468.96	7918.03
469.14	8035.06
469.32	8238.69
469.50	7925.05
469.69	8131.02
469.87	8339.33
470.05	8262.09
470.23	8329.97
470.41	8381.46
470.59	8404.86
470.77	8271.45
470.95	8322.94
471.14	8676.37
471.32	8423.59
471.50	8601.47
471.68	8545.30
471.86	8709.13
472.04	8730.20
472.22	8887.01
472.40	8762.97
472.58	8652.96
472.77	8966.59
472.95	8917.44
473.13	9048.51
473.31	8917.44
473.49	9125.75
473.67	8802.75
473.85	8994.68
474.03	9001.70
474.21	9357.46
474.39	9301.29
474.57	9198.31
474.75	9289.59
474.93	9383.21
475.12	9430.02
475.30	9486.19
475.48	9547.05
475.66	9638.33
475.84	9633.64
476.02	9511.94
476.20	9692.16
476.38	9748.33
476.56	10129.84
476.74	9998.77
476.92	10061.96
477.10	9895.78
477.28	10061.96
477.46	10148.56
477.64	10204.74
477.82	10270.27
478.00	10686.89
478.18	10539.43
478.36	10747.74
478.54	10810.93
478.72	10764.12
478.90	10939.66
479.08	10824.98
479.26	10909.24
479.44	11201.80
479.62	11199.46
479.80	11321.17
479.98	11438.20
480.16	11658.21
480.34	11281.38
480.52	11705.02
480.70	11705.02
480.88	11639.48
481.06	11571.61
481.24	11826.73
481.41	12016.31
481.59	12198.87
481.77	12126.32
481.95	12243.34
482.13	12301.86
482.31	12535.91
482.49	12861.24
482.67	12905.71
482.85	12779.32
483.03	12926.78
483.21	12884.65
483.39	12980.61
483.57	13071.89
483.74	13207.64
483.92	13121.04
484.10	13310.63
484.28	13462.76
484.46	13659.37
484.64	13855.97
484.82	13657.03
485.00	13837.25
485.18	14321.74
485.35	14363.87
485.53	14097.05
485.71	14293.65
485.89	14785.16
486.07	14300.67
486.25	14635.37
486.43	14523.02
486.61	15021.56
486.78	14862.40
486.96	14883.47
487.14	15283.70
487.32	15290.72
487.50	15459.24
487.68	15653.50
487.85	15531.80
488.03	15840.75
488.21	15922.66
488.39	15995.22
488.57	16016.29
488.75	16222.25
488.92	16613.12
489.10	16449.28
489.28	16585.04
489.46	16870.58
489.64	16957.18
489.81	17114.00
489.99	17139.74
490.17	17420.61
490.35	17448.69
490.53	17427.63
490.70	17671.04
490.88	17898.08
491.06	17757.64
491.24	17937.87
491.41	17907.44
491.59	18108.72
491.77	17869.99
491.95	18221.07
492.13	18513.64
492.30	18520.66
492.48	18670.45
492.66	18530.02
492.84	18675.13
493.01	19140.90
493.19	18998.13
493.37	19255.59
493.54	19477.94
493.72	19609.01
493.90	19496.66
494.08	19646.46
494.25	19695.61
494.43	19599.65
494.61	20034.99
494.79	19948.39
494.96	20060.73
495.14	20065.41
495.32	20592.03
495.49	20467.98
495.67	20751.19
495.85	20833.11
496.02	20943.11
496.20	20786.30
496.38	21371.43
496.55	21266.11
496.73	21584.42
496.91	21429.94
497.09	21390.16
497.26	21605.49
497.44	21488.46
497.62	21781.03
497.79	22073.59
497.97	21621.87
498.14	22256.15
498.32	22162.53
498.50	22574.47
498.67	22792.14
498.85	22515.95
499.03	22883.42
499.20	22707.88
499.38	22803.84
499.56	22869.37
499.73	23063.64
499.91	23157.26
500.08	23604.30
500.26	23159.60
500.44	23566.85
500.61	23211.09
500.79	23370.25
500.97	23466.21
501.14	23875.80
501.32	23915.59
501.49	23983.47
501.67	24203.48
501.84	24023.26
502.02	23868.78
502.20	24072.41
502.37	24217.52
502.55	24402.43
502.72	24650.52
502.90	24463.28
503.07	24882.24
503.25	24872.87
503.43	24694.99
503.60	24875.21
503.78	25230.98
503.95	24891.60
504.13	25291.83
504.30	25551.63
504.48	25001.60
504.65	25390.13
504.83	25722.49
505.01	25502.48
505.18	25582.06
505.36	25977.61
505.53	25603.12
505.71	25460.35
505.88	25895.69
506.06	25881.64
506.23	26338.05
506.41	25816.11
506.58	26539.33
506.76	26270.17
506.93	26331.03
507.11	26387.20
507.28	26534.65
507.46	26401.24
507.63	26675.09
507.81	27372.57
507.98	26834.24
508.16	26672.74
508.33	27220.43
508.50	27028.51
508.68	27206.39
508.85	27515.34
509.03	27213.41
509.20	27391.29
509.38	27594.92
509.55	27660.45
509.73	27896.85
509.90	27772.80
510.08	27714.28
510.25	27812.59
510.42	28250.27
510.60	28020.89
510.77	28713.69
510.95	28556.88
511.12	28666.88
511.30	28299.42
511.47	28481.98
511.64	28381.34
511.82	28830.72
511.99	28173.03
512.17	28521.77
512.34	28966.47
512.51	29277.76
512.69	29331.59
512.86	29296.49
513.04	29289.46
513.21	29399.47
513.38	29216.91
513.56	29549.26
513.73	29563.31
513.90	29694.38
514.08	29532.88
514.25	29720.12
514.43	30019.71
514.60	29851.19
514.77	30202.27
514.95	29977.58
515.12	30136.74
515.29	29862.90
515.47	30000.99
515.64	30410.58
515.81	29869.92
515.99	30728.89
516.16	30532.29
516.33	30611.87
516.51	30820.17
516.68	30560.37
516.85	30670.38
517.03	30864.64
517.20	31094.02
517.37	31028.48
517.54	31161.89
517.72	31208.70
517.89	30909.11
518.06	31124.44
518.24	31442.76
518.41	31110.40
518.58	31512.97
518.75	31248.49
518.93	31299.98
519.10	31314.03
519.27	31529.36
519.45	31353.82
519.62	31913.20
519.79	31873.42
519.96	31723.62
520.14	32147.26
520.31	31627.66
520.48	31805.54
520.65	32163.64
520.83	32596.64
521.00	32671.54
521.17	32006.83
521.34	32598.98
521.52	32849.42
521.69	32598.98
521.86	32584.94
522.03	33064.75
522.20	33404.13
522.38	32751.12
522.55	33261.35
522.72	32950.06
522.89	33177.09
523.07	33600.73
523.24	33500.09
523.41	33537.54
523.58	33207.52
523.75	33500.09
523.92	33626.48
524.10	33404.13
524.27	33846.49
524.44	33881.60
524.61	33783.29
524.78	33930.75
524.96	33986.92
525.13	33844.15
525.30	34368.43
525.47	34146.08
525.64	34089.90
525.81	34209.27
525.98	34527.58
526.16	34033.73
526.33	34391.83
526.50	34658.65
526.67	34209.27
526.84	34284.17
527.01	34602.48
527.18	34550.99
527.36	34792.06
527.53	34958.24
527.70	35086.97
527.87	35342.09
528.04	34611.84
528.21	34873.98
528.38	35047.18
528.55	35269.53
528.72	35491.88
528.89	35147.82
529.07	35431.03
529.24	34721.85
529.41	35791.47
529.58	35903.82
529.75	35337.41
529.92	35887.43
530.09	35503.59
530.26	35646.36
530.43	35517.63
530.60	35597.21
530.77	35150.17
530.94	35892.12
531.11	35676.79
531.28	35988.08
531.46	36011.48
531.63	36006.80
531.80	35945.95
531.97	36172.98
532.14	36126.17
532.31	36460.87
532.48	36376.61
532.65	36411.71
532.82	36168.30
532.99	36435.12
533.16	36428.10
533.33	36531.08
533.50	36526.40
533.67	36835.35
533.84	36266.60
534.01	36891.52
534.18	36889.18
534.35	36816.63
534.52	36964.08
534.69	37153.66
534.86	37202.82
535.03	36926.63
535.20	37029.62
535.37	37097.49
535.54	37811.35
535.71	37177.07
535.88	37429.85
536.05	37476.66
536.22	37495.38
536.38	37263.67
536.55	37502.40
536.72	37350.27
536.89	37511.77
537.06	37684.97
537.23	38096.90
537.40	37619.43
537.57	37652.20
537.74	37446.23
537.91	37495.38
538.08	38195.20
538.25	37495.38
538.42	37904.98
538.59	38408.19
538.75	38429.26
538.92	38450.32
539.09	38375.42
539.26	38499.47
539.43	38316.91
539.60	38700.76
539.77	38389.47
539.94	38756.93
540.11	38391.81
540.28	38803.74
540.44	38522.88
540.61	38543.94
540.78	37860.51
540.95	38672.67
541.12	38794.38
541.29	38417.55
541.46	38560.33
541.62	38733.53
541.79	38927.79
541.96	38965.24
542.13	38607.14
542.30	38864.60
542.47	38979.28
542.63	39182.91
542.80	39203.97
542.97	39533.99
543.14	39913.16
543.31	39103.33
543.48	39168.87
543.64	39938.90
543.81	40179.98
543.98	39487.18
544.15	39608.89
544.32	39634.63
544.48	40320.41
544.65	40046.57
544.82	39702.51
544.99	39917.84
545.16	39655.70
545.32	39896.77
545.49	40437.44
545.66	40664.47
545.83	39966.99
546.00	39878.05
546.16	40088.70
546.33	40257.21
546.50	40301.68
546.67	40779.15
546.83	39590.16
547.00	40165.93
547.17	40341.47
547.34	40570.85
547.50	40655.11
547.67	41163.00
547.84	41233.22
548.00	40933.63
548.17	41415.78
548.34	40708.94
548.51	41090.44
548.67	41158.32
548.84	40910.22
549.01	40945.33
549.18	40830.65
549.34	40961.72
549.51	41635.79
549.68	40896.18
549.84	40816.60
550.01	41237.90
550.18	40816.60
550.34	41364.29
550.51	41610.04
550.68	41654.51
550.84	41163.00
551.01	41350.24
551.18	41588.98
551.34	41179.39
551.51	41797.29
551.68	41425.14
551.84	41230.88
552.01	41720.05
552.18	42047.72
552.34	41331.52
552.51	41558.55
552.68	41586.64
552.84	41331.52
553.01	42263.05
553.18	41900.27
553.34	41661.54
553.51	41598.34
553.67	42150.71
553.84	42270.08
554.01	42157.73
554.17	41773.88
554.34	42403.49
554.51	42064.11
554.67	42241.99
554.84	43037.77
555.00	42230.29
555.17	42316.89
555.33	42536.90
555.50	41867.50
555.67	42010.28
555.83	42326.25
556.00	42476.04
556.16	43072.88
556.33	42639.88
556.50	42646.90
556.66	42742.86
556.83	42241.99
556.99	42674.99
557.16	42593.07
557.32	42834.14
557.49	42958.19
557.65	42532.22
557.82	42803.72
557.98	42541.58
558.15	42469.02
558.32	42815.42
558.48	42745.20
558.65	42813.08
558.81	43000.32
558.98	42904.36
559.14	42878.61
559.31	42848.19
559.47	42754.57
559.64	43122.03
559.80	43199.27
559.97	43112.67
560.13	42595.41
560.30	43398.21
560.46	43456.73
560.63	42848.19
560.79	43421.62
560.96	43466.09
561.12	43372.47
561.29	43480.13
561.45	43391.19
561.61	43058.84
561.78	43255.44
561.94	43187.56
562.11	43098.62
562.27	43753.97
562.44	43620.56
562.60	43220.33
562.77	43718.87
562.93	43531.62
563.10	43805.47
563.26	43400.55
563.42	43866.32
563.59	43728.23
563.75	43091.60
563.92	43510.56
564.08	43257.78
564.24	43861.64
564.41	43473.11
564.57	43414.60
564.74	43772.70
564.90	43571.41
565.07	43552.69
565.23	43489.49
565.39	43215.65
565.56	43814.83
565.72	43562.05
565.88	43784.40
566.05	44425.71
566.21	44016.11
566.38	43423.96
566.54	43915.47
566.70	44114.42
566.87	44133.14
567.03	43566.73
567.19	44154.21
567.36	44151.87
567.52	44037.18
567.68	44495.92
567.85	43981.01
568.01	44294.64
568.17	44222.08
568.34	43936.54
568.50	43952.92
568.66	43992.71
568.83	44439.75
568.99	43896.75
569.15	44575.50
569.32	44306.34
569.48	43957.60
569.64	44446.77
569.81	44210.38
569.97	43880.36
570.13	44315.70
570.30	44149.53
570.46	44282.94
570.62	44425.71
570.78	44137.82
570.95	44037.18
571.11	44383.58
571.27	43931.86
571.43	43992.71
571.60	44102.71
571.76	43966.96
571.92	44453.79
572.09	44500.61
572.25	43915.47
572.41	44299.32
572.57	44622.31
572.74	44727.64
572.90	44603.59
573.06	44975.73
573.22	44598.91
573.38	45495.33
573.55	44385.92
573.71	44949.99
573.87	44472.52
574.03	43976.33
574.20	44746.36
574.36	44870.41
574.52	44821.26
574.68	44343.79
574.84	44502.95
575.01	44732.32
575.17	44563.80
575.33	44673.81
575.49	44516.99
575.65	44619.97
575.82	44896.16
575.98	44514.65
576.14	44706.57
576.30	45200.43
576.46	44961.69
576.62	44652.74
576.79	44708.91
576.95	44210.38
577.11	44563.80
577.27	44699.55
577.43	44500.61
577.59	44252.51
577.75	44266.55
577.92	44381.24
578.08	44638.70
578.24	44421.03
578.40	44715.93
578.56	44685.51
578.72	44987.44
578.88	44807.22
579.04	44465.50
579.21	44701.89
579.37	44332.09
579.53	45027.23
579.69	44711.25
579.85	44692.53
580.01	44507.63
580.17	44467.84
580.33	44945.31
580.49	44449.11
580.65	44755.72
580.82	44687.85
580.98	44687.85
581.14	44601.25
581.30	44713.59
581.46	45106.80
581.62	44996.80
581.78	44823.60
581.94	44954.67
582.10	44737.00
582.26	44935.95
582.42	44898.50
582.58	44758.06
582.74	45043.61
582.90	44587.21
583.06	45085.74
583.22	44692.53
583.38	45076.38
583.54	44994.46
583.70	44657.42
583.86	45081.06
584.02	44629.34
584.18	45031.91
584.34	45062.33
584.50	45144.25
584.66	44973.39
584.82	45024.89
584.98	45507.04
585.14	44933.60
585.30	44659.76
585.46	44758.06
585.62	45350.22
585.78	45038.93
585.94	44783.81
586.10	44669.12
586.26	44807.22
586.42	45015.52
586.58	44804.88
586.74	44865.73
586.90	44767.43
587.06	44961.69
587.22	45324.47
587.38	44591.89
587.54	44980.42
587.70	45514.06
587.86	45406.39
588.02	45067.02
588.18	45088.08
588.34	45031.91
588.49	44954.67
588.65	44947.65
588.81	44907.86
588.97	44933.60
589.13	45151.27
589.29	44957.01
589.45	45504.70
589.61	45022.54
589.77	45043.61
589.93	45235.53
590.08	45572.57
590.24	45642.79
590.40	46045.36
590.56	45338.52
590.72	46012.59
590.88	45310.43
591.04	45216.81
591.20	45698.96
591.35	45284.68
591.51	45818.33
591.67	45755.13
591.83	45240.21
591.99	45151.27
592.15	45551.51
592.31	45490.65
592.46	45357.24
592.62	45270.64
592.78	46099.19
592.94	45897.91
593.10	46038.34
593.26	45783.22
593.41	45771.52
593.57	45619.38
593.73	45350.22
593.89	45872.16
594.05	46195.15
594.20	45408.73
594.36	45825.35
594.52	45703.64
594.68	45579.59
594.84	45610.02
594.99	45617.04
595.15	45603.00
595.31	46031.32
595.47	45858.12
595.62	45581.93
595.78	46017.27
595.94	45731.73
596.10	45815.99
596.25	45837.05
596.41	45736.41
596.57	45397.03
596.73	45851.09
596.88	45785.56
597.04	45581.93
597.20	45553.85
597.36	45839.39
597.51	46087.49
597.67	45720.02
597.83	45617.04
597.99	45675.55
598.14	45750.45
598.30	45907.27
598.46	45715.34
598.61	46506.44
598.77	45848.75
598.93	46113.23
599.09	46087.49
599.24	46005.57
599.40	45930.67
599.56	46047.70
599.71	46253.67
599.87	46408.14
600.03	46295.80
600.18	45834.71
600.34	45673.21
600.50	45537.46
600.65	45516.40
600.81	46253.67
600.97	46354.31
601.12	46272.39
601.28	45963.44
601.44	46010.25
601.59	46218.56
601.75	45883.86
601.91	46232.60
602.06	45837.05
602.22	46087.49
602.37	46061.74
602.53	45956.42
602.69	45830.03
602.84	46110.89
603.00	45841.73
603.16	45420.44
603.31	45593.64
603.47	45600.66
603.62	45769.18
603.78	46108.55
603.94	45595.98
604.09	45743.43
604.25	45916.63
604.40	46281.75
604.56	45762.15
604.71	46394.10
604.87	45270.64
605.03	45696.62
605.18	45947.06
605.34	45825.35
605.49	45942.38
605.65	46043.02
605.80	45717.68
605.96	45509.38
606.12	45979.82
606.27	46272.39
606.43	46059.40
606.58	46148.34
606.74	45691.94
606.89	45989.19
607.05	46054.72
607.20	46089.83
607.36	45460.23
607.51	45890.88
607.67	45638.11
607.82	45691.94
607.98	46000.89
608.13	45752.79
608.29	45518.74
608.44	45858.12
608.60	45703.64
608.75	45907.27
608.91	45743.43
609.06	45698.96
609.22	45710.66
609.37	45460.23
609.53	45588.95
609.68	45748.11
609.84	45502.35
609.99	45844.07
610.15	45724.71
610.30	45308.09
610.46	45308.09
610.61	45675.55
610.76	45902.59
610.92	44949.99
611.07	45373.63
611.23	45160.64
611.38	44882.11
611.54	45799.60
611.69	45476.61
611.84	45422.78
612.00	45563.21
612.15	45106.80
612.31	45635.77
612.46	45188.72
612.62	45214.47
612.77	45280.00
612.92	45731.73
613.08	45146.59
613.23	45502.35
613.39	45425.12
613.54	44877.43
613.69	45188.72
613.85	45406.39
614.00	45565.55
614.15	45394.69
614.31	45036.59
614.46	45359.58
614.62	45158.30
614.77	45020.20
614.92	45689.60
615.08	45338.52
615.23	45207.45
615.38	45595.98
615.54	44973.39
615.69	45408.73
615.84	45029.57
616.00	45132.55
616.15	45022.54
616.30	44896.16
616.46	44931.26
616.61	45113.83
616.76	44816.58
616.92	44790.83
617.07	45209.79
617.22	44458.48
617.37	44554.44
617.53	44971.05
617.68	45162.98
617.83	44919.56
617.99	44975.73
618.14	44502.95
618.29	44353.15
618.45	44643.38
618.60	44399.96
618.75	44584.86
618.90	44580.18
619.06	44987.44
619.21	44811.90
619.36	44933.60
619.51	44872.75
619.67	44196.34
619.82	44659.76
619.97	44421.03
620.12	44655.08
620.28	44336.77
620.43	44322.72
620.58	44383.58
620.73	44339.11
620.89	44725.30
621.04	44699.55
621.19	44222.08
621.34	44509.97
621.49	44694.87
621.65	44194.00
621.80	44952.33
621.95	44430.39
622.10	44526.35
622.25	44336.77
622.41	44357.83
622.56	44254.85
622.71	44547.42
622.86	44432.73
623.01	44051.22
623.16	44238.47
623.32	44119.10
623.47	44133.14
623.62	43887.39
623.77	44280.60
623.92	44500.61
624.07	44320.38
624.23	44025.48
624.38	44329.75
624.53	44088.67
624.68	43756.32
624.83	43831.21
624.98	43821.85
625.13	43833.55
625.29	43775.04
625.44	43964.62
625.59	43948.24
625.74	43632.27
625.89	43117.35
626.04	43423.96
626.19	43208.63
626.34	43480.13
626.49	43491.83
626.65	43473.11
626.80	43545.67
626.95	43452.05
627.10	43519.92
627.25	43761.00
627.40	43868.66
627.55	43498.86
627.70	43203.95
627.85	43456.73
628.00	43042.45
628.15	43669.72
628.30	43047.13
628.45	42904.36
628.60	42946.49
628.76	42979.26
628.91	43281.19
629.06	42930.11
629.21	42712.44
629.36	42841.17
629.51	42923.08
629.66	43400.55
629.81	43133.73
629.96	43119.69
630.11	43421.62
630.26	43077.56
630.41	43107.99
630.56	42845.85
630.71	43082.24
630.86	43072.88
631.01	42841.17
631.16	42930.11
631.31	42597.75
631.46	42930.11
631.61	42726.48
631.76	43037.77
631.91	43159.48
632.06	43274.16
632.21	43077.56
632.36	43086.92
632.51	42258.37
632.66	43274.16
632.81	42426.89
632.96	42501.79
633.10	42581.37
633.25	42520.51
633.40	42373.06
633.55	42438.59
633.70	42630.52
633.85	42146.03
634.00	42689.03
634.15	42391.78
634.30	42499.45
634.45	42354.33
634.60	42462.00
634.75	42607.11
634.90	42368.38
635.05	42335.61
635.19	42344.97
635.34	42110.92
635.49	42190.50
635.64	42099.22
635.79	42412.85
635.94	42089.85
636.09	42792.01
636.24	42202.20
636.39	42281.78
636.53	42466.68
636.68	42113.26
636.83	41390.03
636.98	42120.28
637.13	41357.27
637.28	41750.48
637.43	41701.32
637.57	41989.21
637.72	41359.61
637.87	42143.69
638.02	41876.86
638.17	41598.34
638.32	41876.86
638.46	41315.14
638.61	41680.26
638.76	41837.08
638.91	41551.53
639.06	41364.29
639.20	41415.78
639.35	41661.54
639.50	41577.28
639.65	41565.57
639.80	41631.11
639.94	41584.30
640.09	41371.31
640.24	41432.16
640.39	41240.24
640.54	41050.66
640.68	41776.22
640.83	41249.60
640.98	41148.96
641.13	41207.47
641.27	41593.66
641.42	40608.29
641.57	40877.46
641.72	40800.22
641.86	41326.84
642.01	41078.74
642.16	40877.46
642.31	40935.97
642.45	41254.28
642.60	40774.47
642.75	40814.26
642.90	41237.90
643.04	40554.46
643.19	40978.10
643.34	41134.92
643.48	40751.07
643.63	40306.37
643.78	40835.33
643.93	40959.38
644.07	41001.50
644.22	40627.02
644.37	40540.42
644.51	40968.74
644.66	40818.94
644.81	40741.71
644.95	40545.10
645.10	40657.45
645.25	40421.05
645.39	40425.73
645.54	40517.01
645.69	40062.95
645.83	40170.61
645.98	40212.74
646.13	40430.41
646.27	40053.59
646.42	39992.73
646.57	40201.04
646.71	40643.40
646.86	40465.52
647.00	40584.89
647.15	40507.65
647.30	40517.01
647.44	40039.54
647.59	40271.26
647.74	40072.31
647.88	40179.98
648.03	40524.04
648.17	40481.91
648.32	40250.19
648.47	40322.75
648.61	40034.86
648.76	40142.53
648.90	40105.08
649.05	39498.88
649.20	39974.01
649.34	39831.24
649.49	39531.65
649.63	40018.48
649.78	40299.34
649.92	40002.10
650.07	40505.31
650.21	39974.01
650.36	40170.61
650.51	39592.50
650.65	39709.53
650.80	39983.37
650.94	39955.29
651.09	39866.34
651.23	39896.77
651.38	39505.90
651.52	39541.01
651.67	39503.56
651.81	39847.62
651.96	39473.13
652.10	39550.37
652.25	39274.19
652.39	39548.03
652.54	39538.67
652.68	39292.91
652.83	39625.27
652.97	39285.89
653.12	39571.44
653.26	38955.88
653.41	39309.30
653.55	39124.40
653.70	39124.40
653.84	39311.64
653.99	39505.90
654.13	39480.16
654.27	39129.08
654.42	38749.91
654.56	39201.63
654.71	39152.48
654.85	38852.89
655.00	39084.61
655.14	38834.17
655.29	39363.13
655.43	39316.32
655.57	38787.36
655.72	38604.80
655.86	39161.84
656.01	38792.04
656.15	38611.82
656.30	38799.06
656.44	38808.42
656.58	38916.09
656.73	38808.42
656.87	38330.95
657.01	38485.43
657.16	38618.84
657.30	38391.81
657.45	38660.97
657.59	38330.95
657.73	38382.45
657.88	38539.26
658.02	38658.63
658.16	38714.80
658.31	39042.48
658.45	38284.14
658.60	38260.74
658.74	38150.73
658.88	38572.03
659.03	38239.67
659.17	38089.88
659.31	37691.99
659.46	37879.23
659.60	38230.31
659.74	37895.61
659.89	37673.26
660.03	37596.03
660.17	38143.71
660.32	37951.79
660.46	37944.76
660.60	37703.69
660.74	37640.50
660.89	37801.99
661.03	37198.13
661.17	37017.91
661.32	37380.70
661.46	37734.12
661.60	37228.56
661.74	37448.57
661.89	37373.67
662.03	37076.43
662.17	37043.66
662.31	37146.64
662.46	37532.83
662.60	37062.38
662.74	36809.61
662.88	36563.85
663.03	36105.10
663.17	36472.57
663.31	36533.42
663.45	37153.66
663.60	36978.12
663.74	37251.97
663.88	37006.21
664.02	36598.96
664.17	36769.82
664.31	36613.00
664.45	36112.13
664.59	36299.37
664.73	36355.54
664.88	36287.67
665.02	36273.62
665.16	36119.15
665.30	36133.19
665.44	36077.02
665.59	35997.44
665.73	36009.14
665.87	35615.93
666.01	36006.80
666.15	35751.68
666.29	35962.33
666.44	35967.01
666.58	35814.88
666.72	35442.73
666.86	35426.35
667.00	35695.51
667.14	35618.27
667.28	35386.56
667.43	35079.95
667.57	35564.44
667.71	35470.82
667.85	35819.56
667.99	35601.89
668.13	34871.64
668.27	34998.03
668.41	34675.04
668.56	34829.51
668.70	34941.86
668.84	34483.11
668.98	34782.70
669.12	34852.92
669.26	35115.06
669.40	34408.22
669.54	34504.18
669.68	34731.21
669.82	34602.48
669.96	33905.00
670.10	34078.20
670.25	34022.03
670.39	34384.81
670.53	33965.85
670.67	33813.72
670.81	34099.26
670.95	34265.44
671.09	34218.63
671.23	33703.71
671.37	33869.89
671.51	33846.49
671.65	33226.24
671.79	33605.41
671.93	33364.34
672.07	33448.60
672.21	33448.60
672.35	33153.69
672.49	33174.75
672.63	33179.43
672.77	32914.95
672.91	32921.98
673.05	32582.60
673.19	32781.54
673.33	32334.50
673.47	32783.88
673.61	32409.40
673.75	32439.82
673.89	32182.37
674.03	32540.47
674.17	32046.62
674.31	32224.50
674.45	32222.16
674.59	32142.58
674.73	31681.49
674.87	31744.69
675.01	31543.40
675.15	31630.00
675.29	31438.08
675.43	31718.94
675.56	31791.50
675.70	31536.38
675.84	31468.50
675.98	30246.74
676.12	31255.51
676.26	30979.33
676.40	31147.85
676.54	30848.26
676.68	30871.67
676.82	30342.70
676.96	30136.74
677.10	30817.83
677.23	30469.09
677.37	30560.37
677.51	30426.96
677.65	29942.47
677.79	30389.52
677.93	30174.19
678.07	30209.29
678.21	29656.93
678.34	29937.79
678.48	29687.36
678.62	29528.20
678.76	29589.05
678.90	29343.30
679.04	29497.77
679.18	29809.06
679.31	29209.89
679.45	29165.42
679.59	28966.47
679.73	28985.19
679.87	28819.02
680.00	29050.73
680.14	28863.49
680.28	28870.51
680.42	28606.03
680.56	28217.50
680.70	28051.32
680.83	27990.47
680.97	27737.69
681.11	27702.58
681.25	27791.52
681.39	27859.40
681.52	27749.39
681.66	27360.86
681.80	26930.20
681.94	26969.99
682.07	27283.62
682.21	27117.45
682.35	27143.19
682.49	27110.43
682.62	26962.97
682.76	27056.59
682.90	26895.10
683.04	26534.65
683.17	26630.62
683.31	26216.34
683.45	26199.96
683.59	25965.90
683.72	25930.80
683.86	25692.06
684.00	25841.85
684.13	25706.10
684.27	25610.14
684.41	25551.63
684.55	25752.91
684.68	25455.67
684.82	25216.93
684.96	25223.95
685.09	25113.95
685.23	25184.16
685.37	25642.91
685.50	25348.00
685.64	25507.16
685.78	24758.19
685.91	24769.89
686.05	24702.01
686.19	24053.69
686.32	24245.61
686.46	24056.03
686.60	24128.58
686.73	24297.10
686.87	24198.80
687.01	24205.82
687.14	24081.77
687.28	23934.32
687.42	23796.23
687.55	23527.06
687.69	23608.98
687.82	23674.52
687.96	23110.45
688.10	23630.05
688.23	23733.03
688.37	23426.42
688.50	23026.19
688.64	23110.45
688.78	23075.34
688.91	22925.55
689.05	23175.98
689.18	22548.72
689.32	22178.92
689.46	22377.86
689.59	22462.12
689.73	22504.25
689.86	22403.61
690.00	22441.06
690.13	22181.26
690.27	21951.88
690.41	22272.54
690.54	21696.77
690.68	21727.19
690.81	21649.96
690.95	21233.34
691.08	21612.51
691.22	21429.94
691.35	21404.20
691.49	21518.89
691.62	21097.59
691.76	21022.69
691.89	20772.25
692.03	20475.01
692.16	20482.03
692.30	20329.89
692.43	20807.36
692.57	20376.70
692.70	20170.74
692.84	20210.53
692.97	20152.01
693.11	20077.12
693.24	19786.89
693.38	19770.51
693.51	19875.83
693.65	20009.24
693.78	19377.30
693.92	19515.39
694.05	19653.48
694.19	19515.39
694.32	19332.82
694.45	19398.36
694.59	19475.60
694.72	19171.33
694.86	19255.59
694.99	19068.34
695.13	18764.07
695.26	18768.76
695.39	18588.53
695.53	18579.17
695.66	18735.99
695.80	18412.99
695.93	18518.32
696.07	18321.71
696.20	18204.69
696.33	17841.90
696.47	17774.03
696.60	17898.08
696.73	18087.66
696.87	17970.63
697.00	17867.65
697.14	17465.08
697.27	17820.84
697.40	17582.10
697.54	17130.38
697.67	17593.81
697.80	17486.14
697.94	17043.78
698.07	17032.08
698.21	17135.06
698.34	16891.65
698.47	16772.28
698.61	16542.91
698.74	16177.78
698.87	16468.01
699.01	16212.89
699.14	16219.91
699.27	16442.26
699.40	16077.14
699.54	16065.44
699.67	16088.84
699.80	16327.58
699.94	15955.43
700.07	16355.66
700.20	15955.43
700.34	15864.15
700.47	15735.42
700.60	15861.81
700.73	15704.99
700.87	15384.34
701.00	15267.31
701.13	15267.31
701.26	15143.27
701.40	15063.69
701.53	15435.83
701.66	14984.11
701.79	15117.52
701.93	14614.30
702.06	14548.77
702.19	14710.27
702.32	15021.56
702.46	14757.08
702.59	14977.09
702.72	14747.72
702.85	14710.27
702.99	14389.61
703.12	14368.55
703.25	14019.81
703.38	14148.54
703.51	14125.13
703.65	14111.09
703.78	13682.77
703.91	13867.67
704.04	13528.30
704.17	13685.11
704.31	13572.77
704.44	13514.25
704.57	13376.16
704.70	13467.44
704.83	13425.31
704.96	13224.03
705.10	13074.23
705.23	13259.13
>>>>>End Processed Spectral Data<<<<<
