SpectraSuite Data File
++++++++++++++++++++++++++++++++++++
Date: Fri Oct 25 10:48:21 EDT 2013
User: price-jones
Dark Spectrum Present: No
Reference Spectrum Present: No
Number of Sampled Component Spectra: 1
Spectrometers: USB2+H05261
Integration Time (usec): 100000 (USB2+H05261)
Spectra Averaged: 1 (USB2+H05261)
Boxcar Smoothing: 0 (USB2+H05261)
Correct for Electrical Dark: No (USB2+H05261)
Strobe/Lamp Enabled: No (USB2+H05261)
Correct for Detector Non-linearity: No (USB2+H05261)
Correct for Stray Light: No (USB2+H05261)
Number of Pixels in Processed Spectrum: 2048
>>>>>Begin Processed Spectral Data<<<<<
365.73	161.50
365.92	161.50
366.12	161.50
366.32	105.32
366.52	102.98
366.72	56.17
366.91	0.00
367.11	63.19
367.31	25.75
367.51	58.51
367.70	131.07
367.90	65.54
368.10	56.17
368.30	72.56
368.49	60.85
368.69	110.01
368.89	74.90
369.09	63.19
369.28	107.66
369.48	84.26
369.68	53.83
369.87	110.01
370.07	98.30
370.27	119.37
370.47	170.86
370.66	423.64
370.86	409.59
371.06	519.60
371.25	524.28
371.45	449.38
371.65	486.83
371.84	433.00
372.04	449.38
372.24	484.49
372.44	545.34
372.63	531.30
372.83	606.20
373.03	521.94
373.22	550.03
373.42	533.64
373.62	535.98
373.81	578.11
374.01	552.37
374.21	620.24
374.40	629.60
374.60	645.99
374.79	622.58
374.99	578.11
375.19	571.09
375.38	622.58
375.58	585.13
375.78	629.60
375.97	648.33
376.17	657.69
376.37	528.96
376.56	667.05
376.76	615.56
376.95	685.78
377.15	692.80
377.35	753.65
377.54	702.16
377.74	732.59
377.93	608.54
378.13	657.69
378.33	716.20
378.52	624.92
378.72	594.50
378.91	641.31
379.11	685.78
379.31	610.88
379.50	695.14
379.70	753.65
379.89	779.40
380.09	699.82
380.28	734.93
380.48	706.84
380.68	711.52
380.87	674.07
381.07	763.01
381.26	692.80
381.46	685.78
381.65	671.73
381.85	695.14
382.04	690.46
382.24	763.01
382.43	765.36
382.63	746.63
382.83	706.84
383.02	851.96
383.22	781.74
383.41	734.93
383.61	732.59
383.80	814.51
384.00	863.66
384.19	816.85
384.39	868.34
384.58	781.74
384.78	807.48
384.97	842.59
385.17	823.87
385.36	812.17
385.56	849.61
385.75	858.98
385.95	809.83
386.14	863.66
386.34	870.68
386.53	894.08
386.72	812.17
386.92	877.70
387.11	894.08
387.31	891.74
387.50	887.06
387.70	884.72
387.89	926.85
388.09	1020.47
388.28	936.21
388.48	952.60
388.67	976.00
388.86	910.47
389.06	992.39
389.25	999.41
389.45	1102.39
389.64	999.41
389.84	1001.75
390.03	1050.90
390.22	1067.28
390.42	1020.47
390.61	983.02
390.81	1057.92
391.00	1095.37
391.19	1090.69
391.39	1121.12
391.58	1165.59
391.78	1064.94
391.97	1207.72
392.16	1093.03
392.36	1088.35
392.55	968.98
392.75	1090.69
392.94	1060.26
393.13	1001.75
393.33	1067.28
393.52	1191.33
393.71	1142.18
393.91	1221.76
394.10	1217.08
394.29	1261.55
394.49	1153.88
394.68	1303.68
394.88	1259.21
395.07	1266.23
395.26	1294.32
395.46	1294.32
395.65	1280.27
395.84	1196.01
396.04	1359.85
396.23	1224.10
396.42	1226.44
396.62	1266.23
396.81	1299.00
397.00	1153.88
397.19	1378.58
397.39	1387.94
397.58	1511.99
397.77	1418.36
397.97	1521.35
398.16	1392.62
398.35	1537.73
398.55	1476.88
398.74	1483.90
398.93	1593.90
399.12	1600.93
399.32	1530.71
399.51	1577.52
399.70	1694.55
399.90	1610.29
400.09	1739.02
400.28	1610.29
400.47	1661.78
400.67	1755.40
400.86	1753.06
401.05	1774.13
401.24	1802.21
401.44	1809.23
401.63	1762.42
401.82	1813.92
402.01	1795.19
402.21	1750.72
402.40	1736.68
402.59	1774.13
402.78	1806.89
402.97	1837.32
403.17	1935.62
403.36	1926.26
403.55	1886.47
403.74	1907.54
403.93	1914.56
404.13	1886.47
404.32	1935.62
404.51	1987.11
404.70	2097.12
404.89	2031.58
405.09	2071.37
405.28	1966.05
405.47	1977.75
405.66	2001.16
405.85	2078.40
406.05	2043.29
406.24	2062.01
406.43	2118.18
406.62	2134.57
406.81	2235.21
407.00	2064.35
407.20	2059.67
407.39	2157.97
407.58	2256.28
407.77	2272.66
407.96	2284.36
408.15	2303.09
408.34	2321.81
408.54	2455.22
408.73	2410.75
408.92	2291.38
409.11	2382.67
409.30	2335.85
409.49	2377.98
409.68	2441.18
409.87	2298.41
410.07	2223.51
410.26	2427.14
410.45	2562.89
410.64	2583.95
410.83	2476.29
411.02	2560.55
411.21	2605.02
411.40	2588.63
411.59	2649.49
411.78	2675.23
411.98	2619.06
412.17	2773.53
412.36	2792.26
412.55	2700.98
412.74	2719.70
412.93	2794.60
413.12	2731.41
413.31	2977.16
413.50	2850.77
413.69	3033.33
413.88	3136.32
414.07	2995.89
414.26	3021.63
414.45	2911.63
414.64	3082.49
414.83	3094.19
415.02	3101.21
415.22	3178.45
415.41	3169.09
415.60	3227.60
415.79	3225.26
415.98	3445.27
416.17	3400.80
416.36	3358.67
416.55	3431.23
416.74	3468.67
416.93	3304.84
417.12	3337.60
417.31	3496.76
417.50	3363.35
417.69	3538.89
417.88	3557.61
418.07	3541.23
418.26	3506.12
418.45	3574.00
418.64	3716.77
418.83	3606.77
419.02	3672.30
419.21	3599.74
419.39	3691.02
419.58	3684.00
419.77	3637.19
419.96	3817.41
420.15	3803.37
420.34	3667.62
420.53	3833.80
420.72	3871.25
420.91	3946.14
421.10	3932.10
421.29	3988.27
421.48	3922.74
421.67	4016.36
421.86	3925.08
422.05	3946.14
422.24	3892.31
422.43	3857.20
422.61	3985.93
422.80	4067.85
422.99	4035.08
423.18	3948.48
423.37	4229.35
423.56	4163.81
423.75	4098.28
423.94	3829.12
424.13	3810.39
424.32	3929.76
424.50	4007.00
424.69	4032.74
424.88	4135.73
425.07	3999.98
425.26	3887.63
425.45	4119.34
425.64	3983.59
425.83	4002.32
426.01	4138.07
426.20	4007.00
426.39	4018.70
426.58	4203.60
426.77	4112.32
426.96	4091.26
427.15	4145.09
427.33	4201.26
427.52	4154.45
427.71	4133.39
427.90	4133.39
428.09	4327.65
428.28	4367.44
428.46	4283.18
428.65	4376.80
428.84	4315.95
429.03	4440.00
429.22	4229.35
429.40	4212.96
429.59	4278.50
429.78	3911.04
429.97	3913.38
430.16	4187.22
430.34	4271.48
430.53	4154.45
430.72	4318.29
430.91	4308.93
431.10	4432.97
431.28	4596.81
431.47	4713.84
431.66	4629.58
431.85	4610.86
432.03	4709.16
432.22	4856.61
432.41	4676.39
432.60	4844.91
432.79	4826.18
432.97	4873.00
433.16	4938.53
433.35	4685.75
433.54	4840.23
433.72	4767.67
433.91	4730.22
434.10	4882.36
434.28	4947.89
434.47	4919.81
434.66	4922.15
434.85	5116.41
435.03	5153.86
435.22	5240.46
435.41	5231.10
435.59	5170.24
435.78	5032.15
435.97	5294.29
436.16	5195.99
436.34	5294.29
436.53	5467.49
436.72	5357.49
436.90	5364.51
437.09	5228.76
437.28	5217.05
437.46	5259.18
437.65	5280.25
437.84	5376.21
438.02	5439.40
438.21	5373.87
438.40	5270.89
438.58	5502.60
438.77	5650.05
438.96	5582.18
439.14	5790.49
439.33	5680.48
439.52	5741.33
439.70	5804.53
439.89	5671.12
440.08	5956.66
440.26	5914.53
440.45	5764.74
440.63	5994.11
440.82	6054.97
441.01	6001.13
441.19	6232.85
441.38	6204.76
441.57	6415.41
441.75	6399.02
441.94	6466.90
442.12	6387.32
442.31	6586.27
442.50	6649.46
442.68	6509.03
442.87	6473.92
443.05	6502.01
443.24	6736.06
443.43	6600.31
443.61	6628.40
443.80	6871.81
443.98	6441.15
444.17	6431.79
444.35	6785.21
444.54	6806.28
444.73	6677.55
444.91	6656.48
445.10	6686.91
445.28	6579.25
445.47	6612.01
445.65	6679.89
445.84	6597.97
446.02	6787.55
446.21	6583.93
446.39	6743.08
446.58	6817.98
446.77	6815.64
446.95	6586.27
447.14	6853.09
447.32	6843.73
447.51	6927.99
447.69	6799.26
447.88	6939.69
448.06	6925.65
448.25	6942.03
448.43	6923.30
448.62	6869.47
448.80	6808.62
448.99	7002.88
449.17	7056.72
449.36	7164.38
449.54	7122.25
449.73	7150.34
449.91	7363.33
450.10	7386.73
450.28	7508.44
450.46	7536.52
450.65	7618.44
450.83	7353.96
451.02	7454.61
451.20	7389.07
451.39	7449.93
451.57	7335.24
451.76	7456.95
451.94	7517.80
452.13	7655.89
452.31	7386.73
452.49	7293.11
452.68	7459.29
452.86	7208.85
453.05	7555.25
453.23	7522.48
453.42	7644.19
453.60	7398.43
453.78	7688.66
453.97	7440.56
454.15	7618.44
454.34	7550.57
454.52	7721.43
454.70	7695.68
454.89	7719.09
455.07	7686.32
455.26	7742.49
455.44	8077.19
455.62	8098.25
455.81	7887.61
455.99	7960.16
456.17	8030.38
456.36	7896.97
456.54	8196.56
456.73	8360.39
456.91	8248.05
457.09	8358.05
457.28	8393.16
457.46	8245.71
457.64	8393.16
457.83	8353.37
458.01	8243.37
458.19	8444.65
458.38	8383.80
458.56	8514.87
458.74	8486.78
458.93	8498.49
459.11	8571.04
459.29	8446.99
459.48	8601.47
459.66	8552.32
459.84	8573.38
460.03	8788.71
460.21	8606.15
460.39	8613.17
460.57	8636.58
460.76	8762.97
460.94	8826.16
461.12	8814.46
461.31	8868.29
461.49	8875.31
461.67	8664.66
461.85	9090.64
462.04	9015.74
462.22	9521.30
462.40	9139.79
462.59	9128.09
462.77	8898.72
462.95	9200.65
463.13	9219.37
463.32	9350.44
463.50	9247.46
463.68	9296.61
463.86	9198.31
464.05	9195.96
464.23	9100.00
464.41	9174.90
464.59	9186.60
464.78	9462.79
464.96	9380.87
465.14	9179.58
465.32	9378.53
465.50	9406.61
465.69	9635.99
465.87	9476.83
466.05	9465.13
466.23	9310.65
466.41	9425.34
466.60	9818.55
466.78	9451.08
466.96	9518.96
467.14	9486.19
467.32	9680.46
467.51	9748.33
467.69	9481.51
467.87	9530.66
468.05	9944.94
468.23	9734.29
468.41	9678.12
468.60	9738.97
468.78	9680.46
468.96	9818.55
469.14	9961.32
469.32	10033.88
469.50	9722.59
469.69	9823.23
469.87	10108.77
470.05	10076.01
470.23	9905.15
470.41	10054.94
470.59	10083.03
470.77	10143.88
470.95	10122.82
471.14	10415.38
471.32	10099.41
471.50	10626.03
471.68	10347.51
471.86	10485.60
472.04	10714.97
472.22	10890.51
472.40	10679.86
472.58	10576.88
472.77	10773.49
472.95	10834.34
473.13	11185.42
473.31	10906.90
473.49	10771.15
473.67	10864.77
473.85	10909.24
474.03	11131.59
474.21	11222.87
474.39	11190.10
474.57	11281.38
474.75	11571.61
474.93	11510.75
475.12	11480.33
475.30	11520.12
475.48	11569.27
475.66	11754.17
475.84	11712.04
476.02	11878.22
476.20	11770.55
476.38	11941.41
476.56	12037.38
476.74	12084.19
476.92	11981.20
477.10	12126.32
477.28	12430.59
477.46	12463.35
477.64	12395.48
477.82	12730.17
478.00	12957.21
478.18	12957.21
478.36	12802.73
478.54	13191.26
478.72	12966.57
478.90	13081.25
479.08	13444.04
479.26	13418.29
479.44	13633.62
479.62	13348.08
479.80	13802.14
479.98	13799.80
480.16	14003.43
480.34	13731.92
480.52	14090.02
480.70	13947.25
480.88	14134.50
481.06	14298.33
481.24	14064.28
481.41	14864.74
481.59	14712.61
481.77	15059.01
481.95	14705.59
482.13	14897.51
482.31	14941.98
482.49	15255.61
482.67	15180.71
482.85	15548.18
483.03	15510.73
483.21	15658.18
483.39	15555.20
483.57	16107.57
483.74	15997.56
483.92	16163.74
484.10	15859.47
484.28	16432.90
484.46	16276.09
484.64	16739.51
484.82	16498.44
485.00	16685.68
485.18	16599.08
485.35	16938.46
485.53	16449.28
485.71	16540.57
485.89	16760.58
486.07	16545.25
486.25	17008.67
486.43	17212.30
486.61	17317.62
486.78	17713.17
486.96	17771.69
487.14	17951.91
487.32	18043.19
487.50	18410.65
487.68	18621.30
487.85	18831.95
488.03	18654.07
488.21	19143.24
488.39	19215.80
488.57	19054.30
488.75	19541.13
488.92	19496.66
489.10	19697.95
489.28	19812.63
489.46	20189.46
489.64	20245.63
489.81	20264.36
489.99	20814.38
490.17	20819.07
490.35	21020.35
490.53	20809.70
490.70	20896.30
490.88	20842.47
491.06	21294.19
491.24	21481.44
491.41	21322.28
491.59	21369.09
491.77	21242.70
491.95	21565.70
492.13	21926.14
492.30	22202.32
492.48	21914.44
492.66	22560.42
492.84	22396.59
493.01	22871.72
493.19	22162.53
493.37	22710.22
493.54	22789.80
493.72	23082.36
493.90	23124.49
494.08	23421.74
494.25	23793.89
494.43	23847.72
494.61	24133.26
494.79	24173.05
494.96	23786.86
495.14	24088.79
495.32	24095.82
495.49	24514.77
495.67	24304.12
495.85	24713.72
496.02	24971.18
496.20	24802.66
496.38	25078.84
496.55	25130.33
496.73	25654.61
496.91	25656.95
497.09	25546.95
497.26	25656.95
497.44	25446.30
497.62	25923.77
497.79	26216.34
497.97	25813.77
498.14	26218.68
498.32	26082.93
498.50	26176.55
498.67	26473.80
498.85	26597.85
499.03	27164.26
499.20	26810.84
499.38	26993.40
499.56	27349.16
499.73	26951.27
499.91	27192.34
500.08	27388.95
500.26	26888.07
500.44	27524.70
500.61	27187.66
500.79	27204.05
500.97	27756.41
501.14	27892.16
501.32	27693.22
501.49	27981.10
501.67	28245.58
501.84	28238.56
502.02	27892.16
502.20	28460.91
502.37	29013.28
502.55	28379.00
502.72	28706.67
502.90	28748.80
503.07	28594.32
503.25	28573.26
503.43	28699.65
503.60	29163.08
503.78	28781.57
503.95	28917.32
504.13	29181.80
504.30	29565.65
504.48	29413.51
504.65	29914.39
504.83	29923.75
505.01	29666.29
505.18	29956.52
505.36	30356.75
505.53	29914.39
505.71	30614.21
505.88	30506.54
506.06	29977.58
506.23	30644.63
506.41	30150.78
506.58	30485.48
506.76	30635.27
506.93	30689.10
507.11	30969.97
507.28	30635.27
507.46	30309.94
507.63	30841.24
507.81	30969.97
507.98	30967.63
508.16	31243.81
508.33	31512.97
508.50	31803.20
508.68	31325.73
508.85	31531.70
509.03	31606.59
509.20	31819.58
509.38	32060.66
509.55	31995.12
509.73	32065.34
509.90	32348.54
510.08	31569.15
510.25	32109.81
510.42	32402.38
510.60	32311.10
510.77	32631.75
510.95	33029.64
511.12	32683.24
511.30	32407.06
511.47	33291.78
511.64	33385.40
511.82	33242.63
511.99	33074.11
512.17	33404.13
512.34	33076.45
512.51	33338.59
512.69	33598.39
512.86	33336.25
513.04	33921.38
513.21	33406.47
513.38	33509.45
513.56	33385.40
513.73	33490.73
513.90	33806.70
514.08	33673.29
514.25	34370.77
514.43	33668.61
514.60	33977.56
514.77	33956.49
514.95	34366.09
515.12	34162.46
515.29	34347.36
515.47	34841.21
515.64	34817.81
515.81	34721.85
515.99	34527.58
516.16	34646.95
516.33	34050.11
516.51	34316.93
516.68	34291.19
516.85	34225.65
517.03	34373.11
517.20	34717.17
517.37	35133.78
517.54	34941.86
517.72	35145.48
517.89	34857.60
518.06	34738.23
518.24	34527.58
518.41	35096.33
518.58	35360.81
518.75	35424.01
518.93	35908.50
519.10	35370.18
519.27	36212.77
519.45	35615.93
519.62	36385.97
519.79	35749.34
519.96	36067.66
520.14	36376.61
520.31	36053.61
520.48	36535.76
520.65	36032.55
520.83	36715.98
521.00	36568.53
521.17	36999.19
521.34	36987.49
521.52	37312.82
521.69	37352.61
521.86	36912.59
522.03	37024.93
522.20	37156.00
522.38	37354.95
522.55	37394.74
522.72	37146.64
522.89	37167.71
523.07	37359.63
523.24	37717.73
523.41	37530.49
523.58	37455.59
523.75	38354.36
523.92	37998.60
524.10	38342.66
524.27	38504.15
524.44	38047.75
524.61	38462.02
524.78	38557.99
524.96	38352.02
525.13	38359.04
525.30	38696.08
525.47	38677.35
525.64	38576.71
525.81	38593.09
525.98	38492.45
526.16	38373.08
526.33	37752.84
526.50	38738.21
526.67	38110.94
526.84	38410.53
527.01	38462.02
527.18	38242.01
527.36	39187.59
527.53	39290.57
527.70	39400.58
527.87	39377.17
528.04	39131.42
528.21	39449.73
528.38	39337.38
528.55	39992.73
528.72	39796.13
528.89	39536.33
529.07	39665.06
529.24	39461.43
529.41	39501.22
529.58	39402.92
529.75	39283.55
529.92	39974.01
530.09	40086.36
530.26	39920.18
530.43	40201.04
530.60	39840.60
530.77	40091.04
530.94	40509.99
531.11	39981.03
531.28	40081.67
531.46	40744.05
531.63	40706.60
531.80	40474.88
531.97	40414.03
532.14	40634.04
532.31	39964.65
532.48	40144.87
532.65	40477.22
532.82	40514.67
532.99	40832.99
533.16	40570.85
533.33	40746.39
533.50	41088.10
533.67	40942.99
533.84	40840.01
534.01	41045.97
534.18	41062.36
534.35	41296.41
534.52	41261.30
534.69	41027.25
534.86	41291.73
535.03	41495.36
535.20	41975.17
535.37	41890.91
535.54	42347.31
535.71	41408.76
535.88	41551.53
536.05	41584.30
536.22	41755.16
536.38	41759.84
536.55	41607.70
536.72	41918.99
536.89	41916.65
537.06	41757.50
537.23	42298.16
537.40	42110.92
537.57	42036.02
537.74	41991.55
537.91	42333.27
538.08	42101.56
538.25	41619.41
538.42	42476.04
538.59	42204.54
538.75	42054.75
538.92	42064.11
539.09	42213.90
539.26	42155.39
539.43	42440.93
539.60	42328.59
539.77	42550.94
539.94	42546.26
540.11	42234.97
540.28	42401.14
540.44	42211.56
540.61	42157.73
540.78	42225.60
540.95	42438.59
541.12	42628.18
541.29	42817.76
541.46	43107.99
541.62	42958.19
541.79	43215.65
541.96	42445.62
542.13	42754.57
542.30	43196.93
542.47	43264.80
542.63	42583.71
542.80	43578.43
542.97	43793.76
543.14	43407.58
543.31	43386.51
543.48	43714.19
543.64	44121.44
543.81	43695.46
543.98	43756.32
544.15	43519.92
544.32	43882.70
544.48	44053.56
544.65	43505.88
544.82	43845.26
544.99	43950.58
545.16	44011.43
545.32	43215.65
545.49	44264.21
545.66	44411.67
545.83	44472.52
546.00	44603.59
546.16	43852.28
546.33	43854.62
546.50	43990.37
546.67	44285.28
546.83	43761.00
547.00	43978.67
547.17	43906.11
547.34	44304.00
547.50	44477.20
547.67	44177.61
547.84	44472.52
548.00	44477.20
548.17	44842.32
548.34	44650.40
548.51	44636.36
548.67	44240.81
548.84	44662.10
549.01	44870.41
549.18	44830.62
549.34	44690.19
549.51	45041.27
549.68	44676.15
549.84	44699.55
550.01	44797.85
550.18	45043.61
550.34	44816.58
550.51	44825.94
550.68	44629.34
550.84	44655.08
551.01	45294.05
551.18	44893.82
551.34	45148.93
551.51	45219.15
551.68	45483.63
551.84	45645.13
552.01	44626.99
552.18	44809.56
552.34	45045.95
552.51	45315.11
552.68	45013.18
552.84	45284.68
553.01	46115.58
553.18	45441.50
553.34	45284.68
553.51	45310.43
553.67	45067.02
553.84	46078.13
554.01	45830.03
554.17	46005.57
554.34	45769.18
554.51	45813.65
554.67	45694.28
554.84	45439.16
555.00	45441.50
555.17	45453.20
555.33	45722.37
555.50	45916.63
555.67	46258.35
555.83	46291.12
556.00	45928.33
556.16	46232.60
556.33	45937.69
556.50	45668.53
556.66	45492.99
556.83	45893.22
556.99	45949.40
557.16	45998.55
557.32	46150.68
557.49	45839.39
557.65	45904.93
557.82	46225.58
557.98	45703.64
558.15	45811.31
558.32	45544.48
558.48	45883.86
558.65	46213.88
558.81	45783.22
558.98	46024.29
559.14	46162.39
559.31	46450.27
559.47	46143.66
559.64	46553.26
559.80	46450.27
559.97	46277.07
560.13	45729.39
560.30	46728.80
560.46	46436.23
560.63	46410.48
560.79	46129.62
560.96	46391.76
561.12	46012.59
561.29	46089.83
561.45	46548.57
561.61	46866.89
561.78	46806.03
561.94	46363.67
562.11	46021.95
562.27	46649.22
562.44	46562.62
562.60	46850.50
562.77	47077.54
562.93	47030.72
563.10	46541.55
563.26	46361.33
563.42	46848.16
563.59	46368.35
563.75	46738.16
563.92	47196.90
564.08	46312.18
564.24	46579.00
564.41	46801.35
564.57	46653.90
564.74	46492.40
564.90	46763.90
565.07	46579.00
565.23	46579.00
565.39	46738.16
565.56	46902.00
565.72	46635.17
565.88	46555.60
566.05	46583.68
566.21	46246.65
566.38	47009.66
566.54	46569.64
566.70	47051.79
566.87	47445.00
567.03	46677.30
567.19	47313.93
567.36	46651.56
567.52	46756.88
567.68	46906.68
567.85	46078.13
568.01	46513.47
568.17	46974.55
568.34	46988.60
568.50	46887.95
568.66	46511.13
568.83	46258.35
568.99	46855.18
569.15	47122.01
569.32	46487.72
569.48	46923.06
569.64	46948.81
569.81	46878.59
569.97	46934.76
570.13	47243.71
570.30	46693.69
570.46	46464.32
570.62	46433.89
570.78	46904.34
570.95	46377.72
571.11	46979.23
571.27	46972.21
571.43	46876.25
571.60	47019.02
571.76	46600.07
571.92	46742.84
572.09	46930.08
572.25	46864.55
572.41	46806.03
572.57	46614.11
572.74	47414.57
572.90	47232.01
573.06	47657.99
573.22	46983.91
573.38	47430.96
573.55	46672.62
573.71	47327.97
573.87	46810.71
574.03	46822.42
574.20	46955.83
574.36	47129.03
574.52	46953.49
574.68	47122.01
574.84	46721.77
575.01	46869.23
575.17	47248.39
575.33	47072.85
575.49	46768.58
575.65	47356.06
575.82	47543.30
575.98	46965.19
576.14	47435.64
576.30	47480.11
576.46	47075.19
576.62	47180.52
576.79	47084.56
576.95	46646.88
577.11	47028.38
577.27	46775.61
577.43	47164.14
577.59	46883.27
577.75	47173.50
577.92	46855.18
578.08	46609.43
578.24	46848.16
578.40	46873.91
578.56	47065.83
578.72	47222.65
578.88	47454.36
579.04	47004.98
579.21	47255.42
579.37	47138.39
579.53	46789.65
579.69	46857.52
579.85	46967.53
580.01	47173.50
580.17	47278.82
580.33	47110.30
580.49	47264.78
580.65	47669.69
580.82	47269.46
580.98	47012.00
581.14	47178.18
581.30	47114.98
581.46	46941.78
581.62	47049.45
581.78	46967.53
581.94	47435.64
582.10	47016.68
582.26	47435.64
582.42	47449.68
582.58	47337.33
582.74	47061.15
582.90	47206.26
583.06	47714.16
583.22	47466.06
583.38	47782.04
583.54	47187.54
583.70	47220.31
583.86	47201.58
584.02	46827.10
584.18	47290.52
584.34	46990.94
584.50	47271.80
584.66	47426.28
584.82	46911.36
584.98	47346.70
585.14	47302.23
585.30	47143.07
585.46	47192.22
585.62	47232.01
585.78	46862.21
585.94	46768.58
586.10	46892.63
586.26	47061.15
586.42	47267.12
586.58	47185.20
586.74	47550.32
586.90	47147.75
587.06	46955.83
587.22	47117.32
587.38	46887.95
587.54	46972.21
587.70	47423.93
587.86	46944.12
588.02	47241.37
588.18	47447.34
588.34	46974.55
588.49	46639.86
588.65	46927.74
588.81	46721.77
588.97	46724.11
589.13	46803.69
589.29	46955.83
589.45	46948.81
589.61	47452.02
589.77	47164.14
589.93	47182.86
590.08	47325.63
590.24	47196.90
590.40	47599.47
590.56	47763.31
590.72	47531.60
590.88	47091.58
591.04	47707.14
591.20	47714.16
591.35	47676.71
591.51	47599.47
591.67	47295.21
591.83	47491.81
591.99	47175.84
592.15	47416.91
592.31	47519.90
592.46	47559.69
592.62	47402.87
592.78	47351.38
592.94	47295.21
593.10	47650.97
593.26	47482.45
593.41	47351.38
593.57	47402.87
593.73	47168.82
593.89	47414.57
594.05	47253.08
594.20	47213.29
594.36	47688.42
594.52	47056.47
594.68	47435.64
594.84	47503.51
594.99	47667.35
595.15	47702.46
595.31	47739.91
595.47	47475.43
595.62	47459.04
595.78	47697.78
595.94	47796.08
596.10	47473.09
596.25	47512.88
596.41	47629.90
596.57	47468.40
596.73	47849.91
596.88	47498.83
597.04	47791.40
597.20	47159.45
597.36	47569.05
597.51	47657.99
597.67	47449.68
597.83	47468.40
597.99	47646.29
598.14	47634.58
598.30	47292.86
598.46	47290.52
598.61	47522.24
598.77	47337.33
598.93	47363.08
599.09	47288.18
599.24	47952.90
599.40	47559.69
599.56	47356.06
599.71	47765.65
599.87	47562.03
600.03	47196.90
600.18	47215.63
600.34	47449.68
600.50	47009.66
600.65	47538.62
600.81	47791.40
600.97	47503.51
601.12	47887.36
601.28	47599.47
601.44	47547.98
601.59	47194.56
601.75	46887.95
601.91	47112.64
602.06	46990.94
602.22	47615.86
602.37	47386.49
602.53	47304.57
602.69	47938.85
602.84	47655.65
603.00	47475.43
603.16	47435.64
603.31	47477.77
603.47	47753.95
603.62	47199.24
603.78	47402.87
603.94	47276.48
604.09	47943.53
604.25	47611.18
604.40	47281.16
604.56	47033.07
604.71	47271.80
604.87	47316.27
605.03	47533.94
605.18	47421.59
605.34	47253.08
605.49	47229.67
605.65	47655.65
605.80	47213.29
605.96	47274.14
606.12	47419.25
606.27	47344.36
606.43	47215.63
606.58	47323.29
606.74	46960.51
606.89	46834.12
607.05	47232.01
607.20	47271.80
607.36	47452.02
607.51	47487.13
607.67	46883.27
607.82	47400.53
607.98	46937.10
608.13	47030.72
608.29	47269.46
608.44	46843.48
608.60	46773.27
608.75	47007.32
608.91	46878.59
609.06	47035.41
609.22	47173.50
609.37	47391.17
609.53	46986.25
609.68	46974.55
609.84	47182.86
609.99	46927.74
610.15	46831.78
610.30	46630.49
610.46	46574.32
610.61	46628.15
610.76	46845.82
610.92	46838.80
611.07	46398.78
611.23	46504.10
611.38	46469.00
611.54	46518.15
611.69	46293.46
611.84	46382.40
612.00	46298.14
612.15	46347.29
612.31	46595.38
612.46	46293.46
612.62	46738.16
612.77	46845.82
612.92	46674.96
613.08	46136.64
613.23	46192.81
613.39	46316.86
613.54	46326.22
613.69	46660.92
613.85	46225.58
614.00	46497.08
614.15	46330.90
614.31	46534.53
614.46	46738.16
614.62	46466.66
614.77	46433.89
614.92	46703.05
615.08	45963.44
615.23	46274.73
615.38	46085.15
615.54	45808.96
615.69	46248.99
615.84	45406.39
616.00	45652.15
616.15	45619.38
616.30	46354.31
616.46	45661.51
616.61	45647.47
616.76	45799.60
616.92	45893.22
617.07	45708.32
617.22	45605.34
617.37	45677.90
617.53	45666.19
617.68	45935.35
617.83	45914.29
617.99	46344.95
618.14	45785.56
618.29	45642.79
618.45	45436.82
618.60	45684.92
618.75	45734.07
618.90	45755.13
619.06	45425.12
619.21	45469.59
619.36	45813.65
619.51	45577.25
619.67	45272.98
619.82	45453.20
619.97	45801.94
620.12	45202.77
620.28	45233.19
620.43	45542.14
620.58	45357.24
620.73	45144.25
620.89	45151.27
621.04	45099.78
621.19	45137.23
621.34	45027.23
621.49	45170.00
621.65	44966.37
621.80	45242.56
621.95	45022.54
622.10	45371.28
622.25	44989.78
622.41	44839.98
622.56	45230.85
622.71	45242.56
622.86	44657.42
623.01	45031.91
623.16	44959.35
623.32	44928.92
623.47	45013.18
623.62	44903.18
623.77	44964.03
623.92	44308.68
624.07	44334.43
624.23	44350.81
624.38	44292.30
624.53	44687.85
624.68	44404.64
624.83	44598.91
624.98	45184.04
625.13	44439.75
625.29	44229.10
625.44	44968.71
625.59	44788.49
625.74	44147.18
625.89	43704.82
626.04	43679.08
626.19	44390.60
626.34	44301.66
626.49	43866.32
626.65	44079.31
626.80	44215.06
626.95	43978.67
627.10	43906.11
627.25	43695.46
627.40	43573.75
627.55	43229.69
627.70	43524.60
627.85	43746.95
628.00	43662.69
628.15	43885.04
628.30	43765.68
628.45	43653.33
628.60	43697.80
628.76	43812.49
628.91	44142.50
629.06	43653.33
629.21	43540.99
629.36	42913.72
629.51	43693.12
629.66	43395.87
629.81	42981.60
629.96	43555.03
630.11	43463.75
630.26	43215.65
630.41	43253.10
630.56	43374.81
630.71	43323.32
630.86	43428.64
631.01	43070.54
631.16	43316.29
631.31	42876.27
631.46	42796.70
631.61	43304.59
631.76	43115.01
631.91	43033.09
632.06	43442.68
632.21	43548.01
632.36	43416.94
632.51	42941.81
632.66	43082.24
632.81	42684.35
632.96	43133.73
633.10	42909.04
633.25	42401.14
633.40	42887.98
633.55	42913.72
633.70	42930.11
633.85	42906.70
634.00	42923.08
634.15	42476.04
634.30	42815.42
634.45	42902.02
634.60	42848.19
634.75	43131.39
634.90	42951.17
635.05	42628.18
635.19	43129.05
635.34	43002.66
635.49	42602.43
635.64	42274.76
635.79	42239.65
635.94	42473.70
636.09	42749.88
636.24	42160.07
636.39	42183.48
636.53	42574.34
636.68	41748.14
636.83	41947.08
636.98	42220.92
637.13	41844.10
637.28	42635.20
637.43	42347.31
637.57	42351.99
637.72	42541.58
637.87	42174.11
638.02	42391.78
638.17	42071.13
638.32	41663.88
638.46	41691.96
638.61	41663.88
638.76	41680.26
638.91	41797.29
639.06	41764.52
639.20	41975.17
639.35	42129.64
639.50	41923.68
639.65	41923.68
639.80	41853.46
639.94	41797.29
640.09	41792.61
640.24	41612.38
640.39	41443.87
640.54	41509.40
640.68	41212.15
640.83	41631.11
640.98	41717.71
641.13	41413.44
641.27	41464.93
641.42	41509.40
641.57	41502.38
641.72	41247.26
641.86	40950.01
642.01	41553.87
642.16	41619.41
642.31	41205.13
642.45	41642.81
642.60	40975.76
642.75	40821.28
642.90	40847.03
643.04	40900.86
643.19	40825.96
643.34	41001.50
643.48	40914.90
643.63	41188.75
643.78	40947.67
643.93	41155.98
644.07	41230.88
644.22	41003.85
644.37	40381.26
644.51	40999.16
644.66	40872.78
644.81	41132.57
644.95	40978.10
645.10	40847.03
645.25	41109.17
645.39	40577.87
645.54	40861.07
645.69	40453.82
645.83	40374.24
645.98	40727.66
646.13	40671.49
646.27	40758.09
646.42	40449.14
646.57	40224.45
646.71	40610.64
646.86	39943.58
647.00	40767.45
647.15	40226.79
647.30	40416.37
647.44	40594.25
647.59	40334.45
647.74	40182.32
647.88	39779.74
648.03	40280.62
648.17	40247.85
648.32	39817.19
648.47	40163.59
648.61	40187.00
648.76	40128.48
648.90	40533.40
649.05	40013.80
649.20	40098.06
649.34	39735.27
649.49	39964.65
649.63	40144.87
649.78	40105.08
649.92	39969.33
650.07	40502.97
650.21	39718.89
650.36	40247.85
650.51	39716.55
650.65	40119.12
650.80	40243.17
650.94	40147.21
651.09	40088.70
651.23	39859.32
651.38	39498.88
651.52	39716.55
651.67	39620.59
651.81	39629.95
651.96	39342.06
652.10	39365.47
652.25	39688.46
652.39	39316.32
652.54	39384.19
652.68	39737.62
652.83	39629.95
652.97	39515.26
653.12	39899.11
653.26	39414.62
653.41	39225.04
653.55	39358.45
653.70	39313.98
653.84	39651.02
653.99	39672.08
654.13	39136.10
654.27	39299.94
654.42	39426.32
654.56	39098.65
654.71	38888.00
654.85	38930.13
655.00	38913.75
655.14	39028.43
655.29	38782.68
655.43	38653.95
655.57	38609.48
655.72	38272.44
655.86	38433.94
656.01	38546.28
656.15	38553.30
656.30	38490.11
656.44	38452.66
656.58	38246.69
656.73	38178.82
656.87	38471.39
657.01	37858.17
657.16	37734.12
657.30	38426.92
657.45	37837.10
657.59	38335.63
657.73	38122.65
657.88	38356.70
658.02	38382.45
658.16	38176.48
658.31	38630.54
658.45	38565.01
658.60	37893.27
658.74	38298.19
658.88	37928.38
659.03	38092.22
659.17	38000.94
659.31	38050.09
659.46	37886.25
659.60	38017.32
659.74	37752.84
659.89	37357.29
660.03	37495.38
660.17	37380.70
660.32	37663.90
660.46	38190.52
660.60	38026.68
660.74	37879.23
660.89	37598.37
661.03	37258.99
661.17	37406.44
661.32	36769.82
661.46	37317.50
661.60	36884.50
661.74	37200.47
661.89	37284.73
662.03	37179.41
662.17	36964.08
662.31	37050.68
662.46	36830.67
662.60	36732.37
662.74	37179.41
662.88	36989.83
663.03	36458.52
663.17	36510.02
663.31	36481.93
663.45	36844.71
663.60	36671.51
663.74	36500.65
663.88	36334.48
664.02	35983.40
664.17	36334.48
664.31	36165.96
664.45	36294.69
664.59	36407.03
664.73	36238.51
664.88	36304.05
665.02	35583.16
665.16	36367.24
665.30	36191.70
665.44	35988.08
665.59	35885.09
665.73	35768.07
665.87	36009.14
666.01	35660.40
666.15	35693.17
666.29	36016.16
666.44	35983.40
666.58	35625.29
666.72	35569.12
666.86	35679.13
667.00	35344.43
667.14	34972.28
667.28	35494.22
667.43	35213.36
667.57	34902.07
667.71	35129.10
667.85	34930.16
667.99	34705.46
668.13	34536.94
668.27	34785.04
668.41	35173.57
668.56	34955.90
668.70	34686.74
668.84	34478.43
668.98	34176.50
669.12	34567.37
669.26	34660.99
669.40	34117.99
669.54	33809.04
669.68	34178.84
669.82	34122.67
669.96	34167.14
670.10	33984.58
670.25	34361.40
670.39	33965.85
670.53	33778.61
670.67	33560.94
670.81	33942.45
670.95	34087.56
671.09	33977.56
671.23	34059.48
671.37	33584.35
671.51	33589.03
671.65	33773.93
671.79	33380.72
671.93	33228.59
672.07	33710.74
672.21	33312.84
672.35	33308.16
672.49	33057.73
672.63	33432.21
672.77	33050.70
672.91	32821.33
673.05	32776.86
673.19	32975.81
673.33	32849.42
673.47	32624.73
673.61	32297.05
673.75	32624.73
673.89	32404.72
674.03	32009.17
674.17	31995.12
674.31	32039.59
674.45	32016.19
674.59	32306.41
674.73	32245.56
674.87	31798.52
675.01	31952.99
675.15	31887.46
675.29	31941.29
675.43	31555.10
675.56	31693.19
675.70	32009.17
675.84	31346.79
675.98	30651.66
676.12	31206.36
676.26	31044.87
676.40	31021.46
676.54	31241.47
676.68	31002.74
676.82	30541.65
676.96	30576.76
677.10	30565.06
677.23	30286.53
677.37	30312.28
677.51	30286.53
677.65	30319.30
677.79	29937.79
677.93	30300.58
678.07	29755.23
678.21	29844.17
678.34	30096.95
678.48	29373.72
678.62	29301.17
678.76	29207.55
678.90	29783.32
679.04	29362.02
679.18	29610.12
679.31	29036.69
679.45	28826.04
679.59	28577.94
679.73	28643.48
679.87	29149.03
680.00	28701.99
680.14	28680.92
680.28	28430.49
680.42	28194.09
680.56	28638.80
680.70	28198.77
680.83	28126.22
680.97	28095.79
681.11	28203.46
681.25	27967.06
681.39	27920.25
681.52	28020.89
681.66	27714.28
681.80	27903.87
681.94	27810.25
682.07	27513.00
682.21	27388.95
682.35	27204.05
682.49	27260.22
682.62	27178.30
682.76	27501.29
682.90	27307.03
683.04	27517.68
683.17	26705.51
683.31	26911.48
683.45	26738.28
683.59	26647.00
683.72	26267.83
683.86	26094.63
684.00	26499.55
684.13	26401.24
684.27	26164.85
684.41	26157.83
684.55	25603.12
684.68	25467.37
684.82	25642.91
684.96	25881.64
685.09	25734.19
685.23	25425.24
685.37	25411.20
685.50	25186.50
685.64	25233.32
685.78	25254.38
685.91	25130.33
686.05	25172.46
686.19	25053.09
686.32	24683.29
686.46	24336.89
686.60	24081.77
686.73	24329.87
686.87	23997.51
687.01	23655.79
687.14	23922.62
687.28	23924.96
687.42	23634.73
687.55	23597.28
687.69	23892.19
687.82	23489.62
687.96	23522.38
688.10	23393.65
688.23	23040.23
688.37	23398.34
688.50	23110.45
688.64	22890.44
688.78	22874.06
688.91	23014.49
689.05	22794.48
689.18	22672.77
689.32	22263.18
689.46	22532.34
689.59	22623.62
689.73	22857.67
689.86	22373.18
690.00	22462.12
690.13	22492.55
690.27	22431.69
690.41	22396.59
690.54	21752.94
690.68	22043.17
690.81	21776.34
690.95	21509.52
691.08	21884.01
691.22	21546.97
691.35	21521.23
691.49	21685.06
691.62	21537.61
691.76	21668.68
691.89	21577.40
692.03	21174.83
692.16	21268.45
692.30	21137.38
692.43	20795.66
692.57	20952.48
692.70	20741.83
692.84	20910.35
692.97	20659.91
693.11	20500.75
693.24	20051.37
693.38	20409.47
693.51	20140.31
693.65	20273.72
693.78	20034.99
693.92	20149.67
694.05	19908.60
694.19	19817.32
694.32	19765.82
694.45	20212.87
694.59	19681.56
694.72	19489.64
694.86	19431.13
694.99	19180.69
695.13	19138.56
695.26	18988.77
695.39	18904.51
695.53	19033.24
695.66	18993.45
695.80	18827.27
695.93	18618.96
696.07	18703.22
696.20	18684.50
696.33	18621.30
696.47	18403.63
696.60	18675.13
696.73	18534.70
696.87	18368.52
697.00	18471.51
697.14	18420.02
697.27	18134.47
697.40	18164.90
697.54	17895.74
697.67	17893.40
697.80	17853.61
697.94	18012.76
698.07	17790.41
698.21	17745.94
698.34	17547.00
698.47	17448.69
698.61	17041.44
698.74	17303.58
698.87	17296.56
699.01	17008.67
699.14	16950.16
699.27	16877.60
699.40	17046.12
699.54	16753.55
699.67	16648.23
699.80	16613.12
699.94	16695.04
700.07	16376.73
700.20	16240.98
700.34	16449.28
700.47	16301.83
700.60	16507.80
700.73	16217.57
700.87	16098.20
701.00	16245.66
701.13	15833.72
701.26	15976.50
701.40	15910.96
701.53	15592.65
701.66	15838.41
701.79	15569.24
701.93	15382.00
702.06	15316.47
702.19	15262.63
702.32	15503.71
702.46	15262.63
702.59	15353.91
702.72	15164.33
702.85	15166.67
702.99	15201.78
703.12	15166.67
703.25	14839.00
703.38	14995.81
703.51	15084.75
703.65	14672.82
703.78	14738.35
703.91	14712.61
704.04	14429.40
704.17	14541.75
704.31	14274.93
704.44	13921.51
704.57	14001.08
704.70	14071.30
704.83	14139.18
704.96	14328.76
705.10	14328.76
705.23	14183.65
>>>>>End Processed Spectral Data<<<<<
