SpectraSuite Data File
++++++++++++++++++++++++++++++++++++
Date: Fri Oct 25 10:47:05 EDT 2013
User: price-jones
Dark Spectrum Present: No
Reference Spectrum Present: No
Number of Sampled Component Spectra: 1
Spectrometers: USB2+H05261
Integration Time (usec): 100000 (USB2+H05261)
Spectra Averaged: 1 (USB2+H05261)
Boxcar Smoothing: 0 (USB2+H05261)
Correct for Electrical Dark: No (USB2+H05261)
Strobe/Lamp Enabled: No (USB2+H05261)
Correct for Detector Non-linearity: No (USB2+H05261)
Correct for Stray Light: No (USB2+H05261)
Number of Pixels in Processed Spectrum: 2048
>>>>>Begin Processed Spectral Data<<<<<
365.73	156.82
365.92	156.82
366.12	156.82
366.32	35.11
366.52	0.00
366.72	100.64
366.91	11.70
367.11	16.38
367.31	60.85
367.51	46.81
367.70	4.68
367.90	16.38
368.10	2.34
368.30	49.15
368.49	11.70
368.69	91.28
368.89	77.24
369.09	51.49
369.28	107.66
369.48	30.43
369.68	131.07
369.87	53.83
370.07	42.13
370.27	117.03
370.47	177.88
370.66	372.15
370.86	381.51
371.06	381.51
371.25	486.83
371.45	465.77
371.65	402.57
371.84	404.91
372.04	514.92
372.24	447.04
372.44	500.87
372.63	526.62
372.83	461.09
373.03	468.11
373.22	468.11
373.42	479.81
373.62	524.28
373.81	554.71
374.01	503.22
374.21	550.03
374.40	465.77
374.60	526.62
374.79	472.79
374.99	554.71
375.19	512.58
375.38	484.49
375.58	571.09
375.78	566.41
375.97	552.37
376.17	617.90
376.37	564.07
376.56	627.26
376.76	521.94
376.95	517.26
377.15	655.35
377.35	575.77
377.54	578.11
377.74	606.20
377.93	622.58
378.13	568.75
378.33	624.92
378.52	568.75
378.72	741.95
378.91	608.54
379.11	725.57
379.31	575.77
379.50	554.71
379.70	674.07
379.89	690.46
380.09	631.94
380.28	645.99
380.48	667.05
380.68	592.16
380.87	629.60
381.07	657.69
381.26	699.82
381.46	746.63
381.65	660.03
381.85	645.99
382.04	669.39
382.24	629.60
382.43	755.99
382.63	641.31
382.83	723.23
383.02	777.06
383.22	709.18
383.41	650.67
383.61	730.25
383.80	772.38
384.00	727.91
384.19	753.65
384.39	720.88
384.58	732.59
384.78	800.46
384.97	791.10
385.17	791.10
385.36	758.33
385.56	777.06
385.75	657.69
385.95	760.67
386.14	798.12
386.34	802.80
386.53	854.30
386.72	795.78
386.92	894.08
387.11	873.02
387.31	770.04
387.50	833.23
387.70	770.04
387.89	788.76
388.09	774.72
388.28	863.66
388.48	777.06
388.67	816.85
388.86	875.36
389.06	805.14
389.25	931.53
389.45	903.45
389.64	903.45
389.84	898.77
390.03	931.53
390.22	922.17
390.42	945.58
390.61	912.81
390.81	924.51
391.00	908.13
391.19	910.47
391.39	1039.20
391.58	938.55
391.78	1053.24
391.97	1046.22
392.16	849.61
392.36	987.71
392.55	1015.79
392.75	940.90
392.94	994.73
393.13	1032.18
393.33	985.37
393.52	1001.75
393.71	992.39
393.91	1057.92
394.10	950.26
394.29	1139.84
394.49	1102.39
394.68	1142.18
394.88	997.07
395.07	1137.50
395.26	1111.75
395.46	1156.22
395.65	1224.10
395.84	1137.50
396.04	1196.01
396.23	1109.41
396.42	1170.27
396.62	1188.99
396.81	1137.50
397.00	1160.91
397.19	1224.10
397.39	1247.51
397.58	1263.89
397.77	1259.21
397.97	1308.36
398.16	1331.76
398.35	1324.74
398.55	1343.47
398.74	1320.06
398.93	1352.83
399.12	1371.55
399.32	1350.49
399.51	1369.21
399.70	1385.60
399.90	1401.98
400.09	1434.75
400.28	1458.15
400.47	1420.71
400.67	1465.18
400.86	1432.41
401.05	1507.30
401.24	1530.71
401.44	1469.86
401.63	1533.05
401.82	1643.06
402.01	1519.01
402.21	1645.40
402.40	1472.20
402.59	1629.01
402.78	1572.84
402.97	1591.56
403.17	1509.65
403.36	1624.33
403.55	1584.54
403.74	1600.93
403.93	1614.97
404.13	1614.97
404.32	1710.93
404.51	1643.06
404.70	1706.25
404.89	1708.59
405.09	1717.95
405.28	1816.26
405.47	1783.49
405.66	1834.98
405.85	1888.81
406.05	1757.74
406.24	1816.26
406.43	1832.64
406.62	1811.57
406.81	1916.90
407.00	1912.22
407.20	1813.92
407.39	1912.22
407.58	1820.94
407.77	1884.13
407.96	1952.01
408.15	1987.11
408.34	1968.39
408.54	1942.64
408.73	2078.40
408.92	2104.14
409.11	2024.56
409.30	2139.25
409.49	2045.63
409.68	2066.69
409.87	2073.71
410.07	2104.14
410.26	2237.55
410.45	2104.14
410.64	2155.63
410.83	2275.00
411.02	2211.81
411.21	2342.88
411.40	2359.26
411.59	2359.26
411.78	2272.66
411.98	2244.57
412.17	2483.31
412.36	2415.43
412.55	2462.24
412.74	2485.65
412.93	2424.80
413.12	2525.44
413.31	2588.63
413.50	2562.89
413.69	2590.97
413.88	2626.08
414.07	2600.34
414.26	2621.40
414.45	2677.57
414.64	2633.10
414.83	2747.79
415.02	2684.59
415.22	2731.41
415.41	2871.84
415.60	2724.38
415.79	2820.35
415.98	2876.52
416.17	2822.69
416.36	2864.82
416.55	2885.88
416.74	2956.10
416.93	2930.35
417.12	3070.78
417.31	3000.57
417.50	3035.67
417.69	3183.13
417.88	3082.49
418.07	3248.66
418.26	3049.72
418.45	3220.58
418.64	3243.98
418.83	3253.34
419.02	3258.03
419.21	3297.81
419.39	3234.62
419.58	3258.03
419.77	3346.97
419.96	3283.77
420.15	3400.80
420.34	3307.18
420.53	3332.92
420.72	3342.28
420.91	3520.17
421.10	3400.80
421.29	3489.74
421.48	3339.94
421.67	3569.32
421.86	3410.16
422.05	3410.16
422.24	3449.95
422.43	3510.80
422.61	3398.46
422.80	3531.87
422.99	3562.30
423.18	3616.13
423.37	3641.87
423.56	3506.12
423.75	3590.38
423.94	3438.25
424.13	3332.92
424.32	3454.63
424.50	3590.38
424.69	3705.07
424.88	3618.47
425.07	3679.32
425.26	3494.42
425.45	3574.00
425.64	3524.85
425.83	3588.04
426.01	3845.50
426.20	3681.66
426.39	3648.90
426.58	3644.21
426.77	3541.23
426.96	3620.81
427.15	3695.71
427.33	3714.43
427.52	3637.19
427.71	3772.94
427.90	3658.26
428.09	3730.81
428.28	3815.07
428.46	3915.72
428.65	3754.22
428.84	3943.80
429.03	3943.80
429.22	3684.00
429.40	3794.01
429.59	3700.39
429.78	3672.30
429.97	3597.40
430.16	3784.65
430.34	3978.91
430.53	3985.93
430.72	3911.04
430.91	3983.59
431.10	3955.51
431.28	3992.95
431.47	4212.96
431.66	4152.11
431.85	4117.00
432.03	4217.65
432.22	4262.12
432.41	4346.37
432.60	4367.44
432.79	4166.15
432.97	4215.30
433.16	4248.07
433.35	4100.62
433.54	4229.35
433.72	4285.52
433.91	4339.35
434.10	4496.17
434.28	4456.38
434.47	4454.04
434.66	4315.95
434.85	4535.96
435.03	4496.17
435.22	4255.09
435.41	4739.58
435.59	4582.77
435.78	4454.04
435.97	4601.49
436.16	4753.63
436.34	4652.98
436.53	4561.70
436.72	4648.30
436.90	4571.07
437.09	4828.53
437.28	4685.75
437.46	4725.54
437.65	4793.42
437.84	4781.71
438.02	4702.14
438.21	4800.44
438.40	4645.96
438.58	4861.29
438.77	5093.01
438.96	4875.34
439.14	5093.01
439.33	5102.37
439.52	5032.15
439.70	5102.37
439.89	5186.63
440.08	5270.89
440.26	5231.10
440.45	5294.29
440.63	5301.31
440.82	5385.57
441.01	5217.05
441.19	5401.96
441.38	5518.98
441.57	5462.81
441.75	5638.35
441.94	5762.40
442.12	5540.05
442.31	5659.42
442.50	5680.48
442.68	5659.42
442.87	5785.80
443.05	5778.78
443.24	5900.49
443.43	5820.91
443.61	5809.21
443.80	5954.32
443.98	5755.38
444.17	5650.05
444.35	5891.13
444.54	6033.90
444.73	5975.39
444.91	5907.51
445.10	5813.89
445.28	5926.24
445.47	5865.38
445.65	5795.17
445.84	6029.22
446.02	6008.16
446.21	6008.16
446.39	6066.67
446.58	6164.97
446.77	5977.73
446.95	6059.65
447.14	6010.50
447.32	6183.70
447.51	6232.85
447.69	6111.14
447.88	6061.99
448.06	6078.37
448.25	6083.05
448.43	6122.84
448.62	6085.39
448.80	6087.73
448.99	6134.54
449.17	6251.57
449.36	6097.10
449.54	6286.68
449.73	6492.65
449.91	6455.20
450.10	6478.60
450.28	6450.52
450.46	6471.58
450.65	6583.93
450.83	6436.47
451.02	6483.28
451.20	6609.67
451.39	6600.31
451.57	6583.93
451.76	6349.87
451.94	6492.65
452.13	6640.10
452.31	6558.18
452.49	6436.47
452.68	6525.41
452.86	6574.56
453.05	6668.19
453.23	6670.53
453.42	6698.61
453.60	6782.87
453.78	6820.32
453.97	6628.40
454.15	6799.26
454.34	6686.91
454.52	6729.04
454.70	6836.70
454.89	6619.04
455.07	6691.59
455.26	6670.53
455.44	7005.22
455.62	7019.27
455.81	6981.82
455.99	7094.16
456.17	6932.67
456.36	6977.14
456.54	7115.23
456.73	7386.73
456.91	7255.66
457.09	7286.09
457.28	7531.84
457.46	7267.36
457.64	7424.18
457.83	7414.82
458.01	7534.18
458.19	7407.80
458.38	7456.95
458.56	7461.63
458.74	7468.65
458.93	7400.77
459.11	7517.80
459.29	7655.89
459.48	7555.25
459.66	7698.02
459.84	7630.15
460.03	7611.42
460.21	7747.17
460.39	7688.66
460.57	7735.47
460.76	7707.38
460.94	7815.05
461.12	7761.22
461.31	7922.71
461.49	7714.41
461.67	7702.70
461.85	7885.26
462.04	8037.40
462.22	8446.99
462.40	8046.76
462.59	8166.13
462.77	7967.18
462.95	8175.49
463.13	7864.20
463.32	8166.13
463.50	8332.31
463.68	8348.69
463.86	8248.05
464.05	8009.31
464.23	8074.85
464.41	8243.37
464.59	8074.85
464.78	8379.12
464.96	8360.39
465.14	8336.99
465.32	8421.25
465.50	8374.44
465.69	8500.83
465.87	8327.63
466.05	8414.23
466.23	8409.54
466.41	8557.00
466.60	8676.37
466.78	8475.08
466.96	8498.49
467.14	8650.62
467.32	8575.72
467.51	8638.92
467.69	8369.76
467.87	8564.02
468.05	8608.49
468.23	8641.26
468.41	8746.58
468.60	8730.20
468.78	9083.62
468.96	8926.80
469.14	8901.06
469.32	9004.04
469.50	8847.22
469.69	9142.13
469.87	8940.85
470.05	9245.12
470.23	9018.08
470.41	9008.72
470.59	9142.13
470.77	9165.54
470.95	9219.37
471.14	9444.06
471.32	9242.78
471.50	9525.98
471.68	9444.06
471.86	9423.00
472.04	9320.01
472.22	9628.96
472.40	9291.93
472.58	9418.32
472.77	9668.75
472.95	9582.15
473.13	10029.20
473.31	9497.89
473.49	9853.66
473.67	9610.24
473.85	9668.75
474.03	9884.08
474.21	9846.63
474.39	10139.20
474.57	10200.05
474.75	10061.96
474.93	10274.95
475.12	10078.35
475.30	10401.34
475.48	10427.09
475.66	10483.26
475.84	10150.90
476.02	10291.34
476.20	10541.77
476.38	10658.80
476.56	10892.85
476.74	10768.80
476.92	10658.80
477.10	10874.13
477.28	11054.35
477.46	10965.41
477.64	11337.56
477.82	11101.16
478.00	11473.31
478.18	11438.20
478.36	11749.49
478.54	11798.64
478.72	11585.65
478.90	11826.73
479.08	11969.50
479.26	12086.53
479.44	12093.55
479.62	12175.47
479.80	12266.75
479.98	12084.19
480.16	12751.24
480.34	12446.97
480.52	12828.48
480.70	12500.80
480.88	12524.21
481.06	12849.54
481.24	12812.09
481.41	12971.25
481.59	13160.83
481.77	13312.97
481.95	13249.77
482.13	13561.06
482.31	13238.07
482.49	13413.61
482.67	13584.47
482.85	13797.46
483.03	13736.60
483.21	13886.40
483.39	14150.88
483.57	14075.98
483.74	14356.85
483.92	14670.48
484.10	14469.19
484.28	14621.33
484.46	14923.26
484.64	14855.38
484.82	14888.15
485.00	15084.75
485.18	15260.29
485.35	15367.96
485.53	15126.88
485.71	14951.34
485.89	15681.59
486.07	15562.22
486.25	15548.18
486.43	15564.56
486.61	15822.02
486.78	16053.73
486.96	16107.57
487.14	16341.62
487.32	16332.26
487.50	16559.29
487.68	16594.40
487.85	17046.12
488.03	17284.86
488.21	17055.48
488.39	17193.58
488.57	17390.18
488.75	17415.93
488.92	17436.99
489.10	17926.16
489.28	18223.41
489.46	18120.43
489.64	18012.76
489.81	18298.31
489.99	18780.46
490.17	18551.09
490.35	18820.25
490.53	18689.18
490.70	19288.35
490.88	19161.97
491.06	19236.86
491.24	19379.64
491.41	19234.52
491.59	19346.87
491.77	19536.45
491.95	19737.74
492.13	19873.49
492.30	20306.49
492.48	20098.18
492.66	20250.32
492.84	19903.92
493.01	20624.80
493.19	20666.93
493.37	20617.78
493.54	20706.72
493.72	20753.53
493.90	20870.56
494.08	20926.73
494.25	21263.77
494.43	21273.13
494.61	21544.63
494.79	21802.09
494.96	21635.91
495.14	21596.12
495.32	21928.48
495.49	22153.17
495.67	22017.42
495.85	22518.29
496.02	22368.50
496.20	22670.43
496.38	22731.28
496.55	22628.30
496.73	23316.42
496.91	23026.19
497.09	23239.18
497.26	23461.53
497.44	23234.50
497.62	23063.64
497.79	23653.45
497.97	23480.25
498.14	23770.48
498.32	24067.73
498.50	23915.59
498.67	24278.38
498.85	24116.88
499.03	24395.40
499.20	24528.81
499.38	24437.53
499.56	24559.24
499.73	24444.56
499.91	24669.25
500.08	24851.81
500.26	24741.80
500.44	25160.76
500.61	25149.06
500.79	25142.03
500.97	25130.33
501.14	25277.79
501.32	25230.98
501.49	25502.48
501.67	25575.03
501.84	25804.41
502.02	25682.70
502.20	26043.14
502.37	25982.29
502.55	26125.06
502.72	25879.30
502.90	26169.53
503.07	26010.37
503.25	26298.26
503.43	26169.53
503.60	26312.30
503.78	26375.50
503.95	26387.20
504.13	26419.97
504.30	27021.48
504.48	26965.31
504.65	27166.60
504.83	27316.39
505.01	27145.53
505.18	26857.65
505.36	27367.88
505.53	27391.29
505.71	27414.69
505.88	27608.96
506.06	27461.51
506.23	27744.71
506.41	27611.30
506.58	28091.11
506.76	28189.41
506.93	28173.03
507.11	27992.81
507.28	28226.86
507.46	27831.31
507.63	27978.76
507.81	28617.73
507.98	28250.27
508.16	28641.14
508.33	28765.18
508.50	28484.32
508.68	28886.89
508.85	29301.17
509.03	29050.73
509.20	28830.72
509.38	29057.75
509.55	29516.50
509.73	29338.62
509.90	29338.62
510.08	29312.87
510.25	29481.39
510.42	29589.05
510.60	29675.65
510.77	29888.64
510.95	30080.56
511.12	30073.54
511.30	30328.66
511.47	30066.52
511.64	30326.32
511.82	30536.97
511.99	30169.51
512.17	30340.36
512.34	30618.89
512.51	30508.88
512.69	30562.72
512.86	30771.02
513.04	31229.77
513.21	30745.28
513.38	31096.36
513.56	30969.97
513.73	30876.35
513.90	31028.48
514.08	31398.29
514.25	31264.88
514.43	31541.06
514.60	31145.51
514.77	31367.86
514.95	31309.35
515.12	31793.84
515.29	31552.76
515.47	31934.27
515.64	32133.21
515.81	31807.88
515.99	31810.22
516.16	32016.19
516.33	32041.93
516.51	32519.40
516.68	31761.07
516.85	31599.57
517.03	32250.24
517.20	31983.42
517.37	32793.25
517.54	32570.90
517.72	32472.59
517.89	32407.06
518.06	32779.20
518.24	32493.66
518.41	32793.25
518.58	32556.85
518.75	32320.46
518.93	33134.96
519.10	33113.90
519.27	33277.74
519.45	33209.86
519.62	33432.21
519.79	33270.72
519.96	33755.21
520.14	33684.99
520.31	33282.42
520.48	33787.97
520.65	33806.70
520.83	33858.19
521.00	34010.32
521.17	33998.62
521.34	33897.98
521.52	34366.09
521.69	34019.69
521.86	34300.55
522.03	34558.01
522.20	34550.99
522.38	34302.89
522.55	34562.69
522.72	34302.89
522.89	34609.50
523.07	34637.59
523.24	34485.45
523.41	34754.61
523.58	34377.79
523.75	35398.26
523.92	35122.08
524.10	35323.36
524.27	35215.70
524.44	35189.95
524.61	35501.25
524.78	35220.38
524.96	35419.33
525.13	35601.89
525.30	35866.37
525.47	35786.79
525.64	35686.15
525.81	35730.62
525.98	35952.97
526.16	35639.34
526.33	35400.60
526.50	35491.88
526.67	35477.84
526.84	35892.12
527.01	35318.68
527.18	35889.77
527.36	36360.22
527.53	36404.69
527.70	36833.01
527.87	36613.00
528.04	36495.97
528.21	36367.24
528.38	36304.05
528.55	36631.72
528.72	36907.91
528.89	36854.08
529.07	36580.23
529.24	36816.63
529.41	36833.01
529.58	36854.08
529.75	36947.70
529.92	37338.57
530.09	37010.89
530.26	37500.06
530.43	37376.01
530.60	36889.18
530.77	37074.09
530.94	37291.76
531.11	36935.99
531.28	37488.36
531.46	37593.68
531.63	37691.99
531.80	37823.06
531.97	37736.46
532.14	37614.75
532.31	37312.82
532.48	37668.58
532.65	38099.24
532.82	37701.35
532.99	37635.81
533.16	37556.24
533.33	37748.16
533.50	38157.75
533.67	38024.34
533.84	37961.15
534.01	38068.81
534.18	38209.25
534.35	38412.87
534.52	38600.12
534.69	38604.80
534.86	38401.17
535.03	38330.95
535.20	38560.33
535.37	39040.14
535.54	38841.19
535.71	38483.09
535.88	38471.39
536.05	39140.78
536.22	39384.19
536.38	39042.48
536.55	39115.03
536.72	38553.30
536.89	39201.63
537.06	39000.35
537.23	38958.22
537.40	38600.12
537.57	39012.05
537.74	38897.36
537.91	39299.94
538.08	39618.25
538.25	39166.52
538.42	39089.29
538.59	39225.04
538.75	39311.64
538.92	39831.24
539.09	39786.77
539.26	39683.78
539.43	39552.71
539.60	39037.80
539.77	39672.08
539.94	40013.80
540.11	39337.38
540.28	39920.18
540.44	40179.98
540.61	39739.96
540.78	39573.78
540.95	39772.72
541.12	39913.16
541.29	39557.39
541.46	39718.89
541.62	40231.47
541.79	40177.64
541.96	39442.71
542.13	39878.05
542.30	40751.07
542.47	40329.77
542.63	40198.70
542.80	40568.51
542.97	40863.41
543.14	41233.22
543.31	40858.73
543.48	40910.22
543.64	41186.41
543.81	40823.62
543.98	41315.14
544.15	40823.62
544.32	41277.69
544.48	41088.10
544.65	40844.69
544.82	41481.31
544.99	40884.48
545.16	41113.85
545.32	40685.53
545.49	41387.69
545.66	41495.36
545.83	41443.87
546.00	41523.44
546.16	41095.13
546.33	41247.26
546.50	40966.40
546.67	40926.61
546.83	41354.93
547.00	41827.71
547.17	41504.72
547.34	41308.11
547.50	41645.15
547.67	41858.14
547.84	41474.29
548.00	42045.38
548.17	41759.84
548.34	41429.82
548.51	42579.03
548.67	41909.63
548.84	41776.22
549.01	41813.67
549.18	42024.32
549.34	41993.89
549.51	42614.13
549.68	42260.71
549.84	42092.19
550.01	42316.89
550.18	42480.72
550.34	41916.65
550.51	41944.74
550.68	42106.24
550.84	42195.18
551.01	42415.19
551.18	42375.40
551.34	42511.15
551.51	42553.28
551.68	42586.05
551.84	42288.80
552.01	42244.33
552.18	42511.15
552.34	42288.80
552.51	42883.30
552.68	42586.05
552.84	42600.09
553.01	43161.82
553.18	42312.20
553.34	42745.20
553.51	42515.83
553.67	42930.11
553.84	43189.91
554.01	42944.15
554.17	43000.32
554.34	43255.44
554.51	42855.21
554.67	43161.82
554.84	43143.09
555.00	43318.64
555.17	43229.69
555.33	43264.80
555.50	43012.02
555.67	43171.18
555.83	42937.13
556.00	43515.24
556.16	43475.45
556.33	42972.24
556.50	43524.60
556.66	43423.96
556.83	43133.73
556.99	43515.24
557.16	43845.26
557.32	43241.40
557.49	43746.95
557.65	43175.86
557.82	43669.72
557.98	43461.41
558.15	43398.21
558.32	43777.38
558.48	43885.04
558.65	43564.39
558.81	43524.60
558.98	43892.07
559.14	43538.65
559.31	43770.36
559.47	43454.39
559.64	43962.28
559.80	43936.54
559.97	43906.11
560.13	43658.01
560.30	43569.07
560.46	43899.09
560.63	43686.10
560.79	44210.38
560.96	44011.43
561.12	43522.26
561.29	44196.34
561.45	43562.05
561.61	43868.66
561.78	44081.65
561.94	43531.62
562.11	44093.35
562.27	44304.00
562.44	44147.18
562.60	43971.64
562.77	44409.32
562.93	43768.02
563.10	44311.02
563.26	43466.09
563.42	44076.97
563.59	44062.93
563.75	44158.89
563.92	44811.90
564.08	44280.60
564.24	44500.61
564.41	44205.70
564.57	43922.49
564.74	44311.02
564.90	43976.33
565.07	44222.08
565.23	44133.14
565.39	44186.97
565.56	44568.48
565.72	44093.35
565.88	44210.38
566.05	44065.27
566.21	44559.12
566.38	44170.59
566.54	44465.50
566.70	44783.81
566.87	44624.65
567.03	44612.95
567.19	44552.10
567.36	44884.45
567.52	44655.08
567.68	44341.45
567.85	44163.57
568.01	44811.90
568.17	44369.54
568.34	44542.74
568.50	44360.17
568.66	44423.37
568.83	44425.71
568.99	44521.67
569.15	44186.97
569.32	44196.34
569.48	44409.32
569.64	44636.36
569.81	44446.77
569.97	44554.44
570.13	44617.63
570.30	44280.60
570.46	44467.84
570.62	44095.69
570.78	44540.39
570.95	44287.62
571.11	45083.40
571.27	44767.43
571.43	44355.49
571.60	44392.94
571.76	44638.70
571.92	44423.37
572.09	44603.59
572.25	44343.79
572.41	44589.55
572.57	45261.28
572.74	44865.73
572.90	44669.12
573.06	44788.49
573.22	44790.83
573.38	44856.37
573.55	44058.24
573.71	45118.51
573.87	44460.82
574.03	44758.06
574.20	44554.44
574.36	44584.86
574.52	44823.60
574.68	45085.74
574.84	44830.62
575.01	44718.28
575.17	44875.09
575.33	44734.66
575.49	44697.21
575.65	45165.32
575.82	45464.91
575.98	44903.18
576.14	45254.26
576.30	44610.61
576.46	44704.23
576.62	44229.10
576.79	44626.99
576.95	44250.17
577.11	45071.70
577.27	44720.62
577.43	44720.62
577.59	45359.58
577.75	44772.11
577.92	44264.21
578.08	44252.51
578.24	44634.02
578.40	44610.61
578.56	44996.80
578.72	44928.92
578.88	45102.12
579.04	45083.40
579.21	44849.35
579.37	44589.55
579.53	44488.90
579.69	44685.51
579.85	44477.20
580.01	44903.18
580.17	45455.54
580.33	45013.18
580.49	44521.67
580.65	44751.04
580.82	44870.41
580.98	45029.57
581.14	44694.87
581.30	44706.57
581.46	44797.85
581.62	44893.82
581.78	45048.29
581.94	45542.14
582.10	45263.62
582.26	44985.10
582.42	44949.99
582.58	45102.12
582.74	45111.49
582.90	45048.29
583.06	45336.18
583.22	44921.90
583.38	45170.00
583.54	44786.15
583.70	44371.88
583.86	44577.84
584.02	44584.86
584.18	44830.62
584.34	45062.33
584.50	45043.61
584.66	44814.24
584.82	44648.06
584.98	45184.04
585.14	45099.78
585.30	44765.09
585.46	45235.53
585.62	44849.35
585.78	44720.62
585.94	44292.30
586.10	45191.06
586.26	44800.19
586.42	45244.90
586.58	45401.71
586.74	45186.38
586.90	45017.86
587.06	44849.35
587.22	45179.36
587.38	44598.91
587.54	45392.35
587.70	45404.05
587.86	45076.38
588.02	45132.55
588.18	45446.18
588.34	44816.58
588.49	44727.64
588.65	44559.12
588.81	44610.61
588.97	44741.68
589.13	44657.42
589.29	44825.94
589.45	45111.49
589.61	44861.05
589.77	45373.63
589.93	45329.16
590.08	45027.23
590.24	45045.95
590.40	45120.85
590.56	45455.54
590.72	45099.78
590.88	44933.60
591.04	45268.30
591.20	45422.78
591.35	45319.79
591.51	45612.36
591.67	45359.58
591.83	45200.43
591.99	45308.09
592.15	45326.81
592.31	45151.27
592.46	45277.66
592.62	45411.07
592.78	44994.46
592.94	45338.52
593.10	45045.95
593.26	45474.27
593.41	45251.92
593.57	45380.65
593.73	45106.80
593.89	44959.35
594.05	45076.38
594.20	45214.47
594.36	45691.94
594.52	45553.85
594.68	45399.37
594.84	45263.62
594.99	45577.25
595.15	45462.57
595.31	45584.27
595.47	45254.26
595.62	45490.65
595.78	45404.05
595.94	45694.28
596.10	45394.69
596.25	45476.61
596.41	45317.45
596.57	45553.85
596.73	45406.39
596.88	45305.75
597.04	45282.34
597.20	45141.91
597.36	45212.13
597.51	45230.85
597.67	45401.71
597.83	45528.10
597.99	45734.07
598.14	45736.41
598.30	45268.30
598.46	45628.74
598.61	45390.01
598.77	45186.38
598.93	45172.34
599.09	45155.96
599.24	45851.09
599.40	45687.26
599.56	45710.66
599.71	45588.95
599.87	45750.45
600.03	45504.70
600.18	45331.50
600.34	45041.27
600.50	45418.10
600.65	45387.67
600.81	45759.81
600.97	45272.98
601.12	45731.73
601.28	45471.93
601.44	45385.33
601.59	45453.20
601.75	45134.89
601.91	45364.26
602.06	45235.53
602.22	45481.29
602.37	45139.57
602.53	45600.66
602.69	45975.14
602.84	45261.28
603.00	44844.66
603.16	45418.10
603.31	45579.59
603.47	45059.99
603.62	45392.35
603.78	45223.83
603.94	45591.30
604.09	45226.17
604.25	45865.14
604.40	45530.44
604.56	45404.05
604.71	45366.60
604.87	45549.17
605.03	45586.61
605.18	45277.66
605.34	45516.40
605.49	45272.98
605.65	45212.13
605.80	45272.98
605.96	45237.87
606.12	45621.72
606.27	45661.51
606.43	45155.96
606.58	45340.86
606.74	44985.10
606.89	45113.83
607.05	45394.69
607.20	45118.51
607.36	45329.16
607.51	45528.10
607.67	45212.13
607.82	45350.22
607.98	45340.86
608.13	44921.90
608.29	45041.27
608.44	44804.88
608.60	44732.32
608.75	45116.17
608.91	44575.50
609.06	44528.69
609.22	45165.32
609.37	44882.11
609.53	45202.77
609.68	44648.06
609.84	44842.32
609.99	44760.40
610.15	44605.93
610.30	44839.98
610.46	44575.50
610.61	44776.79
610.76	44858.71
610.92	44952.33
611.07	44964.03
611.23	44832.96
611.38	44568.48
611.54	44919.56
611.69	44673.81
611.84	44545.08
612.00	44622.31
612.15	44275.91
612.31	44568.48
612.46	44685.51
612.62	44891.48
612.77	44477.20
612.92	44105.06
613.08	44460.82
613.23	44428.05
613.39	44573.16
613.54	43922.49
613.69	44631.68
613.85	44610.61
614.00	44435.07
614.15	44444.43
614.31	44629.34
614.46	44615.29
614.62	44732.32
614.77	44318.04
614.92	44706.57
615.08	44299.32
615.23	43981.01
615.38	44418.69
615.54	43728.23
615.69	44133.14
615.84	44030.16
616.00	44465.50
616.15	44105.06
616.30	44334.43
616.46	43840.57
616.61	44030.16
616.76	43840.57
616.92	44002.07
617.07	43819.51
617.22	43540.99
617.37	43978.67
617.53	44109.74
617.68	43751.63
617.83	43922.49
617.99	44294.64
618.14	44584.86
618.29	44154.21
618.45	43711.84
618.60	43817.17
618.75	44332.09
618.90	43913.13
619.06	43744.61
619.21	43894.41
619.36	43695.46
619.51	43749.29
619.67	43721.21
619.82	43449.70
619.97	44156.55
620.12	43566.73
620.28	43194.59
620.43	43393.53
620.58	43526.94
620.73	43398.21
620.89	43440.34
621.04	43941.22
621.19	43573.75
621.34	43519.92
621.49	43473.11
621.65	43337.36
621.80	43182.88
621.95	43154.80
622.10	43222.67
622.25	43161.82
622.41	43133.73
622.56	43592.48
622.71	43115.01
622.86	43171.18
623.01	43576.09
623.16	43100.97
623.32	43210.97
623.47	43093.94
623.62	43278.85
623.77	42899.68
623.92	43131.39
624.07	43016.71
624.23	42801.38
624.38	42838.83
624.53	42906.70
624.68	42930.11
624.83	42721.80
624.98	42880.95
625.13	42663.28
625.29	42777.97
625.44	42747.54
625.59	42674.99
625.74	42045.38
625.89	42679.67
626.04	42012.62
626.19	42555.62
626.34	42721.80
626.49	42277.10
626.65	42590.73
626.80	42679.67
626.95	42213.90
627.10	42246.67
627.25	42019.64
627.40	42043.04
627.55	41935.38
627.70	41750.48
627.85	41537.49
628.00	41998.57
628.15	42728.82
628.30	42230.29
628.45	42405.83
628.60	42211.56
628.76	42366.04
628.91	42223.26
629.06	42607.11
629.21	42089.85
629.36	41450.89
629.51	42103.90
629.66	42120.28
629.81	41261.30
629.96	41708.35
630.11	42071.13
630.26	42122.62
630.41	41909.63
630.56	41942.40
630.71	41741.11
630.86	42178.79
631.01	41460.25
631.16	41511.74
631.31	41703.67
631.46	40905.54
631.61	41450.89
631.76	41769.20
631.91	41415.78
632.06	41530.47
632.21	41682.60
632.36	41497.70
632.51	41289.39
632.66	41518.76
632.81	40886.82
632.96	41446.21
633.10	41067.04
633.25	41209.81
633.40	41265.99
633.55	41680.26
633.70	41221.52
633.85	41104.49
634.00	41268.33
634.15	41392.37
634.30	41326.84
634.45	41336.20
634.60	41024.91
634.75	41280.03
634.90	41216.83
635.05	40807.24
635.19	40825.96
635.34	41174.70
635.49	41109.17
635.64	40732.34
635.79	40882.14
635.94	40727.66
636.09	40975.76
636.24	40364.88
636.39	40339.13
636.53	40666.81
636.68	40397.65
636.83	40666.81
636.98	41001.50
637.13	40392.97
637.28	40655.11
637.43	40786.18
637.57	40556.80
637.72	40727.66
637.87	40587.23
638.02	40608.29
638.17	40191.68
638.32	40102.74
638.46	40350.84
638.61	40156.57
638.76	40102.74
638.91	39873.37
639.06	40460.84
639.20	40219.77
639.35	40357.86
639.50	40364.88
639.65	40416.37
639.80	40219.77
639.94	39723.57
640.09	40233.81
640.24	40465.52
640.39	40062.95
640.54	39807.83
640.68	39725.91
640.83	40240.83
640.98	39543.35
641.13	39681.44
641.27	40563.82
641.42	39543.35
641.57	39981.03
641.72	40158.91
641.86	40079.33
642.01	39814.85
642.16	39917.84
642.31	39295.25
642.45	39456.75
642.60	39454.41
642.75	39210.99
642.90	39695.49
643.04	39449.73
643.19	39484.84
643.34	39796.13
643.48	39473.13
643.63	39737.62
643.78	39871.03
643.93	39306.96
644.07	39005.03
644.22	39248.44
644.37	38988.64
644.51	39026.09
644.66	39707.19
644.81	39051.84
644.95	39779.74
645.10	39321.00
645.25	39431.01
645.39	38988.64
645.54	39196.95
645.69	39154.82
645.83	39077.58
645.98	39049.50
646.13	39138.44
646.27	39421.64
646.42	39229.72
646.57	39271.85
646.71	39470.79
646.86	38843.53
647.00	39419.30
647.15	39140.78
647.30	39192.27
647.44	39297.59
647.59	38913.75
647.74	38562.67
647.88	38768.63
648.03	38965.24
648.17	38831.83
648.32	38270.10
648.47	38667.99
648.61	38340.32
648.76	39096.31
648.90	38703.10
649.05	38319.25
649.20	38363.72
649.34	38885.66
649.49	38223.29
649.63	38263.08
649.78	38719.48
649.92	38855.23
650.07	38838.85
650.21	38185.84
650.36	38335.63
650.51	38684.37
650.65	38796.72
650.80	38845.87
650.94	38548.62
651.09	38522.88
651.23	38356.70
651.38	37893.27
651.52	38092.22
651.67	38494.79
651.81	38396.49
651.96	38066.47
652.10	37830.08
652.25	38160.09
652.39	38031.36
652.54	37858.17
652.68	38525.22
652.83	38258.40
652.97	38616.50
653.12	37921.36
653.26	37961.15
653.41	37860.51
653.55	38120.31
653.70	37820.72
653.84	37834.76
653.99	37797.31
654.13	37844.12
654.27	37855.82
654.42	38295.85
654.56	37448.57
654.71	37586.66
654.85	37577.30
655.00	37656.88
655.14	37514.11
655.29	37373.67
655.43	37549.21
655.57	37237.92
655.72	37003.87
655.86	37289.42
656.01	37394.74
656.15	36982.80
656.30	37209.84
656.44	37729.44
656.58	36804.92
656.73	36767.48
656.87	37329.20
657.01	36858.76
657.16	36636.41
657.30	36996.85
657.45	36975.78
657.59	36800.24
657.73	36804.92
657.88	36891.52
658.02	36837.69
658.16	36889.18
658.31	36746.41
658.45	36917.27
658.60	36723.01
658.74	36882.16
658.88	36559.17
659.03	36978.12
659.17	36655.13
659.31	36683.22
659.46	36304.05
659.60	36715.98
659.74	36437.46
659.89	36060.63
660.03	36495.97
660.17	36119.15
660.32	36404.69
660.46	36781.52
660.60	36741.73
660.74	36474.91
660.89	36128.51
661.03	36196.38
661.17	36402.35
661.32	35665.08
661.46	35578.48
661.60	35604.23
661.74	35833.60
661.89	35697.85
662.03	35854.67
662.17	35805.52
662.31	35632.32
662.46	35812.54
662.60	36222.13
662.74	35768.07
662.88	35606.57
663.03	35782.11
663.17	35543.38
663.31	35164.21
663.45	35545.72
663.60	35424.01
663.74	34646.95
663.88	35239.11
664.02	35442.73
664.17	35154.85
664.31	34747.59
664.45	34541.63
664.59	34955.90
664.73	35112.72
664.88	35089.31
665.02	34354.38
665.16	34499.50
665.30	34820.15
665.44	34494.82
665.59	34593.12
665.73	34361.40
665.87	34319.28
666.01	34354.38
666.15	34403.53
666.29	34323.96
666.44	34288.85
666.58	34609.50
666.72	34396.51
666.86	34272.46
667.00	34178.84
667.14	34080.54
667.28	33839.47
667.43	34052.45
667.57	33865.21
667.71	33743.50
667.85	33755.21
667.99	33717.76
668.13	33567.96
668.27	33680.31
668.41	33855.85
668.56	33640.52
668.70	33766.91
668.84	33584.35
668.98	32971.13
669.12	33329.23
669.26	33472.00
669.40	33104.54
669.54	33287.10
669.68	33088.15
669.82	33141.99
669.96	32910.27
670.10	32940.70
670.25	33282.42
670.39	33436.89
670.53	32828.35
670.67	32814.31
670.81	33118.58
670.95	32746.44
671.09	32690.26
671.23	32910.27
671.37	32865.80
671.51	32425.78
671.65	32278.33
671.79	32481.95
671.93	32245.56
672.07	32252.58
672.21	32615.37
672.35	32177.68
672.49	32102.79
672.63	32208.11
672.77	31835.97
672.91	32072.36
673.05	31676.81
673.19	31555.10
673.33	31264.88
673.47	31405.31
673.61	31737.66
673.75	31302.32
673.89	31304.67
674.03	31168.91
674.17	31122.10
674.31	31206.36
674.45	30967.63
674.59	31023.80
674.73	30913.80
674.87	30899.75
675.01	30574.42
675.15	30941.88
675.29	30878.69
675.43	30801.45
675.56	31108.06
675.70	30885.71
675.84	30356.75
675.98	29455.64
676.12	30698.47
676.26	30148.44
676.40	29989.28
676.54	29905.02
676.68	30071.20
676.82	29544.58
676.96	29556.28
677.10	29734.17
677.23	29558.63
677.37	29333.93
677.51	29488.41
677.65	29235.63
677.79	29432.24
677.93	29092.86
678.07	28910.30
678.21	28919.66
678.34	28870.51
678.48	28788.59
678.62	28793.27
678.76	28545.17
678.90	28723.05
679.04	28240.90
679.18	28423.47
679.31	28156.64
679.45	28053.66
679.59	27838.33
679.73	27733.01
679.87	28247.93
680.00	27665.13
680.14	27728.33
680.28	27290.65
680.42	27496.61
680.56	27580.87
680.70	27475.55
680.83	27152.55
680.97	27199.37
681.11	26829.56
681.25	27311.71
681.39	26941.91
681.52	27047.23
681.66	27005.10
681.80	27180.64
681.94	26909.14
682.07	26572.10
682.21	26501.89
682.35	26347.41
682.49	26572.10
682.62	26487.84
682.76	26246.77
682.90	25956.54
683.04	26101.65
683.17	26164.85
683.31	25703.76
683.45	26054.84
683.59	25673.34
683.72	25589.08
683.86	25263.74
684.00	25376.09
684.13	25268.42
684.27	25174.80
684.41	25097.56
684.55	25209.91
684.68	25041.39
684.82	24959.47
684.96	24744.14
685.09	24760.53
685.23	24449.24
685.37	24524.13
685.50	24439.87
685.64	24189.44
685.78	24599.03
685.91	24786.27
686.05	23868.78
686.19	23934.32
686.32	23985.81
686.46	23573.88
686.60	23585.58
686.73	23648.77
686.87	23704.95
687.01	23601.96
687.14	23604.30
687.28	23166.62
687.42	23337.48
687.55	22953.63
687.69	23201.73
687.82	23058.96
687.96	23023.85
688.10	22803.84
688.23	22764.05
688.37	22656.39
688.50	22434.03
688.64	22452.76
688.78	22279.56
688.91	22143.81
689.05	22494.89
689.18	22078.27
689.32	21755.28
689.46	22015.08
689.59	22171.89
689.73	22204.66
689.86	21891.03
690.00	21563.36
690.13	22225.73
690.27	21664.00
690.41	21516.54
690.54	21198.23
690.68	21280.15
690.81	21301.22
690.95	20868.22
691.08	20898.64
691.22	20870.56
691.35	20994.61
691.49	21284.83
691.62	21025.03
691.76	20709.06
691.89	20812.04
692.03	20439.90
692.16	20456.28
692.30	20107.54
692.43	20130.95
692.57	20037.33
692.70	20098.18
692.84	19936.68
692.97	19875.83
693.11	19920.30
693.24	19791.57
693.38	19864.13
693.51	19721.35
693.65	19688.59
693.78	19557.52
693.92	19721.35
694.05	19398.36
694.19	19318.78
694.32	19154.94
694.45	18946.64
694.59	19274.31
694.72	18766.42
694.86	19087.07
694.99	18719.60
695.13	18721.95
695.26	18511.30
695.39	18403.63
695.53	18422.36
695.66	18396.61
695.80	18478.53
695.93	18111.07
696.07	18160.22
696.20	17994.04
696.33	17888.71
696.47	17930.84
696.60	17998.72
696.73	17832.54
696.87	17987.02
697.00	17905.10
697.14	17851.27
697.27	17736.58
697.40	17909.78
697.54	17626.57
697.67	17284.86
697.80	17193.58
697.94	16975.91
698.07	17090.59
698.21	16943.14
698.34	17226.34
698.47	16856.54
698.61	16652.91
698.74	16688.02
698.87	16819.09
699.01	16617.80
699.14	16322.90
699.27	16545.25
699.40	16116.93
699.54	16168.42
699.67	16184.80
699.80	16145.02
699.94	16130.97
700.07	16297.15
700.20	15782.23
700.34	15831.38
700.47	15798.62
700.60	15889.90
700.73	15852.45
700.87	15716.70
701.00	15662.86
701.13	15527.11
701.26	15346.89
701.40	15218.16
701.53	15454.56
701.66	15461.58
701.79	15194.76
701.93	15335.19
702.06	15183.06
702.19	15105.82
702.32	14853.04
702.46	14633.03
702.59	14803.89
702.72	14916.23
702.85	14813.25
702.99	14466.85
703.12	14972.41
703.25	14576.86
703.38	14600.26
703.51	14391.95
703.65	14232.80
703.78	14164.92
703.91	14293.65
704.04	14232.80
704.17	14164.92
704.31	14153.22
704.44	13631.28
704.57	13633.62
704.70	13666.39
704.83	13549.36
704.96	13919.17
705.10	13809.16
705.23	13984.70
>>>>>End Processed Spectral Data<<<<<
