SpectraSuite Data File
++++++++++++++++++++++++++++++++++++
Date: Fri Oct 25 11:34:36 EDT 2013
User: price-jones
Dark Spectrum Present: No
Reference Spectrum Present: No
Number of Sampled Component Spectra: 1
Spectrometers: USB2+H05261
Integration Time (usec): 100000 (USB2+H05261)
Spectra Averaged: 1 (USB2+H05261)
Boxcar Smoothing: 0 (USB2+H05261)
Correct for Electrical Dark: No (USB2+H05261)
Strobe/Lamp Enabled: No (USB2+H05261)
Correct for Detector Non-linearity: No (USB2+H05261)
Correct for Stray Light: No (USB2+H05261)
Number of Pixels in Processed Spectrum: 2048
>>>>>Begin Processed Spectral Data<<<<<
365.73	255.12
365.92	255.12
366.12	255.12
366.32	194.26
366.52	175.54
366.72	203.63
366.91	198.95
367.11	149.79
367.31	133.41
367.51	182.56
367.70	217.67
367.90	255.12
368.10	208.31
368.30	196.60
368.49	187.24
368.69	110.01
368.89	177.88
369.09	147.45
369.28	138.09
369.48	175.54
369.68	248.10
369.87	311.29
370.07	301.93
370.27	372.15
370.47	409.59
370.66	550.03
370.86	486.83
371.06	554.71
371.25	550.03
371.45	521.94
371.65	538.32
371.84	510.24
372.04	552.37
372.24	599.18
372.44	517.26
372.63	585.13
372.83	634.29
373.03	624.92
373.22	613.22
373.42	568.75
373.62	657.69
373.81	613.22
374.01	564.07
374.21	667.05
374.40	713.86
374.60	629.60
374.79	648.33
374.99	610.88
375.19	645.99
375.38	636.63
375.58	638.97
375.78	718.54
375.97	674.07
376.17	660.03
376.37	620.24
376.56	631.94
376.76	669.39
376.95	617.90
377.15	692.80
377.35	671.73
377.54	671.73
377.74	631.94
377.93	641.31
378.13	704.50
378.33	713.86
378.52	683.44
378.72	685.78
378.91	760.67
379.11	697.48
379.31	685.78
379.50	622.58
379.70	737.27
379.89	734.93
380.09	657.69
380.28	702.16
380.48	711.52
380.68	662.37
380.87	709.18
381.07	748.97
381.26	732.59
381.46	781.74
381.65	713.86
381.85	807.48
382.04	718.54
382.24	763.01
382.43	739.61
382.63	662.37
382.83	777.06
383.02	784.08
383.22	760.67
383.41	716.20
383.61	765.36
383.80	781.74
384.00	821.53
384.19	725.57
384.39	809.83
384.58	779.40
384.78	856.64
384.97	800.46
385.17	788.76
385.36	880.04
385.56	887.06
385.75	877.70
385.95	823.87
386.14	798.12
386.34	826.21
386.53	856.64
386.72	807.48
386.92	868.34
387.11	847.27
387.31	908.13
387.50	931.53
387.70	884.72
387.89	947.92
388.09	837.91
388.28	884.72
388.48	901.11
388.67	880.04
388.86	896.43
389.06	837.91
389.25	980.68
389.45	873.02
389.64	880.04
389.84	905.79
390.03	966.64
390.22	1032.18
390.42	924.51
390.61	966.64
390.81	919.83
391.00	952.60
391.19	992.39
391.39	877.70
391.58	940.90
391.78	917.49
391.97	992.39
392.16	898.77
392.36	1081.33
392.55	978.34
392.75	1064.94
392.94	1043.88
393.13	1069.62
393.33	1013.45
393.52	1015.79
393.71	1020.47
393.91	985.37
394.10	994.73
394.29	1008.77
394.49	1018.13
394.68	1036.86
394.88	1135.16
395.07	1135.16
395.26	1181.97
395.46	1036.86
395.65	1067.28
395.84	1086.01
396.04	1191.33
396.23	1116.44
396.42	1219.42
396.62	1247.51
396.81	1116.44
397.00	1254.53
397.19	1144.52
397.39	1226.44
397.58	1205.38
397.77	1200.69
397.97	1170.27
398.16	1266.23
398.35	1334.11
398.55	1233.46
398.74	1266.23
398.93	1343.47
399.12	1261.55
399.32	1275.59
399.51	1210.06
399.70	1252.19
399.90	1397.30
400.09	1287.29
400.28	1362.19
400.47	1418.36
400.67	1336.45
400.86	1373.89
401.05	1446.45
401.24	1371.55
401.44	1423.05
401.63	1390.28
401.82	1380.92
402.01	1373.89
402.21	1453.47
402.40	1427.73
402.59	1399.64
402.78	1401.98
402.97	1460.49
403.17	1495.60
403.36	1439.43
403.55	1544.75
403.74	1486.24
403.93	1549.43
404.13	1542.41
404.32	1586.88
404.51	1551.78
404.70	1565.82
404.89	1554.12
405.09	1614.97
405.28	1530.71
405.47	1636.03
405.66	1659.44
405.85	1652.42
406.05	1542.41
406.24	1554.12
406.43	1647.74
406.62	1666.46
406.81	1739.02
407.00	1753.06
407.20	1802.21
407.39	1746.04
407.58	1783.49
407.77	1767.10
407.96	1834.98
408.15	1767.10
408.34	1783.49
408.54	1743.70
408.73	1928.60
408.92	1792.85
409.11	1860.73
409.30	1921.58
409.49	1856.04
409.68	1947.33
409.87	1905.20
410.07	1942.64
410.26	1863.07
410.45	1942.64
410.64	1996.48
410.83	1905.20
411.02	2050.31
411.21	2017.54
411.40	2003.50
411.59	2094.78
411.78	2026.90
411.98	2069.03
412.17	2179.04
412.36	2108.82
412.55	2225.85
412.74	2260.96
412.93	2202.44
413.12	2221.17
413.31	2361.60
413.50	2258.62
413.69	2214.15
413.88	2387.35
414.07	2324.15
414.26	2410.75
414.45	2469.27
414.64	2382.67
414.83	2396.71
415.02	2406.07
415.22	2466.92
415.41	2605.02
415.60	2562.89
415.79	2541.82
415.98	2626.08
416.17	2689.28
416.36	2525.44
416.55	2672.89
416.74	2679.91
416.93	2696.30
417.12	2696.30
417.31	2726.72
417.50	2775.88
417.69	2848.43
417.88	2806.30
418.07	2754.81
418.26	2729.06
418.45	2867.16
418.64	2834.39
418.83	3023.97
419.02	2906.95
419.21	3059.08
419.39	3012.27
419.58	3030.99
419.77	2857.79
419.96	2949.08
420.15	2977.16
420.34	3063.76
420.53	3035.67
420.72	3108.23
420.91	3141.00
421.10	3096.53
421.29	3112.91
421.48	3091.85
421.67	3173.77
421.86	3105.89
422.05	3119.93
422.24	3227.60
422.43	3246.32
422.61	3241.64
422.80	3255.69
422.99	3241.64
423.18	3351.65
423.37	3234.62
423.56	3204.19
423.75	3262.71
423.94	3054.40
424.13	3038.02
424.32	3066.10
424.50	3197.17
424.69	3372.71
424.88	3358.67
425.07	3232.28
425.26	3222.92
425.45	3243.98
425.64	3267.39
425.83	3265.05
426.01	3290.79
426.20	3314.20
426.39	3396.12
426.58	3335.26
426.77	3330.58
426.96	3468.67
427.15	3325.90
427.33	3330.58
427.52	3368.03
427.71	3379.73
427.90	3452.29
428.09	3569.32
428.28	3548.25
428.46	3487.40
428.65	3538.89
428.84	3541.23
429.03	3644.21
429.22	3492.08
429.40	3581.02
429.59	3442.93
429.78	3524.85
429.97	3358.67
430.16	3552.93
430.34	3786.99
430.53	3709.75
430.72	3730.81
430.91	3655.92
431.10	3653.58
431.28	3892.31
431.47	3770.60
431.66	3688.68
431.85	3726.13
432.03	3915.72
432.22	3815.07
432.41	3803.37
432.60	3899.33
432.79	3847.84
432.97	3805.71
433.16	3922.74
433.35	3964.87
433.54	4004.66
433.72	3983.59
433.91	3892.31
434.10	3918.06
434.28	4002.32
434.47	4128.70
434.66	3941.46
434.85	4042.11
435.03	4037.42
435.22	4210.62
435.41	4205.94
435.59	4095.94
435.78	4098.28
435.97	4308.93
436.16	4219.99
436.34	4196.58
436.53	4248.07
436.72	4285.52
436.90	4203.60
437.09	4269.14
437.28	4142.75
437.46	4339.35
437.65	4229.35
437.84	4477.44
438.02	4388.50
438.21	4414.25
438.40	4276.16
438.58	4622.56
438.77	4662.35
438.96	4519.57
439.14	4493.83
439.33	4730.22
439.52	4718.52
439.70	4634.26
439.89	4800.44
440.08	4755.97
440.26	4812.14
440.45	4662.35
440.63	4781.71
440.82	4798.10
441.01	4884.70
441.19	4947.89
441.38	5013.43
441.57	5032.15
441.75	5116.41
441.94	5067.26
442.12	5083.64
442.31	5153.86
442.50	5177.26
442.68	5135.14
442.87	5025.13
443.05	5226.42
443.24	5254.50
443.43	5366.85
443.61	5275.57
443.80	5453.45
443.98	5146.84
444.17	4933.85
444.35	5383.23
444.54	5448.77
444.73	5322.38
444.91	5310.68
445.10	5270.89
445.28	5366.85
445.47	5364.51
445.65	5458.13
445.84	5352.81
446.02	5408.98
446.21	5338.76
446.39	5324.72
446.58	5430.04
446.77	5558.77
446.95	5364.51
447.14	5483.88
447.32	5401.96
447.51	5544.73
447.69	5516.64
447.88	5516.64
448.06	5434.72
448.25	5355.15
448.43	5423.02
448.62	5507.28
448.80	5547.07
448.99	5563.45
449.17	5706.23
449.36	5570.48
449.54	5760.06
449.73	5755.38
449.91	5727.29
450.10	5710.91
450.28	5827.93
450.46	5834.96
450.65	5870.06
450.83	5832.62
451.02	5919.21
451.20	5743.67
451.39	5788.14
451.57	5858.36
451.76	5729.63
451.94	5715.59
452.13	6097.10
452.31	5963.68
452.49	5795.17
452.68	6010.50
452.86	6094.76
453.05	6022.20
453.23	6129.86
453.42	6057.31
453.60	5919.21
453.78	6008.16
453.97	6228.17
454.15	6094.76
454.34	6113.48
454.52	6214.12
454.70	6244.55
454.89	6197.74
455.07	6221.14
455.26	6279.66
455.44	6291.36
455.62	6361.58
455.81	6586.27
455.99	6373.28
456.17	6457.54
456.36	6487.96
456.54	6487.96
456.73	6534.78
456.91	6801.60
457.09	6647.12
457.28	6649.46
457.46	6588.61
457.64	6693.93
457.83	6768.83
458.01	6616.69
458.19	6689.25
458.38	6885.86
458.56	6813.30
458.74	6794.58
458.93	6768.83
459.11	6799.26
459.29	6846.07
459.48	6911.60
459.66	6759.47
459.84	7052.03
460.03	7089.48
460.21	6970.12
460.39	6995.86
460.57	6750.10
460.76	7129.27
460.94	7021.61
461.12	7140.97
461.31	6876.49
461.49	7194.81
461.67	7145.66
461.85	7169.06
462.04	7211.19
462.22	7552.91
462.40	7220.55
462.59	7229.91
462.77	7353.96
462.95	7398.43
463.13	7332.90
463.32	7456.95
463.50	7330.56
463.68	7428.86
463.86	7543.55
464.05	7391.41
464.23	7651.21
464.41	7405.46
464.59	7417.16
464.78	7637.17
464.96	7613.76
465.14	7344.60
465.32	7590.36
465.50	7571.63
465.69	7779.94
465.87	7639.51
466.05	7829.09
466.23	7737.81
466.41	7808.03
466.60	7901.65
466.78	7709.72
466.96	7508.44
467.14	7728.45
467.32	7845.48
467.51	7899.31
467.69	7819.73
467.87	8067.83
468.05	8070.17
468.23	7922.71
468.41	7894.63
468.60	7985.91
468.78	7936.76
468.96	7906.33
469.14	8009.31
469.32	8201.24
469.50	8142.72
469.69	8077.19
469.87	8191.88
470.05	8283.16
470.23	8376.78
470.41	8407.20
470.59	8365.07
470.77	8325.29
470.95	8383.80
471.14	8564.02
471.32	8339.33
471.50	8486.78
471.68	8636.58
471.86	8767.65
472.04	8634.24
472.22	8697.43
472.40	8800.41
472.58	8915.10
472.77	8741.90
472.95	8931.48
473.13	9121.07
473.31	8793.39
473.49	9132.77
473.67	9036.81
473.85	8945.53
474.03	9434.70
474.21	9423.00
474.39	9289.59
474.57	9334.06
474.75	9427.68
474.93	9507.26
475.12	9364.48
475.30	9348.10
475.48	9661.73
475.66	9401.93
475.84	9565.77
476.02	9607.90
476.20	9727.27
476.38	9963.66
476.56	10012.81
476.74	9930.89
476.92	9891.10
477.10	9818.55
477.28	10097.07
477.46	10279.63
477.64	10363.89
477.82	10413.04
478.00	10340.49
478.18	10490.28
478.36	10684.55
478.54	10609.65
478.72	10689.23
478.90	10827.32
479.08	10937.32
479.26	11143.29
479.44	11215.85
479.62	11236.91
479.80	11157.33
479.98	11255.64
480.16	11405.43
480.34	11393.73
480.52	11742.47
480.70	11639.48
480.88	11597.35
481.06	11679.27
481.24	11761.19
481.41	11709.70
481.59	12023.33
481.77	12339.30
481.95	12283.13
482.13	12393.14
482.31	12477.40
482.49	12671.66
482.67	12788.69
482.85	12819.11
483.03	12564.00
483.21	12765.28
483.39	13123.38
483.57	13053.17
483.74	13217.01
483.92	13217.01
484.10	13235.73
484.28	13713.20
484.46	13783.41
484.64	13916.83
484.82	13631.28
485.00	13928.53
485.18	14125.13
485.35	14097.05
485.53	14284.29
485.71	14347.48
485.89	14532.39
486.07	14347.48
486.25	14862.40
486.43	14630.69
486.61	14794.53
486.78	14757.08
486.96	15087.09
487.14	15461.58
487.32	15248.59
487.50	15522.43
487.68	15335.19
487.85	15611.37
488.03	15723.72
488.21	15967.13
488.39	16182.46
488.57	16334.60
488.75	16107.57
488.92	16257.36
489.10	16669.30
489.28	16805.05
489.46	16699.72
489.64	16662.27
489.81	16879.94
489.99	17172.51
490.17	17167.83
490.35	17334.01
490.53	17647.64
490.70	17846.58
490.88	17486.14
491.06	17975.31
491.24	17902.76
491.41	17928.50
491.59	18120.43
491.77	18228.09
491.95	18555.77
492.13	18333.42
492.30	18838.97
492.48	18698.54
492.66	18661.09
492.84	18530.02
493.01	18944.30
493.19	18939.62
493.37	19077.71
493.54	19433.47
493.72	19541.13
493.90	19594.96
494.08	19363.25
494.25	19468.58
494.43	19840.72
494.61	19852.42
494.79	20077.12
494.96	19997.54
495.14	20060.73
495.32	20428.20
495.49	20517.14
495.67	20842.47
495.85	20730.12
496.02	21008.65
496.20	21120.99
496.38	21032.05
496.55	20861.19
496.73	21645.27
496.91	21504.84
497.09	21869.97
497.26	21584.42
497.44	21724.85
497.62	21862.94
497.79	22008.06
497.97	22309.99
498.14	22583.83
498.32	22501.91
498.50	22436.38
498.67	22541.70
498.85	22621.28
499.03	22705.54
499.20	22682.13
499.38	23047.26
499.56	23005.13
499.73	23168.96
499.91	23410.04
500.08	23510.68
500.26	23089.38
500.44	23442.81
500.61	23419.40
500.79	23477.91
500.97	23431.10
501.14	23901.55
501.32	23803.25
501.49	24018.58
501.67	24053.69
501.84	24477.32
502.02	24187.10
502.20	24116.88
502.37	24217.52
502.55	24411.79
502.72	24561.58
502.90	24388.38
503.07	24577.97
503.25	25029.69
503.43	24776.91
503.60	24685.63
503.78	25165.44
503.95	24741.80
504.13	25067.14
504.30	25123.31
504.48	25151.40
504.65	25282.47
504.83	25661.63
505.01	25539.93
505.18	25453.33
505.36	25977.61
505.53	25715.47
505.71	25820.79
505.88	25881.64
506.06	25860.58
506.23	26075.91
506.41	26277.19
506.58	26134.42
506.76	26459.76
506.93	26389.54
507.11	26195.28
507.28	26494.86
507.46	26616.57
507.63	26778.07
507.81	26995.74
507.98	26817.86
508.16	27253.20
508.33	26981.70
508.50	27070.64
508.68	27201.71
508.85	27812.59
509.03	27143.19
509.20	27484.91
509.38	27545.76
509.55	28034.94
509.73	27803.22
509.90	27725.99
510.08	27496.61
510.25	28018.55
510.42	27814.93
510.60	28407.08
510.77	28102.81
510.95	28519.43
511.12	28140.26
511.30	28465.60
511.47	28474.96
511.64	28271.33
511.82	28404.74
511.99	28374.31
512.17	28500.70
512.34	28704.33
512.51	29151.37
512.69	29172.44
512.86	28926.68
513.04	29504.79
513.21	29467.34
513.38	29392.45
513.56	29713.10
513.73	28914.98
513.90	29694.38
514.08	29553.94
514.25	29694.38
514.43	29343.30
514.60	29979.92
514.77	30115.67
514.95	30045.46
515.12	30078.22
515.29	29816.08
515.47	30068.86
515.64	30122.69
515.81	30115.67
515.99	30141.42
516.16	30747.62
516.33	30462.07
516.51	30831.88
516.68	30597.82
516.85	30698.47
517.03	30920.82
517.20	31274.24
517.37	31267.22
517.54	31016.78
517.72	31356.16
517.89	31035.50
518.06	31517.65
518.24	31442.76
518.41	30869.33
518.58	31168.91
518.75	31166.57
518.93	31531.70
519.10	31220.41
519.27	31541.06
519.45	31922.57
519.62	31742.35
519.79	31674.47
519.96	31828.95
520.14	31868.73
520.31	32046.62
520.48	32306.41
520.65	32259.60
520.83	32470.25
521.00	32697.28
521.17	32252.58
521.34	32507.70
521.52	32694.94
521.69	32610.68
521.86	33092.83
522.03	32779.20
522.20	33022.62
522.38	33156.03
522.55	32957.08
522.72	33291.78
522.89	33336.25
523.07	33259.01
523.24	33310.50
523.41	33174.75
523.58	33118.58
523.75	33860.53
523.92	33612.43
524.10	33270.72
524.27	34054.79
524.44	33895.64
524.61	33752.87
524.78	33558.60
524.96	34103.95
525.13	34129.69
525.30	34314.59
525.47	34373.11
525.64	34274.80
525.81	34462.05
525.98	34642.27
526.16	34246.72
526.33	34253.74
526.50	34471.41
526.67	34199.91
526.84	34466.73
527.01	34426.94
527.18	34574.39
527.36	34476.09
527.53	34771.00
527.70	35096.33
527.87	34904.41
528.04	35133.78
528.21	35070.59
528.38	34761.64
528.55	35438.05
528.72	34974.63
528.89	35550.40
529.07	35335.07
529.24	34955.90
529.41	35311.66
529.58	35814.88
529.75	35419.33
529.92	35468.48
530.09	35739.98
530.26	35798.49
530.43	35545.72
530.60	35136.12
530.77	35461.46
530.94	36163.62
531.11	35882.75
531.28	36053.61
531.46	35552.74
531.63	35929.56
531.80	35943.61
531.97	36360.22
532.14	36219.79
532.31	36231.49
532.48	36631.72
532.65	36528.74
532.82	35922.54
532.99	36524.06
533.16	36474.91
533.33	36474.91
533.50	36910.25
533.67	36601.30
533.84	36613.00
534.01	36601.30
534.18	36664.49
534.35	37481.34
534.52	37127.92
534.69	36840.03
534.86	37600.71
535.03	37289.42
535.20	37446.23
535.37	37516.45
535.54	37333.89
535.71	37439.21
535.88	37713.05
536.05	37305.80
536.22	37497.72
536.38	37457.93
536.55	37589.00
536.72	37584.32
536.89	37378.36
537.06	37912.00
537.23	37804.33
537.40	37631.13
537.57	37500.06
537.74	37617.09
537.91	37998.60
538.08	37759.86
538.25	37846.46
538.42	38321.59
538.59	38022.00
538.75	37762.20
538.92	38356.70
539.09	38291.16
539.26	38293.50
539.43	38064.13
539.60	38330.95
539.77	38293.50
539.94	38546.28
540.11	38684.37
540.28	38410.53
540.44	38667.99
540.61	38770.97
540.78	38108.60
540.95	38522.88
541.12	38909.07
541.29	38789.70
541.46	38553.30
541.62	38724.16
541.79	39061.20
541.96	38511.17
542.13	38469.04
542.30	38888.00
542.47	39009.71
542.63	38946.51
542.80	39524.63
542.97	39735.27
543.14	39321.00
543.31	39201.63
543.48	39545.69
543.64	40053.59
543.81	39899.11
543.98	39555.05
544.15	39885.07
544.32	40062.95
544.48	40109.76
544.65	39796.13
544.82	40170.61
544.99	39636.97
545.16	40311.05
545.32	39847.62
545.49	40257.21
545.66	40313.39
545.83	40055.93
546.00	40617.66
546.16	40568.51
546.33	40423.39
546.50	39770.38
546.67	40514.67
546.83	40268.92
547.00	40320.41
547.17	40182.32
547.34	40287.64
547.50	40280.62
547.67	40786.18
547.84	40905.54
548.00	40800.22
548.17	40755.75
548.34	41167.68
548.51	41139.60
548.67	40912.56
548.84	40933.63
549.01	40631.70
549.18	40430.41
549.34	41170.02
549.51	41198.11
549.68	41151.30
549.84	41153.64
550.01	41539.83
550.18	41532.81
550.34	41462.59
550.51	41715.37
550.68	41486.00
550.84	40978.10
551.01	41577.28
551.18	41453.23
551.34	41200.45
551.51	41567.91
551.68	41141.94
551.84	41759.84
552.01	41486.00
552.18	41631.11
552.34	41357.27
552.51	41930.70
552.68	41574.94
552.84	41848.78
553.01	41673.24
553.18	41820.69
553.34	41500.04
553.51	41291.73
553.67	41991.55
553.84	41869.84
554.01	42029.00
554.17	42724.14
554.34	41883.89
554.51	42249.01
554.67	42206.88
554.84	42021.98
555.00	42031.34
555.17	42239.65
555.33	42295.82
555.50	42206.88
555.67	41790.27
555.83	42630.52
556.00	42724.14
556.16	43117.35
556.33	42564.98
556.50	42916.06
556.66	42506.47
556.83	42295.82
556.99	42588.39
557.16	43159.48
557.32	42674.99
557.49	43335.02
557.65	42752.23
557.82	42543.92
557.98	42665.63
558.15	42822.44
558.32	42651.58
558.48	42499.45
558.65	42953.51
558.81	42616.47
558.98	43026.07
559.14	42693.71
559.31	43126.71
559.47	42815.42
559.64	43159.48
559.80	43119.69
559.97	43143.09
560.13	43042.45
560.30	42733.50
560.46	43398.21
560.63	43529.28
560.79	43316.29
560.96	43288.21
561.12	43360.76
561.29	43292.89
561.45	43405.23
561.61	43285.87
561.78	43566.73
561.94	43428.64
562.11	42848.19
562.27	43484.81
562.44	42948.83
562.60	43459.07
562.77	43573.75
562.93	43033.09
563.10	43667.37
563.26	43505.88
563.42	44289.96
563.59	43529.28
563.75	43466.09
563.92	43571.41
564.08	43849.94
564.24	43796.10
564.41	43686.10
564.57	43618.22
564.74	43828.87
564.90	43669.72
565.07	43910.79
565.23	43688.44
565.39	43716.53
565.56	43730.57
565.72	43791.42
565.88	43835.89
566.05	43611.20
566.21	43798.44
566.38	44039.52
566.54	43587.80
566.70	43831.21
566.87	43842.92
567.03	43559.71
567.19	44044.20
567.36	44128.46
567.52	44149.53
567.68	44526.35
567.85	44254.85
568.01	44182.29
568.17	43861.64
568.34	43847.60
568.50	44222.08
568.66	43924.83
568.83	44191.65
568.99	43840.57
569.15	44025.48
569.32	44002.07
569.48	44027.82
569.64	44842.32
569.81	44470.18
569.97	44409.32
570.13	44355.49
570.30	44065.27
570.46	44208.04
570.62	44268.89
570.78	44062.93
570.95	44435.07
571.11	44435.07
571.27	44311.02
571.43	44004.41
571.60	44484.22
571.76	44140.16
571.92	44296.98
572.09	44304.00
572.25	44446.77
572.41	44411.67
572.57	44306.34
572.74	44863.39
572.90	44091.01
573.06	44863.39
573.22	44706.57
573.38	44474.86
573.55	44659.76
573.71	44832.96
573.87	44516.99
574.03	44083.99
574.20	44865.73
574.36	44856.37
574.52	44673.81
574.68	44334.43
574.84	44404.64
575.01	44619.97
575.17	44617.63
575.33	44718.28
575.49	44170.59
575.65	44502.95
575.82	44884.45
575.98	44364.85
576.14	44683.17
576.30	45207.45
576.46	44769.77
576.62	44582.52
576.79	44547.42
576.95	43957.60
577.11	44540.39
577.27	44287.62
577.43	45008.50
577.59	45191.06
577.75	44264.21
577.92	44650.40
578.08	44631.68
578.24	44748.70
578.40	44891.48
578.56	44701.89
578.72	44884.45
578.88	44945.31
579.04	44629.34
579.21	44980.42
579.37	44994.46
579.53	44823.60
579.69	44456.14
579.85	44605.93
580.01	44945.31
580.17	44865.73
580.33	44825.94
580.49	44917.22
580.65	44973.39
580.82	44949.99
580.98	44631.68
581.14	44502.95
581.30	45003.82
581.46	44690.19
581.62	44734.66
581.78	44765.09
581.94	44982.76
582.10	44570.82
582.26	45240.21
582.42	45003.82
582.58	44760.40
582.74	44718.28
582.90	44432.73
583.06	44734.66
583.22	45099.78
583.38	44877.43
583.54	44856.37
583.70	45111.49
583.86	45172.34
584.02	44662.10
584.18	45343.20
584.34	45092.76
584.50	45270.64
584.66	45015.52
584.82	44865.73
584.98	45258.94
585.14	45120.85
585.30	44708.91
585.46	44891.48
585.62	44933.60
585.78	45109.14
585.94	44467.84
586.10	44877.43
586.26	44952.33
586.42	44861.05
586.58	45191.06
586.74	44737.00
586.90	44786.15
587.06	44725.30
587.22	44952.33
587.38	44861.05
587.54	45240.21
587.70	45226.17
587.86	45043.61
588.02	44678.49
588.18	44973.39
588.34	44994.46
588.49	45097.44
588.65	44584.86
588.81	45059.99
588.97	45216.81
589.13	44811.90
589.29	44905.52
589.45	45380.65
589.61	45504.70
589.77	45469.59
589.93	45069.36
590.08	45497.67
590.24	45345.54
590.40	45811.31
590.56	46019.61
590.72	45673.21
590.88	45310.43
591.04	45048.29
591.20	45581.93
591.35	45825.35
591.51	45624.06
591.67	45776.20
591.83	46202.18
591.99	45432.14
592.15	45673.21
592.31	45600.66
592.46	45249.58
592.62	45057.65
592.78	45720.02
592.94	46000.89
593.10	45813.65
593.26	45684.92
593.41	45900.25
593.57	45474.27
593.73	45544.48
593.89	45839.39
594.05	45750.45
594.20	45750.45
594.36	46162.39
594.52	46028.98
594.68	45579.59
594.84	45558.53
594.99	45839.39
595.15	45553.85
595.31	45642.79
595.47	45694.28
595.62	45762.15
595.78	45371.28
595.94	46103.87
596.10	45628.74
596.25	45792.58
596.41	45811.31
596.57	45879.18
596.73	45820.67
596.88	45549.17
597.04	45715.34
597.20	45860.46
597.36	45883.86
597.51	46110.89
597.67	45432.14
597.83	45610.02
597.99	46019.61
598.14	45813.65
598.30	45504.70
598.46	45998.55
598.61	45869.82
598.77	45895.56
598.93	45874.50
599.09	45572.57
599.24	45951.74
599.40	45944.72
599.56	45869.82
599.71	45886.20
599.87	46220.90
600.03	45876.84
600.18	46138.98
600.34	45825.35
600.50	45689.60
600.65	45752.79
600.81	46192.81
600.97	46206.86
601.12	45628.74
601.28	46047.70
601.44	45769.18
601.59	45783.22
601.75	45558.53
601.91	45902.59
602.06	46197.49
602.22	46033.66
602.37	45748.11
602.53	46113.23
602.69	45965.78
602.84	45727.05
603.00	46298.14
603.16	45986.85
603.31	45745.77
603.47	46061.74
603.62	46227.92
603.78	45989.19
603.94	46094.51
604.09	45696.62
604.25	45680.24
604.40	45954.08
604.56	46239.62
604.71	46457.29
604.87	45925.99
605.03	45415.76
605.18	45811.31
605.34	45820.67
605.49	46003.23
605.65	46028.98
605.80	45914.29
605.96	45691.94
606.12	45818.33
606.27	45734.07
606.43	45869.82
606.58	46101.53
606.74	45748.11
606.89	45654.49
607.05	45785.56
607.20	45954.08
607.36	46064.08
607.51	45628.74
607.67	45448.52
607.82	45897.91
607.98	45710.66
608.13	45502.35
608.29	45883.86
608.44	45560.87
608.60	45378.31
608.75	45656.83
608.91	45373.63
609.06	45610.02
609.22	45734.07
609.37	45324.47
609.53	45834.71
609.68	45996.21
609.84	45654.49
609.99	45652.15
610.15	45801.94
610.30	45794.92
610.46	45251.92
610.61	45698.96
610.76	45528.10
610.92	45418.10
611.07	45478.95
611.23	45500.01
611.38	45460.23
611.54	45446.18
611.69	45656.83
611.84	45640.45
612.00	45118.51
612.15	45008.50
612.31	45532.78
612.46	45048.29
612.62	45200.43
612.77	45251.92
612.92	45551.51
613.08	45296.39
613.23	45488.31
613.39	45703.64
613.54	44814.24
613.69	45565.55
613.85	44872.75
614.00	45235.53
614.15	45237.87
614.31	45130.21
614.46	44617.63
614.62	44949.99
614.77	45212.13
614.92	45151.27
615.08	44954.67
615.23	45207.45
615.38	45418.10
615.54	45177.02
615.69	45170.00
615.84	45352.56
616.00	44947.65
616.15	45371.28
616.30	45184.04
616.46	44552.10
616.61	45022.54
616.76	45434.48
616.92	44615.29
617.07	45120.85
617.22	45015.52
617.37	44203.36
617.53	44926.58
617.68	45076.38
617.83	45010.84
617.99	45034.25
618.14	45151.27
618.29	44748.70
618.45	44158.89
618.60	44369.54
618.75	44301.66
618.90	44339.11
619.06	44849.35
619.21	44685.51
619.36	44697.21
619.51	44336.77
619.67	44371.88
619.82	44610.61
619.97	45287.03
620.12	44341.45
620.28	44320.38
620.43	44821.26
620.58	44577.84
620.73	44533.37
620.89	44526.35
621.04	44589.55
621.19	44949.99
621.34	44631.68
621.49	44184.63
621.65	44458.48
621.80	44559.12
621.95	44477.20
622.10	44378.90
622.25	44538.05
622.41	44484.22
622.56	44226.76
622.71	44339.11
622.86	44346.13
623.01	44254.85
623.16	44226.76
623.32	44046.54
623.47	43959.94
623.62	44428.05
623.77	44322.72
623.92	43981.01
624.07	44582.52
624.23	44210.38
624.38	44182.29
624.53	43983.35
624.68	43894.41
624.83	43880.36
624.98	43707.16
625.13	43615.88
625.29	43688.44
625.44	44168.25
625.59	43723.55
625.74	43681.42
625.89	43751.63
626.04	43618.22
626.19	43826.53
626.34	43786.74
626.49	43555.03
626.65	43426.30
626.80	43349.06
626.95	43426.30
627.10	43250.76
627.25	43606.52
627.40	43489.49
627.55	43512.90
627.70	43140.75
627.85	43922.49
628.00	43632.27
628.15	43246.08
628.30	43019.05
628.45	43185.22
628.60	42871.59
628.76	42796.70
628.91	43227.35
629.06	42508.81
629.21	42878.61
629.36	43269.48
629.51	42710.10
629.66	43428.64
629.81	43283.53
629.96	43447.36
630.11	43014.37
630.26	43129.05
630.41	42862.23
630.56	42841.17
630.71	42995.64
630.86	42831.80
631.01	42651.58
631.16	42836.48
631.31	42487.74
631.46	42724.14
631.61	43194.59
631.76	42983.94
631.91	43339.70
632.06	43440.34
632.21	42705.41
632.36	42953.51
632.51	42642.22
632.66	42319.23
632.81	42815.42
632.96	42782.65
633.10	42309.86
633.25	42581.37
633.40	42103.90
633.55	42532.22
633.70	42129.64
633.85	42382.42
634.00	42120.28
634.15	42265.39
634.30	42359.02
634.45	42024.32
634.60	42363.70
634.75	42436.25
634.90	42513.49
635.05	42120.28
635.19	42106.24
635.34	42679.67
635.49	42038.36
635.64	42267.73
635.79	42405.83
635.94	42557.96
636.09	42139.00
636.24	42169.43
636.39	42267.73
636.53	42181.13
636.68	41720.05
636.83	41570.25
636.98	41261.30
637.13	41715.37
637.28	41790.27
637.43	41457.91
637.57	41954.10
637.72	41661.54
637.87	41921.34
638.02	41937.72
638.17	41516.42
638.32	41598.34
638.46	41546.85
638.61	41649.83
638.76	41570.25
638.91	41612.38
639.06	41514.08
639.20	41326.84
639.35	41411.10
639.50	41303.43
639.65	41874.52
639.80	41565.57
639.94	41099.81
640.09	41603.02
640.24	41635.79
640.39	40964.06
640.54	40809.58
640.68	41401.74
640.83	41675.58
640.98	41521.10
641.13	40851.71
641.27	41483.66
641.42	41134.92
641.57	40978.10
641.72	41446.21
641.86	41113.85
642.01	40940.65
642.16	40825.96
642.31	40847.03
642.45	41223.86
642.60	40706.60
642.75	41106.83
642.90	40870.43
643.04	41041.29
643.19	40837.67
643.34	41055.34
643.48	40825.96
643.63	40765.11
643.78	41291.73
643.93	41155.98
644.07	40884.48
644.22	40587.23
644.37	40556.80
644.51	40762.77
644.66	40818.94
644.81	40524.04
644.95	40591.91
645.10	40451.48
645.25	40655.11
645.39	40308.71
645.54	40477.22
645.69	40025.50
645.83	40196.36
645.98	40327.43
646.13	40491.27
646.27	40524.04
646.42	40215.08
646.57	40325.09
646.71	40362.54
646.86	40753.41
647.00	40561.48
647.15	40208.06
647.30	40566.16
647.44	40257.21
647.59	40023.16
647.74	39997.41
647.88	40184.66
648.03	40605.95
648.17	40308.71
648.32	40292.32
648.47	40259.55
648.61	40168.27
648.76	40151.89
648.90	39864.00
649.05	39702.51
649.20	39894.43
649.34	39775.06
649.49	40165.93
649.63	40100.40
649.78	40170.61
649.92	40091.04
650.07	40587.23
650.21	39856.98
650.36	39875.71
650.51	39922.52
650.65	40177.64
650.80	39625.27
650.94	40343.81
651.09	40079.33
651.23	39533.99
651.38	39686.12
651.52	39391.22
651.67	39278.87
651.81	39435.69
651.96	39625.27
652.10	39470.79
652.25	39374.83
652.39	39440.37
652.54	39716.55
652.68	39695.49
652.83	39253.12
652.97	39470.79
653.12	39131.42
653.26	39452.07
653.41	39519.95
653.55	39508.24
653.70	39395.90
653.84	39309.30
653.99	39377.17
654.13	39475.48
654.27	38983.96
654.42	39416.96
654.56	38892.68
654.71	39033.11
654.85	39309.30
655.00	39208.65
655.14	39660.38
655.29	39473.13
655.43	39370.15
655.57	38543.94
655.72	38953.54
655.86	38590.75
656.01	39026.09
656.15	38064.13
656.30	38670.33
656.44	38934.81
656.58	38909.07
656.73	38913.75
656.87	38471.39
657.01	38543.94
657.16	38962.90
657.30	38787.36
657.45	38557.99
657.59	38314.57
657.73	38052.43
657.88	38410.53
658.02	38637.56
658.16	38572.03
658.31	38621.18
658.45	38536.92
658.60	37930.72
658.74	38560.33
658.88	38504.15
659.03	38230.31
659.17	38000.94
659.31	38017.32
659.46	38312.23
659.60	38387.13
659.74	37986.89
659.89	37706.03
660.03	37483.68
660.17	38057.11
660.32	38314.57
660.46	37890.93
660.60	37312.82
660.74	37897.95
660.89	38216.27
661.03	37830.08
661.17	37642.84
661.32	37474.32
661.46	38092.22
661.60	37371.33
661.74	37280.05
661.89	37345.59
662.03	37102.17
662.17	37354.95
662.31	36975.78
662.46	36954.72
662.60	36793.22
662.74	36842.37
662.88	36582.57
663.03	36666.83
663.17	36989.83
663.31	36631.72
663.45	36666.83
663.60	36935.99
663.74	36730.03
663.88	36741.73
664.02	36767.48
664.17	37041.32
664.31	36683.22
664.45	36102.76
664.59	36524.06
664.73	36561.51
664.88	36137.87
665.02	35644.02
665.16	36353.20
665.30	36329.80
665.44	35997.44
665.59	35730.62
665.73	35892.12
665.87	35496.56
666.01	35744.66
666.15	35786.79
666.29	35798.49
666.44	36018.50
666.58	35959.99
666.72	35723.60
666.86	35356.13
667.00	35625.29
667.14	35372.52
667.28	35480.18
667.43	35606.57
667.57	35398.26
667.71	35852.33
667.85	35400.60
667.99	35718.92
668.13	35054.20
668.27	34646.95
668.41	35033.14
668.56	34302.89
668.70	34670.36
668.84	34349.70
668.98	34309.91
669.12	34726.53
669.26	34560.35
669.40	34583.76
669.54	34555.67
669.68	34773.34
669.82	34347.36
669.96	34089.90
670.10	33841.81
670.25	34047.77
670.39	34012.66
670.53	34693.76
670.67	34155.44
670.81	34419.92
670.95	34036.07
671.09	33853.51
671.23	33689.67
671.37	33813.72
671.51	33876.91
671.65	33462.64
671.79	33481.36
671.93	33383.06
672.07	33858.19
672.21	33214.54
672.35	32697.28
672.49	32924.32
672.63	33392.42
672.77	32938.36
672.91	33118.58
673.05	32982.83
673.19	32453.87
673.33	32348.54
673.47	32730.05
673.61	32385.99
673.75	32400.04
673.89	32524.08
674.03	32224.50
674.17	32390.67
674.31	32023.21
674.45	32224.50
674.59	32105.13
674.73	31709.58
674.87	31590.21
675.01	31583.19
675.15	31725.96
675.29	31768.09
675.43	31721.28
675.56	31583.19
675.70	31606.59
675.84	31442.76
675.98	30298.23
676.12	31295.30
676.26	31482.55
676.40	30864.64
676.54	30916.14
676.68	30527.61
676.82	30363.77
676.96	30850.60
677.10	31023.80
677.23	30623.57
677.37	30670.38
677.51	30335.68
677.65	30291.21
677.79	29748.21
677.93	30403.56
678.07	29958.86
678.21	29979.92
678.34	29448.62
678.48	29539.90
678.62	29486.07
678.76	29191.16
678.90	29446.28
679.04	29233.29
679.18	29528.20
679.31	29315.21
679.45	29085.84
679.59	29029.66
679.73	28861.15
679.87	28673.90
680.00	28802.63
680.14	28594.32
680.28	28374.31
680.42	28411.76
680.56	28149.62
680.70	27997.49
680.83	28048.98
680.97	28208.14
681.11	28158.99
681.25	27683.86
681.39	27821.95
681.52	27917.91
681.66	27463.85
681.80	26998.08
681.94	27012.12
682.07	27119.79
682.21	27402.99
682.35	26703.17
682.49	27019.14
682.62	26810.84
682.76	27159.58
682.90	27164.26
683.04	26579.12
683.17	26757.00
683.31	26316.98
683.45	26499.55
683.59	26082.93
683.72	25680.36
683.86	26075.91
684.00	25703.76
684.13	26038.46
684.27	25628.87
684.41	25905.05
684.55	25366.73
684.68	25474.39
684.82	25322.26
684.96	25331.62
685.09	25132.67
685.23	25179.48
685.37	25713.13
685.50	25364.39
685.64	25200.55
685.78	24879.89
685.91	24996.92
686.05	24538.18
686.19	24269.01
686.32	24350.93
686.46	23765.80
686.60	23974.11
686.73	24121.56
686.87	23992.83
687.01	24025.60
687.14	24065.39
687.28	23887.51
687.42	23868.78
687.55	23903.89
687.69	23461.53
687.82	23213.43
687.96	23386.63
688.10	23229.82
688.23	23377.27
688.37	23543.45
688.50	23412.38
688.64	23367.91
688.78	22864.69
688.91	22731.28
689.05	22768.73
689.18	22630.64
689.32	22092.32
689.46	22342.75
689.59	22651.70
689.73	22710.22
689.86	22417.65
690.00	22190.62
690.13	22256.15
690.27	22061.89
690.41	21818.47
690.54	21617.19
690.68	21589.10
690.81	21743.58
690.95	21523.57
691.08	21322.28
691.22	21446.33
691.35	21245.04
691.49	21219.30
691.62	20924.39
691.76	20671.61
691.89	20861.19
692.03	20882.26
692.16	20470.33
692.30	20472.67
692.43	20362.66
692.57	20526.50
692.70	20336.91
692.84	20489.05
692.97	20154.35
693.11	19791.57
693.24	20149.67
693.38	20053.71
693.51	19887.53
693.65	19742.42
693.78	19386.66
693.92	19475.60
694.05	19314.10
694.19	19150.26
694.32	19386.66
694.45	19552.84
694.59	19580.92
694.72	19648.80
694.86	18979.40
694.99	19101.11
695.13	18735.99
695.26	18602.58
695.39	18476.19
695.53	18401.29
695.66	18483.21
695.80	18375.55
695.93	18658.75
696.07	18272.56
696.20	18125.11
696.33	17692.11
696.47	17624.23
696.60	17811.48
696.73	18047.87
696.87	17881.69
697.00	17867.65
697.14	17757.64
697.27	17453.37
697.40	17462.74
697.54	17326.99
697.67	17397.20
697.80	17343.37
697.94	17394.86
698.07	17111.66
698.21	17364.43
698.34	16877.60
698.47	16837.81
698.61	16388.43
698.74	16383.75
698.87	16657.59
699.01	16257.36
699.14	16439.92
699.27	16318.22
699.40	16603.76
699.54	16145.02
699.67	16079.48
699.80	16215.23
699.94	15955.43
700.07	15960.11
700.20	16142.67
700.34	15700.31
700.47	15524.77
700.60	15630.10
700.73	15555.20
700.87	15641.80
701.00	15321.15
701.13	15527.11
701.26	15227.53
701.40	15328.17
701.53	14850.70
701.66	15225.18
701.79	14665.80
701.93	14972.41
702.06	14555.79
702.19	14822.61
702.32	14663.46
702.46	14801.55
702.59	14611.96
702.72	14544.09
702.85	14434.08
702.99	14361.53
703.12	14094.71
703.25	14127.47
703.38	14200.03
703.51	14181.31
703.65	13731.92
703.78	13647.66
703.91	13710.86
704.04	13666.39
704.17	13736.60
704.31	13596.17
704.44	13816.18
704.57	13816.18
704.70	13568.09
704.83	13294.24
704.96	13303.60
705.10	13256.79
705.23	13067.21
>>>>>End Processed Spectral Data<<<<<
