SpectraSuite Data File
++++++++++++++++++++++++++++++++++++
Date: Fri Oct 25 11:33:08 EDT 2013
User: price-jones
Dark Spectrum Present: No
Reference Spectrum Present: No
Number of Sampled Component Spectra: 1
Spectrometers: USB2+H05261
Integration Time (usec): 100000 (USB2+H05261)
Spectra Averaged: 1 (USB2+H05261)
Boxcar Smoothing: 0 (USB2+H05261)
Correct for Electrical Dark: No (USB2+H05261)
Strobe/Lamp Enabled: No (USB2+H05261)
Correct for Detector Non-linearity: No (USB2+H05261)
Correct for Stray Light: No (USB2+H05261)
Number of Pixels in Processed Spectrum: 2048
>>>>>Begin Processed Spectral Data<<<<<
365.73	238.73
365.92	238.73
366.12	238.73
366.32	203.63
366.52	163.84
366.72	222.35
366.91	145.11
367.11	217.67
367.31	215.33
367.51	124.05
367.70	175.54
367.90	107.66
368.10	177.88
368.30	238.73
368.49	161.50
368.69	245.76
368.89	236.39
369.09	170.86
369.28	215.33
369.48	191.92
369.68	215.33
369.87	191.92
370.07	238.73
370.27	241.08
370.47	332.36
370.66	376.83
370.86	564.07
371.06	533.64
371.25	578.11
371.45	568.75
371.65	479.81
371.84	524.28
372.04	500.87
372.24	629.60
372.44	613.22
372.63	615.56
372.83	620.24
373.03	601.52
373.22	589.82
373.42	596.84
373.62	657.69
373.81	629.60
374.01	699.82
374.21	650.67
374.40	608.54
374.60	615.56
374.79	603.86
374.99	688.12
375.19	706.84
375.38	695.14
375.58	662.37
375.78	709.18
375.97	704.50
376.17	758.33
376.37	648.33
376.56	655.35
376.76	664.71
376.95	622.58
377.15	727.91
377.35	741.95
377.54	678.76
377.74	660.03
377.93	678.76
378.13	695.14
378.33	739.61
378.52	744.29
378.72	727.91
378.91	709.18
379.11	699.82
379.31	725.57
379.50	615.56
379.70	732.59
379.89	765.36
380.09	685.78
380.28	725.57
380.48	718.54
380.68	753.65
380.87	755.99
381.07	807.48
381.26	760.67
381.46	748.97
381.65	793.44
381.85	763.01
382.04	788.76
382.24	746.63
382.43	755.99
382.63	830.89
382.83	709.18
383.02	744.29
383.22	793.44
383.41	812.17
383.61	814.51
383.80	840.25
384.00	875.36
384.19	819.19
384.39	840.25
384.58	746.63
384.78	861.32
384.97	842.59
385.17	830.89
385.36	826.21
385.56	751.31
385.75	880.04
385.95	800.46
386.14	940.90
386.34	821.53
386.53	844.93
386.72	833.23
386.92	976.00
387.11	891.74
387.31	912.81
387.50	837.91
387.70	837.91
387.89	898.77
388.09	931.53
388.28	842.59
388.48	957.28
388.67	910.47
388.86	896.43
389.06	894.08
389.25	931.53
389.45	952.60
389.64	929.19
389.84	964.30
390.03	968.98
390.22	987.71
390.42	987.71
390.61	877.70
390.81	877.70
391.00	1036.86
391.19	1036.86
391.39	1008.77
391.58	1036.86
391.78	990.05
391.97	1020.47
392.16	997.07
392.36	1137.50
392.55	1121.12
392.75	1128.14
392.94	1062.60
393.13	1020.47
393.33	976.00
393.52	1093.03
393.71	1156.22
393.91	1186.65
394.10	1086.01
394.29	1053.24
394.49	1139.84
394.68	1081.33
394.88	1132.82
395.07	1177.29
395.26	1128.14
395.46	1224.10
395.65	1224.10
395.84	1196.01
396.04	1196.01
396.23	1184.31
396.42	1245.16
396.62	1217.08
396.81	1247.51
397.00	1266.23
397.19	1280.27
397.39	1200.69
397.58	1310.70
397.77	1170.27
397.97	1273.25
398.16	1256.87
398.35	1259.21
398.55	1299.00
398.74	1301.34
398.93	1268.57
399.12	1322.40
399.32	1317.72
399.51	1336.45
399.70	1446.45
399.90	1373.89
400.09	1306.02
400.28	1451.13
400.47	1378.58
400.67	1467.52
400.86	1364.53
401.05	1523.69
401.24	1413.68
401.44	1437.09
401.63	1406.66
401.82	1502.62
402.01	1460.49
402.21	1497.94
402.40	1521.35
402.59	1448.79
402.78	1448.79
402.97	1483.90
403.17	1614.97
403.36	1523.69
403.55	1629.01
403.74	1598.59
403.93	1610.29
404.13	1643.06
404.32	1596.25
404.51	1598.59
404.70	1694.55
404.89	1593.90
405.09	1675.82
405.28	1682.85
405.47	1743.70
405.66	1694.55
405.85	1687.53
406.05	1685.19
406.24	1703.91
406.43	1680.50
406.62	1778.81
406.81	1797.53
407.00	1760.08
407.20	1818.60
407.39	1713.27
407.58	1891.15
407.77	1879.45
407.96	1935.62
408.15	1956.69
408.34	1963.71
408.54	1865.41
408.73	1923.92
408.92	1942.64
409.11	1926.26
409.30	1916.90
409.49	2026.90
409.68	1923.92
409.87	1977.75
410.07	2054.99
410.26	2092.44
410.45	2092.44
410.64	2097.12
410.83	2120.53
411.02	2134.57
411.21	2223.51
411.40	2303.09
411.59	2188.40
411.78	2207.13
411.98	2307.77
412.17	2307.77
412.36	2340.54
412.55	2347.56
412.74	2375.64
412.93	2338.20
413.12	2394.37
413.31	2356.92
413.50	2464.58
413.69	2555.86
413.88	2485.65
414.07	2480.97
414.26	2586.29
414.45	2480.97
414.64	2640.12
414.83	2654.17
415.02	2621.40
415.22	2693.96
415.41	2621.40
415.60	2696.30
415.79	2661.19
415.98	2696.30
416.17	2689.28
416.36	2719.70
416.55	2785.24
416.74	2827.37
416.93	2775.88
417.12	2881.20
417.31	2862.48
417.50	2899.92
417.69	3131.64
417.88	2949.08
418.07	2944.39
418.26	2944.39
418.45	2974.82
418.64	3208.87
418.83	3009.93
419.02	3021.63
419.21	2979.50
419.39	3122.27
419.58	3171.43
419.77	3110.57
419.96	3169.09
420.15	3152.70
420.34	3260.37
420.53	3138.66
420.72	3206.53
420.91	3206.53
421.10	3215.90
421.29	3346.97
421.48	3386.76
421.67	3361.01
421.86	3316.54
422.05	3255.69
422.24	3309.52
422.43	3368.03
422.61	3421.86
422.80	3480.38
422.99	3461.65
423.18	3384.41
423.37	3456.97
423.56	3454.63
423.75	3438.25
423.94	3372.71
424.13	3272.07
424.32	3239.30
424.50	3494.42
424.69	3588.04
424.88	3445.27
425.07	3449.95
425.26	3459.31
425.45	3471.01
425.64	3503.78
425.83	3569.32
426.01	3538.89
426.20	3583.36
426.39	3569.32
426.58	3529.53
426.77	3515.48
426.96	3548.25
427.15	3623.15
427.33	3625.49
427.52	3501.44
427.71	3559.95
427.90	3695.71
428.09	3630.17
428.28	3737.84
428.46	3688.68
428.65	3676.98
428.84	3866.56
429.03	3747.20
429.22	3719.11
429.40	3742.52
429.59	3847.84
429.78	3651.24
429.97	3581.02
430.16	3763.58
430.34	3929.76
430.53	3824.44
430.72	3962.53
430.91	4004.66
431.10	3983.59
431.28	3971.89
431.47	4117.00
431.66	4182.54
431.85	3983.59
432.03	3927.42
432.22	4182.54
432.41	4131.05
432.60	4098.28
432.79	4014.02
432.97	4058.49
433.16	4126.36
433.35	4170.83
433.54	4264.46
433.72	4311.27
433.91	4262.12
434.10	4234.03
434.28	4102.96
434.47	4252.75
434.66	4430.63
434.85	4311.27
435.03	4449.36
435.22	4386.16
435.41	4395.53
435.59	4425.95
435.78	4435.32
435.97	4456.38
436.16	4313.61
436.34	4315.95
436.53	4559.36
436.72	4510.21
436.90	4456.38
437.09	4571.07
437.28	4589.79
437.46	4594.47
437.65	4575.75
437.84	4650.64
438.02	4812.14
438.21	4692.77
438.40	4561.70
438.58	4840.23
438.77	4858.95
438.96	4777.03
439.14	4910.44
439.33	4830.87
439.52	4926.83
439.70	5039.17
439.89	4940.87
440.08	5060.24
440.26	5088.32
440.45	5029.81
440.63	5156.20
440.82	5238.12
441.01	5219.39
441.19	5376.21
441.38	5263.86
441.57	5305.99
441.75	5497.92
441.94	5380.89
442.12	5364.51
442.31	5483.88
442.50	5549.41
442.68	5420.68
442.87	5495.58
443.05	5408.98
443.24	5589.20
443.43	5614.95
443.61	5500.26
443.80	5692.18
443.98	5507.28
444.17	5366.85
444.35	5657.07
444.54	5591.54
444.73	5636.01
444.91	5799.85
445.10	5783.46
445.28	5645.37
445.47	5633.67
445.65	5612.60
445.84	5757.72
446.02	5877.09
446.21	5668.78
446.39	5692.18
446.58	5933.26
446.77	5905.17
446.95	5596.22
447.14	5797.51
447.32	5884.11
447.51	5933.26
447.69	5570.48
447.88	5841.98
448.06	5905.17
448.25	5806.87
448.43	5823.25
448.62	5921.56
448.80	5933.26
448.99	5975.39
449.17	6031.56
449.36	5961.34
449.54	6033.90
449.73	6071.35
449.91	6193.06
450.10	6237.53
450.28	6164.97
450.46	6232.85
450.65	6129.86
450.83	6235.19
451.02	6207.10
451.20	6263.27
451.39	6370.94
451.57	6183.70
451.76	6225.82
451.94	6333.49
452.13	6342.85
452.31	6441.15
452.49	6260.93
452.68	6424.77
452.86	6373.28
453.05	6523.07
453.23	6473.92
453.42	6221.14
453.60	6349.87
453.78	6487.96
453.97	6387.32
454.15	6555.84
454.34	6483.28
454.52	6672.87
454.70	6703.29
454.89	6602.65
455.07	6679.89
455.26	6719.68
455.44	6729.04
455.62	6642.44
455.81	6679.89
455.99	6836.70
456.17	6794.58
456.36	6693.93
456.54	6953.73
456.73	6906.92
456.91	7082.46
457.09	7122.25
457.28	7456.95
457.46	7110.55
457.64	7190.13
457.83	7073.10
458.01	7082.46
458.19	7143.32
458.38	7215.87
458.56	7335.24
458.74	7323.54
458.93	7138.63
459.11	7288.43
459.29	7393.75
459.48	7227.57
459.66	7365.67
459.84	7368.01
460.03	7562.27
460.21	7356.30
460.39	7421.84
460.57	7534.18
460.76	7452.27
460.94	7583.34
461.12	7386.73
461.31	7520.14
461.49	7653.55
461.67	7581.00
461.85	7655.89
462.04	7648.87
462.22	8166.13
462.40	8051.44
462.59	7812.71
462.77	7885.26
462.95	7779.94
463.13	7953.14
463.32	7981.23
463.50	7964.84
463.68	8004.63
463.86	8196.56
464.05	7999.95
464.23	7981.23
464.41	8063.15
464.59	7932.08
464.78	8271.45
464.96	7894.63
465.14	7772.92
465.32	8079.53
465.50	8163.79
465.69	8161.45
465.87	8126.34
466.05	8304.22
466.23	8154.43
466.41	8297.20
466.60	8393.16
466.78	8264.43
466.96	8133.36
467.14	8414.23
467.32	8418.91
467.51	8587.43
467.69	8243.37
467.87	8498.49
468.05	8510.19
468.23	8510.19
468.41	8482.10
468.60	8629.56
468.78	8545.30
468.96	8580.40
469.14	8610.83
469.32	8730.20
469.50	8643.60
469.69	8807.44
469.87	8727.86
470.05	8959.57
470.23	8704.45
470.41	9011.06
470.59	9011.06
470.77	8954.89
470.95	8901.06
471.14	9207.67
471.32	8959.57
471.50	9081.28
471.68	9142.13
471.86	9081.28
472.04	9280.22
472.22	9390.23
472.40	9200.65
472.58	9366.82
472.77	9404.27
472.95	9357.46
473.13	9825.57
473.31	9558.75
473.49	9511.94
473.67	9504.92
473.85	9462.79
474.03	9907.49
474.21	9888.76
474.39	9966.00
474.57	9870.04
474.75	9846.63
474.93	9996.43
475.12	10038.56
475.30	10253.89
475.48	10125.16
475.66	10064.30
475.84	10171.97
476.02	10387.30
476.20	10438.79
476.38	10396.66
476.56	10738.38
476.74	10729.02
476.92	10483.26
477.10	10494.96
477.28	10850.72
477.46	10815.62
477.64	11002.86
477.82	11197.12
478.00	11477.99
478.18	11262.66
478.36	11040.31
478.54	11398.41
478.72	11346.92
478.90	11613.74
479.08	11712.04
479.26	11716.72
479.44	11576.29
479.62	12035.03
479.80	12145.04
479.98	12063.12
480.16	12308.88
480.34	12262.07
480.52	12421.22
480.70	12318.24
480.88	12393.14
481.06	12475.06
481.24	12461.01
481.41	12678.68
481.59	12849.54
481.77	13123.38
481.95	13001.68
482.13	13067.21
482.31	13163.17
482.49	13394.89
482.67	13334.03
482.85	13715.54
483.03	13741.29
483.21	13862.99
483.39	13933.21
483.57	14040.87
483.74	14087.68
483.92	14200.03
484.10	14291.31
484.28	14485.58
484.46	14745.38
484.64	14815.59
484.82	14586.22
485.00	14771.12
485.18	15169.01
485.35	15173.69
485.53	15356.25
485.71	15321.15
485.89	15573.92
486.07	15435.83
486.25	15777.55
486.43	15843.09
486.61	15786.91
486.78	16226.93
486.96	16140.33
487.14	16058.42
487.32	16329.92
487.50	16411.84
487.68	16556.95
487.85	17090.59
488.03	16702.06
488.21	17539.97
488.39	16957.18
488.57	17324.65
488.75	17048.46
488.92	17554.02
489.10	17860.63
489.28	17869.99
489.46	17998.72
489.64	18008.08
489.81	18569.81
489.99	18305.33
490.17	18127.45
490.35	18747.69
490.53	18714.92
490.70	18946.64
490.88	18853.02
491.06	18766.42
491.24	19192.39
491.41	19136.22
491.59	19538.79
491.77	19637.09
491.95	19578.58
492.13	19988.18
492.30	19892.21
492.48	20168.40
492.66	19800.93
492.84	20257.34
493.01	20376.70
493.19	20669.27
493.37	20968.86
493.54	20589.69
493.72	20582.67
493.90	21053.12
494.08	20744.17
494.25	21156.10
494.43	21425.26
494.61	21394.84
494.79	21514.20
494.96	21109.29
495.14	21568.04
495.32	21827.84
495.49	21942.52
495.67	22167.21
495.85	22471.48
496.02	22307.65
496.20	22436.38
496.38	22415.31
496.55	22693.83
496.73	23068.32
496.91	22796.82
497.09	23077.68
497.26	23452.17
497.44	23548.13
497.62	23438.12
497.79	23562.17
497.97	23592.60
498.14	23608.98
498.32	24285.40
498.50	23800.91
498.67	24219.86
498.85	24261.99
499.03	24168.37
499.20	24582.65
499.38	24390.72
499.56	24762.87
499.73	24765.21
499.91	24790.95
500.08	25017.99
500.26	24779.25
500.44	25083.52
500.61	25010.96
500.79	25249.70
500.97	25205.23
501.14	25675.68
501.32	25692.06
501.49	25717.81
501.67	25649.93
501.84	25734.19
502.02	26260.81
502.20	26022.08
502.37	25881.64
502.55	25970.58
502.72	26164.85
502.90	26265.49
503.07	26249.11
503.25	26581.46
503.43	26270.17
503.60	26679.77
503.78	27016.80
503.95	26850.63
504.13	27047.23
504.30	26593.17
504.48	27161.92
504.65	27356.18
504.83	27290.65
505.01	27400.65
505.18	27620.66
505.36	27779.82
505.53	27491.93
505.71	27765.78
505.88	27800.88
506.06	27601.94
506.23	27903.87
506.41	27510.66
506.58	28191.75
506.76	28371.97
506.93	28437.51
507.11	27838.33
507.28	28168.35
507.46	28407.08
507.63	28718.37
507.81	28481.98
507.98	28418.78
508.16	28587.30
508.33	29078.82
508.50	29364.36
508.68	29064.77
508.85	29546.92
509.03	29486.07
509.20	29539.90
509.38	29759.91
509.55	29640.54
509.73	29546.92
509.90	29727.14
510.08	29937.79
510.25	29422.87
510.42	29975.24
510.60	30169.51
510.77	30485.48
510.95	30431.65
511.12	30384.83
511.30	30417.60
511.47	30834.22
511.64	30354.41
511.82	30733.57
511.99	30302.92
512.17	30991.03
512.34	30586.12
512.51	31257.85
512.69	31185.30
512.86	31012.10
513.04	31079.97
513.21	31197.00
513.38	31384.24
513.56	31585.53
513.73	31262.54
513.90	31496.59
514.08	31414.67
514.25	31538.72
514.43	32030.23
514.60	31985.76
514.77	32123.85
514.95	32519.40
515.12	31952.99
515.29	31894.48
515.47	32285.35
515.64	32044.27
515.81	32093.43
515.99	32629.41
516.16	32861.12
516.33	32428.12
516.51	33181.77
516.68	32980.49
516.85	33104.54
517.03	33163.05
517.20	33071.77
517.37	32957.08
517.54	33415.83
517.72	32975.81
517.89	33539.88
518.06	33748.18
518.24	33453.28
518.41	33439.23
518.58	33542.22
518.75	33574.98
518.93	33724.78
519.10	34078.20
519.27	33851.17
519.45	33839.47
519.62	33958.83
519.79	34174.16
519.96	34272.46
520.14	34288.85
520.31	33818.40
520.48	34340.34
520.65	34506.52
520.83	34803.77
521.00	34925.47
521.17	34607.16
521.34	34883.34
521.52	34691.42
521.69	34967.60
521.86	34813.13
522.03	35470.82
522.20	35166.55
522.38	35681.47
522.55	35695.51
522.72	35309.32
522.89	34998.03
523.07	35800.83
523.24	35805.52
523.41	35922.54
523.58	35880.41
523.75	35952.97
523.92	35833.60
524.10	35910.84
524.27	35693.17
524.44	36407.03
524.61	36397.67
524.78	36259.58
524.96	36847.05
525.13	36605.98
525.30	36273.62
525.47	36730.03
525.64	36144.89
525.81	36987.49
525.98	36458.52
526.16	36699.60
526.33	37083.45
526.50	37237.92
526.67	36713.64
526.84	37359.63
527.01	36907.91
527.18	36655.13
527.36	37216.86
527.53	37130.26
527.70	37902.64
527.87	37904.98
528.04	36919.61
528.21	37565.60
528.38	37614.75
528.55	37464.96
528.72	37333.89
528.89	37706.03
529.07	37589.00
529.24	37551.56
529.41	37738.80
529.58	38209.25
529.75	37699.01
529.92	38288.82
530.09	38127.33
530.26	37937.74
530.43	38323.93
530.60	38370.74
530.77	38148.39
530.94	38155.41
531.11	38361.38
531.28	38394.15
531.46	38546.28
531.63	38642.24
531.80	38639.90
531.97	38813.10
532.14	38518.20
532.31	38958.22
532.48	38515.86
532.65	38920.77
532.82	39274.19
532.99	39220.36
533.16	38951.20
533.33	38944.17
533.50	39033.11
533.67	39407.60
533.84	39016.73
534.01	39201.63
534.18	39122.05
534.35	39707.19
534.52	39716.55
534.69	39447.39
534.86	39587.82
535.03	39625.27
535.20	39718.89
535.37	39952.94
535.54	39871.03
535.71	39833.58
535.88	39995.07
536.05	39981.03
536.22	39861.66
536.38	40208.06
536.55	40229.13
536.72	40442.12
536.89	40058.27
537.06	40191.68
537.23	40545.10
537.40	40673.83
537.57	40098.06
537.74	40425.73
537.91	40961.72
538.08	40617.66
538.25	40285.30
538.42	40795.54
538.59	41223.86
538.75	40671.49
538.92	40872.78
539.09	40975.76
539.26	40886.82
539.43	41027.25
539.60	41352.58
539.77	40872.78
539.94	41198.11
540.11	41193.43
540.28	41123.21
540.44	41144.28
540.61	41036.61
540.78	41048.32
540.95	41221.52
541.12	41258.96
541.29	41275.35
541.46	41462.59
541.62	41876.86
541.79	42012.62
541.96	41359.61
542.13	41593.66
542.30	41715.37
542.47	41549.19
542.63	41888.57
542.80	41848.78
542.97	42253.69
543.14	42440.93
543.31	42183.48
543.48	42031.34
543.64	42504.13
543.81	42604.77
543.98	42782.65
544.15	42532.22
544.32	42735.84
544.48	42658.60
544.65	42759.25
544.82	42719.46
544.99	42696.05
545.16	42295.82
545.32	42555.62
545.49	42733.50
545.66	43229.69
545.83	42731.16
546.00	43409.92
546.16	43297.57
546.33	42897.34
546.50	42529.87
546.67	42986.28
546.83	42583.71
547.00	42787.33
547.17	43012.02
547.34	43599.50
547.50	43461.41
547.67	43758.66
547.84	42866.91
548.00	43248.42
548.17	43599.50
548.34	43545.67
548.51	43515.24
548.67	43667.37
548.84	43845.26
549.01	43538.65
549.18	43746.95
549.34	43772.70
549.51	43973.98
549.68	44191.65
549.84	43878.02
550.01	43658.01
550.18	43683.76
550.34	44161.23
550.51	44664.44
550.68	43985.69
550.84	43772.70
551.01	44245.49
551.18	44051.22
551.34	43880.36
551.51	44374.22
551.68	44531.03
551.84	44301.66
552.01	44306.34
552.18	44404.64
552.34	44177.61
552.51	44624.65
552.68	44472.52
552.84	44729.98
553.01	44713.59
553.18	44477.20
553.34	44928.92
553.51	44626.99
553.67	44706.57
553.84	44816.58
554.01	44722.96
554.17	44945.31
554.34	44807.22
554.51	45289.37
554.67	45485.97
554.84	45343.20
555.00	45378.31
555.17	45055.31
555.33	45045.95
555.50	45425.12
555.67	45254.26
555.83	45214.47
556.00	45219.15
556.16	45858.12
556.33	45446.18
556.50	45354.90
556.66	45216.81
556.83	45083.40
556.99	45705.98
557.16	45359.58
557.32	45986.85
557.49	45766.84
557.65	45633.42
557.82	45518.74
557.98	45333.84
558.15	45670.87
558.32	45794.92
558.48	45411.07
558.65	45525.76
558.81	45734.07
558.98	45598.32
559.14	45385.33
559.31	45509.38
559.47	45769.18
559.64	46220.90
559.80	45972.80
559.97	46120.26
560.13	45935.35
560.30	45626.40
560.46	45993.87
560.63	46251.33
560.79	46272.39
560.96	46450.27
561.12	46267.71
561.29	46791.99
561.45	46204.52
561.61	46274.73
561.78	46134.30
561.94	46174.09
562.11	46075.79
562.27	46188.13
562.44	45886.20
562.60	46010.25
562.77	46560.28
562.93	45827.69
563.10	46766.24
563.26	46171.75
563.42	46684.33
563.59	46513.47
563.75	46628.15
563.92	46623.47
564.08	46143.66
564.24	46714.75
564.41	46780.29
564.57	46440.91
564.74	46328.56
564.90	46405.80
565.07	46466.66
565.23	46408.14
565.39	46227.92
565.56	46705.39
565.72	46763.90
565.88	46487.72
566.05	46665.60
566.21	46667.94
566.38	46721.77
566.54	46869.23
566.70	46461.97
566.87	46904.34
567.03	46724.11
567.19	46761.56
567.36	46588.36
567.52	46656.24
567.68	47215.63
567.85	46880.93
568.01	47232.01
568.17	47042.43
568.34	47199.24
568.50	46932.42
568.66	46700.71
568.83	46735.82
568.99	46878.59
569.15	47065.83
569.32	46583.68
569.48	47138.39
569.64	47112.64
569.81	47519.90
569.97	46820.08
570.13	47215.63
570.30	46721.77
570.46	47002.64
570.62	47381.80
570.78	46965.19
570.95	46878.59
571.11	47522.24
571.27	46930.08
571.43	46665.60
571.60	46932.42
571.76	47119.66
571.92	46845.82
572.09	47250.74
572.25	47089.24
572.41	46897.31
572.57	47187.54
572.74	47632.24
572.90	47199.24
573.06	47732.89
573.22	47540.96
573.38	47587.77
573.55	47313.93
573.71	47470.75
573.87	47281.16
574.03	47002.64
574.20	47648.63
574.36	47250.74
574.52	47157.11
574.68	47468.40
574.84	47508.19
575.01	47288.18
575.17	47433.30
575.33	47400.53
575.49	47178.18
575.65	47662.67
575.82	47372.44
575.98	47466.06
576.14	47538.62
576.30	47636.92
576.46	47459.04
576.62	47416.91
576.79	47814.80
576.95	47054.13
577.11	47150.09
577.27	47313.93
577.43	47599.47
577.59	47590.11
577.75	47260.10
577.92	47583.09
578.08	47370.10
578.24	47147.75
578.40	47646.29
578.56	47299.89
578.72	47686.07
578.88	47735.23
579.04	47232.01
579.21	47356.06
579.37	47796.08
579.53	47826.51
579.69	47786.72
579.85	47508.19
580.01	47770.33
580.17	47468.40
580.33	48018.43
580.49	47700.12
580.65	47744.59
580.82	47833.53
580.98	47206.26
581.14	47346.70
581.30	47812.46
581.46	47723.52
581.62	47737.57
581.78	47564.37
581.94	47435.64
582.10	47763.31
582.26	47763.31
582.42	47587.77
582.58	47821.83
582.74	47992.68
582.90	47868.64
583.06	48116.73
583.22	47454.36
583.38	47650.97
583.54	48177.59
583.70	47920.13
583.86	47735.23
584.02	48137.80
584.18	47746.93
584.34	48184.61
584.50	48156.52
584.66	48039.50
584.82	47945.87
584.98	48385.89
585.14	47557.35
585.30	47398.19
585.46	48247.80
585.62	47590.11
585.78	48034.81
585.94	47587.77
586.10	48128.44
586.26	47744.59
586.42	47798.42
586.58	47894.38
586.74	47655.65
586.90	47564.37
587.06	47973.96
587.22	48296.95
587.38	47887.36
587.54	47796.08
587.70	48254.82
587.86	47842.89
588.02	47571.39
588.18	47990.34
588.34	47721.18
588.49	47969.28
588.65	47969.28
588.81	47562.03
588.97	48062.90
589.13	47959.92
589.29	48238.44
589.45	47842.89
589.61	48339.08
589.77	48266.53
589.93	47840.55
590.08	48289.93
590.24	48364.83
590.40	48456.11
590.56	48561.44
590.72	48341.42
590.88	48060.56
591.04	48093.33
591.20	48498.24
591.35	48390.58
591.51	48751.02
591.67	48753.36
591.83	48378.87
591.99	48381.21
592.15	48224.40
592.31	48294.61
592.46	48020.77
592.62	48444.41
592.78	48268.87
592.94	48573.14
593.10	48502.92
593.26	48720.59
593.41	48322.70
593.57	48273.55
593.73	49024.86
593.89	48708.89
594.05	48619.95
594.20	48758.04
594.36	48736.98
594.52	48240.78
594.68	48474.84
594.84	48053.54
594.99	48886.77
595.15	48538.03
595.31	48624.63
595.47	48531.01
595.62	48617.61
595.78	48479.52
595.94	48119.07
596.10	48308.66
596.25	48699.53
596.41	48804.85
596.57	48596.54
596.73	48748.68
596.88	48994.43
597.04	48390.58
597.20	48872.73
597.36	48751.02
597.51	48636.33
597.67	48402.28
597.83	48720.59
597.99	48952.30
598.14	48790.81
598.30	48617.61
598.46	48472.49
598.61	48547.39
598.77	48591.86
598.93	48795.49
599.09	48493.56
599.24	49120.82
599.40	48816.55
599.56	48727.61
599.71	48811.87
599.87	48907.83
600.03	48947.62
600.18	48839.96
600.34	48765.06
600.50	48837.62
600.65	48744.00
600.81	49226.15
600.97	49277.64
601.12	48837.62
601.28	48910.17
601.44	49097.42
601.59	48568.46
601.75	48687.82
601.91	48917.20
602.06	48573.14
602.22	48928.90
602.37	48624.63
602.53	48526.33
602.69	48800.17
602.84	49001.46
603.00	48528.67
603.16	48767.40
603.31	48580.16
603.47	48844.64
603.62	48729.95
603.78	49048.27
603.94	48942.94
604.09	49195.72
604.25	48924.22
604.40	48245.46
604.56	48914.86
604.71	48975.71
604.87	48804.85
605.03	48507.60
605.18	48460.79
605.34	48825.92
605.49	48650.38
605.65	48783.79
605.80	48563.78
605.96	48774.42
606.12	48669.10
606.27	48935.92
606.43	48432.71
606.58	48734.63
606.74	48509.94
606.89	48729.95
607.05	48753.36
607.20	48830.60
607.36	48664.42
607.51	48196.31
607.67	48467.81
607.82	48701.87
607.98	48376.53
608.13	48624.63
608.29	48432.71
608.44	48573.14
608.60	48435.05
608.75	48708.89
608.91	48580.16
609.06	48065.24
609.22	49020.18
609.37	48416.32
609.53	48814.21
609.68	48467.81
609.84	48636.33
609.99	48257.17
610.15	48500.58
610.30	48523.99
610.46	48048.86
610.61	48570.80
610.76	48598.88
610.92	48203.33
611.07	48250.14
611.23	48076.94
611.38	48369.51
611.54	48320.36
611.69	48163.54
611.84	48376.53
612.00	48718.25
612.15	48133.12
612.31	48289.93
612.46	47889.70
612.62	48121.41
612.77	48685.48
612.92	48311.00
613.08	47969.28
613.23	48252.48
613.39	47955.24
613.54	48076.94
613.69	48570.80
613.85	48020.77
614.00	47992.68
614.15	48458.45
614.31	48154.18
614.46	48189.29
614.62	48311.00
614.77	48121.41
614.92	48179.93
615.08	48105.03
615.23	48268.87
615.38	48081.63
615.54	48027.79
615.69	48095.67
615.84	48053.54
616.00	47980.98
616.15	47976.30
616.30	48308.66
616.46	48271.21
616.61	47971.62
616.76	48189.29
616.92	47590.11
617.07	47688.42
617.22	47725.86
617.37	47655.65
617.53	47718.84
617.68	47887.36
617.83	47707.14
617.99	48163.54
618.14	47934.17
618.29	47421.59
618.45	47882.68
618.60	47285.84
618.75	47512.88
618.90	47353.72
619.06	47519.90
619.21	47320.95
619.36	47536.28
619.51	47487.13
619.67	47388.83
619.82	47449.68
619.97	47744.59
620.12	47814.80
620.28	47522.24
620.43	47655.65
620.58	47557.35
620.73	47840.55
620.89	47620.54
621.04	47650.97
621.19	47386.49
621.34	47498.83
621.49	47068.17
621.65	47077.54
621.80	47547.98
621.95	47599.47
622.10	47290.52
622.25	47302.23
622.41	47077.54
622.56	47337.33
622.71	47512.88
622.86	47372.44
623.01	47232.01
623.16	47026.04
623.32	47276.48
623.47	47412.23
623.62	47023.70
623.77	46993.28
623.92	47166.48
624.07	47019.02
624.23	47224.99
624.38	46850.50
624.53	46789.65
624.68	46443.25
624.83	46878.59
624.98	46602.41
625.13	46396.44
625.29	46557.94
625.44	46948.81
625.59	46689.01
625.74	46635.17
625.89	46752.20
626.04	46733.48
626.19	47096.26
626.34	46440.91
626.49	46550.91
626.65	45991.53
626.80	46443.25
626.95	46396.44
627.10	46422.19
627.25	46553.26
627.40	46775.61
627.55	46567.30
627.70	46192.81
627.85	46698.37
628.00	46445.59
628.15	46579.00
628.30	46288.77
628.45	45642.79
628.60	45553.85
628.76	46251.33
628.91	46309.84
629.06	45783.22
629.21	45956.42
629.36	45804.28
629.51	45883.86
629.66	46162.39
629.81	45844.07
629.96	46157.70
630.11	45860.46
630.26	45605.34
630.41	46045.36
630.56	46040.68
630.71	45961.10
630.86	45551.51
631.01	45207.45
631.16	45446.18
631.31	45792.58
631.46	45640.45
631.61	45902.59
631.76	46012.59
631.91	46080.47
632.06	45860.46
632.21	45937.69
632.36	46298.14
632.51	45787.90
632.66	45907.27
632.81	45694.28
632.96	45633.42
633.10	45289.37
633.25	45090.42
633.40	45343.20
633.55	45851.09
633.70	45174.68
633.85	45663.85
634.00	45656.83
634.15	44816.58
634.30	45682.58
634.45	45289.37
634.60	45579.59
634.75	45523.42
634.90	45556.19
635.05	45462.57
635.19	45769.18
635.34	45167.66
635.49	45303.41
635.64	45624.06
635.79	45240.21
635.94	45504.70
636.09	45345.54
636.24	45460.23
636.39	45067.02
636.53	45762.15
636.68	44666.78
636.83	44900.84
636.98	44465.50
637.13	44788.49
637.28	44250.17
637.43	44865.73
637.57	44615.29
637.72	44528.69
637.87	44612.95
638.02	44641.04
638.17	44903.18
638.32	44133.14
638.46	44626.99
638.61	44659.76
638.76	44371.88
638.91	44432.73
639.06	44346.13
639.20	43957.60
639.35	44027.82
639.50	44278.25
639.65	44437.41
639.80	44669.12
639.94	44765.09
640.09	44587.21
640.24	44250.17
640.39	44315.70
640.54	43737.59
640.68	44816.58
640.83	44774.45
640.98	44355.49
641.13	43854.62
641.27	44332.09
641.42	44142.50
641.57	44226.76
641.72	44165.91
641.86	44156.55
642.01	43892.07
642.16	43709.50
642.31	42953.51
642.45	44004.41
642.60	43578.43
642.75	43749.29
642.90	44062.93
643.04	44245.49
643.19	43679.08
643.34	44076.97
643.48	43349.06
643.63	43842.92
643.78	43753.97
643.93	43920.15
644.07	43384.17
644.22	43842.92
644.37	43627.59
644.51	43810.15
644.66	43683.76
644.81	43786.74
644.95	43746.95
645.10	43650.99
645.25	43276.51
645.39	43147.78
645.54	43388.85
645.69	43051.81
645.83	43068.20
645.98	43545.67
646.13	43529.28
646.27	43473.11
646.42	42838.83
646.57	43171.18
646.71	43786.74
646.86	43325.66
647.00	43613.54
647.15	43110.33
647.30	43683.76
647.44	43056.50
647.59	43232.04
647.74	43033.09
647.88	43330.34
648.03	43342.04
648.17	43089.26
648.32	43318.64
648.47	43356.08
648.61	43112.67
648.76	42939.47
648.90	42780.31
649.05	43201.61
649.20	42843.51
649.34	42937.13
649.49	42869.25
649.63	42852.87
649.78	42651.58
649.92	42876.27
650.07	42948.83
650.21	43182.88
650.36	43072.88
650.51	42763.93
650.65	43119.69
650.80	42997.98
650.94	42614.13
651.09	42981.60
651.23	42185.82
651.38	42438.59
651.52	42497.11
651.67	42033.68
651.81	42536.90
651.96	42361.36
652.10	41771.54
652.25	42389.44
652.39	42326.25
652.54	42363.70
652.68	41888.57
652.83	42131.98
652.97	42501.79
653.12	42361.36
653.26	42089.85
653.41	42026.66
653.55	42403.49
653.70	42618.81
653.84	42361.36
653.99	42150.71
654.13	42218.58
654.27	42148.37
654.42	42401.14
654.56	41783.24
654.71	41862.82
654.85	42251.35
655.00	41982.19
655.14	42129.64
655.29	42192.84
655.43	42216.24
655.57	41631.11
655.72	41965.81
655.86	41839.42
656.01	41656.85
656.15	41504.72
656.30	41525.78
656.44	41708.35
656.58	41839.42
656.73	41682.60
656.87	41312.80
657.01	41663.88
657.16	41434.50
657.30	42064.11
657.45	41563.23
657.59	41137.26
657.73	41577.28
657.88	41837.08
658.02	41975.17
658.16	41607.70
658.31	41034.27
658.45	41570.25
658.60	41254.28
658.74	41467.27
658.88	41078.74
659.03	41310.46
659.17	40526.38
659.31	40905.54
659.46	40722.98
659.60	41385.35
659.74	40629.36
659.89	40404.67
660.03	40151.89
660.17	40772.13
660.32	40629.36
660.46	40322.75
660.60	40437.44
660.74	40369.56
660.89	40521.69
661.03	40261.90
661.17	40170.61
661.32	39711.87
661.46	40161.25
661.60	40385.94
661.74	39945.92
661.89	39707.19
662.03	40069.97
662.17	39693.15
662.31	39915.50
662.46	40130.83
662.60	39653.36
662.74	39398.24
662.88	39473.13
663.03	39112.69
663.17	39068.22
663.31	38993.32
663.45	39826.56
663.60	39487.18
663.74	39651.02
663.88	39524.63
664.02	39377.17
664.17	39622.93
664.31	39447.39
664.45	38876.30
664.59	39440.37
664.73	38913.75
664.88	39517.60
665.02	38710.12
665.16	38614.16
665.30	38644.59
665.44	38440.96
665.59	38492.45
665.73	38513.52
665.87	38625.86
666.01	38443.30
666.15	38721.82
666.29	38375.42
666.44	39075.24
666.58	38513.52
666.72	37872.21
666.86	38190.52
667.00	38103.92
667.14	38426.92
667.28	38216.27
667.43	38101.58
667.57	37794.97
667.71	38211.59
667.85	38033.71
667.99	37816.04
668.13	37467.30
668.27	37422.83
668.41	37570.28
668.56	36987.49
668.70	37270.69
668.84	37053.02
668.98	36968.76
669.12	37338.57
669.26	37221.54
669.40	37266.01
669.54	37092.81
669.68	37317.50
669.82	37160.69
669.96	36858.76
670.10	36683.22
670.25	36381.29
670.39	36711.30
670.53	36472.57
670.67	36615.34
670.81	37273.03
670.95	36486.61
671.09	36460.87
671.23	36329.80
671.37	36051.27
671.51	36081.70
671.65	36187.02
671.79	36339.16
671.93	35892.12
672.07	35974.03
672.21	35873.39
672.35	35526.99
672.49	35880.41
672.63	35924.88
672.77	35372.52
672.91	35859.35
673.05	35281.24
673.19	35232.08
673.33	35133.78
673.47	34831.85
673.61	34918.45
673.75	35065.91
673.89	34712.49
674.03	34579.07
674.17	34408.22
674.31	34401.19
674.45	34036.07
674.59	34590.78
674.73	34263.10
674.87	33951.81
675.01	34293.53
675.15	33855.85
675.29	33511.79
675.43	33862.87
675.56	34270.12
675.70	34117.99
675.84	33780.95
675.98	32886.87
676.12	33958.83
676.26	33497.75
676.40	33315.19
676.54	33205.18
676.68	33137.30
676.82	32545.15
676.96	33031.98
677.10	33216.88
677.23	32936.02
677.37	32982.83
677.51	32762.82
677.65	32580.26
677.79	32671.54
677.93	32432.80
678.07	32311.10
678.21	32217.47
678.34	31800.86
678.48	31824.26
678.62	31641.70
678.76	31655.75
678.90	31587.87
679.04	31875.76
679.18	31901.50
679.31	31421.69
679.45	31103.38
679.59	31220.41
679.73	31379.56
679.87	31330.41
680.00	31082.31
680.14	31002.74
680.28	30675.06
680.42	30476.12
680.56	30398.88
680.70	30508.88
680.83	29928.43
680.97	30272.49
681.11	30349.73
681.25	29635.86
681.39	29778.64
681.52	29909.71
681.66	29565.65
681.80	29408.83
681.94	29146.69
682.07	29200.52
682.21	29064.77
682.35	29434.58
682.49	29123.29
682.62	29294.14
682.76	29205.20
682.90	29102.22
683.04	28936.04
683.17	28884.55
683.31	28680.92
683.45	28531.13
683.59	28105.15
683.72	28198.77
683.86	28077.07
684.00	28032.60
684.13	28044.30
684.27	27700.24
684.41	27639.39
684.55	27697.90
684.68	27456.82
684.82	27438.10
684.96	27260.22
685.09	27625.34
685.23	27498.95
685.37	27662.79
685.50	27374.91
685.64	27201.71
685.78	26782.75
685.91	27126.81
686.05	26167.19
686.19	26438.69
686.32	26464.44
686.46	26281.88
686.60	25771.64
686.73	26089.95
686.87	25607.80
687.01	25823.13
687.14	25881.64
687.28	25699.08
687.42	25458.01
687.55	25598.44
687.69	25682.70
687.82	25165.44
687.96	25362.04
688.10	25436.94
688.23	25174.80
688.37	25088.20
688.50	25256.72
688.64	25390.13
688.78	25104.59
688.91	24781.59
689.05	24905.64
689.18	24479.66
689.32	23756.44
689.46	23840.70
689.59	24109.86
689.73	24219.86
689.86	24336.89
690.00	24219.86
690.13	24009.22
690.27	23735.37
690.41	24041.98
690.54	23190.03
690.68	23360.89
690.81	23199.39
690.95	23283.65
691.08	23536.43
691.22	22874.06
691.35	23173.64
691.49	23035.55
691.62	23026.19
691.76	22565.10
691.89	22324.03
692.03	22382.54
692.16	22169.55
692.30	22284.24
692.43	22246.79
692.57	22176.58
692.70	21921.46
692.84	21806.77
692.97	21680.38
693.11	21902.73
693.24	21142.06
693.38	21511.86
693.51	21532.93
693.65	21385.47
693.78	21060.14
693.92	21198.23
694.05	21118.65
694.19	21149.08
694.32	20814.38
694.45	21158.44
694.59	21053.12
694.72	20886.94
694.86	20711.40
694.99	20327.55
695.13	19969.45
695.26	19988.18
695.39	20023.28
695.53	19997.54
695.66	20086.48
695.80	19590.28
695.93	19686.25
696.07	19566.88
696.20	19316.44
696.33	19049.62
696.47	19381.98
696.60	19365.59
696.73	19044.94
696.87	19330.48
697.00	19360.91
697.14	19150.26
697.27	18803.86
697.40	19087.07
697.54	18471.51
697.67	18623.64
697.80	18764.07
697.94	18569.81
698.07	18235.11
698.21	18338.10
698.34	18408.31
698.47	18059.57
698.61	17886.37
698.74	17975.31
698.87	17722.54
699.01	17685.09
699.14	17855.95
699.27	17607.85
699.40	17434.65
699.54	17591.47
699.67	17301.24
699.80	17486.14
699.94	16938.46
700.07	17275.49
700.20	17158.47
700.34	16896.33
700.47	16908.03
700.60	17104.64
700.73	17006.33
700.87	16870.58
701.00	16500.78
701.13	16416.52
701.26	16514.82
701.40	16248.00
701.53	16095.86
701.66	16238.64
701.79	16283.11
701.93	15751.81
702.06	15667.55
702.19	15620.74
702.32	15843.09
702.46	15765.85
702.59	15974.16
702.72	16161.40
702.85	15632.44
702.99	15484.98
703.12	15695.63
703.25	15161.99
703.38	15150.29
703.51	15082.41
703.65	15241.57
703.78	14834.32
703.91	14649.41
704.04	14925.60
704.17	14548.77
704.31	14682.18
704.44	14733.67
704.57	14553.45
704.70	14487.92
704.83	14232.80
704.96	14270.25
705.10	14157.90
705.23	14272.59
>>>>>End Processed Spectral Data<<<<<
