SpectraSuite Data File
++++++++++++++++++++++++++++++++++++
Date: Fri Oct 25 10:47:02 EDT 2013
User: price-jones
Dark Spectrum Present: No
Reference Spectrum Present: No
Number of Sampled Component Spectra: 1
Spectrometers: USB2+H05261
Integration Time (usec): 100000 (USB2+H05261)
Spectra Averaged: 1 (USB2+H05261)
Boxcar Smoothing: 0 (USB2+H05261)
Correct for Electrical Dark: No (USB2+H05261)
Strobe/Lamp Enabled: No (USB2+H05261)
Correct for Detector Non-linearity: No (USB2+H05261)
Correct for Stray Light: No (USB2+H05261)
Number of Pixels in Processed Spectrum: 2048
>>>>>Begin Processed Spectral Data<<<<<
365.73	147.45
365.92	147.45
366.12	147.45
366.32	7.02
366.52	4.68
366.72	74.90
366.91	35.11
367.11	74.90
367.31	49.15
367.51	0.00
367.70	51.49
367.90	46.81
368.10	14.04
368.30	21.06
368.49	58.51
368.69	0.00
368.89	121.71
369.09	49.15
369.28	35.11
369.48	39.79
369.68	63.19
369.87	58.51
370.07	110.01
370.27	177.88
370.47	156.82
370.66	365.12
370.86	491.51
371.06	393.21
371.25	414.27
371.45	397.89
371.65	461.09
371.84	428.32
372.04	496.19
372.24	416.62
372.44	463.43
372.63	418.96
372.83	564.07
373.03	564.07
373.22	449.38
373.42	507.90
373.62	552.37
373.81	526.62
374.01	538.32
374.21	575.77
374.40	528.96
374.60	587.47
374.79	493.85
374.99	575.77
375.19	606.20
375.38	566.41
375.58	622.58
375.78	554.71
375.97	631.94
376.17	624.92
376.37	615.56
376.56	653.01
376.76	484.49
376.95	571.09
377.15	587.47
377.35	620.24
377.54	657.69
377.74	543.00
377.93	624.92
378.13	603.86
378.33	664.71
378.52	653.01
378.72	718.54
378.91	650.67
379.11	641.31
379.31	634.29
379.50	589.82
379.70	713.86
379.89	681.10
380.09	624.92
380.28	608.54
380.48	655.35
380.68	699.82
380.87	627.26
381.07	629.60
381.26	737.27
381.46	603.86
381.65	664.71
381.85	690.46
382.04	634.29
382.24	676.41
382.43	690.46
382.63	678.76
382.83	657.69
383.02	704.50
383.22	716.20
383.41	690.46
383.61	664.71
383.80	748.97
384.00	772.38
384.19	774.72
384.39	798.12
384.58	763.01
384.78	753.65
384.97	763.01
385.17	777.06
385.36	770.04
385.56	800.46
385.75	802.80
385.95	767.70
386.14	800.46
386.34	814.51
386.53	856.64
386.72	802.80
386.92	875.36
387.11	784.08
387.31	830.89
387.50	774.72
387.70	830.89
387.89	812.17
388.09	851.96
388.28	922.17
388.48	842.59
388.67	903.45
388.86	887.06
389.06	961.96
389.25	908.13
389.45	823.87
389.64	875.36
389.84	896.43
390.03	987.71
390.22	915.15
390.42	985.37
390.61	828.55
390.81	1050.90
391.00	999.41
391.19	1039.20
391.39	915.15
391.58	976.00
391.78	1015.79
391.97	987.71
392.16	1013.45
392.36	1027.50
392.55	1006.43
392.75	1006.43
392.94	1022.81
393.13	990.05
393.33	957.28
393.52	1004.09
393.71	1050.90
393.91	1050.90
394.10	1067.28
394.29	1034.52
394.49	1144.52
394.68	1128.14
394.88	1144.52
395.07	1212.40
395.26	1219.42
395.46	1177.29
395.65	1104.73
395.84	1172.61
396.04	1111.75
396.23	1095.37
396.42	1158.57
396.62	1165.59
396.81	1151.54
397.00	1121.12
397.19	1238.14
397.39	1144.52
397.58	1291.98
397.77	1252.19
397.97	1306.02
398.16	1336.45
398.35	1350.49
398.55	1282.61
398.74	1416.02
398.93	1313.04
399.12	1329.42
399.32	1341.13
399.51	1413.68
399.70	1455.81
399.90	1490.92
400.09	1474.54
400.28	1385.60
400.47	1540.07
400.67	1483.90
400.86	1472.20
401.05	1437.09
401.24	1423.05
401.44	1554.12
401.63	1521.35
401.82	1458.15
402.01	1509.65
402.21	1605.61
402.40	1530.71
402.59	1612.63
402.78	1600.93
402.97	1598.59
403.17	1605.61
403.36	1666.46
403.55	1668.80
403.74	1699.23
403.93	1626.67
404.13	1820.94
404.32	1729.66
404.51	1771.79
404.70	1790.51
404.89	1671.14
405.09	1813.92
405.28	1713.27
405.47	1858.39
405.66	1734.34
405.85	1802.21
406.05	1820.94
406.24	1827.96
406.43	1820.94
406.62	1926.26
406.81	1877.11
407.00	1888.81
407.20	1830.30
407.39	1902.86
407.58	1998.82
407.77	1968.39
407.96	2094.78
408.15	1998.82
408.34	2022.22
408.54	2071.37
408.73	2017.54
408.92	2043.29
409.11	2132.23
409.30	2017.54
409.49	1970.73
409.68	2094.78
409.87	2101.80
410.07	2136.91
410.26	2097.12
410.45	2239.89
410.64	2267.98
410.83	2363.94
411.02	2314.79
411.21	2403.73
411.40	2361.60
411.59	2413.09
411.78	2368.62
411.98	2335.85
412.17	2495.01
412.36	2511.39
412.55	2487.99
412.74	2459.90
412.93	2523.10
413.12	2342.88
413.31	2513.74
413.50	2513.74
413.69	2661.19
413.88	2661.19
414.07	2649.49
414.26	2726.72
414.45	2789.92
414.64	2733.75
414.83	2808.64
415.02	2785.24
415.22	2801.62
415.41	2813.32
415.60	2878.86
415.79	2953.76
415.98	3007.59
416.17	3023.97
416.36	2928.01
416.55	2972.48
416.74	2991.20
416.93	2960.78
417.12	2991.20
417.31	3002.91
417.50	3187.81
417.69	3148.02
417.88	3155.04
418.07	3108.23
418.26	3124.62
418.45	3190.15
418.64	3185.47
418.83	3241.64
419.02	3344.63
419.21	3339.94
419.39	3379.73
419.58	3178.45
419.77	3253.34
419.96	3382.07
420.15	3332.92
420.34	3419.52
420.53	3386.76
420.72	3445.27
420.91	3517.83
421.10	3480.38
421.29	3489.74
421.48	3550.59
421.67	3564.64
421.86	3489.74
422.05	3559.95
422.24	3543.57
422.43	3583.36
422.61	3517.83
422.80	3499.10
422.99	3672.30
423.18	3609.11
423.37	3574.00
423.56	3723.79
423.75	3588.04
423.94	3552.93
424.13	3353.99
424.32	3550.59
424.50	3709.75
424.69	3716.77
424.88	3639.53
425.07	3616.13
425.26	3571.66
425.45	3660.60
425.64	3641.87
425.83	3719.11
426.01	3740.18
426.20	3618.47
426.39	3723.79
426.58	3676.98
426.77	3620.81
426.96	3597.40
427.15	3754.22
427.33	3758.90
427.52	3716.77
427.71	3880.61
427.90	3805.71
428.09	3864.22
428.28	3817.41
428.46	3913.38
428.65	3845.50
428.84	3871.25
429.03	4004.66
429.22	3962.53
429.40	3941.46
429.59	3936.78
429.78	3719.11
429.97	3712.09
430.16	3749.54
430.34	3894.65
430.53	3922.74
430.72	4091.26
430.91	3978.91
431.10	3936.78
431.28	4236.37
431.47	4168.49
431.66	4215.30
431.85	4231.69
432.03	4215.30
432.22	4313.61
432.41	4191.90
432.60	4428.29
432.79	4397.87
432.97	4320.63
433.16	4404.89
433.35	4472.76
433.54	4381.48
433.72	4339.35
433.91	4348.72
434.10	4528.94
434.28	4519.57
434.47	4514.89
434.66	4596.81
434.85	4505.53
435.03	4713.84
435.22	4505.53
435.41	4709.16
435.59	4690.43
435.78	4676.39
435.97	4821.50
436.16	4863.63
436.34	4716.18
436.53	4774.69
436.72	4968.96
436.90	4610.86
437.09	4709.16
437.28	4741.93
437.46	4732.56
437.65	4798.10
437.84	4798.10
438.02	4760.65
438.21	4723.20
438.40	4744.27
438.58	5083.64
438.77	5111.73
438.96	5008.75
439.14	5177.26
439.33	5198.33
439.52	5142.16
439.70	5247.48
439.89	5179.61
440.08	5371.53
440.26	5284.93
440.45	5184.29
440.63	5476.85
440.82	5551.75
441.01	5420.68
441.19	5486.22
441.38	5696.86
441.57	5685.16
441.75	5790.49
441.94	5748.36
442.12	5839.64
442.31	5858.36
442.50	5790.49
442.68	5849.00
442.87	5762.40
443.05	5940.28
443.24	6113.48
443.43	6050.28
443.61	6040.92
443.80	6059.65
443.98	5734.31
444.17	5783.46
444.35	5935.60
444.54	6244.55
444.73	6101.78
444.91	6200.08
445.10	6078.37
445.28	6031.56
445.47	5991.77
445.65	6050.28
445.84	6094.76
446.02	6106.46
446.21	6066.67
446.39	6017.52
446.58	6078.37
446.77	6312.42
446.95	6078.37
447.14	6193.06
447.32	6253.91
447.51	6099.44
447.69	6071.35
447.88	6235.19
448.06	6263.27
448.25	6188.38
448.43	6132.20
448.62	5980.07
448.80	6211.78
448.99	6333.49
449.17	6427.11
449.36	6207.10
449.54	6483.28
449.73	6375.62
449.91	6502.01
450.10	6621.38
450.28	6626.06
450.46	6609.67
450.65	6733.72
450.83	6583.93
451.02	6513.71
451.20	6628.40
451.39	6593.29
451.57	6761.81
451.76	6619.04
451.94	6630.74
452.13	6745.42
452.31	6661.16
452.49	6700.95
452.68	6661.16
452.86	6738.40
453.05	6813.30
453.23	6799.26
453.42	6736.06
453.60	6801.60
453.78	6944.37
453.97	6857.77
454.15	6785.21
454.34	6693.93
454.52	6972.46
454.70	6998.20
454.89	7035.65
455.07	6949.05
455.26	7138.63
455.44	7143.32
455.62	7157.36
455.81	7023.95
455.99	7152.68
456.17	7344.60
456.36	7218.21
456.54	7377.37
456.73	7452.27
456.91	7503.76
457.09	7379.71
457.28	7536.52
457.46	7382.05
457.64	7669.94
457.83	7620.78
458.01	7325.88
458.19	7777.60
458.38	7595.04
458.56	7611.42
458.74	7772.92
458.93	7705.04
459.11	7707.38
459.29	7714.41
459.48	7751.85
459.66	7728.45
459.84	7644.19
460.03	8088.89
460.21	7873.56
460.39	7810.37
460.57	7789.30
460.76	8035.06
460.94	8039.74
461.12	7955.48
461.31	8133.36
461.49	8002.29
461.67	7995.27
461.85	8060.80
462.04	8095.91
462.22	8564.02
462.40	7988.25
462.59	8266.77
462.77	8067.83
462.95	8404.86
463.13	8280.82
463.32	8280.82
463.50	8278.47
463.68	8456.36
463.86	8365.07
464.05	8393.16
464.23	8421.25
464.41	8360.39
464.59	8058.46
464.78	8617.85
464.96	8327.63
465.14	8243.37
465.32	8549.98
465.50	8879.99
465.69	8568.70
465.87	8531.25
466.05	8629.56
466.23	8465.72
466.41	8465.72
466.60	8812.12
466.78	8638.92
466.96	8713.81
467.14	8601.47
467.32	8697.43
467.51	8699.77
467.69	8444.65
467.87	8765.31
468.05	8856.59
468.23	8659.98
468.41	8758.28
468.60	8912.76
468.78	8971.27
468.96	8964.25
469.14	9078.94
469.32	9256.82
469.50	8835.52
469.69	8926.80
469.87	9062.55
470.05	9135.11
470.23	9191.28
470.41	9174.90
470.59	9249.80
470.77	9266.18
470.95	9247.46
471.14	9507.26
471.32	9277.88
471.50	9701.52
471.68	9537.68
471.86	9516.62
472.04	9600.88
472.22	9792.80
472.40	9621.94
472.58	9678.12
472.77	9635.99
472.95	9774.08
473.13	10298.36
473.31	9881.74
473.49	9977.70
473.67	9710.88
473.85	9949.62
474.03	10101.75
474.21	10284.31
474.39	10326.44
474.57	10462.19
474.75	10527.73
474.93	10518.37
475.12	10380.28
475.30	10607.31
475.48	10516.03
475.66	10476.24
475.84	10661.14
476.02	10560.50
476.20	10827.32
476.38	10768.80
476.56	11049.67
476.74	10860.09
476.92	10939.66
477.10	11019.24
477.28	11082.44
477.46	11215.85
477.64	11480.33
477.82	11405.43
478.00	11555.22
478.18	11761.19
478.36	11789.28
478.54	12002.27
478.72	11777.58
478.90	12109.93
479.08	12140.36
479.26	12128.66
479.44	12276.11
479.62	12339.30
479.80	12262.07
479.98	12549.95
480.16	12620.17
480.34	12620.17
480.52	12917.42
480.70	12746.56
480.88	12676.34
481.06	13020.40
481.24	13081.25
481.41	13195.94
481.59	13334.03
481.77	13317.65
481.95	13631.28
482.13	13535.32
482.31	13554.04
482.49	13923.85
482.67	13884.06
482.85	14066.62
483.03	14434.08
483.21	14380.25
483.39	14274.93
483.57	14663.46
483.74	14719.63
483.92	14590.90
484.10	14661.12
484.28	14635.37
484.46	15400.72
484.64	15110.50
484.82	15019.22
485.00	15382.00
485.18	15393.70
485.35	15627.76
485.53	15283.70
485.71	15225.18
485.89	15777.55
486.07	15789.25
486.25	15707.34
486.43	15864.15
486.61	16100.55
486.78	16292.47
486.96	16341.62
487.14	16826.11
487.32	16821.43
487.50	16856.54
487.68	17022.72
487.85	17266.13
488.03	17259.11
488.21	17502.53
488.39	17085.91
488.57	17591.47
488.75	17795.09
488.92	18230.43
489.10	18235.11
489.28	18274.90
489.46	18338.10
489.64	18501.93
489.81	19037.92
489.99	19056.64
490.17	19075.37
490.35	19433.47
490.53	19176.01
490.70	19293.04
490.88	19129.20
491.06	19819.66
491.24	19590.28
491.41	19955.41
491.59	19489.64
491.77	19625.39
491.95	19971.79
492.13	19924.98
492.30	20306.49
492.48	20100.52
492.66	20388.41
492.84	20587.35
493.01	20568.63
493.19	20816.72
493.37	21102.27
493.54	20685.65
493.72	21275.47
493.90	21453.35
494.08	21216.96
494.25	21923.80
494.43	21994.01
494.61	22026.78
494.79	21984.65
494.96	21848.90
495.14	22026.78
495.32	22441.06
495.49	22539.36
495.67	22111.04
495.85	23143.22
496.02	22785.12
496.20	22892.78
496.38	22918.53
496.55	23002.78
496.73	23620.69
496.91	23367.91
497.09	23803.25
497.26	23899.21
497.44	23768.14
497.62	23791.55
497.79	24053.69
497.97	23828.99
498.14	24084.11
498.32	23939.00
498.50	24114.54
498.67	24458.60
498.85	24491.37
499.03	24664.57
499.20	25144.38
499.38	24765.21
499.56	25329.28
499.73	25167.78
499.91	25057.78
500.08	25413.54
500.26	25111.61
500.44	25137.35
500.61	25663.97
500.79	25350.34
500.97	25788.02
501.14	25624.18
501.32	25785.68
501.49	25675.68
501.67	25743.55
501.84	25933.14
502.02	26024.42
502.20	26230.38
502.37	26352.09
502.55	26314.64
502.72	26726.58
502.90	26689.13
503.07	26731.26
503.25	26703.17
503.43	26429.33
503.60	26843.60
503.78	26881.05
503.95	26986.38
504.13	26745.30
504.30	27325.75
504.48	27414.69
504.65	27559.81
504.83	27379.59
505.01	27681.52
505.18	27721.30
505.36	27964.72
505.53	27868.76
505.71	27852.38
505.88	28238.56
506.06	27601.94
506.23	28048.98
506.41	27852.38
506.58	28514.75
506.76	28357.93
506.93	28627.09
507.11	28570.92
507.28	28671.56
507.46	28400.06
507.63	28453.89
507.81	29315.21
507.98	28936.04
508.16	29074.13
508.33	28804.97
508.50	29046.05
508.68	29312.87
508.85	29542.24
509.03	29378.40
509.20	29418.19
509.38	29418.19
509.55	29996.31
509.73	29511.81
509.90	29848.85
510.08	29832.47
510.25	29649.91
510.42	30162.48
510.60	29902.68
510.77	30148.44
510.95	30717.19
511.12	30417.60
511.30	30448.03
511.47	30747.62
511.64	30855.28
511.82	31161.89
511.99	30899.75
512.17	31061.25
512.34	30829.54
512.51	31243.81
512.69	31363.18
512.86	31360.84
513.04	31307.01
513.21	31372.54
513.38	31225.09
513.56	31386.58
513.73	30740.60
513.90	31548.08
514.08	31482.55
514.25	31828.95
514.43	31875.76
514.60	31482.55
514.77	31400.63
514.95	31861.71
515.12	31784.48
515.29	32116.83
515.47	32060.66
515.64	32219.81
515.81	32030.23
515.99	32538.13
516.16	32327.48
516.33	32666.86
516.51	32378.97
516.68	32102.79
516.85	32084.06
517.03	32233.86
517.20	32781.54
517.37	32751.12
517.54	33041.34
517.72	32886.87
517.89	33006.23
518.06	32891.55
518.24	32828.35
518.41	32823.67
518.58	32835.38
518.75	33053.05
518.93	33537.54
519.10	33397.10
519.27	33598.39
519.45	33226.24
519.62	34019.69
519.79	33816.06
519.96	34073.52
520.14	33993.94
520.31	33876.91
520.48	34288.85
520.65	34075.86
520.83	34452.69
521.00	34375.45
521.17	34249.06
521.34	34651.63
521.52	34768.66
521.69	34260.76
521.86	34742.91
522.03	34806.11
522.20	34883.34
522.38	34829.51
522.55	34974.63
522.72	34843.56
522.89	34876.32
523.07	35372.52
523.24	34881.00
523.41	35318.68
523.58	35117.40
523.75	35321.02
523.92	35239.11
524.10	35800.83
524.27	35796.15
524.44	35941.27
524.61	35885.09
524.78	35789.13
524.96	35735.30
525.13	36226.81
525.30	35814.88
525.47	35962.33
525.64	36105.10
525.81	36065.31
525.98	36048.93
526.16	35894.46
526.33	36247.88
526.50	36390.65
526.67	36055.95
526.84	35800.83
527.01	36189.36
527.18	36311.07
527.36	36594.28
527.53	36914.93
527.70	36992.17
527.87	36608.32
528.04	36896.20
528.21	36828.33
528.38	37017.91
528.55	37373.67
528.72	37144.30
528.89	37331.54
529.07	37483.68
529.24	36746.41
529.41	37521.13
529.58	37055.36
529.75	37310.48
529.92	37392.40
530.09	37392.40
530.26	37689.65
530.43	37776.25
530.60	37659.22
530.77	37736.46
530.94	37862.85
531.11	37773.91
531.28	38108.60
531.46	37961.15
531.63	37872.21
531.80	38019.66
531.97	38117.96
532.14	38450.32
532.31	37773.91
532.48	38148.39
532.65	38246.69
532.82	38075.84
532.99	38319.25
533.16	38227.97
533.33	38129.67
533.50	38752.25
533.67	38658.63
533.84	38532.24
534.01	38513.52
534.18	38667.99
534.35	39030.77
534.52	38955.88
534.69	39072.90
534.86	38529.90
535.03	38703.10
535.20	39063.54
535.37	39409.94
535.54	39431.01
535.71	39255.46
535.88	39166.52
536.05	38862.26
536.22	39489.52
536.38	39063.54
536.55	39157.16
536.72	39117.37
536.89	39276.53
537.06	39255.46
537.23	39529.31
537.40	39351.43
537.57	39309.30
537.74	39955.29
537.91	39838.26
538.08	40299.34
538.25	39545.69
538.42	39625.27
538.59	39854.64
538.75	39264.83
538.92	40079.33
539.09	40055.93
539.26	40259.55
539.43	39688.46
539.60	39915.50
539.77	39899.11
539.94	40006.78
540.11	39955.29
540.28	39950.60
540.44	40158.91
540.61	39903.79
540.78	40044.23
540.95	40210.40
541.12	40797.88
541.29	40140.19
541.46	40114.44
541.62	40568.51
541.79	40907.88
541.96	40175.30
542.13	40233.81
542.30	40570.85
542.47	40950.01
542.63	40629.36
542.80	40818.94
542.97	41153.64
543.14	41310.46
543.31	41031.93
543.48	40896.18
543.64	41558.55
543.81	41380.67
543.98	41397.06
544.15	41038.95
544.32	41743.45
544.48	41834.74
544.65	41298.75
544.82	41486.00
544.99	41226.20
545.16	41418.12
545.32	41240.24
545.49	42073.47
545.66	41933.04
545.83	42148.37
546.00	41993.89
546.16	41631.11
546.33	41600.68
546.50	41123.21
546.67	41647.49
546.83	41368.97
547.00	41631.11
547.17	41654.51
547.34	41773.88
547.50	42464.34
547.67	42300.50
547.84	42181.13
548.00	42583.71
548.17	42195.18
548.34	42096.88
548.51	42361.36
548.67	42628.18
548.84	42370.72
549.01	42567.32
549.18	42071.13
549.34	42071.13
549.51	42483.06
549.68	42686.69
549.84	42651.58
550.01	43007.34
550.18	42450.30
550.34	42848.19
550.51	42319.23
550.68	42576.69
550.84	42677.33
551.01	43260.12
551.18	42869.25
551.34	42899.68
551.51	43026.07
551.68	42925.42
551.84	42801.38
552.01	42866.91
552.18	42960.53
552.34	42508.81
552.51	42843.51
552.68	43260.12
552.84	43330.34
553.01	43274.16
553.18	42972.24
553.34	43274.16
553.51	42609.45
553.67	43047.13
553.84	43665.03
554.01	43255.44
554.17	43510.56
554.34	43756.32
554.51	43452.05
554.67	43590.14
554.84	43709.50
555.00	43702.48
555.17	43241.40
555.33	43599.50
555.50	43367.79
555.67	43433.32
555.83	43601.84
556.00	43470.77
556.16	44266.55
556.33	43578.43
556.50	43761.00
556.66	43779.72
556.83	43629.93
556.99	44367.20
557.16	43775.04
557.32	43833.55
557.49	44175.27
557.65	43721.21
557.82	43831.21
557.98	43725.89
558.15	43779.72
558.32	44123.78
558.48	44186.97
558.65	44067.61
558.81	44208.04
558.98	43854.62
559.14	44032.50
559.31	44341.45
559.47	43758.66
559.64	44325.07
559.80	44165.91
559.97	44477.20
560.13	43927.17
560.30	44229.10
560.46	44205.70
560.63	44037.18
560.79	44308.68
560.96	44519.33
561.12	43995.05
561.29	44348.47
561.45	44025.48
561.61	44526.35
561.78	44093.35
561.94	44381.24
562.11	44189.31
562.27	44304.00
562.44	44336.77
562.60	44727.64
562.77	44797.85
562.93	44727.64
563.10	44722.96
563.26	44346.13
563.42	44516.99
563.59	44636.36
563.75	44526.35
563.92	44671.46
564.08	44589.55
564.24	44545.08
564.41	44804.88
564.57	44776.79
564.74	44744.02
564.90	44896.16
565.07	44575.50
565.23	44589.55
565.39	44603.59
565.56	44989.78
565.72	44329.75
565.88	44734.66
566.05	44673.81
566.21	44388.26
566.38	44814.24
566.54	44444.43
566.70	45186.38
566.87	45050.63
567.03	44989.78
567.19	45155.96
567.36	44753.38
567.52	44582.52
567.68	44858.71
567.85	44940.63
568.01	45008.50
568.17	44364.85
568.34	44821.26
568.50	44769.77
568.66	44889.13
568.83	45682.58
568.99	44509.97
569.15	44399.96
569.32	44680.83
569.48	44942.97
569.64	45284.68
569.81	44828.28
569.97	44952.33
570.13	44865.73
570.30	44556.78
570.46	44891.48
570.62	44521.67
570.78	44891.48
570.95	44961.69
571.11	44968.71
571.27	44879.77
571.43	44959.35
571.60	44947.65
571.76	44769.77
571.92	45034.25
572.09	44882.11
572.25	44975.73
572.41	44793.17
572.57	45078.72
572.74	45256.60
572.90	44964.03
573.06	45041.27
573.22	45067.02
573.38	44928.92
573.55	44851.69
573.71	45027.23
573.87	44797.85
574.03	44474.86
574.20	44779.13
574.36	45127.87
574.52	45350.22
574.68	45017.86
574.84	45020.20
575.01	45125.53
575.17	44912.54
575.33	44905.52
575.49	44961.69
575.65	45064.67
575.82	45006.16
575.98	45322.13
576.14	45352.56
576.30	45326.81
576.46	44924.24
576.62	44973.39
576.79	45326.81
576.95	45078.72
577.11	45228.51
577.27	45635.77
577.43	45439.16
577.59	44938.29
577.75	45226.17
577.92	44776.79
578.08	44711.25
578.24	45095.10
578.40	45078.72
578.56	45067.02
578.72	45263.62
578.88	45338.52
579.04	45439.16
579.21	44900.84
579.37	45546.82
579.53	44907.86
579.69	44898.50
579.85	44905.52
580.01	45268.30
580.17	45219.15
580.33	45368.94
580.49	45408.73
580.65	45546.82
580.82	45537.46
580.98	45481.29
581.14	44926.58
581.30	45460.23
581.46	45247.24
581.62	45038.93
581.78	45230.85
581.94	45509.38
582.10	45504.70
582.26	45249.58
582.42	45413.41
582.58	45284.68
582.74	44875.09
582.90	44556.78
583.06	45525.76
583.22	45041.27
583.38	45645.13
583.54	45123.19
583.70	44928.92
583.86	45123.19
584.02	45272.98
584.18	45516.40
584.34	45013.18
584.50	45495.33
584.66	45345.54
584.82	45282.34
584.98	45745.77
585.14	45624.06
585.30	45195.74
585.46	45106.80
585.62	45361.92
585.78	45394.69
585.94	44905.52
586.10	45345.54
586.26	45083.40
586.42	45411.07
586.58	45514.06
586.74	45296.39
586.90	45464.91
587.06	45298.73
587.22	45497.67
587.38	45315.11
587.54	45656.83
587.70	45521.08
587.86	45525.76
588.02	45710.66
588.18	45546.82
588.34	44938.29
588.49	45263.62
588.65	44863.39
588.81	44856.37
588.97	45059.99
589.13	44989.78
589.29	45095.10
589.45	45064.67
589.61	45165.32
589.77	45722.37
589.93	45673.21
590.08	45741.09
590.24	45394.69
590.40	45514.06
590.56	45467.25
590.72	45659.17
590.88	45483.63
591.04	45387.67
591.20	45771.52
591.35	45895.56
591.51	45890.88
591.67	45301.07
591.83	45556.19
591.99	45429.80
592.15	45584.27
592.31	45570.23
592.46	45347.88
592.62	45603.00
592.78	45315.11
592.94	45858.12
593.10	45158.30
593.26	46059.40
593.41	45787.90
593.57	45748.11
593.73	45619.38
593.89	45750.45
594.05	45315.11
594.20	45502.35
594.36	46089.83
594.52	45675.55
594.68	46007.91
594.84	45242.56
594.99	45588.95
595.15	45689.60
595.31	45790.24
595.47	45698.96
595.62	45722.37
595.78	45691.94
595.94	46028.98
596.10	45783.22
596.25	45823.01
596.41	45652.15
596.57	45397.03
596.73	45815.99
596.88	45488.31
597.04	45792.58
597.20	45694.28
597.36	45727.05
597.51	45823.01
597.67	46094.51
597.83	45703.64
597.99	45677.90
598.14	45450.86
598.30	45546.82
598.46	45256.60
598.61	45860.46
598.77	45689.60
598.93	45595.98
599.09	45397.03
599.24	45933.01
599.40	45771.52
599.56	46033.66
599.71	45722.37
599.87	45745.77
600.03	45551.51
600.18	45722.37
600.34	45436.82
600.50	46007.91
600.65	45446.18
600.81	45825.35
600.97	45907.27
601.12	45925.99
601.28	46080.47
601.44	45900.25
601.59	45848.75
601.75	45476.61
601.91	45705.98
602.06	45785.56
602.22	45879.18
602.37	45514.06
602.53	45890.88
602.69	45701.30
602.84	45663.85
603.00	45713.00
603.16	45666.19
603.31	45382.99
603.47	45509.38
603.62	45287.03
603.78	45570.23
603.94	45628.74
604.09	46117.92
604.25	45504.70
604.40	45605.34
604.56	45886.20
604.71	45628.74
604.87	45799.60
605.03	45532.78
605.18	45298.73
605.34	45661.51
605.49	45518.74
605.65	45518.74
605.80	45308.09
605.96	45593.64
606.12	45727.05
606.27	45607.68
606.43	45581.93
606.58	45965.78
606.74	45535.12
606.89	45364.26
607.05	45586.61
607.20	45736.41
607.36	45600.66
607.51	45846.41
607.67	45394.69
607.82	45579.59
607.98	45757.47
608.13	45043.61
608.29	45368.94
608.44	45497.67
608.60	45219.15
608.75	45095.10
608.91	44903.18
609.06	45106.80
609.22	45869.82
609.37	45184.04
609.53	45401.71
609.68	45137.23
609.84	45024.89
609.99	45174.68
610.15	45373.63
610.30	45106.80
610.46	44765.09
610.61	45118.51
610.76	45277.66
610.92	44804.88
611.07	45226.17
611.23	45001.48
611.38	45144.25
611.54	44835.30
611.69	44910.20
611.84	45006.16
612.00	44725.30
612.15	45221.49
612.31	45102.12
612.46	44891.48
612.62	45165.32
612.77	44856.37
612.92	45006.16
613.08	44744.02
613.23	45050.63
613.39	44987.44
613.54	44598.91
613.69	44514.65
613.85	44678.49
614.00	44893.82
614.15	44870.41
614.31	44720.62
614.46	44985.10
614.62	44727.64
614.77	44631.68
614.92	44432.73
615.08	44711.25
615.23	44472.52
615.38	44451.45
615.54	44552.10
615.69	44383.58
615.84	44509.97
616.00	44577.84
616.15	44821.26
616.30	44631.68
616.46	44210.38
616.61	43669.72
616.76	44259.53
616.92	44268.89
617.07	43969.30
617.22	43885.04
617.37	44100.37
617.53	44177.61
617.68	44329.75
617.83	44423.37
617.99	44362.51
618.14	44076.97
618.29	44388.26
618.45	44343.79
618.60	44376.56
618.75	44081.65
618.90	43990.37
619.06	44123.78
619.21	44201.02
619.36	44058.24
619.51	43695.46
619.67	43763.34
619.82	44147.18
619.97	44116.76
620.12	44123.78
620.28	43398.21
620.43	43929.51
620.58	44076.97
620.73	43475.45
620.89	43702.48
621.04	44137.82
621.19	43519.92
621.34	43779.72
621.49	43601.84
621.65	43466.09
621.80	43962.28
621.95	42967.55
622.10	43564.39
622.25	43805.47
622.41	43276.51
622.56	43051.81
622.71	43899.09
622.86	43665.03
623.01	43325.66
623.16	43447.36
623.32	43159.48
623.47	43526.94
623.62	43599.50
623.77	43145.44
623.92	43009.68
624.07	43103.31
624.23	43136.07
624.38	43016.71
624.53	43026.07
624.68	43306.93
624.83	43564.39
624.98	43241.40
625.13	42899.68
625.29	43374.81
625.44	43201.61
625.59	42920.74
625.74	42431.57
625.89	42382.42
626.04	42469.02
626.19	42756.91
626.34	42604.77
626.49	42976.92
626.65	42611.79
626.80	42824.78
626.95	42808.40
627.10	42822.44
627.25	42342.63
627.40	42307.52
627.55	42237.31
627.70	42190.50
627.85	42033.68
628.00	42148.37
628.15	42569.66
628.30	42366.04
628.45	42366.04
628.60	42384.76
628.76	42628.18
628.91	42354.33
629.06	42501.79
629.21	42103.90
629.36	42007.94
629.51	42373.06
629.66	42122.62
629.81	41518.76
629.96	42117.94
630.11	42029.00
630.26	41804.31
630.41	42017.30
630.56	42190.50
630.71	41977.51
630.86	42164.75
631.01	42092.19
631.16	41888.57
631.31	41928.36
631.46	41544.51
631.61	41839.42
631.76	41984.53
631.91	41785.58
632.06	41792.61
632.21	41675.58
632.36	41914.31
632.51	41743.45
632.66	41689.62
632.81	41261.30
632.96	41979.85
633.10	41373.65
633.25	41333.86
633.40	40964.06
633.55	41612.38
633.70	41228.54
633.85	40907.88
634.00	41373.65
634.15	41352.58
634.30	41216.83
634.45	41406.42
634.60	41511.74
634.75	41134.92
634.90	41572.60
635.05	41200.45
635.19	41698.98
635.34	41741.11
635.49	40945.33
635.64	41043.63
635.79	41148.96
635.94	41329.18
636.09	41411.10
636.24	40498.29
636.39	40959.38
636.53	40652.76
636.68	40399.99
636.83	40687.87
636.98	40851.71
637.13	40313.39
637.28	41001.50
637.43	41174.70
637.57	41579.62
637.72	40849.37
637.87	40849.37
638.02	40687.87
638.17	40961.72
638.32	40252.53
638.46	40376.58
638.61	40332.11
638.76	40519.35
638.91	40271.26
639.06	40680.85
639.20	40175.30
639.35	40608.29
639.50	40430.41
639.65	40615.32
639.80	40577.87
639.94	40634.04
640.09	40477.22
640.24	40149.55
640.39	40067.63
640.54	40378.92
640.68	40076.99
640.83	40355.52
640.98	39824.22
641.13	40392.97
641.27	40989.80
641.42	40044.23
641.57	40315.73
641.72	40177.64
641.86	39941.24
642.01	40135.51
642.16	39777.40
642.31	39629.95
642.45	40069.97
642.60	39721.23
642.75	39749.32
642.90	39590.16
643.04	39667.40
643.19	39592.50
643.34	40048.91
643.48	39849.96
643.63	39611.23
643.78	39555.05
643.93	39264.83
644.07	39339.72
644.22	39672.08
644.37	39248.44
644.51	39400.58
644.66	39735.27
644.81	39592.50
644.95	39133.76
645.10	39763.36
645.25	39501.22
645.39	39662.72
645.54	39477.82
645.69	39168.87
645.83	38993.32
645.98	39056.52
646.13	39218.02
646.27	39342.06
646.42	39246.10
646.57	38841.19
646.71	39185.25
646.86	39122.05
647.00	39318.66
647.15	39084.61
647.30	39611.23
647.44	39335.04
647.59	39005.03
647.74	38822.47
647.88	38752.25
648.03	39129.08
648.17	39126.74
648.32	39019.07
648.47	38780.34
648.61	38593.09
648.76	39196.95
648.90	38773.31
649.05	38925.45
649.20	39070.56
649.34	39428.66
649.49	38895.02
649.63	38789.70
649.78	38527.56
649.92	38651.61
650.07	39274.19
650.21	38408.19
650.36	38220.95
650.51	38663.31
650.65	38745.23
650.80	38775.66
650.94	38766.29
651.09	38831.83
651.23	38822.47
651.38	38455.00
651.52	38316.91
651.67	38375.42
651.81	38403.51
651.96	38464.36
652.10	38223.29
652.25	37919.02
652.39	38045.41
652.54	38211.59
652.68	38644.59
652.83	38972.26
652.97	38026.68
653.12	38249.03
653.26	38525.22
653.41	38307.55
653.55	38106.26
653.70	38033.71
653.84	38265.42
653.99	38057.11
654.13	38249.03
654.27	38120.31
654.42	38106.26
654.56	37860.51
654.71	37951.79
654.85	37930.72
655.00	37951.79
655.14	37736.46
655.29	36966.42
655.43	37666.24
655.57	37090.47
655.72	37340.91
655.86	37254.31
656.01	37055.36
656.15	37141.96
656.30	37029.62
656.44	37158.34
656.58	37015.57
656.73	36982.80
656.87	37132.60
657.01	37228.56
657.16	36807.26
657.30	36912.59
657.45	37207.50
657.59	36715.98
657.73	36823.65
657.88	37343.25
658.02	36975.78
658.16	37111.53
658.31	37446.23
658.45	37415.80
658.60	36840.03
658.74	37216.86
658.88	37029.62
659.03	36620.02
659.17	36594.28
659.31	36896.20
659.46	36570.87
659.60	36535.76
659.74	36477.25
659.89	36631.72
660.03	36636.41
660.17	36304.05
660.32	36334.48
660.46	36840.03
660.60	36554.49
660.74	36627.04
660.89	35896.80
661.03	36126.17
661.17	36304.05
661.32	35887.43
661.46	36257.24
661.60	35894.46
661.74	36222.13
661.89	35983.40
662.03	36128.51
662.17	36109.78
662.31	35658.06
662.46	36037.23
662.60	35875.73
662.74	36219.79
662.88	35550.40
663.03	35999.78
663.17	35473.16
663.31	35545.72
663.45	35271.87
663.60	35637.00
663.74	35218.04
663.88	35271.87
664.02	35283.58
664.17	35342.09
664.31	35126.76
664.45	35175.91
664.59	35363.15
664.73	35285.92
664.88	35283.58
665.02	34965.26
665.16	35023.78
665.30	35089.31
665.44	34705.46
665.59	34885.68
665.73	34431.62
665.87	34412.90
666.01	34817.81
666.15	34457.37
666.29	34590.78
666.44	34988.67
666.58	34567.37
666.72	34464.39
666.86	34459.71
667.00	34438.64
667.14	34431.62
667.28	34398.85
667.43	34230.33
667.57	34061.82
667.71	33827.76
667.85	33762.23
667.99	34000.96
668.13	33715.42
668.27	33661.58
668.41	34073.52
668.56	33556.26
668.70	33731.80
668.84	33373.70
668.98	33502.43
669.12	33380.72
669.26	33336.25
669.40	33619.46
669.54	33420.51
669.68	33682.65
669.82	33280.08
669.96	33074.11
670.10	33085.81
670.25	33406.47
670.39	33736.48
670.53	32921.98
670.67	32872.82
670.81	33247.31
670.95	33111.56
671.09	33326.89
671.23	33060.07
671.37	32933.68
671.51	32418.76
671.65	32196.41
671.79	32275.99
671.93	32353.23
672.07	32449.19
672.21	32481.95
672.35	32191.73
672.49	32151.94
672.63	32566.21
672.77	31995.12
672.91	31573.83
673.05	31709.58
673.19	31618.30
673.33	31452.12
673.47	31538.72
673.61	31452.12
673.75	31538.72
673.89	31578.51
674.03	31400.63
674.17	31068.27
674.31	31332.75
674.45	31463.82
674.59	31229.77
674.73	31096.36
674.87	31449.78
675.01	30628.25
675.15	31098.70
675.29	31482.55
675.43	30794.43
675.56	31363.18
675.70	30806.13
675.84	30663.36
675.98	29680.33
676.12	30384.83
676.26	30541.65
676.40	30148.44
676.54	29764.59
676.68	30106.31
676.82	29544.58
676.96	29979.92
677.10	29780.98
677.23	29544.58
677.37	29577.35
677.51	29626.50
677.65	29448.62
677.79	29226.27
677.93	29326.91
678.07	29371.38
678.21	29041.37
678.34	29326.91
678.48	29046.05
678.62	28769.86
678.76	28811.99
678.90	28538.15
679.04	28428.15
679.18	28397.72
679.31	28390.70
679.45	28287.71
679.59	27721.30
679.73	28264.31
679.87	28086.43
680.00	27906.21
680.14	27538.74
680.28	27653.43
680.42	27304.69
680.56	27833.65
680.70	27206.39
680.83	27555.13
680.97	27260.22
681.11	27344.48
681.25	27213.41
681.39	27133.83
681.52	27318.73
681.66	27047.23
681.80	26888.07
681.94	26815.52
682.07	26485.50
682.21	26852.97
682.35	26888.07
682.49	26616.57
682.62	26464.44
682.76	25928.45
682.90	25640.57
683.04	25951.86
683.17	26157.83
683.31	26108.68
683.45	26099.31
683.59	26010.37
683.72	25703.76
683.86	25160.76
684.00	25202.89
684.13	25401.83
684.27	25324.60
684.41	25355.02
684.55	25378.43
684.68	25282.47
684.82	24900.96
684.96	25076.50
685.09	24655.20
685.23	24861.17
685.37	24643.50
685.50	24624.78
685.64	24545.20
685.78	24505.41
685.91	24484.34
686.05	24287.74
686.19	23992.83
686.32	24294.76
686.46	23676.86
686.60	23683.88
686.73	23697.92
686.87	23426.42
687.01	23506.00
687.14	23730.69
687.28	23206.41
687.42	23314.08
687.55	23044.91
687.69	22941.93
687.82	22998.10
687.96	23133.86
688.10	23012.15
688.23	23005.13
688.37	22712.56
688.50	22192.96
688.64	22537.02
688.78	22609.58
688.91	22590.85
689.05	22218.71
689.18	22059.55
689.32	21785.71
689.46	22223.39
689.59	22326.37
689.73	22120.40
689.86	21720.17
690.00	21652.30
690.13	21956.57
690.27	21420.58
690.41	21640.59
690.54	21387.82
690.68	21270.79
690.81	21621.87
690.95	21277.81
691.08	21125.68
691.22	21006.31
691.35	20828.43
691.49	21205.25
691.62	21003.97
691.76	20959.50
691.89	20800.34
692.03	20240.95
692.16	20327.55
692.30	20229.25
692.43	20196.48
692.57	20334.57
692.70	20135.63
692.84	20070.09
692.97	20224.57
693.11	19484.96
693.24	19901.58
693.38	19796.25
693.51	19857.10
693.65	19906.26
693.78	19981.15
693.92	19861.79
694.05	19730.72
694.19	19372.61
694.32	19168.99
694.45	19096.43
694.59	19061.32
694.72	19014.51
694.86	19351.55
694.99	19089.41
695.13	18993.45
695.26	18754.71
695.39	18576.83
695.53	18345.12
695.66	18326.39
695.80	18551.09
695.93	18305.33
696.07	18150.85
696.20	18476.19
696.33	18143.83
696.47	17558.70
696.60	17963.61
696.73	18122.77
696.87	17827.86
697.00	17867.65
697.14	17853.61
697.27	17689.77
697.40	17713.17
697.54	18036.17
697.67	17593.81
697.80	17490.82
697.94	17123.36
698.07	17355.07
698.21	17205.28
698.34	17209.96
698.47	17146.76
698.61	16636.53
698.74	17062.51
698.87	16854.20
699.01	16549.93
699.14	16596.74
699.27	16311.19
699.40	16521.84
699.54	16128.63
699.67	16320.56
699.80	16175.44
699.94	16168.42
700.07	16060.76
700.20	16226.93
700.34	16023.31
700.47	16065.44
700.60	15948.41
700.73	15988.20
700.87	15702.65
701.00	15536.48
701.13	15697.97
701.26	15484.98
701.40	15353.91
701.53	15463.92
701.66	15477.96
701.79	15260.29
701.93	15173.69
702.06	14993.47
702.19	15021.56
702.32	14953.68
702.46	15136.24
702.59	14775.80
702.72	14537.07
702.85	14560.47
702.99	14806.23
703.12	14506.64
703.25	14768.78
703.38	14551.11
703.51	14267.91
703.65	14345.14
703.78	14214.07
703.91	14061.94
704.04	14342.80
704.17	14150.88
704.31	14001.08
704.44	13696.82
704.57	13694.47
704.70	13738.94
704.83	13453.40
704.96	13624.26
705.10	13928.53
705.23	13680.43
>>>>>End Processed Spectral Data<<<<<
