SpectraSuite Data File
++++++++++++++++++++++++++++++++++++
Date: Fri Oct 25 10:48:33 EDT 2013
User: price-jones
Dark Spectrum Present: No
Reference Spectrum Present: No
Number of Sampled Component Spectra: 1
Spectrometers: USB2+H05261
Integration Time (usec): 100000 (USB2+H05261)
Spectra Averaged: 1 (USB2+H05261)
Boxcar Smoothing: 0 (USB2+H05261)
Correct for Electrical Dark: No (USB2+H05261)
Strobe/Lamp Enabled: No (USB2+H05261)
Correct for Detector Non-linearity: No (USB2+H05261)
Correct for Stray Light: No (USB2+H05261)
Number of Pixels in Processed Spectrum: 2048
>>>>>Begin Processed Spectral Data<<<<<
365.73	168.52
365.92	168.52
366.12	168.52
366.32	35.11
366.52	25.75
366.72	131.07
366.91	70.22
367.11	42.13
367.31	18.72
367.51	25.75
367.70	63.19
367.90	58.51
368.10	4.68
368.30	51.49
368.49	44.47
368.69	91.28
368.89	21.06
369.09	58.51
369.28	4.68
369.48	95.96
369.68	98.30
369.87	102.98
370.07	46.81
370.27	147.45
370.47	220.01
370.66	395.55
370.86	442.36
371.06	414.27
371.25	395.55
371.45	498.53
371.65	538.32
371.84	472.79
372.04	475.13
372.24	472.79
372.44	512.58
372.63	491.51
372.83	571.09
373.03	585.13
373.22	533.64
373.42	564.07
373.62	470.45
373.81	599.18
374.01	566.41
374.21	624.92
374.40	582.79
374.60	603.86
374.79	617.90
374.99	596.84
375.19	606.20
375.38	641.31
375.58	613.22
375.78	641.31
375.97	629.60
376.17	662.37
376.37	662.37
376.56	664.71
376.76	664.71
376.95	638.97
377.15	685.78
377.35	653.01
377.54	697.48
377.74	671.73
377.93	713.86
378.13	723.23
378.33	678.76
378.52	674.07
378.72	770.04
378.91	798.12
379.11	664.71
379.31	716.20
379.50	688.12
379.70	760.67
379.89	711.52
380.09	695.14
380.28	704.50
380.48	697.48
380.68	732.59
380.87	692.80
381.07	760.67
381.26	748.97
381.46	720.88
381.65	662.37
381.85	681.10
382.04	744.29
382.24	788.76
382.43	669.39
382.63	695.14
382.83	760.67
383.02	779.40
383.22	699.82
383.41	765.36
383.61	777.06
383.80	875.36
384.00	791.10
384.19	866.00
384.39	854.30
384.58	851.96
384.78	840.25
384.97	847.27
385.17	786.42
385.36	877.70
385.56	856.64
385.75	875.36
385.95	849.61
386.14	1011.11
386.34	933.87
386.53	882.38
386.72	961.96
386.92	844.93
387.11	868.34
387.31	891.74
387.50	882.38
387.70	880.04
387.89	924.51
388.09	952.60
388.28	924.51
388.48	943.24
388.67	1006.43
388.86	1001.75
389.06	983.02
389.25	1008.77
389.45	1102.39
389.64	1001.75
389.84	1020.47
390.03	1015.79
390.22	1046.22
390.42	1064.94
390.61	1067.28
390.81	1104.73
391.00	1064.94
391.19	1078.99
391.39	1090.69
391.58	1142.18
391.78	1050.90
391.97	1090.69
392.16	1048.56
392.36	1238.14
392.55	1083.67
392.75	1055.58
392.94	947.92
393.13	968.98
393.33	980.68
393.52	1053.24
393.71	1263.89
393.91	1203.04
394.10	1217.08
394.29	1221.76
394.49	1167.93
394.68	1263.89
394.88	1266.23
395.07	1238.14
395.26	1294.32
395.46	1191.33
395.65	1336.45
395.84	1301.34
396.04	1249.85
396.23	1287.29
396.42	1198.35
396.62	1275.59
396.81	1287.29
397.00	1287.29
397.19	1341.13
397.39	1378.58
397.58	1439.43
397.77	1500.28
397.97	1467.52
398.16	1392.62
398.35	1523.69
398.55	1434.75
398.74	1521.35
398.93	1577.52
399.12	1614.97
399.32	1638.38
399.51	1474.54
399.70	1624.33
399.90	1605.61
400.09	1753.06
400.28	1715.61
400.47	1645.40
400.67	1764.76
400.86	1818.60
401.05	1680.50
401.24	1743.70
401.44	1757.74
401.63	1806.89
401.82	1755.40
402.01	1771.79
402.21	1795.19
402.40	1884.13
402.59	1746.04
402.78	1771.79
402.97	1902.86
403.17	1877.11
403.36	1884.13
403.55	1942.64
403.74	1947.33
403.93	2040.95
404.13	1973.07
404.32	1984.77
404.51	1937.96
404.70	2120.53
404.89	1902.86
405.09	1973.07
405.28	2001.16
405.47	1952.01
405.66	2038.61
405.85	2099.46
406.05	2101.80
406.24	2237.55
406.43	2064.35
406.62	2059.67
406.81	2216.49
407.00	2078.40
407.20	2040.95
407.39	2136.91
407.58	2193.08
407.77	2176.70
407.96	2265.64
408.15	2349.90
408.34	2239.89
408.54	2293.72
408.73	2392.03
408.92	2480.97
409.11	2272.66
409.30	2415.43
409.49	2415.43
409.68	2317.13
409.87	2394.37
410.07	2349.90
410.26	2340.54
410.45	2445.86
410.64	2466.92
410.83	2469.27
411.02	2595.65
411.21	2733.75
411.40	2637.78
411.59	2682.25
411.78	2612.04
411.98	2581.61
412.17	2722.04
412.36	2679.91
412.55	2715.02
412.74	2775.88
412.93	2918.65
413.12	2771.19
413.31	2946.73
413.50	2874.18
413.69	2864.82
413.88	3023.97
414.07	3026.31
414.26	3030.99
414.45	3115.25
414.64	2970.14
414.83	3150.36
415.02	3150.36
415.22	3194.83
415.41	3152.70
415.60	3185.47
415.79	3197.17
415.98	3375.05
416.17	3353.99
416.36	3382.07
416.55	3361.01
416.74	3375.05
416.93	3220.58
417.12	3323.56
417.31	3428.88
417.50	3492.08
417.69	3506.12
417.88	3447.61
418.07	3482.72
418.26	3435.91
418.45	3662.94
418.64	3637.19
418.83	3770.60
419.02	3700.39
419.21	3520.17
419.39	3662.94
419.58	3681.66
419.77	3588.04
419.96	3789.33
420.15	3700.39
420.34	3836.14
420.53	3737.84
420.72	3941.46
420.91	3850.18
421.10	3871.25
421.29	3852.52
421.48	3873.59
421.67	3983.59
421.86	3932.10
422.05	3859.54
422.24	3812.73
422.43	3929.76
422.61	4084.23
422.80	4053.81
422.99	4039.76
423.18	4128.70
423.37	4259.78
423.56	3920.40
423.75	4046.79
423.94	4042.11
424.13	3770.60
424.32	3908.69
424.50	4046.79
424.69	4007.00
424.88	4198.92
425.07	4184.88
425.26	4007.00
425.45	3934.44
425.64	4126.36
425.83	4121.68
426.01	4325.31
426.20	4138.07
426.39	4133.39
426.58	4053.81
426.77	4095.94
426.96	4091.26
427.15	4014.02
427.33	4117.00
427.52	4117.00
427.71	4241.05
427.90	4208.28
428.09	4065.51
428.28	4248.07
428.46	4187.22
428.65	4248.07
428.84	4360.42
429.03	4315.95
429.22	4374.46
429.40	4245.73
429.59	4222.33
429.78	4051.47
429.97	3981.25
430.16	4084.23
430.34	4273.82
430.53	4311.27
430.72	4369.78
430.91	4369.78
431.10	4318.29
431.28	4676.39
431.47	4692.77
431.66	4880.02
431.85	4664.69
432.03	4664.69
432.22	4933.85
432.41	4856.61
432.60	4833.21
432.79	4837.89
432.97	4999.38
433.16	4802.78
433.35	4793.42
433.54	4718.52
433.72	4835.55
433.91	4641.28
434.10	4812.14
434.28	4940.87
434.47	5029.81
434.66	5039.17
434.85	5060.24
435.03	5193.65
435.22	5060.24
435.41	5088.32
435.59	5179.61
435.78	5259.18
435.97	5387.91
436.16	5275.57
436.34	5277.91
436.53	5221.74
436.72	5341.10
436.90	5118.75
437.09	5273.23
437.28	5163.22
437.46	5259.18
437.65	5277.91
437.84	5294.29
438.02	5341.10
438.21	5263.86
438.40	5303.65
438.58	5291.95
438.77	5568.13
438.96	5652.39
439.14	5657.07
439.33	5731.97
439.52	5750.70
439.70	5678.14
439.89	5813.89
440.08	5912.19
440.26	5809.21
440.45	5809.21
440.63	5966.03
440.82	5942.62
441.01	5905.17
441.19	6122.84
441.38	6160.29
441.57	6342.85
441.75	6235.19
441.94	6630.74
442.12	6445.84
442.31	6377.96
442.50	6637.76
442.68	6572.22
442.87	6581.59
443.05	6614.35
443.24	6502.01
443.43	6588.61
443.61	6597.97
443.80	6834.36
443.98	6600.31
444.17	6438.81
444.35	6635.42
444.54	6630.74
444.73	6722.02
444.91	6462.22
445.10	6654.14
445.28	6642.44
445.47	6602.65
445.65	6612.01
445.84	6656.48
446.02	6623.72
446.21	6658.82
446.39	6761.81
446.58	6808.62
446.77	6707.98
446.95	6740.74
447.14	6881.18
447.32	7023.95
447.51	6937.35
447.69	6848.41
447.88	6773.51
448.06	6850.75
448.25	6920.96
448.43	6895.22
448.62	6951.39
448.80	6904.58
448.99	7002.88
449.17	7035.65
449.36	6993.52
449.54	7122.25
449.73	7302.47
449.91	7346.94
450.10	7405.46
450.28	7555.25
450.46	7470.99
450.65	7309.49
450.83	7463.97
451.02	7421.84
451.20	7363.33
451.39	7461.63
451.57	7410.14
451.76	7258.00
451.94	7466.31
452.13	7468.65
452.31	7590.36
452.49	7232.26
452.68	7557.59
452.86	7403.11
453.05	7468.65
453.23	7543.55
453.42	7384.39
453.60	7318.86
453.78	7541.21
453.97	7698.02
454.15	7435.88
454.34	7522.48
454.52	7765.90
454.70	7620.78
454.89	7864.20
455.07	7861.86
455.26	7812.71
455.44	8079.53
455.62	7967.18
455.81	7850.16
455.99	8098.25
456.17	8002.29
456.36	7941.44
456.54	8035.06
456.73	8205.92
456.91	8376.78
457.09	8418.91
457.28	8414.23
457.46	8035.06
457.64	8259.75
457.83	8421.25
458.01	8147.40
458.19	8397.84
458.38	8411.89
458.56	8411.89
458.74	8425.93
458.93	8468.06
459.11	8479.76
459.29	8486.78
459.48	8662.32
459.66	8631.90
459.84	8746.58
460.03	8638.92
460.21	8667.00
460.39	8795.73
460.57	8725.52
460.76	8685.73
460.94	8725.52
461.12	8786.37
461.31	9057.87
461.49	8779.35
461.67	8835.52
461.85	9135.11
462.04	9100.00
462.22	9593.86
462.40	9139.79
462.59	8903.40
462.77	9408.95
462.95	9284.91
463.13	9247.46
463.32	9062.55
463.50	9210.01
463.68	9249.80
463.86	9083.62
464.05	9062.55
464.23	9207.67
464.41	9331.72
464.59	9298.95
464.78	9343.42
464.96	9525.98
465.14	9193.62
465.32	9493.21
465.50	9586.83
465.69	9738.97
465.87	9493.21
466.05	9378.53
466.23	9277.88
466.41	9479.17
466.60	9542.36
466.78	9343.42
466.96	9643.01
467.14	9357.46
467.32	9647.69
467.51	9799.82
467.69	9296.61
467.87	9598.54
468.05	9832.59
468.23	9635.99
468.41	9767.06
468.60	9830.25
468.78	10129.84
468.96	9762.37
469.14	9902.81
469.32	9980.04
469.50	9762.37
469.69	9926.21
469.87	10003.45
470.05	10101.75
470.23	10150.90
470.41	10045.58
470.59	10045.58
470.77	10146.22
470.95	10068.98
471.14	10200.05
471.32	10167.29
471.50	10593.26
471.68	10356.87
471.86	10490.28
472.04	10630.71
472.22	10626.03
472.40	10644.76
472.58	10562.84
472.77	10602.63
472.95	10700.93
473.13	11225.21
473.31	10799.23
473.49	10740.72
473.67	10796.89
473.85	10953.71
474.03	11040.31
474.21	11283.72
474.39	11421.81
474.57	11304.79
474.75	11365.64
474.93	11426.50
475.12	11470.97
475.30	11496.71
475.48	11510.75
475.66	11707.36
475.84	11417.13
476.02	11878.22
476.20	11485.01
476.38	11775.24
476.56	12065.46
476.74	11943.75
476.92	11939.07
477.10	11812.68
477.28	12336.96
477.46	12257.39
477.64	12482.08
477.82	12718.47
478.00	12971.25
478.18	12912.74
478.36	12891.67
478.54	12950.18
478.72	13055.51
478.90	13069.55
479.08	13500.21
479.26	13610.22
479.44	13504.89
479.62	13408.93
479.80	13720.22
479.98	13811.50
480.16	13862.99
480.34	13914.48
480.52	13738.94
480.70	14038.53
480.88	13729.58
481.06	14150.88
481.24	14597.92
481.41	14644.73
481.59	14717.29
481.77	14658.78
481.95	14869.42
482.13	14846.02
482.31	14941.98
482.49	15171.35
482.67	15428.81
482.85	15356.25
483.03	15468.60
483.21	15833.72
483.39	15702.65
483.57	15594.99
483.74	15754.15
483.92	16051.39
484.10	15819.68
484.28	16032.67
484.46	16315.87
484.64	16849.52
484.82	16393.11
485.00	16512.48
485.18	16610.78
485.35	17163.15
485.53	16690.36
485.71	16369.71
485.89	17006.33
486.07	16891.65
486.25	17275.49
486.43	17436.99
486.61	17076.55
486.78	17832.54
486.96	17898.08
487.14	17989.36
487.32	17977.65
487.50	18466.83
487.68	18689.18
487.85	18934.93
488.03	19028.56
488.21	18885.78
488.39	18806.20
488.57	19545.81
488.75	19435.81
488.92	19616.03
489.10	19819.66
489.28	19765.82
489.46	20287.76
489.64	20313.51
489.81	20503.09
489.99	20655.23
490.17	20592.03
490.35	21083.55
490.53	20891.62
490.70	21046.10
490.88	20900.98
491.06	21486.12
491.24	21116.31
491.41	21359.73
491.59	21443.99
491.77	21149.08
491.95	21565.70
492.13	21689.74
492.30	22026.78
492.48	22324.03
492.66	22785.12
492.84	22319.35
493.01	22946.61
493.19	22546.38
493.37	22698.52
493.54	22986.40
493.72	23295.35
493.90	23274.29
494.08	23545.79
494.25	23761.12
494.43	23836.02
494.61	23999.85
494.79	24149.65
494.96	23828.99
495.14	23800.91
495.32	24257.31
495.49	24460.94
495.67	24620.10
495.85	24287.74
496.02	24421.15
496.20	24959.47
496.38	25282.47
496.55	25188.85
496.73	25834.83
496.91	25357.36
497.09	25575.03
497.26	25937.82
497.44	26019.74
497.62	25544.61
497.79	25734.19
497.97	25710.78
498.14	26132.08
498.32	25909.73
498.50	26422.31
498.67	26677.43
498.85	26714.87
499.03	26998.08
499.20	26829.56
499.38	26888.07
499.56	27159.58
499.73	27157.24
499.91	27080.00
500.08	27431.08
500.26	27236.81
500.44	27513.00
500.61	27503.64
500.79	27145.53
500.97	27449.80
501.14	27807.90
501.32	27934.29
501.49	28086.43
501.67	27903.87
501.84	28130.90
502.02	28016.21
502.20	28364.95
502.37	28276.01
502.55	28137.92
502.72	28971.15
502.90	28620.07
503.07	28601.35
503.25	28662.20
503.43	28947.75
503.60	28732.42
503.78	29212.23
503.95	28950.09
504.13	29163.08
504.30	29221.59
504.48	29205.20
504.65	29352.66
504.83	29926.09
505.01	29923.75
505.18	29921.41
505.36	30419.94
505.53	30110.99
505.71	30277.17
505.88	30656.34
506.06	30010.35
506.23	30408.24
506.41	30185.89
506.58	30906.77
506.76	30808.47
506.93	31185.30
507.11	30850.60
507.28	30974.65
507.46	30536.97
507.63	31061.25
507.81	30916.14
507.98	30742.94
508.16	30850.60
508.33	31344.45
508.50	31562.12
508.68	31590.21
508.85	31751.71
509.03	31646.38
509.20	31936.61
509.38	31756.39
509.55	32158.96
509.73	32355.57
509.90	31583.19
510.08	32041.93
510.25	32266.63
510.42	32538.13
510.60	32727.71
510.77	32606.00
510.95	32694.94
511.12	32821.33
511.30	32694.94
511.47	33240.29
511.64	32914.95
511.82	33401.79
511.99	32950.06
512.17	32943.04
512.34	33083.47
512.51	33607.75
512.69	33425.19
512.86	33713.08
513.04	34106.29
513.21	33883.94
513.38	33839.47
513.56	33612.43
513.73	33572.64
513.90	34115.65
514.08	33624.14
514.25	33919.04
514.43	33457.96
514.60	34300.55
514.77	34078.20
514.95	34541.63
515.12	34391.83
515.29	34651.63
515.47	34873.98
515.64	34888.03
515.81	34710.14
515.99	34380.13
516.16	34239.70
516.33	34398.85
516.51	34382.47
516.68	34293.53
516.85	33940.11
517.03	34541.63
517.20	34672.70
517.37	34520.56
517.54	35353.79
517.72	34913.77
517.89	35002.71
518.06	34766.32
518.24	34824.83
518.41	35398.26
518.58	35227.40
518.75	35117.40
518.93	35908.50
519.10	35732.96
519.27	35571.46
519.45	36102.76
519.62	36357.88
519.79	36271.28
519.96	35873.39
520.14	36341.50
520.31	36163.62
520.48	36507.68
520.65	36598.96
520.83	36715.98
521.00	36886.84
521.17	36786.20
521.34	36903.23
521.52	37170.05
521.69	37062.38
521.86	37752.84
522.03	37235.58
522.20	37167.71
522.38	37565.60
522.55	36737.05
522.72	37544.53
522.89	37429.85
523.07	37507.08
523.24	37436.87
523.41	37986.89
523.58	37696.67
523.75	38342.66
523.92	37890.93
524.10	38352.02
524.27	38085.20
524.44	37926.04
524.61	38190.52
524.78	38478.41
524.96	38728.84
525.13	38314.57
525.30	38834.17
525.47	38789.70
525.64	38721.82
525.81	38569.69
525.98	38160.09
526.16	38096.90
526.33	37951.79
526.50	38796.72
526.67	38574.37
526.84	38213.93
527.01	38213.93
527.18	38988.64
527.36	38965.24
527.53	39321.00
527.70	39377.17
527.87	39068.22
528.04	39564.42
528.21	39480.16
528.38	39239.08
528.55	39756.34
528.72	39632.29
528.89	40250.19
529.07	40009.12
529.24	40137.85
529.41	39768.04
529.58	39807.83
529.75	39810.17
529.92	39754.00
530.09	39950.60
530.26	40102.74
530.43	40395.31
530.60	39739.96
530.77	40084.01
530.94	40563.82
531.11	40201.04
531.28	40474.88
531.46	40517.01
531.63	40423.39
531.80	40582.55
531.97	40268.92
532.14	40486.59
532.31	39985.71
532.48	40601.27
532.65	40652.76
532.82	40561.48
532.99	40968.74
533.16	40378.92
533.33	40526.38
533.50	40919.59
533.67	40809.58
533.84	41013.21
534.01	41338.54
534.18	41268.33
534.35	41076.40
534.52	41109.17
534.69	41514.08
534.86	41553.87
535.03	41294.07
535.20	41975.17
535.37	41701.32
535.54	41581.96
535.71	41865.16
535.88	41647.49
536.05	41511.74
536.22	41949.42
536.38	42087.51
536.55	41565.57
536.72	41844.10
536.89	41823.03
537.06	41703.67
537.23	42429.23
537.40	42286.46
537.57	41752.82
537.74	41839.42
537.91	42712.44
538.08	42614.13
538.25	41872.18
538.42	42066.45
538.59	42253.69
538.75	41923.68
538.92	41944.74
539.09	42057.09
539.26	42431.57
539.43	42337.95
539.60	42714.78
539.77	42323.91
539.94	42728.82
540.11	42230.29
540.28	42597.75
540.44	42342.63
540.61	42813.08
540.78	42600.09
540.95	42630.52
541.12	42546.26
541.29	42628.18
541.46	42717.12
541.62	42684.35
541.79	42593.07
541.96	43037.77
542.13	42857.55
542.30	43154.80
542.47	43133.73
542.63	42920.74
542.80	43161.82
542.97	43393.53
543.14	43880.36
543.31	43686.10
543.48	43667.37
543.64	44369.54
543.81	44051.22
543.98	43449.70
544.15	43648.65
544.32	43906.11
544.48	44268.89
544.65	43985.69
544.82	44362.51
544.99	43634.61
545.16	43943.56
545.32	43849.94
545.49	44224.42
545.66	44320.38
545.83	44161.23
546.00	44301.66
546.16	44018.46
546.33	44198.68
546.50	44119.10
546.67	44098.03
546.83	43941.22
547.00	44605.93
547.17	44109.74
547.34	44320.38
547.50	44577.84
547.67	44634.02
547.84	43978.67
548.00	44458.48
548.17	44790.83
548.34	44652.74
548.51	44839.98
548.67	45041.27
548.84	44989.78
549.01	45141.91
549.18	44449.11
549.34	44776.79
549.51	44891.48
549.68	44811.90
549.84	45485.97
550.01	44832.96
550.18	45088.08
550.34	44978.07
550.51	45296.39
550.68	44732.32
550.84	44584.86
551.01	44942.97
551.18	45247.24
551.34	45015.52
551.51	45378.31
551.68	45092.76
551.84	45146.59
552.01	44921.90
552.18	44994.46
552.34	45141.91
552.51	45439.16
552.68	45277.66
552.84	45514.06
553.01	45790.24
553.18	45797.26
553.34	45214.47
553.51	45631.08
553.67	45202.77
553.84	46115.58
554.01	45792.58
554.17	45673.21
554.34	46223.24
554.51	45965.78
554.67	45837.05
554.84	45518.74
555.00	45776.20
555.17	45694.28
555.33	46010.25
555.50	45771.52
555.67	45855.78
555.83	45808.96
556.00	46288.77
556.16	46043.02
556.33	46073.45
556.50	45862.80
556.66	45729.39
556.83	45890.88
556.99	45940.04
557.16	46340.27
557.32	45916.63
557.49	45984.51
557.65	45813.65
557.82	45853.44
557.98	45968.12
558.15	46178.77
558.32	46344.95
558.48	46033.66
558.65	46033.66
558.81	45940.04
558.98	46340.27
559.14	46270.05
559.31	46195.15
559.47	46401.12
559.64	46944.12
559.80	46464.32
559.97	46831.78
560.13	46000.89
560.30	46398.78
560.46	46293.46
560.63	46085.15
560.79	46375.37
560.96	46756.88
561.12	46632.83
561.29	46096.85
561.45	46366.01
561.61	46649.22
561.78	46347.29
561.94	46000.89
562.11	46611.77
562.27	46574.32
562.44	46248.99
562.60	46932.42
562.77	46679.64
562.93	46373.03
563.10	46433.89
563.26	46562.62
563.42	46714.75
563.59	46525.17
563.75	46457.29
563.92	46639.86
564.08	46579.00
564.24	47353.72
564.41	46747.52
564.57	46871.57
564.74	46824.76
564.90	47327.97
565.07	46770.93
565.23	46890.29
565.39	46651.56
565.56	47178.18
565.72	46902.00
565.88	46602.41
566.05	46344.95
566.21	46794.33
566.38	46684.33
566.54	46848.16
566.70	47180.52
566.87	47496.49
567.03	46930.08
567.19	47229.67
567.36	46899.65
567.52	46686.67
567.68	46843.48
567.85	46593.04
568.01	46799.01
568.17	46323.88
568.34	46625.81
568.50	46962.85
568.66	46714.75
568.83	46796.67
568.99	46623.47
569.15	46813.05
569.32	47168.82
569.48	46382.40
569.64	46869.23
569.81	46958.17
569.97	46990.94
570.13	47187.54
570.30	46588.36
570.46	46883.27
570.62	46782.63
570.78	46576.66
570.95	46815.40
571.11	47573.73
571.27	46791.99
571.43	46976.89
571.60	47234.35
571.76	47281.16
571.92	46850.50
572.09	47166.48
572.25	47199.24
572.41	46916.04
572.57	47227.33
572.74	47629.90
572.90	47264.78
573.06	47168.82
573.22	47540.96
573.38	47391.17
573.55	47232.01
573.71	47140.73
573.87	47096.26
574.03	46674.96
574.20	46965.19
574.36	47054.13
574.52	46918.38
574.68	47103.28
574.84	47393.51
575.01	47138.39
575.17	47112.64
575.33	46906.68
575.49	47026.04
575.65	47318.61
575.82	47316.27
575.98	46934.76
576.14	47386.49
576.30	47122.01
576.46	47103.28
576.62	47058.81
576.79	46579.00
576.95	47028.38
577.11	46728.80
577.27	47030.72
577.43	47260.10
577.59	47346.70
577.75	46997.96
577.92	46424.53
578.08	46588.36
578.24	46609.43
578.40	47168.82
578.56	46965.19
578.72	47044.77
578.88	47304.57
579.04	47290.52
579.21	47267.12
579.37	47154.77
579.53	47030.72
579.69	46801.35
579.85	47234.35
580.01	47295.21
580.17	47306.91
580.33	47643.94
580.49	47402.87
580.65	47695.44
580.82	47599.47
580.98	47084.56
581.14	47232.01
581.30	47327.97
581.46	46733.48
581.62	47662.67
581.78	47416.91
581.94	47388.83
582.10	47203.92
582.26	47217.97
582.42	47299.89
582.58	47150.09
582.74	47023.70
582.90	47283.50
583.06	47309.25
583.22	47332.65
583.38	47648.63
583.54	47627.56
583.70	46834.12
583.86	46960.51
584.02	46806.03
584.18	47208.61
584.34	47529.26
584.50	47484.79
584.66	47234.35
584.82	47484.79
584.98	47632.24
585.14	47276.48
585.30	46649.22
585.46	47114.98
585.62	46698.37
585.78	46878.59
585.94	46815.40
586.10	46986.25
586.26	47370.10
586.42	47412.23
586.58	47531.60
586.74	47220.31
586.90	47023.70
587.06	47227.33
587.22	47758.63
587.38	46988.60
587.54	48055.88
587.70	47515.22
587.86	46752.20
588.02	47346.70
588.18	47281.16
588.34	47344.36
588.49	46916.04
588.65	46724.11
588.81	46464.32
588.97	46890.29
589.13	46632.83
589.29	46674.96
589.45	47112.64
589.61	47049.45
589.77	47377.12
589.93	47318.61
590.08	47452.02
590.24	47615.86
590.40	47292.86
590.56	47196.90
590.72	47175.84
590.88	47505.85
591.04	47227.33
591.20	47599.47
591.35	47491.81
591.51	47735.23
591.67	47660.33
591.83	47433.30
591.99	47063.49
592.15	47304.57
592.31	47353.72
592.46	47405.21
592.62	47262.44
592.78	47536.28
592.94	47571.39
593.10	47026.04
593.26	47571.39
593.41	47695.44
593.57	47164.14
593.73	47185.20
593.89	47583.09
594.05	47456.70
594.20	47323.29
594.36	47482.45
594.52	47147.75
594.68	47449.68
594.84	47597.13
594.99	47826.51
595.15	47526.92
595.31	47760.97
595.47	47531.60
595.62	47538.62
595.78	47342.02
595.94	47629.90
596.10	47679.05
596.25	47299.89
596.41	47622.88
596.57	47412.23
596.73	47407.55
596.88	47442.66
597.04	47604.16
597.20	47739.91
597.36	47477.77
597.51	47772.67
597.67	47639.26
597.83	47639.26
597.99	47639.26
598.14	47737.57
598.30	47398.19
598.46	47187.54
598.61	47480.11
598.77	47217.97
598.93	47119.66
599.09	47381.80
599.24	47590.11
599.40	47547.98
599.56	47746.93
599.71	48018.43
599.87	47711.82
600.03	47243.71
600.18	47049.45
600.34	47571.39
600.50	47590.11
600.65	47533.94
600.81	47555.00
600.97	47643.94
601.12	48025.45
601.28	47634.58
601.44	47379.46
601.59	47569.05
601.75	47278.82
601.91	47402.87
602.06	47185.20
602.22	47306.91
602.37	47608.84
602.53	47718.84
602.69	47650.97
602.84	47955.24
603.00	47133.71
603.16	47426.28
603.31	47248.39
603.47	47220.31
603.62	47299.89
603.78	47559.69
603.94	47344.36
604.09	47585.43
604.25	47433.30
604.40	47229.67
604.56	47208.61
604.71	47580.75
604.87	47356.06
605.03	47643.94
605.18	47327.97
605.34	47257.76
605.49	47166.48
605.65	47384.15
605.80	47203.92
605.96	47536.28
606.12	46890.29
606.27	47412.23
606.43	47185.20
606.58	47175.84
606.74	47278.82
606.89	47332.65
607.05	47452.02
607.20	47063.49
607.36	47634.58
607.51	47491.81
607.67	47182.86
607.82	47327.97
607.98	47262.44
608.13	47152.43
608.29	47171.16
608.44	46403.46
608.60	46600.07
608.75	46791.99
608.91	46742.84
609.06	46529.85
609.22	47442.66
609.37	46511.13
609.53	47152.43
609.68	46981.57
609.84	46656.24
609.99	46885.61
610.15	46880.93
610.30	46799.01
610.46	46293.46
610.61	46887.95
610.76	47126.69
610.92	46995.62
611.07	47075.19
611.23	46410.48
611.38	47082.22
611.54	46504.10
611.69	46436.23
611.84	46515.81
612.00	46461.97
612.15	46916.04
612.31	47056.47
612.46	46759.22
612.62	46761.56
612.77	46473.68
612.92	46911.36
613.08	46857.52
613.23	46621.13
613.39	46312.18
613.54	46307.50
613.69	46366.01
613.85	46600.07
614.00	46794.33
614.15	46717.09
614.31	46609.43
614.46	47086.90
614.62	46293.46
614.77	46148.34
614.92	46511.13
615.08	46401.12
615.23	46225.58
615.38	46005.57
615.54	46153.02
615.69	46188.13
615.84	45525.76
616.00	45944.72
616.15	46265.37
616.30	45762.15
616.46	45984.51
616.61	45619.38
616.76	45925.99
616.92	46059.40
617.07	46038.34
617.22	46066.42
617.37	45914.29
617.53	46146.00
617.68	46078.13
617.83	46017.27
617.99	46185.79
618.14	45844.07
618.29	45488.31
618.45	45478.95
618.60	45588.95
618.75	45610.02
618.90	45638.11
619.06	46106.21
619.21	45605.34
619.36	45748.11
619.51	45748.11
619.67	45560.87
619.82	45787.90
619.97	45310.43
620.12	45528.10
620.28	45425.12
620.43	45015.52
620.58	45502.35
620.73	45492.99
620.89	45137.23
621.04	45577.25
621.19	45289.37
621.34	45102.12
621.49	45270.64
621.65	44968.71
621.80	45523.42
621.95	44516.99
622.10	45020.20
622.25	44905.52
622.41	44755.72
622.56	44797.85
622.71	44996.80
622.86	44832.96
623.01	44861.05
623.16	45354.90
623.32	45354.90
623.47	44961.69
623.62	45071.70
623.77	44729.98
623.92	44446.77
624.07	44779.13
624.23	44727.64
624.38	44762.75
624.53	44505.29
624.68	44987.44
624.83	44818.92
624.98	44872.75
625.13	44418.69
625.29	44605.93
625.44	44524.01
625.59	44519.33
625.74	44020.80
625.89	43941.22
626.04	43924.83
626.19	44367.20
626.34	44486.56
626.49	44076.97
626.65	44184.63
626.80	44222.08
626.95	44133.14
627.10	43964.62
627.25	44025.48
627.40	43819.51
627.55	43992.71
627.70	43711.84
627.85	43550.35
628.00	44067.61
628.15	44411.67
628.30	43693.12
628.45	43770.36
628.60	43641.63
628.76	43997.39
628.91	44004.41
629.06	44140.16
629.21	44081.65
629.36	43690.78
629.51	43234.38
629.66	43421.62
629.81	43051.81
629.96	43416.94
630.11	43732.91
630.26	43669.72
630.41	43852.28
630.56	43779.72
630.71	42892.66
630.86	43622.90
631.01	43707.16
631.16	43606.52
631.31	43206.29
631.46	42930.11
631.61	43274.16
631.76	43185.22
631.91	43079.90
632.06	43555.03
632.21	43505.88
632.36	43737.59
632.51	43250.76
632.66	43346.72
632.81	42761.59
632.96	43377.15
633.10	42623.50
633.25	43037.77
633.40	42986.28
633.55	43543.33
633.70	42981.60
633.85	42981.60
634.00	42361.36
634.15	42770.95
634.30	42663.28
634.45	42913.72
634.60	42965.21
634.75	42777.97
634.90	42630.52
635.05	42841.17
635.19	43112.67
635.34	42766.27
635.49	42756.91
635.64	42726.48
635.79	42265.39
635.94	42864.57
636.09	42494.77
636.24	42674.99
636.39	42733.50
636.53	42483.06
636.68	42017.30
636.83	42089.85
636.98	42628.18
637.13	42131.98
637.28	42487.74
637.43	42792.01
637.57	42492.43
637.72	42141.35
637.87	42487.74
638.02	42169.43
638.17	42307.52
638.32	41549.19
638.46	41748.14
638.61	42033.68
638.76	41727.07
638.91	41979.85
639.06	41830.05
639.20	42204.54
639.35	42457.32
639.50	41675.58
639.65	42026.66
639.80	41940.06
639.94	42017.30
640.09	41968.15
640.24	41425.14
640.39	41067.04
640.54	41287.05
640.68	41380.67
640.83	41682.60
640.98	41429.82
641.13	41450.89
641.27	41607.70
641.42	41610.04
641.57	41523.44
641.72	41170.02
641.86	41006.19
642.01	41202.79
642.16	41357.27
642.31	41095.13
642.45	41270.67
642.60	41113.85
642.75	41057.68
642.90	41572.60
643.04	40734.68
643.19	41368.97
643.34	40980.44
643.48	40947.67
643.63	41230.88
643.78	41017.89
643.93	40849.37
644.07	40673.83
644.22	40835.33
644.37	40676.17
644.51	40474.88
644.66	40797.88
644.81	41258.96
644.95	41261.30
645.10	41165.34
645.25	41188.75
645.39	41104.49
645.54	40755.75
645.69	40727.66
645.83	40467.86
645.98	40526.38
646.13	40968.74
646.27	40786.18
646.42	40659.79
646.57	40790.86
646.71	40472.54
646.86	40430.41
647.00	40498.29
647.15	40629.36
647.30	40568.51
647.44	40486.59
647.59	40442.12
647.74	40608.29
647.88	39861.66
648.03	39805.49
648.17	40467.86
648.32	39889.75
648.47	39838.26
648.61	39955.29
648.76	40610.64
648.90	40287.64
649.05	40016.14
649.20	39871.03
649.34	40336.79
649.49	39962.31
649.63	40280.62
649.78	40404.67
649.92	40093.38
650.07	40250.19
650.21	40217.43
650.36	39903.79
650.51	39386.54
650.65	40252.53
650.80	40062.95
650.94	40060.61
651.09	39742.30
651.23	39882.73
651.38	39847.62
651.52	39407.60
651.67	39585.48
651.81	40102.74
651.96	39409.94
652.10	39856.98
652.25	39332.70
652.39	39283.55
652.54	39934.22
652.68	39606.55
652.83	39569.10
652.97	39770.38
653.12	39147.80
653.26	39459.09
653.41	39512.92
653.55	39196.95
653.70	39604.20
653.84	39365.47
653.99	39381.85
654.13	39440.37
654.27	39292.91
654.42	39189.93
654.56	38969.92
654.71	39447.39
654.85	39089.29
655.00	38895.02
655.14	39189.93
655.29	38876.30
655.43	38586.07
655.57	38628.20
655.72	38632.88
655.86	38361.38
656.01	38323.93
656.15	38361.38
656.30	38368.40
656.44	38202.22
656.58	38443.30
656.73	38202.22
656.87	38092.22
657.01	38096.90
657.16	38113.28
657.30	38436.28
657.45	38000.94
657.59	38499.47
657.73	38300.53
657.88	38134.35
658.02	38068.81
658.16	38024.34
658.31	38328.61
658.45	38600.12
658.60	37958.81
658.74	38352.02
658.88	37893.27
659.03	37947.11
659.17	37904.98
659.31	38103.92
659.46	37993.92
659.60	38040.73
659.74	37956.47
659.89	37801.99
660.03	37198.13
660.17	37809.01
660.32	38040.73
660.46	38033.71
660.60	37827.74
660.74	37818.38
660.89	37860.51
661.03	37284.73
661.17	37338.57
661.32	36804.92
661.46	37406.44
661.60	37249.63
661.74	36788.54
661.89	37069.40
662.03	37376.01
662.17	37036.64
662.31	37017.91
662.46	37223.88
662.60	37109.19
662.74	37109.19
662.88	37270.69
663.03	36865.78
663.17	36561.51
663.31	36383.63
663.45	36896.20
663.60	37118.56
663.74	36460.87
663.88	36465.55
664.02	36254.90
664.17	36409.37
664.31	36144.89
664.45	36552.15
664.59	36554.49
664.73	36238.51
664.88	36290.01
665.02	36060.63
665.16	36210.43
665.30	36517.04
665.44	35950.63
665.59	35983.40
665.73	36371.92
665.87	36126.17
666.01	35812.54
666.15	36079.36
666.29	35952.97
666.44	35498.91
666.58	35239.11
666.72	35683.81
666.86	35491.88
667.00	35952.97
667.14	35229.74
667.28	35405.28
667.43	35468.48
667.57	35622.95
667.71	34925.47
667.85	35157.19
667.99	35166.55
668.13	34754.61
668.27	34820.15
668.41	34761.64
668.56	34574.39
668.70	34937.18
668.84	34995.69
668.98	34635.25
669.12	34455.03
669.26	35091.65
669.40	33993.94
669.54	34258.42
669.68	34649.29
669.82	34476.09
669.96	33848.83
670.10	33944.79
670.25	34029.05
670.39	34054.79
670.53	33921.38
670.67	33692.01
670.81	34267.78
670.95	33710.74
671.09	33942.45
671.23	33919.04
671.37	34202.25
671.51	33436.89
671.65	33504.77
671.79	33193.48
671.93	33308.16
672.07	33455.62
672.21	32828.35
672.35	33057.73
672.49	33331.57
672.63	33188.80
672.77	32926.66
672.91	33109.22
673.05	33053.05
673.19	32814.31
673.33	32765.16
673.47	33113.90
673.61	32357.91
673.75	32514.72
673.89	32400.04
674.03	31962.36
674.17	32123.85
674.31	32421.10
674.45	32385.99
674.59	32231.52
674.73	32732.39
674.87	31999.80
675.01	32385.99
675.15	31948.31
675.29	32385.99
675.43	31814.90
675.56	32011.51
675.70	31489.57
675.84	31793.84
675.98	30314.62
676.12	31414.67
676.26	31440.42
676.40	30831.88
676.54	30848.26
676.68	30782.73
676.82	30405.90
676.96	30707.83
677.10	30375.47
677.23	30855.28
677.37	30817.83
677.51	30679.74
677.65	30309.94
677.79	30415.26
677.93	30338.02
678.07	30359.09
678.21	29909.71
678.34	30022.05
678.48	29769.27
678.62	29715.44
678.76	29350.32
678.90	29418.19
679.04	29596.07
679.18	29474.37
679.31	29535.22
679.45	29247.33
679.59	28959.45
679.73	29188.82
679.87	28903.28
680.00	29254.36
680.14	28835.40
680.28	28662.20
680.42	28591.98
680.56	28451.55
680.70	28128.56
680.83	28486.66
680.97	28046.64
681.11	28079.41
681.25	28144.94
681.39	27896.85
681.52	27967.06
681.66	27587.89
681.80	27978.76
681.94	27562.15
682.07	27625.34
682.21	27452.14
682.35	27360.86
682.49	27494.27
682.62	27264.90
682.76	27435.76
682.90	26955.95
683.04	27103.40
683.17	26892.76
683.31	26742.96
683.45	26752.32
683.59	26324.01
683.72	26286.56
683.86	26087.61
684.00	26015.05
684.13	26668.06
684.27	26511.25
684.41	26206.98
684.55	25963.56
684.68	25666.31
684.82	25883.98
684.96	25523.54
685.09	26078.25
685.23	26043.14
685.37	25387.79
685.50	25294.17
685.64	25462.69
685.78	25174.80
685.91	25123.31
686.05	25209.91
686.19	24805.00
686.32	24922.02
686.46	24690.31
686.60	24100.50
686.73	24318.17
686.87	23990.49
687.01	24027.94
687.14	23543.45
687.28	23447.49
687.42	23875.80
687.55	23838.36
687.69	23442.81
687.82	23756.44
687.96	23784.52
688.10	23426.42
688.23	23550.47
688.37	23314.08
688.50	22979.38
688.64	23388.97
688.78	23358.55
688.91	22944.27
689.05	22817.88
689.18	22518.29
689.32	22490.21
689.46	22534.68
689.59	22895.12
689.73	22518.29
689.86	22363.82
690.00	22324.03
690.13	22511.27
690.27	22581.49
690.41	22302.96
690.54	21994.01
690.68	22047.85
690.81	22099.34
690.95	21633.57
691.08	21961.25
691.22	21603.14
691.35	21659.32
691.49	21825.50
691.62	21546.97
691.76	21298.88
691.89	21455.69
692.03	21128.02
692.16	21146.74
692.30	21275.47
692.43	21310.58
692.57	20685.65
692.70	20278.40
692.84	21003.97
692.97	20475.01
693.11	20610.76
693.24	20334.57
693.38	20339.26
693.51	20060.73
693.65	20217.55
693.78	20240.95
693.92	20088.82
694.05	20210.53
694.19	19929.66
694.32	19999.88
694.45	19529.43
694.59	19756.46
694.72	19536.45
694.86	19672.20
694.99	19538.79
695.13	19220.48
695.26	19089.41
695.39	18885.78
695.53	19323.46
695.66	19140.90
695.80	19171.33
695.93	18909.19
696.07	18398.95
696.20	18948.98
696.33	18492.57
696.47	18387.25
696.60	18333.42
696.73	18302.99
696.87	18384.91
697.00	18321.71
697.14	18059.57
697.27	18253.84
697.40	18211.71
697.54	18118.09
697.67	17860.63
697.80	18040.85
697.94	17884.03
698.07	17673.39
698.21	17675.73
698.34	17736.58
698.47	17605.51
698.61	17184.21
698.74	17139.74
698.87	17128.04
699.01	17144.42
699.14	17259.11
699.27	17022.72
699.40	17067.19
699.54	16652.91
699.67	16903.35
699.80	16786.32
699.94	16521.84
700.07	16493.76
700.20	16519.50
700.34	16044.37
700.47	16404.81
700.60	16570.99
700.73	16512.48
700.87	16215.23
701.00	16184.80
701.13	15943.73
701.26	15831.38
701.40	15990.54
701.53	15590.31
701.66	15978.84
701.79	15637.12
701.93	15618.39
702.06	15445.20
702.19	15346.89
702.32	15475.62
702.46	15314.13
702.59	15414.77
702.72	15307.10
702.85	15435.83
702.99	15110.50
703.12	15227.53
703.25	15112.84
703.38	15140.93
703.51	14862.40
703.65	14747.72
703.78	14724.31
703.91	14382.59
704.04	14647.07
704.17	14558.13
704.31	14377.91
704.44	14120.45
704.57	14162.58
704.70	14193.01
704.83	14307.69
704.96	13944.91
705.10	14415.36
705.23	14396.64
>>>>>End Processed Spectral Data<<<<<
