SpectraSuite Data File
++++++++++++++++++++++++++++++++++++
Date: Fri Oct 25 11:34:16 EDT 2013
User: price-jones
Dark Spectrum Present: No
Reference Spectrum Present: No
Number of Sampled Component Spectra: 1
Spectrometers: USB2+H05261
Integration Time (usec): 100000 (USB2+H05261)
Spectra Averaged: 1 (USB2+H05261)
Boxcar Smoothing: 0 (USB2+H05261)
Correct for Electrical Dark: No (USB2+H05261)
Strobe/Lamp Enabled: No (USB2+H05261)
Correct for Detector Non-linearity: No (USB2+H05261)
Correct for Stray Light: No (USB2+H05261)
Number of Pixels in Processed Spectrum: 2048
>>>>>Begin Processed Spectral Data<<<<<
365.73	322.99
365.92	322.99
366.12	322.99
366.32	241.08
366.52	184.90
366.72	177.88
366.91	163.84
367.11	238.73
367.31	149.79
367.51	163.84
367.70	196.60
367.90	234.05
368.10	222.35
368.30	210.65
368.49	121.71
368.69	264.48
368.89	191.92
369.09	203.63
369.28	217.67
369.48	215.33
369.68	234.05
369.87	255.12
370.07	301.93
370.27	212.99
370.47	320.65
370.66	442.36
370.86	545.34
371.06	533.64
371.25	559.39
371.45	521.94
371.65	582.79
371.84	603.86
372.04	510.24
372.24	514.92
372.44	543.00
372.63	538.32
372.83	564.07
373.03	592.16
373.22	561.73
373.42	573.43
373.62	566.41
373.81	571.09
374.01	669.39
374.21	690.46
374.40	568.75
374.60	727.91
374.79	561.73
374.99	657.69
375.19	645.99
375.38	622.58
375.58	683.44
375.78	695.14
375.97	676.41
376.17	709.18
376.37	653.01
376.56	662.37
376.76	662.37
376.95	559.39
377.15	685.78
377.35	631.94
377.54	660.03
377.74	697.48
377.93	660.03
378.13	664.71
378.33	678.76
378.52	704.50
378.72	741.95
378.91	662.37
379.11	624.92
379.31	713.86
379.50	741.95
379.70	685.78
379.89	786.42
380.09	683.44
380.28	709.18
380.48	692.80
380.68	716.20
380.87	739.61
381.07	734.93
381.26	835.57
381.46	751.31
381.65	765.36
381.85	645.99
382.04	802.80
382.24	830.89
382.43	807.48
382.63	795.78
382.83	723.23
383.02	805.14
383.22	772.38
383.41	748.97
383.61	793.44
383.80	784.08
384.00	812.17
384.19	882.38
384.39	739.61
384.58	779.40
384.78	746.63
384.97	828.55
385.17	791.10
385.36	828.55
385.56	854.30
385.75	840.25
385.95	744.29
386.14	863.66
386.34	830.89
386.53	905.79
386.72	795.78
386.92	851.96
387.11	809.83
387.31	898.77
387.50	861.32
387.70	894.08
387.89	898.77
388.09	868.34
388.28	894.08
388.48	936.21
388.67	964.30
388.86	964.30
389.06	976.00
389.25	894.08
389.45	919.83
389.64	901.11
389.84	973.66
390.03	994.73
390.22	968.98
390.42	999.41
390.61	1006.43
390.81	950.26
391.00	1015.79
391.19	1022.81
391.39	884.72
391.58	971.32
391.78	1015.79
391.97	1036.86
392.16	1095.37
392.36	1034.52
392.55	1053.24
392.75	1067.28
392.94	1015.79
393.13	1001.75
393.33	987.71
393.52	1034.52
393.71	1025.15
393.91	1064.94
394.10	1053.24
394.29	1041.54
394.49	1069.62
394.68	1078.99
394.88	1125.80
395.07	1114.10
395.26	1158.57
395.46	1086.01
395.65	1128.14
395.84	1132.82
396.04	1217.08
396.23	1064.94
396.42	1144.52
396.62	1118.78
396.81	1198.35
397.00	1177.29
397.19	1151.54
397.39	1198.35
397.58	1205.38
397.77	1170.27
397.97	1301.34
398.16	1252.19
398.35	1238.14
398.55	1181.97
398.74	1245.16
398.93	1320.06
399.12	1277.93
399.32	1228.78
399.51	1249.85
399.70	1329.42
399.90	1233.46
400.09	1284.95
400.28	1364.53
400.47	1420.71
400.67	1383.26
400.86	1369.21
401.05	1310.70
401.24	1362.19
401.44	1385.60
401.63	1446.45
401.82	1455.81
402.01	1404.32
402.21	1460.49
402.40	1439.43
402.59	1472.20
402.78	1483.90
402.97	1533.05
403.17	1519.01
403.36	1507.30
403.55	1589.22
403.74	1488.58
403.93	1575.18
404.13	1565.82
404.32	1540.07
404.51	1591.56
404.70	1523.69
404.89	1589.22
405.09	1650.08
405.28	1692.21
405.47	1645.40
405.66	1645.40
405.85	1722.63
406.05	1617.31
406.24	1818.60
406.43	1671.14
406.62	1675.82
406.81	1715.61
407.00	1774.13
407.20	1713.27
407.39	1797.53
407.58	1753.06
407.77	1755.40
407.96	1879.45
408.15	1877.11
408.34	1816.26
408.54	1907.54
408.73	1891.15
408.92	1898.17
409.11	1792.85
409.30	1916.90
409.49	1820.94
409.68	1916.90
409.87	1982.43
410.07	1998.82
410.26	1966.05
410.45	2036.27
410.64	1956.69
410.83	2026.90
411.02	2129.89
411.21	2017.54
411.40	2050.31
411.59	2155.63
411.78	2087.76
411.98	2146.27
412.17	2146.27
412.36	2235.21
412.55	2230.53
412.74	2286.70
412.93	2286.70
413.12	2275.00
413.31	2392.03
413.50	2277.34
413.69	2401.39
413.88	2382.67
414.07	2324.15
414.26	2394.37
414.45	2396.71
414.64	2583.95
414.83	2569.91
415.02	2422.45
415.22	2670.55
415.41	2466.92
415.60	2445.86
415.79	2623.74
415.98	2628.42
416.17	2778.22
416.36	2644.81
416.55	2612.04
416.74	2808.64
416.93	2745.45
417.12	2785.24
417.31	2722.04
417.50	2691.62
417.69	2820.35
417.88	2930.35
418.07	2740.77
418.26	2920.99
418.45	2888.22
418.64	3061.42
418.83	2932.69
419.02	2878.86
419.21	2888.22
419.39	3016.95
419.58	3052.06
419.77	2960.78
419.96	3054.40
420.15	3077.80
420.34	2981.84
420.53	3016.95
420.72	3171.43
420.91	3110.57
421.10	3232.28
421.29	3122.27
421.48	3164.40
421.67	3194.83
421.86	3162.06
422.05	3353.99
422.24	3206.53
422.43	3201.85
422.61	3169.09
422.80	3281.43
422.99	3239.30
423.18	3229.94
423.37	3309.52
423.56	3105.89
423.75	3293.13
423.94	3229.94
424.13	3129.30
424.32	3201.85
424.50	3225.26
424.69	3344.63
424.88	3463.99
425.07	3307.18
425.26	3314.20
425.45	3370.37
425.64	3236.96
425.83	3208.87
426.01	3351.65
426.20	3274.41
426.39	3473.36
426.58	3265.05
426.77	3300.16
426.96	3349.31
427.15	3482.72
427.33	3412.50
427.52	3487.40
427.71	3515.48
427.90	3559.95
428.09	3625.49
428.28	3604.42
428.46	3625.49
428.65	3524.85
428.84	3653.58
429.03	3679.32
429.22	3494.42
429.40	3599.74
429.59	3604.42
429.78	3581.02
429.97	3363.35
430.16	3578.68
430.34	3709.75
430.53	3913.38
430.72	3674.64
430.91	3714.43
431.10	3779.97
431.28	3833.80
431.47	3763.58
431.66	3801.03
431.85	3892.31
432.03	4016.36
432.22	4032.74
432.41	3857.20
432.60	3929.76
432.79	4035.08
432.97	4032.74
433.16	3983.59
433.35	4014.02
433.54	4166.15
433.72	4227.01
433.91	4070.19
434.10	4023.38
434.28	4025.72
434.47	4086.58
434.66	3967.21
434.85	4086.58
435.03	4100.62
435.22	4231.69
435.41	4231.69
435.59	4112.32
435.78	4306.59
435.97	4229.35
436.16	4299.56
436.34	4241.05
436.53	4369.78
436.72	4376.80
436.90	4259.78
437.09	4416.59
437.28	4322.97
437.46	4379.14
437.65	4266.80
437.84	4585.11
438.02	4447.02
438.21	4550.00
438.40	4315.95
438.58	4554.68
438.77	4500.85
438.96	4622.56
439.14	4748.95
439.33	4571.07
439.52	4739.58
439.70	4858.95
439.89	4896.40
440.08	4753.63
440.26	4891.72
440.45	4980.66
440.63	4966.62
440.82	4997.04
441.01	4844.91
441.19	4990.02
441.38	5102.37
441.57	5022.79
441.75	5172.58
441.94	5184.29
442.12	5310.68
442.31	5198.33
442.50	5270.89
442.68	5324.72
442.87	5305.99
443.05	5238.12
443.24	5341.10
443.43	5303.65
443.61	5301.31
443.80	5537.71
443.98	5287.27
444.17	5153.86
444.35	5434.72
444.54	5568.13
444.73	5254.50
444.91	5348.12
445.10	5617.29
445.28	5483.88
445.47	5350.46
445.65	5575.16
445.84	5516.64
446.02	5495.58
446.21	5455.79
446.39	5621.97
446.58	5514.30
446.77	5397.28
446.95	5425.36
447.14	5565.79
447.32	5600.90
447.51	5530.69
447.69	5596.22
447.88	5654.73
448.06	5657.07
448.25	5530.69
448.43	5544.73
448.62	5696.86
448.80	5511.96
448.99	5720.27
449.17	5706.23
449.36	5710.91
449.54	5797.51
449.73	5659.42
449.91	5907.51
450.10	5823.25
450.28	6043.26
450.46	5994.11
450.65	5853.68
450.83	5987.09
451.02	5954.32
451.20	5959.00
451.39	5998.79
451.57	6179.01
451.76	5837.30
451.94	5755.38
452.13	6019.86
452.31	6022.20
452.49	5970.71
452.68	6186.04
452.86	6141.57
453.05	6160.29
453.23	6267.95
453.42	6169.65
453.60	6019.86
453.78	6190.72
453.97	6200.08
454.15	6134.54
454.34	6167.31
454.52	6193.06
454.70	6279.66
454.89	6422.43
455.07	6380.30
455.26	6384.98
455.44	6600.31
455.62	6324.13
455.81	6441.15
455.99	6633.08
456.17	6642.44
456.36	6516.05
456.54	6640.10
456.73	6647.12
456.91	6808.62
457.09	6771.17
457.28	6857.77
457.46	6738.40
457.64	6878.83
457.83	6780.53
458.01	6567.54
458.19	7091.82
458.38	6904.58
458.56	6832.02
458.74	6904.58
458.93	6827.34
459.11	6796.92
459.29	7103.53
459.48	6874.15
459.66	7150.34
459.84	7185.44
460.03	7194.81
460.21	7052.03
460.39	7274.38
460.57	7194.81
460.76	7054.37
460.94	7157.36
461.12	7372.69
461.31	7250.98
461.49	7194.81
461.67	7379.71
461.85	7332.90
462.04	7398.43
462.22	7908.67
462.40	7627.81
462.59	7499.08
462.77	7468.65
462.95	7641.85
463.13	7480.35
463.32	7421.84
463.50	7524.82
463.68	7393.75
463.86	7747.17
464.05	7595.04
464.23	7672.28
464.41	7651.21
464.59	7468.65
464.78	7892.29
464.96	7770.58
465.14	7623.12
465.32	7772.92
465.50	7948.46
465.69	7824.41
465.87	7899.31
466.05	7889.95
466.23	7915.69
466.41	7824.41
466.60	8081.87
466.78	7815.05
466.96	7901.65
467.14	7896.97
467.32	7976.55
467.51	8142.72
467.69	7726.11
467.87	8056.12
468.05	8140.38
468.23	8145.06
468.41	7953.14
468.60	8170.81
468.78	8229.32
468.96	8074.85
469.14	8367.42
469.32	8269.11
469.50	8044.42
469.69	8351.03
469.87	8402.52
470.05	8381.46
470.23	8479.76
470.41	8383.80
470.59	8575.72
470.77	8339.33
470.95	8538.27
471.14	8805.10
471.32	8503.17
471.50	8833.18
471.68	8840.20
471.86	8641.26
472.04	8861.27
472.22	8990.00
472.40	8896.38
472.58	8870.63
472.77	8924.46
472.95	8975.95
473.13	9242.78
473.31	8898.72
473.49	9022.77
473.67	8910.42
473.85	9205.33
474.03	9331.72
474.21	9488.53
474.39	9385.55
474.57	9558.75
474.75	9533.00
474.93	9715.56
475.12	9694.50
475.30	9507.26
475.48	9481.51
475.66	9696.84
475.84	9907.49
476.02	9884.08
476.20	9703.86
476.38	10059.62
476.56	10235.16
476.74	10228.14
476.92	10216.44
477.10	10066.64
477.28	10321.76
477.46	10389.64
477.64	10410.70
477.82	10654.12
478.00	10780.51
478.18	10792.21
478.36	10871.79
478.54	10888.17
478.72	10998.18
478.90	11206.48
479.08	11108.18
479.26	11307.13
479.44	11164.36
479.62	11346.92
479.80	11325.85
479.98	11456.92
480.16	11817.36
480.34	11485.01
480.52	11805.66
480.70	11765.87
480.88	11604.38
481.06	11918.01
481.24	11971.84
481.41	11957.80
481.59	12182.49
481.77	12308.88
481.95	12259.73
482.13	12545.27
482.31	12351.01
482.49	12830.82
482.67	12725.49
482.85	12973.59
483.03	13071.89
483.21	13247.43
483.39	13275.52
483.57	13549.36
483.74	13439.36
483.92	13621.92
484.10	13415.95
484.28	13879.38
484.46	13991.72
484.64	14239.82
484.82	14029.17
485.00	14218.75
485.18	14616.65
485.35	14553.45
485.53	14202.37
485.71	14391.95
485.89	14939.64
486.07	14696.22
486.25	14815.59
486.43	14846.02
486.61	15243.91
486.78	15119.86
486.96	15161.99
487.14	15272.00
487.32	15681.59
487.50	15843.09
487.68	15822.02
487.85	16269.06
488.03	16297.15
488.21	16196.51
488.39	16615.46
488.57	16704.40
488.75	16388.43
488.92	16807.39
489.10	16889.31
489.28	17200.60
489.46	17235.70
489.64	16975.91
489.81	17455.72
489.99	17483.80
490.17	17682.75
490.35	17907.44
490.53	17748.28
490.70	17982.34
490.88	18162.56
491.06	18136.81
491.24	18246.82
491.41	18443.42
491.59	18317.03
491.77	18457.46
491.95	18586.19
492.13	18899.83
492.30	19122.18
492.48	19023.87
492.66	19187.71
492.84	19176.01
493.01	19056.64
493.19	19599.65
493.37	19529.43
493.54	19522.41
493.72	20030.30
493.90	19468.58
494.08	19765.82
494.25	20395.43
494.43	20189.46
494.61	20549.90
494.79	20580.33
494.96	20556.93
495.14	20847.15
495.32	21205.25
495.49	20482.03
495.67	20884.60
495.85	21195.89
496.02	21369.09
496.20	21413.56
496.38	21436.97
496.55	21387.82
496.73	22291.26
496.91	21876.99
497.09	22078.27
497.26	21738.90
497.44	22099.34
497.62	22085.30
497.79	22401.27
497.97	22405.95
498.14	22829.59
498.32	22757.03
498.50	22923.21
498.67	23110.45
498.85	23222.80
499.03	23101.09
499.20	23438.12
499.38	23393.65
499.56	23349.18
499.73	23531.75
499.91	23800.91
500.08	23850.06
500.26	23342.16
500.44	23943.68
500.61	23910.91
500.79	23976.45
500.97	24133.26
501.14	24793.29
501.32	24423.49
501.49	24240.93
501.67	24545.20
501.84	24727.76
502.02	24638.82
502.20	24634.14
502.37	24865.85
502.55	24762.87
502.72	25092.88
502.90	24964.15
503.07	24912.66
503.25	24896.28
503.43	24774.57
503.60	25514.18
503.78	25530.56
503.95	25350.34
504.13	25706.10
504.30	25764.62
504.48	25394.81
504.65	25907.39
504.83	25898.03
505.01	26324.01
505.18	26206.98
505.36	26408.26
505.53	26059.52
505.71	26412.95
505.88	26553.38
506.06	26487.84
506.23	26696.15
506.41	26583.80
506.58	26707.85
506.76	26906.80
506.93	27101.06
507.11	26621.25
507.28	26958.29
507.46	27370.22
507.63	27388.95
507.81	27623.00
507.98	27260.22
508.16	27536.40
508.33	27557.47
508.50	27725.99
508.68	27524.70
508.85	27819.61
509.03	28114.52
509.20	27962.38
509.38	28074.73
509.55	27995.15
509.73	27936.63
509.90	28048.98
510.08	28093.45
510.25	28140.26
510.42	28381.34
510.60	28444.53
510.77	28699.65
510.95	29081.16
511.12	28952.43
511.30	28863.49
511.47	28900.94
511.64	29216.91
511.82	29216.91
511.99	29214.57
512.17	29167.76
512.34	29434.58
512.51	29706.08
512.69	29481.39
512.86	29677.99
513.04	29677.99
513.21	29996.31
513.38	30000.99
513.56	30092.27
513.73	29998.65
513.90	30078.22
514.08	30031.41
514.25	30513.56
514.43	30455.05
514.60	30384.83
514.77	30270.15
514.95	30691.44
515.12	30644.63
515.29	30834.22
515.47	30408.24
515.64	30768.68
515.81	30883.37
515.99	30895.07
516.16	31215.72
516.33	31552.76
516.51	31168.91
516.68	31232.11
516.85	31512.97
517.03	31304.67
517.20	31903.84
517.37	31566.81
517.54	31548.08
517.72	31536.38
517.89	31857.03
518.06	31740.00
518.24	31496.59
518.41	31826.60
518.58	32189.39
518.75	31740.00
518.93	32102.79
519.10	32259.60
519.27	32198.75
519.45	32411.74
519.62	32723.03
519.79	32708.99
519.96	32397.70
520.14	32671.54
520.31	32713.67
520.48	32687.92
520.65	32575.58
520.83	32943.04
521.00	33137.30
521.17	32943.04
521.34	33081.13
521.52	33600.73
521.69	33507.11
521.86	33340.93
522.03	33830.10
522.20	33699.03
522.38	33771.59
522.55	33776.27
522.72	33858.19
522.89	33858.19
523.07	34183.52
523.24	33750.52
523.41	34101.61
523.58	33944.79
523.75	34534.60
523.92	34092.24
524.10	34309.91
524.27	34686.74
524.44	35049.52
524.61	34740.57
524.78	34698.44
524.96	34925.47
525.13	34726.53
525.30	34492.47
525.47	34756.96
525.64	34845.90
525.81	35131.44
525.98	35309.32
526.16	35035.48
526.33	35070.59
526.50	35529.33
526.67	34979.31
526.84	35115.06
527.01	35515.29
527.18	35218.04
527.36	35796.15
527.53	35346.77
527.70	35983.40
527.87	35791.47
528.04	35789.13
528.21	35632.32
528.38	35711.89
528.55	36088.72
528.72	35857.01
528.89	35866.37
529.07	35859.35
529.24	35793.81
529.41	35978.72
529.58	36287.67
529.75	36062.97
529.92	36205.75
530.09	36360.22
530.26	36458.52
530.43	36142.55
530.60	36041.91
530.77	36510.02
530.94	36030.21
531.11	36299.37
531.28	36390.65
531.46	36683.22
531.63	36687.90
531.80	36685.56
531.97	36872.80
532.14	36919.61
532.31	36795.56
532.48	37083.45
532.65	37434.53
532.82	37139.62
532.99	37368.99
533.16	37415.80
533.33	37301.12
533.50	37689.65
533.67	37537.51
533.84	37247.29
534.01	37436.87
534.18	37687.31
534.35	37584.32
534.52	38080.52
534.69	37944.76
534.86	38167.12
535.03	37991.58
535.20	37614.75
535.37	38014.98
535.54	37942.42
535.71	37792.63
535.88	38192.86
536.05	38424.57
536.22	38169.46
536.38	38494.79
536.55	38195.20
536.72	38012.64
536.89	37947.11
537.06	37996.26
537.23	38417.55
537.40	38019.66
537.57	38096.90
537.74	38455.00
537.91	38965.24
538.08	38778.00
538.25	38405.85
538.42	38766.29
538.59	39016.73
538.75	38820.13
538.92	39260.15
539.09	38852.89
539.26	38925.45
539.43	38953.54
539.60	38983.96
539.77	39206.31
539.94	39416.96
540.11	38972.26
540.28	39250.78
540.44	39541.01
540.61	39337.38
540.78	39391.22
540.95	39519.95
541.12	39133.76
541.29	39342.06
541.46	39154.82
541.62	39089.29
541.79	39754.00
541.96	39489.52
542.13	39379.51
542.30	39562.08
542.47	39917.84
542.63	40114.44
542.80	40287.64
542.97	40680.85
543.14	40561.48
543.31	40582.55
543.48	40467.86
543.64	40573.19
543.81	40524.04
543.98	40582.55
544.15	40273.60
544.32	40444.46
544.48	40957.03
544.65	40921.93
544.82	40690.21
544.99	40659.79
545.16	40952.35
545.32	40858.73
545.49	41256.62
545.66	41148.96
545.83	41151.30
546.00	41038.95
546.16	40917.25
546.33	41074.06
546.50	40748.73
546.67	41017.89
546.83	40622.34
547.00	41256.62
547.17	40999.16
547.34	41539.83
547.50	41698.98
547.67	41710.69
547.84	41221.52
548.00	41818.35
548.17	41860.48
548.34	41846.44
548.51	41762.18
548.67	41682.60
548.84	41741.11
549.01	41867.50
549.18	41907.29
549.34	41752.82
549.51	41830.05
549.68	41989.21
549.84	41680.26
550.01	41916.65
550.18	42230.29
550.34	42426.89
550.51	42263.05
550.68	42674.99
550.84	41921.34
551.01	42153.05
551.18	42129.64
551.34	42249.01
551.51	42319.23
551.68	41874.52
551.84	42366.04
552.01	42464.34
552.18	42581.37
552.34	42272.42
552.51	42576.69
552.68	42452.64
552.84	42504.13
553.01	42103.90
553.18	42553.28
553.34	42831.80
553.51	42649.24
553.67	42885.64
553.84	42988.62
554.01	43005.00
554.17	42806.06
554.34	43030.75
554.51	42974.58
554.67	43283.53
554.84	43110.33
555.00	43061.18
555.17	42803.72
555.33	43203.95
555.50	43243.74
555.67	43217.99
555.83	42946.49
556.00	43325.66
556.16	43854.62
556.33	43501.20
556.50	42962.87
556.66	43316.29
556.83	42822.44
556.99	43456.73
557.16	44013.77
557.32	43529.28
557.49	43866.32
557.65	43189.91
557.82	43524.60
557.98	43761.00
558.15	43538.65
558.32	43445.02
558.48	43536.30
558.65	43564.39
558.81	43779.72
558.98	43627.59
559.14	43559.71
559.31	43552.69
559.47	43742.27
559.64	43770.36
559.80	43416.94
559.97	43573.75
560.13	43746.95
560.30	44098.03
560.46	44240.81
560.63	44002.07
560.79	44514.65
560.96	44334.43
561.12	44425.71
561.29	44135.48
561.45	44304.00
561.61	44179.95
561.78	44556.78
561.94	44067.61
562.11	44252.51
562.27	44086.33
562.44	43882.70
562.60	44268.89
562.77	44694.87
562.93	44449.11
563.10	44399.96
563.26	44186.97
563.42	44381.24
563.59	44273.57
563.75	44680.83
563.92	44140.16
564.08	44301.66
564.24	44474.86
564.41	44411.67
564.57	44224.42
564.74	44729.98
564.90	44734.66
565.07	44802.53
565.23	44470.18
565.39	44233.78
565.56	44746.36
565.72	44449.11
565.88	44580.18
566.05	45132.55
566.21	44734.66
566.38	44673.81
566.54	44715.93
566.70	44636.36
566.87	44968.71
567.03	44591.89
567.19	44905.52
567.36	44928.92
567.52	45404.05
567.68	45172.34
567.85	44687.85
568.01	45275.32
568.17	45207.45
568.34	44957.01
568.50	44849.35
568.66	44809.56
568.83	44978.07
568.99	44664.44
569.15	45329.16
569.32	44758.06
569.48	44905.52
569.64	45331.50
569.81	45125.53
569.97	44783.81
570.13	45205.11
570.30	44786.15
570.46	45205.11
570.62	45177.02
570.78	45001.48
570.95	45120.85
571.11	45162.98
571.27	45336.18
571.43	45256.60
571.60	44631.68
571.76	44982.76
571.92	45212.13
572.09	44968.71
572.25	44964.03
572.41	44896.16
572.57	45446.18
572.74	45752.79
572.90	45120.85
573.06	45429.80
573.22	45125.53
573.38	45471.93
573.55	45364.26
573.71	45750.45
573.87	45258.94
574.03	45067.02
574.20	45556.19
574.36	45230.85
574.52	45268.30
574.68	45600.66
574.84	45603.00
575.01	45591.30
575.17	45598.32
575.33	45766.84
575.49	45340.86
575.65	45490.65
575.82	45406.39
575.98	45263.62
576.14	45413.41
576.30	45935.35
576.46	45530.44
576.62	45483.63
576.79	45542.14
576.95	45109.14
577.11	45165.32
577.27	45448.52
577.43	45380.65
577.59	45567.89
577.75	45268.30
577.92	45455.54
578.08	45406.39
578.24	45530.44
578.40	45928.33
578.56	45975.14
578.72	45844.07
578.88	45923.65
579.04	45481.29
579.21	45610.02
579.37	45689.60
579.53	45879.18
579.69	45357.24
579.85	45387.67
580.01	45603.00
580.17	45865.14
580.33	45846.41
580.49	46014.93
580.65	45703.64
580.82	45364.26
580.98	45504.70
581.14	45432.14
581.30	45682.58
581.46	45212.13
581.62	45631.08
581.78	45483.63
581.94	46005.57
582.10	45886.20
582.26	45942.38
582.42	45801.94
582.58	45900.25
582.74	45792.58
582.90	45970.46
583.06	45556.19
583.22	45661.51
583.38	46190.47
583.54	45343.20
583.70	45883.86
583.86	46073.45
584.02	45741.09
584.18	46199.83
584.34	46141.32
584.50	46026.63
584.66	46110.89
584.82	46007.91
584.98	46120.26
585.14	46204.52
585.30	45514.06
585.46	45984.51
585.62	45839.39
585.78	45617.04
585.94	45701.30
586.10	45883.86
586.26	45713.00
586.42	45834.71
586.58	45492.99
586.74	45893.22
586.90	45663.85
587.06	45909.61
587.22	45560.87
587.38	45949.40
587.54	46174.09
587.70	46384.74
587.86	46129.62
588.02	45748.11
588.18	45804.28
588.34	45633.42
588.49	46146.00
588.65	45755.13
588.81	46174.09
588.97	45769.18
589.13	46014.93
589.29	45638.11
589.45	46150.68
589.61	46043.02
589.77	46279.41
589.93	45888.54
590.08	46410.48
590.24	46274.73
590.40	46532.19
590.56	46279.41
590.72	46391.76
590.88	46176.43
591.04	46141.32
591.20	46759.22
591.35	46806.03
591.51	46550.91
591.67	46445.59
591.83	46387.08
591.99	46464.32
592.15	46057.06
592.31	46012.59
592.46	46361.33
592.62	46213.88
592.78	46426.87
592.94	46866.89
593.10	46969.87
593.26	46923.06
593.41	46649.22
593.57	46574.32
593.73	46312.18
593.89	46820.08
594.05	46450.27
594.20	46775.61
594.36	46579.00
594.52	46546.23
594.68	46405.80
594.84	46562.62
594.99	47143.07
595.15	46239.62
595.31	46450.27
595.47	46855.18
595.62	46527.51
595.78	46202.18
595.94	46976.89
596.10	46206.86
596.25	46836.46
596.41	46670.28
596.57	46424.53
596.73	46866.89
596.88	46660.92
597.04	46302.82
597.20	46710.07
597.36	46576.66
597.51	46855.18
597.67	46445.59
597.83	46766.24
597.99	46913.70
598.14	46389.42
598.30	46579.00
598.46	46719.43
598.61	46667.94
598.77	46681.98
598.93	46726.46
599.09	46447.93
599.24	47019.02
599.40	46501.76
599.56	46838.80
599.71	46831.78
599.87	47360.74
600.03	46714.75
600.18	46969.87
600.34	46710.07
600.50	46965.19
600.65	46555.60
600.81	47253.08
600.97	47004.98
601.12	46681.98
601.28	46803.69
601.44	46932.42
601.59	46712.41
601.75	46436.23
601.91	47182.86
602.06	46909.02
602.22	46990.94
602.37	46658.58
602.53	46349.63
602.69	46869.23
602.84	46890.29
603.00	46646.88
603.16	47042.43
603.31	46536.87
603.47	47213.29
603.62	46794.33
603.78	46904.34
603.94	46667.94
604.09	46646.88
604.25	46696.03
604.40	46852.84
604.56	46777.95
604.71	46876.25
604.87	46373.03
605.03	47061.15
605.18	46897.31
605.34	46869.23
605.49	46501.76
605.65	47157.11
605.80	46469.00
605.96	46501.76
606.12	46810.71
606.27	46880.93
606.43	46351.97
606.58	46817.74
606.74	46986.25
606.89	46485.38
607.05	46740.50
607.20	46160.05
607.36	46476.02
607.51	46735.82
607.67	46644.54
607.82	46061.74
607.98	46419.84
608.13	46876.25
608.29	46689.01
608.44	46780.29
608.60	46387.08
608.75	46564.96
608.91	46681.98
609.06	46024.29
609.22	46557.94
609.37	46335.59
609.53	46454.95
609.68	46501.76
609.84	46822.42
609.99	46209.20
610.15	46684.33
610.30	46597.73
610.46	46087.49
610.61	46476.02
610.76	46548.57
610.92	46546.23
611.07	46178.77
611.23	46557.94
611.38	46691.35
611.54	46117.92
611.69	46272.39
611.84	46167.07
612.00	46206.86
612.15	45963.44
612.31	46202.18
612.46	46459.63
612.62	46230.26
612.77	46279.41
612.92	46534.53
613.08	46094.51
613.23	46274.73
613.39	46106.21
613.54	45965.78
613.69	46253.67
613.85	46148.34
614.00	46061.74
614.15	46164.73
614.31	45806.62
614.46	45947.06
614.62	45977.48
614.77	45755.13
614.92	46164.73
615.08	45951.74
615.23	46036.00
615.38	46382.40
615.54	45787.90
615.69	46234.94
615.84	45897.91
616.00	46380.06
616.15	45977.48
616.30	46131.96
616.46	46106.21
616.61	46038.34
616.76	46082.81
616.92	45902.59
617.07	45806.62
617.22	45853.44
617.37	45647.47
617.53	45935.35
617.68	45879.18
617.83	45188.72
617.99	45762.15
618.14	45872.16
618.29	45364.26
618.45	45151.27
618.60	45701.30
618.75	45399.37
618.90	45694.28
619.06	45769.18
619.21	45661.51
619.36	45956.42
619.51	45677.90
619.67	45698.96
619.82	45748.11
619.97	45455.54
620.12	45109.14
620.28	45471.93
620.43	45378.31
620.58	45291.71
620.73	45565.55
620.89	45429.80
621.04	45738.75
621.19	45247.24
621.34	45347.88
621.49	45099.78
621.65	45074.04
621.80	45560.87
621.95	45390.01
622.10	45165.32
622.25	45036.59
622.41	45155.96
622.56	45502.35
622.71	45324.47
622.86	45085.74
623.01	45158.30
623.16	45284.68
623.32	45099.78
623.47	44683.17
623.62	44966.37
623.77	44903.18
623.92	45102.12
624.07	45230.85
624.23	45478.95
624.38	44978.07
624.53	44893.82
624.68	44715.93
624.83	44802.53
624.98	44802.53
625.13	44098.03
625.29	44561.46
625.44	44713.59
625.59	44556.78
625.74	44315.70
625.89	44470.18
626.04	44416.35
626.19	44608.27
626.34	44561.46
626.49	44189.31
626.65	44020.80
626.80	44212.72
626.95	44320.38
627.10	44205.70
627.25	44470.18
627.40	44545.08
627.55	44484.22
627.70	44233.78
627.85	44657.42
628.00	44648.06
628.15	44643.38
628.30	44156.55
628.45	44121.44
628.60	43732.91
628.76	43950.58
628.91	44062.93
629.06	43482.47
629.21	43562.05
629.36	43571.41
629.51	43615.88
629.66	44285.28
629.81	43990.37
629.96	44353.15
630.11	43814.83
630.26	44018.46
630.41	44062.93
630.56	44065.27
630.71	43821.85
630.86	43641.63
631.01	43388.85
631.16	43213.31
631.31	43604.18
631.46	43800.79
631.61	43988.03
631.76	43583.12
631.91	43672.06
632.06	44123.78
632.21	43772.70
632.36	43849.94
632.51	43370.13
632.66	43229.69
632.81	43339.70
632.96	43690.78
633.10	43292.89
633.25	43428.64
633.40	43498.86
633.55	43510.56
633.70	43274.16
633.85	43248.42
634.00	43473.11
634.15	43248.42
634.30	43278.85
634.45	42979.26
634.60	43306.93
634.75	43250.76
634.90	43143.09
635.05	43276.51
635.19	43065.86
635.34	43100.97
635.49	43084.58
635.64	42824.78
635.79	43423.96
635.94	43409.92
636.09	43311.61
636.24	43047.13
636.39	43295.23
636.53	42918.40
636.68	42937.13
636.83	42775.63
636.98	42766.27
637.13	42611.79
637.28	42836.48
637.43	42586.05
637.57	42997.98
637.72	42462.00
637.87	42597.75
638.02	42579.03
638.17	42557.96
638.32	42469.02
638.46	42564.98
638.61	41921.34
638.76	42660.94
638.91	42490.09
639.06	42316.89
639.20	42398.80
639.35	42267.73
639.50	42326.25
639.65	42700.73
639.80	42916.06
639.94	42277.10
640.09	42054.75
640.24	42375.40
640.39	42178.79
640.54	41797.29
640.68	42040.70
640.83	42689.03
640.98	42124.96
641.13	42192.84
641.27	42522.85
641.42	42029.00
641.57	42078.15
641.72	42134.32
641.86	41951.76
642.01	41715.37
642.16	41897.93
642.31	41525.78
642.45	42103.90
642.60	41916.65
642.75	42040.70
642.90	41862.82
643.04	41722.39
643.19	41563.23
643.34	41420.46
643.48	41464.93
643.63	41965.81
643.78	41638.13
643.93	41996.23
644.07	41947.08
644.22	41542.17
644.37	41677.92
644.51	41490.68
644.66	41846.44
644.81	41467.27
644.95	41926.02
645.10	41605.36
645.25	40861.07
645.39	41504.72
645.54	41134.92
645.69	40891.50
645.83	41436.84
645.98	41055.34
646.13	41179.39
646.27	41081.08
646.42	41120.87
646.57	41198.11
646.71	41399.40
646.86	41659.20
647.00	41523.44
647.15	41078.74
647.30	41125.55
647.44	41177.04
647.59	41099.81
647.74	40994.48
647.88	41427.48
648.03	41460.25
648.17	40814.26
648.32	40964.06
648.47	41280.03
648.61	40767.45
648.76	41013.21
648.90	40542.76
649.05	40760.43
649.20	40765.11
649.34	40823.62
649.49	40999.16
649.63	40905.54
649.78	40950.01
649.92	40957.03
650.07	40954.69
650.21	40935.97
650.36	41188.75
650.51	40694.89
650.65	40804.90
650.80	41097.47
650.94	41053.00
651.09	40809.58
651.23	40341.47
651.38	40116.78
651.52	39749.32
651.67	40261.90
651.81	40432.75
651.96	40271.26
652.10	40055.93
652.25	40392.97
652.39	40208.06
652.54	40177.64
652.68	40390.62
652.83	40580.21
652.97	40432.75
653.12	40191.68
653.26	40074.65
653.41	40699.58
653.55	40357.86
653.70	40203.38
653.84	40421.05
653.99	40074.65
654.13	39871.03
654.27	40034.86
654.42	40278.28
654.56	39948.26
654.71	40371.90
654.85	39969.33
655.00	39969.33
655.14	40041.88
655.29	40612.98
655.43	40266.58
655.57	39636.97
655.72	39468.45
655.86	39758.68
656.01	39526.97
656.15	39283.55
656.30	39564.42
656.44	39856.98
656.58	39716.55
656.73	39620.59
656.87	39232.06
657.01	39449.73
657.16	39625.27
657.30	39215.68
657.45	39803.15
657.59	39129.08
657.73	39063.54
657.88	39393.56
658.02	39351.43
658.16	39814.85
658.31	39150.14
658.45	39047.16
658.60	39253.12
658.74	39494.20
658.88	39550.37
659.03	39147.80
659.17	38745.23
659.31	38759.27
659.46	38670.33
659.60	38976.94
659.74	38700.76
659.89	38412.87
660.03	38352.02
660.17	38843.53
660.32	38686.71
660.46	38543.94
660.60	38178.82
660.74	38499.47
660.89	38548.62
661.03	38433.94
661.17	37961.15
661.32	38096.90
661.46	38192.86
661.60	38326.27
661.74	38080.52
661.89	38256.06
662.03	38302.87
662.17	37703.69
662.31	37591.34
662.46	37874.55
662.60	38242.01
662.74	37596.03
662.88	37801.99
663.03	37617.09
663.17	37448.57
663.31	37273.03
663.45	37904.98
663.60	37368.99
663.74	37759.86
663.88	37518.79
664.02	37167.71
664.17	37759.86
664.31	37364.31
664.45	36994.51
664.59	37223.88
664.73	37326.86
664.88	37123.24
665.02	36882.16
665.16	36858.76
665.30	36947.70
665.44	36837.69
665.59	36603.64
665.73	36753.43
665.87	36266.60
666.01	36737.05
666.15	36931.31
666.29	36521.72
666.44	36673.85
666.58	36697.26
666.72	36711.30
666.86	36774.50
667.00	36112.13
667.14	36278.30
667.28	36109.78
667.43	35882.75
667.57	36077.02
667.71	36304.05
667.85	36414.05
667.99	36533.42
668.13	36212.77
668.27	35826.58
668.41	35543.38
668.56	35353.79
668.70	35276.55
668.84	35016.75
668.98	35192.30
669.12	35711.89
669.26	35290.60
669.40	35264.85
669.54	35431.03
669.68	35576.14
669.82	34939.52
669.96	34712.49
670.10	34803.77
670.25	34763.98
670.39	34991.01
670.53	34691.42
670.67	35019.10
670.81	34759.30
670.95	34508.86
671.09	34579.07
671.23	34515.88
671.37	34642.27
671.51	34455.03
671.65	33804.36
671.79	34120.33
671.93	34394.17
672.07	34330.98
672.21	33862.87
672.35	33570.30
672.49	33706.05
672.63	34155.44
672.77	33806.70
672.91	33872.23
673.05	33818.40
673.19	33640.52
673.33	33883.94
673.47	33535.20
673.61	33336.25
673.75	32863.46
673.89	32947.72
674.03	32624.73
674.17	32856.44
674.31	32966.45
674.45	32905.59
674.59	33186.46
674.73	32680.90
674.87	32339.18
675.01	32173.00
675.15	32280.67
675.29	31903.84
675.43	32362.59
675.56	32383.65
675.70	32226.84
675.84	32226.84
675.98	31019.12
676.12	31978.74
676.26	31831.29
676.40	31435.74
676.54	31594.89
676.68	31571.49
676.82	30822.51
676.96	31618.30
677.10	31594.89
677.23	31201.68
677.37	31419.35
677.51	31337.43
677.65	31316.37
677.79	30740.60
677.93	30536.97
678.07	30635.27
678.21	30759.32
678.34	30497.18
678.48	29944.81
678.62	30529.95
678.76	30052.48
678.90	30167.16
679.04	29827.79
679.18	30003.33
679.31	29841.83
679.45	29488.41
679.59	29495.43
679.73	29537.56
679.87	29472.03
680.00	29261.38
680.14	29024.98
680.28	29277.76
680.42	29057.75
680.56	28884.55
680.70	29120.95
680.83	28718.37
680.97	28769.86
681.11	28575.60
681.25	28067.70
681.39	28414.10
681.52	28217.50
681.66	28044.30
681.80	27896.85
681.94	27520.02
682.07	27922.59
682.21	27599.60
682.35	27821.95
682.49	27592.58
682.62	27194.68
682.76	27377.25
682.90	27571.51
683.04	27077.66
683.17	27447.46
683.31	26583.80
683.45	26841.26
683.59	26705.51
683.72	26417.63
683.86	26382.52
684.00	26576.78
684.13	26244.43
684.27	26354.43
684.41	26225.70
684.55	26113.36
684.68	26298.26
684.82	26066.55
684.96	25675.68
685.09	26017.40
685.23	26022.08
685.37	26036.12
685.50	26148.46
685.64	25942.50
685.78	25495.46
685.91	24926.71
686.05	25067.14
686.19	24790.95
686.32	24875.21
686.46	24746.48
686.60	24224.54
686.73	24898.62
686.87	24889.26
687.01	24559.24
687.14	24261.99
687.28	24329.87
687.42	24451.58
687.55	24238.59
687.69	24496.05
687.82	23800.91
687.96	24077.09
688.10	24156.67
688.23	24065.39
688.37	24044.32
688.50	23978.79
688.64	23845.38
688.78	23445.15
688.91	23513.02
689.05	23454.51
689.18	23143.22
689.32	22740.64
689.46	22808.52
689.59	22913.84
689.73	23325.78
689.86	23241.52
690.00	23164.28
690.13	22967.68
690.27	22541.70
690.41	22410.63
690.54	22419.99
690.68	22204.66
690.81	22057.21
690.95	21687.40
691.08	21797.41
691.22	21855.92
691.35	21535.27
691.49	21855.92
691.62	21818.47
691.76	21708.47
691.89	21090.57
692.03	21242.70
692.16	21181.85
692.30	21067.16
692.43	20851.83
692.57	20634.16
692.70	21043.76
692.84	20781.62
692.97	20285.42
693.11	20526.50
693.24	20482.03
693.38	20180.10
693.51	20236.27
693.65	20081.80
693.78	20233.93
693.92	19899.23
694.05	19847.74
694.19	19704.97
694.32	19623.05
694.45	19548.15
694.59	19936.68
694.72	19910.94
694.86	19527.09
694.99	19433.47
695.13	19335.17
695.26	19112.81
695.39	18675.13
695.53	19077.71
695.66	19028.56
695.80	18909.19
695.93	19126.86
696.07	18558.11
696.20	18064.25
696.33	18380.23
696.47	18352.14
696.60	18307.67
696.73	18192.98
696.87	18317.03
697.00	18398.95
697.14	18171.92
697.27	17947.23
697.40	17837.22
697.54	17776.37
697.67	17664.02
697.80	17968.29
697.94	17561.04
698.07	17619.55
698.21	17577.42
698.34	17319.96
698.47	16896.33
698.61	17170.17
698.74	17135.06
698.87	16992.29
699.01	17018.04
699.14	16847.18
699.27	16788.66
699.40	16891.65
699.54	16648.23
699.67	16273.74
699.80	16327.58
699.94	16346.30
700.07	16563.97
700.20	16105.23
700.34	16250.34
700.47	16126.29
700.60	16365.03
700.73	16159.06
700.87	15873.51
701.00	15768.19
701.13	15470.94
701.26	15513.07
701.40	15335.19
701.53	15353.91
701.66	15557.54
701.79	15206.46
701.93	15232.21
702.06	15087.09
702.19	15082.41
702.32	14946.66
702.46	14918.57
702.59	15169.01
702.72	15171.35
702.85	14857.72
702.99	14710.27
703.12	14949.00
703.25	14782.82
703.38	14328.76
703.51	14363.87
703.65	14478.55
703.78	14387.27
703.91	14195.35
704.04	14073.64
704.17	13933.21
704.31	14132.15
704.44	13502.55
704.57	13771.71
704.70	13554.04
704.83	13764.69
704.96	13444.04
705.10	13474.46
705.23	13392.55
>>>>>End Processed Spectral Data<<<<<
