SpectraSuite Data File
++++++++++++++++++++++++++++++++++++
Date: Fri Oct 25 10:44:18 EDT 2013
User: price-jones
Dark Spectrum Present: No
Reference Spectrum Present: No
Number of Sampled Component Spectra: 1
Spectrometers: USB2+H05261
Integration Time (usec): 100000 (USB2+H05261)
Spectra Averaged: 1 (USB2+H05261)
Boxcar Smoothing: 0 (USB2+H05261)
Correct for Electrical Dark: No (USB2+H05261)
Strobe/Lamp Enabled: No (USB2+H05261)
Correct for Detector Non-linearity: No (USB2+H05261)
Correct for Stray Light: No (USB2+H05261)
Number of Pixels in Processed Spectrum: 2048
>>>>>Begin Processed Spectral Data<<<<<
365.73	102.98
365.92	102.98
366.12	102.98
366.32	72.56
366.52	49.15
366.72	60.85
366.91	16.38
367.11	23.41
367.31	9.36
367.51	9.36
367.70	98.30
367.90	28.09
368.10	51.49
368.30	28.09
368.49	56.17
368.69	39.79
368.89	35.11
369.09	21.06
369.28	42.13
369.48	39.79
369.68	102.98
369.87	84.26
370.07	142.77
370.27	147.45
370.47	215.33
370.66	430.66
370.86	437.68
371.06	442.36
371.25	493.85
371.45	416.62
371.65	533.64
371.84	510.24
372.04	414.27
372.24	535.98
372.44	454.06
372.63	442.36
372.83	550.03
373.03	498.53
373.22	463.43
373.42	543.00
373.62	540.66
373.81	573.43
374.01	550.03
374.21	496.19
374.40	568.75
374.60	554.71
374.79	655.35
374.99	596.84
375.19	552.37
375.38	599.18
375.58	622.58
375.78	582.79
375.97	557.05
376.17	627.26
376.37	550.03
376.56	585.13
376.76	653.01
376.95	580.45
377.15	664.71
377.35	566.41
377.54	610.88
377.74	650.67
377.93	627.26
378.13	648.33
378.33	746.63
378.52	638.97
378.72	648.33
378.91	699.82
379.11	716.20
379.31	674.07
379.50	678.76
379.70	711.52
379.89	716.20
380.09	770.04
380.28	697.48
380.48	648.33
380.68	704.50
380.87	671.73
381.07	702.16
381.26	732.59
381.46	767.70
381.65	751.31
381.85	760.67
382.04	674.07
382.24	713.86
382.43	702.16
382.63	734.93
382.83	746.63
383.02	662.37
383.22	732.59
383.41	734.93
383.61	816.85
383.80	791.10
384.00	784.08
384.19	781.74
384.39	844.93
384.58	800.46
384.78	793.44
384.97	840.25
385.17	765.36
385.36	870.68
385.56	819.19
385.75	791.10
385.95	770.04
386.14	866.00
386.34	863.66
386.53	837.91
386.72	856.64
386.92	905.79
387.11	931.53
387.31	875.36
387.50	861.32
387.70	889.40
387.89	919.83
388.09	812.17
388.28	842.59
388.48	954.94
388.67	980.68
388.86	994.73
389.06	961.96
389.25	1018.13
389.45	959.62
389.64	952.60
389.84	1137.50
390.03	1069.62
390.22	952.60
390.42	1015.79
390.61	1104.73
390.81	1032.18
391.00	1041.54
391.19	1095.37
391.39	1071.97
391.58	1067.28
391.78	1156.22
391.97	1039.20
392.16	1004.09
392.36	1022.81
392.55	1064.94
392.75	950.26
392.94	1006.43
393.13	1004.09
393.33	1053.24
393.52	1046.22
393.71	1093.03
393.91	1128.14
394.10	1086.01
394.29	1219.42
394.49	1146.86
394.68	1118.78
394.88	1282.61
395.07	1284.95
395.26	1252.19
395.46	1252.19
395.65	1301.34
395.84	1277.93
396.04	1268.57
396.23	1191.33
396.42	1149.20
396.62	1130.48
396.81	1151.54
397.00	1263.89
397.19	1327.08
397.39	1350.49
397.58	1434.75
397.77	1385.60
397.97	1511.99
398.16	1394.96
398.35	1420.71
398.55	1458.15
398.74	1495.60
398.93	1549.43
399.12	1509.65
399.32	1589.22
399.51	1511.99
399.70	1624.33
399.90	1523.69
400.09	1568.16
400.28	1610.29
400.47	1699.23
400.67	1614.97
400.86	1703.91
401.05	1755.40
401.24	1769.44
401.44	1783.49
401.63	1689.87
401.82	1785.83
402.01	1748.38
402.21	1727.32
402.40	1795.19
402.59	1755.40
402.78	1743.70
402.97	1893.49
403.17	1816.26
403.36	1867.75
403.55	1764.76
403.74	1823.28
403.93	1877.11
404.13	2026.90
404.32	1797.53
404.51	1886.47
404.70	1849.02
404.89	1952.01
405.09	1977.75
405.28	2087.76
405.47	1895.83
405.66	2092.44
405.85	2012.86
406.05	2033.93
406.24	2057.33
406.43	2064.35
406.62	2108.82
406.81	2349.90
407.00	2099.46
407.20	2022.22
407.39	2232.87
407.58	2106.48
407.77	2230.53
407.96	2237.55
408.15	2319.47
408.34	2200.10
408.54	2354.58
408.73	2312.45
408.92	2312.45
409.11	2389.69
409.30	2307.77
409.49	2258.62
409.68	2251.60
409.87	2354.58
410.07	2284.36
410.26	2333.51
410.45	2375.64
410.64	2443.52
410.83	2499.69
411.02	2586.29
411.21	2630.76
411.40	2621.40
411.59	2576.93
411.78	2712.68
411.98	2745.45
412.17	2630.76
412.36	2658.85
412.55	2705.66
412.74	2874.18
412.93	2808.64
413.12	2780.56
413.31	2876.52
413.50	2827.37
413.69	2909.29
413.88	3016.95
414.07	2974.82
414.26	2979.50
414.45	2974.82
414.64	3019.29
414.83	3068.44
415.02	3187.81
415.22	3187.81
415.41	3129.30
415.60	3225.26
415.79	3131.64
415.98	3330.58
416.17	3206.53
416.36	3295.47
416.55	3274.41
416.74	3290.79
416.93	3351.65
417.12	3356.33
417.31	3316.54
417.50	3431.23
417.69	3468.67
417.88	3520.17
418.07	3536.55
418.26	3524.85
418.45	3555.27
418.64	3777.62
418.83	3684.00
419.02	3606.77
419.21	3620.81
419.39	3693.37
419.58	3602.08
419.77	3667.62
419.96	3843.16
420.15	3779.97
420.34	3749.54
420.53	3772.94
420.72	3833.80
420.91	3829.12
421.10	3950.82
421.29	3784.65
421.48	3953.16
421.67	4007.00
421.86	3941.46
422.05	3953.16
422.24	3763.58
422.43	3833.80
422.61	3918.06
422.80	3955.51
422.99	4007.00
423.18	4037.42
423.37	4133.39
423.56	4072.53
423.75	4014.02
423.94	3983.59
424.13	3679.32
424.32	3969.55
424.50	4030.40
424.69	4046.79
424.88	4117.00
425.07	3983.59
425.26	4046.79
425.45	4119.34
425.64	3999.98
425.83	3922.74
426.01	4100.62
426.20	4030.40
426.39	4119.34
426.58	4004.66
426.77	4018.70
426.96	3967.21
427.15	3974.23
427.33	4187.22
427.52	4124.02
427.71	4241.05
427.90	4114.66
428.09	4337.01
428.28	4229.35
428.46	4203.60
428.65	4269.14
428.84	4376.80
429.03	4231.69
429.22	4177.86
429.40	4182.54
429.59	4203.60
429.78	4109.98
429.97	4011.68
430.16	4098.28
430.34	4175.52
430.53	4133.39
430.72	4280.84
430.91	4243.39
431.10	4451.70
431.28	4727.88
431.47	4767.67
431.66	4664.69
431.85	4643.62
432.03	4676.39
432.22	4648.30
432.41	4594.47
432.60	4695.11
432.79	4734.90
432.97	4765.33
433.16	4795.76
433.35	4688.09
433.54	4674.05
433.72	4727.88
433.91	4774.69
434.10	4854.27
434.28	4910.44
434.47	4901.08
434.66	5165.56
434.85	5055.56
435.03	4959.60
435.22	4936.19
435.41	5114.07
435.59	5184.29
435.78	5102.37
435.97	5226.42
436.16	5212.37
436.34	5221.74
436.53	5284.93
436.72	5317.70
436.90	5064.92
437.09	5151.52
437.28	5315.36
437.46	5217.05
437.65	5308.34
437.84	5378.55
438.02	5195.99
438.21	5146.84
438.40	5116.41
438.58	5533.03
438.77	5284.93
438.96	5425.36
439.14	5764.74
439.33	5600.90
439.52	5654.73
439.70	5657.07
439.89	5668.78
440.08	5813.89
440.26	5806.87
440.45	5837.30
440.63	5973.05
440.82	6043.26
441.01	5926.24
441.19	6031.56
441.38	6150.93
441.57	6279.66
441.75	6305.40
441.94	6370.94
442.12	6410.73
442.31	6396.68
442.50	6459.88
442.68	6490.31
442.87	6232.85
443.05	6410.73
443.24	6506.69
443.43	6724.36
443.61	6588.61
443.80	6771.17
443.98	6415.41
444.17	6267.95
444.35	6633.08
444.54	6733.72
444.73	6700.95
444.91	6574.56
445.10	6654.14
445.28	6590.95
445.47	6586.27
445.65	6541.80
445.84	6431.79
446.02	6801.60
446.21	6813.30
446.39	6745.42
446.58	6649.46
446.77	6715.00
446.95	6602.65
447.14	6604.99
447.32	6871.81
447.51	6752.45
447.69	6920.96
447.88	6747.76
448.06	6881.18
448.25	6806.28
448.43	6825.00
448.62	6850.75
448.80	6832.02
448.99	6953.73
449.17	6923.30
449.36	7033.31
449.54	7152.68
449.73	7126.93
449.91	7129.27
450.10	7396.09
450.28	7426.52
450.46	7463.97
450.65	7360.98
450.83	7499.08
451.02	7307.15
451.20	7454.61
451.39	7297.79
451.57	7311.83
451.76	7258.00
451.94	7356.30
452.13	7304.81
452.31	7176.08
452.49	7138.63
452.68	7136.29
452.86	7407.80
453.05	7435.88
453.23	7433.54
453.42	7496.74
453.60	7349.28
453.78	7885.26
453.97	7499.08
454.15	7440.56
454.34	7403.11
454.52	7688.66
454.70	7644.19
454.89	7564.61
455.07	7609.08
455.26	7726.11
455.44	7885.26
455.62	7859.52
455.81	7899.31
455.99	7892.29
456.17	7854.84
456.36	7939.10
456.54	7906.33
456.73	8131.02
456.91	8196.56
457.09	8348.69
457.28	8273.79
457.46	7941.44
457.64	8400.18
457.83	8374.44
458.01	8201.24
458.19	8472.74
458.38	8353.37
458.56	8437.63
458.74	8294.86
458.93	8372.10
459.11	8496.14
459.29	8271.45
459.48	8369.76
459.66	8456.36
459.84	8620.19
460.03	8620.19
460.21	8491.46
460.39	8765.31
460.57	8739.56
460.76	8444.65
460.94	8631.90
461.12	8872.97
461.31	8833.18
461.49	8734.88
461.67	8692.75
461.85	9041.49
462.04	8854.25
462.22	9116.39
462.40	9193.62
462.59	9048.51
462.77	8854.25
462.95	9029.79
463.13	9114.05
463.32	9039.15
463.50	9221.71
463.68	9160.86
463.86	9057.87
464.05	9004.04
464.23	8875.31
464.41	9221.71
464.59	9006.38
464.78	9364.48
464.96	9376.19
465.14	9057.87
465.32	9455.76
465.50	9490.87
465.69	9654.71
465.87	9345.76
466.05	9404.27
466.23	9298.95
466.41	9399.59
466.60	9547.05
466.78	9320.01
466.96	9221.71
467.14	9444.06
467.32	9643.01
467.51	9540.02
467.69	9404.27
467.87	9516.62
468.05	9645.35
468.23	9570.45
468.41	9598.54
468.60	9556.41
468.78	9776.42
468.96	9650.03
469.14	9720.24
469.32	9916.85
469.50	9563.43
469.69	9844.29
469.87	9968.34
470.05	10017.49
470.23	9956.64
470.41	9975.36
470.59	9919.19
470.77	10068.98
470.95	9963.66
471.14	10253.89
471.32	10129.84
471.50	10345.17
471.68	10401.34
471.86	10560.50
472.04	10663.48
472.22	10874.13
472.40	10265.59
472.58	10406.02
472.77	10707.95
472.95	10649.44
473.13	10949.03
473.31	10452.83
473.49	10743.06
473.67	10834.34
473.85	10857.75
474.03	11164.36
474.21	11035.63
474.39	11248.61
474.57	11265.00
474.75	11445.22
474.93	11573.95
475.12	11304.79
475.30	11590.33
475.48	11489.69
475.66	11281.38
475.84	11461.60
476.02	11550.54
476.20	11700.34
476.38	12030.35
476.56	12072.48
476.74	11894.60
476.92	12226.96
477.10	11836.09
477.28	12334.62
477.46	12224.62
477.64	12446.97
477.82	12376.75
478.00	12814.43
478.18	12608.47
478.36	12809.75
478.54	12901.03
478.72	12828.48
478.90	13226.37
479.08	13298.92
479.26	13198.28
479.44	13263.82
479.62	13310.63
479.80	13593.83
479.98	13556.38
480.16	13776.39
480.34	13827.88
480.52	14003.43
480.70	14097.05
480.88	13811.50
481.06	14310.04
481.24	14352.16
481.41	14394.29
481.59	14677.50
481.77	14747.72
481.95	14668.14
482.13	14799.21
482.31	14736.01
482.49	15073.05
482.67	15075.39
482.85	15316.47
483.03	15545.84
483.21	15407.75
483.39	15536.48
483.57	15412.43
483.74	15770.53
483.92	15822.02
484.10	15742.44
484.28	16107.57
484.46	16121.61
484.64	16507.80
484.82	16119.27
485.00	16561.63
485.18	16753.55
485.35	16875.26
485.53	16491.41
485.71	16301.83
485.89	16582.70
486.07	16772.28
486.25	16982.93
486.43	16865.90
486.61	17282.52
486.78	17659.34
486.96	17982.34
487.14	17736.58
487.32	18026.81
487.50	18202.35
487.68	18394.27
487.85	18876.42
488.03	18977.06
488.21	18792.16
488.39	18801.52
488.57	18803.86
488.75	19094.09
488.92	19243.88
489.10	19807.95
489.28	19754.12
489.46	20063.07
489.64	20065.41
489.81	20020.94
489.99	20311.17
490.17	20889.28
490.35	20575.65
490.53	20491.39
490.70	20940.77
490.88	20884.60
491.06	21247.38
491.24	21104.61
491.41	20999.29
491.59	21036.74
491.77	21200.57
491.95	21671.02
492.13	21685.06
492.30	22199.98
492.48	21954.22
492.66	22127.42
492.84	21926.14
493.01	22396.59
493.19	22071.25
493.37	22733.62
493.54	22813.20
493.72	22621.28
493.90	22932.57
494.08	23356.21
494.25	23356.21
494.43	23328.12
494.61	23524.72
494.79	23704.95
494.96	23910.91
495.14	23899.21
495.32	24144.97
495.49	24259.65
495.67	24093.47
495.85	24503.07
496.02	24687.97
496.20	24758.19
496.38	24877.55
496.55	24980.54
496.73	25310.55
496.91	25460.35
497.09	25523.54
497.26	25366.73
497.44	25425.24
497.62	25458.01
497.79	25631.21
497.97	25490.77
498.14	25865.26
498.32	25993.99
498.50	26068.89
498.67	26867.01
498.85	25853.56
499.03	26459.76
499.20	26740.62
499.38	26684.45
499.56	26911.48
499.73	26876.37
499.91	26728.92
500.08	26782.75
500.26	26691.47
500.44	26920.84
500.61	27058.93
500.79	26958.29
500.97	27068.30
501.14	27548.11
501.32	27527.04
501.49	27421.72
501.67	27538.74
501.84	27686.20
502.02	27517.68
502.20	28355.59
502.37	28013.87
502.55	28187.07
502.72	28631.77
502.90	28526.45
503.07	28053.66
503.25	28346.23
503.43	28056.00
503.60	28505.38
503.78	28390.70
503.95	28381.34
504.13	28968.81
504.30	28978.17
504.48	29111.58
504.65	28910.30
504.83	29362.02
505.01	29675.65
505.18	29237.97
505.36	29848.85
505.53	29799.70
505.71	30129.72
505.88	30026.73
506.06	29724.80
506.23	30342.70
506.41	29769.27
506.58	30139.08
506.76	30153.12
506.93	30604.84
507.11	30061.84
507.28	30560.37
507.46	30515.90
507.63	30792.09
507.81	30471.43
507.98	30401.22
508.16	30927.84
508.33	31110.40
508.50	31398.29
508.68	31197.00
508.85	31688.51
509.03	31742.35
509.20	31644.04
509.38	31517.65
509.55	31585.53
509.73	31681.49
509.90	31821.92
510.08	31695.53
510.25	31964.70
510.42	32081.72
510.60	31967.04
510.77	32414.08
510.95	32231.52
511.12	32257.26
511.30	32685.58
511.47	32772.18
511.64	32552.17
511.82	32912.61
511.99	32308.76
512.17	32816.65
512.34	32456.21
512.51	33034.32
512.69	33186.46
512.86	32973.47
513.04	33703.71
513.21	32994.53
513.38	32882.19
513.56	33509.45
513.73	32826.01
513.90	33560.94
514.08	33057.73
514.25	34045.43
514.43	33565.62
514.60	33574.98
514.77	33626.48
514.95	33883.94
515.12	33879.25
515.29	33708.40
515.47	34677.38
515.64	34326.30
515.81	34333.32
515.99	34588.44
516.16	33996.28
516.33	33947.13
516.51	34092.24
516.68	33572.64
516.85	33476.68
517.03	33977.56
517.20	34359.06
517.37	34213.95
517.54	34841.21
517.72	34785.04
517.89	34185.86
518.06	34253.74
518.24	34368.43
518.41	34780.36
518.58	34642.27
518.75	35175.91
518.93	35548.06
519.10	35201.66
519.27	35379.54
519.45	35416.99
519.62	35606.57
519.79	35751.68
519.96	35576.14
520.14	35737.64
520.31	35498.91
520.48	35943.61
520.65	35747.00
520.83	36088.72
521.00	36568.53
521.17	36404.69
521.34	35620.61
521.52	36577.89
521.69	36793.22
521.86	37130.26
522.03	36491.29
522.20	36790.88
522.38	36643.43
522.55	36666.83
522.72	36790.88
522.89	37378.36
523.07	37097.49
523.24	36856.42
523.41	37287.07
523.58	37408.78
523.75	37612.41
523.92	37684.97
524.10	37659.22
524.27	37766.88
524.44	37780.93
524.61	37371.33
524.78	37837.10
524.96	37982.21
525.13	38096.90
525.30	38422.23
525.47	38391.81
525.64	38096.90
525.81	38146.05
525.98	38073.49
526.16	37610.07
526.33	37666.24
526.50	38227.97
526.67	37537.51
526.84	38082.86
527.01	37689.65
527.18	38033.71
527.36	38579.05
527.53	39140.78
527.70	38976.94
527.87	38609.48
528.04	38721.82
528.21	39007.37
528.38	39358.45
528.55	39395.90
528.72	39192.27
528.89	39295.25
529.07	39318.66
529.24	39093.97
529.41	39112.69
529.58	39206.31
529.75	39082.27
529.92	39793.79
530.09	39702.51
530.26	39585.48
530.43	39746.98
530.60	39669.74
530.77	39618.25
530.94	40020.82
531.11	39730.59
531.28	39878.05
531.46	39693.15
531.63	39882.73
531.80	39587.82
531.97	39667.40
532.14	40257.21
532.31	39636.97
532.48	39943.58
532.65	40032.52
532.82	39915.50
532.99	40463.18
533.16	40175.30
533.33	40355.52
533.50	40830.65
533.67	40421.05
533.84	40388.28
534.01	40924.27
534.18	40397.65
534.35	40596.59
534.52	40313.39
534.69	41003.85
534.86	40966.40
535.03	41024.91
535.20	41003.85
535.37	41315.14
535.54	41177.04
535.71	41361.95
535.88	41242.58
536.05	40933.63
536.22	41179.39
536.38	40914.90
536.55	41006.19
536.72	40917.25
536.89	40680.85
537.06	41385.35
537.23	41619.41
537.40	41572.60
537.57	41418.12
537.74	41975.17
537.91	41851.12
538.08	41783.24
538.25	41291.73
538.42	41638.13
538.59	42312.20
538.75	41808.99
538.92	41771.54
539.09	41904.95
539.26	42220.92
539.43	41776.22
539.60	41626.43
539.77	41490.68
539.94	41940.06
540.11	41329.18
540.28	41982.19
540.44	42000.91
540.61	42115.60
540.78	41883.89
540.95	42155.39
541.12	42089.85
541.29	42380.08
541.46	42197.52
541.62	42567.32
541.79	42131.98
541.96	42141.35
542.13	42199.86
542.30	42452.64
542.47	42792.01
542.63	42515.83
542.80	42766.27
542.97	43248.42
543.14	43229.69
543.31	43063.52
543.48	43028.41
543.64	43353.74
543.81	43243.74
543.98	43290.55
544.15	43283.53
544.32	43426.30
544.48	43473.11
544.65	43629.93
544.82	43454.39
544.99	43482.47
545.16	43395.87
545.32	43335.02
545.49	44044.20
545.66	44072.29
545.83	43821.85
546.00	44170.59
546.16	43700.14
546.33	43297.57
546.50	43021.39
546.67	43587.80
546.83	43648.65
547.00	43346.72
547.17	43660.35
547.34	43543.33
547.50	44065.27
547.67	43969.30
547.84	43784.40
548.00	44299.32
548.17	44179.95
548.34	44137.82
548.51	44191.65
548.67	44552.10
548.84	44243.15
549.01	44271.23
549.18	44418.69
549.34	44528.69
549.51	44409.32
549.68	44495.92
549.84	44430.39
550.01	44531.03
550.18	44079.31
550.34	44371.88
550.51	44528.69
550.68	44123.78
550.84	44130.80
551.01	44814.24
551.18	44524.01
551.34	44610.61
551.51	44222.08
551.68	44783.81
551.84	44570.82
552.01	44779.13
552.18	45029.57
552.34	44458.48
552.51	44877.43
552.68	44678.49
552.84	45010.84
553.01	44729.98
553.18	44861.05
553.34	45148.93
553.51	44645.72
553.67	44954.67
553.84	45170.00
554.01	45062.33
554.17	45298.73
554.34	45036.59
554.51	45579.59
554.67	45167.66
554.84	44893.82
555.00	45483.63
555.17	45024.89
555.33	45013.18
555.50	44947.65
555.67	44964.03
555.83	45317.45
556.00	45687.26
556.16	45373.63
556.33	44807.22
556.50	45289.37
556.66	45673.21
556.83	44945.31
556.99	45558.53
557.16	45874.50
557.32	45900.25
557.49	45366.60
557.65	45333.84
557.82	45481.29
557.98	45567.89
558.15	45769.18
558.32	45844.07
558.48	45694.28
558.65	45045.95
558.81	45359.58
558.98	45244.90
559.14	45478.95
559.31	45518.74
559.47	45373.63
559.64	45909.61
559.80	46389.42
559.97	45736.41
560.13	45490.65
560.30	45818.33
560.46	45993.87
560.63	45668.53
560.79	46026.63
560.96	46131.96
561.12	45687.26
561.29	46024.29
561.45	46038.34
561.61	45556.19
561.78	46153.02
561.94	45532.78
562.11	45832.37
562.27	45635.77
562.44	46211.54
562.60	46127.28
562.77	46124.94
562.93	45783.22
563.10	46246.65
563.26	45748.11
563.42	46026.63
563.59	46213.88
563.75	46382.40
563.92	45956.42
564.08	46059.40
564.24	46251.33
564.41	46113.23
564.57	46356.65
564.74	46174.09
564.90	46401.12
565.07	45755.13
565.23	46047.70
565.39	45785.56
565.56	45605.34
565.72	45897.91
565.88	46461.97
566.05	45858.12
566.21	46270.05
566.38	45933.01
566.54	46363.67
566.70	46321.54
566.87	46520.49
567.03	46340.27
567.19	46845.82
567.36	46003.23
567.52	46064.08
567.68	46115.58
567.85	46274.73
568.01	46274.73
568.17	46113.23
568.34	46192.81
568.50	46124.94
568.66	46279.41
568.83	46279.41
568.99	45968.12
569.15	46143.66
569.32	46181.11
569.48	45963.44
569.64	46532.19
569.81	46436.23
569.97	46307.50
570.13	46391.76
570.30	45979.82
570.46	46101.53
570.62	46005.57
570.78	45799.60
570.95	46003.23
571.11	46260.69
571.27	46134.30
571.43	45897.91
571.60	46368.35
571.76	46230.26
571.92	46508.79
572.09	46380.06
572.25	46094.51
572.41	46368.35
572.57	46328.56
572.74	46728.80
572.90	46555.60
573.06	46508.79
573.22	46602.41
573.38	46525.17
573.55	46506.44
573.71	46579.00
573.87	47044.77
574.03	46333.24
574.20	46230.26
574.36	46878.59
574.52	46522.83
574.68	46581.34
574.84	46817.74
575.01	46384.74
575.17	46171.75
575.33	46260.69
575.49	46557.94
575.65	46515.81
575.82	46492.40
575.98	46508.79
576.14	47122.01
576.30	46426.87
576.46	46866.89
576.62	46635.17
576.79	46590.70
576.95	46253.67
577.11	46309.84
577.27	46426.87
577.43	46532.19
577.59	46358.99
577.75	46328.56
577.92	45792.58
578.08	46115.58
578.24	46101.53
578.40	46583.68
578.56	46583.68
578.72	46553.26
578.88	46761.56
579.04	46859.87
579.21	46188.13
579.37	46672.62
579.53	46681.98
579.69	46651.56
579.85	46412.82
580.01	46646.88
580.17	46394.10
580.33	47033.07
580.49	46501.76
580.65	46810.71
580.82	46707.73
580.98	46358.99
581.14	46419.84
581.30	46883.27
581.46	46813.05
581.62	46759.22
581.78	46726.46
581.94	47037.75
582.10	46307.50
582.26	46862.21
582.42	46710.07
582.58	46780.29
582.74	46747.52
582.90	47091.58
583.06	46469.00
583.22	46941.78
583.38	46958.17
583.54	47140.73
583.70	46995.62
583.86	46656.24
584.02	46752.20
584.18	46485.38
584.34	46485.38
584.50	46808.37
584.66	46342.61
584.82	46246.65
584.98	47093.92
585.14	46539.21
585.30	46504.10
585.46	46766.24
585.62	46382.40
585.78	46553.26
585.94	46361.33
586.10	46651.56
586.26	46670.28
586.42	46672.62
586.58	47002.64
586.74	47000.30
586.90	46424.53
587.06	46354.31
587.22	46738.16
587.38	46536.87
587.54	46646.88
587.70	46611.77
587.86	46429.21
588.02	46480.70
588.18	46820.08
588.34	46564.96
588.49	46124.94
588.65	45977.48
588.81	45743.43
588.97	46485.38
589.13	46110.89
589.29	46117.92
589.45	46227.92
589.61	46277.07
589.77	46616.45
589.93	46674.96
590.08	46663.26
590.24	46344.95
590.40	46543.89
590.56	46831.78
590.72	46651.56
590.88	46286.43
591.04	46607.09
591.20	47049.45
591.35	46883.27
591.51	47014.34
591.67	46873.91
591.83	46810.71
591.99	46344.95
592.15	46630.49
592.31	46560.28
592.46	46794.33
592.62	46787.31
592.78	47058.81
592.94	47185.20
593.10	46724.11
593.26	46777.95
593.41	46672.62
593.57	46583.68
593.73	46962.85
593.89	46693.69
594.05	46724.11
594.20	46850.50
594.36	47136.05
594.52	46588.36
594.68	46487.72
594.84	46799.01
594.99	46820.08
595.15	46632.83
595.31	46749.86
595.47	46831.78
595.62	46614.11
595.78	46902.00
595.94	46494.74
596.10	47026.04
596.25	47072.85
596.41	46906.68
596.57	46649.22
596.73	46480.70
596.88	46831.78
597.04	46953.49
597.20	46667.94
597.36	46951.15
597.51	47206.26
597.67	46876.25
597.83	47229.67
597.99	47271.80
598.14	47281.16
598.30	46199.83
598.46	47175.84
598.61	46717.09
598.77	46555.60
598.93	46705.39
599.09	47028.38
599.24	47629.90
599.40	46850.50
599.56	47004.98
599.71	46838.80
599.87	47103.28
600.03	46887.95
600.18	46899.65
600.34	46892.63
600.50	46784.97
600.65	46340.27
600.81	46969.87
600.97	47124.35
601.12	47129.03
601.28	47103.28
601.44	46284.09
601.59	46426.87
601.75	46616.45
601.91	46838.80
602.06	46499.42
602.22	46705.39
602.37	46775.61
602.53	46827.10
602.69	46794.33
602.84	46780.29
603.00	46581.34
603.16	46777.95
603.31	46433.89
603.47	46698.37
603.62	47063.49
603.78	46843.48
603.94	46665.60
604.09	46948.81
604.25	46471.34
604.40	46791.99
604.56	46490.06
604.71	46815.40
604.87	46789.65
605.03	46581.34
605.18	46344.95
605.34	46696.03
605.49	46485.38
605.65	46443.25
605.80	46330.90
605.96	46796.67
606.12	46920.72
606.27	46731.14
606.43	46745.18
606.58	46913.70
606.74	46560.28
606.89	46630.49
607.05	46579.00
607.20	46534.53
607.36	46274.73
607.51	46768.58
607.67	46382.40
607.82	46499.42
607.98	46410.48
608.13	46293.46
608.29	46052.38
608.44	45914.29
608.60	45715.34
608.75	46059.40
608.91	46422.19
609.06	45855.78
609.22	46433.89
609.37	45841.73
609.53	46473.68
609.68	46068.76
609.84	46197.49
609.99	46190.47
610.15	46644.54
610.30	45827.69
610.46	46115.58
610.61	46007.91
610.76	45881.52
610.92	46174.09
611.07	46487.72
611.23	46307.50
611.38	46080.47
611.54	46007.91
611.69	45713.00
611.84	45951.74
612.00	45764.49
612.15	45778.54
612.31	45778.54
612.46	45799.60
612.62	46124.94
612.77	45787.90
612.92	46340.27
613.08	45621.72
613.23	45741.09
613.39	45799.60
613.54	45680.24
613.69	45691.94
613.85	45862.80
614.00	45645.13
614.15	46143.66
614.31	45556.19
614.46	45485.97
614.62	45750.45
614.77	45900.25
614.92	45282.34
615.08	45401.71
615.23	44992.12
615.38	45361.92
615.54	45364.26
615.69	45146.59
615.84	45331.50
616.00	45705.98
616.15	45443.84
616.30	45249.58
616.46	45010.84
616.61	44928.92
616.76	45397.03
616.92	44559.12
617.07	45003.82
617.22	45233.19
617.37	45022.54
617.53	45422.78
617.68	45036.59
617.83	45326.81
617.99	45130.21
618.14	45207.45
618.29	45184.04
618.45	44708.91
618.60	44711.25
618.75	44968.71
618.90	45048.29
619.06	44889.13
619.21	45064.67
619.36	45230.85
619.51	44935.95
619.67	45097.44
619.82	44804.88
619.97	45177.02
620.12	44463.16
620.28	44650.40
620.43	44589.55
620.58	44472.52
620.73	45055.31
620.89	44507.63
621.04	44952.33
621.19	44687.85
621.34	44467.84
621.49	44921.90
621.65	44385.92
621.80	44327.41
621.95	44091.01
622.10	44343.79
622.25	44147.18
622.41	44201.02
622.56	44453.79
622.71	44484.22
622.86	43990.37
623.01	44463.16
623.16	44233.78
623.32	44175.27
623.47	43882.70
623.62	43899.09
623.77	44011.43
623.92	44023.14
624.07	43927.17
624.23	43957.60
624.38	44215.06
624.53	43709.50
624.68	43931.86
624.83	43562.05
624.98	43885.04
625.13	43522.26
625.29	43388.85
625.44	43566.73
625.59	42899.68
625.74	43730.57
625.89	43140.75
626.04	43342.04
626.19	43768.02
626.34	43695.46
626.49	43906.11
626.65	43955.26
626.80	43393.53
626.95	43164.16
627.10	43306.93
627.25	43236.72
627.40	43154.80
627.55	42902.02
627.70	42810.74
627.85	43129.05
628.00	43019.05
628.15	43342.04
628.30	42916.06
628.45	43440.34
628.60	43285.87
628.76	43126.71
628.91	43473.11
629.06	42866.91
629.21	42506.47
629.36	43084.58
629.51	42883.30
629.66	42639.88
629.81	42031.34
629.96	42630.52
630.11	42607.11
630.26	42902.02
630.41	43152.46
630.56	42635.20
630.71	42965.21
630.86	42747.54
631.01	42579.03
631.16	42754.57
631.31	42408.17
631.46	42270.08
631.61	42951.17
631.76	42454.98
631.91	42850.53
632.06	42335.61
632.21	42593.07
632.36	42632.86
632.51	42178.79
632.66	42239.65
632.81	41855.80
632.96	42497.11
633.10	42321.57
633.25	42253.69
633.40	42368.38
633.55	42476.04
633.70	42319.23
633.85	42092.19
634.00	42206.88
634.15	41984.53
634.30	41811.33
634.45	42562.64
634.60	42019.64
634.75	41895.59
634.90	41958.78
635.05	42234.97
635.19	41467.27
635.34	42129.64
635.49	41717.71
635.64	41879.21
635.79	41823.03
635.94	41677.92
636.09	41652.17
636.24	41507.06
636.39	41811.33
636.53	41523.44
636.68	41448.55
636.83	41408.76
636.98	41663.88
637.13	41434.50
637.28	41713.03
637.43	41766.86
637.57	41696.64
637.72	41656.85
637.87	41390.03
638.02	41467.27
638.17	41364.29
638.32	41507.06
638.46	41476.63
638.61	41539.83
638.76	40809.58
638.91	41359.61
639.06	41265.99
639.20	41521.10
639.35	41055.34
639.50	41308.11
639.65	41298.75
639.80	41352.58
639.94	41305.77
640.09	41298.75
640.24	41060.02
640.39	40549.78
640.54	40776.81
640.68	40512.33
640.83	40594.25
640.98	40718.30
641.13	40755.75
641.27	41375.99
641.42	40708.94
641.57	40582.55
641.72	40774.47
641.86	40568.51
642.01	40566.16
642.16	40299.34
642.31	40271.26
642.45	40905.54
642.60	40591.91
642.75	40231.47
642.90	40119.12
643.04	40954.69
643.19	40357.86
643.34	40224.45
643.48	40142.53
643.63	39725.91
643.78	40102.74
643.93	40367.22
644.07	40027.84
644.22	40517.01
644.37	39810.17
644.51	40102.74
644.66	40304.02
644.81	40477.22
644.95	40395.31
645.10	40346.15
645.25	39927.20
645.39	40074.65
645.54	40140.19
645.69	40060.61
645.83	40041.88
645.98	40240.83
646.13	40032.52
646.27	39901.45
646.42	40238.49
646.57	40060.61
646.71	39519.95
646.86	40130.83
647.00	39770.38
647.15	40212.74
647.30	39779.74
647.44	39690.80
647.59	39454.41
647.74	39533.99
647.88	39569.10
648.03	39971.67
648.17	39964.65
648.32	39213.34
648.47	39618.25
648.61	39248.44
648.76	39924.86
648.90	39047.16
649.05	39587.82
649.20	39285.89
649.34	39180.57
649.49	39030.77
649.63	39433.35
649.78	39152.48
649.92	38834.17
650.07	39903.79
650.21	39037.80
650.36	39372.49
650.51	39269.51
650.65	40053.59
650.80	39194.61
650.94	39084.61
651.09	39047.16
651.23	39203.97
651.38	38983.96
651.52	38941.83
651.67	38895.02
651.81	38738.21
651.96	38796.72
652.10	38768.63
652.25	38714.80
652.39	38834.17
652.54	38712.46
652.68	38857.57
652.83	38979.28
652.97	39119.71
653.12	38813.10
653.26	38803.74
653.41	38487.77
653.55	38770.97
653.70	38763.95
653.84	38415.21
653.99	38782.68
654.13	38209.25
654.27	38462.02
654.42	38274.78
654.56	38321.59
654.71	38450.32
654.85	38232.65
655.00	38139.03
655.14	37841.78
655.29	37581.98
655.43	37986.89
655.57	37785.61
655.72	37954.13
655.86	37638.15
656.01	38010.30
656.15	37722.41
656.30	37649.86
656.44	37502.40
656.58	37446.23
656.73	37867.53
656.87	37729.44
657.01	38047.75
657.16	37848.80
657.30	37514.11
657.45	37586.66
657.59	37633.47
657.73	37530.49
657.88	37677.94
658.02	37745.82
658.16	38309.89
658.31	37476.66
658.45	37757.52
658.60	37642.84
658.74	37853.48
658.88	37663.90
659.03	37764.54
659.17	37167.71
659.31	37186.43
659.46	37371.33
659.60	37516.45
659.74	37256.65
659.89	37289.42
660.03	37233.24
660.17	37242.60
660.32	37298.78
660.46	37247.29
660.60	37074.09
660.74	37160.69
660.89	36905.57
661.03	36814.29
661.17	36526.40
661.32	36091.06
661.46	36526.40
661.60	36645.77
661.74	36634.06
661.89	36772.16
662.03	36325.11
662.17	36521.72
662.31	35934.24
662.46	36643.43
662.60	36362.56
662.74	35983.40
662.88	35866.37
663.03	35976.37
663.17	36030.21
663.31	35704.87
663.45	35945.95
663.60	35957.65
663.74	35995.10
663.88	35597.21
664.02	35838.28
664.17	35627.63
664.31	35847.64
664.45	35608.91
664.59	35325.71
664.73	35264.85
664.88	35681.47
665.02	35068.25
665.16	35428.69
665.30	35440.39
665.44	35321.02
665.59	34953.56
665.73	35211.02
665.87	35164.21
666.01	35489.54
666.15	34733.55
666.29	35175.91
666.44	35168.89
666.58	34923.13
666.72	34609.50
666.86	34920.79
667.00	34628.23
667.14	34450.35
667.28	34726.53
667.43	34494.82
667.57	34579.07
667.71	34197.57
667.85	34504.18
667.99	34653.97
668.13	34515.88
668.27	34178.84
668.41	34377.79
668.56	34082.88
668.70	34113.31
668.84	34052.45
668.98	33706.05
669.12	34279.49
669.26	33780.95
669.40	33769.25
669.54	33668.61
669.68	33818.40
669.82	33612.43
669.96	33406.47
670.10	33736.48
670.25	33638.18
670.39	33254.33
670.53	33083.47
670.67	33076.45
670.81	33565.62
670.95	32968.79
671.09	32980.49
671.23	32793.25
671.37	33027.30
671.51	33102.20
671.65	32774.52
671.79	32772.18
671.93	32767.50
672.07	32849.42
672.21	33060.07
672.35	32559.19
672.49	32484.30
672.63	32697.28
672.77	32105.13
672.91	32893.89
673.05	32371.95
673.19	32657.49
673.33	32219.81
673.47	31744.69
673.61	31803.20
673.75	31468.50
673.89	31864.05
674.03	31775.11
674.17	31800.86
674.31	31880.44
674.45	31314.03
674.59	31896.82
674.73	31653.40
674.87	31250.83
675.01	31138.49
675.15	31424.03
675.29	31400.63
675.43	31267.22
675.56	31234.45
675.70	31173.60
675.84	30911.46
675.98	30103.97
676.12	30916.14
676.26	30515.90
676.40	30733.57
676.54	30581.44
676.68	30284.19
676.82	30015.03
676.96	30260.79
677.10	30270.15
677.23	30134.40
677.37	30129.72
677.51	29696.72
677.65	29799.70
677.79	29193.50
677.93	29509.47
678.07	29280.10
678.21	28999.24
678.34	29113.92
678.48	28868.17
678.62	28826.04
678.76	28685.61
678.90	28554.54
679.04	28652.84
679.18	28811.99
679.31	28755.82
679.45	28098.13
679.59	28222.18
679.73	28444.53
679.87	28357.93
680.00	28137.92
680.14	28177.71
680.28	28261.97
680.42	28088.77
680.56	27899.19
680.70	28119.20
680.83	27768.12
680.97	27812.59
681.11	27709.60
681.25	27276.60
681.39	27487.25
681.52	27611.30
681.66	27477.89
681.80	26925.52
681.94	26824.88
682.07	26979.36
682.21	27070.64
682.35	27044.89
682.49	26986.38
682.62	26878.71
682.76	26480.82
682.90	26567.42
683.04	26321.66
683.17	26127.40
683.31	25961.22
683.45	25806.75
683.59	25729.51
683.72	25905.05
683.86	25647.59
684.00	26139.10
684.13	25521.20
684.27	25706.10
684.41	25216.93
684.55	25397.15
684.68	25291.83
684.82	25357.36
684.96	25399.49
685.09	25207.57
685.23	25277.79
685.37	24760.53
685.50	24886.92
685.64	25088.20
685.78	24744.14
685.91	24505.41
686.05	24760.53
686.19	24472.64
686.32	24201.14
686.46	23831.33
686.60	23695.58
686.73	23754.10
686.87	23522.38
687.01	23309.40
687.14	23260.24
687.28	23236.84
687.42	23442.81
687.55	23398.34
687.69	23082.36
687.82	23403.02
687.96	23297.69
688.10	23285.99
688.23	22923.21
688.37	22668.09
688.50	22338.07
688.64	22780.43
688.78	22656.39
688.91	22305.31
689.05	22782.77
689.18	22618.94
689.32	22389.56
689.46	22459.78
689.59	22632.98
689.73	22469.14
689.86	22249.13
690.00	21891.03
690.13	21947.20
690.27	21605.49
690.41	21942.52
690.54	21612.51
690.68	21617.19
690.81	21521.23
690.95	21371.43
691.08	21535.27
691.22	21432.29
691.35	21062.48
691.49	21294.19
691.62	21256.75
691.76	21109.29
691.89	20802.68
692.03	20861.19
692.16	20521.82
692.30	20744.17
692.43	20790.98
692.57	20491.39
692.70	20542.88
692.84	20182.44
692.97	20224.57
693.11	20313.51
693.24	20219.89
693.38	19810.29
693.51	20009.24
693.65	19789.23
693.78	20088.82
693.92	19686.25
694.05	19695.61
694.19	19477.94
694.32	19506.02
694.45	19250.91
694.59	19150.26
694.72	19351.55
694.86	19084.73
694.99	18927.91
695.13	19068.34
695.26	19016.85
695.39	18754.71
695.53	18970.04
695.66	19140.90
695.80	18614.28
695.93	18789.82
696.07	18689.18
696.20	18438.74
696.33	18523.00
696.47	18256.18
696.60	18225.75
696.73	18174.26
696.87	17858.29
697.00	18113.41
697.14	18010.42
697.27	17965.95
697.40	17862.97
697.54	17465.08
697.67	17565.72
697.80	17338.69
697.94	17226.34
698.07	17198.26
698.21	17460.40
698.34	17397.20
698.47	16774.62
698.61	16432.90
698.74	16615.46
698.87	16442.26
699.01	16372.05
699.14	16498.44
699.27	16568.65
699.40	16570.99
699.54	16238.64
699.67	16585.04
699.80	16231.62
699.94	16301.83
700.07	16037.35
700.20	16170.76
700.34	15859.47
700.47	16233.96
700.60	16374.39
700.73	15920.32
700.87	16002.24
701.00	15892.24
701.13	15936.71
701.26	15473.28
701.40	15417.11
701.53	15611.37
701.66	15627.76
701.79	15316.47
701.93	15140.93
702.06	15185.40
702.19	14981.77
702.32	15049.64
702.46	14977.09
702.59	14670.48
702.72	14965.39
702.85	14967.73
702.99	15068.37
703.12	14810.91
703.25	14579.20
703.38	14611.96
703.51	14516.00
703.65	14663.46
703.78	14508.98
703.91	14246.84
704.04	14384.93
704.17	14104.07
704.31	14256.20
704.44	14139.18
704.57	14115.77
704.70	14146.20
704.83	13973.00
704.96	13781.07
705.10	13879.38
705.23	13678.09
>>>>>End Processed Spectral Data<<<<<
