SpectraSuite Data File
++++++++++++++++++++++++++++++++++++
Date: Fri Oct 25 11:33:50 EDT 2013
User: price-jones
Dark Spectrum Present: No
Reference Spectrum Present: No
Number of Sampled Component Spectra: 1
Spectrometers: USB2+H05261
Integration Time (usec): 100000 (USB2+H05261)
Spectra Averaged: 1 (USB2+H05261)
Boxcar Smoothing: 0 (USB2+H05261)
Correct for Electrical Dark: No (USB2+H05261)
Strobe/Lamp Enabled: No (USB2+H05261)
Correct for Detector Non-linearity: No (USB2+H05261)
Correct for Stray Light: No (USB2+H05261)
Number of Pixels in Processed Spectrum: 2048
>>>>>Begin Processed Spectral Data<<<<<
365.73	299.59
365.92	299.59
366.12	299.59
366.32	229.37
366.52	210.65
366.72	238.73
366.91	102.98
367.11	187.24
367.31	184.90
367.51	131.07
367.70	170.86
367.90	194.26
368.10	154.48
368.30	184.90
368.49	133.41
368.69	203.63
368.89	208.31
369.09	168.52
369.28	236.39
369.48	131.07
369.68	224.69
369.87	201.29
370.07	205.97
370.27	264.48
370.47	379.17
370.66	440.02
370.86	496.19
371.06	500.87
371.25	517.26
371.45	491.51
371.65	528.96
371.84	524.28
372.04	561.73
372.24	568.75
372.44	533.64
372.63	643.65
372.83	638.97
373.03	631.94
373.22	589.82
373.42	624.92
373.62	571.09
373.81	573.43
374.01	603.86
374.21	676.41
374.40	636.63
374.60	587.47
374.79	709.18
374.99	657.69
375.19	664.71
375.38	664.71
375.58	685.78
375.78	702.16
375.97	678.76
376.17	678.76
376.37	636.63
376.56	741.95
376.76	634.29
376.95	688.12
377.15	681.10
377.35	720.88
377.54	664.71
377.74	760.67
377.93	585.13
378.13	795.78
378.33	760.67
378.52	746.63
378.72	772.38
378.91	793.44
379.11	711.52
379.31	653.01
379.50	671.73
379.70	727.91
379.89	699.82
380.09	688.12
380.28	741.95
380.48	781.74
380.68	774.72
380.87	786.42
381.07	816.85
381.26	828.55
381.46	800.46
381.65	774.72
381.85	779.40
382.04	772.38
382.24	800.46
382.43	765.36
382.63	826.21
382.83	716.20
383.02	844.93
383.22	807.48
383.41	802.80
383.61	884.72
383.80	919.83
384.00	809.83
384.19	844.93
384.39	779.40
384.58	809.83
384.78	847.27
384.97	784.08
385.17	835.57
385.36	877.70
385.56	868.34
385.75	840.25
385.95	919.83
386.14	842.59
386.34	873.02
386.53	861.32
386.72	842.59
386.92	896.43
387.11	889.40
387.31	919.83
387.50	891.74
387.70	828.55
387.89	884.72
388.09	910.47
388.28	835.57
388.48	945.58
388.67	908.13
388.86	887.06
389.06	926.85
389.25	980.68
389.45	877.70
389.64	936.21
389.84	959.62
390.03	950.26
390.22	985.37
390.42	978.34
390.61	973.66
390.81	919.83
391.00	1032.18
391.19	1029.84
391.39	1006.43
391.58	1039.20
391.78	980.68
391.97	1008.77
392.16	1069.62
392.36	1081.33
392.55	1008.77
392.75	1041.54
392.94	1001.75
393.13	1109.41
393.33	1053.24
393.52	994.73
393.71	1036.86
393.91	1130.48
394.10	1114.10
394.29	1057.92
394.49	1107.07
394.68	1188.99
394.88	1153.88
395.07	1196.01
395.26	1191.33
395.46	1186.65
395.65	1224.10
395.84	1205.38
396.04	1266.23
396.23	1217.08
396.42	1282.61
396.62	1273.25
396.81	1240.48
397.00	1200.69
397.19	1170.27
397.39	1224.10
397.58	1226.44
397.77	1266.23
397.97	1254.53
398.16	1287.29
398.35	1275.59
398.55	1228.78
398.74	1287.29
398.93	1380.92
399.12	1327.08
399.32	1362.19
399.51	1355.17
399.70	1355.17
399.90	1425.39
400.09	1362.19
400.28	1416.02
400.47	1324.74
400.67	1364.53
400.86	1430.07
401.05	1397.30
401.24	1458.15
401.44	1458.15
401.63	1469.86
401.82	1500.28
402.01	1521.35
402.21	1474.54
402.40	1509.65
402.59	1373.89
402.78	1617.31
402.97	1659.44
403.17	1472.20
403.36	1556.46
403.55	1591.56
403.74	1593.90
403.93	1561.14
404.13	1544.75
404.32	1638.38
404.51	1624.33
404.70	1710.93
404.89	1640.72
405.09	1689.87
405.28	1724.97
405.47	1687.53
405.66	1673.48
405.85	1643.06
406.05	1760.08
406.24	1769.44
406.43	1729.66
406.62	1715.61
406.81	1827.96
407.00	1771.79
407.20	1867.75
407.39	1748.38
407.58	1820.94
407.77	1865.41
407.96	1898.17
408.15	1856.04
408.34	1846.68
408.54	1830.30
408.73	1982.43
408.92	1893.49
409.11	1973.07
409.30	1893.49
409.49	1975.41
409.68	2033.93
409.87	1963.71
410.07	1949.67
410.26	2003.50
410.45	2057.33
410.64	2076.06
410.83	2085.42
411.02	2146.27
411.21	2139.25
411.40	2174.36
411.59	2078.40
411.78	2118.18
411.98	2113.50
412.17	2174.36
412.36	2260.96
412.55	2286.70
412.74	2242.23
412.93	2340.54
413.12	2275.00
413.31	2354.58
413.50	2420.11
413.69	2445.86
413.88	2377.98
414.07	2448.20
414.26	2497.35
414.45	2553.52
414.64	2530.12
414.83	2539.48
415.02	2623.74
415.22	2731.41
415.41	2717.36
415.60	2633.10
415.79	2590.97
415.98	2731.41
416.17	2738.43
416.36	2792.26
416.55	2782.90
416.74	2799.28
416.93	2808.64
417.12	2771.19
417.31	2740.77
417.50	2871.84
417.69	2855.45
417.88	2855.45
418.07	2974.82
418.26	3040.36
418.45	2991.20
418.64	3073.12
418.83	3021.63
419.02	3199.51
419.21	3148.02
419.39	3129.30
419.58	3148.02
419.77	3094.19
419.96	3229.94
420.15	3194.83
420.34	3225.26
420.53	3178.45
420.72	3119.93
420.91	3236.96
421.10	3290.79
421.29	3330.58
421.48	3311.86
421.67	3325.90
421.86	3358.67
422.05	3454.63
422.24	3309.52
422.43	3454.63
422.61	3368.03
422.80	3426.54
422.99	3428.88
423.18	3447.61
423.37	3506.12
423.56	3297.81
423.75	3414.84
423.94	3335.26
424.13	3178.45
424.32	3269.73
424.50	3452.29
424.69	3494.42
424.88	3515.48
425.07	3440.59
425.26	3286.11
425.45	3421.86
425.64	3510.80
425.83	3557.61
426.01	3389.10
426.20	3396.12
426.39	3442.93
426.58	3543.57
426.77	3440.59
426.96	3592.72
427.15	3501.44
427.33	3456.97
427.52	3489.74
427.71	3564.64
427.90	3475.70
428.09	3616.13
428.28	3590.38
428.46	3695.71
428.65	3681.66
428.84	3927.42
429.03	3803.37
429.22	3695.71
429.40	3693.37
429.59	3801.03
429.78	3733.15
429.97	3534.21
430.16	3730.81
430.34	3669.96
430.53	3859.54
430.72	3889.97
430.91	3894.65
431.10	3918.06
431.28	3894.65
431.47	3964.87
431.66	3960.19
431.85	3925.08
432.03	4133.39
432.22	3899.33
432.41	4091.26
432.60	4107.64
432.79	4065.51
432.97	4201.26
433.16	4149.77
433.35	4201.26
433.54	4241.05
433.72	4177.86
433.91	4093.60
434.10	4222.33
434.28	4098.28
434.47	4320.63
434.66	4280.84
434.85	4458.72
435.03	4285.52
435.22	4266.80
435.41	4456.38
435.59	4400.21
435.78	4365.10
435.97	4423.61
436.16	4355.74
436.34	4369.78
436.53	4414.25
436.72	4461.06
436.90	4472.76
437.09	4461.06
437.28	4425.95
437.46	4641.28
437.65	4599.15
437.84	4571.07
438.02	4748.95
438.21	4727.88
438.40	4564.04
438.58	4812.14
438.77	4702.14
438.96	4709.16
439.14	4823.84
439.33	4856.61
439.52	4968.96
439.70	4868.31
439.89	5064.92
440.08	5118.75
440.26	5132.79
440.45	5046.20
440.63	5221.74
440.82	5291.95
441.01	5107.05
441.19	5233.44
441.38	5357.49
441.57	5362.17
441.75	5364.51
441.94	5434.72
442.12	5465.15
442.31	5544.73
442.50	5460.47
442.68	5338.76
442.87	5348.12
443.05	5441.75
443.24	5516.64
443.43	5509.62
443.61	5521.32
443.80	5628.99
443.98	5570.48
444.17	5401.96
444.35	5558.77
444.54	5689.84
444.73	5600.90
444.91	5771.76
445.10	5696.86
445.28	5504.94
445.47	5645.37
445.65	5701.54
445.84	5598.56
446.02	5729.63
446.21	5701.54
446.39	5769.42
446.58	5806.87
446.77	5586.86
446.95	5715.59
447.14	5734.31
447.32	5729.63
447.51	5783.46
447.69	5706.23
447.88	5724.95
448.06	5849.00
448.25	5867.72
448.43	5767.08
448.62	5870.06
448.80	5706.23
448.99	5825.59
449.17	5879.43
449.36	5820.91
449.54	6087.73
449.73	6097.10
449.91	5968.37
450.10	5951.98
450.28	6197.74
450.46	6176.67
450.65	6024.54
450.83	6111.14
451.02	6207.10
451.20	6092.41
451.39	6148.59
451.57	6167.31
451.76	6164.97
451.94	6289.02
452.13	6193.06
452.31	6424.77
452.49	6267.95
452.68	6216.46
452.86	6239.87
453.05	6286.68
453.23	6347.53
453.42	6289.02
453.60	6200.08
453.78	6239.87
453.97	6314.77
454.15	6289.02
454.34	6466.90
454.52	6471.58
454.70	6593.29
454.89	6630.74
455.07	6726.70
455.26	6691.59
455.44	6810.96
455.62	6771.17
455.81	6787.55
455.99	6743.08
456.17	6778.19
456.36	6785.21
456.54	6843.73
456.73	6904.58
456.91	7035.65
457.09	7059.06
457.28	7157.36
457.46	6998.20
457.64	7190.13
457.83	7059.06
458.01	6839.05
458.19	7180.76
458.38	7166.72
458.56	7321.20
458.74	7227.57
458.93	7288.43
459.11	7033.31
459.29	7213.53
459.48	7267.36
459.66	7241.62
459.84	7382.05
460.03	7588.02
460.21	7485.03
460.39	7487.37
460.57	7522.48
460.76	7487.37
460.94	7358.64
461.12	7618.44
461.31	7765.90
461.49	7531.84
461.67	7527.16
461.85	7707.38
462.04	7634.83
462.22	7971.86
462.40	7686.32
462.59	7829.09
462.77	7882.92
462.95	7819.73
463.13	7749.51
463.32	7700.36
463.50	7822.07
463.68	7957.82
463.86	7866.54
464.05	7922.71
464.23	7885.26
464.41	7927.39
464.59	7777.60
464.78	8201.24
464.96	7920.37
465.14	8013.99
465.32	8053.78
465.50	8002.29
465.69	8168.47
465.87	8102.93
466.05	8147.40
466.23	8142.72
466.41	8105.28
466.60	8444.65
466.78	8201.24
466.96	8259.75
467.14	8280.82
467.32	8210.60
467.51	8306.56
467.69	8105.28
467.87	8266.77
468.05	8734.88
468.23	8170.81
468.41	8276.13
468.60	8454.02
468.78	8491.46
468.96	8425.93
469.14	8573.38
469.32	8648.28
469.50	8259.75
469.69	8573.38
469.87	8858.93
470.05	8833.18
470.23	8767.65
470.41	8840.20
470.59	8936.17
470.77	8887.01
470.95	8985.32
471.14	9088.30
471.32	8606.15
471.50	9060.21
471.68	9153.84
471.86	9259.16
472.04	9085.96
472.22	9298.95
472.40	8945.53
472.58	9151.49
472.77	9472.15
472.95	9415.98
473.13	9731.95
473.31	9507.26
473.49	9481.51
473.67	9516.62
473.85	9650.03
474.03	9771.74
474.21	9572.79
474.39	9851.31
474.57	9706.20
474.75	9837.27
474.93	9848.97
475.12	10066.64
475.30	9996.43
475.48	10148.56
475.66	9977.70
475.84	10040.90
476.02	10363.89
476.20	10019.83
476.38	10197.71
476.56	10427.09
476.74	10518.37
476.92	10705.61
477.10	10581.56
477.28	10682.20
477.46	10822.64
477.64	10913.92
477.82	10836.68
478.00	11236.91
478.18	11372.66
478.36	11056.69
478.54	11115.20
478.72	11133.93
478.90	11473.31
479.08	11674.59
479.26	11744.81
479.44	11667.57
479.62	11705.02
479.80	11810.34
479.98	11992.90
480.16	12095.89
480.34	11927.37
480.52	12131.00
480.70	12390.80
480.88	12109.93
481.06	12210.57
481.24	12367.39
481.41	12629.53
481.59	12528.89
481.77	12954.87
481.95	12959.55
482.13	12905.71
482.31	13074.23
482.49	13242.75
482.67	13266.16
482.85	13511.91
483.03	13685.11
483.21	13631.28
483.39	13687.45
483.57	13980.02
483.74	14115.77
483.92	14012.79
484.10	14113.43
484.28	14214.07
484.46	14525.36
484.64	14750.06
484.82	14525.36
485.00	14633.03
485.18	15108.16
485.35	15101.14
485.53	14810.91
485.71	15007.52
485.89	15543.50
486.07	15339.87
486.25	15510.73
486.43	15681.59
486.61	15477.96
486.78	15733.08
486.96	15782.23
487.14	16049.05
487.32	16203.53
487.50	16140.33
487.68	16573.33
487.85	16606.10
488.03	16741.85
488.21	17216.98
488.39	17151.45
488.57	16840.15
488.75	17607.85
488.92	17355.07
489.10	17539.97
489.28	17729.56
489.46	18059.57
489.64	17680.41
489.81	18260.86
489.99	17949.57
490.17	18139.15
490.35	18572.15
490.53	18389.59
490.70	18588.53
490.88	18429.38
491.06	18904.51
491.24	19087.07
491.41	18845.99
491.59	19075.37
491.77	19302.40
491.95	19300.06
492.13	19213.46
492.30	19669.86
492.48	19756.46
492.66	19894.55
492.84	19910.94
493.01	19985.83
493.19	20060.73
493.37	20292.44
493.54	20187.12
493.72	20577.99
493.90	20545.22
494.08	20521.82
494.25	21266.11
494.43	21071.84
494.61	21352.71
494.79	21553.99
494.96	20908.01
495.14	21551.65
495.32	21745.92
495.49	21668.68
495.67	21701.45
495.85	22214.02
496.02	21872.31
496.20	22321.69
496.38	22089.98
496.55	22221.05
496.73	22714.90
496.91	22546.38
497.09	22778.09
497.26	22913.84
497.44	22834.27
497.62	22742.99
497.79	23756.44
497.97	23211.09
498.14	23403.02
498.32	23779.84
498.50	23491.96
498.67	23826.65
498.85	23824.31
499.03	23906.23
499.20	24142.63
499.38	24264.33
499.56	24184.76
499.73	24360.30
499.91	24559.24
500.08	24797.98
500.26	24547.54
500.44	24556.90
500.61	24793.29
500.79	24699.67
500.97	24889.26
501.14	25181.82
501.32	25289.49
501.49	25472.05
501.67	25399.49
501.84	25933.14
502.02	25598.44
502.20	25610.14
502.37	25736.53
502.55	25565.67
502.72	25942.50
502.90	26005.69
503.07	25748.23
503.25	26052.50
503.43	25961.22
503.60	26359.11
503.78	26382.52
503.95	26632.96
504.13	26342.73
504.30	26782.75
504.48	26546.36
504.65	26579.12
504.83	26686.79
505.01	27435.76
505.18	27414.69
505.36	27414.69
505.53	27459.16
505.71	27538.74
505.88	27615.98
506.06	27398.31
506.23	28070.04
506.41	27222.77
506.58	27524.70
506.76	27946.00
506.93	27784.50
507.11	27960.04
507.28	28114.52
507.46	28037.28
507.63	28566.24
507.81	28379.00
507.98	28142.60
508.16	28446.87
508.33	28697.31
508.50	28828.38
508.68	28673.90
508.85	29142.01
509.03	28395.38
509.20	28769.86
509.38	29252.02
509.55	29364.36
509.73	29219.25
509.90	29472.03
510.08	29256.70
510.25	29097.54
510.42	29340.96
510.60	30005.67
510.77	29539.90
510.95	29883.96
511.12	29799.70
511.30	29998.65
511.47	30122.69
511.64	30242.06
511.82	30590.80
511.99	30375.47
512.17	30651.66
512.34	30595.48
512.51	30904.43
512.69	31075.29
512.86	31096.36
513.04	30958.27
513.21	30906.77
513.38	31075.29
513.56	31246.15
513.73	30991.03
513.90	30962.95
514.08	31304.67
514.25	31754.05
514.43	31838.31
514.60	31906.18
514.77	31508.29
514.95	31531.70
515.12	31534.04
515.29	31505.95
515.47	32327.48
515.64	32011.51
515.81	32189.39
515.99	32018.53
516.16	32685.58
516.33	32418.76
516.51	32268.97
516.68	32046.62
516.85	32706.65
517.03	32865.80
517.20	32940.70
517.37	32584.94
517.54	33067.09
517.72	32741.75
517.89	32861.12
518.06	33076.45
518.24	32994.53
518.41	32517.06
518.58	33383.06
518.75	33193.48
518.93	33111.56
519.10	33411.15
519.27	33151.35
519.45	33862.87
519.62	33214.54
519.79	33834.78
519.96	33596.05
520.14	33771.59
520.31	33692.01
520.48	33582.01
520.65	34003.30
520.83	34176.50
521.00	34415.24
521.17	33682.65
521.34	34621.20
521.52	34356.72
521.69	34581.42
521.86	34604.82
522.03	34799.08
522.20	35225.06
522.38	35173.57
522.55	34602.48
522.72	34866.96
522.89	35079.95
523.07	35426.35
523.24	35311.66
523.41	35206.34
523.58	34972.28
523.75	35557.42
523.92	35475.50
524.10	35644.02
524.27	35629.98
524.44	35868.71
524.61	35775.09
524.78	36041.91
524.96	35894.46
525.13	35873.39
525.30	36271.28
525.47	36343.84
525.64	35845.30
525.81	36203.41
525.98	36444.48
526.16	36100.42
526.33	36297.03
526.50	36187.02
526.67	36437.46
526.84	36180.00
527.01	36500.65
527.18	36465.55
527.36	36685.56
527.53	36697.26
527.70	37200.47
527.87	37244.94
528.04	37268.35
528.21	37263.67
528.38	36926.63
528.55	37181.75
528.72	37095.15
528.89	36720.66
529.07	37153.66
529.24	37235.58
529.41	37280.05
529.58	37436.87
529.75	37425.17
529.92	37731.78
530.09	37589.00
530.26	37780.93
530.43	37633.47
530.60	37331.54
530.77	37691.99
530.94	37479.00
531.11	37673.26
531.28	37862.85
531.46	38183.50
531.63	38225.63
531.80	38054.77
531.97	38085.20
532.14	38213.93
532.31	38319.25
532.48	38438.62
532.65	38850.55
532.82	38639.90
532.99	38518.20
533.16	38667.99
533.33	38579.05
533.50	38824.81
533.67	38904.38
533.84	38712.46
534.01	38728.84
534.18	38820.13
534.35	38979.28
534.52	39517.60
534.69	38958.22
534.86	39571.44
535.03	39077.58
535.20	39363.13
535.37	39475.48
535.54	39452.07
535.71	39744.64
535.88	39503.56
536.05	39648.68
536.22	40095.72
536.38	39756.34
536.55	39339.72
536.72	39255.46
536.89	39449.73
537.06	39730.59
537.23	40376.58
537.40	39428.66
537.57	39475.48
537.74	39725.91
537.91	40252.53
538.08	39981.03
538.25	39871.03
538.42	39983.37
538.59	40421.05
538.75	40163.59
538.92	40774.47
539.09	40568.51
539.26	40610.64
539.43	40659.79
539.60	40737.02
539.77	40425.73
539.94	40807.24
540.11	40863.41
540.28	40385.94
540.44	40954.69
540.61	40474.88
540.78	40664.47
540.95	40414.03
541.12	40706.60
541.29	40680.85
541.46	40580.21
541.62	41284.71
541.79	41432.16
541.96	41020.23
542.13	41029.59
542.30	41130.23
542.47	40914.90
542.63	41518.76
542.80	41408.76
542.97	41645.15
543.14	41855.80
543.31	42003.25
543.48	41509.40
543.64	41895.59
543.81	41883.89
543.98	41790.27
544.15	41818.35
544.32	42225.60
544.48	42141.35
544.65	42066.45
544.82	42302.84
544.99	42110.92
545.16	42251.35
545.32	42127.30
545.49	42817.76
545.66	42632.86
545.83	42855.21
546.00	42368.38
546.16	42515.83
546.33	42167.09
546.50	42181.13
546.67	42843.51
546.83	42155.39
547.00	42621.16
547.17	42600.09
547.34	42644.56
547.50	42728.82
547.67	43208.63
547.84	42782.65
548.00	43189.91
548.17	42937.13
548.34	43215.65
548.51	43395.87
548.67	43246.08
548.84	43325.66
549.01	43112.67
549.18	42979.26
549.34	43309.27
549.51	43302.25
549.68	43306.93
549.84	43430.98
550.01	43739.93
550.18	43419.28
550.34	43758.66
550.51	43405.23
550.68	43756.32
550.84	43707.16
551.01	44142.50
551.18	43662.69
551.34	43728.23
551.51	44189.31
551.68	43555.03
551.84	43721.21
552.01	43908.45
552.18	44025.48
552.34	43702.48
552.51	43852.28
552.68	43384.17
552.84	43957.60
553.01	43983.35
553.18	43849.94
553.34	44163.57
553.51	43938.88
553.67	44414.01
553.84	44329.75
554.01	44315.70
554.17	44177.61
554.34	44282.94
554.51	44528.69
554.67	44652.74
554.84	44938.29
555.00	44409.32
555.17	44566.14
555.33	44912.54
555.50	44505.29
555.67	44636.36
555.83	44596.57
556.00	44971.05
556.16	45287.03
556.33	44774.45
556.50	44699.55
556.66	44947.65
556.83	44486.56
556.99	45202.77
557.16	45092.76
557.32	44931.26
557.49	45170.00
557.65	44729.98
557.82	44748.70
557.98	44924.24
558.15	44982.76
558.32	44802.53
558.48	44921.90
558.65	45017.86
558.81	45425.12
558.98	44896.16
559.14	45083.40
559.31	45207.45
559.47	44921.90
559.64	45247.24
559.80	45048.29
559.97	45813.65
560.13	44891.48
560.30	45296.39
560.46	45427.46
560.63	45832.37
560.79	45481.29
560.96	45441.50
561.12	45488.31
561.29	45654.49
561.45	45916.63
561.61	45172.34
561.78	45806.62
561.94	45570.23
562.11	45579.59
562.27	45427.46
562.44	45638.11
562.60	45703.64
562.77	45745.77
562.93	45790.24
563.10	45984.51
563.26	45996.21
563.42	46178.77
563.59	45830.03
563.75	46073.45
563.92	45970.46
564.08	45635.77
564.24	46080.47
564.41	46150.68
564.57	46153.02
564.74	46216.22
564.90	45949.40
565.07	45900.25
565.23	45797.26
565.39	46110.89
565.56	46567.30
565.72	45762.15
565.88	45930.67
566.05	45996.21
566.21	46576.66
566.38	46087.49
566.54	46391.76
566.70	46513.47
566.87	46230.26
567.03	46005.57
567.19	45991.53
567.36	46270.05
567.52	45933.01
567.68	46712.41
567.85	46480.70
568.01	46864.55
568.17	46340.27
568.34	46674.96
568.50	46178.77
568.66	46316.86
568.83	46401.12
568.99	46724.11
569.15	46438.57
569.32	46349.63
569.48	46794.33
569.64	46864.55
569.81	46616.45
569.97	46913.70
570.13	46244.30
570.30	46344.95
570.46	46375.37
570.62	46625.81
570.78	46162.39
570.95	46302.82
571.11	46829.44
571.27	46623.47
571.43	46724.11
571.60	46642.20
571.76	46642.20
571.92	46595.38
572.09	46670.28
572.25	46239.62
572.41	46361.33
572.57	46770.93
572.74	47356.06
572.90	46672.62
573.06	46871.57
573.22	46553.26
573.38	47288.18
573.55	46911.36
573.71	47351.38
573.87	46754.54
574.03	46616.45
574.20	46983.91
574.36	46822.42
574.52	46724.11
574.68	46838.80
574.84	47175.84
575.01	47093.92
575.17	47021.36
575.33	46740.50
575.49	46693.69
575.65	46714.75
575.82	47054.13
575.98	46883.27
576.14	46789.65
576.30	47152.43
576.46	46754.54
576.62	47129.03
576.79	47154.77
576.95	46684.33
577.11	46703.05
577.27	46754.54
577.43	47194.56
577.59	46944.12
577.75	46815.40
577.92	46579.00
578.08	46712.41
578.24	47224.99
578.40	47222.65
578.56	47477.77
578.72	46848.16
578.88	47054.13
579.04	47154.77
579.21	46902.00
579.37	47316.27
579.53	46838.80
579.69	47096.26
579.85	46883.27
580.01	47297.55
580.17	47281.16
580.33	47239.03
580.49	47267.12
580.65	47159.45
580.82	46873.91
580.98	46660.92
581.14	47049.45
581.30	47320.95
581.46	46967.53
581.62	47192.22
581.78	46836.46
581.94	47276.48
582.10	47140.73
582.26	47409.89
582.42	47103.28
582.58	47533.94
582.74	47129.03
582.90	47196.90
583.06	47042.43
583.22	47012.00
583.38	47316.27
583.54	47154.77
583.70	47264.78
583.86	47260.10
584.02	47526.92
584.18	47173.50
584.34	47655.65
584.50	47723.52
584.66	47440.32
584.82	47466.06
584.98	47456.70
585.14	47494.15
585.30	46651.56
585.46	47398.19
585.62	47136.05
585.78	47239.03
585.94	46930.08
586.10	46897.31
586.26	47215.63
586.42	47353.72
586.58	47704.80
586.74	47367.76
586.90	47559.69
587.06	47091.58
587.22	47452.02
587.38	46810.71
587.54	47388.83
587.70	47601.82
587.86	47208.61
588.02	47133.71
588.18	47327.97
588.34	47416.91
588.49	47248.39
588.65	47030.72
588.81	47629.90
588.97	47522.24
589.13	47400.53
589.29	47657.99
589.45	47693.10
589.61	47583.09
589.77	47753.95
589.93	47632.24
590.08	47414.57
590.24	47861.61
590.40	48224.40
590.56	47943.53
590.72	47777.36
590.88	47573.73
591.04	47365.42
591.20	47995.03
591.35	47906.08
591.51	47941.19
591.67	48203.33
591.83	48079.28
591.99	47711.82
592.15	47749.27
592.31	47782.04
592.46	47580.75
592.62	47885.02
592.78	48006.73
592.94	48254.82
593.10	48100.35
593.26	48086.31
593.41	48151.84
593.57	47882.68
593.73	47613.52
593.89	48006.73
594.05	47964.60
594.20	47948.21
594.36	48385.89
594.52	48034.81
594.68	48179.93
594.84	47840.55
594.99	48133.12
595.15	48079.28
595.31	48208.01
595.47	48020.77
595.62	47988.00
595.78	47742.25
595.94	48048.86
596.10	47700.12
596.25	48346.11
596.41	47798.42
596.57	47707.14
596.73	48399.94
596.88	48076.94
597.04	48100.35
597.20	48142.48
597.36	48200.99
597.51	47906.08
597.67	47569.05
597.83	48006.73
597.99	47950.56
598.14	47885.02
598.30	48107.37
598.46	48083.97
598.61	48636.33
598.77	48020.77
598.93	48369.51
599.09	48355.47
599.24	48528.67
599.40	48119.07
599.56	48088.65
599.71	48474.84
599.87	48854.00
600.03	48456.11
600.18	48371.85
600.34	47948.21
600.50	48074.60
600.65	48336.74
600.81	48093.33
600.97	48273.55
601.12	48313.34
601.28	48233.76
601.44	48502.92
601.59	48425.68
601.75	47538.62
601.91	48584.84
602.06	48299.30
602.22	48526.33
602.37	47943.53
602.53	48135.46
602.69	48641.01
602.84	48051.20
603.00	48275.89
603.16	48390.58
603.31	48222.06
603.47	48109.71
603.62	48397.60
603.78	48385.89
603.94	48353.13
604.09	48172.91
604.25	47988.00
604.40	48210.35
604.56	48322.70
604.71	48381.21
604.87	48025.45
605.03	47863.96
605.18	48048.86
605.34	48362.49
605.49	48083.97
605.65	48303.98
605.80	48168.22
605.96	48168.22
606.12	48175.25
606.27	48093.33
606.43	47861.61
606.58	48147.16
606.74	47657.99
606.89	48027.79
607.05	48168.22
607.20	48254.82
607.36	47669.69
607.51	48250.14
607.67	47819.49
607.82	48200.99
607.98	48189.29
608.13	47749.27
608.29	48140.14
608.44	48069.92
608.60	47693.10
608.75	47562.03
608.91	47997.37
609.06	47749.27
609.22	48512.28
609.37	47798.42
609.53	48032.47
609.68	48350.79
609.84	47985.66
609.99	47959.92
610.15	47948.21
610.30	48240.78
610.46	48020.77
610.61	47758.63
610.76	47936.51
610.92	47927.15
611.07	47543.30
611.23	47931.83
611.38	47751.61
611.54	47922.47
611.69	47826.51
611.84	48112.05
612.00	47496.49
612.15	47594.79
612.31	47716.50
612.46	47070.51
612.62	47657.99
612.77	47798.42
612.92	47824.17
613.08	47824.17
613.23	47550.32
613.39	47449.68
613.54	46894.97
613.69	47767.99
613.85	47281.16
614.00	47477.77
614.15	47903.74
614.31	47573.73
614.46	47288.18
614.62	47381.80
614.77	47496.49
614.92	47105.62
615.08	47393.51
615.23	47419.25
615.38	47489.47
615.54	47470.75
615.69	47292.86
615.84	47611.18
616.00	47700.12
616.15	47482.45
616.30	47281.16
616.46	47676.71
616.61	47161.79
616.76	47540.96
616.92	47194.56
617.07	47480.11
617.22	47250.74
617.37	46499.42
617.53	47157.11
617.68	46939.44
617.83	47131.37
617.99	47545.64
618.14	47505.85
618.29	47196.90
618.45	47253.08
618.60	47079.88
618.75	46527.51
618.90	46775.61
619.06	46993.28
619.21	46733.48
619.36	47346.70
619.51	46501.76
619.67	46876.25
619.82	47009.66
619.97	47035.41
620.12	46937.10
620.28	46658.58
620.43	47105.62
620.58	47068.17
620.73	46983.91
620.89	47166.48
621.04	47159.45
621.19	46787.31
621.34	46859.87
621.49	46909.02
621.65	46735.82
621.80	46726.46
621.95	46904.34
622.10	46667.94
622.25	46859.87
622.41	46532.19
622.56	46349.63
622.71	46536.87
622.86	46834.12
623.01	46433.89
623.16	46487.72
623.32	46726.46
623.47	46501.76
623.62	46658.58
623.77	46567.30
623.92	46932.42
624.07	46351.97
624.23	46789.65
624.38	46576.66
624.53	45991.53
624.68	46429.21
624.83	46450.27
624.98	46354.31
625.13	45785.56
625.29	46010.25
625.44	46550.91
625.59	45682.58
625.74	46536.87
625.89	46106.21
626.04	45825.35
626.19	46330.90
626.34	45846.41
626.49	45818.33
626.65	45549.17
626.80	45993.87
626.95	45743.43
627.10	45336.18
627.25	45869.82
627.40	45823.01
627.55	45682.58
627.70	45930.67
627.85	46478.36
628.00	45638.11
628.15	46101.53
628.30	45446.18
628.45	45230.85
628.60	45478.95
628.76	45652.15
628.91	45588.95
629.06	45272.98
629.21	45092.76
629.36	45350.22
629.51	45497.67
629.66	45577.25
629.81	45387.67
629.96	45345.54
630.11	45715.34
630.26	45570.23
630.41	45532.78
630.56	45036.59
630.71	45155.96
630.86	45130.21
631.01	44772.11
631.16	45045.95
631.31	45282.34
631.46	45123.19
631.61	45673.21
631.76	45212.13
631.91	45361.92
632.06	45806.62
632.21	45397.03
632.36	45432.14
632.51	44837.64
632.66	45139.57
632.81	45219.15
632.96	44910.20
633.10	44594.23
633.25	44942.97
633.40	44954.67
633.55	45394.69
633.70	44952.33
633.85	44856.37
634.00	44877.43
634.15	44856.37
634.30	44949.99
634.45	44865.73
634.60	45041.27
634.75	44568.48
634.90	44781.47
635.05	44842.32
635.19	44615.29
635.34	44949.99
635.49	44296.98
635.64	44683.17
635.79	44238.47
635.94	44116.76
636.09	44832.96
636.24	44500.61
636.39	44325.07
636.53	44732.32
636.68	44486.56
636.83	44208.04
636.98	43618.22
637.13	43962.28
637.28	44477.20
637.43	43875.68
637.57	44526.35
637.72	43964.62
637.87	44091.01
638.02	44556.78
638.17	44341.45
638.32	44140.16
638.46	43721.21
638.61	43775.04
638.76	43629.93
638.91	44095.69
639.06	43838.23
639.20	43484.81
639.35	43868.66
639.50	43393.53
639.65	43817.17
639.80	43948.24
639.94	44034.84
640.09	44158.89
640.24	44069.95
640.39	43770.36
640.54	43154.80
640.68	44240.81
640.83	44102.71
640.98	43643.97
641.13	43005.00
641.27	43812.49
641.42	43309.27
641.57	43501.20
641.72	43477.79
641.86	43311.61
642.01	43100.97
642.16	43470.77
642.31	43178.20
642.45	43744.61
642.60	43122.03
642.75	43360.76
642.90	43391.19
643.04	42752.23
643.19	43381.83
643.34	43110.33
643.48	43016.71
643.63	42581.37
643.78	43140.75
643.93	43386.51
644.07	43248.42
644.22	43328.00
644.37	42499.45
644.51	43206.29
644.66	43171.18
644.81	43096.28
644.95	43016.71
645.10	43026.07
645.25	43206.29
645.39	43047.13
645.54	42469.02
645.69	42539.24
645.83	42752.23
645.98	42672.65
646.13	42698.39
646.27	43084.58
646.42	42286.46
646.57	42878.61
646.71	43023.73
646.86	42925.42
647.00	43072.88
647.15	42719.46
647.30	42838.83
647.44	42553.28
647.59	42539.24
647.74	42440.93
647.88	42543.92
648.03	42792.01
648.17	42972.24
648.32	42923.08
648.47	42637.54
648.61	42234.97
648.76	42391.78
648.90	42139.00
649.05	41764.52
649.20	42164.75
649.34	42094.53
649.49	42483.06
649.63	42555.62
649.78	42569.66
649.92	42408.17
650.07	42946.49
650.21	42618.81
650.36	42447.96
650.51	42323.91
650.65	41984.53
650.80	42471.36
650.94	42911.38
651.09	42429.23
651.23	41982.19
651.38	41869.84
651.52	42164.75
651.67	41605.36
651.81	42185.82
651.96	41808.99
652.10	41429.82
652.25	41813.67
652.39	41935.38
652.54	41825.37
652.68	41488.34
652.83	41549.19
652.97	41682.60
653.12	41684.94
653.26	41478.97
653.41	41242.58
653.55	41975.17
653.70	41682.60
653.84	41794.95
653.99	41743.45
654.13	41801.97
654.27	41345.56
654.42	41399.40
654.56	41418.12
654.71	41235.56
654.85	41610.04
655.00	41581.96
655.14	41736.43
655.29	41357.27
655.43	41198.11
655.57	41076.40
655.72	41345.56
655.86	40823.62
656.01	40847.03
656.15	40762.77
656.30	41127.89
656.44	41441.53
656.58	41804.31
656.73	40678.51
656.87	40505.31
657.01	41017.89
657.16	41233.22
657.30	40987.46
657.45	40896.18
657.59	40748.73
657.73	41174.70
657.88	40680.85
658.02	40718.30
658.16	40713.62
658.31	40931.29
658.45	40758.09
658.60	40549.78
658.74	40694.89
658.88	40177.64
659.03	39999.76
659.17	40453.82
659.31	40032.52
659.46	40140.19
659.60	40240.83
659.74	40095.72
659.89	39812.51
660.03	39585.48
660.17	40367.22
660.32	40055.93
660.46	39695.49
660.60	39988.05
660.74	39981.03
660.89	39777.40
661.03	39557.39
661.17	39578.46
661.32	39754.00
661.46	40350.84
661.60	40037.20
661.74	39433.35
661.89	39391.22
662.03	39524.63
662.17	39522.29
662.31	39112.69
662.46	39533.99
662.60	39248.44
662.74	38665.65
662.88	39023.75
663.03	39316.32
663.17	38965.24
663.31	38595.43
663.45	38969.92
663.60	39274.19
663.74	39180.57
663.88	38925.45
664.02	38845.87
664.17	39070.56
664.31	38878.64
664.45	38288.82
664.59	38969.92
664.73	38377.76
664.88	38691.40
665.02	38319.25
665.16	38078.18
665.30	38567.35
665.44	38218.61
665.59	37895.61
665.73	37951.79
665.87	37586.66
666.01	38124.99
666.15	38026.68
666.29	38003.28
666.44	37996.26
666.58	37883.91
666.72	37535.17
666.86	37589.00
667.00	37535.17
667.14	37502.40
667.28	37846.46
667.43	37675.60
667.57	37846.46
667.71	37701.35
667.85	37502.40
667.99	37226.22
668.13	37010.89
668.27	36715.98
668.41	36938.33
668.56	36666.83
668.70	36957.06
668.84	36575.55
668.98	36662.15
669.12	36907.91
669.26	36950.04
669.40	36762.79
669.54	36591.94
669.68	36837.69
669.82	36680.88
669.96	36275.96
670.10	35913.18
670.25	35938.93
670.39	36236.17
670.53	36385.97
670.67	35791.47
670.81	36477.25
670.95	36201.07
671.09	36053.61
671.23	35995.10
671.37	35889.77
671.51	35875.73
671.65	35765.73
671.79	35477.84
671.93	35707.21
672.07	35894.46
672.21	35819.56
672.35	35129.10
672.49	35321.02
672.63	35456.78
672.77	34733.55
672.91	35208.68
673.05	34866.96
673.19	34483.11
673.33	34506.52
673.47	34464.39
673.61	34270.12
673.75	34424.60
673.89	34267.78
674.03	34216.29
674.17	34068.84
674.31	33909.68
674.45	34249.06
674.59	34066.50
674.73	33811.38
674.87	33469.66
675.01	33186.46
675.15	33439.23
675.29	33406.47
675.43	33432.21
675.56	33696.69
675.70	33179.43
675.84	33186.46
675.98	32385.99
676.12	32905.59
676.26	33411.15
676.40	32931.34
676.54	32800.27
676.68	32762.82
676.82	32130.87
676.96	32943.04
677.10	32275.99
677.23	32531.11
677.37	32355.57
677.51	32261.94
677.65	32093.43
677.79	31901.50
677.93	31831.29
678.07	31686.17
678.21	31622.98
678.34	31573.83
678.48	31248.49
678.62	30948.90
678.76	31299.98
678.90	31407.65
679.04	31330.41
679.18	31349.14
679.31	30967.63
679.45	30672.72
679.59	30527.61
679.73	30829.54
679.87	30689.10
680.00	30754.64
680.14	29998.65
680.28	30478.46
680.42	30265.47
680.56	30441.01
680.70	30223.34
680.83	29834.81
680.97	29872.26
681.11	29497.77
681.25	29420.53
681.39	29406.49
681.52	29357.34
681.66	28947.75
681.80	28980.51
681.94	28620.07
682.07	28456.23
682.21	28528.79
682.35	28180.05
682.49	28545.17
682.62	28510.07
682.76	28524.11
682.90	28849.44
683.04	28425.81
683.17	28467.94
683.31	27985.79
683.45	27702.58
683.59	27824.29
683.72	27463.85
683.86	27360.86
684.00	27381.93
684.13	27763.43
684.27	27164.26
684.41	27143.19
684.55	27604.28
684.68	26967.65
684.82	26827.22
684.96	27005.10
685.09	26902.12
685.23	26639.98
685.37	27030.85
685.50	26864.67
685.64	26415.29
685.78	26443.37
685.91	26639.98
686.05	26031.44
686.19	25495.46
686.32	26195.28
686.46	25582.06
686.60	25434.60
686.73	26085.27
686.87	25462.69
687.01	25680.36
687.14	25507.16
687.28	25694.40
687.42	25535.24
687.55	24968.84
687.69	24816.70
687.82	25041.39
687.96	24732.44
688.10	25177.14
688.23	24744.14
688.37	24786.27
688.50	24456.26
688.64	24404.77
688.78	24252.63
688.91	24526.47
689.05	24453.92
689.18	24079.43
689.32	23814.95
689.46	23625.37
689.59	23793.89
689.73	24294.76
689.86	23744.73
690.00	23723.67
690.13	23344.50
690.27	23480.25
690.41	23592.60
690.54	23070.66
690.68	22827.24
690.81	22958.31
690.95	22864.69
691.08	22703.20
691.22	22738.30
691.35	22471.48
691.49	22747.67
691.62	22916.19
691.76	22061.89
691.89	22462.12
692.03	21881.67
692.16	21673.36
692.30	21994.01
692.43	21860.60
692.57	21462.71
692.70	21572.72
692.84	21432.29
692.97	21001.63
693.11	21397.18
693.24	21057.80
693.38	20999.29
693.51	21195.89
693.65	20903.32
693.78	20739.49
693.92	20643.52
694.05	20645.87
694.19	20741.83
694.32	20886.94
694.45	20489.05
694.59	20585.01
694.72	20397.77
694.86	20334.57
694.99	20173.08
695.13	20173.08
695.26	19585.60
695.39	19833.70
695.53	19735.40
695.66	19955.41
695.80	19723.69
695.93	19419.42
696.07	19337.51
696.20	19058.98
696.33	18864.72
696.47	18878.76
696.60	19016.85
696.73	19110.47
696.87	18956.00
697.00	18948.98
697.14	18757.05
697.27	18518.32
697.40	18410.65
697.54	18572.15
697.67	18455.12
697.80	18576.83
697.94	18452.78
698.07	18338.10
698.21	18015.10
698.34	18108.72
698.47	18033.83
698.61	17568.06
698.74	17586.79
698.87	17493.16
699.01	17479.12
699.14	17532.95
699.27	17378.48
699.40	17338.69
699.54	17359.75
699.67	17219.32
699.80	16940.80
699.94	17060.16
700.07	17083.57
700.20	16889.31
700.34	16627.17
700.47	16617.80
700.60	16917.39
700.73	16608.44
700.87	16397.79
701.00	16418.86
701.13	16067.78
701.26	16112.25
701.40	15988.20
701.53	15714.36
701.66	15913.30
701.79	16102.89
701.93	15845.43
702.06	15468.60
702.19	15325.83
702.32	15803.30
702.46	15550.52
702.59	15199.44
702.72	15433.49
702.85	15372.64
702.99	15213.48
703.12	15044.96
703.25	15037.94
703.38	15087.09
703.51	14721.97
703.65	14796.87
703.78	14483.24
703.91	14567.49
704.04	14520.68
704.17	14647.07
704.31	14579.20
704.44	14420.04
704.57	14164.92
704.70	14235.14
704.83	14068.96
704.96	14045.55
705.10	13989.38
705.23	13958.96
>>>>>End Processed Spectral Data<<<<<
