SpectraSuite Data File
++++++++++++++++++++++++++++++++++++
Date: Fri Oct 25 10:43:13 EDT 2013
User: price-jones
Dark Spectrum Present: No
Reference Spectrum Present: No
Number of Sampled Component Spectra: 1
Spectrometers: USB2+H05261
Integration Time (usec): 100000 (USB2+H05261)
Spectra Averaged: 1 (USB2+H05261)
Boxcar Smoothing: 0 (USB2+H05261)
Correct for Electrical Dark: No (USB2+H05261)
Strobe/Lamp Enabled: No (USB2+H05261)
Correct for Detector Non-linearity: No (USB2+H05261)
Correct for Stray Light: No (USB2+H05261)
Number of Pixels in Processed Spectrum: 2048
>>>>>Begin Processed Spectral Data<<<<<
365.73	79.58
365.92	79.58
366.12	79.58
366.32	21.06
366.52	56.17
366.72	49.15
366.91	0.00
367.11	9.36
367.31	0.00
367.51	23.41
367.70	0.00
367.90	14.04
368.10	81.92
368.30	16.38
368.49	0.00
368.69	37.45
368.89	32.77
369.09	0.00
369.28	93.62
369.48	117.03
369.68	67.88
369.87	72.56
370.07	11.70
370.27	142.77
370.47	138.09
370.66	402.57
370.86	447.04
371.06	414.27
371.25	505.56
371.45	428.32
371.65	496.19
371.84	418.96
372.04	435.34
372.24	486.83
372.44	465.77
372.63	505.56
372.83	491.51
373.03	482.15
373.22	510.24
373.42	470.45
373.62	528.96
373.81	514.92
374.01	519.60
374.21	552.37
374.40	587.47
374.60	580.45
374.79	491.51
374.99	540.66
375.19	599.18
375.38	699.82
375.58	514.92
375.78	585.13
375.97	615.56
376.17	643.65
376.37	573.43
376.56	521.94
376.76	566.41
376.95	519.60
377.15	634.29
377.35	655.35
377.54	713.86
377.74	608.54
377.93	634.29
378.13	662.37
378.33	697.48
378.52	685.78
378.72	676.41
378.91	664.71
379.11	638.97
379.31	573.43
379.50	685.78
379.70	667.05
379.89	674.07
380.09	608.54
380.28	695.14
380.48	739.61
380.68	763.01
380.87	643.65
381.07	741.95
381.26	758.33
381.46	660.03
381.65	716.20
381.85	720.88
382.04	671.73
382.24	711.52
382.43	685.78
382.63	681.10
382.83	800.46
383.02	730.25
383.22	744.29
383.41	692.80
383.61	669.39
383.80	802.80
384.00	753.65
384.19	840.25
384.39	875.36
384.58	751.31
384.78	840.25
384.97	849.61
385.17	800.46
385.36	795.78
385.56	746.63
385.75	788.76
385.95	795.78
386.14	784.08
386.34	784.08
386.53	814.51
386.72	781.74
386.92	814.51
387.11	835.57
387.31	826.21
387.50	901.11
387.70	903.45
387.89	858.98
388.09	898.77
388.28	889.40
388.48	861.32
388.67	915.15
388.86	880.04
389.06	964.30
389.25	997.07
389.45	968.98
389.64	929.19
389.84	954.94
390.03	966.64
390.22	1055.58
390.42	952.60
390.61	983.02
390.81	1020.47
391.00	1032.18
391.19	1093.03
391.39	978.34
391.58	1093.03
391.78	1053.24
391.97	1027.50
392.16	1048.56
392.36	1076.65
392.55	1020.47
392.75	1055.58
392.94	987.71
393.13	901.11
393.33	1018.13
393.52	1001.75
393.71	1011.11
393.91	1090.69
394.10	994.73
394.29	1114.10
394.49	1158.57
394.68	1217.08
394.88	1160.91
395.07	1233.46
395.26	1203.04
395.46	1228.78
395.65	1219.42
395.84	1221.76
396.04	1212.40
396.23	1214.74
396.42	1191.33
396.62	1025.15
396.81	1196.01
397.00	1261.55
397.19	1256.87
397.39	1299.00
397.58	1409.00
397.77	1369.21
397.97	1392.62
398.16	1434.75
398.35	1448.79
398.55	1493.26
398.74	1427.73
398.93	1493.26
399.12	1406.66
399.32	1416.02
399.51	1500.28
399.70	1516.67
399.90	1582.20
400.09	1605.61
400.28	1554.12
400.47	1610.29
400.67	1650.08
400.86	1652.42
401.05	1619.65
401.24	1715.61
401.44	1668.80
401.63	1579.86
401.82	1652.42
402.01	1727.32
402.21	1727.32
402.40	1621.99
402.59	1689.87
402.78	1781.15
402.97	1727.32
403.17	1640.72
403.36	1769.44
403.55	1809.23
403.74	1863.07
403.93	1867.75
404.13	1863.07
404.32	1907.54
404.51	1884.13
404.70	1806.89
404.89	1849.02
405.09	1991.80
405.28	1923.92
405.47	1860.73
405.66	1956.69
405.85	2047.97
406.05	2012.86
406.24	1980.09
406.43	2050.31
406.62	2113.50
406.81	2087.76
407.00	1940.30
407.20	1996.48
407.39	2083.08
407.58	2181.38
407.77	2153.29
407.96	2207.13
408.15	2176.70
408.34	2153.29
408.54	2195.42
408.73	2284.36
408.92	2183.72
409.11	2345.22
409.30	2270.32
409.49	2193.08
409.68	2225.85
409.87	2230.53
410.07	2370.96
410.26	2410.75
410.45	2438.84
410.64	2324.15
410.83	2424.80
411.02	2513.74
411.21	2600.34
411.40	2504.37
411.59	2616.72
411.78	2661.19
411.98	2581.61
412.17	2705.66
412.36	2782.90
412.55	2654.17
412.74	2682.25
412.93	2724.38
413.12	2729.06
413.31	2785.24
413.50	2717.36
413.69	2815.66
413.88	2956.10
414.07	2827.37
414.26	2974.82
414.45	3028.65
414.64	3012.27
414.83	2944.39
415.02	3007.59
415.22	3014.61
415.41	3061.42
415.60	3176.11
415.79	3159.72
415.98	3269.73
416.17	3150.36
416.36	3084.83
416.55	3171.43
416.74	3218.24
416.93	3173.77
417.12	3262.71
417.31	3389.10
417.50	3253.34
417.69	3454.63
417.88	3349.31
418.07	3419.52
418.26	3353.99
418.45	3288.45
418.64	3463.99
418.83	3396.12
419.02	3510.80
419.21	3637.19
419.39	3534.21
419.58	3379.73
419.77	3454.63
419.96	3660.60
420.15	3747.20
420.34	3812.73
420.53	3665.28
420.72	3779.97
420.91	3854.86
421.10	3922.74
421.29	3880.61
421.48	3667.62
421.67	3950.82
421.86	3751.88
422.05	3815.07
422.24	3779.97
422.43	3796.35
422.61	3693.37
422.80	3794.01
422.99	3906.35
423.18	3950.82
423.37	3946.14
423.56	3908.69
423.75	3801.03
423.94	3801.03
424.13	3648.90
424.32	3794.01
424.50	3911.04
424.69	4011.68
424.88	4049.13
425.07	3772.94
425.26	3756.56
425.45	3899.33
425.64	3857.20
425.83	3992.95
426.01	4025.72
426.20	3878.27
426.39	3885.29
426.58	3927.42
426.77	3908.69
426.96	3918.06
427.15	3950.82
427.33	3948.48
427.52	3936.78
427.71	4007.00
427.90	3908.69
428.09	4051.47
428.28	4217.65
428.46	4184.88
428.65	4095.94
428.84	4194.24
429.03	4271.48
429.22	4138.07
429.40	4042.11
429.59	4210.62
429.78	3878.27
429.97	3988.27
430.16	4107.64
430.34	4180.20
430.53	4093.60
430.72	4231.69
430.91	4332.33
431.10	4355.74
431.28	4514.89
431.47	4589.79
431.66	4603.83
431.85	4535.96
432.03	4589.79
432.22	4617.88
432.41	4571.07
432.60	4669.37
432.79	4695.11
432.97	4695.11
433.16	4674.05
433.35	4655.33
433.54	4514.89
433.72	4730.22
433.91	4564.04
434.10	4594.47
434.28	4629.58
434.47	4973.64
434.66	4971.30
434.85	4894.06
435.03	4961.94
435.22	4898.74
435.41	4994.70
435.59	5057.90
435.78	5090.67
435.97	5137.48
436.16	5107.05
436.34	5081.30
436.53	5203.01
436.72	5139.82
436.90	5125.77
437.09	5048.54
437.28	5137.48
437.46	4968.96
437.65	5050.88
437.84	5184.29
438.02	5107.05
438.21	5095.35
438.40	5116.41
438.58	5387.91
438.77	5256.84
438.96	5343.44
439.14	5624.31
439.33	5558.77
439.52	5626.65
439.70	5619.63
439.89	5682.82
440.08	5617.29
440.26	5647.71
440.45	5561.11
440.63	5851.34
440.82	6010.50
441.01	5760.06
441.19	5919.21
441.38	6026.88
441.57	6078.37
441.75	6097.10
441.94	6118.16
442.12	6223.48
442.31	6190.72
442.50	6394.34
442.68	6265.61
442.87	6211.78
443.05	6242.21
443.24	6373.28
443.43	6520.73
443.61	6394.34
443.80	6565.20
443.98	6335.83
444.17	6202.42
444.35	6305.40
444.54	6523.07
444.73	6445.84
444.91	6506.69
445.10	6525.41
445.28	6370.94
445.47	6239.87
445.65	6370.94
445.84	6506.69
446.02	6607.33
446.21	6518.39
446.39	6490.31
446.58	6621.38
446.77	6640.10
446.95	6572.22
447.14	6579.25
447.32	6745.42
447.51	6647.12
447.69	6569.88
447.88	6604.99
448.06	6588.61
448.25	6630.74
448.43	6745.42
448.62	6649.46
448.80	6785.21
448.99	6820.32
449.17	6932.67
449.36	6920.96
449.54	6965.43
449.73	7061.40
449.91	6888.20
450.10	7108.21
450.28	7227.57
450.46	7152.68
450.65	7117.57
450.83	7243.96
451.02	7077.78
451.20	7215.87
451.39	7234.60
451.57	7267.36
451.76	7145.66
451.94	7321.20
452.13	7124.59
452.31	6991.18
452.49	7037.99
452.68	7133.95
452.86	7155.02
453.05	7129.27
453.23	7293.11
453.42	7194.81
453.60	7222.89
453.78	7382.05
453.97	7243.96
454.15	7253.32
454.34	7342.26
454.52	7527.16
454.70	7527.16
454.89	7665.25
455.07	7468.65
455.26	7772.92
455.44	7653.55
455.62	7847.82
455.81	7632.49
455.99	7588.02
456.17	8006.97
456.36	7822.07
456.54	7852.50
456.73	7957.82
456.91	8315.92
457.09	8035.06
457.28	8116.98
457.46	8013.99
457.64	8070.17
457.83	7913.35
458.01	7948.46
458.19	8025.70
458.38	7936.76
458.56	7992.93
458.74	8280.82
458.93	7992.93
459.11	8131.02
459.29	8278.47
459.48	8334.65
459.66	8393.16
459.84	8276.13
460.03	8407.20
460.21	8479.76
460.39	8627.21
460.57	8699.77
460.76	8505.51
460.94	8559.34
461.12	8610.83
461.31	8540.61
461.49	8573.38
461.67	8484.44
461.85	8844.88
462.04	8723.18
462.22	9298.95
462.40	8800.41
462.59	8748.92
462.77	8802.75
462.95	8858.93
463.13	8912.76
463.32	8910.42
463.50	8959.57
463.68	8751.26
463.86	8973.61
464.05	8882.33
464.23	8987.66
464.41	9067.24
464.59	8980.64
464.78	9172.56
464.96	8908.08
465.14	8975.95
465.32	9085.96
465.50	9142.13
465.69	9170.22
465.87	9114.05
466.05	9055.53
466.23	9125.75
466.41	9214.69
466.60	9540.02
466.78	9022.77
466.96	9240.44
467.14	9114.05
467.32	9310.65
467.51	9425.34
467.69	9200.65
467.87	9383.21
468.05	9596.20
468.23	9558.75
468.41	9256.82
468.60	9394.91
468.78	9596.20
468.96	9343.42
469.14	9675.77
469.32	9715.56
469.50	9130.43
469.69	9687.48
469.87	9710.88
470.05	9741.31
470.23	9767.06
470.41	9830.25
470.59	9984.73
470.77	9802.16
470.95	9916.85
471.14	9935.57
471.32	9886.42
471.50	10010.47
471.68	10235.16
471.86	10228.14
472.04	10399.00
472.22	10420.06
472.40	10300.70
472.58	10232.82
472.77	10289.00
472.95	10464.54
473.13	10850.72
473.31	10499.64
473.49	10370.91
473.67	10768.80
473.85	10719.65
474.03	10920.94
474.21	10801.57
474.39	10949.03
474.57	10787.53
474.75	10850.72
474.93	11133.93
475.12	10853.06
475.30	11197.12
475.48	11147.97
475.66	11101.16
475.84	11232.23
476.02	11316.49
476.20	11279.04
476.38	11337.56
476.56	11831.41
476.74	11672.25
476.92	11698.00
477.10	11721.40
477.28	11971.84
477.46	12084.19
477.64	12292.49
477.82	12145.04
478.00	12262.07
478.18	12379.09
478.36	12620.17
478.54	12655.28
478.72	12524.21
478.90	12727.83
479.08	12957.21
479.26	13060.19
479.44	13011.04
479.62	12924.44
479.80	12999.34
479.98	13357.44
480.16	13448.72
480.34	13282.54
480.52	13722.56
480.70	13666.39
480.88	13523.62
481.06	13795.12
481.24	13713.20
481.41	14078.32
481.59	14483.24
481.77	14335.78
481.95	14125.13
482.13	14588.56
482.31	14464.51
482.49	14780.48
482.67	14782.82
482.85	14988.79
483.03	14932.62
483.21	15543.50
483.39	15096.46
483.57	15496.69
483.74	15360.94
483.92	15304.76
484.10	15426.47
484.28	15695.63
484.46	15910.96
484.64	16353.32
484.82	15936.71
485.00	16042.03
485.18	16360.34
485.35	16240.98
485.53	15800.96
485.71	16053.73
485.89	16130.97
486.07	16484.39
486.25	16505.46
486.43	16671.64
486.61	16762.92
486.78	17364.43
486.96	17378.48
487.14	17469.76
487.32	17820.84
487.50	17799.77
487.68	18270.22
487.85	18052.55
488.03	18420.02
488.21	18682.16
488.39	18464.49
488.57	18443.42
488.75	18478.53
488.92	18717.26
489.10	19082.39
489.28	19068.34
489.46	19477.94
489.64	19651.14
489.81	20257.34
489.99	20285.42
490.17	20212.87
490.35	20212.87
490.53	20210.53
490.70	20428.20
490.88	20620.12
491.06	20659.91
491.24	20503.09
491.41	20594.37
491.59	20760.55
491.77	20706.72
491.95	20847.15
492.13	21062.48
492.30	21432.29
492.48	21504.84
492.66	21701.45
492.84	21858.26
493.01	21734.21
493.19	21879.33
493.37	21965.93
493.54	22118.06
493.72	22246.79
493.90	22485.53
494.08	22838.95
494.25	23054.28
494.43	23178.33
494.61	23178.33
494.79	23229.82
494.96	23234.50
495.14	23419.40
495.32	23173.64
495.49	23550.47
495.67	23587.92
495.85	24020.92
496.02	24208.16
496.20	23976.45
496.38	24306.46
496.55	24105.18
496.73	24776.91
496.91	24449.24
497.09	24891.60
497.26	24837.76
497.44	24732.44
497.62	24819.04
497.79	25127.99
497.97	25142.03
498.14	25635.89
498.32	25710.78
498.50	25212.25
498.67	25689.72
498.85	25537.59
499.03	26134.42
499.20	25979.95
499.38	25635.89
499.56	26047.82
499.73	26412.95
499.91	25839.51
500.08	26647.00
500.26	25977.61
500.44	26321.66
500.61	26471.46
500.79	26473.80
500.97	26817.86
501.14	26817.86
501.32	27178.30
501.49	26820.20
501.67	26855.31
501.84	27094.04
502.02	27225.11
502.20	27077.66
502.37	27702.58
502.55	27641.73
502.72	27747.05
502.90	27896.85
503.07	27882.80
503.25	28411.76
503.43	27323.41
503.60	27920.25
503.78	27875.78
503.95	27885.14
504.13	28081.75
504.30	27999.83
504.48	28664.54
504.65	28517.09
504.83	28905.62
505.01	29050.73
505.18	29193.50
505.36	29418.19
505.53	28947.75
505.71	29387.77
505.88	29163.08
506.06	29219.25
506.23	29579.69
506.41	29326.91
506.58	29703.74
506.76	29818.42
506.93	29804.38
507.11	29858.21
507.28	29621.82
507.46	29481.39
507.63	29614.80
507.81	30101.63
507.98	29895.66
508.16	29895.66
508.33	30295.89
508.50	30410.58
508.68	30632.93
508.85	30689.10
509.03	30866.98
509.20	30976.99
509.38	31180.62
509.55	31349.14
509.73	30895.07
509.90	30742.94
510.08	31367.86
510.25	31197.00
510.42	31297.64
510.60	31213.38
510.77	31604.25
510.95	31536.38
511.12	31356.16
511.30	31866.39
511.47	32126.19
511.64	32044.27
511.82	32238.54
511.99	31955.33
512.17	32325.14
512.34	32016.19
512.51	32161.30
512.69	32500.68
512.86	32496.00
513.04	32615.37
513.21	32446.85
513.38	32723.03
513.56	32678.56
513.73	32343.86
513.90	32816.65
514.08	32718.35
514.25	33022.62
514.43	32776.86
514.60	32680.90
514.77	32779.20
514.95	33467.32
515.12	33029.64
515.29	33261.35
515.47	33722.44
515.64	33338.59
515.81	33418.17
515.99	33776.27
516.16	33521.15
516.33	33268.37
516.51	33483.70
516.68	32893.89
516.85	33153.69
517.03	33263.69
517.20	33682.65
517.37	34260.76
517.54	33844.15
517.72	34127.35
517.89	33713.08
518.06	33921.38
518.24	33993.94
518.41	33926.07
518.58	34429.28
518.75	34338.00
518.93	34330.98
519.10	34384.81
519.27	34471.41
519.45	34993.35
519.62	35033.14
519.79	34920.79
519.96	35091.65
520.14	35030.80
520.31	34836.53
520.48	35227.40
520.65	34983.99
520.83	35487.20
521.00	35594.87
521.17	35466.14
521.34	35826.58
521.52	36091.06
521.69	35945.95
521.86	35435.71
522.03	35859.35
522.20	35466.14
522.38	35847.64
522.55	36460.87
522.72	36081.70
522.89	36336.82
523.07	36116.81
523.24	36261.92
523.41	36704.28
523.58	36598.96
523.75	36940.68
523.92	36776.84
524.10	36730.03
524.27	36996.85
524.44	36772.16
524.61	36711.30
524.78	37116.22
524.96	37223.88
525.13	37256.65
525.30	37670.92
525.47	37308.14
525.64	37280.05
525.81	37247.29
525.98	37741.14
526.16	36638.75
526.33	36744.07
526.50	36833.01
526.67	36924.29
526.84	37020.25
527.01	36907.91
527.18	37247.29
527.36	37301.12
527.53	37752.84
527.70	38099.24
527.87	37844.12
528.04	37778.59
528.21	38139.03
528.38	38043.07
528.55	38642.24
528.72	38574.37
528.89	38675.01
529.07	38742.89
529.24	38366.06
529.41	38293.50
529.58	38480.75
529.75	38370.74
529.92	38529.90
530.09	38796.72
530.26	38967.58
530.43	38955.88
530.60	38859.91
530.77	39166.52
530.94	39138.44
531.11	39281.21
531.28	38873.96
531.46	39100.99
531.63	38902.04
531.80	39189.93
531.97	39077.58
532.14	38747.57
532.31	38749.91
532.48	39182.91
532.65	39386.54
532.82	39398.24
532.99	39538.67
533.16	39400.58
533.33	39592.50
533.50	39351.43
533.67	39875.71
533.84	39707.19
534.01	39810.17
534.18	39789.11
534.35	39789.11
534.52	39660.38
534.69	39852.30
534.86	40329.77
535.03	40259.55
535.20	40425.73
535.37	40795.54
535.54	40514.67
535.71	40308.71
535.88	40179.98
536.05	39824.22
536.22	40397.65
536.38	40528.72
536.55	40353.18
536.72	40287.64
536.89	40144.87
537.06	40203.38
537.23	41008.53
537.40	40275.94
537.57	40699.58
537.74	40650.42
537.91	41088.10
538.08	41305.77
538.25	40643.40
538.42	40875.12
538.59	41357.27
538.75	40486.59
538.92	40975.76
539.09	41045.97
539.26	40928.95
539.43	41268.33
539.60	41233.22
539.77	41074.06
539.94	40788.52
540.11	41198.11
540.28	41198.11
540.44	41280.03
540.61	40926.61
540.78	41031.93
540.95	41277.69
541.12	41504.72
541.29	41296.41
541.46	41432.16
541.62	41085.76
541.79	41874.52
541.96	41067.04
542.13	41303.43
542.30	41448.55
542.47	41425.14
542.63	41900.27
542.80	41783.24
542.97	42227.95
543.14	41951.76
543.31	42181.13
543.48	42106.24
543.64	42522.85
543.81	43007.34
543.98	42494.77
544.15	42319.23
544.32	42717.12
544.48	42660.94
544.65	42227.95
544.82	42454.98
544.99	42127.30
545.16	42588.39
545.32	42356.67
545.49	42682.01
545.66	43103.31
545.83	42658.60
546.00	43070.54
546.16	42808.40
546.33	43040.11
546.50	42595.41
546.67	43063.52
546.83	42583.71
547.00	43220.33
547.17	42988.62
547.34	42712.44
547.50	42976.92
547.67	43290.55
547.84	42852.87
548.00	43042.45
548.17	43208.63
548.34	43140.75
548.51	43562.05
548.67	43835.89
548.84	43725.89
549.01	42986.28
549.18	43391.19
549.34	43079.90
549.51	42979.26
549.68	43777.38
549.84	43250.76
550.01	43210.97
550.18	43129.05
550.34	43814.83
550.51	43543.33
550.68	43632.27
550.84	43028.41
551.01	43988.03
551.18	43800.79
551.34	43587.80
551.51	43646.31
551.68	43971.64
551.84	43962.28
552.01	43608.86
552.18	43777.38
552.34	43854.62
552.51	44156.55
552.68	43683.76
552.84	44168.25
553.01	44140.16
553.18	43772.70
553.34	44292.30
553.51	43798.44
553.67	44327.41
553.84	44509.97
554.01	44528.69
554.17	44278.25
554.34	44025.48
554.51	44587.21
554.67	44376.56
554.84	44027.82
555.00	43931.86
555.17	44004.41
555.33	44404.64
555.50	44514.65
555.67	44425.71
555.83	44339.11
556.00	44573.16
556.16	44830.62
556.33	44240.81
556.50	44655.08
556.66	44308.68
556.83	44273.57
556.99	44196.34
557.16	44406.98
557.32	44252.51
557.49	44875.09
557.65	44011.43
557.82	44690.19
557.98	44577.84
558.15	44699.55
558.32	45013.18
558.48	44355.49
558.65	44631.68
558.81	44456.14
558.98	44336.77
559.14	44947.65
559.31	44933.60
559.47	44858.71
559.64	44626.99
559.80	44648.06
559.97	44914.88
560.13	44369.54
560.30	44690.19
560.46	45155.96
560.63	44935.95
560.79	44762.75
560.96	44947.65
561.12	45249.58
561.29	44737.00
561.45	44802.53
561.61	44683.17
561.78	44432.73
561.94	44484.22
562.11	45052.97
562.27	44882.11
562.44	45439.16
562.60	45071.70
562.77	45045.95
562.93	45003.82
563.10	45535.12
563.26	44816.58
563.42	45387.67
563.59	45102.12
563.75	45345.54
563.92	45382.99
564.08	45380.65
564.24	45844.07
564.41	45064.67
564.57	45413.41
564.74	45144.25
564.90	45352.56
565.07	45574.91
565.23	45265.96
565.39	44477.20
565.56	44889.13
565.72	45333.84
565.88	45368.94
566.05	45375.97
566.21	45069.36
566.38	45530.44
566.54	45448.52
566.70	45691.94
566.87	46167.07
567.03	45375.97
567.19	46202.18
567.36	45478.95
567.52	45652.15
567.68	45455.54
567.85	44797.85
568.01	45731.73
568.17	45595.98
568.34	45579.59
568.50	45455.54
568.66	45347.88
568.83	45062.33
568.99	45336.18
569.15	45216.81
569.32	45221.49
569.48	45703.64
569.64	45595.98
569.81	45457.88
569.97	45188.72
570.13	45532.78
570.30	45326.81
570.46	45160.64
570.62	44659.76
570.78	44638.70
570.95	45048.29
571.11	45226.17
571.27	45209.79
571.43	45022.54
571.60	45415.76
571.76	45170.00
571.92	45214.47
572.09	45481.29
572.25	45656.83
572.41	45703.64
572.57	45778.54
572.74	45890.88
572.90	45748.11
573.06	45862.80
573.22	45446.18
573.38	45633.42
573.55	45909.61
573.71	45876.84
573.87	45977.48
574.03	45572.57
574.20	45804.28
574.36	45621.72
574.52	45687.26
574.68	45179.36
574.84	45462.57
575.01	45656.83
575.17	45500.01
575.33	45535.12
575.49	45139.57
575.65	45675.55
575.82	46089.83
575.98	45202.77
576.14	45773.86
576.30	45769.18
576.46	45614.70
576.62	45521.08
576.79	45474.27
576.95	45207.45
577.11	45600.66
577.27	45584.27
577.43	45345.54
577.59	45776.20
577.75	45675.55
577.92	45188.72
578.08	45305.75
578.24	45322.13
578.40	45514.06
578.56	45787.90
578.72	45436.82
578.88	46050.04
579.04	45876.84
579.21	45734.07
579.37	45626.40
579.53	45792.58
579.69	45235.53
579.85	45380.65
580.01	45385.33
580.17	45390.01
580.33	45535.12
580.49	45612.36
580.65	45729.39
580.82	45303.41
580.98	45464.91
581.14	45387.67
581.30	45778.54
581.46	45666.19
581.62	45717.68
581.78	45991.53
581.94	45841.73
582.10	45357.24
582.26	45799.60
582.42	45228.51
582.58	45762.15
582.74	45874.50
582.90	45312.77
583.06	46274.73
583.22	45607.68
583.38	45818.33
583.54	46337.93
583.70	45993.87
583.86	45839.39
584.02	45324.47
584.18	45434.48
584.34	45846.41
584.50	45874.50
584.66	45565.55
584.82	45448.52
584.98	45942.38
585.14	46028.98
585.30	45488.31
585.46	45102.12
585.62	44968.71
585.78	45549.17
585.94	45455.54
586.10	45361.92
586.26	45390.01
586.42	45729.39
586.58	45696.62
586.74	46141.32
586.90	45495.33
587.06	45727.05
587.22	45736.41
587.38	45652.15
587.54	45731.73
587.70	46054.72
587.86	45734.07
588.02	45553.85
588.18	46099.19
588.34	45904.93
588.49	45167.66
588.65	45095.10
588.81	45003.82
588.97	45031.91
589.13	45172.34
589.29	45750.45
589.45	45427.46
589.61	45434.48
589.77	45598.32
589.93	46017.27
590.08	46036.00
590.24	45361.92
590.40	45649.81
590.56	46017.27
590.72	45860.46
590.88	45404.05
591.04	46007.91
591.20	45731.73
591.35	45762.15
591.51	46431.55
591.67	45823.01
591.83	45827.69
591.99	45598.32
592.15	45675.55
592.31	46099.19
592.46	45771.52
592.62	45855.78
592.78	45813.65
592.94	46398.78
593.10	45989.19
593.26	46513.47
593.41	46099.19
593.57	45642.79
593.73	46050.04
593.89	45893.22
594.05	45991.53
594.20	45701.30
594.36	45825.35
594.52	46363.67
594.68	45670.87
594.84	45598.32
594.99	46094.51
595.15	45951.74
595.31	46162.39
595.47	45954.08
595.62	46043.02
595.78	46410.48
595.94	46099.19
596.10	46134.30
596.25	46167.07
596.41	45923.65
596.57	45708.32
596.73	45813.65
596.88	45593.64
597.04	45965.78
597.20	45834.71
597.36	45872.16
597.51	46052.38
597.67	45610.02
597.83	45984.51
597.99	46021.95
598.14	46405.80
598.30	45556.19
598.46	45635.77
598.61	45928.33
598.77	46153.02
598.93	46181.11
599.09	45841.73
599.24	46417.50
599.40	45954.08
599.56	45820.67
599.71	46124.94
599.87	46272.39
600.03	46000.89
600.18	45825.35
600.34	45928.33
600.50	45839.39
600.65	45743.43
600.81	46075.79
600.97	46075.79
601.12	45972.80
601.28	45771.52
601.44	45787.90
601.59	45853.44
601.75	45703.64
601.91	45565.55
602.06	45806.62
602.22	46075.79
602.37	45720.02
602.53	45605.34
602.69	46064.08
602.84	46143.66
603.00	45937.69
603.16	45940.04
603.31	45827.69
603.47	45780.88
603.62	45537.46
603.78	45853.44
603.94	45794.92
604.09	45799.60
604.25	46040.68
604.40	45516.40
604.56	45853.44
604.71	46103.87
604.87	46014.93
605.03	45406.39
605.18	45303.41
605.34	45680.24
605.49	45347.88
605.65	45930.67
605.80	45617.04
605.96	45876.84
606.12	46054.72
606.27	45888.54
606.43	45439.16
606.58	45776.20
606.74	46108.55
606.89	45762.15
607.05	45799.60
607.20	45874.50
607.36	45804.28
607.51	46045.36
607.67	45762.15
607.82	45443.84
607.98	45773.86
608.13	45394.69
608.29	45216.81
608.44	45549.17
608.60	45649.81
608.75	45799.60
608.91	45095.10
609.06	45282.34
609.22	45687.26
609.37	45638.11
609.53	45724.71
609.68	45413.41
609.84	45298.73
609.99	45251.92
610.15	45315.11
610.30	45284.68
610.46	45523.42
610.61	45118.51
610.76	45305.75
610.92	45640.45
611.07	45258.94
611.23	45397.03
611.38	45825.35
611.54	45291.71
611.69	44797.85
611.84	44847.00
612.00	44825.94
612.15	44786.15
612.31	45336.18
612.46	44940.63
612.62	45214.47
612.77	45153.62
612.92	45404.05
613.08	44774.45
613.23	44439.75
613.39	44488.90
613.54	44783.81
613.69	44938.29
613.85	44423.37
614.00	45003.82
614.15	44952.33
614.31	44987.44
614.46	44912.54
614.62	44748.70
614.77	44755.72
614.92	44999.14
615.08	44533.37
615.23	45006.16
615.38	44739.34
615.54	44109.74
615.69	44891.48
615.84	44346.13
616.00	44442.09
616.15	44325.07
616.30	44610.61
616.46	44392.94
616.61	44201.02
616.76	43999.73
616.92	44165.91
617.07	44247.83
617.22	44055.90
617.37	44404.64
617.53	44495.92
617.68	44547.42
617.83	44404.64
617.99	44226.76
618.14	43810.15
618.29	44591.89
618.45	43810.15
618.60	44058.24
618.75	43714.19
618.90	43611.20
619.06	43854.62
619.21	44032.50
619.36	44062.93
619.51	44203.36
619.67	43704.82
619.82	43515.24
619.97	44020.80
620.12	43405.23
620.28	43288.21
620.43	43435.66
620.58	43826.53
620.73	43892.07
620.89	43449.70
621.04	44254.85
621.19	43859.30
621.34	43580.78
621.49	43629.93
621.65	43220.33
621.80	43931.86
621.95	43777.38
622.10	43641.63
622.25	43210.97
622.41	43356.08
622.56	43335.02
622.71	43721.21
622.86	43072.88
623.01	43423.96
623.16	43138.41
623.32	42829.46
623.47	43452.05
623.62	43171.18
623.77	43299.91
623.92	43414.60
624.07	42684.35
624.23	42995.64
624.38	43330.34
624.53	42904.36
624.68	43150.12
624.83	43168.84
624.98	43105.65
625.13	42878.61
625.29	42674.99
625.44	42611.79
625.59	43030.75
625.74	42649.24
625.89	42518.17
626.04	42614.13
626.19	42653.92
626.34	42806.06
626.49	43021.39
626.65	42583.71
626.80	42689.03
626.95	42382.42
627.10	42686.69
627.25	42466.68
627.40	42253.69
627.55	41991.55
627.70	42429.23
627.85	42457.32
628.00	42494.77
628.15	42616.47
628.30	42117.94
628.45	42059.43
628.60	42211.56
628.76	42389.44
628.91	42569.66
629.06	42192.84
629.21	42026.66
629.36	42061.77
629.51	42129.64
629.66	41947.08
629.81	41886.23
629.96	41691.96
630.11	42307.52
630.26	41813.67
630.41	41794.95
630.56	41918.99
630.71	41766.86
630.86	41937.72
631.01	41638.13
631.16	41731.75
631.31	41404.08
631.46	41244.92
631.61	41677.92
631.76	41649.83
631.91	41715.37
632.06	42099.22
632.21	41762.18
632.36	41984.53
632.51	41153.64
632.66	41509.40
632.81	41184.07
632.96	41415.78
633.10	41099.81
633.25	41261.30
633.40	41226.20
633.55	41738.77
633.70	41261.30
633.85	41071.72
634.00	41092.79
634.15	41118.53
634.30	41137.26
634.45	40849.37
634.60	41134.92
634.75	40828.30
634.90	40889.16
635.05	40994.48
635.19	41090.44
635.34	41298.75
635.49	41022.57
635.64	41081.08
635.79	40683.19
635.94	40945.33
636.09	40430.41
636.24	40772.13
636.39	40612.98
636.53	40713.62
636.68	40594.25
636.83	40524.04
636.98	40313.39
637.13	40357.86
637.28	41022.57
637.43	41268.33
637.57	41188.75
637.72	40210.40
637.87	40481.91
638.02	41097.47
638.17	40514.67
638.32	40863.41
638.46	40664.47
638.61	40760.43
638.76	40577.87
638.91	40416.37
639.06	40425.73
639.20	40189.34
639.35	40502.97
639.50	40334.45
639.65	40601.27
639.80	39761.02
639.94	40404.67
640.09	39777.40
640.24	40165.93
640.39	39852.30
640.54	39367.81
640.68	39646.33
640.83	39470.79
640.98	40069.97
641.13	39749.32
641.27	40329.77
641.42	39629.95
641.57	39651.02
641.72	39962.31
641.86	40313.39
642.01	39744.64
642.16	39840.60
642.31	39592.50
642.45	39765.70
642.60	39440.37
642.75	39260.15
642.90	39688.46
643.04	39342.06
643.19	39510.58
643.34	39482.50
643.48	39428.66
643.63	39503.56
643.78	39739.96
643.93	39353.77
644.07	39416.96
644.22	39234.40
644.37	39288.23
644.51	39503.56
644.66	39325.68
644.81	39400.58
644.95	39765.70
645.10	39498.88
645.25	39634.63
645.39	38983.96
645.54	39330.36
645.69	39264.83
645.83	39161.84
645.98	38766.29
646.13	39051.84
646.27	39079.92
646.42	38960.56
646.57	39030.77
646.71	39023.75
646.86	38759.27
647.00	39056.52
647.15	38885.66
647.30	39178.23
647.44	38455.00
647.59	38808.42
647.74	38663.31
647.88	38990.98
648.03	38623.52
648.17	38773.31
648.32	38567.35
648.47	38497.13
648.61	38319.25
648.76	38773.31
648.90	38873.96
649.05	38436.28
649.20	38859.91
649.34	38445.64
649.49	38330.95
649.63	38628.20
649.78	38274.78
649.92	38195.20
650.07	38590.75
650.21	38272.44
650.36	38279.46
650.51	38642.24
650.65	38649.27
650.80	38625.86
650.94	38733.53
651.09	38714.80
651.23	38288.82
651.38	38164.78
651.52	38171.80
651.67	37979.87
651.81	37914.34
651.96	37591.34
652.10	37900.29
652.25	38188.18
652.39	38618.84
652.54	38007.96
652.68	37799.65
652.83	38178.82
652.97	38321.59
653.12	38003.28
653.26	37628.79
653.41	37949.45
653.55	37886.25
653.70	37427.51
653.84	37734.12
653.99	37614.75
654.13	37794.97
654.27	37572.62
654.42	37940.08
654.56	37586.66
654.71	37883.91
654.85	37521.13
655.00	37699.01
655.14	37572.62
655.29	37125.58
655.43	37237.92
655.57	36755.77
655.72	36926.63
655.86	36804.92
656.01	36638.75
656.15	36589.59
656.30	36772.16
656.44	36999.19
656.58	37017.91
656.73	37170.05
656.87	36940.68
657.01	36730.03
657.16	36507.68
657.30	36720.66
657.45	36825.99
657.59	36868.12
657.73	37125.58
657.88	36807.26
658.02	36851.73
658.16	37268.35
658.31	36886.84
658.45	36664.49
658.60	36861.10
658.74	37200.47
658.88	36917.27
659.03	36786.20
659.17	36360.22
659.31	36432.78
659.46	36360.22
659.60	36528.74
659.74	36275.96
659.89	36105.10
660.03	35882.75
660.17	36500.65
660.32	36388.31
660.46	36449.16
660.60	35875.73
660.74	36297.03
660.89	35976.37
661.03	36151.91
661.17	36116.81
661.32	35798.49
661.46	35789.13
661.60	35697.85
661.74	36053.61
661.89	35831.26
662.03	35351.45
662.17	35601.89
662.31	35910.84
662.46	35962.33
662.60	35915.52
662.74	35665.08
662.88	35454.44
663.03	35119.74
663.17	35124.42
663.31	35068.25
663.45	35353.79
663.60	35494.22
663.74	34998.03
663.88	34979.31
664.02	34843.56
664.17	35154.85
664.31	34801.43
664.45	34895.05
664.59	35021.44
664.73	34939.52
664.88	34803.77
665.02	33968.19
665.16	34375.45
665.30	34110.97
665.44	34143.74
665.59	34356.72
665.73	34635.25
665.87	34230.33
666.01	34731.21
666.15	33909.68
666.29	34146.08
666.44	34684.40
666.58	34260.76
666.72	34057.14
666.86	34110.97
667.00	34323.96
667.14	33902.66
667.28	33883.94
667.43	33743.50
667.57	34057.14
667.71	33715.42
667.85	34029.05
667.99	33961.17
668.13	33722.44
668.27	33876.91
668.41	33619.46
668.56	33352.63
668.70	33418.17
668.84	33081.13
668.98	33120.92
669.12	33106.88
669.26	33003.89
669.40	32833.04
669.54	32720.69
669.68	33102.20
669.82	32973.47
669.96	32723.03
670.10	32517.06
670.25	33254.33
670.39	32882.19
670.53	32685.58
670.67	32264.28
670.81	32744.09
670.95	32224.50
671.09	32418.76
671.23	32446.85
671.37	32266.63
671.51	32194.07
671.65	32147.26
671.79	31854.69
671.93	31732.98
672.07	31880.44
672.21	31735.32
672.35	31491.91
672.49	31920.23
672.63	31665.11
672.77	31353.82
672.91	31854.69
673.05	31714.26
673.19	31412.33
673.33	31452.12
673.47	31271.90
673.61	31292.96
673.75	31307.01
673.89	31180.62
674.03	30899.75
674.17	30998.06
674.31	31257.85
674.45	30899.75
674.59	30946.56
674.73	31351.48
674.87	30883.37
675.01	30611.87
675.15	30340.36
675.29	30277.17
675.43	30361.43
675.56	30583.78
675.70	30429.30
675.84	30211.64
675.98	29434.58
676.12	30094.61
676.26	29998.65
676.40	29916.73
676.54	30150.78
676.68	29734.17
676.82	29565.65
676.96	29406.49
677.10	29736.51
677.23	29113.92
677.37	29041.37
677.51	28861.15
677.65	29247.33
677.79	29057.75
677.93	28804.97
678.07	28751.14
678.21	28479.64
678.34	28364.95
678.48	28524.11
678.62	27936.63
678.76	28053.66
678.90	27948.34
679.04	28039.62
679.18	28056.00
679.31	27756.41
679.45	27630.02
679.59	28041.96
679.73	27997.49
679.87	27524.70
680.00	27566.83
680.14	27332.78
680.28	27442.78
680.42	27431.08
680.56	27377.25
680.70	27131.49
680.83	27388.95
680.97	26979.36
681.11	27026.17
681.25	27021.48
681.39	26869.35
681.52	26843.60
681.66	26705.51
681.80	26836.58
681.94	26066.55
682.07	26490.18
682.21	26263.15
682.35	26024.42
682.49	26188.25
682.62	25708.44
682.76	25839.51
682.90	25832.49
683.04	26141.44
683.17	25628.87
683.31	25376.09
683.45	25474.39
683.59	25474.39
683.72	25329.28
683.86	25502.48
684.00	25139.69
684.13	24680.95
684.27	24580.31
684.41	24903.30
684.55	24865.85
684.68	24697.33
684.82	24947.77
684.96	24428.17
685.09	24505.41
685.23	24175.39
685.37	24217.52
685.50	24238.59
685.64	24308.80
685.78	24175.39
685.91	23906.23
686.05	24030.28
686.19	23391.31
686.32	23489.62
686.46	23342.16
686.60	23185.35
686.73	22967.68
686.87	23232.16
687.01	23253.22
687.14	23016.83
687.28	22541.70
687.42	22483.19
687.55	22672.77
687.69	23185.35
687.82	22965.34
687.96	22597.87
688.10	22459.78
688.23	22600.21
688.37	22544.04
688.50	22478.50
688.64	22211.68
688.78	22141.47
688.91	21867.63
689.05	21804.43
689.18	21972.95
689.32	21530.59
689.46	21804.43
689.59	21865.28
689.73	21668.68
689.86	21659.32
690.00	21345.69
690.13	21521.23
690.27	21167.80
690.41	21219.30
690.54	20837.79
690.68	21202.91
690.81	21064.82
690.95	20919.71
691.08	20917.37
691.22	20978.22
691.35	20510.11
691.49	20844.81
691.62	20629.48
691.76	20596.71
691.89	20252.66
692.03	20748.85
692.16	20304.15
692.30	20166.06
692.43	19941.36
692.57	20311.17
692.70	19854.76
692.84	19819.66
692.97	19499.00
693.11	20049.03
693.24	19475.60
693.38	19480.28
693.51	19447.51
693.65	19452.19
693.78	19421.77
693.92	19583.26
694.05	19330.48
694.19	19110.47
694.32	19267.29
694.45	18836.63
694.59	18883.44
694.72	18726.63
694.86	18600.24
694.99	18899.83
695.13	18574.49
695.26	18473.85
695.39	18389.59
695.53	18260.86
695.66	18260.86
695.80	17949.57
695.93	18197.67
696.07	18111.07
696.20	18094.68
696.33	17853.61
696.47	17547.00
696.60	17841.90
696.73	17809.14
696.87	17600.83
697.00	17589.13
697.14	17310.60
697.27	17104.64
697.40	17352.73
697.54	17151.45
697.67	17043.78
697.80	17139.74
697.94	16947.82
698.07	16821.43
698.21	16779.30
698.34	16975.91
698.47	17132.72
698.61	16690.36
698.74	16603.76
698.87	16606.10
699.01	16428.22
699.14	16245.66
699.27	16105.23
699.40	16013.95
699.54	16203.53
699.67	16266.72
699.80	15793.94
699.94	15798.62
700.07	15997.56
700.20	15815.00
700.34	15475.62
700.47	15660.52
700.60	15541.16
700.73	15646.48
700.87	15508.39
701.00	15534.14
701.13	15255.61
701.26	15152.63
701.40	15164.33
701.53	14822.61
701.66	15096.46
701.79	15068.37
701.93	14988.79
702.06	14890.49
702.19	14761.76
702.32	14913.89
702.46	14930.28
702.59	14602.60
702.72	14450.47
702.85	14654.09
702.99	14642.39
703.12	14417.70
703.25	14331.10
703.38	14300.67
703.51	14288.97
703.65	14075.98
703.78	13930.87
703.91	13687.45
704.04	13888.74
704.17	13657.03
704.31	13692.13
704.44	13631.28
704.57	13572.77
704.70	13551.70
704.83	13818.52
704.96	13500.21
705.10	13343.39
705.23	13355.10
>>>>>End Processed Spectral Data<<<<<
