SpectraSuite Data File
++++++++++++++++++++++++++++++++++++
Date: Fri Oct 25 11:34:17 EDT 2013
User: price-jones
Dark Spectrum Present: No
Reference Spectrum Present: No
Number of Sampled Component Spectra: 1
Spectrometers: USB2+H05261
Integration Time (usec): 100000 (USB2+H05261)
Spectra Averaged: 1 (USB2+H05261)
Boxcar Smoothing: 0 (USB2+H05261)
Correct for Electrical Dark: No (USB2+H05261)
Strobe/Lamp Enabled: No (USB2+H05261)
Correct for Detector Non-linearity: No (USB2+H05261)
Correct for Stray Light: No (USB2+H05261)
Number of Pixels in Processed Spectrum: 2048
>>>>>Begin Processed Spectral Data<<<<<
365.73	227.03
365.92	227.03
366.12	227.03
366.32	201.29
366.52	224.69
366.72	173.20
366.91	177.88
367.11	245.76
367.31	175.54
367.51	194.26
367.70	161.50
367.90	201.29
368.10	201.29
368.30	168.52
368.49	182.56
368.69	234.05
368.89	145.11
369.09	248.10
369.28	203.63
369.48	198.95
369.68	189.58
369.87	245.76
370.07	234.05
370.27	238.73
370.47	327.68
370.66	475.13
370.86	496.19
371.06	580.45
371.25	578.11
371.45	610.88
371.65	610.88
371.84	524.28
372.04	521.94
372.24	510.24
372.44	521.94
372.63	507.90
372.83	596.84
373.03	580.45
373.22	667.05
373.42	482.15
373.62	641.31
373.81	695.14
374.01	592.16
374.21	587.47
374.40	678.76
374.60	706.84
374.79	627.26
374.99	669.39
375.19	554.71
375.38	592.16
375.58	650.67
375.78	648.33
375.97	622.58
376.17	660.03
376.37	624.92
376.56	713.86
376.76	674.07
376.95	641.31
377.15	678.76
377.35	620.24
377.54	685.78
377.74	655.35
377.93	709.18
378.13	620.24
378.33	723.23
378.52	620.24
378.72	674.07
378.91	688.12
379.11	669.39
379.31	690.46
379.50	704.50
379.70	720.88
379.89	748.97
380.09	716.20
380.28	758.33
380.48	669.39
380.68	716.20
380.87	704.50
381.07	704.50
381.26	795.78
381.46	753.65
381.65	753.65
381.85	770.04
382.04	699.82
382.24	765.36
382.43	688.12
382.63	737.27
382.83	716.20
383.02	828.55
383.22	861.32
383.41	753.65
383.61	840.25
383.80	763.01
384.00	809.83
384.19	812.17
384.39	844.93
384.58	875.36
384.78	737.27
384.97	807.48
385.17	854.30
385.36	847.27
385.56	793.44
385.75	760.67
385.95	779.40
386.14	896.43
386.34	847.27
386.53	856.64
386.72	849.61
386.92	840.25
387.11	830.89
387.31	915.15
387.50	896.43
387.70	868.34
387.89	929.19
388.09	875.36
388.28	856.64
388.48	868.34
388.67	903.45
388.86	980.68
389.06	873.02
389.25	1020.47
389.45	894.08
389.64	854.30
389.84	896.43
390.03	922.17
390.22	957.28
390.42	968.98
390.61	978.34
390.81	990.05
391.00	866.00
391.19	908.13
391.39	1004.09
391.58	1011.11
391.78	959.62
391.97	999.41
392.16	1057.92
392.36	1102.39
392.55	978.34
392.75	1041.54
392.94	1043.88
393.13	1034.52
393.33	1029.84
393.52	1020.47
393.71	1111.75
393.91	1050.90
394.10	1062.60
394.29	1090.69
394.49	1142.18
394.68	1102.39
394.88	1125.80
395.07	1207.72
395.26	1001.75
395.46	1095.37
395.65	1153.88
395.84	1170.27
396.04	1231.12
396.23	1188.99
396.42	1170.27
396.62	1212.40
396.81	1191.33
397.00	1203.04
397.19	1193.67
397.39	1210.06
397.58	1249.85
397.77	1242.82
397.97	1242.82
398.16	1177.29
398.35	1331.76
398.55	1306.02
398.74	1193.67
398.93	1331.76
399.12	1329.42
399.32	1268.57
399.51	1376.24
399.70	1352.83
399.90	1376.24
400.09	1329.42
400.28	1378.58
400.47	1280.27
400.67	1355.17
400.86	1338.79
401.05	1359.85
401.24	1521.35
401.44	1416.02
401.63	1390.28
401.82	1378.58
402.01	1399.64
402.21	1401.98
402.40	1341.13
402.59	1441.77
402.78	1481.56
402.97	1476.88
403.17	1589.22
403.36	1394.96
403.55	1516.67
403.74	1490.92
403.93	1554.12
404.13	1654.76
404.32	1558.80
404.51	1533.05
404.70	1659.44
404.89	1619.65
405.09	1603.27
405.28	1631.35
405.47	1584.54
405.66	1675.82
405.85	1664.12
406.05	1624.33
406.24	1729.66
406.43	1692.21
406.62	1678.16
406.81	1724.97
407.00	1720.29
407.20	1736.68
407.39	1741.36
407.58	1764.76
407.77	1750.72
407.96	1820.94
408.15	1865.41
408.34	1739.02
408.54	1823.28
408.73	1809.23
408.92	1750.72
409.11	1867.75
409.30	1959.03
409.49	1872.43
409.68	1984.77
409.87	1973.07
410.07	1968.39
410.26	1952.01
410.45	2029.24
410.64	2019.88
410.83	2122.87
411.02	2078.40
411.21	2122.87
411.40	2106.48
411.59	2228.19
411.78	2040.95
411.98	2153.29
412.17	2214.15
412.36	2176.70
412.55	2218.83
412.74	2237.55
412.93	2312.45
413.12	2176.70
413.31	2370.96
413.50	2352.24
413.69	2282.02
413.88	2450.54
414.07	2389.69
414.26	2511.39
414.45	2462.24
414.64	2424.80
414.83	2476.29
415.02	2572.25
415.22	2651.83
415.41	2520.76
415.60	2672.89
415.79	2684.59
415.98	2675.23
416.17	2740.77
416.36	2640.12
416.55	2630.76
416.74	2722.04
416.93	2775.88
417.12	2703.32
417.31	2951.42
417.50	2766.51
417.69	2799.28
417.88	2913.97
418.07	2820.35
418.26	2832.05
418.45	2911.63
418.64	3091.85
418.83	2857.79
419.02	2949.08
419.21	2986.52
419.39	3108.23
419.58	2944.39
419.77	3005.25
419.96	3101.21
420.15	3166.74
420.34	2984.18
420.53	2981.84
420.72	3220.58
420.91	3145.68
421.10	3136.32
421.29	3220.58
421.48	3061.42
421.67	3241.64
421.86	3162.06
422.05	3213.56
422.24	3173.77
422.43	3323.56
422.61	3342.28
422.80	3365.69
422.99	3307.18
423.18	3316.54
423.37	3356.33
423.56	3382.07
423.75	3276.75
423.94	3225.26
424.13	3103.55
424.32	3155.04
424.50	3365.69
424.69	3503.78
424.88	3456.97
425.07	3379.73
425.26	3370.37
425.45	3349.31
425.64	3248.66
425.83	3295.47
426.01	3407.82
426.20	3365.69
426.39	3398.46
426.58	3382.07
426.77	3342.28
426.96	3358.67
427.15	3417.18
427.33	3428.88
427.52	3501.44
427.71	3559.95
427.90	3545.91
428.09	3513.14
428.28	3499.10
428.46	3583.36
428.65	3623.15
428.84	3786.99
429.03	3571.66
429.22	3637.19
429.40	3616.13
429.59	3695.71
429.78	3508.46
429.97	3667.62
430.16	3733.15
430.34	3721.45
430.53	3728.47
430.72	3796.35
430.91	3789.33
431.10	3779.97
431.28	3782.31
431.47	3889.97
431.66	3918.06
431.85	3798.69
432.03	3915.72
432.22	4007.00
432.41	3988.27
432.60	3962.53
432.79	4018.70
432.97	3967.21
433.16	3943.80
433.35	3946.14
433.54	4039.76
433.72	4091.26
433.91	4105.30
434.10	3960.19
434.28	4091.26
434.47	3997.64
434.66	4294.88
434.85	4215.30
435.03	4266.80
435.22	4140.41
435.41	4315.95
435.59	4219.99
435.78	4325.31
435.97	4276.16
436.16	4360.42
436.34	4243.39
436.53	4379.14
436.72	4475.10
436.90	4269.14
437.09	4407.23
437.28	4294.88
437.46	4358.08
437.65	4524.26
437.84	4461.06
438.02	4442.34
438.21	4486.81
438.40	4402.55
438.58	4472.76
438.77	4664.69
438.96	4676.39
439.14	4669.37
439.33	4777.03
439.52	4748.95
439.70	4732.56
439.89	4915.12
440.08	4917.47
440.26	4894.06
440.45	4896.40
440.63	4990.02
440.82	4968.96
441.01	4987.68
441.19	4994.70
441.38	5074.28
441.57	5064.92
441.75	5174.92
441.94	5184.29
442.12	5268.55
442.31	5217.05
442.50	5357.49
442.68	5172.58
442.87	5357.49
443.05	5341.10
443.24	5390.25
443.43	5247.48
443.61	5315.36
443.80	5472.17
443.98	5235.78
444.17	5156.20
444.35	5423.02
444.54	5547.07
444.73	5687.50
444.91	5336.42
445.10	5401.96
445.28	5528.35
445.47	5348.12
445.65	5416.00
445.84	5509.62
446.02	5537.71
446.21	5481.53
446.39	5359.83
446.58	5540.05
446.77	5542.39
446.95	5530.69
447.14	5497.92
447.32	5474.51
447.51	5472.17
447.69	5668.78
447.88	5561.11
448.06	5762.40
448.25	5593.88
448.43	5657.07
448.62	5497.92
448.80	5771.76
448.99	5554.09
449.17	5729.63
449.36	5647.71
449.54	5701.54
449.73	5959.00
449.91	5949.64
450.10	6043.26
450.28	6036.24
450.46	6031.56
450.65	5928.58
450.83	5954.32
451.02	5949.64
451.20	5874.74
451.39	6029.22
451.57	5968.37
451.76	6008.16
451.94	6125.18
452.13	6036.24
452.31	6193.06
452.49	6031.56
452.68	6146.25
452.86	5954.32
453.05	6270.30
453.23	6373.28
453.42	6258.59
453.60	6265.61
453.78	6401.37
453.97	6143.91
454.15	6143.91
454.34	6209.44
454.52	6349.87
454.70	6483.28
454.89	6310.08
455.07	6317.11
455.26	6361.58
455.44	6586.27
455.62	6289.02
455.81	6551.16
455.99	6434.13
456.17	6686.91
456.36	6537.12
456.54	6551.16
456.73	6792.23
456.91	6691.59
457.09	6689.25
457.28	6850.75
457.46	6740.74
457.64	6799.26
457.83	6883.52
458.01	6757.13
458.19	6960.75
458.38	6864.79
458.56	7026.29
458.74	6883.52
458.93	6932.67
459.11	6981.82
459.29	6881.18
459.48	7190.13
459.66	7183.10
459.84	7143.32
460.03	7304.81
460.21	7194.81
460.39	7192.47
460.57	7066.08
460.76	7140.97
460.94	7339.92
461.12	7218.21
461.31	7342.26
461.49	7258.00
461.67	7105.87
461.85	7515.46
462.04	7316.51
462.22	7772.92
462.40	7503.76
462.59	7365.67
462.77	7440.56
462.95	7508.44
463.13	7412.48
463.32	7578.65
463.50	7691.00
463.68	7730.79
463.86	7728.45
464.05	7475.67
464.23	7611.42
464.41	7686.32
464.59	7578.65
464.78	7714.41
464.96	7859.52
465.14	7676.96
465.32	7857.18
465.50	7815.05
465.69	8156.77
465.87	7929.74
466.05	7850.16
466.23	7808.03
466.41	7985.91
466.60	8131.02
466.78	8065.49
466.96	7988.25
467.14	7939.10
467.32	7985.91
467.51	8140.38
467.69	7927.39
467.87	8042.08
468.05	8285.50
468.23	7960.16
468.41	8074.85
468.60	8285.50
468.78	8273.79
468.96	8365.07
469.14	8229.32
469.32	8362.73
469.50	8177.83
469.69	8514.87
469.87	8423.59
470.05	8407.20
470.23	8484.44
470.41	8531.25
470.59	8273.79
470.77	8468.06
470.95	8769.99
471.14	8732.54
471.32	8662.32
471.50	8851.91
471.68	8657.64
471.86	8868.29
472.04	8997.02
472.22	9193.62
472.40	9015.74
472.58	9039.15
472.77	9008.72
472.95	9076.60
473.13	9444.06
473.31	9111.71
473.49	9048.51
473.67	9202.99
473.85	9202.99
474.03	9359.80
474.21	9694.50
474.39	9612.58
474.57	9483.85
474.75	9486.19
474.93	9563.43
475.12	9659.39
475.30	9729.61
475.48	9748.33
475.66	9813.87
475.84	9769.40
476.02	9949.62
476.20	9940.26
476.38	9942.60
476.56	10176.65
476.74	10415.38
476.92	9916.85
477.10	10134.52
477.28	10251.55
477.46	10307.72
477.64	10635.39
477.82	10609.65
478.00	10738.38
478.18	10906.90
478.36	10740.72
478.54	10993.50
478.72	11213.51
478.90	11257.98
479.08	11267.34
479.26	11332.87
479.44	11206.48
479.62	11477.99
479.80	11297.77
479.98	11508.41
480.16	11688.64
480.34	11810.34
480.52	11800.98
480.70	11976.52
480.88	11768.21
481.06	11831.41
481.24	12208.23
481.41	12070.14
481.59	12201.21
481.77	12255.04
481.95	12610.81
482.13	12795.71
482.31	12741.88
482.49	12982.95
482.67	13069.55
482.85	13181.90
483.03	13043.81
483.21	13111.68
483.39	13355.10
483.57	13376.16
483.74	13462.76
483.92	13589.15
484.10	13591.49
484.28	13947.25
484.46	14101.73
484.64	14162.58
484.82	13841.93
485.00	14207.05
485.18	14408.34
485.35	14516.00
485.53	14546.43
485.71	14497.28
485.89	14974.75
486.07	15070.71
486.25	14862.40
486.43	14998.15
486.61	15241.57
486.78	15260.29
486.96	15194.76
487.14	15700.31
487.32	15583.29
487.50	15824.36
487.68	15892.24
487.85	15962.45
488.03	16093.52
488.21	16350.98
488.39	16379.07
488.57	16423.54
488.75	16634.19
488.92	16816.75
489.10	16753.55
489.28	16996.97
489.46	17099.95
489.64	17167.83
489.81	17818.50
489.99	17394.86
490.17	17488.48
490.35	18001.06
490.53	18012.76
490.70	18153.20
490.88	17937.87
491.06	18469.17
491.24	17975.31
491.41	18249.16
491.59	18588.53
491.77	18813.23
491.95	18820.25
492.13	18785.14
492.30	19084.73
492.48	19096.43
492.66	19286.01
492.84	19330.48
493.01	19475.60
493.19	19501.34
493.37	19761.14
493.54	19721.35
493.72	19878.17
493.90	19798.59
494.08	20098.18
494.25	20554.58
494.43	20210.53
494.61	20416.49
494.79	20669.27
494.96	20425.86
495.14	20744.17
495.32	21020.35
495.49	21032.05
495.67	21041.42
495.85	21259.09
496.02	21422.92
496.20	21322.28
496.38	21701.45
496.55	21443.99
496.73	22178.92
496.91	21738.90
497.09	22235.09
497.26	22324.03
497.44	21750.60
497.62	21862.94
497.79	22731.28
497.97	22431.69
498.14	22881.08
498.32	23012.15
498.50	23033.21
498.67	22979.38
498.85	23243.86
499.03	23412.38
499.20	23197.05
499.38	23384.29
499.56	23496.64
499.73	23293.01
499.91	23770.48
500.08	23821.97
500.26	23686.22
500.44	24191.78
500.61	24002.19
500.79	24034.96
500.97	24102.84
501.14	24439.87
501.32	24376.68
501.49	24620.10
501.67	24629.46
501.84	25013.31
502.02	24776.91
502.20	24507.75
502.37	24734.78
502.55	25249.70
502.72	25015.65
502.90	25102.25
503.07	24922.02
503.25	25057.78
503.43	25109.27
503.60	25319.92
503.78	25720.15
503.95	25518.86
504.13	25486.09
504.30	25900.37
504.48	25914.41
504.65	25830.15
504.83	26008.03
505.01	25993.99
505.18	26405.92
505.36	26375.50
505.53	26457.42
505.71	26682.11
505.88	26546.36
506.06	26342.73
506.23	26647.00
506.41	26314.64
506.58	26927.86
506.76	26513.59
506.93	27398.31
507.11	27016.80
507.28	26972.33
507.46	27484.91
507.63	27283.62
507.81	27711.94
507.98	27541.08
508.16	27653.43
508.33	27700.24
508.50	27974.08
508.68	27871.10
508.85	28166.01
509.03	27789.18
509.20	27946.00
509.38	28205.80
509.55	28196.43
509.73	28453.89
509.90	28582.62
510.08	28364.95
510.25	28474.96
510.42	28634.11
510.60	28709.01
510.77	29017.96
510.95	29268.40
511.12	28762.84
511.30	28931.36
511.47	28966.47
511.64	29099.88
511.82	29317.55
511.99	29333.93
512.17	29331.59
512.34	29387.77
512.51	30171.85
512.69	29607.78
512.86	30061.84
513.04	29525.86
513.21	30057.16
513.38	29975.24
513.56	29993.97
513.73	29933.11
513.90	30141.42
514.08	30253.76
514.25	30604.84
514.43	30403.56
514.60	30604.84
514.77	30483.14
514.95	30302.92
515.12	30527.61
515.29	30932.52
515.47	30735.92
515.64	30960.61
515.81	30955.93
515.99	31084.65
516.16	31592.55
516.33	31199.34
516.51	31342.11
516.68	31058.91
516.85	31292.96
517.03	31534.04
517.20	31660.43
517.37	31538.72
517.54	31466.16
517.72	31805.54
517.89	31931.93
518.06	31889.80
518.24	32376.63
518.41	31826.60
518.58	31955.33
518.75	31810.22
518.93	31943.63
519.10	32161.30
519.27	31875.76
519.45	32378.97
519.62	32294.71
519.79	32264.28
519.96	32268.97
520.14	32556.85
520.31	32552.17
520.48	33305.82
520.65	32730.05
520.83	33443.91
521.00	33125.60
521.17	33558.60
521.34	33369.02
521.52	32921.98
521.69	33333.91
521.86	33523.49
522.03	33420.51
522.20	34338.00
522.38	34125.01
522.55	34087.56
522.72	33867.55
522.89	33408.81
523.07	34139.05
523.24	33823.08
523.41	34225.65
523.58	34356.72
523.75	34218.63
523.92	34319.28
524.10	34670.36
524.27	34646.95
524.44	34373.11
524.61	34672.70
524.78	34609.50
524.96	35065.91
525.13	35189.95
525.30	35395.92
525.47	34972.28
525.64	34637.59
525.81	35033.14
525.98	34831.85
526.16	35199.32
526.33	35140.80
526.50	35353.79
526.67	35101.01
526.84	35576.14
527.01	35461.46
527.18	35508.27
527.36	35608.91
527.53	35545.72
527.70	35761.05
527.87	35845.30
528.04	35487.20
528.21	35793.81
528.38	35772.75
528.55	35906.16
528.72	35573.80
528.89	35824.24
529.07	36147.23
529.24	36182.34
529.41	36425.76
529.58	36294.69
529.75	36030.21
529.92	36446.82
530.09	36577.89
530.26	36751.09
530.43	36715.98
530.60	36261.92
530.77	36308.73
530.94	36350.86
531.11	36360.22
531.28	37048.34
531.46	36758.11
531.63	37074.09
531.80	36664.49
531.97	37392.40
532.14	37118.56
532.31	36720.66
532.48	36907.91
532.65	37303.46
532.82	37141.96
532.99	37118.56
533.16	37130.26
533.33	37425.17
533.50	38068.81
533.67	37251.97
533.84	37406.44
534.01	37900.29
534.18	37949.45
534.35	37921.36
534.52	37940.08
534.69	38270.10
534.86	38281.80
535.03	37766.88
535.20	38291.16
535.37	38185.84
535.54	38560.33
535.71	38169.46
535.88	38445.64
536.05	38445.64
536.22	38696.08
536.38	38258.40
536.55	38356.70
536.72	38511.17
536.89	38426.92
537.06	38761.61
537.23	38813.10
537.40	38632.88
537.57	38569.69
537.74	38593.09
537.91	38714.80
538.08	38862.26
538.25	38677.35
538.42	38326.27
538.59	39377.17
538.75	38653.95
538.92	39180.57
539.09	39267.17
539.26	39070.56
539.43	39405.26
539.60	39363.13
539.77	39248.44
539.94	39566.76
540.11	39372.49
540.28	39641.65
540.44	39606.55
540.61	39639.31
540.78	39604.20
540.95	39594.84
541.12	39833.58
541.29	39386.54
541.46	39906.13
541.62	39831.24
541.79	39775.06
541.96	39526.97
542.13	40149.55
542.30	40046.57
542.47	40011.46
542.63	40147.21
542.80	40264.24
542.97	40313.39
543.14	40634.04
543.31	40432.75
543.48	40659.79
543.64	40935.97
543.81	40577.87
543.98	40683.19
544.15	40418.71
544.32	40847.03
544.48	40959.38
544.65	40699.58
544.82	40978.10
544.99	40818.94
545.16	40727.66
545.32	40921.93
545.49	41539.83
545.66	41907.29
545.83	41064.70
546.00	41518.76
546.16	41148.96
546.33	40840.01
546.50	40910.22
546.67	41352.58
546.83	40580.21
547.00	41188.75
547.17	41457.91
547.34	41247.26
547.50	41504.72
547.67	41773.88
547.84	41394.71
548.00	41682.60
548.17	42237.31
548.34	41816.01
548.51	41853.46
548.67	41820.69
548.84	41593.66
549.01	41614.72
549.18	42164.75
549.34	42197.52
549.51	42162.41
549.68	42426.89
549.84	41965.81
550.01	42588.39
550.18	42220.92
550.34	42347.31
550.51	42342.63
550.68	42733.50
550.84	41855.80
551.01	42452.64
551.18	42106.24
551.34	42546.26
551.51	42656.26
551.68	42824.78
551.84	42642.22
552.01	42108.58
552.18	42101.56
552.34	41764.52
552.51	42588.39
552.68	42066.45
552.84	42473.70
553.01	42609.45
553.18	42754.57
553.34	43058.84
553.51	42895.00
553.67	42810.74
553.84	43117.35
554.01	42862.23
554.17	43075.22
554.34	43171.18
554.51	42983.94
554.67	43246.08
554.84	43519.92
555.00	42878.61
555.17	42637.54
555.33	43129.05
555.50	43131.39
555.67	43178.20
555.83	43374.81
556.00	43407.58
556.16	43758.66
556.33	43182.88
556.50	43372.47
556.66	43627.59
556.83	43381.83
556.99	43742.27
557.16	43550.35
557.32	43597.16
557.49	43484.81
557.65	43112.67
557.82	43672.06
557.98	43550.35
558.15	43985.69
558.32	43899.09
558.48	43517.58
558.65	43627.59
558.81	43845.26
558.98	43920.15
559.14	43655.67
559.31	43737.59
559.47	43665.03
559.64	43702.48
559.80	43753.97
559.97	43952.92
560.13	44149.53
560.30	43695.46
560.46	44205.70
560.63	44212.72
560.79	44692.53
560.96	44114.42
561.12	44126.12
561.29	44439.75
561.45	44273.57
561.61	44133.14
561.78	44392.94
561.94	44528.69
562.11	44238.47
562.27	44343.79
562.44	44247.83
562.60	44355.49
562.77	44605.93
562.93	44032.50
563.10	45177.02
563.26	44266.55
563.42	44648.06
563.59	44430.39
563.75	44587.21
563.92	44793.17
564.08	44428.05
564.24	44912.54
564.41	44561.46
564.57	44751.04
564.74	44575.50
564.90	44561.46
565.07	44921.90
565.23	44790.83
565.39	44680.83
565.56	44509.97
565.72	44711.25
565.88	44905.52
566.05	44669.12
566.21	44949.99
566.38	44854.03
566.54	44931.26
566.70	45160.64
566.87	44662.10
567.03	44741.68
567.19	44952.33
567.36	44891.48
567.52	44912.54
567.68	45123.19
567.85	45141.91
568.01	44968.71
568.17	44987.44
568.34	44982.76
568.50	45095.10
568.66	44673.81
568.83	44949.99
568.99	44982.76
569.15	45120.85
569.32	44830.62
569.48	45443.84
569.64	45347.88
569.81	45294.05
569.97	45013.18
570.13	45518.74
570.30	44554.44
570.46	45048.29
570.62	45076.38
570.78	45237.87
570.95	45235.53
571.11	45617.04
571.27	45244.90
571.43	45109.14
571.60	45155.96
571.76	45375.97
571.92	45354.90
572.09	44910.20
572.25	45434.48
572.41	44900.84
572.57	45352.56
572.74	45247.24
572.90	45364.26
573.06	45565.55
573.22	45448.52
573.38	45457.88
573.55	45408.73
573.71	45916.63
573.87	45757.47
574.03	45137.23
574.20	45577.25
574.36	45535.12
574.52	45565.55
574.68	45441.50
574.84	45851.09
575.01	45713.00
575.17	45675.55
575.33	45619.38
575.49	45212.13
575.65	45539.80
575.82	45766.84
575.98	45570.23
576.14	45806.62
576.30	46052.38
576.46	45607.68
576.62	45469.59
576.79	45539.80
576.95	45177.02
577.11	45668.53
577.27	45371.28
577.43	45797.26
577.59	45771.52
577.75	45200.43
577.92	45535.12
578.08	46089.83
578.24	45893.22
578.40	45954.08
578.56	45958.76
578.72	46010.25
578.88	45975.14
579.04	45633.42
579.21	45244.90
579.37	45556.19
579.53	45944.72
579.69	45598.32
579.85	45572.57
580.01	45961.10
580.17	45619.38
580.33	46237.28
580.49	45572.57
580.65	45773.86
580.82	45350.22
580.98	45483.63
581.14	45507.04
581.30	45830.03
581.46	45977.48
581.62	46045.36
581.78	45918.97
581.94	46178.77
582.10	45598.32
582.26	45584.27
582.42	45977.48
582.58	45848.75
582.74	45778.54
582.90	45617.04
583.06	45418.10
583.22	45427.46
583.38	45879.18
583.54	46089.83
583.70	46012.59
583.86	46148.34
584.02	45748.11
584.18	46040.68
584.34	45624.06
584.50	46286.43
584.66	46040.68
584.82	45940.04
584.98	46506.44
585.14	46436.23
585.30	45738.75
585.46	45923.65
585.62	45734.07
585.78	46017.27
585.94	45516.40
586.10	45595.98
586.26	45647.47
586.42	45928.33
586.58	46059.40
586.74	46164.73
586.90	45991.53
587.06	45757.47
587.22	46356.65
587.38	45954.08
587.54	46146.00
587.70	46188.13
587.86	45989.19
588.02	45808.96
588.18	45879.18
588.34	46199.83
588.49	46225.58
588.65	45769.18
588.81	46431.55
588.97	46057.06
589.13	45811.31
589.29	46258.35
589.45	46237.28
589.61	46246.65
589.77	45986.85
589.93	46323.88
590.08	46696.03
590.24	46656.24
590.40	46307.50
590.56	46146.00
590.72	46588.36
590.88	45963.44
591.04	46148.34
591.20	46382.40
591.35	46199.83
591.51	47110.30
591.67	46195.15
591.83	46705.39
591.99	46632.83
592.15	46471.34
592.31	46368.35
592.46	46258.35
592.62	46593.04
592.78	46808.37
592.94	46850.50
593.10	46728.80
593.26	47007.32
593.41	46719.43
593.57	46380.06
593.73	46586.02
593.89	46920.72
594.05	46703.05
594.20	46614.11
594.36	46955.83
594.52	46670.28
594.68	46962.85
594.84	46761.56
594.99	47019.02
595.15	46618.79
595.31	46780.29
595.47	46136.64
595.62	46637.51
595.78	46843.48
595.94	46990.94
596.10	46141.32
596.25	46808.37
596.41	46808.37
596.57	46752.20
596.73	46843.48
596.88	46766.24
597.04	46997.96
597.20	46815.40
597.36	46887.95
597.51	46700.71
597.67	46810.71
597.83	46597.73
597.99	46686.67
598.14	46518.15
598.30	47210.95
598.46	46564.96
598.61	46920.72
598.77	46604.75
598.93	46820.08
599.09	46944.12
599.24	47105.62
599.40	46894.97
599.56	46667.94
599.71	47576.07
599.87	47379.46
600.03	47257.76
600.18	47398.19
600.34	46646.88
600.50	46791.99
600.65	46628.15
600.81	47381.80
600.97	46979.23
601.12	46691.35
601.28	46941.78
601.44	46644.54
601.59	47035.41
601.75	46663.26
601.91	47182.86
602.06	46670.28
602.22	47089.24
602.37	46646.88
602.53	47126.69
602.69	47070.51
602.84	46644.54
603.00	46696.03
603.16	47122.01
603.31	47381.80
603.47	46749.86
603.62	46885.61
603.78	46747.52
603.94	47182.86
604.09	46742.84
604.25	46632.83
604.40	46930.08
604.56	46494.74
604.71	47119.66
604.87	46391.76
605.03	46689.01
605.18	46885.61
605.34	46794.33
605.49	46440.91
605.65	47133.71
605.80	46873.91
605.96	46204.52
606.12	46548.57
606.27	46546.23
606.43	46721.77
606.58	46822.42
606.74	46616.45
606.89	46791.99
607.05	46934.76
607.20	47075.19
607.36	47012.00
607.51	46909.02
607.67	46894.97
607.82	46813.05
607.98	47030.72
608.13	46485.38
608.29	46469.00
608.44	46724.11
608.60	46129.62
608.75	47077.54
608.91	46525.17
609.06	46295.80
609.22	46733.48
609.37	46614.11
609.53	46307.50
609.68	46773.27
609.84	46567.30
609.99	46560.28
610.15	46323.88
610.30	46831.78
610.46	46373.03
610.61	46078.13
610.76	46211.54
610.92	46501.76
611.07	46415.16
611.23	46277.07
611.38	46452.61
611.54	46319.20
611.69	46887.95
611.84	46494.74
612.00	46518.15
612.15	46401.12
612.31	46749.86
612.46	46005.57
612.62	46366.01
612.77	46117.92
612.92	46536.87
613.08	46124.94
613.23	46571.98
613.39	46623.47
613.54	46192.81
613.69	46075.79
613.85	45944.72
614.00	45675.55
614.15	46344.95
614.31	46031.32
614.46	46445.59
614.62	46387.08
614.77	46429.21
614.92	46234.94
615.08	46216.22
615.23	46115.58
615.38	45595.98
615.54	45762.15
615.69	46038.34
615.84	46136.64
616.00	46295.80
616.15	45963.44
616.30	46094.51
616.46	46569.64
616.61	45713.00
616.76	46089.83
616.92	45937.69
617.07	46031.32
617.22	45675.55
617.37	45361.92
617.53	45965.78
617.68	45659.17
617.83	46038.34
617.99	45907.27
618.14	46312.18
618.29	45490.65
618.45	45652.15
618.60	45752.79
618.75	45464.91
618.90	45759.81
619.06	45432.14
619.21	45703.64
619.36	45682.58
619.51	45605.34
619.67	45518.74
619.82	45785.56
619.97	45631.08
620.12	45577.25
620.28	45504.70
620.43	45731.73
620.58	45357.24
620.73	45406.39
620.89	45649.81
621.04	45689.60
621.19	45338.52
621.34	45574.91
621.49	45177.02
621.65	45439.16
621.80	45666.19
621.95	45097.44
622.10	45216.81
622.25	45256.60
622.41	45272.98
622.56	45141.91
622.71	45280.00
622.86	45521.08
623.01	45469.59
623.16	44767.43
623.32	44964.03
623.47	45572.57
623.62	45617.04
623.77	45247.24
623.92	45158.30
624.07	44779.13
624.23	45109.14
624.38	45181.70
624.53	45062.33
624.68	44767.43
624.83	45177.02
624.98	45301.07
625.13	44327.41
625.29	44641.04
625.44	45216.81
625.59	44968.71
625.74	44601.25
625.89	44343.79
626.04	44781.47
626.19	44643.38
626.34	44519.33
626.49	44411.67
626.65	44154.21
626.80	44605.93
626.95	44238.47
627.10	44191.65
627.25	44708.91
627.40	44591.89
627.55	44114.42
627.70	44421.03
627.85	44170.59
628.00	44416.35
628.15	44521.67
628.30	43896.75
628.45	44116.76
628.60	44055.90
628.76	44533.37
628.91	44554.44
629.06	43833.55
629.21	44208.04
629.36	43763.34
629.51	44039.52
629.66	43889.73
629.81	44320.38
629.96	44208.04
630.11	44102.71
630.26	43842.92
630.41	43957.60
630.56	43789.08
630.71	43749.29
630.86	43552.69
631.01	43599.50
631.16	43538.65
631.31	43714.19
631.46	43730.57
631.61	44418.69
631.76	43648.65
631.91	44037.18
632.06	43896.75
632.21	43992.71
632.36	43976.33
632.51	43351.40
632.66	43723.55
632.81	43236.72
632.96	44037.18
633.10	43632.27
633.25	43707.16
633.40	43456.73
633.55	43791.42
633.70	43819.51
633.85	43730.57
634.00	43033.09
634.15	43042.45
634.30	43166.50
634.45	43393.53
634.60	43679.08
634.75	43377.15
634.90	43189.91
635.05	43253.10
635.19	43416.94
635.34	43482.47
635.49	43264.80
635.64	43363.11
635.79	43459.07
635.94	43440.34
636.09	43103.31
636.24	43026.07
636.39	43171.18
636.53	43442.68
636.68	42703.07
636.83	42476.04
636.98	42543.92
637.13	42473.70
637.28	42686.69
637.43	42920.74
637.57	42937.13
637.72	42829.46
637.87	42721.80
638.02	42546.26
638.17	42721.80
638.32	42794.36
638.46	42394.12
638.61	42693.71
638.76	42579.03
638.91	42829.46
639.06	42497.11
639.20	42319.23
639.35	42354.33
639.50	42316.89
639.65	42188.16
639.80	42572.00
639.94	42375.40
640.09	42309.86
640.24	42553.28
640.39	42136.66
640.54	42192.84
640.68	42211.56
640.83	42487.74
640.98	42541.58
641.13	42344.97
641.27	42611.79
641.42	42199.86
641.57	42089.85
641.72	42459.66
641.86	41867.50
642.01	41717.71
642.16	42071.13
642.31	41659.20
642.45	42197.52
642.60	41888.57
642.75	41940.06
642.90	41670.90
643.04	42183.48
643.19	41610.04
643.34	41684.94
643.48	41706.01
643.63	41364.29
643.78	41900.27
643.93	42183.48
644.07	41783.24
644.22	41881.55
644.37	41689.62
644.51	42080.49
644.66	41834.74
644.81	41617.07
644.95	41605.36
645.10	41832.39
645.25	41193.43
645.39	41509.40
645.54	41329.18
645.69	40748.73
645.83	41221.52
645.98	41624.09
646.13	41116.19
646.27	41364.29
646.42	41380.67
646.57	40926.61
646.71	41680.26
646.86	41397.06
647.00	41340.88
647.15	41420.46
647.30	41574.94
647.44	41584.30
647.59	40966.40
647.74	41127.89
647.88	41336.20
648.03	40996.82
648.17	41148.96
648.32	40994.48
648.47	41305.77
648.61	41141.94
648.76	41209.81
648.90	41291.73
649.05	40807.24
649.20	41088.10
649.34	41113.85
649.49	40830.65
649.63	41371.31
649.78	40830.65
649.92	41326.84
650.07	41050.66
650.21	41017.89
650.36	40910.22
650.51	40692.55
650.65	40931.29
650.80	40957.03
650.94	40737.02
651.09	40730.00
651.23	40339.13
651.38	40491.27
651.52	40299.34
651.67	40268.92
651.81	40804.90
651.96	40629.36
652.10	40144.87
652.25	40240.83
652.39	40575.53
652.54	40470.20
652.68	40418.71
652.83	40322.75
652.97	40308.71
653.12	40451.48
653.26	40432.75
653.41	40367.22
653.55	40311.05
653.70	40442.12
653.84	40282.96
653.99	40308.71
654.13	40151.89
654.27	39941.24
654.42	40069.97
654.56	39489.52
654.71	40135.51
654.85	40446.80
655.00	40196.36
655.14	39810.17
655.29	40631.70
655.43	40814.26
655.57	40210.40
655.72	39419.30
655.86	39704.85
656.01	39707.19
656.15	39601.86
656.30	39679.10
656.44	39686.12
656.58	40069.97
656.73	39873.37
656.87	39278.87
657.01	39264.83
657.16	39594.84
657.30	39594.84
657.45	39620.59
657.59	39026.09
657.73	38983.96
657.88	39651.02
658.02	39302.28
658.16	39608.89
658.31	39339.72
658.45	39466.11
658.60	38981.62
658.74	39222.70
658.88	39466.11
659.03	39285.89
659.17	38763.95
659.31	39091.63
659.46	39182.91
659.60	39206.31
659.74	38572.03
659.89	38550.96
660.03	38665.65
660.17	38866.94
660.32	38651.61
660.46	38918.43
660.60	38565.01
660.74	38885.66
660.89	38845.87
661.03	38036.05
661.17	38183.50
661.32	38679.69
661.46	38162.43
661.60	38314.57
661.74	38342.66
661.89	37797.31
662.03	38572.03
662.17	38295.85
662.31	38071.15
662.46	38246.69
662.60	37677.94
662.74	37736.46
662.88	37340.91
663.03	37659.22
663.17	37628.79
663.31	37216.86
663.45	37846.46
663.60	38012.64
663.74	37539.85
663.88	37507.08
664.02	37785.61
664.17	38188.18
664.31	37219.20
664.45	37015.57
664.59	37029.62
664.73	37242.60
664.88	37191.11
665.02	36961.74
665.16	36964.08
665.30	37069.40
665.44	36613.00
665.59	36587.25
665.73	36566.19
665.87	36414.05
666.01	36896.20
666.15	36987.49
666.29	36243.20
666.44	37146.64
666.58	36608.32
666.72	36627.04
666.86	36720.66
667.00	36357.88
667.14	36341.50
667.28	36411.71
667.43	36062.97
667.57	36327.45
667.71	36596.62
667.85	36304.05
667.99	36058.29
668.13	36109.78
668.27	35407.62
668.41	35854.67
668.56	35611.25
668.70	35821.90
668.84	35452.09
668.98	34843.56
669.12	35716.58
669.26	35398.26
669.40	35473.16
669.54	35332.73
669.68	35725.94
669.82	35515.29
669.96	34651.63
670.10	34824.83
670.25	34995.69
670.39	34771.00
670.53	34993.35
670.67	34747.59
670.81	35068.25
670.95	35117.40
671.09	34536.94
671.23	34665.67
671.37	34677.38
671.51	34595.46
671.65	34270.12
671.79	34408.22
671.93	34394.17
672.07	34345.02
672.21	34272.46
672.35	34066.50
672.49	34153.10
672.63	34471.41
672.77	33972.88
672.91	33848.83
673.05	33572.64
673.19	33628.82
673.33	33659.24
673.47	33553.92
673.61	33149.01
673.75	33277.74
673.89	33048.36
674.03	33006.23
674.17	32854.10
674.31	33228.59
674.45	32662.18
674.59	33209.86
674.73	32868.14
674.87	32598.98
675.01	32397.70
675.15	32540.47
675.29	32198.75
675.43	32180.03
675.56	32191.73
675.70	32025.55
675.84	32025.55
675.98	31349.14
676.12	31955.33
676.26	32357.91
676.40	32065.34
676.54	31510.63
676.68	31374.88
676.82	31264.88
676.96	31384.24
677.10	31831.29
677.23	31211.04
677.37	31297.64
677.51	31213.38
677.65	31065.93
677.79	30541.65
677.93	30539.31
678.07	30845.92
678.21	30335.68
678.34	30396.54
678.48	30132.06
678.62	30340.36
678.76	29975.24
678.90	29799.70
679.04	30221.00
679.18	30354.41
679.31	29851.19
679.45	29610.12
679.59	29502.45
679.73	29956.52
679.87	29465.00
680.00	29319.89
680.14	29411.17
680.28	29888.64
680.42	29118.60
680.56	29111.58
680.70	28804.97
680.83	28849.44
680.97	29069.45
681.11	29050.73
681.25	28577.94
681.39	28566.24
681.52	28369.63
681.66	27988.13
681.80	28208.14
681.94	27718.96
682.07	27543.42
682.21	27908.55
682.35	28011.53
682.49	27529.38
682.62	27552.79
682.76	27388.95
682.90	27468.53
683.04	27391.29
683.17	27199.37
683.31	26897.44
683.45	26771.05
683.59	26967.65
683.72	26625.93
683.86	26492.52
684.00	26485.50
684.13	26955.95
684.27	26312.30
684.41	26340.39
684.55	26462.10
684.68	26410.60
684.82	25942.50
684.96	25958.88
685.09	25813.77
685.23	26001.01
685.37	26199.96
685.50	26120.38
685.64	25846.54
685.78	25773.98
685.91	25715.47
686.05	24952.45
686.19	24978.20
686.32	25092.88
686.46	24435.19
686.60	24517.11
686.73	24613.07
686.87	24999.26
687.01	25064.80
687.14	24772.23
687.28	24381.36
687.42	24325.19
687.55	24425.83
687.69	24025.60
687.82	23992.83
687.96	24072.41
688.10	24257.31
688.23	23756.44
688.37	23798.57
688.50	23957.72
688.64	23740.05
688.78	23702.61
688.91	23517.70
689.05	23246.20
689.18	23297.69
689.32	23044.91
689.46	22848.31
689.59	22651.70
689.73	23192.37
689.86	22991.08
690.00	22815.54
690.13	22827.24
690.27	22417.65
690.41	22850.65
690.54	22253.81
690.68	22293.60
690.81	21975.29
690.95	22122.74
691.08	21804.43
691.22	21617.19
691.35	21479.10
691.49	21717.83
691.62	22148.49
691.76	21497.82
691.89	21298.88
692.03	20896.30
692.16	21298.88
692.30	20961.84
692.43	20826.09
692.57	20915.03
692.70	20666.93
692.84	20683.31
692.97	20276.06
693.11	20304.15
693.24	20264.36
693.38	20077.12
693.51	20386.07
693.65	19948.39
693.78	20032.65
693.92	20280.74
694.05	20095.84
694.19	19894.55
694.32	19761.14
694.45	20343.94
694.59	19796.25
694.72	20004.56
694.86	19782.21
694.99	19281.33
695.13	19126.86
695.26	19147.92
695.39	19103.45
695.53	19096.43
695.66	18892.80
695.80	18700.88
695.93	18979.40
696.07	18560.45
696.20	18490.23
696.33	18476.19
696.47	18207.03
696.60	18441.08
696.73	18621.30
696.87	18401.29
697.00	18235.11
697.14	17891.06
697.27	18216.39
697.40	17935.53
697.54	17799.77
697.67	17708.49
697.80	17930.84
697.94	17699.13
698.07	17345.71
698.21	17804.46
698.34	17532.95
698.47	17111.66
698.61	16746.53
698.74	17156.13
698.87	16933.78
699.01	16924.41
699.14	16964.20
699.27	16872.92
699.40	16690.36
699.54	16678.66
699.67	16545.25
699.80	16545.25
699.94	16205.87
700.07	16439.92
700.20	16027.99
700.34	16152.04
700.47	16269.06
700.60	16093.52
700.73	15962.45
700.87	15974.16
701.00	15679.25
701.13	15740.10
701.26	15480.30
701.40	15452.22
701.53	15456.90
701.66	15503.71
701.79	15157.31
701.93	15040.28
702.06	15264.97
702.19	15026.24
702.32	15091.77
702.46	15021.56
702.59	15257.95
702.72	15101.14
702.85	15105.82
702.99	14752.40
703.12	14714.95
703.25	14618.99
703.38	14466.85
703.51	14436.42
703.65	14438.76
703.78	14115.77
703.91	14216.41
704.04	13898.10
704.17	14164.92
704.31	14090.02
704.44	13846.61
704.57	13760.01
704.70	13818.52
704.83	13537.66
704.96	13493.19
705.10	13448.72
705.23	13404.25
>>>>>End Processed Spectral Data<<<<<
