SpectraSuite Data File
++++++++++++++++++++++++++++++++++++
Date: Fri Oct 25 11:34:05 EDT 2013
User: price-jones
Dark Spectrum Present: No
Reference Spectrum Present: No
Number of Sampled Component Spectra: 1
Spectrometers: USB2+H05261
Integration Time (usec): 100000 (USB2+H05261)
Spectra Averaged: 1 (USB2+H05261)
Boxcar Smoothing: 0 (USB2+H05261)
Correct for Electrical Dark: No (USB2+H05261)
Strobe/Lamp Enabled: No (USB2+H05261)
Correct for Detector Non-linearity: No (USB2+H05261)
Correct for Stray Light: No (USB2+H05261)
Number of Pixels in Processed Spectrum: 2048
>>>>>Begin Processed Spectral Data<<<<<
365.73	278.52
365.92	278.52
366.12	278.52
366.32	131.07
366.52	187.24
366.72	180.22
366.91	154.48
367.11	117.03
367.31	131.07
367.51	201.29
367.70	135.75
367.90	147.45
368.10	182.56
368.30	208.31
368.49	257.46
368.69	212.99
368.89	128.73
369.09	196.60
369.28	201.29
369.48	168.52
369.68	196.60
369.87	283.20
370.07	227.03
370.27	257.46
370.47	313.63
370.66	503.22
370.86	400.23
371.06	500.87
371.25	580.45
371.45	475.13
371.65	547.69
371.84	517.26
372.04	554.71
372.24	580.45
372.44	573.43
372.63	566.41
372.83	636.63
373.03	650.67
373.22	594.50
373.42	571.09
373.62	617.90
373.81	676.41
374.01	685.78
374.21	643.65
374.40	671.73
374.60	634.29
374.79	603.86
374.99	653.01
375.19	634.29
375.38	664.71
375.58	681.10
375.78	650.67
375.97	641.31
376.17	744.29
376.37	648.33
376.56	662.37
376.76	653.01
376.95	650.67
377.15	664.71
377.35	690.46
377.54	697.48
377.74	692.80
377.93	648.33
378.13	716.20
378.33	791.10
378.52	702.16
378.72	748.97
378.91	737.27
379.11	725.57
379.31	779.40
379.50	638.97
379.70	734.93
379.89	805.14
380.09	751.31
380.28	732.59
380.48	809.83
380.68	702.16
380.87	676.41
381.07	704.50
381.26	746.63
381.46	751.31
381.65	751.31
381.85	788.76
382.04	809.83
382.24	805.14
382.43	802.80
382.63	763.01
382.83	744.29
383.02	791.10
383.22	922.17
383.41	819.19
383.61	826.21
383.80	819.19
384.00	753.65
384.19	748.97
384.39	786.42
384.58	781.74
384.78	791.10
384.97	753.65
385.17	849.61
385.36	898.77
385.56	851.96
385.75	875.36
385.95	847.27
386.14	828.55
386.34	798.12
386.53	898.77
386.72	919.83
386.92	896.43
387.11	828.55
387.31	978.34
387.50	856.64
387.70	894.08
387.89	849.61
388.09	924.51
388.28	835.57
388.48	908.13
388.67	980.68
388.86	882.38
389.06	947.92
389.25	980.68
389.45	903.45
389.64	908.13
389.84	978.34
390.03	940.90
390.22	910.47
390.42	924.51
390.61	931.53
390.81	952.60
391.00	943.24
391.19	992.39
391.39	957.28
391.58	973.66
391.78	966.64
391.97	1064.94
392.16	1015.79
392.36	992.39
392.55	990.05
392.75	1041.54
392.94	1008.77
393.13	1048.56
393.33	1095.37
393.52	1078.99
393.71	1123.46
393.91	1032.18
394.10	1064.94
394.29	1121.12
394.49	1093.03
394.68	1132.82
394.88	1083.67
395.07	1128.14
395.26	1104.73
395.46	1121.12
395.65	1167.93
395.84	1128.14
396.04	1306.02
396.23	1179.63
396.42	1233.46
396.62	1231.12
396.81	1291.98
397.00	1193.67
397.19	1116.44
397.39	1231.12
397.58	1327.08
397.77	1282.61
397.97	1268.57
398.16	1205.38
398.35	1294.32
398.55	1146.86
398.74	1196.01
398.93	1327.08
399.12	1245.16
399.32	1322.40
399.51	1235.80
399.70	1359.85
399.90	1401.98
400.09	1320.06
400.28	1401.98
400.47	1341.13
400.67	1345.81
400.86	1348.15
401.05	1411.34
401.24	1441.77
401.44	1406.66
401.63	1523.69
401.82	1502.62
402.01	1364.53
402.21	1472.20
402.40	1511.99
402.59	1413.68
402.78	1486.24
402.97	1420.71
403.17	1418.36
403.36	1582.20
403.55	1493.26
403.74	1600.93
403.93	1551.78
404.13	1582.20
404.32	1589.22
404.51	1621.99
404.70	1647.74
404.89	1549.43
405.09	1727.32
405.28	1605.61
405.47	1708.59
405.66	1645.40
405.85	1664.12
406.05	1699.23
406.24	1774.13
406.43	1746.04
406.62	1722.63
406.81	1907.54
407.00	1790.51
407.20	1750.72
407.39	1734.34
407.58	1746.04
407.77	1891.15
407.96	1872.43
408.15	1893.49
408.34	1893.49
408.54	1937.96
408.73	1825.62
408.92	1914.56
409.11	1933.28
409.30	1961.37
409.49	2012.86
409.68	2033.93
409.87	1970.73
410.07	2017.54
410.26	1998.82
410.45	2015.20
410.64	2008.18
410.83	2172.02
411.02	2008.18
411.21	2169.68
411.40	2134.57
411.59	2195.42
411.78	2176.70
411.98	2129.89
412.17	2179.04
412.36	2284.36
412.55	2310.11
412.74	2300.75
412.93	2331.17
413.12	2235.21
413.31	2321.81
413.50	2410.75
413.69	2333.51
413.88	2443.52
414.07	2373.30
414.26	2457.56
414.45	2537.14
414.64	2525.44
414.83	2399.05
415.02	2523.10
415.22	2579.27
415.41	2654.17
415.60	2745.45
415.79	2715.02
415.98	2644.81
416.17	2637.78
416.36	2698.64
416.55	2710.34
416.74	2703.32
416.93	2759.49
417.12	2715.02
417.31	2726.72
417.50	2937.37
417.69	2949.08
417.88	2916.31
418.07	2913.97
418.26	2876.52
418.45	2979.50
418.64	3075.46
418.83	2967.80
419.02	3023.97
419.21	3045.04
419.39	3119.93
419.58	3047.38
419.77	3204.19
419.96	3040.36
420.15	3052.06
420.34	3061.42
420.53	3178.45
420.72	3152.70
420.91	3096.53
421.10	3119.93
421.29	3173.77
421.48	3192.49
421.67	3290.79
421.86	3162.06
422.05	3169.09
422.24	3325.90
422.43	3227.60
422.61	3323.56
422.80	3337.60
422.99	3323.56
423.18	3393.78
423.37	3330.58
423.56	3368.03
423.75	3279.09
423.94	3293.13
424.13	3185.47
424.32	3267.39
424.50	3332.92
424.69	3417.18
424.88	3403.14
425.07	3346.97
425.26	3307.18
425.45	3459.31
425.64	3393.78
425.83	3379.73
426.01	3400.80
426.20	3344.63
426.39	3454.63
426.58	3426.54
426.77	3473.36
426.96	3552.93
427.15	3536.55
427.33	3466.33
427.52	3515.48
427.71	3613.79
427.90	3569.32
428.09	3644.21
428.28	3637.19
428.46	3679.32
428.65	3730.81
428.84	3875.93
429.03	3721.45
429.22	3566.98
429.40	3669.96
429.59	3737.84
429.78	3639.53
429.97	3583.36
430.16	3721.45
430.34	3740.18
430.53	3669.96
430.72	3899.33
430.91	3770.60
431.10	3702.73
431.28	3775.28
431.47	3920.40
431.66	3978.91
431.85	3920.40
432.03	3964.87
432.22	3995.29
432.41	3906.35
432.60	3978.91
432.79	3904.01
432.97	4025.72
433.16	3999.98
433.35	4037.42
433.54	4011.68
433.72	4109.98
433.91	4095.94
434.10	4156.79
434.28	4180.20
434.47	4093.60
434.66	4166.15
434.85	4411.91
435.03	4248.07
435.22	4196.58
435.41	4390.84
435.59	4264.46
435.78	4358.08
435.97	4374.46
436.16	4215.30
436.34	4250.41
436.53	4369.78
436.72	4512.55
436.90	4472.76
437.09	4365.10
437.28	4353.40
437.46	4348.72
437.65	4423.61
437.84	4550.00
438.02	4432.97
438.21	4489.15
438.40	4573.41
438.58	4711.50
438.77	4800.44
438.96	4634.26
439.14	4795.76
439.33	4894.06
439.52	4844.91
439.70	4908.10
439.89	4805.12
440.08	4983.00
440.26	4837.89
440.45	4870.65
440.63	4868.31
440.82	5018.11
441.01	4978.32
441.19	5158.54
441.38	5118.75
441.57	5188.97
441.75	5144.50
441.94	5210.03
442.12	5355.15
442.31	5399.62
442.50	5331.74
442.68	5275.57
442.87	5345.78
443.05	5247.48
443.24	5411.32
443.43	5556.43
443.61	5448.77
443.80	5575.16
443.98	5338.76
444.17	5249.82
444.35	5610.26
444.54	5465.15
444.73	5612.60
444.91	5493.24
445.10	5565.79
445.28	5497.92
445.47	5465.15
445.65	5685.16
445.84	5771.76
446.02	5673.46
446.21	5661.76
446.39	5582.18
446.58	5434.72
446.77	5708.57
446.95	5472.17
447.14	5668.78
447.32	5680.48
447.51	5530.69
447.69	5804.53
447.88	5715.59
448.06	5652.39
448.25	5706.23
448.43	5715.59
448.62	5689.84
448.80	5764.74
448.99	5753.04
449.17	5738.99
449.36	5687.50
449.54	5977.73
449.73	6087.73
449.91	5926.24
450.10	6047.94
450.28	5921.56
450.46	6155.61
450.65	6036.24
450.83	5994.11
451.02	6057.31
451.20	6080.71
451.39	6157.95
451.57	6059.65
451.76	5989.43
451.94	6127.52
452.13	6274.98
452.31	6101.78
452.49	5963.68
452.68	6188.38
452.86	6258.59
453.05	6214.12
453.23	6455.20
453.42	6314.77
453.60	6162.63
453.78	6452.86
453.97	6347.53
454.15	6221.14
454.34	6251.57
454.52	6415.41
454.70	6459.88
454.89	6588.61
455.07	6654.14
455.26	6574.56
455.44	6604.99
455.62	6455.20
455.81	6658.82
455.99	6576.91
456.17	6640.10
456.36	6773.51
456.54	6724.36
456.73	6789.89
456.91	6895.22
457.09	6836.70
457.28	7019.27
457.46	6787.55
457.64	6993.52
457.83	6864.79
458.01	6888.20
458.19	7028.63
458.38	6876.49
458.56	7094.16
458.74	6967.77
458.93	7054.37
459.11	7145.66
459.29	7026.29
459.48	7007.56
459.66	7173.74
459.84	7206.51
460.03	7372.69
460.21	7173.74
460.39	7101.19
460.57	7250.98
460.76	7438.22
460.94	7302.47
461.12	7396.09
461.31	7185.44
461.49	7304.81
461.67	7321.20
461.85	7527.16
462.04	7358.64
462.22	7887.61
462.40	7751.85
462.59	7463.97
462.77	7447.58
462.95	7733.13
463.13	7442.90
463.32	7693.34
463.50	7648.87
463.68	7836.11
463.86	7833.77
464.05	7506.10
464.23	7805.69
464.41	7639.51
464.59	7817.39
464.78	8049.10
464.96	7974.21
465.14	7859.52
465.32	7971.86
465.50	7885.26
465.69	8013.99
465.87	8102.93
466.05	8109.96
466.23	8046.76
466.41	7852.50
466.60	8229.32
466.78	8046.76
466.96	8145.06
467.14	7964.84
467.32	8002.29
467.51	8355.71
467.69	8184.85
467.87	8212.94
468.05	8245.71
468.23	8016.33
468.41	8271.45
468.60	8074.85
468.78	8280.82
468.96	8318.26
469.14	8259.75
469.32	8526.57
469.50	8304.22
469.69	8805.10
469.87	8573.38
470.05	8622.53
470.23	8706.79
470.41	8706.79
470.59	8833.18
470.77	8755.94
470.95	8772.33
471.14	8835.52
471.32	8711.47
471.50	8830.84
471.68	8821.48
471.86	8945.53
472.04	9090.64
472.22	9137.45
472.40	8861.27
472.58	9078.94
472.77	9151.49
472.95	9092.98
473.13	9451.08
473.31	9270.86
473.49	9254.48
473.67	9348.10
473.85	9048.51
474.03	9502.58
474.21	9523.64
474.39	9495.55
474.57	9666.41
474.75	9664.07
474.93	9923.87
475.12	9947.28
475.30	9769.40
475.48	9797.48
475.66	9975.36
475.84	9966.00
476.02	10059.62
476.20	10148.56
476.38	10307.72
476.56	10377.94
476.74	10223.46
476.92	10202.40
477.10	10244.52
477.28	10396.66
477.46	10401.34
477.64	10565.18
477.82	10747.74
478.00	11021.58
478.18	10881.15
478.36	10808.59
478.54	11070.73
478.72	11138.61
478.90	11405.43
479.08	11452.24
479.26	11503.73
479.44	11480.33
479.62	11784.60
479.80	11510.75
479.98	11859.49
480.16	11985.88
480.34	11803.32
480.52	11847.79
480.70	12339.30
480.88	11927.37
481.06	12159.08
481.24	11995.25
481.41	12351.01
481.59	12343.99
481.77	12386.12
481.95	12585.06
482.13	12844.86
482.31	12774.64
482.49	12926.78
482.67	13034.44
482.85	13226.37
483.03	13408.93
483.21	13366.80
483.39	13668.73
483.57	13652.34
483.74	13675.75
483.92	13664.05
484.10	13497.87
484.28	14033.85
484.46	14122.79
484.64	14675.16
484.82	14134.50
485.00	14459.83
485.18	14562.81
485.35	14998.15
485.53	14539.41
485.71	14712.61
485.89	15218.16
486.07	15166.67
486.25	15154.97
486.43	15288.38
486.61	15482.64
486.78	15316.47
486.96	15740.10
487.14	15925.00
487.32	15737.76
487.50	15925.00
487.68	15985.86
487.85	16147.36
488.03	16500.78
488.21	16594.40
488.39	16823.77
488.57	16746.53
488.75	16776.96
488.92	16912.71
489.10	17291.88
489.28	17301.24
489.46	17355.07
489.64	17804.46
489.81	18003.40
489.99	17645.30
490.17	17848.93
490.35	18197.67
490.53	17809.14
490.70	18642.37
490.88	18239.79
491.06	18504.28
491.24	18541.72
491.41	18403.63
491.59	18789.82
491.77	18700.88
491.95	18993.45
492.13	19201.76
492.30	19454.53
492.48	19105.79
492.66	19536.45
492.84	19543.47
493.01	20067.75
493.19	19742.42
493.37	19941.36
493.54	19845.40
493.72	20449.26
493.90	20463.30
494.08	20393.09
494.25	20521.82
494.43	20613.10
494.61	20706.72
494.79	21113.97
494.96	20961.84
495.14	21095.25
495.32	21263.77
495.49	21235.68
495.67	21289.51
495.85	21703.79
496.02	21631.23
496.20	22026.78
496.38	22115.72
496.55	22033.80
496.73	22609.58
496.91	22001.04
497.09	22677.45
497.26	22450.42
497.44	22417.65
497.62	22888.10
497.79	22988.74
497.97	22785.12
498.14	23215.77
498.32	22998.10
498.50	23569.19
498.67	23403.02
498.85	23503.66
499.03	23639.41
499.20	23625.37
499.38	23943.68
499.56	23908.57
499.73	23976.45
499.91	23873.46
500.08	24261.99
500.26	24156.67
500.44	24680.95
500.61	24489.03
500.79	24393.06
500.97	24524.13
501.14	24758.19
501.32	25261.40
501.49	24669.25
501.67	24842.45
501.84	25214.59
502.02	24938.41
502.20	25486.09
502.37	24905.64
502.55	25259.06
502.72	25151.40
502.90	25362.04
503.07	25289.49
503.25	25865.26
503.43	25692.06
503.60	25717.81
503.78	25783.34
503.95	25703.76
504.13	26061.87
504.30	26228.04
504.48	26223.36
504.65	26139.10
504.83	26665.72
505.01	26391.88
505.18	26527.63
505.36	26747.64
505.53	26265.49
505.71	26867.01
505.88	26958.29
506.06	26661.04
506.23	26925.52
506.41	27101.06
506.58	27531.72
506.76	27117.45
506.93	27634.71
507.11	27482.57
507.28	27534.06
507.46	27576.19
507.63	27548.11
507.81	27967.06
507.98	27332.78
508.16	28360.27
508.33	28332.18
508.50	28191.75
508.68	28393.04
508.85	28868.17
509.03	28472.62
509.20	28484.32
509.38	28650.50
509.55	28472.62
509.73	28966.47
509.90	28793.27
510.08	28587.30
510.25	28589.64
510.42	28954.77
510.60	28905.62
510.77	29429.90
510.95	29654.59
511.12	29542.24
511.30	29235.63
511.47	29479.05
511.64	29357.34
511.82	29567.99
511.99	29462.66
512.17	30221.00
512.34	29930.77
512.51	30125.04
512.69	30302.92
512.86	30099.29
513.04	30745.28
513.21	30239.72
513.38	30672.72
513.56	30506.54
513.73	30529.95
513.90	30689.10
514.08	30487.82
514.25	30670.38
514.43	31033.16
514.60	30799.11
514.77	30876.35
514.95	31178.28
515.12	31098.70
515.29	31072.95
515.47	31292.96
515.64	31585.53
515.81	31110.40
515.99	31604.25
516.16	31686.17
516.33	31756.39
516.51	32170.66
516.68	31950.65
516.85	31974.06
517.03	32620.05
517.20	32423.44
517.37	32020.87
517.54	32196.41
517.72	32378.97
517.89	31988.10
518.06	32252.58
518.24	32481.95
518.41	32744.09
518.58	32418.76
518.75	32594.30
518.93	32912.61
519.10	32678.56
519.27	32985.17
519.45	32849.42
519.62	32868.14
519.79	33149.01
519.96	33020.28
520.14	33212.20
520.31	32781.54
520.48	33418.17
520.65	33701.37
520.83	34230.33
521.00	33731.80
521.17	33411.15
521.34	33797.34
521.52	33886.28
521.69	33876.91
521.86	33897.98
522.03	34110.97
522.20	34440.98
522.38	34340.34
522.55	34536.94
522.72	34785.04
522.89	34703.12
523.07	34911.43
523.24	34244.38
523.41	34843.56
523.58	34209.27
523.75	34752.27
523.92	34897.39
524.10	34778.02
524.27	34895.05
524.44	35070.59
524.61	35534.01
524.78	35332.73
524.96	35569.12
525.13	35253.15
525.30	35512.95
525.47	35477.84
525.64	35627.63
525.81	35747.00
525.98	36165.96
526.16	35651.04
526.33	35711.89
526.50	35604.23
526.67	35714.23
526.84	35976.37
527.01	35620.61
527.18	35737.64
527.36	35983.40
527.53	36336.82
527.70	36613.00
527.87	36657.47
528.04	36416.40
528.21	36172.98
528.38	36280.64
528.55	36762.79
528.72	36814.29
528.89	36458.52
529.07	36746.41
529.24	36158.94
529.41	36713.64
529.58	37104.51
529.75	36755.77
529.92	36800.24
530.09	36928.97
530.26	37064.72
530.43	37118.56
530.60	36718.32
530.77	36900.89
530.94	36917.27
531.11	37027.28
531.28	37137.28
531.46	37429.85
531.63	37610.07
531.80	37148.98
531.97	37654.54
532.14	37537.51
532.31	37413.46
532.48	38061.79
532.65	38153.07
532.82	38150.73
532.99	37750.50
533.16	38031.36
533.33	38312.23
533.50	38139.03
533.67	38010.30
533.84	37858.17
534.01	38146.05
534.18	38120.31
534.35	38368.40
534.52	38300.53
534.69	38527.56
534.86	38778.00
535.03	38565.01
535.20	38401.17
535.37	38754.59
535.54	39040.14
535.71	38628.20
535.88	38799.06
536.05	38857.57
536.22	38941.83
536.38	38705.44
536.55	39124.40
536.72	39047.16
536.89	39147.80
537.06	38714.80
537.23	39192.27
537.40	39086.95
537.57	38904.38
537.74	39098.65
537.91	39257.81
538.08	39325.68
538.25	39201.63
538.42	39571.44
538.59	39496.54
538.75	39550.37
538.92	39948.26
539.09	39625.27
539.26	39807.83
539.43	39739.96
539.60	39826.56
539.77	39924.86
539.94	39763.36
540.11	40175.30
540.28	39899.11
540.44	39995.07
540.61	40285.30
540.78	39519.95
540.95	40172.96
541.12	40308.71
541.29	40065.29
541.46	40095.72
541.62	40088.70
541.79	40706.60
541.96	40313.39
542.13	40383.60
542.30	40561.48
542.47	40676.17
542.63	40392.97
542.80	40687.87
542.97	40896.18
543.14	41340.88
543.31	41069.38
543.48	40870.43
543.64	41563.23
543.81	41354.93
543.98	41043.63
544.15	41235.56
544.32	41806.65
544.48	41502.38
544.65	40978.10
544.82	41546.85
544.99	41219.17
545.16	41518.76
545.32	41544.51
545.49	42059.43
545.66	41935.38
545.83	41944.74
546.00	41478.97
546.16	41635.79
546.33	41666.22
546.50	41504.72
546.67	42066.45
546.83	41394.71
547.00	41542.17
547.17	42134.32
547.34	41741.11
547.50	42298.16
547.67	42396.46
547.84	42113.26
548.00	42562.64
548.17	42288.80
548.34	42464.34
548.51	42756.91
548.67	42359.02
548.84	42251.35
549.01	42625.84
549.18	42618.81
549.34	42768.61
549.51	42710.10
549.68	42682.01
549.84	42866.91
550.01	42911.38
550.18	42686.69
550.34	42792.01
550.51	42850.53
550.68	43143.09
550.84	42700.73
551.01	42862.23
551.18	42581.37
551.34	42684.35
551.51	42864.57
551.68	42923.08
551.84	42876.27
552.01	43037.77
552.18	43086.92
552.34	42841.17
552.51	43290.55
552.68	43260.12
552.84	43246.08
553.01	43377.15
553.18	43337.36
553.34	43360.76
553.51	43196.93
553.67	43501.20
553.84	43484.81
554.01	43435.66
554.17	43250.76
554.34	43899.09
554.51	43941.22
554.67	44142.50
554.84	43873.34
555.00	43676.74
555.17	43800.79
555.33	43810.15
555.50	43807.81
555.67	44170.59
555.83	43950.58
556.00	44126.12
556.16	44575.50
556.33	44114.42
556.50	44151.87
556.66	44119.10
556.83	43952.92
556.99	44196.34
557.16	44528.69
557.32	44423.37
557.49	44760.40
557.65	44285.28
557.82	44568.48
557.98	44123.78
558.15	44336.77
558.32	44533.37
558.48	44280.60
558.65	44381.24
558.81	44446.77
558.98	44285.28
559.14	44027.82
559.31	44376.56
559.47	44486.56
559.64	44725.30
559.80	44919.56
559.97	44727.64
560.13	44495.92
560.30	44507.63
560.46	44971.05
560.63	44753.38
560.79	44919.56
560.96	45118.51
561.12	45165.32
561.29	44900.84
561.45	44739.34
561.61	45017.86
561.78	44697.21
561.94	44949.99
562.11	44769.77
562.27	45078.72
562.44	45172.34
562.60	45343.20
562.77	45160.64
562.93	44339.11
563.10	45254.26
563.26	45118.51
563.42	45427.46
563.59	44760.40
563.75	45263.62
563.92	45322.13
564.08	45282.34
564.24	45291.71
564.41	45212.13
564.57	45425.12
564.74	45095.10
564.90	45240.21
565.07	44851.69
565.23	45244.90
565.39	45284.68
565.56	45109.14
565.72	45174.68
565.88	45228.51
566.05	45242.56
566.21	45991.53
566.38	45249.58
566.54	45469.59
566.70	45823.01
566.87	45368.94
567.03	45303.41
567.19	45488.31
567.36	45628.74
567.52	45352.56
567.68	45736.41
567.85	45727.05
568.01	46052.38
568.17	45703.64
568.34	46028.98
568.50	45483.63
568.66	45439.16
568.83	45645.13
568.99	45776.20
569.15	45701.30
569.32	45815.99
569.48	45713.00
569.64	45958.76
569.81	45872.16
569.97	46134.30
570.13	45874.50
570.30	45703.64
570.46	45897.91
570.62	45979.82
570.78	45837.05
570.95	45581.93
571.11	46019.61
571.27	45804.28
571.43	45689.60
571.60	46031.32
571.76	46005.57
571.92	45811.31
572.09	45743.43
572.25	45703.64
572.41	46213.88
572.57	45975.14
572.74	46637.51
572.90	45930.67
573.06	46298.14
573.22	46199.83
573.38	46445.59
573.55	46213.88
573.71	46176.43
573.87	46185.79
574.03	46377.72
574.20	46064.08
574.36	46340.27
574.52	46202.18
574.68	46265.37
574.84	46237.28
575.01	46120.26
575.17	46230.26
575.33	46791.99
575.49	46040.68
575.65	46447.93
575.82	46366.01
575.98	46078.13
576.14	46794.33
576.30	46616.45
576.46	46143.66
576.62	45890.88
576.79	46384.74
576.95	45598.32
577.11	45979.82
577.27	46075.79
577.43	46485.38
577.59	46312.18
577.75	46326.22
577.92	46220.90
578.08	46351.97
578.24	46256.01
578.40	46639.86
578.56	46253.67
578.72	46178.77
578.88	46403.46
579.04	46241.96
579.21	46211.54
579.37	46227.92
579.53	46230.26
579.69	46068.76
579.85	46117.92
580.01	46309.84
580.17	46272.39
580.33	46485.38
580.49	46387.08
580.65	46513.47
580.82	46560.28
580.98	46396.44
581.14	45958.76
581.30	46382.40
581.46	45942.38
581.62	46260.69
581.78	46064.08
581.94	46071.10
582.10	46211.54
582.26	46665.60
582.42	45860.46
582.58	46342.61
582.74	46340.27
582.90	46295.80
583.06	46646.88
583.22	46314.52
583.38	46195.15
583.54	46300.48
583.70	46518.15
583.86	46806.03
584.02	46366.01
584.18	46862.21
584.34	46885.61
584.50	46791.99
584.66	46550.91
584.82	46810.71
584.98	46948.81
585.14	46609.43
585.30	46398.78
585.46	46443.25
585.62	46674.96
585.78	46700.71
585.94	46291.12
586.10	46689.01
586.26	46129.62
586.42	46635.17
586.58	46782.63
586.74	46581.34
586.90	46546.23
587.06	46890.29
587.22	46602.41
587.38	46169.41
587.54	46412.82
587.70	46969.87
587.86	46492.40
588.02	46443.25
588.18	46476.02
588.34	46604.75
588.49	46745.18
588.65	46377.72
588.81	46782.63
588.97	47133.71
589.13	46637.51
589.29	46588.36
589.45	46976.89
589.61	46951.15
589.77	46946.47
589.93	46913.70
590.08	47072.85
590.24	47000.30
590.40	46916.04
590.56	47203.92
590.72	47299.89
590.88	46644.54
591.04	46946.47
591.20	47241.37
591.35	46920.72
591.51	46969.87
591.67	47147.75
591.83	47414.57
591.99	47203.92
592.15	46728.80
592.31	46787.31
592.46	46892.63
592.62	46660.92
592.78	47342.02
592.94	47239.03
593.10	47447.34
593.26	47318.61
593.41	47133.71
593.57	47002.64
593.73	47023.70
593.89	47510.53
594.05	47227.33
594.20	47344.36
594.36	47461.38
594.52	47384.15
594.68	46894.97
594.84	46941.78
594.99	47627.56
595.15	47440.32
595.31	47620.54
595.47	47236.69
595.62	47000.30
595.78	47098.60
595.94	47508.19
596.10	47498.83
596.25	47393.51
596.41	47304.57
596.57	47124.35
596.73	47672.03
596.88	47519.90
597.04	47264.78
597.20	47313.93
597.36	46962.85
597.51	47547.98
597.67	47173.50
597.83	47157.11
597.99	47501.17
598.14	47388.83
598.30	47260.10
598.46	47192.22
598.61	47643.94
598.77	47189.88
598.93	47550.32
599.09	47650.97
599.24	47835.87
599.40	47639.26
599.56	47491.81
599.71	47791.40
599.87	47870.98
600.03	47690.76
600.18	47475.43
600.34	47372.44
600.50	47239.03
600.65	47430.96
600.81	47686.07
600.97	47831.19
601.12	47442.66
601.28	47208.61
601.44	47594.79
601.59	47906.08
601.75	47473.09
601.91	47899.06
602.06	47473.09
602.22	47585.43
602.37	47594.79
602.53	47309.25
602.69	47477.77
602.84	47327.97
603.00	47594.79
603.16	47175.84
603.31	47643.94
603.47	47552.66
603.62	47405.21
603.78	47896.72
603.94	47587.77
604.09	47718.84
604.25	47428.62
604.40	47449.68
604.56	47435.64
604.71	47796.08
604.87	47447.34
605.03	47100.94
605.18	47271.80
605.34	47564.37
605.49	47363.08
605.65	47437.98
605.80	47491.81
605.96	47290.52
606.12	47180.52
606.27	47643.94
606.43	47320.95
606.58	47503.51
606.74	47697.78
606.89	47622.88
607.05	47653.31
607.20	47264.78
607.36	47356.06
607.51	47171.16
607.67	47519.90
607.82	47122.01
607.98	47463.72
608.13	47283.50
608.29	46932.42
608.44	47323.29
608.60	46836.46
608.75	47278.82
608.91	46995.62
609.06	46534.53
609.22	47435.64
609.37	47117.32
609.53	47133.71
609.68	47412.23
609.84	47215.63
609.99	47501.17
610.15	47503.51
610.30	47194.56
610.46	47445.00
610.61	47260.10
610.76	46852.84
610.92	46972.21
611.07	47171.16
611.23	47012.00
611.38	47229.67
611.54	47068.17
611.69	46906.68
611.84	47365.42
612.00	46946.47
612.15	46759.22
612.31	47105.62
612.46	46780.29
612.62	47054.13
612.77	47075.19
612.92	47264.78
613.08	46909.02
613.23	47007.32
613.39	47143.07
613.54	46838.80
613.69	47405.21
613.85	46920.72
614.00	47089.24
614.15	46492.40
614.31	46293.46
614.46	46586.02
614.62	46698.37
614.77	46607.09
614.92	46394.10
615.08	46604.75
615.23	46787.31
615.38	47065.83
615.54	46934.76
615.69	46628.15
615.84	46773.27
616.00	46536.87
616.15	46536.87
616.30	47166.48
616.46	46614.11
616.61	46621.13
616.76	46822.42
616.92	46546.23
617.07	46525.17
617.22	46656.24
617.37	45979.82
617.53	46555.60
617.68	46712.41
617.83	46492.40
617.99	46630.49
618.14	46579.00
618.29	46424.53
618.45	46129.62
618.60	46337.93
618.75	46478.36
618.90	46103.87
619.06	46146.00
619.21	46078.13
619.36	46431.55
619.51	46127.28
619.67	46185.79
619.82	46581.34
619.97	46277.07
620.12	46181.11
620.28	45940.04
620.43	46256.01
620.58	46223.24
620.73	46061.74
620.89	46555.60
621.04	46178.77
621.19	46127.28
621.34	45982.16
621.49	45752.79
621.65	45907.27
621.80	46307.50
621.95	45886.20
622.10	45963.44
622.25	45783.22
622.41	46061.74
622.56	45799.60
622.71	45933.01
622.86	45862.80
623.01	46106.21
623.16	45811.31
623.32	45579.59
623.47	45621.72
623.62	45418.10
623.77	45759.81
623.92	45918.97
624.07	45539.80
624.23	45659.17
624.38	45862.80
624.53	45621.72
624.68	45280.00
624.83	45584.27
624.98	45544.48
625.13	45258.94
625.29	45394.69
625.44	45289.37
625.59	45507.04
625.74	45542.14
625.89	45216.81
626.04	45116.17
626.19	45200.43
626.34	45268.30
626.49	45148.93
626.65	44985.10
626.80	45153.62
626.95	45132.55
627.10	44751.04
627.25	45165.32
627.40	44905.52
627.55	45069.36
627.70	44945.31
627.85	45287.03
628.00	45038.93
628.15	44996.80
628.30	44868.07
628.45	44804.88
628.60	44425.71
628.76	44624.65
628.91	44765.09
629.06	44507.63
629.21	44563.80
629.36	44416.35
629.51	44786.15
629.66	44879.77
629.81	44800.19
629.96	44514.65
630.11	44872.75
630.26	44147.18
630.41	44814.24
630.56	44437.41
630.71	44552.10
630.86	44917.22
631.01	44044.20
631.16	44268.89
631.31	44392.94
631.46	44458.48
631.61	44748.70
631.76	44617.63
631.91	44479.54
632.06	44697.21
632.21	44900.84
632.36	44767.43
632.51	44392.94
632.66	44694.87
632.81	44151.87
632.96	44531.03
633.10	44261.87
633.25	44179.95
633.40	44243.15
633.55	44584.86
633.70	44423.37
633.85	43765.68
634.00	43995.05
634.15	43859.30
634.30	44151.87
634.45	44081.65
634.60	43835.89
634.75	43723.55
634.90	43889.73
635.05	44428.05
635.19	43784.40
635.34	44076.97
635.49	43889.73
635.64	44065.27
635.79	44287.62
635.94	43910.79
636.09	43782.06
636.24	43856.96
636.39	43503.54
636.53	43746.95
636.68	43409.92
636.83	43318.64
636.98	43412.26
637.13	43133.73
637.28	43533.96
637.43	43583.12
637.57	43470.77
637.72	43274.16
637.87	43438.00
638.02	43531.62
638.17	43309.27
638.32	43728.23
638.46	42885.64
638.61	43166.50
638.76	42815.42
638.91	43100.97
639.06	43412.26
639.20	42890.32
639.35	42443.27
639.50	42859.89
639.65	43302.25
639.80	43393.53
639.94	43255.44
640.09	43171.18
640.24	43091.60
640.39	42356.67
640.54	42408.17
640.68	42990.96
640.83	43232.04
640.98	42784.99
641.13	42375.40
641.27	43522.26
641.42	42637.54
641.57	42887.98
641.72	43152.46
641.86	42738.18
642.01	42253.69
642.16	42438.59
642.31	42043.04
642.45	42925.42
642.60	42614.13
642.75	42337.95
642.90	42611.79
643.04	42960.53
643.19	42181.13
643.34	42211.56
643.48	42019.64
643.63	41771.54
643.78	42672.65
643.93	42564.98
644.07	42684.35
644.22	42422.21
644.37	41766.86
644.51	42494.77
644.66	42213.90
644.81	42316.89
644.95	42543.92
645.10	42295.82
645.25	41947.08
645.39	42059.43
645.54	41830.05
645.69	41907.29
645.83	41755.16
645.98	41897.93
646.13	41926.02
646.27	42029.00
646.42	41787.92
646.57	42316.89
646.71	41979.85
646.86	41853.46
647.00	42363.70
647.15	41986.87
647.30	41537.49
647.44	41689.62
647.59	41965.81
647.74	41804.31
647.88	41902.61
648.03	41918.99
648.17	41668.56
648.32	42148.37
648.47	42115.60
648.61	41511.74
648.76	41659.20
648.90	41319.82
649.05	41879.21
649.20	41427.48
649.34	41411.10
649.49	41663.88
649.63	41106.83
649.78	41680.26
649.92	41399.40
650.07	42328.59
650.21	41921.34
650.36	41684.94
650.51	41375.99
650.65	41633.45
650.80	41647.49
650.94	41366.63
651.09	41235.56
651.23	41015.55
651.38	40844.69
651.52	40931.29
651.67	40921.93
651.81	41109.17
651.96	41258.96
652.10	40828.30
652.25	40889.16
652.39	41120.87
652.54	41022.57
652.68	40968.74
652.83	40961.72
652.97	41233.22
653.12	40458.50
653.26	40694.89
653.41	40856.39
653.55	40594.25
653.70	41031.93
653.84	41081.08
653.99	41050.66
654.13	41022.57
654.27	41123.21
654.42	41102.15
654.56	40615.32
654.71	40608.29
654.85	40683.19
655.00	40884.48
655.14	41312.80
655.29	40935.97
655.43	40971.08
655.57	40289.98
655.72	40109.76
655.86	40648.08
656.01	40268.92
656.15	40208.06
656.30	40051.25
656.44	40477.22
656.58	40442.12
656.73	40407.01
656.87	40100.40
657.01	39665.06
657.16	40531.06
657.30	40526.38
657.45	39445.05
657.59	40222.11
657.73	39756.34
657.88	40355.52
658.02	40416.37
658.16	40488.93
658.31	39917.84
658.45	39772.72
658.60	40039.54
658.74	39770.38
658.88	40067.63
659.03	39793.79
659.17	39143.12
659.31	39625.27
659.46	39360.79
659.60	39938.90
659.74	39763.36
659.89	39215.68
660.03	38927.79
660.17	39407.60
660.32	39157.16
660.46	39402.92
660.60	38885.66
660.74	39718.89
660.89	39351.43
661.03	38698.42
661.17	39215.68
661.32	38904.38
661.46	39145.46
661.60	38831.83
661.74	38583.73
661.89	39065.88
662.03	38944.17
662.17	38085.20
662.31	38813.10
662.46	38511.17
662.60	38658.63
662.74	38216.27
662.88	38213.93
663.03	38141.37
663.17	38136.69
663.31	38106.26
663.45	38234.99
663.60	38466.70
663.74	37975.19
663.88	38122.65
664.02	38106.26
664.17	38139.03
664.31	37734.12
664.45	37806.67
664.59	38443.30
664.73	37804.33
664.88	37699.01
665.02	37776.25
665.16	37979.87
665.30	37621.77
665.44	37156.00
665.59	37376.01
665.73	36598.96
665.87	36931.31
666.01	37268.35
666.15	37174.73
666.29	36996.85
666.44	37525.81
666.58	37181.75
666.72	37097.49
666.86	36790.88
667.00	36753.43
667.14	36793.22
667.28	36907.91
667.43	36624.70
667.57	36687.90
667.71	36884.50
667.85	37010.89
667.99	36776.84
668.13	36671.51
668.27	36315.75
668.41	36425.76
668.56	35681.47
668.70	36395.33
668.84	36318.09
668.98	35761.05
669.12	35871.05
669.26	35992.76
669.40	36311.07
669.54	36425.76
669.68	35875.73
669.82	35601.89
669.96	35480.18
670.10	35416.99
670.25	35314.00
670.39	35566.78
670.53	35229.74
670.67	35585.50
670.81	35440.39
670.95	35204.00
671.09	35129.10
671.23	35522.31
671.37	35711.89
671.51	34864.62
671.65	34494.82
671.79	34906.75
671.93	35019.10
672.07	34761.64
672.21	34939.52
672.35	34499.50
672.49	34719.51
672.63	34448.00
672.77	34127.35
672.91	34693.76
673.05	34728.87
673.19	34256.08
673.33	34260.76
673.47	33951.81
673.61	34064.16
673.75	33989.26
673.89	33514.13
674.03	33586.69
674.17	33584.35
674.31	33638.18
674.45	33521.15
674.59	33294.12
674.73	33507.11
674.87	32952.40
675.01	32999.21
675.15	32774.52
675.29	32744.09
675.43	32676.22
675.56	33102.20
675.70	32720.69
675.84	32610.68
675.98	31693.19
676.12	32683.24
676.26	32875.16
676.40	32411.74
676.54	32027.89
676.68	31835.97
676.82	31519.99
676.96	32070.02
677.10	32004.49
677.23	31871.07
677.37	31674.47
677.51	31648.72
677.65	31651.06
677.79	31501.27
677.93	31309.35
678.07	31094.02
678.21	31260.20
678.34	30684.42
678.48	30906.77
678.62	30778.04
678.76	30384.83
678.90	30656.34
679.04	30684.42
679.18	30560.37
679.31	30703.15
679.45	30190.57
679.59	30026.73
679.73	30099.29
679.87	30008.01
680.00	29947.15
680.14	29900.34
680.28	29722.46
680.42	29549.26
680.56	29502.45
680.70	29656.93
680.83	29074.13
680.97	29174.78
681.11	29467.34
681.25	28690.29
681.39	28517.09
681.52	28896.25
681.66	28268.99
681.80	27985.79
681.94	28116.86
682.07	28123.88
682.21	28067.70
682.35	28301.76
682.49	27679.18
682.62	28276.01
682.76	28238.56
682.90	28114.52
683.04	27805.56
683.17	27555.13
683.31	27562.15
683.45	27344.48
683.59	27454.48
683.72	27463.85
683.86	27335.12
684.00	26897.44
684.13	26902.12
684.27	26920.84
684.41	26782.75
684.55	26932.54
684.68	26377.84
684.82	26499.55
684.96	26235.06
685.09	26539.33
685.23	26518.27
685.37	26281.88
685.50	26527.63
685.64	26293.58
685.78	25972.92
685.91	25972.92
686.05	25450.99
686.19	25532.90
686.32	25329.28
686.46	24889.26
686.60	25142.03
686.73	25137.35
686.87	25212.25
687.01	25029.69
687.14	25228.63
687.28	24940.75
687.42	24734.78
687.55	24690.31
687.69	24657.54
687.82	24402.43
687.96	24308.80
688.10	24339.23
688.23	24449.24
688.37	24325.19
688.50	24278.38
688.64	24283.06
688.78	24137.94
688.91	23861.76
689.05	23740.05
689.18	23398.34
689.32	23356.21
689.46	23021.51
689.59	23452.17
689.73	23192.37
689.86	23718.99
690.00	23264.92
690.13	23110.45
690.27	23087.04
690.41	22883.42
690.54	22654.05
690.68	22911.50
690.81	22742.99
690.95	22412.97
691.08	22211.68
691.22	22267.86
691.35	21994.01
691.49	22235.09
691.62	22160.19
691.76	21640.59
691.89	21944.86
692.03	21380.79
692.16	21490.80
692.30	21507.18
692.43	21338.66
692.57	21113.97
692.70	21322.28
692.84	21071.84
692.97	21032.05
693.11	21027.37
693.24	20542.88
693.38	20500.75
693.51	20519.48
693.65	20842.47
693.78	20439.90
693.92	20381.38
694.05	20116.90
694.19	20386.07
694.32	20072.43
694.45	20102.86
694.59	20498.41
694.72	19939.02
694.86	19861.79
694.99	19704.97
695.13	19576.24
695.26	19295.38
695.39	19271.97
695.53	19349.21
695.66	19475.60
695.80	19173.67
695.93	18967.70
696.07	18953.66
696.20	18668.11
696.33	18614.28
696.47	18490.23
696.60	18764.07
696.73	18471.51
696.87	18705.56
697.00	18537.04
697.14	18420.02
697.27	17778.71
697.40	18506.62
697.54	18197.67
697.67	18160.22
697.80	18312.35
697.94	17731.90
698.07	17729.56
698.21	17708.49
698.34	17865.31
698.47	17429.97
698.61	17301.24
698.74	17671.04
698.87	17207.62
699.01	17296.56
699.14	16978.25
699.27	16929.09
699.40	17121.02
699.54	16812.07
699.67	17062.51
699.80	16566.31
699.94	16711.42
700.07	16718.45
700.20	16460.99
700.34	16439.92
700.47	16374.39
700.60	16287.79
700.73	16208.21
700.87	16067.78
701.00	15939.05
701.13	16191.83
701.26	16018.63
701.40	15672.23
701.53	15627.76
701.66	15545.84
701.79	15751.81
701.93	15389.02
702.06	15459.24
702.19	15176.03
702.32	15133.90
702.46	15398.38
702.59	15286.04
702.72	15470.94
702.85	15229.87
702.99	15030.92
703.12	15115.18
703.25	14909.21
703.38	14766.44
703.51	14441.11
703.65	14480.89
703.78	14448.13
703.91	13900.44
704.04	14284.29
704.17	14169.60
704.31	14251.52
704.44	14188.33
704.57	14033.85
704.70	13984.70
704.83	13790.44
704.96	13905.12
705.10	13591.49
705.23	13666.39
>>>>>End Processed Spectral Data<<<<<
