SpectraSuite Data File
++++++++++++++++++++++++++++++++++++
Date: Fri Oct 25 10:43:50 EDT 2013
User: price-jones
Dark Spectrum Present: No
Reference Spectrum Present: No
Number of Sampled Component Spectra: 1
Spectrometers: USB2+H05261
Integration Time (usec): 100000 (USB2+H05261)
Spectra Averaged: 1 (USB2+H05261)
Boxcar Smoothing: 0 (USB2+H05261)
Correct for Electrical Dark: No (USB2+H05261)
Strobe/Lamp Enabled: No (USB2+H05261)
Correct for Detector Non-linearity: No (USB2+H05261)
Correct for Stray Light: No (USB2+H05261)
Number of Pixels in Processed Spectrum: 2048
>>>>>Begin Processed Spectral Data<<<<<
365.73	93.62
365.92	93.62
366.12	93.62
366.32	98.30
366.52	23.41
366.72	79.58
366.91	49.15
367.11	74.90
367.31	46.81
367.51	0.00
367.70	0.00
367.90	74.90
368.10	37.45
368.30	70.22
368.49	0.00
368.69	70.22
368.89	42.13
369.09	70.22
369.28	84.26
369.48	56.17
369.68	63.19
369.87	117.03
370.07	112.35
370.27	119.37
370.47	217.67
370.66	397.89
370.86	468.11
371.06	465.77
371.25	545.34
371.45	482.15
371.65	449.38
371.84	458.74
372.04	486.83
372.24	486.83
372.44	512.58
372.63	538.32
372.83	461.09
373.03	465.77
373.22	472.79
373.42	484.49
373.62	634.29
373.81	573.43
374.01	566.41
374.21	500.87
374.40	498.53
374.60	557.05
374.79	550.03
374.99	566.41
375.19	585.13
375.38	514.92
375.58	547.69
375.78	587.47
375.97	610.88
376.17	615.56
376.37	507.90
376.56	564.07
376.76	606.20
376.95	606.20
377.15	601.52
377.35	669.39
377.54	566.41
377.74	692.80
377.93	599.18
378.13	683.44
378.33	725.57
378.52	653.01
378.72	627.26
378.91	737.27
379.11	589.82
379.31	650.67
379.50	641.31
379.70	678.76
379.89	704.50
380.09	657.69
380.28	683.44
380.48	683.44
380.68	634.29
380.87	645.99
381.07	667.05
381.26	753.65
381.46	690.46
381.65	711.52
381.85	669.39
382.04	720.88
382.24	641.31
382.43	695.14
382.63	681.10
382.83	716.20
383.02	699.82
383.22	770.04
383.41	725.57
383.61	732.59
383.80	781.74
384.00	727.91
384.19	755.99
384.39	830.89
384.58	784.08
384.78	863.66
384.97	770.04
385.17	791.10
385.36	739.61
385.56	770.04
385.75	760.67
385.95	840.25
386.14	816.85
386.34	798.12
386.53	898.77
386.72	755.99
386.92	840.25
387.11	870.68
387.31	875.36
387.50	753.65
387.70	849.61
387.89	828.55
388.09	880.04
388.28	957.28
388.48	978.34
388.67	964.30
388.86	931.53
389.06	938.55
389.25	903.45
389.45	938.55
389.64	910.47
389.84	945.58
390.03	985.37
390.22	1046.22
390.42	950.26
390.61	917.49
390.81	1046.22
391.00	1086.01
391.19	1123.46
391.39	1130.48
391.58	1081.33
391.78	1104.73
391.97	1090.69
392.16	945.58
392.36	1039.20
392.55	1011.11
392.75	952.60
392.94	936.21
393.13	1018.13
393.33	1064.94
393.52	1179.63
393.71	1149.20
393.91	1034.52
394.10	1121.12
394.29	1224.10
394.49	1207.72
394.68	1221.76
394.88	1172.61
395.07	1263.89
395.26	1203.04
395.46	1238.14
395.65	1259.21
395.84	1179.63
396.04	1256.87
396.23	1217.08
396.42	1172.61
396.62	1212.40
396.81	1196.01
397.00	1240.48
397.19	1240.48
397.39	1366.87
397.58	1296.66
397.77	1481.56
397.97	1313.04
398.16	1359.85
398.35	1502.62
398.55	1420.71
398.74	1439.43
398.93	1458.15
399.12	1497.94
399.32	1507.30
399.51	1519.01
399.70	1582.20
399.90	1472.20
400.09	1717.95
400.28	1629.01
400.47	1659.44
400.67	1633.69
400.86	1645.40
401.05	1650.08
401.24	1673.48
401.44	1673.48
401.63	1750.72
401.82	1739.02
402.01	1717.95
402.21	1720.29
402.40	1778.81
402.59	1657.10
402.78	1799.87
402.97	1734.34
403.17	1792.85
403.36	1860.73
403.55	1776.47
403.74	1872.43
403.93	1942.64
404.13	1849.02
404.32	1790.51
404.51	1893.49
404.70	1998.82
404.89	1834.98
405.09	2012.86
405.28	1909.88
405.47	1919.24
405.66	2015.20
405.85	1982.43
406.05	1898.17
406.24	2033.93
406.43	2005.84
406.62	2181.38
406.81	2195.42
407.00	2029.24
407.20	2080.74
407.39	2012.86
407.58	2148.61
407.77	2132.23
407.96	2181.38
408.15	2284.36
408.34	2270.32
408.54	2150.95
408.73	2275.00
408.92	2377.98
409.11	2256.28
409.30	2314.79
409.49	2230.53
409.68	2275.00
409.87	2275.00
410.07	2380.32
410.26	2431.82
410.45	2340.54
410.64	2427.14
410.83	2525.44
411.02	2544.16
411.21	2628.42
411.40	2597.99
411.59	2546.50
411.78	2593.31
411.98	2562.89
412.17	2621.40
412.36	2712.68
412.55	2771.19
412.74	2761.83
412.93	2691.62
413.12	2700.98
413.31	2808.64
413.50	2869.50
413.69	2874.18
413.88	2888.22
414.07	2928.01
414.26	2939.71
414.45	3000.57
414.64	3096.53
414.83	3047.38
415.02	3173.77
415.22	3089.51
415.41	3091.85
415.60	3091.85
415.79	3208.87
415.98	3302.50
416.17	3337.60
416.36	3276.75
416.55	3225.26
416.74	3391.44
416.93	3192.49
417.12	3211.22
417.31	3309.52
417.50	3332.92
417.69	3370.37
417.88	3428.88
418.07	3400.80
418.26	3506.12
418.45	3485.06
418.64	3616.13
418.83	3616.13
419.02	3559.95
419.21	3651.24
419.39	3583.36
419.58	3613.79
419.77	3576.34
419.96	3758.90
420.15	3667.62
420.34	3576.34
420.53	3758.90
420.72	3861.88
420.91	3712.09
421.10	3822.09
421.29	3953.16
421.48	3733.15
421.67	3824.44
421.86	3887.63
422.05	3789.33
422.24	3728.47
422.43	3833.80
422.61	3777.62
422.80	3852.52
422.99	3978.91
423.18	3829.12
423.37	4030.40
423.56	3908.69
423.75	3929.76
423.94	3761.24
424.13	3707.41
424.32	3705.07
424.50	3999.98
424.69	3976.57
424.88	3967.21
425.07	3932.10
425.26	3932.10
425.45	3932.10
425.64	4009.34
425.83	3892.31
426.01	4056.15
426.20	3999.98
426.39	4002.32
426.58	3971.89
426.77	3913.38
426.96	3943.80
427.15	3964.87
427.33	4117.00
427.52	4133.39
427.71	4081.89
427.90	4072.53
428.09	4189.56
428.28	4184.88
428.46	4133.39
428.65	4117.00
428.84	4334.67
429.03	4329.99
429.22	4119.34
429.40	4060.83
429.59	4222.33
429.78	3892.31
429.97	3976.57
430.16	3971.89
430.34	4182.54
430.53	4182.54
430.72	4276.16
430.91	4290.20
431.10	4315.95
431.28	4524.26
431.47	4582.77
431.66	4596.81
431.85	4505.53
432.03	4643.62
432.22	4645.96
432.41	4699.80
432.60	4795.76
432.79	4617.88
432.97	4795.76
433.16	4873.00
433.35	4692.77
433.54	4695.11
433.72	4650.64
433.91	4695.11
434.10	4781.71
434.28	4816.82
434.47	4877.68
434.66	4844.91
434.85	4985.34
435.03	4884.70
435.22	4826.18
435.41	5095.35
435.59	5163.22
435.78	5018.11
435.97	5219.39
436.16	5284.93
436.34	5184.29
436.53	5069.60
436.72	5224.08
436.90	5088.32
437.09	5149.18
437.28	5046.20
437.46	5151.52
437.65	5167.90
437.84	5284.93
438.02	5081.30
438.21	5268.55
438.40	5172.58
438.58	5509.62
438.77	5451.11
438.96	5397.28
439.14	5579.84
439.33	5600.90
439.52	5738.99
439.70	5600.90
439.89	5593.88
440.08	5785.80
440.26	5650.05
440.45	5591.54
440.63	5720.27
440.82	5820.91
441.01	5987.09
441.19	5989.43
441.38	6235.19
441.57	5991.77
441.75	6174.33
441.94	6338.17
442.12	6164.97
442.31	6171.99
442.50	6228.17
442.68	6258.59
442.87	6441.15
443.05	6338.17
443.24	6469.24
443.43	6422.43
443.61	6401.37
443.80	6693.93
443.98	6380.30
444.17	6146.25
444.35	6331.15
444.54	6637.76
444.73	6476.26
444.91	6443.49
445.10	6438.81
445.28	6541.80
445.47	6396.68
445.65	6235.19
445.84	6562.86
446.02	6499.67
446.21	6602.65
446.39	6696.27
446.58	6595.63
446.77	6595.63
446.95	6602.65
447.14	6590.95
447.32	6780.53
447.51	6796.92
447.69	6640.10
447.88	6682.23
448.06	6691.59
448.25	6689.25
448.43	6675.21
448.62	6773.51
448.80	6628.40
448.99	6686.91
449.17	6829.68
449.36	6670.53
449.54	6890.54
449.73	7066.08
449.91	6963.09
450.10	7269.70
450.28	7222.89
450.46	7218.21
450.65	7187.79
450.83	7199.49
451.02	7309.49
451.20	7187.79
451.39	7028.63
451.57	7281.41
451.76	7180.76
451.94	7206.51
452.13	7356.30
452.31	7145.66
452.49	6965.43
452.68	7089.48
452.86	7410.14
453.05	7260.34
453.23	7283.75
453.42	7218.21
453.60	7419.50
453.78	7435.88
453.97	7297.79
454.15	7468.65
454.34	7438.22
454.52	7506.10
454.70	7499.08
454.89	7597.38
455.07	7499.08
455.26	7721.43
455.44	7822.07
455.62	7571.63
455.81	7634.83
455.99	7854.84
456.17	7817.39
456.36	7742.49
456.54	8065.49
456.73	7927.39
456.91	8138.04
457.09	7962.50
457.28	8142.72
457.46	7957.82
457.64	8252.73
457.83	8100.59
458.01	8109.96
458.19	8198.90
458.38	8049.10
458.56	8369.76
458.74	8299.54
458.93	8212.94
459.11	8173.15
459.29	8133.36
459.48	8397.84
459.66	8442.31
459.84	8374.44
460.03	8517.21
460.21	8407.20
460.39	8566.36
460.57	8589.77
460.76	8374.44
460.94	8510.19
461.12	8819.14
461.31	8692.75
461.49	8760.63
461.67	8683.39
461.85	8898.72
462.04	8643.60
462.22	8947.87
462.40	8826.16
462.59	8683.39
462.77	8961.91
462.95	8851.91
463.13	8830.84
463.32	8898.72
463.50	8840.20
463.68	8816.80
463.86	8964.25
464.05	8858.93
464.23	8968.93
464.41	9308.31
464.59	8922.12
464.78	9214.69
464.96	9296.61
465.14	9179.58
465.32	9142.13
465.50	9317.67
465.69	9249.80
465.87	9177.24
466.05	9394.91
466.23	9184.26
466.41	9210.01
466.60	9338.74
466.78	9029.79
466.96	9284.91
467.14	9158.52
467.32	9558.75
467.51	9371.50
467.69	9160.86
467.87	9387.89
468.05	9364.48
468.23	9320.01
468.41	9458.10
468.60	9479.17
468.78	9556.41
468.96	9343.42
469.14	9657.05
469.32	9764.72
469.50	9390.23
469.69	9694.50
469.87	9958.98
470.05	9731.95
470.23	9954.30
470.41	9561.09
470.59	10050.26
470.77	9905.15
470.95	10218.78
471.14	9863.02
471.32	9837.27
471.50	10258.57
471.68	10380.28
471.86	10230.48
472.04	10303.04
472.22	10501.98
472.40	10246.87
472.58	10335.81
472.77	10401.34
472.95	10544.11
473.13	10958.39
473.31	10490.28
473.49	10682.20
473.67	10740.72
473.85	10764.12
474.03	10841.36
474.21	11000.52
474.39	10799.23
474.57	11117.54
474.75	11157.33
474.93	11314.15
475.12	11009.88
475.30	11257.98
475.48	11014.56
475.66	11255.64
475.84	11297.77
476.02	11241.59
476.20	11211.17
476.38	11611.40
476.56	11908.65
476.74	11721.40
476.92	11906.31
477.10	11754.17
477.28	12020.99
477.46	11925.03
477.64	12168.45
477.82	12489.10
478.00	12552.29
478.18	12379.09
478.36	12533.57
478.54	12681.02
478.72	12533.57
478.90	12711.45
479.08	12765.28
479.26	13029.76
479.44	13151.47
479.62	13418.29
479.80	13341.05
479.98	13582.13
480.16	14052.58
480.34	13568.09
480.52	13720.22
480.70	13664.05
480.88	13542.34
481.06	13851.29
481.24	14221.10
481.41	14190.67
481.59	14253.86
481.77	14104.07
481.95	14370.89
482.13	14380.25
482.31	14279.61
482.49	15049.64
482.67	14785.16
482.85	14904.53
483.03	15047.30
483.21	15124.54
483.39	15194.76
483.57	15339.87
483.74	15648.82
483.92	15756.49
484.10	15541.16
484.28	15903.94
484.46	16173.10
484.64	16271.40
484.82	16224.59
485.00	16156.72
485.18	16060.76
485.35	16386.09
485.53	15887.56
485.71	16308.85
485.89	16491.41
486.07	16472.69
486.25	16552.27
486.43	17001.65
486.61	16931.44
486.78	17055.48
486.96	17476.78
487.14	17715.51
487.32	17584.44
487.50	17949.57
487.68	17984.68
487.85	18106.38
488.03	18651.73
488.21	18345.12
488.39	18207.03
488.57	18448.10
488.75	18981.74
488.92	18913.87
489.10	19239.20
489.28	19323.46
489.46	19833.70
489.64	19679.22
489.81	20056.05
489.99	20484.37
490.17	20222.23
490.35	20603.74
490.53	20128.61
490.70	20545.22
490.88	20196.48
491.06	21010.99
491.24	20821.41
491.41	20875.24
491.59	20498.41
491.77	20767.57
491.95	20847.15
492.13	21032.05
492.30	21731.87
492.48	21502.50
492.66	21642.93
492.84	21605.49
493.01	22001.04
493.19	21909.75
493.37	22588.51
493.54	22373.18
493.72	22904.48
493.90	22597.87
494.08	22733.62
494.25	23019.17
494.43	23082.36
494.61	23325.78
494.79	23304.71
494.96	23475.57
495.14	23353.87
495.32	23566.85
495.49	23438.12
495.67	23775.16
495.85	24322.85
496.02	24168.37
496.20	23899.21
496.38	24095.82
496.55	24238.59
496.73	25015.65
496.91	24973.52
497.09	24945.43
497.26	24737.12
497.44	25092.88
497.62	24875.21
497.79	25041.39
497.97	25228.63
498.14	25422.90
498.32	25273.10
498.50	25773.98
498.67	25902.71
498.85	25759.94
499.03	26244.43
499.20	25930.80
499.38	26036.12
499.56	26356.77
499.73	26457.42
499.91	26384.86
500.08	26649.34
500.26	26389.54
500.44	26595.51
500.61	26705.51
500.79	26375.50
500.97	26464.44
501.14	27065.96
501.32	26878.71
501.49	26951.27
501.67	27398.31
501.84	27412.35
502.02	27435.76
502.20	27618.32
502.37	27676.83
502.55	27704.92
502.72	28041.96
502.90	27899.19
503.07	27765.78
503.25	28135.58
503.43	28025.57
503.60	27840.67
503.78	28004.51
503.95	28194.09
504.13	28608.37
504.30	28919.66
504.48	28545.17
504.65	29008.60
504.83	28987.53
505.01	28842.42
505.18	28804.97
505.36	29364.36
505.53	29610.12
505.71	29727.14
505.88	29736.51
506.06	29780.98
506.23	29876.94
506.41	29209.89
506.58	29956.52
506.76	29778.64
506.93	29923.75
507.11	29785.66
507.28	29933.11
507.46	29982.26
507.63	30122.69
507.81	30249.08
507.98	30160.14
508.16	30438.67
508.33	30534.63
508.50	30670.38
508.68	31079.97
508.85	31419.35
509.03	30527.61
509.20	31173.60
509.38	30899.75
509.55	31079.97
509.73	31054.23
509.90	31604.25
510.08	30941.88
510.25	31344.45
510.42	31618.30
510.60	31529.36
510.77	31384.24
510.95	31990.44
511.12	31608.93
511.30	32093.43
511.47	32610.68
511.64	32416.42
511.82	32339.18
511.99	32233.86
512.17	32339.18
512.34	32264.28
512.51	32425.78
512.69	32556.85
512.86	32481.95
513.04	32753.46
513.21	33120.92
513.38	32582.60
513.56	32886.87
513.73	33130.28
513.90	33017.94
514.08	33095.18
514.25	33251.99
514.43	33109.22
514.60	33120.92
514.77	33137.30
514.95	33584.35
515.12	33434.55
515.29	33429.87
515.47	33928.41
515.64	33933.09
515.81	33759.89
515.99	33546.90
516.16	33839.47
516.33	33530.51
516.51	33844.15
516.68	33259.01
516.85	33282.42
517.03	33560.94
517.20	34110.97
517.37	34438.64
517.54	34448.00
517.72	34206.93
517.89	34146.08
518.06	33851.17
518.24	34368.43
518.41	33954.15
518.58	34707.80
518.75	34370.77
518.93	34766.32
519.10	34930.16
519.27	34738.23
519.45	35178.25
519.62	35218.04
519.79	35175.91
519.96	35201.66
520.14	35227.40
520.31	35054.20
520.48	35409.96
520.65	35110.38
520.83	35871.05
521.00	35903.82
521.17	35768.07
521.34	36428.10
521.52	36163.62
521.69	35501.25
521.86	36472.57
522.03	36290.01
522.20	36423.42
522.38	36376.61
522.55	36582.57
522.72	36739.39
522.89	36168.30
523.07	36573.21
523.24	36430.44
523.41	37130.26
523.58	36678.54
523.75	36760.45
523.92	36978.12
524.10	37069.40
524.27	37205.16
524.44	37078.77
524.61	37429.85
524.78	37493.04
524.96	37479.00
525.13	37347.93
525.30	37855.82
525.47	37174.73
525.64	37425.17
525.81	37556.24
525.98	37020.25
526.16	37467.30
526.33	37619.43
526.50	37422.83
526.67	37097.49
526.84	36584.91
527.01	37727.10
527.18	37481.34
527.36	38242.01
527.53	38043.07
527.70	38209.25
527.87	38677.35
528.04	38621.18
528.21	38518.20
528.38	38579.05
528.55	38740.55
528.72	38803.74
528.89	38700.76
529.07	38761.61
529.24	38621.18
529.41	39021.41
529.58	38639.90
529.75	39447.39
529.92	38738.21
530.09	38536.92
530.26	39098.65
530.43	39426.32
530.60	38878.64
530.77	39159.50
530.94	39335.04
531.11	39035.45
531.28	39318.66
531.46	39728.25
531.63	39047.16
531.80	39339.72
531.97	39346.75
532.14	39157.16
532.31	39009.71
532.48	38998.01
532.65	39971.67
532.82	39215.68
532.99	39988.05
533.16	39496.54
533.33	39934.22
533.50	40109.76
533.67	39812.51
533.84	39707.19
534.01	39739.96
534.18	40203.38
534.35	39847.62
534.52	40179.98
534.69	40608.29
534.86	40371.90
535.03	40259.55
535.20	40954.69
535.37	40861.07
535.54	40795.54
535.71	40339.13
535.88	40421.05
536.05	40376.58
536.22	40505.31
536.38	40980.44
536.55	40591.91
536.72	40638.72
536.89	40535.74
537.06	40758.09
537.23	40975.76
537.40	40825.96
537.57	41163.00
537.74	41233.22
537.91	41443.87
538.08	40959.38
538.25	40872.78
538.42	40964.06
538.59	41600.68
538.75	41193.43
538.92	40917.25
539.09	41303.43
539.26	41317.48
539.43	41010.87
539.60	41221.52
539.77	41280.03
539.94	41343.22
540.11	41188.75
540.28	41605.36
540.44	41511.74
540.61	41378.33
540.78	41532.81
540.95	41160.66
541.12	41401.74
541.29	41816.01
541.46	42003.25
541.62	41717.71
541.79	42029.00
541.96	41832.39
542.13	42003.25
542.30	41764.52
542.47	42122.62
542.63	41977.51
542.80	41780.90
542.97	42431.57
543.14	42674.99
543.31	42361.36
543.48	42653.92
543.64	43166.50
543.81	42920.74
543.98	42834.14
544.15	42773.29
544.32	42710.10
544.48	42934.79
544.65	42796.70
544.82	42810.74
544.99	42859.89
545.16	42817.76
545.32	42700.73
545.49	43047.13
545.66	43122.03
545.83	43100.97
546.00	43524.60
546.16	43480.13
546.33	42974.58
546.50	43122.03
546.67	43438.00
546.83	42557.96
547.00	43381.83
547.17	42857.55
547.34	42862.23
547.50	43180.54
547.67	43377.15
547.84	43789.08
548.00	43302.25
548.17	44130.80
548.34	43796.10
548.51	43735.25
548.67	43650.99
548.84	43583.12
549.01	43557.37
549.18	43559.71
549.34	43428.64
549.51	43583.12
549.68	43957.60
549.84	44046.54
550.01	43711.84
550.18	43653.33
550.34	43800.79
550.51	43590.14
550.68	43737.59
550.84	43744.61
551.01	44376.56
551.18	44065.27
551.34	44163.57
551.51	44161.23
551.68	44224.42
551.84	44711.25
552.01	43810.15
552.18	44474.86
552.34	43922.49
552.51	44119.10
552.68	44123.78
552.84	44404.64
553.01	44142.50
553.18	44325.07
553.34	44629.34
553.51	44444.43
553.67	44694.87
553.84	44715.93
554.01	44830.62
554.17	44678.49
554.34	44959.35
554.51	45055.31
554.67	44697.21
554.84	44165.91
555.00	44531.03
555.17	44414.01
555.33	44783.81
555.50	44795.51
555.67	44580.18
555.83	44610.61
556.00	45069.36
556.16	45214.47
556.33	44514.65
556.50	44566.14
556.66	45008.50
556.83	44680.83
556.99	44966.37
557.16	45305.75
557.32	45085.74
557.49	45254.26
557.65	44980.42
557.82	45134.89
557.98	45258.94
558.15	45106.80
558.32	44741.68
558.48	44861.05
558.65	44776.79
558.81	44552.10
558.98	44893.82
559.14	44879.77
559.31	44898.50
559.47	45256.60
559.64	45593.64
559.80	45170.00
559.97	45251.92
560.13	44870.41
560.30	45586.61
560.46	45450.86
560.63	45448.52
560.79	45607.68
560.96	45528.10
561.12	44989.78
561.29	45083.40
561.45	45495.33
561.61	45017.86
561.78	45085.74
561.94	45088.08
562.11	45298.73
562.27	45392.35
562.44	45228.51
562.60	45467.25
562.77	45841.73
562.93	45755.13
563.10	45748.11
563.26	45048.29
563.42	45490.65
563.59	45097.44
563.75	45539.80
563.92	45450.86
564.08	45612.36
564.24	45682.58
564.41	45434.48
564.57	45633.42
564.74	45598.32
564.90	45338.52
565.07	45743.43
565.23	45911.95
565.39	45631.08
565.56	45502.35
565.72	45179.36
565.88	45858.12
566.05	45617.04
566.21	45607.68
566.38	45900.25
566.54	45691.94
566.70	45677.90
566.87	46305.16
567.03	46010.25
567.19	46160.05
567.36	45834.71
567.52	45900.25
567.68	45940.04
567.85	45287.03
568.01	46089.83
568.17	45546.82
568.34	46162.39
568.50	45755.13
568.66	45895.56
568.83	45942.38
568.99	45275.32
569.15	45778.54
569.32	45755.13
569.48	45694.28
569.64	46026.63
569.81	45448.52
569.97	45689.60
570.13	46155.36
570.30	45572.57
570.46	45881.52
570.62	45387.67
570.78	45209.79
570.95	45265.96
571.11	45755.13
571.27	45773.86
571.43	45970.46
571.60	46050.04
571.76	45666.19
571.92	45659.17
572.09	45930.67
572.25	45839.39
572.41	45764.49
572.57	45371.28
572.74	46461.97
572.90	46028.98
573.06	46321.54
573.22	45640.45
573.38	45720.02
573.55	45476.61
573.71	46251.33
573.87	45682.58
574.03	46014.93
574.20	46244.30
574.36	45858.12
574.52	46052.38
574.68	46064.08
574.84	45951.74
575.01	45710.66
575.17	46267.71
575.33	45998.55
575.49	45820.67
575.65	45893.22
575.82	46487.72
575.98	45560.87
576.14	46178.77
576.30	45834.71
576.46	45923.65
576.62	45879.18
576.79	46028.98
576.95	45677.90
577.11	45806.62
577.27	45741.09
577.43	45888.54
577.59	45846.41
577.75	45996.21
577.92	45495.33
578.08	45947.06
578.24	45933.01
578.40	45635.77
578.56	45851.09
578.72	45799.60
578.88	46073.45
579.04	46036.00
579.21	45584.27
579.37	45818.33
579.53	46239.62
579.69	45834.71
579.85	45954.08
580.01	46344.95
580.17	46026.63
580.33	45855.78
580.49	46176.43
580.65	45982.16
580.82	46108.55
580.98	45799.60
581.14	45977.48
581.30	46096.85
581.46	45918.97
581.62	46382.40
581.78	46052.38
581.94	46141.32
582.10	45705.98
582.26	46047.70
582.42	46522.83
582.58	46057.06
582.74	45902.59
582.90	46321.54
583.06	46366.01
583.22	46476.02
583.38	46424.53
583.54	46363.67
583.70	46202.18
583.86	46471.34
584.02	46211.54
584.18	46183.45
584.34	46036.00
584.50	46316.86
584.66	46071.10
584.82	46007.91
584.98	46387.08
585.14	46366.01
585.30	45968.12
585.46	46099.19
585.62	45668.53
585.78	46138.98
585.94	45776.20
586.10	46333.24
586.26	46134.30
586.42	46476.02
586.58	46445.59
586.74	46302.82
586.90	45848.75
587.06	46260.69
587.22	46014.93
587.38	46028.98
587.54	45872.16
587.70	46403.46
587.86	45970.46
588.02	46169.41
588.18	45979.82
588.34	46146.00
588.49	45535.12
588.65	45483.63
588.81	45415.76
588.97	45858.12
589.13	45268.30
589.29	46150.68
589.45	46045.36
589.61	45911.95
589.77	45933.01
589.93	46232.60
590.08	46248.99
590.24	46590.70
590.40	46267.71
590.56	46036.00
590.72	46443.25
590.88	46520.49
591.04	46429.21
591.20	46738.16
591.35	46485.38
591.51	46635.17
591.67	45808.96
591.83	46209.20
591.99	46021.95
592.15	46164.73
592.31	46316.86
592.46	46295.80
592.62	46499.42
592.78	46623.47
592.94	46569.64
593.10	46129.62
593.26	46515.81
593.41	46131.96
593.57	45895.56
593.73	45930.67
593.89	46452.61
594.05	46014.93
594.20	46684.33
594.36	45876.84
594.52	46440.91
594.68	46148.34
594.84	45841.73
594.99	46300.48
595.15	46251.33
595.31	46635.17
595.47	46211.54
595.62	46244.30
595.78	46286.43
595.94	46651.56
596.10	46497.08
596.25	46649.22
596.41	46234.94
596.57	46305.16
596.73	46302.82
596.88	45518.74
597.04	46040.68
597.20	46597.73
597.36	46150.68
597.51	46246.65
597.67	46307.50
597.83	46536.87
597.99	46777.95
598.14	46452.61
598.30	46557.94
598.46	46408.14
598.61	46398.78
598.77	46047.70
598.93	46220.90
599.09	46630.49
599.24	46803.69
599.40	46560.28
599.56	46396.44
599.71	46438.57
599.87	46902.00
600.03	46155.36
600.18	46031.32
600.34	46017.27
600.50	46225.58
600.65	45979.82
600.81	46328.56
600.97	46504.10
601.12	46529.85
601.28	46602.41
601.44	46319.20
601.59	46218.56
601.75	45947.06
601.91	46408.14
602.06	45968.12
602.22	46438.57
602.37	46256.01
602.53	46347.29
602.69	46012.59
602.84	46188.13
603.00	46136.64
603.16	46237.28
603.31	46230.26
603.47	46291.12
603.62	46003.23
603.78	46192.81
603.94	46728.80
604.09	46426.87
604.25	46302.82
604.40	46515.81
604.56	46019.61
604.71	46405.80
604.87	46520.49
605.03	46344.95
605.18	46429.21
605.34	45989.19
605.49	45811.31
605.65	46546.23
605.80	46052.38
605.96	46038.34
606.12	46000.89
606.27	46157.70
606.43	45734.07
606.58	46223.24
606.74	45918.97
606.89	46106.21
607.05	46295.80
607.20	45947.06
607.36	46171.75
607.51	46099.19
607.67	45890.88
607.82	46199.83
607.98	46131.96
608.13	46309.84
608.29	45876.84
608.44	45467.25
608.60	45294.05
608.75	45972.80
608.91	46223.24
609.06	46099.19
609.22	46143.66
609.37	45940.04
609.53	45890.88
609.68	46000.89
609.84	46071.10
609.99	45860.46
610.15	45652.15
610.30	45621.72
610.46	45741.09
610.61	45729.39
610.76	45675.55
610.92	46057.06
611.07	45968.12
611.23	46043.02
611.38	45701.30
611.54	45600.66
611.69	44928.92
611.84	45013.18
612.00	45172.34
612.15	45429.80
612.31	45921.31
612.46	45242.56
612.62	45558.53
612.77	45020.20
612.92	45713.00
613.08	45111.49
613.23	45343.20
613.39	45104.46
613.54	44985.10
613.69	45453.20
613.85	45111.49
614.00	45633.42
614.15	45420.44
614.31	45333.84
614.46	45642.79
614.62	45137.23
614.77	45074.04
614.92	45221.49
615.08	44870.41
615.23	45151.27
615.38	45237.87
615.54	44657.42
615.69	45059.99
615.84	45109.14
616.00	45209.79
616.15	45013.18
616.30	44561.46
616.46	44844.66
616.61	44507.63
616.76	44683.17
616.92	44493.58
617.07	44491.24
617.22	44552.10
617.37	44678.49
617.53	45123.19
617.68	44896.16
617.83	44797.85
617.99	44566.14
618.14	44671.46
618.29	44477.20
618.45	44315.70
618.60	44275.91
618.75	44128.46
618.90	44402.30
619.06	44076.97
619.21	44699.55
619.36	44453.79
619.51	44587.21
619.67	43849.94
619.82	44608.27
619.97	44364.85
620.12	44472.52
620.28	43943.56
620.43	44463.16
620.58	44507.63
620.73	44479.54
620.89	44179.95
621.04	44093.35
621.19	44458.48
621.34	44212.72
621.49	43999.73
621.65	44282.94
621.80	44294.64
621.95	43931.86
622.10	44109.74
622.25	44126.12
622.41	43700.14
622.56	43856.96
622.71	44123.78
622.86	43700.14
623.01	43681.42
623.16	43882.70
623.32	43882.70
623.47	43761.00
623.62	43686.10
623.77	43428.64
623.92	43508.22
624.07	43721.21
624.23	43423.96
624.38	43716.53
624.53	43208.63
624.68	44058.24
624.83	43454.39
624.98	43388.85
625.13	43189.91
625.29	43548.01
625.44	43225.01
625.59	43129.05
625.74	43023.73
625.89	42923.08
626.04	43100.97
626.19	43157.14
626.34	42843.51
626.49	43175.86
626.65	43342.04
626.80	43159.48
626.95	42960.53
627.10	42789.67
627.25	42817.76
627.40	43105.65
627.55	42368.38
627.70	42492.43
627.85	42462.00
628.00	42457.32
628.15	42820.10
628.30	42787.33
628.45	43061.18
628.60	42803.72
628.76	42782.65
628.91	42820.10
629.06	42869.25
629.21	42223.26
629.36	42600.09
629.51	42632.86
629.66	42572.00
629.81	42267.73
629.96	42679.67
630.11	42761.59
630.26	42962.87
630.41	42862.23
630.56	41883.89
630.71	41820.69
630.86	42003.25
631.01	41951.76
631.16	42054.75
631.31	42026.66
631.46	41736.43
631.61	42143.69
631.76	41895.59
631.91	42251.35
632.06	41916.65
632.21	42225.60
632.36	42389.44
632.51	41804.31
632.66	42075.81
632.81	41717.71
632.96	41954.10
633.10	41942.40
633.25	42291.14
633.40	41998.57
633.55	41841.76
633.70	41804.31
633.85	41736.43
634.00	41944.74
634.15	41776.22
634.30	41551.53
634.45	41425.14
634.60	41647.49
634.75	41090.44
634.90	41265.99
635.05	42061.77
635.19	41209.81
635.34	41752.82
635.49	41364.29
635.64	41621.75
635.79	41486.00
635.94	41184.07
636.09	40961.72
636.24	41053.00
636.39	41074.06
636.53	41188.75
636.68	41003.85
636.83	40828.30
636.98	41544.51
637.13	41022.57
637.28	41530.47
637.43	41610.04
637.57	41357.27
637.72	41055.34
637.87	40950.01
638.02	41092.79
638.17	41429.82
638.32	41024.91
638.46	40886.82
638.61	41031.93
638.76	40828.30
638.91	41361.95
639.06	40903.20
639.20	40620.00
639.35	41069.38
639.50	40498.29
639.65	40861.07
639.80	40748.73
639.94	40355.52
640.09	40435.10
640.24	40416.37
640.39	40509.99
640.54	40378.92
640.68	40598.93
640.83	40343.81
640.98	40575.53
641.13	40215.08
641.27	40451.48
641.42	40605.95
641.57	40194.02
641.72	40388.28
641.86	39824.22
642.01	39716.55
642.16	39793.79
642.31	39700.17
642.45	40512.33
642.60	40177.64
642.75	40004.44
642.90	39948.26
643.04	39969.33
643.19	40119.12
643.34	39735.27
643.48	39704.85
643.63	39466.11
643.78	39866.34
643.93	39817.19
644.07	39660.38
644.22	39772.72
644.37	39887.41
644.51	39524.63
644.66	39608.89
644.81	40364.88
644.95	39821.87
645.10	39662.72
645.25	39543.35
645.39	39374.83
645.54	39562.08
645.69	39763.36
645.83	39957.63
645.98	39604.20
646.13	39278.87
646.27	39302.28
646.42	38899.70
646.57	39321.00
646.71	39063.54
646.86	39323.34
647.00	39608.89
647.15	39669.74
647.30	39192.27
647.44	39033.11
647.59	38871.62
647.74	38979.28
647.88	39264.83
648.03	39234.40
648.17	38960.56
648.32	38871.62
648.47	38775.66
648.61	38895.02
648.76	38983.96
648.90	39002.69
649.05	38960.56
649.20	39180.57
649.34	39213.34
649.49	38752.25
649.63	38780.34
649.78	39136.10
649.92	39152.48
650.07	39353.77
650.21	38698.42
650.36	38768.63
650.51	38789.70
650.65	39199.29
650.80	39400.58
650.94	39250.78
651.09	38506.49
651.23	38785.02
651.38	38642.24
651.52	38595.43
651.67	38576.71
651.81	38450.32
651.96	38780.34
652.10	38934.81
652.25	38298.19
652.39	38450.32
652.54	38572.03
652.68	38162.43
652.83	38359.04
652.97	39023.75
653.12	38323.93
653.26	38288.82
653.41	38146.05
653.55	38466.70
653.70	38433.94
653.84	38359.04
653.99	38010.30
654.13	38129.67
654.27	38246.69
654.42	37839.44
654.56	37841.78
654.71	37928.38
654.85	37832.42
655.00	37970.51
655.14	37975.19
655.29	37383.04
655.43	38029.02
655.57	37893.27
655.72	37441.55
655.86	37280.05
656.01	37027.28
656.15	36980.46
656.30	37237.92
656.44	36959.40
656.58	37333.89
656.73	37490.70
656.87	37296.44
657.01	37308.14
657.16	37399.42
657.30	36870.46
657.45	37312.82
657.59	37404.10
657.73	37247.29
657.88	37687.31
658.02	37649.86
658.16	37544.53
658.31	37574.96
658.45	37331.54
658.60	37258.99
658.74	37109.19
658.88	37368.99
659.03	36818.97
659.17	36776.84
659.31	36973.44
659.46	36704.28
659.60	36905.57
659.74	36910.25
659.89	36673.85
660.03	36524.06
660.17	37053.02
660.32	37013.23
660.46	36598.96
660.60	36800.24
660.74	36203.41
660.89	36622.36
661.03	36189.36
661.17	36367.24
661.32	36409.37
661.46	36418.74
661.60	36580.23
661.74	35894.46
661.89	36364.90
662.03	36084.04
662.17	36030.21
662.31	36229.15
662.46	36430.44
662.60	36301.71
662.74	36084.04
662.88	35847.64
663.03	35517.63
663.17	36517.04
663.31	35365.49
663.45	35878.07
663.60	35637.00
663.74	35735.30
663.88	35681.47
664.02	35241.45
664.17	35342.09
664.31	35608.91
664.45	35096.33
664.59	35007.39
664.73	35255.49
664.88	35311.66
665.02	34941.86
665.16	35416.99
665.30	35117.40
665.44	34745.25
665.59	34628.23
665.73	34913.77
665.87	34602.48
666.01	34560.35
666.15	34579.07
666.29	34686.74
666.44	34866.96
666.58	34232.68
666.72	34733.55
666.86	34146.08
667.00	34267.78
667.14	34286.51
667.28	34043.09
667.43	34415.24
667.57	34230.33
667.71	34087.56
667.85	34225.65
667.99	34384.81
668.13	34485.45
668.27	34206.93
668.41	34323.96
668.56	33907.34
668.70	33717.76
668.84	33476.68
668.98	33125.60
669.12	33420.51
669.26	33560.94
669.40	33266.03
669.54	33560.94
669.68	33450.94
669.82	33535.20
669.96	32968.79
670.10	32924.32
670.25	33418.17
670.39	33219.22
670.53	32917.29
670.67	33074.11
670.81	33247.31
670.95	32989.85
671.09	32732.39
671.23	32755.80
671.37	32526.42
671.51	32222.16
671.65	32119.17
671.79	32327.48
671.93	32528.77
672.07	32512.38
672.21	32140.24
672.35	32180.03
672.49	32479.61
672.63	32467.91
672.77	32048.96
672.91	31725.96
673.05	31896.82
673.19	32070.02
673.33	31765.75
673.47	31517.65
673.61	31323.39
673.75	31452.12
673.89	30991.03
674.03	31515.31
674.17	31124.44
674.31	31379.56
674.45	31091.68
674.59	31679.15
674.73	31662.77
674.87	30979.33
675.01	30862.30
675.15	31192.32
675.29	30787.41
675.43	30883.37
675.56	30829.54
675.70	30525.27
675.84	30614.21
675.98	29425.22
676.12	30445.69
676.26	30934.86
676.40	30244.40
676.54	30560.37
676.68	30312.28
676.82	29556.28
676.96	30122.69
677.10	29729.48
677.23	30134.40
677.37	29495.43
677.51	29570.33
677.65	29570.33
677.79	28987.53
677.93	29308.19
678.07	29081.16
678.21	28505.38
678.34	28968.81
678.48	28418.78
678.62	28568.58
678.76	28465.60
678.90	28151.96
679.04	28315.80
679.18	28526.45
679.31	28105.15
679.45	28140.26
679.59	28364.95
679.73	28065.36
679.87	27850.03
680.00	28126.22
680.14	27590.24
680.28	27791.52
680.42	27576.19
680.56	27634.71
680.70	27601.94
680.83	27700.24
680.97	27646.41
681.11	27248.52
681.25	27569.17
681.39	27056.59
681.52	26974.67
681.66	26899.78
681.80	26941.91
681.94	26618.91
682.07	26986.38
682.21	26338.05
682.35	26635.30
682.49	26525.29
682.62	26434.01
682.76	26216.34
682.90	26265.49
683.04	26284.22
683.17	26132.08
683.31	26132.08
683.45	25865.26
683.59	25326.94
683.72	25401.83
683.86	25804.41
684.00	25855.90
684.13	25322.26
684.27	25371.41
684.41	25055.43
684.55	25008.62
684.68	25092.88
684.82	25010.96
684.96	25013.31
685.09	24826.06
685.23	24662.22
685.37	24805.00
685.50	24720.74
685.64	24552.22
685.78	24584.99
685.91	24119.22
686.05	24067.73
686.19	23676.86
686.32	24018.58
686.46	23562.17
686.60	23309.40
686.73	23456.85
686.87	23288.33
687.01	23154.92
687.14	23351.52
687.28	22946.61
687.42	23152.58
687.55	22888.10
687.69	23208.75
687.82	23002.78
687.96	22918.53
688.10	22895.12
688.23	22424.67
688.37	22647.02
688.50	22373.18
688.64	22672.77
688.78	22506.59
688.91	22478.50
689.05	22284.24
689.18	22331.05
689.32	21568.04
689.46	22141.47
689.59	22185.94
689.73	22237.43
689.86	21696.77
690.00	21514.20
690.13	21612.51
690.27	21673.36
690.41	21326.96
690.54	21240.36
690.68	21233.34
690.81	21408.88
690.95	21336.32
691.08	21228.66
691.22	20975.88
691.35	21165.46
691.49	20996.95
691.62	20854.17
691.76	20968.86
691.89	20758.21
692.03	20362.66
692.16	20519.48
692.30	20219.89
692.43	20203.50
692.57	20114.56
692.70	20280.74
692.84	20182.44
692.97	19618.37
693.11	20198.82
693.24	19653.48
693.38	19513.05
693.51	19648.80
693.65	19777.53
693.78	19440.49
693.92	19433.47
694.05	19393.68
694.19	19021.53
694.32	19381.98
694.45	19372.61
694.59	19129.20
694.72	19042.60
694.86	18647.05
694.99	18803.86
695.13	18906.85
695.26	19012.17
695.39	18548.75
695.53	18705.56
695.66	18864.72
695.80	18799.18
695.93	18317.03
696.07	18347.46
696.20	18375.55
696.33	18380.23
696.47	18003.40
696.60	17975.31
696.73	17769.35
696.87	17795.09
697.00	17694.45
697.14	17462.74
697.27	17549.34
697.40	17338.69
697.54	17460.40
697.67	17408.90
697.80	17015.69
697.94	16879.94
698.07	17085.91
698.21	17212.30
698.34	17121.02
698.47	17011.01
698.61	16760.58
698.74	16758.24
698.87	16666.95
699.01	16346.30
699.14	16479.71
699.27	16240.98
699.40	16187.14
699.54	16376.73
699.67	16376.73
699.80	16224.59
699.94	16126.29
700.07	16327.58
700.20	16198.85
700.34	15803.30
700.47	15934.37
700.60	15995.22
700.73	15903.94
700.87	15494.35
701.00	15534.14
701.13	15590.31
701.26	15658.18
701.40	15613.71
701.53	15124.54
701.66	15613.71
701.79	15124.54
701.93	14834.32
702.06	14801.55
702.19	14780.48
702.32	15026.24
702.46	14757.08
702.59	14867.08
702.72	15103.48
702.85	14831.97
702.99	14778.14
703.12	14743.03
703.25	14300.67
703.38	14413.02
703.51	14272.59
703.65	14342.80
703.78	14321.74
703.91	14052.58
704.04	13970.66
704.17	14134.50
704.31	13970.66
704.44	13802.14
704.57	13862.99
704.70	13947.25
704.83	13586.81
704.96	13802.14
705.10	13544.68
705.23	13778.73
>>>>>End Processed Spectral Data<<<<<
