SpectraSuite Data File
++++++++++++++++++++++++++++++++++++
Date: Fri Oct 25 11:34:16 EDT 2013
User: price-jones
Dark Spectrum Present: No
Reference Spectrum Present: No
Number of Sampled Component Spectra: 1
Spectrometers: USB2+H05261
Integration Time (usec): 100000 (USB2+H05261)
Spectra Averaged: 1 (USB2+H05261)
Boxcar Smoothing: 0 (USB2+H05261)
Correct for Electrical Dark: No (USB2+H05261)
Strobe/Lamp Enabled: No (USB2+H05261)
Correct for Detector Non-linearity: No (USB2+H05261)
Correct for Stray Light: No (USB2+H05261)
Number of Pixels in Processed Spectrum: 2048
>>>>>Begin Processed Spectral Data<<<<<
365.73	248.10
365.92	248.10
366.12	248.10
366.32	241.08
366.52	201.29
366.72	177.88
366.91	201.29
367.11	196.60
367.31	138.09
367.51	166.18
367.70	145.11
367.90	175.54
368.10	203.63
368.30	126.39
368.49	198.95
368.69	175.54
368.89	173.20
369.09	273.84
369.28	191.92
369.48	182.56
369.68	196.60
369.87	208.31
370.07	283.20
370.27	238.73
370.47	304.27
370.66	496.19
370.86	517.26
371.06	533.64
371.25	585.13
371.45	608.54
371.65	613.22
371.84	573.43
372.04	545.34
372.24	610.88
372.44	589.82
372.63	667.05
372.83	594.50
373.03	615.56
373.22	599.18
373.42	622.58
373.62	571.09
373.81	622.58
374.01	685.78
374.21	688.12
374.40	624.92
374.60	641.31
374.79	641.31
374.99	702.16
375.19	636.63
375.38	734.93
375.58	657.69
375.78	739.61
375.97	671.73
376.17	678.76
376.37	695.14
376.56	727.91
376.76	683.44
376.95	713.86
377.15	692.80
377.35	641.31
377.54	601.52
377.74	648.33
377.93	676.41
378.13	674.07
378.33	746.63
378.52	695.14
378.72	667.05
378.91	692.80
379.11	685.78
379.31	720.88
379.50	732.59
379.70	760.67
379.89	755.99
380.09	671.73
380.28	767.70
380.48	711.52
380.68	692.80
380.87	718.54
381.07	770.04
381.26	716.20
381.46	847.27
381.65	713.86
381.85	774.72
382.04	741.95
382.24	716.20
382.43	704.50
382.63	760.67
382.83	697.48
383.02	809.83
383.22	772.38
383.41	793.44
383.61	753.65
383.80	723.23
384.00	723.23
384.19	781.74
384.39	732.59
384.58	737.27
384.78	821.53
384.97	786.42
385.17	863.66
385.36	830.89
385.56	819.19
385.75	751.31
385.95	805.14
386.14	891.74
386.34	868.34
386.53	777.06
386.72	866.00
386.92	873.02
387.11	884.72
387.31	856.64
387.50	802.80
387.70	889.40
387.89	861.32
388.09	880.04
388.28	968.98
388.48	875.36
388.67	908.13
388.86	912.81
389.06	952.60
389.25	971.32
389.45	922.17
389.64	987.71
389.84	938.55
390.03	901.11
390.22	919.83
390.42	940.90
390.61	933.87
390.81	873.02
391.00	1022.81
391.19	917.49
391.39	1006.43
391.58	1043.88
391.78	1036.86
391.97	1011.11
392.16	1027.50
392.36	978.34
392.55	1039.20
392.75	1055.58
392.94	976.00
393.13	1039.20
393.33	1053.24
393.52	947.92
393.71	1064.94
393.91	1034.52
394.10	1057.92
394.29	1018.13
394.49	1069.62
394.68	1132.82
394.88	1144.52
395.07	1090.69
395.26	1064.94
395.46	1203.04
395.65	1165.59
395.84	1221.76
396.04	1174.95
396.23	1097.71
396.42	1135.16
396.62	1125.80
396.81	1196.01
397.00	1158.57
397.19	1193.67
397.39	1205.38
397.58	1252.19
397.77	1165.59
397.97	1184.31
398.16	1210.06
398.35	1331.76
398.55	1210.06
398.74	1231.12
398.93	1329.42
399.12	1207.72
399.32	1284.95
399.51	1270.91
399.70	1380.92
399.90	1366.87
400.09	1315.38
400.28	1401.98
400.47	1336.45
400.67	1416.02
400.86	1284.95
401.05	1303.68
401.24	1352.83
401.44	1427.73
401.63	1406.66
401.82	1420.71
402.01	1423.05
402.21	1427.73
402.40	1416.02
402.59	1453.47
402.78	1441.77
402.97	1474.54
403.17	1500.28
403.36	1423.05
403.55	1516.67
403.74	1561.14
403.93	1488.58
404.13	1502.62
404.32	1617.31
404.51	1565.82
404.70	1654.76
404.89	1540.07
405.09	1678.16
405.28	1668.80
405.47	1659.44
405.66	1605.61
405.85	1699.23
406.05	1624.33
406.24	1722.63
406.43	1694.55
406.62	1750.72
406.81	1743.70
407.00	1727.32
407.20	1732.00
407.39	1750.72
407.58	1682.85
407.77	1790.51
407.96	1788.17
408.15	1863.07
408.34	1844.34
408.54	1870.09
408.73	1776.47
408.92	1984.77
409.11	1849.02
409.30	1832.64
409.49	1874.77
409.68	2026.90
409.87	1954.35
410.07	1935.62
410.26	1963.71
410.45	2050.31
410.64	2001.16
410.83	2099.46
411.02	2122.87
411.21	2097.12
411.40	2097.12
411.59	2057.33
411.78	1982.43
411.98	2008.18
412.17	2118.18
412.36	2162.66
412.55	2277.34
412.74	2284.36
412.93	2216.49
413.12	2188.40
413.31	2401.39
413.50	2305.43
413.69	2415.43
413.88	2436.50
414.07	2338.20
414.26	2480.97
414.45	2380.32
414.64	2385.01
414.83	2572.25
415.02	2595.65
415.22	2583.95
415.41	2682.25
415.60	2532.46
415.79	2520.76
415.98	2593.31
416.17	2731.41
416.36	2532.46
416.55	2649.49
416.74	2719.70
416.93	2724.38
417.12	2822.69
417.31	2792.26
417.50	2789.92
417.69	2958.44
417.88	2932.69
418.07	2916.31
418.26	2939.71
418.45	2782.90
418.64	2913.97
418.83	2967.80
419.02	2998.23
419.21	3059.08
419.39	3030.99
419.58	2862.48
419.77	3063.76
419.96	3096.53
420.15	3155.04
420.34	2974.82
420.53	3030.99
420.72	3073.12
420.91	3054.40
421.10	3122.27
421.29	3318.88
421.48	3187.81
421.67	3176.11
421.86	3260.37
422.05	3236.96
422.24	3187.81
422.43	3286.11
422.61	3236.96
422.80	3358.67
422.99	3227.60
423.18	3255.69
423.37	3417.18
423.56	3454.63
423.75	3377.39
423.94	3283.77
424.13	3066.10
424.32	3002.91
424.50	3328.24
424.69	3342.28
424.88	3393.78
425.07	3176.11
425.26	3279.09
425.45	3281.43
425.64	3372.71
425.83	3424.20
426.01	3365.69
426.20	3400.80
426.39	3365.69
426.58	3304.84
426.77	3361.01
426.96	3496.76
427.15	3389.10
427.33	3536.55
427.52	3421.86
427.71	3487.40
427.90	3311.86
428.09	3536.55
428.28	3578.68
428.46	3611.45
428.65	3667.62
428.84	3728.47
429.03	3707.41
429.22	3613.79
429.40	3653.58
429.59	3555.27
429.78	3555.27
429.97	3529.53
430.16	3655.92
430.34	3700.39
430.53	3672.30
430.72	3712.09
430.91	3927.42
431.10	3789.33
431.28	3824.44
431.47	3852.52
431.66	3840.82
431.85	3859.54
432.03	3957.85
432.22	3946.14
432.41	4016.36
432.60	3969.55
432.79	4042.11
432.97	3934.44
433.16	3845.50
433.35	3943.80
433.54	3983.59
433.72	4081.89
433.91	4084.23
434.10	4149.77
434.28	4018.70
434.47	4217.65
434.66	4044.45
434.85	4344.03
435.03	4124.02
435.22	4145.09
435.41	4290.20
435.59	4252.75
435.78	4292.54
435.97	4344.03
436.16	4191.90
436.34	4297.22
436.53	4315.95
436.72	4367.44
436.90	4313.61
437.09	4325.31
437.28	4222.33
437.46	4386.16
437.65	4376.80
437.84	4388.50
438.02	4449.36
438.21	4505.53
438.40	4463.40
438.58	4547.66
438.77	4617.88
438.96	4704.48
439.14	4802.78
439.33	4800.44
439.52	4681.07
439.70	4788.74
439.89	4849.59
440.08	4898.74
440.26	4952.57
440.45	4805.12
440.63	4901.08
440.82	5004.07
441.01	4915.12
441.19	4968.96
441.38	5008.75
441.57	5097.69
441.75	4994.70
441.94	5305.99
442.12	5310.68
442.31	5172.58
442.50	5097.69
442.68	5221.74
442.87	5249.82
443.05	5315.36
443.24	5385.57
443.43	5432.38
443.61	5397.28
443.80	5481.53
443.98	5263.86
444.17	5144.50
444.35	5320.04
444.54	5570.48
444.73	5481.53
444.91	5338.76
445.10	5661.76
445.28	5540.05
445.47	5364.51
445.65	5413.66
445.84	5467.49
446.02	5607.92
446.21	5455.79
446.39	5352.81
446.58	5631.33
446.77	5526.00
446.95	5497.92
447.14	5490.90
447.32	5657.07
447.51	5687.50
447.69	5547.07
447.88	5500.26
448.06	5610.26
448.25	5673.46
448.43	5591.54
448.62	5547.07
448.80	5717.93
448.99	5713.25
449.17	5544.73
449.36	5596.22
449.54	5825.59
449.73	5928.58
449.91	5937.94
450.10	5771.76
450.28	5762.40
450.46	5916.87
450.65	5834.96
450.83	5919.21
451.02	5830.27
451.20	6045.60
451.39	5998.79
451.57	5937.94
451.76	5909.85
451.94	6031.56
452.13	6211.78
452.31	5980.07
452.49	5998.79
452.68	6104.12
452.86	6122.84
453.05	6083.05
453.23	6293.70
453.42	6214.12
453.60	6012.84
453.78	6134.54
453.97	6160.29
454.15	6169.65
454.34	6303.06
454.52	6356.90
454.70	6296.04
454.89	6438.81
455.07	6455.20
455.26	6352.21
455.44	6502.01
455.62	6469.24
455.81	6403.71
455.99	6366.26
456.17	6562.86
456.36	6537.12
456.54	6576.91
456.73	6707.98
456.91	6820.32
457.09	6988.84
457.28	6717.34
457.46	6642.44
457.64	6794.58
457.83	6967.77
458.01	6586.27
458.19	7000.54
458.38	6839.05
458.56	6932.67
458.74	7052.03
458.93	7164.38
459.11	6937.35
459.29	6967.77
459.48	7129.27
459.66	7073.10
459.84	7045.01
460.03	7197.15
460.21	7148.00
460.39	7286.09
460.57	7279.07
460.76	7222.89
460.94	7307.15
461.12	7332.90
461.31	7176.08
461.49	7136.29
461.67	7449.93
461.85	7424.18
462.04	7300.13
462.22	7978.89
462.40	7522.48
462.59	7302.47
462.77	7356.30
462.95	7599.72
463.13	7426.52
463.32	7606.74
463.50	7705.04
463.68	7552.91
463.86	7693.34
464.05	7634.83
464.23	7520.14
464.41	7644.19
464.59	7543.55
464.78	7840.79
464.96	7805.69
465.14	7702.70
465.32	7782.28
465.50	7950.80
465.69	7793.98
465.87	7714.41
466.05	7777.60
466.23	7866.54
466.41	7749.51
466.60	8060.80
466.78	7791.64
466.96	7861.86
467.14	8046.76
467.32	7953.14
467.51	7964.84
467.69	7765.90
467.87	8100.59
468.05	8095.91
468.23	7981.23
468.41	8063.15
468.60	8257.41
468.78	8145.06
468.96	8063.15
469.14	8175.49
469.32	8470.40
469.50	8308.90
469.69	8470.40
469.87	8332.31
470.05	8344.01
470.23	8414.23
470.41	8461.04
470.59	8557.00
470.77	8451.67
470.95	8542.96
471.14	8762.97
471.32	8608.49
471.50	8828.50
471.68	8723.18
471.86	8800.41
472.04	8809.78
472.22	8875.31
472.40	8720.84
472.58	8971.27
472.77	9013.40
472.95	9144.47
473.13	9500.23
473.31	9050.85
473.49	9231.07
473.67	9238.09
473.85	9172.56
474.03	9249.80
474.21	9575.13
474.39	9345.76
474.57	9511.94
474.75	9668.75
474.93	9593.86
475.12	9593.86
475.30	9823.23
475.48	9441.72
475.66	9610.24
475.84	9540.02
476.02	9792.80
476.20	9909.83
476.38	10260.91
476.56	10008.13
476.74	10244.52
476.92	10092.39
477.10	10136.86
477.28	10190.69
477.46	10134.52
477.64	10279.63
477.82	10518.37
478.00	10998.18
478.18	10808.59
478.36	10958.39
478.54	11077.76
478.72	10958.39
478.90	11143.29
479.08	11197.12
479.26	11377.34
479.44	11190.10
479.62	11342.24
479.80	11733.11
479.98	11480.33
480.16	11885.24
480.34	11562.25
480.52	11768.21
480.70	11962.48
480.88	11779.92
481.06	11733.11
481.24	11969.50
481.41	12233.98
481.59	12175.47
481.77	12395.48
481.95	12425.90
482.13	12535.91
482.31	12521.87
482.49	12847.20
482.67	12926.78
482.85	12987.63
483.03	13305.95
483.21	13399.57
483.39	13209.98
483.57	13064.87
483.74	13591.49
483.92	13731.92
484.10	13303.60
484.28	13687.45
484.46	14071.30
484.64	14338.12
484.82	13926.19
485.00	14164.92
485.18	14354.51
485.35	14518.34
485.53	14441.11
485.71	14656.43
485.89	14916.23
486.07	14705.59
486.25	14813.25
486.43	15159.65
486.61	15129.22
486.78	15393.70
486.96	15147.95
487.14	15587.97
487.32	15735.42
487.50	15721.38
487.68	15925.00
487.85	16006.92
488.03	16189.49
488.21	16383.75
488.39	16423.54
488.57	16669.30
488.75	16805.05
488.92	16622.48
489.10	16994.63
489.28	17289.54
489.46	16950.16
489.64	17069.53
489.81	17444.01
489.99	17411.25
490.17	17497.84
490.35	17568.06
490.53	17792.75
490.70	18054.89
490.88	18104.04
491.06	18483.21
491.24	18277.24
491.41	18293.63
491.59	18574.49
491.77	18569.81
491.95	18792.16
492.13	18721.95
492.30	18963.02
492.48	18881.10
492.66	19197.07
492.84	19140.90
493.01	19412.40
493.19	19403.04
493.37	19356.23
493.54	19833.70
493.72	19857.10
493.90	19960.09
494.08	20032.65
494.25	20362.66
494.43	20357.98
494.61	20311.17
494.79	20561.61
494.96	20634.16
495.14	20467.98
495.32	21085.89
495.49	20936.09
495.67	21165.46
495.85	21205.25
496.02	21591.44
496.20	21561.02
496.38	21874.65
496.55	21619.53
496.73	21907.41
496.91	21968.27
497.09	22066.57
497.26	22036.14
497.44	22078.27
497.62	22204.66
497.79	22539.36
497.97	22609.58
498.14	22745.33
498.32	22878.74
498.50	22663.41
498.67	23246.20
498.85	22895.12
499.03	23213.43
499.20	23063.64
499.38	23648.77
499.56	23548.13
499.73	23686.22
499.91	23845.38
500.08	23843.04
500.26	23601.96
500.44	23697.92
500.61	23838.36
500.79	24072.41
500.97	23971.77
501.14	24240.93
501.32	24477.32
501.49	24395.40
501.67	24650.52
501.84	24737.12
502.02	24170.71
502.20	24875.21
502.37	24793.29
502.55	24453.92
502.72	24933.73
502.90	25188.85
503.07	25212.25
503.25	25118.63
503.43	25249.70
503.60	25142.03
503.78	25596.10
503.95	25418.22
504.13	25696.74
504.30	25773.98
504.48	25696.74
504.65	26080.59
504.83	26066.55
505.01	26167.19
505.18	26223.36
505.36	26443.37
505.53	26560.40
505.71	26415.29
505.88	26239.75
506.06	26246.77
506.23	26511.25
506.41	26827.22
506.58	26890.41
506.76	26714.87
506.93	27260.22
507.11	26883.39
507.28	26967.65
507.46	27267.24
507.63	27381.93
507.81	27435.76
507.98	27496.61
508.16	27505.98
508.33	27700.24
508.50	27557.47
508.68	27695.56
508.85	28229.20
509.03	27573.85
509.20	28025.57
509.38	28301.76
509.55	27964.72
509.73	28208.14
509.90	28521.77
510.08	28346.23
510.25	28601.35
510.42	28517.09
510.60	28634.11
510.77	28620.07
510.95	28807.31
511.12	28907.96
511.30	28393.04
511.47	28851.78
511.64	29048.39
511.82	29443.94
511.99	29221.59
512.17	29387.77
512.34	29347.98
512.51	29614.80
512.69	29926.09
512.86	29617.14
513.04	30331.00
513.21	29654.59
513.38	29635.86
513.56	30174.19
513.73	29607.78
513.90	30101.63
514.08	30087.59
514.25	30347.39
514.43	30459.73
514.60	30572.08
514.77	30932.52
514.95	30576.76
515.12	30771.02
515.29	30604.84
515.47	30829.54
515.64	31098.70
515.81	30562.72
515.99	30934.86
516.16	31288.28
516.33	31442.76
516.51	31189.98
516.68	31323.39
516.85	31321.05
517.03	31906.18
517.20	31487.23
517.37	31250.83
517.54	31866.39
517.72	31716.60
517.89	31948.31
518.06	31859.37
518.24	31948.31
518.41	31789.16
518.58	31861.71
518.75	31955.33
518.93	32486.64
519.10	32025.55
519.27	32376.63
519.45	32123.85
519.62	32814.31
519.79	32491.32
519.96	32275.99
520.14	32659.84
520.31	32233.86
520.48	32811.97
520.65	32790.91
520.83	33104.54
521.00	33109.22
521.17	33331.57
521.34	33174.75
521.52	33120.92
521.69	33415.83
521.86	33291.78
522.03	33383.06
522.20	33591.37
522.38	33876.91
522.55	33652.22
522.72	33692.01
522.89	33848.83
523.07	34848.24
523.24	34047.77
523.41	34061.82
523.58	33897.98
523.75	34286.51
523.92	34244.38
524.10	34260.76
524.27	34127.35
524.44	34354.38
524.61	34529.92
524.78	34244.38
524.96	34689.08
525.13	34497.16
525.30	35136.12
525.47	34904.41
525.64	34614.18
525.81	35351.45
525.98	35206.34
526.16	34747.59
526.33	35108.04
526.50	35491.88
526.67	34677.38
526.84	35225.06
527.01	35054.20
527.18	35339.75
527.36	35526.99
527.53	35356.13
527.70	35515.29
527.87	35983.40
528.04	35625.29
528.21	35573.80
528.38	35620.61
528.55	35910.84
528.72	35967.01
528.89	36325.11
529.07	36009.14
529.24	35728.28
529.41	36278.30
529.58	35964.67
529.75	36093.40
529.92	36346.18
530.09	36231.49
530.26	36247.88
530.43	36563.85
530.60	36268.94
530.77	36730.03
530.94	36538.10
531.11	36481.93
531.28	36889.18
531.46	36664.49
531.63	36596.62
531.80	36891.52
531.97	37027.28
532.14	36868.12
532.31	36964.08
532.48	37062.38
532.65	37221.54
532.82	37268.35
532.99	37401.76
533.16	36809.61
533.33	37387.72
533.50	37546.87
533.67	37230.90
533.84	37198.13
534.01	37928.38
534.18	37404.10
534.35	38040.73
534.52	37549.21
534.69	37715.39
534.86	37933.06
535.03	37537.51
535.20	37794.97
535.37	38066.47
535.54	38419.89
535.71	38132.01
535.88	38017.32
536.05	38300.53
536.22	38440.96
536.38	38412.87
536.55	38356.70
536.72	38279.46
536.89	38363.72
537.06	38490.11
537.23	38646.93
537.40	38499.47
537.57	38398.83
537.74	38871.62
537.91	38890.34
538.08	38813.10
538.25	38508.83
538.42	38768.63
538.59	38792.04
538.75	38707.78
538.92	39093.97
539.09	39332.70
539.26	39129.08
539.43	39316.32
539.60	39325.68
539.77	39285.89
539.94	39445.05
540.11	39477.82
540.28	39304.62
540.44	39632.29
540.61	39599.52
540.78	39175.89
540.95	39840.60
541.12	39519.95
541.29	39608.89
541.46	39510.58
541.62	39643.99
541.79	40257.21
541.96	39363.13
542.13	39779.74
542.30	40004.44
542.47	39693.15
542.63	39690.80
542.80	39880.39
542.97	40463.18
543.14	40631.70
543.31	40222.11
543.48	39931.88
543.64	40868.09
543.81	40676.17
543.98	40954.69
544.15	40580.21
544.32	40891.50
544.48	41240.24
544.65	40893.84
544.82	40762.77
544.99	40715.96
545.16	41134.92
545.32	41006.19
545.49	40926.61
545.66	41153.64
545.83	41312.80
546.00	41570.25
546.16	41029.59
546.33	40755.75
546.50	40921.93
546.67	41804.31
546.83	40748.73
547.00	41408.76
547.17	40793.20
547.34	41406.42
547.50	41581.96
547.67	41581.96
547.84	41476.63
548.00	41572.60
548.17	41778.56
548.34	41787.92
548.51	42082.83
548.67	41483.66
548.84	41937.72
549.01	41315.14
549.18	42050.06
549.34	41851.12
549.51	41926.02
549.68	42234.97
549.84	42171.77
550.01	42232.63
550.18	42103.90
550.34	41911.97
550.51	42094.53
550.68	42080.49
550.84	41832.39
551.01	42738.18
551.18	42050.06
551.34	42197.52
551.51	42326.25
551.68	42225.60
551.84	42082.83
552.01	42462.00
552.18	42396.46
552.34	42164.75
552.51	42974.58
552.68	42408.17
552.84	42536.90
553.01	42766.27
553.18	42452.64
553.34	42717.12
553.51	42693.71
553.67	42841.17
553.84	42873.93
554.01	42855.21
554.17	42946.49
554.34	43335.02
554.51	42639.88
554.67	43515.24
554.84	43229.69
555.00	43061.18
555.17	42990.96
555.33	43246.08
555.50	42904.36
555.67	43215.65
555.83	42897.34
556.00	43157.14
556.16	43758.66
556.33	43407.58
556.50	43480.13
556.66	43447.36
556.83	43152.46
556.99	43817.17
557.16	43821.85
557.32	43655.67
557.49	43882.70
557.65	43234.38
557.82	43428.64
557.98	43681.42
558.15	43599.50
558.32	43161.82
558.48	43482.47
558.65	43805.47
558.81	43749.29
558.98	43592.48
559.14	43555.03
559.31	43395.87
559.47	43721.21
559.64	43962.28
559.80	43824.19
559.97	44123.78
560.13	44322.72
560.30	44091.01
560.46	44081.65
560.63	44201.02
560.79	43601.84
560.96	44327.41
561.12	44095.69
561.29	44287.62
561.45	44348.47
561.61	43936.54
561.78	44186.97
561.94	44388.26
562.11	44091.01
562.27	44348.47
562.44	44605.93
562.60	44430.39
562.77	44350.81
562.93	44123.78
563.10	44547.42
563.26	44280.60
563.42	44964.03
563.59	44498.26
563.75	44406.98
563.92	44512.31
564.08	44189.31
564.24	44830.62
564.41	44430.39
564.57	44739.34
564.74	44657.42
564.90	44669.12
565.07	44755.72
565.23	44786.15
565.39	44746.36
565.56	44634.02
565.72	44863.39
565.88	44498.26
566.05	44411.67
566.21	44519.33
566.38	45191.06
566.54	45450.86
566.70	44669.12
566.87	44980.42
567.03	44282.94
567.19	44744.02
567.36	44708.91
567.52	44790.83
567.68	45170.00
567.85	44945.31
568.01	44802.53
568.17	44896.16
568.34	44910.20
568.50	45174.68
568.66	44737.00
568.83	44706.57
568.99	44748.70
569.15	45214.47
569.32	45155.96
569.48	44921.90
569.64	45287.03
569.81	45317.45
569.97	45155.96
570.13	45467.25
570.30	44924.24
570.46	44942.97
570.62	44994.46
570.78	45010.84
570.95	44882.11
571.11	45345.54
571.27	45148.93
571.43	44783.81
571.60	44978.07
571.76	45067.02
571.92	45298.73
572.09	44999.14
572.25	44964.03
572.41	45045.95
572.57	45212.13
572.74	45610.02
572.90	45343.20
573.06	45050.63
573.22	45127.87
573.38	45471.93
573.55	45598.32
573.71	45701.30
573.87	45497.67
574.03	45226.17
574.20	45876.84
574.36	45296.39
574.52	45677.90
574.68	45240.21
574.84	45579.59
575.01	45350.22
575.17	45354.90
575.33	45350.22
575.49	45301.07
575.65	45495.33
575.82	45738.75
575.98	45406.39
576.14	45991.53
576.30	45539.80
576.46	45572.57
576.62	45392.35
576.79	45551.51
576.95	44945.31
577.11	45434.48
577.27	45364.26
577.43	45488.31
577.59	45373.63
577.75	45464.91
577.92	45397.03
578.08	45184.04
578.24	45237.87
578.40	45806.62
578.56	45975.14
578.72	45631.08
578.88	45844.07
579.04	45413.41
579.21	45837.05
579.37	46033.66
579.53	45965.78
579.69	45425.12
579.85	45532.78
580.01	45785.56
580.17	45188.72
580.33	45724.71
580.49	45631.08
580.65	45923.65
580.82	45853.44
580.98	45713.00
581.14	45427.46
581.30	46075.79
581.46	45535.12
581.62	45310.43
581.78	45490.65
581.94	45783.22
582.10	45380.65
582.26	45708.32
582.42	45705.98
582.58	45918.97
582.74	45446.18
582.90	45792.58
583.06	45844.07
583.22	45771.52
583.38	45500.01
583.54	45839.39
583.70	45745.77
583.86	46026.63
584.02	45525.76
584.18	45888.54
584.34	45984.51
584.50	46366.01
584.66	46014.93
584.82	45778.54
584.98	46146.00
585.14	46351.97
585.30	45808.96
585.46	46080.47
585.62	45977.48
585.78	45713.00
585.94	45818.33
586.10	46003.23
586.26	45523.42
586.42	46258.35
586.58	46050.04
586.74	46010.25
586.90	45626.40
587.06	45413.41
587.22	46248.99
587.38	45949.40
587.54	45928.33
587.70	46237.28
587.86	46087.49
588.02	46190.47
588.18	45675.55
588.34	45954.08
588.49	46169.41
588.65	46071.10
588.81	45921.31
588.97	45970.46
589.13	45911.95
589.29	46340.27
589.45	46361.33
589.61	46017.27
589.77	46183.45
589.93	46248.99
590.08	46169.41
590.24	46717.09
590.40	46625.81
590.56	46756.88
590.72	46358.99
590.88	45619.38
591.04	45762.15
591.20	46649.22
591.35	46534.53
591.51	46986.25
591.67	46466.66
591.83	46567.30
591.99	45979.82
592.15	46085.15
592.31	46277.07
592.46	46138.98
592.62	46080.47
592.78	46302.82
592.94	46642.20
593.10	46913.70
593.26	46656.24
593.41	46843.48
593.57	46581.34
593.73	46696.03
593.89	46972.21
594.05	46817.74
594.20	46911.36
594.36	46766.24
594.52	46864.55
594.68	46504.10
594.84	46323.88
594.99	46815.40
595.15	46703.05
595.31	46810.71
595.47	46656.24
595.62	46571.98
595.78	46007.91
595.94	46361.33
596.10	46579.00
596.25	46763.90
596.41	46913.70
596.57	46548.57
596.73	46485.38
596.88	46602.41
597.04	46501.76
597.20	46667.94
597.36	46707.73
597.51	47061.15
597.67	46705.39
597.83	46543.89
597.99	46735.82
598.14	46410.48
598.30	46576.66
598.46	46721.77
598.61	46733.48
598.77	46637.51
598.93	47112.64
599.09	46721.77
599.24	46738.16
599.40	46981.57
599.56	46841.14
599.71	47138.39
599.87	47103.28
600.03	47084.56
600.18	47030.72
600.34	46871.57
600.50	46934.76
600.65	46712.41
600.81	47159.45
600.97	47030.72
601.12	46841.14
601.28	46422.19
601.44	46930.08
601.59	46581.34
601.75	46579.00
601.91	46534.53
602.06	46536.87
602.22	47196.90
602.37	46892.63
602.53	47178.18
602.69	46670.28
602.84	46857.52
603.00	46356.65
603.16	47016.68
603.31	46773.27
603.47	46871.57
603.62	47217.97
603.78	47224.99
603.94	46932.42
604.09	46899.65
604.25	46878.59
604.40	46562.62
604.56	46820.08
604.71	47131.37
604.87	46689.01
605.03	46515.81
605.18	46820.08
605.34	46717.09
605.49	46429.21
605.65	46878.59
605.80	46447.93
605.96	46405.80
606.12	46864.55
606.27	47051.79
606.43	46689.01
606.58	47124.35
606.74	46724.11
606.89	46754.54
607.05	46747.52
607.20	46646.88
607.36	46967.53
607.51	46583.68
607.67	46560.28
607.82	46529.85
607.98	46436.23
608.13	46408.14
608.29	46625.81
608.44	46562.62
608.60	46602.41
608.75	46401.12
608.91	46515.81
609.06	46377.72
609.22	46450.27
609.37	46171.75
609.53	46742.84
609.68	46909.02
609.84	46628.15
609.99	46309.84
610.15	46529.85
610.30	46586.02
610.46	46302.82
610.61	46494.74
610.76	46492.40
610.92	46307.50
611.07	46124.94
611.23	46436.23
611.38	46260.69
611.54	46646.88
611.69	46272.39
611.84	46394.10
612.00	46246.65
612.15	46183.45
612.31	46445.59
612.46	45998.55
612.62	46211.54
612.77	46340.27
612.92	46340.27
613.08	46335.59
613.23	46499.42
613.39	46188.13
613.54	46117.92
613.69	46246.65
613.85	46422.19
614.00	46068.76
614.15	46251.33
614.31	45701.30
614.46	46054.72
614.62	45921.31
614.77	45769.18
614.92	45839.39
615.08	46078.13
615.23	46188.13
615.38	46415.16
615.54	46099.19
615.69	46377.72
615.84	45741.09
616.00	46218.56
616.15	45804.28
616.30	45713.00
616.46	45893.22
616.61	46012.59
616.76	45865.14
616.92	45591.30
617.07	45834.71
617.22	45766.84
617.37	45418.10
617.53	45296.39
617.68	46000.89
617.83	46000.89
617.99	46506.44
618.14	45991.53
618.29	45640.45
618.45	44905.52
618.60	45584.27
618.75	45485.97
618.90	45750.45
619.06	45457.88
619.21	45553.85
619.36	45570.23
619.51	45713.00
619.67	45357.24
619.82	45481.29
619.97	45256.60
620.12	45179.36
620.28	45897.91
620.43	45830.03
620.58	45308.09
620.73	45205.11
620.89	45808.96
621.04	45886.20
621.19	45291.71
621.34	45172.34
621.49	45375.97
621.65	45158.30
621.80	45219.15
621.95	45191.06
622.10	45116.17
622.25	45343.20
622.41	44685.51
622.56	45160.64
622.71	45303.41
622.86	45401.71
623.01	45345.54
623.16	44971.05
623.32	45083.40
623.47	44636.36
623.62	44924.24
623.77	45055.31
623.92	44987.44
624.07	44935.95
624.23	44907.86
624.38	44847.00
624.53	45134.89
624.68	44231.44
624.83	44566.14
624.98	44809.56
625.13	44432.73
625.29	44573.16
625.44	44495.92
625.59	44844.66
625.74	44701.89
625.89	44673.81
626.04	44444.43
626.19	44509.97
626.34	44898.50
626.49	44350.81
626.65	44161.23
626.80	44481.88
626.95	44378.90
627.10	44105.06
627.25	44259.53
627.40	44055.90
627.55	44399.96
627.70	44264.21
627.85	44779.13
628.00	44273.57
628.15	44268.89
628.30	44231.44
628.45	43962.28
628.60	43910.79
628.76	44179.95
628.91	44287.62
629.06	43676.74
629.21	43952.92
629.36	43899.09
629.51	44355.49
629.66	44486.56
629.81	43920.15
629.96	43868.66
630.11	43508.22
630.26	43681.42
630.41	43952.92
630.56	43648.65
630.71	43800.79
630.86	43707.16
631.01	43613.54
631.16	43562.05
631.31	43414.60
631.46	43508.22
631.61	43772.70
631.76	44030.16
631.91	43861.64
632.06	43915.47
632.21	43646.31
632.36	44034.84
632.51	43267.14
632.66	43545.67
632.81	43489.49
632.96	43395.87
633.10	43330.34
633.25	43283.53
633.40	43372.47
633.55	43531.62
633.70	43667.37
633.85	43587.80
634.00	42845.85
634.15	43344.38
634.30	43445.02
634.45	43402.89
634.60	43442.68
634.75	43309.27
634.90	43084.58
635.05	43620.56
635.19	43393.53
635.34	43262.46
635.49	43215.65
635.64	43442.68
635.79	43194.59
635.94	43049.47
636.09	43356.08
636.24	42780.31
636.39	43466.09
636.53	42916.06
636.68	42396.46
636.83	42630.52
636.98	42440.93
637.13	42644.56
637.28	42756.91
637.43	42862.23
637.57	42880.95
637.72	42649.24
637.87	42241.99
638.02	42424.55
638.17	42689.03
638.32	42412.85
638.46	42089.85
638.61	42452.64
638.76	42340.29
638.91	42665.63
639.06	42511.15
639.20	42136.66
639.35	42061.77
639.50	42520.51
639.65	42892.66
639.80	42337.95
639.94	42878.61
640.09	42902.02
640.24	42447.96
640.39	42403.49
640.54	41862.82
640.68	42429.23
640.83	42417.53
640.98	42227.95
641.13	42108.58
641.27	42153.05
641.42	42120.28
641.57	41993.89
641.72	41724.73
641.86	42000.91
642.01	41727.07
642.16	41797.29
642.31	41607.70
642.45	41638.13
642.60	41876.86
642.75	42014.96
642.90	42354.33
643.04	41928.36
643.19	41572.60
643.34	41930.70
643.48	41483.66
643.63	41766.86
643.78	41776.22
643.93	42045.38
644.07	41944.74
644.22	42113.26
644.37	41298.75
644.51	41743.45
644.66	41879.21
644.81	41729.41
644.95	41853.46
645.10	41347.90
645.25	41408.76
645.39	41027.25
645.54	41359.61
645.69	40636.38
645.83	41408.76
645.98	41017.89
646.13	40952.35
646.27	40938.31
646.42	40884.48
646.57	41364.29
646.71	41406.42
646.86	41399.40
647.00	41223.86
647.15	41596.00
647.30	41415.78
647.44	41268.33
647.59	40861.07
647.74	41099.81
647.88	41090.44
648.03	41074.06
648.17	41411.10
648.32	41172.36
648.47	41418.12
648.61	40966.40
648.76	40680.85
648.90	40952.35
649.05	40680.85
649.20	40858.73
649.34	41214.49
649.49	41090.44
649.63	40921.93
649.78	41031.93
649.92	40802.56
650.07	41055.34
650.21	41120.87
650.36	40643.40
650.51	40914.90
650.65	41017.89
650.80	41139.60
650.94	40790.86
651.09	40755.75
651.23	39927.20
651.38	40357.86
651.52	40399.99
651.67	40278.28
651.81	40542.76
651.96	40020.82
652.10	39990.39
652.25	40217.43
652.39	40037.20
652.54	40423.39
652.68	40517.01
652.83	40184.66
652.97	40357.86
653.12	40346.15
653.26	40069.97
653.41	40271.26
653.55	40154.23
653.70	40322.75
653.84	40076.99
653.99	40231.47
654.13	40144.87
654.27	40084.01
654.42	39943.58
654.56	39995.07
654.71	40055.93
654.85	40294.66
655.00	40182.32
655.14	40430.41
655.29	40620.00
655.43	40252.53
655.57	39749.32
655.72	39517.60
655.86	39695.49
656.01	39374.83
656.15	39765.70
656.30	39622.93
656.44	39737.62
656.58	39592.50
656.73	39770.38
656.87	39157.16
657.01	39529.31
657.16	39629.95
657.30	39454.41
657.45	39412.28
657.59	39065.88
657.73	39321.00
657.88	39407.60
658.02	39622.93
658.16	39484.84
658.31	39360.79
658.45	39517.60
658.60	38754.59
658.74	39365.47
658.88	39276.53
659.03	39194.61
659.17	39447.39
659.31	38897.36
659.46	38855.23
659.60	39381.85
659.74	39028.43
659.89	38066.47
660.03	38164.78
660.17	39007.37
660.32	38597.77
660.46	38710.12
660.60	38115.62
660.74	38548.62
660.89	38707.78
661.03	38220.95
661.17	38199.88
661.32	37715.39
661.46	38281.80
661.60	38141.37
661.74	38277.12
661.89	37979.87
662.03	38417.55
662.17	38323.93
662.31	38040.73
662.46	38258.40
662.60	37605.39
662.74	37759.86
662.88	37467.30
663.03	37626.45
663.17	37619.43
663.31	37130.26
663.45	37652.20
663.60	37984.55
663.74	37340.91
663.88	37368.99
664.02	37675.60
664.17	37493.04
664.31	36795.56
664.45	36858.76
664.59	37315.16
664.73	37296.44
664.88	37053.02
665.02	37216.86
665.16	37048.34
665.30	36835.35
665.44	37287.07
665.59	37109.19
665.73	36526.40
665.87	36065.31
666.01	36760.45
666.15	36851.73
666.29	36404.69
666.44	36886.84
666.58	36676.19
666.72	36252.56
666.86	36198.73
667.00	36264.26
667.14	36369.58
667.28	35978.72
667.43	36219.79
667.57	36184.68
667.71	36526.40
667.85	36601.30
667.99	35995.10
668.13	35739.98
668.27	35323.36
668.41	35426.35
668.56	35548.06
668.70	35768.07
668.84	35311.66
668.98	35211.02
669.12	35817.22
669.26	35185.27
669.40	35545.72
669.54	35150.17
669.68	35168.89
669.82	35213.36
669.96	35028.46
670.10	34813.13
670.25	34904.41
670.39	34939.52
670.53	34904.41
670.67	34808.45
670.81	35049.52
670.95	34518.22
671.09	34693.76
671.23	34291.19
671.37	34649.29
671.51	34621.20
671.65	34534.60
671.79	34148.42
671.93	34260.76
672.07	34415.24
672.21	34174.16
672.35	33717.76
672.49	33984.58
672.63	34286.51
672.77	34181.18
672.91	33783.29
673.05	33677.97
673.19	33530.51
673.33	33483.70
673.47	33551.58
673.61	33418.17
673.75	33050.70
673.89	33275.40
674.03	32877.51
674.17	32650.47
674.31	33181.77
674.45	32933.68
674.59	32575.58
674.73	33104.54
674.87	32531.11
675.01	32704.31
675.15	32425.78
675.29	32212.79
675.43	32252.58
675.56	32643.45
675.70	31934.27
675.84	32077.04
675.98	31150.19
676.12	32051.30
676.26	32165.98
676.40	31770.43
676.54	31527.02
676.68	31644.04
676.82	30991.03
676.96	31304.67
677.10	31250.83
677.23	31077.63
677.37	31234.45
677.51	31323.39
677.65	31222.75
677.79	30890.39
677.93	30871.67
678.07	30632.93
678.21	30534.63
678.34	30415.26
678.48	30183.55
678.62	30157.80
678.76	29862.90
678.90	30293.55
679.04	30389.52
679.18	30307.60
679.31	29219.25
679.45	29439.26
679.59	29551.60
679.73	29713.10
679.87	29450.96
680.00	29453.30
680.14	29476.71
680.28	29165.42
680.42	28781.57
680.56	29020.30
680.70	28858.81
680.83	28676.24
680.97	28580.28
681.11	28606.03
681.25	28313.46
681.39	28194.09
681.52	28308.78
681.66	27957.70
681.80	27997.49
681.94	27400.65
682.07	27805.56
682.21	27725.99
682.35	27864.08
682.49	27765.78
682.62	27335.12
682.76	27723.65
682.90	27358.52
683.04	27278.94
683.17	27260.22
683.31	26485.50
683.45	27021.48
683.59	26752.32
683.72	26679.77
683.86	26581.46
684.00	26452.73
684.13	26380.18
684.27	26265.49
684.41	26019.74
684.55	26398.90
684.68	26001.01
684.82	26143.78
684.96	25982.29
685.09	25898.03
685.23	26078.25
685.37	26012.71
685.50	26031.44
685.64	25493.12
685.78	25708.44
685.91	25359.70
686.05	25135.01
686.19	24657.54
686.32	24650.52
686.46	24816.70
686.60	24388.38
686.73	24830.74
686.87	24875.21
687.01	24842.45
687.14	24620.10
687.28	24482.00
687.42	24641.16
687.55	24528.81
687.69	24231.57
687.82	23592.60
687.96	24161.35
688.10	23831.33
688.23	24037.30
688.37	24009.22
688.50	24051.34
688.64	23817.29
688.78	23623.03
688.91	23346.84
689.05	23515.36
689.18	22869.37
689.32	22848.31
689.46	23157.26
689.59	22960.66
689.73	23007.47
689.86	23639.41
690.00	22604.89
690.13	23009.81
690.27	22389.56
690.41	22864.69
690.54	22590.85
690.68	22317.01
690.81	22026.78
690.95	21851.24
691.08	21542.29
691.22	21586.76
691.35	21631.23
691.49	21979.97
691.62	21874.65
691.76	21331.64
691.89	21069.50
692.03	21092.91
692.16	20957.16
692.30	21163.12
692.43	21125.68
692.57	20573.31
692.70	20844.81
692.84	20325.21
692.97	20379.04
693.11	20545.22
693.24	20545.22
693.38	20203.50
693.51	20245.63
693.65	20067.75
693.78	20184.78
693.92	20128.61
694.05	19978.81
694.19	20042.01
694.32	19838.38
694.45	19936.68
694.59	19817.32
694.72	19843.06
694.86	19506.02
694.99	19339.85
695.13	18986.43
695.26	18892.80
695.39	18916.21
695.53	19227.50
695.66	18977.06
695.80	18878.76
695.93	18745.35
696.07	18506.62
696.20	18394.27
696.33	18118.09
696.47	18087.66
696.60	18324.05
696.73	18237.45
696.87	18635.35
697.00	18085.32
697.14	17652.32
697.27	18026.81
697.40	17998.72
697.54	17706.15
697.67	17776.37
697.80	17687.43
697.94	17577.42
698.07	17455.72
698.21	17303.58
698.34	17303.58
698.47	17151.45
698.61	16762.92
698.74	17018.04
698.87	16800.37
699.01	16526.52
699.14	16947.82
699.27	16559.29
699.40	16613.12
699.54	16535.88
699.67	16592.06
699.80	16116.93
699.94	16208.21
700.07	16510.14
700.20	16325.24
700.34	15922.66
700.47	16210.55
700.60	16308.85
700.73	16060.76
700.87	15976.50
701.00	15428.81
701.13	15700.31
701.26	15531.80
701.40	15428.81
701.53	15438.17
701.66	15550.52
701.79	15147.95
701.93	15222.84
702.06	15101.14
702.19	15056.67
702.32	15000.49
702.46	15178.37
702.59	15087.09
702.72	15152.63
702.85	14867.08
702.99	14595.58
703.12	14530.05
703.25	14523.02
703.38	14534.73
703.51	14618.99
703.65	14389.61
703.78	14314.72
703.91	13877.04
704.04	13919.17
704.17	14108.75
704.31	14223.44
704.44	13858.31
704.57	14160.24
704.70	13738.94
704.83	13621.92
704.96	13668.73
705.10	13687.45
705.23	13575.11
>>>>>End Processed Spectral Data<<<<<
