SpectraSuite Data File
++++++++++++++++++++++++++++++++++++
Date: Fri Oct 25 11:33:20 EDT 2013
User: price-jones
Dark Spectrum Present: No
Reference Spectrum Present: No
Number of Sampled Component Spectra: 1
Spectrometers: USB2+H05261
Integration Time (usec): 100000 (USB2+H05261)
Spectra Averaged: 1 (USB2+H05261)
Boxcar Smoothing: 0 (USB2+H05261)
Correct for Electrical Dark: No (USB2+H05261)
Strobe/Lamp Enabled: No (USB2+H05261)
Correct for Detector Non-linearity: No (USB2+H05261)
Correct for Stray Light: No (USB2+H05261)
Number of Pixels in Processed Spectrum: 2048
>>>>>Begin Processed Spectral Data<<<<<
365.73	280.86
365.92	280.86
366.12	280.86
366.32	229.37
366.52	203.63
366.72	168.52
366.91	117.03
367.11	191.92
367.31	210.65
367.51	163.84
367.70	177.88
367.90	243.42
368.10	175.54
368.30	173.20
368.49	133.41
368.69	217.67
368.89	210.65
369.09	196.60
369.28	187.24
369.48	224.69
369.68	191.92
369.87	337.04
370.07	231.71
370.27	264.48
370.47	322.99
370.66	430.66
370.86	538.32
371.06	538.32
371.25	554.71
371.45	538.32
371.65	615.56
371.84	613.22
372.04	580.45
372.24	514.92
372.44	599.18
372.63	594.50
372.83	594.50
373.03	526.62
373.22	592.16
373.42	615.56
373.62	664.71
373.81	725.57
374.01	655.35
374.21	683.44
374.40	608.54
374.60	674.07
374.79	702.16
374.99	702.16
375.19	671.73
375.38	624.92
375.58	685.78
375.78	596.84
375.97	734.93
376.17	753.65
376.37	723.23
376.56	699.82
376.76	671.73
376.95	662.37
377.15	716.20
377.35	648.33
377.54	709.18
377.74	650.67
377.93	608.54
378.13	741.95
378.33	622.58
378.52	662.37
378.72	784.08
378.91	758.33
379.11	758.33
379.31	713.86
379.50	674.07
379.70	746.63
379.89	800.46
380.09	770.04
380.28	718.54
380.48	741.95
380.68	720.88
380.87	767.70
381.07	730.25
381.26	847.27
381.46	662.37
381.65	786.42
381.85	730.25
382.04	798.12
382.24	758.33
382.43	741.95
382.63	788.76
382.83	718.54
383.02	840.25
383.22	774.72
383.41	784.08
383.61	819.19
383.80	816.85
384.00	760.67
384.19	767.70
384.39	807.48
384.58	823.87
384.78	863.66
384.97	844.93
385.17	800.46
385.36	809.83
385.56	830.89
385.75	812.17
385.95	842.59
386.14	938.55
386.34	763.01
386.53	851.96
386.72	805.14
386.92	844.93
387.11	819.19
387.31	912.81
387.50	830.89
387.70	954.94
387.89	966.64
388.09	875.36
388.28	844.93
388.48	798.12
388.67	889.40
388.86	971.32
389.06	938.55
389.25	1029.84
389.45	961.96
389.64	976.00
389.84	971.32
390.03	997.07
390.22	990.05
390.42	976.00
390.61	945.58
390.81	940.90
391.00	994.73
391.19	1008.77
391.39	985.37
391.58	1032.18
391.78	947.92
391.97	997.07
392.16	983.02
392.36	1020.47
392.55	1060.26
392.75	1100.05
392.94	1006.43
393.13	1064.94
393.33	1048.56
393.52	1123.46
393.71	1104.73
393.91	1097.71
394.10	1123.46
394.29	1214.74
394.49	1083.67
394.68	1111.75
394.88	1142.18
395.07	1128.14
395.26	1186.65
395.46	1214.74
395.65	1132.82
395.84	1184.31
396.04	1296.66
396.23	1146.86
396.42	1196.01
396.62	1205.38
396.81	1261.55
397.00	1245.16
397.19	1231.12
397.39	1212.40
397.58	1247.51
397.77	1231.12
397.97	1252.19
398.16	1303.68
398.35	1247.51
398.55	1273.25
398.74	1334.11
398.93	1390.28
399.12	1418.36
399.32	1221.76
399.51	1242.82
399.70	1287.29
399.90	1418.36
400.09	1397.30
400.28	1411.34
400.47	1394.96
400.67	1444.11
400.86	1409.00
401.05	1430.07
401.24	1394.96
401.44	1383.26
401.63	1481.56
401.82	1390.28
402.01	1437.09
402.21	1434.75
402.40	1502.62
402.59	1507.30
402.78	1589.22
402.97	1561.14
403.17	1488.58
403.36	1535.39
403.55	1533.05
403.74	1579.86
403.93	1563.48
404.13	1664.12
404.32	1526.03
404.51	1526.03
404.70	1579.86
404.89	1701.57
405.09	1736.68
405.28	1696.89
405.47	1636.03
405.66	1659.44
405.85	1746.04
406.05	1654.76
406.24	1722.63
406.43	1802.21
406.62	1842.00
406.81	1795.19
407.00	1898.17
407.20	1853.70
407.39	1832.64
407.58	1856.04
407.77	1881.79
407.96	1902.86
408.15	1933.28
408.34	1870.09
408.54	1804.55
408.73	1884.13
408.92	1937.96
409.11	1987.11
409.30	2101.80
409.49	1898.17
409.68	2059.67
409.87	2012.86
410.07	2050.31
410.26	2169.68
410.45	2099.46
410.64	2083.08
410.83	2225.85
411.02	2165.00
411.21	2188.40
411.40	2139.25
411.59	2228.19
411.78	2143.93
411.98	2204.78
412.17	2303.09
412.36	2296.07
412.55	2284.36
412.74	2331.17
412.93	2244.57
413.12	2321.81
413.31	2466.92
413.50	2413.09
413.69	2377.98
413.88	2506.71
414.07	2483.31
414.26	2389.69
414.45	2616.72
414.64	2513.74
414.83	2616.72
415.02	2633.10
415.22	2637.78
415.41	2761.83
415.60	2766.51
415.79	2757.15
415.98	2745.45
416.17	2658.85
416.36	2649.49
416.55	2640.12
416.74	2689.28
416.93	2729.06
417.12	2799.28
417.31	2853.11
417.50	2902.26
417.69	3126.96
417.88	2979.50
418.07	2787.58
418.26	2991.20
418.45	3002.91
418.64	3112.91
418.83	3054.40
419.02	3110.57
419.21	3068.44
419.39	3059.08
419.58	3141.00
419.77	3143.34
419.96	3262.71
420.15	3122.27
420.34	3276.75
420.53	3251.00
420.72	3288.45
420.91	3248.66
421.10	3239.30
421.29	3396.12
421.48	3342.28
421.67	3349.31
421.86	3276.75
422.05	3372.71
422.24	3307.18
422.43	3302.50
422.61	3363.35
422.80	3492.08
422.99	3524.85
423.18	3421.86
423.37	3339.94
423.56	3449.95
423.75	3433.57
423.94	3339.94
424.13	3126.96
424.32	3281.43
424.50	3466.33
424.69	3403.14
424.88	3576.34
425.07	3489.74
425.26	3403.14
425.45	3506.12
425.64	3414.84
425.83	3492.08
426.01	3445.27
426.20	3531.87
426.39	3447.61
426.58	3496.76
426.77	3588.04
426.96	3410.16
427.15	3562.30
427.33	3606.77
427.52	3627.83
427.71	3648.90
427.90	3625.49
428.09	3817.41
428.28	3648.90
428.46	3705.07
428.65	3623.15
428.84	3918.06
429.03	3847.84
429.22	3763.58
429.40	3833.80
429.59	3756.56
429.78	3768.26
429.97	3686.34
430.16	3784.65
430.34	3901.67
430.53	3929.76
430.72	4056.15
430.91	3756.56
431.10	3770.60
431.28	3946.14
431.47	4028.06
431.66	4063.17
431.85	4142.75
432.03	3974.23
432.22	4290.20
432.41	4093.60
432.60	3999.98
432.79	4124.02
432.97	3999.98
433.16	4042.11
433.35	4166.15
433.54	4121.68
433.72	4409.57
433.91	4276.16
434.10	4362.76
434.28	4161.47
434.47	4299.56
434.66	4222.33
434.85	4278.50
435.03	4477.44
435.22	4184.88
435.41	4472.76
435.59	4402.55
435.78	4447.02
435.97	4461.06
436.16	4444.68
436.34	4519.57
436.53	4540.64
436.72	4514.89
436.90	4421.27
437.09	4561.70
437.28	4418.93
437.46	4505.53
437.65	4655.33
437.84	4603.83
438.02	4599.15
438.21	4695.11
438.40	4601.49
438.58	4791.08
438.77	4798.10
438.96	4781.71
439.14	4966.62
439.33	4863.63
439.52	4966.62
439.70	4837.89
439.89	4952.57
440.08	5018.11
440.26	5060.24
440.45	5011.09
440.63	5163.22
440.82	5336.42
441.01	5207.69
441.19	5275.57
441.38	5331.74
441.57	5273.23
441.75	5296.63
441.94	5540.05
442.12	5362.17
442.31	5579.84
442.50	5511.96
442.68	5462.81
442.87	5376.21
443.05	5645.37
443.24	5432.38
443.43	5603.24
443.61	5483.88
443.80	5792.83
443.98	5392.59
444.17	5416.00
444.35	5568.13
444.54	5806.87
444.73	5533.03
444.91	5640.69
445.10	5729.63
445.28	5715.59
445.47	5535.37
445.65	5757.72
445.84	5909.85
446.02	5736.65
446.21	5715.59
446.39	5703.89
446.58	5900.49
446.77	5851.34
446.95	5741.33
447.14	5802.19
447.32	5879.43
447.51	5792.83
447.69	5659.42
447.88	5795.17
448.06	5860.70
448.25	5783.46
448.43	5905.17
448.62	5816.23
448.80	5834.96
448.99	6136.88
449.17	6033.90
449.36	5895.81
449.54	6155.61
449.73	6101.78
449.91	6019.86
450.10	6052.63
450.28	6188.38
450.46	6092.41
450.65	6094.76
450.83	6083.05
451.02	6209.44
451.20	6312.42
451.39	6188.38
451.57	6289.02
451.76	6162.63
451.94	6169.65
452.13	6352.21
452.31	6408.39
452.49	6188.38
452.68	6569.88
452.86	6319.45
453.05	6731.38
453.23	6317.11
453.42	6375.62
453.60	6476.26
453.78	6485.62
453.97	6394.34
454.15	6511.37
454.34	6525.41
454.52	6658.82
454.70	6590.95
454.89	6347.53
455.07	6438.81
455.26	6630.74
455.44	6789.89
455.62	6712.66
455.81	6789.89
455.99	6691.59
456.17	6810.96
456.36	6909.26
456.54	6696.27
456.73	6874.15
456.91	7183.10
457.09	6916.28
457.28	7084.80
457.46	7047.35
457.64	7260.34
457.83	7157.36
458.01	7098.84
458.19	7089.48
458.38	7169.06
458.56	7140.97
458.74	7246.30
458.93	7417.16
459.11	7295.45
459.29	7218.21
459.48	7253.32
459.66	7325.88
459.84	7496.74
460.03	7470.99
460.21	7485.03
460.39	7503.76
460.57	7609.08
460.76	7538.87
460.94	7527.16
461.12	7494.40
461.31	7499.08
461.49	7510.78
461.67	7466.31
461.85	7791.64
462.04	7688.66
462.22	7997.61
462.40	7868.88
462.59	7852.50
462.77	7763.56
462.95	7772.92
463.13	7913.35
463.32	7948.46
463.50	7948.46
463.68	7974.21
463.86	8074.85
464.05	7859.52
464.23	8098.25
464.41	8107.62
464.59	7901.65
464.78	8210.60
464.96	8177.83
465.14	7953.14
465.32	8037.40
465.50	8226.98
465.69	8236.35
465.87	8070.17
466.05	8191.88
466.23	8241.03
466.41	8262.09
466.60	8430.61
466.78	8369.76
466.96	8273.79
467.14	8252.73
467.32	8454.02
467.51	8512.53
467.69	8016.33
467.87	8507.85
468.05	8470.40
468.23	8587.43
468.41	8386.14
468.60	8428.27
468.78	8571.04
468.96	8322.94
469.14	8713.81
469.32	8802.75
469.50	8622.53
469.69	8954.89
469.87	8755.94
470.05	8730.20
470.23	8978.30
470.41	8601.47
470.59	8840.20
470.77	8940.85
470.95	8884.67
471.14	9018.08
471.32	8891.70
471.50	9144.47
471.68	9057.87
471.86	9210.01
472.04	9301.29
472.22	9408.95
472.40	9121.07
472.58	9425.34
472.77	9446.40
472.95	9415.98
473.13	9682.80
473.31	9708.54
473.49	9537.68
473.67	9488.53
473.85	9841.95
474.03	9626.62
474.21	9795.14
474.39	9991.75
474.57	10010.47
474.75	9984.73
474.93	10101.75
475.12	9980.04
475.30	10111.11
475.48	10083.03
475.66	10139.20
475.84	10216.44
476.02	10303.04
476.20	10214.10
476.38	10441.13
476.56	10586.24
476.74	10661.14
476.92	10607.31
477.10	10621.35
477.28	10759.44
477.46	10984.13
477.64	11059.03
477.82	11000.52
478.00	11220.53
478.18	11075.42
478.36	11382.03
478.54	11410.11
478.72	11492.03
478.90	11580.97
479.08	11733.11
479.26	11709.70
479.44	11805.66
479.62	11885.24
479.80	12159.08
479.98	12002.27
480.16	12367.39
480.34	12285.47
480.52	12343.99
480.70	12484.42
480.88	12081.85
481.06	12428.24
481.24	12564.00
481.41	12690.38
481.59	12767.62
481.77	13153.81
481.95	13069.55
482.13	13207.64
482.31	13165.51
482.49	13362.12
482.67	13525.96
482.85	13813.84
483.03	13729.58
483.21	13891.08
483.39	13781.07
483.57	13963.64
483.74	13902.78
483.92	14045.55
484.10	14080.66
484.28	14539.41
484.46	14396.64
484.64	14719.63
484.82	14677.50
485.00	14946.66
485.18	14897.51
485.35	15393.70
485.53	15096.46
485.71	15311.78
485.89	15648.82
486.07	15281.36
486.25	15873.51
486.43	15798.62
486.61	15798.62
486.78	15843.09
486.96	15995.22
487.14	15978.84
487.32	16187.14
487.50	16503.12
487.68	16889.31
487.85	16837.81
488.03	16938.46
488.21	16901.01
488.39	17205.28
488.57	17394.86
488.75	17277.83
488.92	17666.36
489.10	17788.07
489.28	17795.09
489.46	17715.51
489.64	18111.07
489.81	18183.62
489.99	18141.49
490.17	18326.39
490.35	18796.84
490.53	18651.73
490.70	18857.70
490.88	18836.63
491.06	19269.63
491.24	18958.34
491.41	19344.53
491.59	19194.73
491.77	19204.10
491.95	19660.50
492.13	19793.91
492.30	20034.99
492.48	19976.47
492.66	19922.64
492.84	20222.23
493.01	20404.79
493.19	20535.86
493.37	20496.07
493.54	20489.05
493.72	21106.95
493.90	20688.00
494.08	21015.67
494.25	20959.50
494.43	21198.23
494.61	21429.94
494.79	21415.90
494.96	21177.17
495.14	21535.27
495.32	22050.19
495.49	21965.93
495.67	22122.74
495.85	22286.58
496.02	22354.46
496.20	22242.11
496.38	22717.24
496.55	22448.08
496.73	23337.48
496.91	22960.66
497.09	22951.29
497.26	22953.63
497.44	23405.36
497.62	23433.44
497.79	23700.26
497.97	23590.26
498.14	23915.59
498.32	24156.67
498.50	23868.78
498.67	24105.18
498.85	24301.78
499.03	24479.66
499.20	24353.27
499.38	24629.46
499.56	24854.15
499.73	24865.85
499.91	25010.96
500.08	24676.27
500.26	24940.75
500.44	24931.39
500.61	24587.33
500.79	24893.94
500.97	25067.14
501.14	25790.36
501.32	25673.34
501.49	25340.98
501.67	25879.30
501.84	25806.75
502.02	25851.22
502.20	25979.95
502.37	25923.77
502.55	25989.31
502.72	26345.07
502.90	26047.82
503.07	26202.30
503.25	26284.22
503.43	26214.00
503.60	26455.08
503.78	26857.65
503.95	26593.17
504.13	26691.47
504.30	26953.61
504.48	26824.88
504.65	27192.34
504.83	27260.22
505.01	27522.36
505.18	27384.27
505.36	27728.33
505.53	27473.21
505.71	27985.79
505.88	27824.29
506.06	27520.02
506.23	27608.96
506.41	27683.86
506.58	28060.68
506.76	28034.94
506.93	28142.60
507.11	28004.51
507.28	28381.34
507.46	28379.00
507.63	28790.93
507.81	28737.10
507.98	28421.13
508.16	28634.11
508.33	28940.72
508.50	28877.53
508.68	29006.26
508.85	29483.73
509.03	28961.79
509.20	29362.02
509.38	29390.11
509.55	29603.10
509.73	29500.11
509.90	29654.59
510.08	29832.47
510.25	29713.10
510.42	29546.92
510.60	30141.42
510.77	30101.63
510.95	30185.89
511.12	30160.14
511.30	30092.27
511.47	30724.21
511.64	30417.60
511.82	30923.16
511.99	30773.36
512.17	30555.69
512.34	30909.11
512.51	31103.38
512.69	31349.14
512.86	31014.44
513.04	31360.84
513.21	31084.65
513.38	31475.52
513.56	31634.68
513.73	31363.18
513.90	31309.35
514.08	31489.57
514.25	31800.86
514.43	32168.32
514.60	31913.20
514.77	32247.90
514.95	32488.98
515.12	32327.48
515.29	32004.49
515.47	32479.61
515.64	32641.11
515.81	32144.92
515.99	32549.83
516.16	32776.86
516.33	32470.25
516.51	32856.44
516.68	33046.02
516.85	32886.87
517.03	32774.52
517.20	32971.13
517.37	33060.07
517.54	33369.02
517.72	33460.30
517.89	33071.77
518.06	33212.20
518.24	33525.83
518.41	33464.98
518.58	33682.65
518.75	33404.13
518.93	33362.00
519.10	33139.65
519.27	33886.28
519.45	33874.57
519.62	34497.16
519.79	34260.76
519.96	34307.57
520.14	34073.52
520.31	34015.01
520.48	34171.82
520.65	34529.92
520.83	34782.70
521.00	34593.12
521.17	34506.52
521.34	35042.50
521.52	34623.54
521.69	34511.20
521.86	35171.23
522.03	35374.86
522.20	35105.70
522.38	35594.87
522.55	35311.66
522.72	34883.34
522.89	35236.77
523.07	35711.89
523.24	35576.14
523.41	35571.46
523.58	35611.25
523.75	35445.07
523.92	35639.34
524.10	35981.06
524.27	35651.04
524.44	35917.86
524.61	35739.98
524.78	36407.03
524.96	36470.23
525.13	36282.98
525.30	36650.45
525.47	36484.27
525.64	36128.51
525.81	36697.26
525.98	36498.31
526.16	36872.80
526.33	36807.26
526.50	37134.94
526.67	36627.04
526.84	36760.45
527.01	37148.98
527.18	36713.64
527.36	37230.90
527.53	37188.77
527.70	37333.89
527.87	37509.43
528.04	37469.64
528.21	37462.61
528.38	37640.50
528.55	37710.71
528.72	37415.80
528.89	37617.09
529.07	37439.21
529.24	37280.05
529.41	37769.22
529.58	37820.72
529.75	37888.59
529.92	38092.22
530.09	38431.60
530.26	38206.90
530.43	38263.08
530.60	37818.38
530.77	38256.06
530.94	38040.73
531.11	38291.16
531.28	38230.31
531.46	38337.98
531.63	38775.66
531.80	38377.76
531.97	38859.91
532.14	38670.33
532.31	38817.78
532.48	38892.68
532.65	39124.40
532.82	38988.64
532.99	39084.61
533.16	38857.57
533.33	39159.50
533.50	38829.49
533.67	39129.08
533.84	38862.26
534.01	39309.30
534.18	39431.01
534.35	39501.22
534.52	39503.56
534.69	39868.69
534.86	39714.21
535.03	39421.64
535.20	39606.55
535.37	39648.68
535.54	39866.34
535.71	39852.30
535.88	40112.10
536.05	40165.93
536.22	40542.76
536.38	39908.47
536.55	39885.07
536.72	39950.60
536.89	40428.07
537.06	39854.64
537.23	40669.15
537.40	40006.78
537.57	39983.37
537.74	39955.29
537.91	40488.93
538.08	40439.78
538.25	40257.21
538.42	40233.81
538.59	41366.63
538.75	40645.74
538.92	40889.16
539.09	41132.57
539.26	40767.45
539.43	40521.69
539.60	41111.51
539.77	41230.88
539.94	41277.69
540.11	41113.85
540.28	41132.57
540.44	41542.17
540.61	41184.07
540.78	40858.73
540.95	41383.01
541.12	41275.35
541.29	41368.97
541.46	41200.45
541.62	41441.53
541.79	41387.69
541.96	41097.47
542.13	41317.48
542.30	41792.61
542.47	41792.61
542.63	41862.82
542.80	41771.54
542.97	42300.50
543.14	41944.74
543.31	42085.17
543.48	41881.55
543.64	42618.81
543.81	42258.37
543.98	42506.47
544.15	42185.82
544.32	42295.82
544.48	43166.50
544.65	42302.84
544.82	42700.73
544.99	42660.94
545.16	42618.81
545.32	42927.77
545.49	43058.84
545.66	43154.80
545.83	42756.91
546.00	42979.26
546.16	43084.58
546.33	42738.18
546.50	43107.99
546.67	42897.34
546.83	42321.57
547.00	43171.18
547.17	42855.21
547.34	42988.62
547.50	43508.22
547.67	43409.92
547.84	43498.86
548.00	43318.64
548.17	44165.91
548.34	43215.65
548.51	43587.80
548.67	43793.76
548.84	43522.26
549.01	43557.37
549.18	43384.17
549.34	43838.23
549.51	44034.84
549.68	43878.02
549.84	43971.64
550.01	43683.76
550.18	43735.25
550.34	44102.71
550.51	44240.81
550.68	44137.82
550.84	43742.27
551.01	44641.04
551.18	43796.10
551.34	43931.86
551.51	44105.06
551.68	44163.57
551.84	44210.38
552.01	43814.83
552.18	44299.32
552.34	43971.64
552.51	44519.33
552.68	44369.54
552.84	44074.63
553.01	44608.27
553.18	44538.05
553.34	44547.42
553.51	44582.52
553.67	44830.62
553.84	44987.44
554.01	44648.06
554.17	44638.70
554.34	45022.54
554.51	45057.65
554.67	44638.70
554.84	45027.23
555.00	44409.32
555.17	44306.34
555.33	45167.66
555.50	44889.13
555.67	44945.31
555.83	45668.53
556.00	44947.65
556.16	45696.62
556.33	45352.56
556.50	45656.83
556.66	45237.87
556.83	45167.66
556.99	45893.22
557.16	45361.92
557.32	45382.99
557.49	45717.68
557.65	45146.59
557.82	45567.89
557.98	45237.87
558.15	45434.48
558.32	45724.71
558.48	45397.03
558.65	45539.80
558.81	45525.76
558.98	45628.74
559.14	45380.65
559.31	45443.84
559.47	45673.21
559.64	46117.92
559.80	45666.19
559.97	45689.60
560.13	45666.19
560.30	45951.74
560.46	45839.39
560.63	46181.11
560.79	46176.43
560.96	46143.66
561.12	45907.27
561.29	46202.18
561.45	46103.87
561.61	46153.02
561.78	46183.45
561.94	46075.79
562.11	46169.41
562.27	46368.35
562.44	45827.69
562.60	46204.52
562.77	45933.01
562.93	46216.22
563.10	46454.95
563.26	46380.06
563.42	46548.57
563.59	46607.09
563.75	46361.33
563.92	46485.38
564.08	46040.68
564.24	46745.18
564.41	46014.93
564.57	46637.51
564.74	46342.61
564.90	46370.69
565.07	46490.06
565.23	46473.68
565.39	46759.22
565.56	46841.14
565.72	46703.05
565.88	46768.58
566.05	46820.08
566.21	46431.55
566.38	46628.15
566.54	46419.84
566.70	46962.85
566.87	46518.15
567.03	46632.83
567.19	46663.26
567.36	46415.16
567.52	46571.98
567.68	46972.21
567.85	46738.16
568.01	46799.01
568.17	46850.50
568.34	46845.82
568.50	47009.66
568.66	46719.43
568.83	46277.07
568.99	46934.76
569.15	46777.95
569.32	46714.75
569.48	46438.57
569.64	46916.04
569.81	46841.14
569.97	47061.15
570.13	46859.87
570.30	46471.34
570.46	47456.70
570.62	47054.13
570.78	46953.49
570.95	47253.08
571.11	47416.91
571.27	46579.00
571.43	46986.25
571.60	46876.25
571.76	46801.35
571.92	46848.16
572.09	47210.95
572.25	47201.58
572.41	46632.83
572.57	47248.39
572.74	47281.16
572.90	47068.17
573.06	47229.67
573.22	47288.18
573.38	47760.97
573.55	47217.97
573.71	47854.59
573.87	47100.94
574.03	47040.09
574.20	47498.83
574.36	47606.50
574.52	47473.09
574.68	47035.41
574.84	47114.98
575.01	47634.58
575.17	47510.53
575.33	47842.89
575.49	47412.23
575.65	47711.82
575.82	47400.53
575.98	47278.82
576.14	47992.68
576.30	47239.03
576.46	47391.17
576.62	47208.61
576.79	47267.12
576.95	46969.87
577.11	47318.61
577.27	47234.35
577.43	47232.01
577.59	47290.52
577.75	47096.26
577.92	47360.74
578.08	47632.24
578.24	47604.16
578.40	47515.22
578.56	47597.13
578.72	47672.03
578.88	47775.02
579.04	47552.66
579.21	47679.05
579.37	47477.77
579.53	47718.84
579.69	47550.32
579.85	47576.07
580.01	47847.57
580.17	47634.58
580.33	47496.49
580.49	47372.44
580.65	47475.43
580.82	47323.29
580.98	47437.98
581.14	47112.64
581.30	47695.44
581.46	47236.69
581.62	47721.18
581.78	47517.56
581.94	47730.54
582.10	47723.52
582.26	47707.14
582.42	47447.34
582.58	47941.19
582.74	47922.47
582.90	47763.31
583.06	48037.16
583.22	47653.31
583.38	47725.86
583.54	47805.44
583.70	47714.16
583.86	47524.58
584.02	47676.71
584.18	47810.12
584.34	47576.07
584.50	47980.98
584.66	47906.08
584.82	47992.68
584.98	47894.38
585.14	47962.26
585.30	47442.66
585.46	47770.33
585.62	47615.86
585.78	47452.02
585.94	47250.74
586.10	47529.26
586.26	47625.22
586.42	48076.94
586.58	48236.10
586.74	47571.39
586.90	47615.86
587.06	47760.97
587.22	47924.81
587.38	47524.58
587.54	48142.48
587.70	47870.98
587.86	47892.04
588.02	47496.49
588.18	47873.32
588.34	47679.05
588.49	47927.15
588.65	47655.65
588.81	47737.57
588.97	48081.63
589.13	48030.13
589.29	48053.54
589.45	47973.96
589.61	47686.07
589.77	48098.01
589.93	47791.40
590.08	48264.19
590.24	48011.41
590.40	48533.35
590.56	48301.64
590.72	48381.21
590.88	47934.17
591.04	47765.65
591.20	48144.82
591.35	48406.96
591.51	48598.88
591.67	48472.49
591.83	48308.66
591.99	48004.39
592.15	48114.39
592.31	48112.05
592.46	48240.78
592.62	48109.71
592.78	48411.64
592.94	48711.23
593.10	48435.05
593.26	48746.34
593.41	48694.85
593.57	48147.16
593.73	48292.27
593.89	48713.57
594.05	48629.31
594.20	48821.23
594.36	48793.15
594.52	48863.36
594.68	48594.20
594.84	48165.88
594.99	48811.87
595.15	47995.03
595.31	48580.16
595.47	48865.70
595.62	48690.16
595.78	48472.49
595.94	48329.72
596.10	48531.01
596.25	48734.63
596.41	49020.18
596.57	48580.16
596.73	48900.81
596.88	48442.07
597.04	48856.34
597.20	48437.39
597.36	48591.86
597.51	49193.38
597.67	48090.99
597.83	48540.37
597.99	48797.83
598.14	48673.78
598.30	48456.11
598.46	48357.81
598.61	48783.79
598.77	48816.55
598.93	48842.30
599.09	48395.26
599.24	48837.62
599.40	48498.24
599.56	48584.84
599.71	48849.32
599.87	48795.49
600.03	49027.20
600.18	48402.28
600.34	48807.19
600.50	48823.58
600.65	48816.55
600.81	48783.79
600.97	48758.04
601.12	48987.41
601.28	48673.78
601.44	48641.01
601.59	48755.70
601.75	48931.24
601.91	49062.31
602.06	48772.08
602.22	49038.90
602.37	48477.18
602.53	48542.71
602.69	49095.08
602.84	48664.42
603.00	48846.98
603.16	49102.10
603.31	48474.84
603.47	48926.56
603.62	48739.32
603.78	48638.67
603.94	48687.82
604.09	48542.71
604.25	49102.10
604.40	48671.44
604.56	49059.97
604.71	49083.37
604.87	48348.45
605.03	48741.66
605.18	48575.48
605.34	48669.10
605.49	48495.90
605.65	49083.37
605.80	48222.06
605.96	48900.81
606.12	48364.83
606.27	48851.66
606.43	48147.16
606.58	48832.94
606.74	48748.68
606.89	48910.17
607.05	48685.48
607.20	48491.22
607.36	48622.29
607.51	48643.35
607.67	48322.70
607.82	48570.80
607.98	48587.18
608.13	48418.66
608.29	48554.41
608.44	48797.83
608.60	48198.65
608.75	48786.13
608.91	48575.48
609.06	48332.06
609.22	49043.59
609.37	48065.24
609.53	48072.26
609.68	48428.02
609.84	48479.52
609.99	48924.22
610.15	48594.20
610.30	48245.46
610.46	48362.49
610.61	48633.99
610.76	48327.38
610.92	48086.31
611.07	48149.50
611.23	47880.34
611.38	48402.28
611.54	48069.92
611.69	48367.17
611.84	48486.54
612.00	48109.71
612.15	48343.77
612.31	48690.16
612.46	47842.89
612.62	48193.97
612.77	48128.44
612.92	48189.29
613.08	48093.33
613.23	48058.22
613.39	48147.16
613.54	48098.01
613.69	48163.54
613.85	48182.27
614.00	48046.52
614.15	47817.14
614.31	48112.05
614.46	47784.38
614.62	48177.59
614.77	47854.59
614.92	47800.76
615.08	47831.19
615.23	48107.37
615.38	48313.34
615.54	47976.30
615.69	47707.14
615.84	47540.96
616.00	48198.65
616.15	47873.32
616.30	47810.12
616.46	47711.82
616.61	47955.24
616.76	47662.67
616.92	47634.58
617.07	47856.93
617.22	47440.32
617.37	47168.82
617.53	47775.02
617.68	47517.56
617.83	47763.31
617.99	47859.27
618.14	47973.96
618.29	47194.56
618.45	47501.17
618.60	47667.35
618.75	47269.46
618.90	47353.72
619.06	47555.00
619.21	47608.84
619.36	47772.67
619.51	47966.94
619.67	47524.58
619.82	47459.04
619.97	47716.50
620.12	47606.50
620.28	47309.25
620.43	47428.62
620.58	47459.04
620.73	47096.26
620.89	47147.75
621.04	47206.26
621.19	47267.12
621.34	47255.42
621.49	47309.25
621.65	47105.62
621.80	47632.24
621.95	47051.79
622.10	47243.71
622.25	47250.74
622.41	47119.66
622.56	46724.11
622.71	47196.90
622.86	46946.47
623.01	47079.88
623.16	47021.36
623.32	46803.69
623.47	47199.24
623.62	47234.35
623.77	47035.41
623.92	47007.32
624.07	46742.84
624.23	46813.05
624.38	46880.93
624.53	47229.67
624.68	46787.31
624.83	46974.55
624.98	46717.09
625.13	46050.04
625.29	46681.98
625.44	46773.27
625.59	46906.68
625.74	46754.54
625.89	46513.47
626.04	46302.82
626.19	46562.62
626.34	46302.82
626.49	46066.42
626.65	46244.30
626.80	46248.99
626.95	46501.76
627.10	46110.89
627.25	46600.07
627.40	46447.93
627.55	46466.66
627.70	45986.85
627.85	46574.32
628.00	46574.32
628.15	46445.59
628.30	45696.62
628.45	45713.00
628.60	46045.36
628.76	46220.90
628.91	46349.63
629.06	45713.00
629.21	45577.25
629.36	45947.06
629.51	46106.21
629.66	46190.47
629.81	45647.47
629.96	45970.46
630.11	46270.05
630.26	45638.11
630.41	45879.18
630.56	45759.81
630.71	46169.41
630.86	45595.98
631.01	45153.62
631.16	45546.82
631.31	45544.48
631.46	45518.74
631.61	45928.33
631.76	45846.41
631.91	45982.16
632.06	45425.12
632.21	45963.44
632.36	45986.85
632.51	45265.96
632.66	46099.19
632.81	45347.88
632.96	45460.23
633.10	45368.94
633.25	45258.94
633.40	45399.37
633.55	45701.30
633.70	45350.22
633.85	45329.16
634.00	45092.76
634.15	44935.95
634.30	45022.54
634.45	45312.77
634.60	45249.58
634.75	45275.32
634.90	45303.41
635.05	45368.94
635.19	44713.59
635.34	45294.05
635.49	44858.71
635.64	45118.51
635.79	45289.37
635.94	44748.70
636.09	45031.91
636.24	45116.17
636.39	45027.23
636.53	45364.26
636.68	44371.88
636.83	44547.42
636.98	44699.55
637.13	44282.94
637.28	44472.52
637.43	44940.63
637.57	44851.69
637.72	44388.26
637.87	44603.59
638.02	44776.79
638.17	44641.04
638.32	44119.10
638.46	44168.25
638.61	44095.69
638.76	44399.96
638.91	44502.95
639.06	44531.03
639.20	44034.84
639.35	44294.64
639.50	44168.25
639.65	44521.67
639.80	44446.77
639.94	44399.96
640.09	44395.28
640.24	44399.96
640.39	44112.08
640.54	43524.60
640.68	43936.54
640.83	44554.44
640.98	43824.19
641.13	43641.63
641.27	44472.52
641.42	44147.18
641.57	44088.67
641.72	44402.30
641.86	43824.19
642.01	43749.29
642.16	44123.78
642.31	43374.81
642.45	43765.68
642.60	44161.23
642.75	43613.54
642.90	43723.55
643.04	43540.99
643.19	43213.31
643.34	43676.74
643.48	43278.85
643.63	43339.70
643.78	43983.35
643.93	43737.59
644.07	43751.63
644.22	43749.29
644.37	43428.64
644.51	43662.69
644.66	43807.81
644.81	43260.12
644.95	43625.25
645.10	43885.04
645.25	43180.54
645.39	43136.07
645.54	43459.07
645.69	42698.39
645.83	43412.26
645.98	42614.13
646.13	43257.78
646.27	43056.50
646.42	43173.52
646.57	42777.97
646.71	43512.90
646.86	43208.63
647.00	43440.34
647.15	43171.18
647.30	43178.20
647.44	43367.79
647.59	43283.53
647.74	43332.68
647.88	43047.13
648.03	43136.07
648.17	43079.90
648.32	42930.11
648.47	43753.97
648.61	42410.51
648.76	42932.45
648.90	42843.51
649.05	42635.20
649.20	42602.43
649.34	42745.20
649.49	42564.98
649.63	43023.73
649.78	42981.60
649.92	42539.24
650.07	43115.01
650.21	42993.30
650.36	42775.63
650.51	42607.11
650.65	42890.32
650.80	42719.46
650.94	42417.53
651.09	42679.67
651.23	42246.67
651.38	42281.78
651.52	42260.71
651.67	42284.12
651.81	42220.92
651.96	42576.69
652.10	42216.24
652.25	42033.68
652.39	42621.16
652.54	41991.55
652.68	42181.13
652.83	42162.41
652.97	42469.02
653.12	42326.25
653.26	42106.24
653.41	42134.32
653.55	42014.96
653.70	42099.22
653.84	42047.72
653.99	42536.90
654.13	42155.39
654.27	41642.81
654.42	42026.66
654.56	42078.15
654.71	41858.14
654.85	42096.88
655.00	41904.95
655.14	42136.66
655.29	42197.52
655.43	42106.24
655.57	41998.57
655.72	41523.44
655.86	41586.64
656.01	41874.52
656.15	41261.30
656.30	41638.13
656.44	41717.71
656.58	41764.52
656.73	41581.96
656.87	41219.17
657.01	41598.34
657.16	41567.91
657.30	41352.58
657.45	41605.36
657.59	41074.06
657.73	40818.94
657.88	41200.45
658.02	41518.76
658.16	41294.07
658.31	41193.43
658.45	41338.54
658.60	41116.19
658.74	40870.43
658.88	40917.25
659.03	40893.84
659.17	40828.30
659.31	40708.94
659.46	40811.92
659.60	40708.94
659.74	40753.41
659.89	40491.27
660.03	40144.87
660.17	40643.40
660.32	40381.26
660.46	40425.73
660.60	40076.99
660.74	40098.06
660.89	40154.23
661.03	40198.70
661.17	39971.67
661.32	40287.64
661.46	40032.52
661.60	39831.24
661.74	39885.07
661.89	40058.27
662.03	40189.34
662.17	39810.17
662.31	39852.30
662.46	40151.89
662.60	40060.61
662.74	39505.90
662.88	39522.29
663.03	39349.09
663.17	39454.41
663.31	38838.85
663.45	39426.32
663.60	39679.10
663.74	39519.95
663.88	39374.83
664.02	39239.08
664.17	39054.18
664.31	39105.67
664.45	38944.17
664.59	39129.08
664.73	38866.94
664.88	38937.15
665.02	38665.65
665.16	38611.82
665.30	38862.26
665.44	38749.91
665.59	38621.18
665.73	38600.12
665.87	37839.44
666.01	38595.43
666.15	38480.75
666.29	37930.72
666.44	38593.09
666.58	38272.44
666.72	37954.13
666.86	38375.42
667.00	37890.93
667.14	37972.85
667.28	37687.31
667.43	37912.00
667.57	38354.36
667.71	38064.13
667.85	38085.20
667.99	37790.29
668.13	37912.00
668.27	36975.78
668.41	37287.07
668.56	37287.07
668.70	37490.70
668.84	37268.35
668.98	36959.40
669.12	37486.02
669.26	36938.33
669.40	37092.81
669.54	37057.70
669.68	36978.12
669.82	36863.44
669.96	36554.49
670.10	36524.06
670.25	36290.01
670.39	36816.63
670.53	36327.45
670.67	36355.54
670.81	36816.63
670.95	36519.38
671.09	36275.96
671.23	36397.67
671.37	36421.08
671.51	36507.68
671.65	36114.47
671.79	36306.39
671.93	36479.59
672.07	36285.33
672.21	35976.37
672.35	35372.52
672.49	35702.53
672.63	35796.15
672.77	35559.76
672.91	35433.37
673.05	35391.24
673.19	35257.83
673.33	35171.23
673.47	34974.63
673.61	34927.81
673.75	34916.11
673.89	34766.32
674.03	34934.84
674.17	34682.06
674.31	34550.99
674.45	34724.19
674.59	34845.90
674.73	34361.40
674.87	34286.51
675.01	34019.69
675.15	33727.12
675.29	33731.80
675.43	33748.18
675.56	34270.12
675.70	34066.50
675.84	33567.96
675.98	33062.41
676.12	33610.09
676.26	33872.23
676.40	33497.75
676.54	32697.28
676.68	33230.93
676.82	32554.51
676.96	32762.82
677.10	33088.15
677.23	32524.08
677.37	32706.65
677.51	32772.18
677.65	32528.77
677.79	32535.79
677.93	32376.63
678.07	32311.10
678.21	32189.39
678.34	31707.24
678.48	31831.29
678.62	31599.57
678.76	31538.72
678.90	31524.68
679.04	31543.40
679.18	32044.27
679.31	31274.24
679.45	31360.84
679.59	31000.40
679.73	31220.41
679.87	30909.11
680.00	31110.40
680.14	30768.68
680.28	31054.23
680.42	30527.61
680.56	30747.62
680.70	30691.44
680.83	30106.31
680.97	29895.66
681.11	30443.35
681.25	30054.82
681.39	29916.73
681.52	29617.14
681.66	29294.14
681.80	29617.14
681.94	29429.90
682.07	29134.99
682.21	28947.75
682.35	29062.43
682.49	29153.71
682.62	28795.61
682.76	29198.18
682.90	28821.36
683.04	28423.47
683.17	28666.88
683.31	28414.10
683.45	28453.89
683.59	28119.20
683.72	27861.74
683.86	28170.69
684.00	27854.72
684.13	27845.35
684.27	27456.82
684.41	27789.18
684.55	27576.19
684.68	27150.21
684.82	26965.31
684.96	27250.86
685.09	27323.41
685.23	26752.32
685.37	27723.65
685.50	27426.40
685.64	27229.79
685.78	26574.44
685.91	26616.57
686.05	26457.42
686.19	26036.12
686.32	26211.66
686.46	25937.82
686.60	25769.30
686.73	25968.24
686.87	25991.65
687.01	25656.95
687.14	26068.89
687.28	25926.11
687.42	25465.03
687.55	25586.74
687.69	25708.44
687.82	25111.61
687.96	25233.32
688.10	25619.50
688.23	24959.47
688.37	25153.74
688.50	25553.97
688.64	25046.07
688.78	24996.92
688.91	24470.30
689.05	24308.80
689.18	24039.64
689.32	23946.02
689.46	24196.46
689.59	24210.50
689.73	23992.83
689.86	24294.76
690.00	24032.62
690.13	24060.71
690.27	23646.43
690.41	23960.06
690.54	23250.88
690.68	23562.17
690.81	23241.52
690.95	23183.01
691.08	22796.82
691.22	22977.04
691.35	22822.56
691.49	22972.36
691.62	22981.72
691.76	22689.15
691.89	22600.21
692.03	22059.55
692.16	22012.74
692.30	22249.13
692.43	22492.55
692.57	22057.21
692.70	22047.85
692.84	21954.22
692.97	21240.36
693.11	21731.87
693.24	21476.76
693.38	21228.66
693.51	21390.16
693.65	21135.04
693.78	21261.43
693.92	21062.48
694.05	21034.39
694.19	20917.37
694.32	20779.28
694.45	21008.65
694.59	20933.75
694.72	20627.14
694.86	20383.73
694.99	20294.79
695.13	20194.14
695.26	19749.44
695.39	20046.69
695.53	19737.74
695.66	20023.28
695.80	20070.09
695.93	19630.07
696.07	19737.74
696.20	19278.99
696.33	19557.52
696.47	19454.53
696.60	19405.38
696.73	19412.40
696.87	19508.37
697.00	19278.99
697.14	18965.36
697.27	18668.11
697.40	18780.46
697.54	18759.39
697.67	18700.88
697.80	18534.70
697.94	18551.09
698.07	18352.14
698.21	18171.92
698.34	18197.67
698.47	18094.68
698.61	17802.11
698.74	17575.08
698.87	17862.97
699.01	17717.86
699.14	17652.32
699.27	17720.20
699.40	17472.10
699.54	17376.14
699.67	17411.25
699.80	17383.16
699.94	17167.83
700.07	16952.50
700.20	16985.27
700.34	16783.98
700.47	16973.56
700.60	17130.38
700.73	16809.73
700.87	16547.59
701.00	16379.07
701.13	16372.05
701.26	16224.59
701.40	16407.16
701.53	15995.22
701.66	16088.84
701.79	15990.54
701.93	15836.06
702.06	15697.97
702.19	15728.40
702.32	15878.19
702.46	15744.78
702.59	15800.96
702.72	15763.51
702.85	15770.53
702.99	15552.86
703.12	15372.64
703.25	15314.13
703.38	15178.37
703.51	14918.57
703.65	15349.23
703.78	15028.58
703.91	14810.91
704.04	14609.62
704.17	14614.30
704.31	14752.40
704.44	14572.18
704.57	14452.81
704.70	14422.38
704.83	14501.96
704.96	14331.10
705.10	14080.66
705.23	14188.33
>>>>>End Processed Spectral Data<<<<<
