SpectraSuite Data File
++++++++++++++++++++++++++++++++++++
Date: Fri Oct 25 11:34:11 EDT 2013
User: price-jones
Dark Spectrum Present: No
Reference Spectrum Present: No
Number of Sampled Component Spectra: 1
Spectrometers: USB2+H05261
Integration Time (usec): 100000 (USB2+H05261)
Spectra Averaged: 1 (USB2+H05261)
Boxcar Smoothing: 0 (USB2+H05261)
Correct for Electrical Dark: No (USB2+H05261)
Strobe/Lamp Enabled: No (USB2+H05261)
Correct for Detector Non-linearity: No (USB2+H05261)
Correct for Stray Light: No (USB2+H05261)
Number of Pixels in Processed Spectrum: 2048
>>>>>Begin Processed Spectral Data<<<<<
365.73	308.95
365.92	308.95
366.12	308.95
366.32	210.65
366.52	128.73
366.72	283.20
366.91	271.50
367.11	212.99
367.31	205.97
367.51	159.16
367.70	210.65
367.90	154.48
368.10	212.99
368.30	184.90
368.49	98.30
368.69	154.48
368.89	184.90
369.09	170.86
369.28	203.63
369.48	257.46
369.68	215.33
369.87	255.12
370.07	234.05
370.27	191.92
370.47	290.23
370.66	414.27
370.86	461.09
371.06	519.60
371.25	540.66
371.45	498.53
371.65	524.28
371.84	575.77
372.04	578.11
372.24	610.88
372.44	599.18
372.63	568.75
372.83	561.73
373.03	582.79
373.22	596.84
373.42	594.50
373.62	613.22
373.81	667.05
374.01	662.37
374.21	648.33
374.40	603.86
374.60	748.97
374.79	674.07
374.99	603.86
375.19	580.45
375.38	603.86
375.58	709.18
375.78	674.07
375.97	594.50
376.17	713.86
376.37	692.80
376.56	645.99
376.76	653.01
376.95	645.99
377.15	692.80
377.35	660.03
377.54	657.69
377.74	655.35
377.93	634.29
378.13	688.12
378.33	720.88
378.52	627.26
378.72	748.97
378.91	772.38
379.11	718.54
379.31	725.57
379.50	627.26
379.70	667.05
379.89	863.66
380.09	674.07
380.28	706.84
380.48	746.63
380.68	674.07
380.87	655.35
381.07	793.44
381.26	744.29
381.46	765.36
381.65	767.70
381.85	760.67
382.04	786.42
382.24	770.04
382.43	755.99
382.63	713.86
382.83	767.70
383.02	903.45
383.22	814.51
383.41	842.59
383.61	833.23
383.80	891.74
384.00	814.51
384.19	809.83
384.39	732.59
384.58	758.33
384.78	868.34
384.97	795.78
385.17	882.38
385.36	807.48
385.56	819.19
385.75	844.93
385.95	863.66
386.14	882.38
386.34	887.06
386.53	814.51
386.72	880.04
386.92	943.24
387.11	919.83
387.31	929.19
387.50	812.17
387.70	908.13
387.89	842.59
388.09	880.04
388.28	903.45
388.48	861.32
388.67	910.47
388.86	919.83
389.06	863.66
389.25	971.32
389.45	933.87
389.64	908.13
389.84	959.62
390.03	983.02
390.22	884.72
390.42	919.83
390.61	901.11
390.81	924.51
391.00	992.39
391.19	912.81
391.39	959.62
391.58	999.41
391.78	1001.75
391.97	1020.47
392.16	992.39
392.36	1064.94
392.55	1018.13
392.75	1036.86
392.94	987.71
393.13	1167.93
393.33	1064.94
393.52	1020.47
393.71	1116.44
393.91	1107.07
394.10	1057.92
394.29	1100.05
394.49	1114.10
394.68	1074.31
394.88	1107.07
395.07	1153.88
395.26	1137.50
395.46	1130.48
395.65	1228.78
395.84	1214.74
396.04	1217.08
396.23	1226.44
396.42	1226.44
396.62	1203.04
396.81	1179.63
397.00	1093.03
397.19	1242.82
397.39	1191.33
397.58	1203.04
397.77	1205.38
397.97	1219.42
398.16	1142.18
398.35	1338.79
398.55	1277.93
398.74	1266.23
398.93	1299.00
399.12	1181.97
399.32	1266.23
399.51	1327.08
399.70	1373.89
399.90	1306.02
400.09	1399.64
400.28	1348.15
400.47	1366.87
400.67	1352.83
400.86	1387.94
401.05	1423.05
401.24	1306.02
401.44	1404.32
401.63	1416.02
401.82	1465.18
402.01	1446.45
402.21	1430.07
402.40	1455.81
402.59	1404.32
402.78	1509.65
402.97	1582.20
403.17	1511.99
403.36	1652.42
403.55	1570.50
403.74	1544.75
403.93	1563.48
404.13	1572.84
404.32	1591.56
404.51	1547.09
404.70	1671.14
404.89	1603.27
405.09	1621.99
405.28	1610.29
405.47	1654.76
405.66	1631.35
405.85	1647.74
406.05	1715.61
406.24	1727.32
406.43	1776.47
406.62	1666.46
406.81	1802.21
407.00	1650.08
407.20	1717.95
407.39	1774.13
407.58	1872.43
407.77	1870.09
407.96	1853.70
408.15	1806.89
408.34	1732.00
408.54	1863.07
408.73	1797.53
408.92	1912.22
409.11	1909.88
409.30	1926.26
409.49	1935.62
409.68	1987.11
409.87	1898.17
410.07	2012.86
410.26	1942.64
410.45	2012.86
410.64	1989.46
410.83	2064.35
411.02	2038.61
411.21	2183.72
411.40	2143.93
411.59	2186.06
411.78	2143.93
411.98	2132.23
412.17	2083.08
412.36	2242.23
412.55	2249.25
412.74	2300.75
412.93	2225.85
413.12	2209.47
413.31	2396.71
413.50	2349.90
413.69	2272.66
413.88	2469.27
414.07	2480.97
414.26	2429.48
414.45	2544.16
414.64	2434.16
414.83	2490.33
415.02	2504.37
415.22	2635.44
415.41	2642.46
415.60	2684.59
415.79	2635.44
415.98	2689.28
416.17	2647.15
416.36	2679.91
416.55	2761.83
416.74	2682.25
416.93	2731.41
417.12	2719.70
417.31	2874.18
417.50	2799.28
417.69	2675.23
417.88	2909.29
418.07	2867.16
418.26	2808.64
418.45	2897.58
418.64	2925.67
418.83	2937.37
419.02	3002.91
419.21	2899.92
419.39	3094.19
419.58	2918.65
419.77	3007.59
419.96	3091.85
420.15	3030.99
420.34	3040.36
420.53	3131.64
420.72	3141.00
420.91	3155.04
421.10	3304.84
421.29	3171.43
421.48	3190.15
421.67	3213.56
421.86	3279.09
422.05	3225.26
422.24	3276.75
422.43	3262.71
422.61	3323.56
422.80	3447.61
422.99	3288.45
423.18	3283.77
423.37	3265.05
423.56	3365.69
423.75	3391.44
423.94	3274.41
424.13	3112.91
424.32	3141.00
424.50	3332.92
424.69	3585.70
424.88	3435.91
425.07	3370.37
425.26	3368.03
425.45	3225.26
425.64	3368.03
425.83	3309.52
426.01	3410.16
426.20	3398.46
426.39	3478.04
426.58	3459.31
426.77	3281.43
426.96	3478.04
427.15	3356.33
427.33	3552.93
427.52	3480.38
427.71	3534.21
427.90	3644.21
428.09	3559.95
428.28	3471.01
428.46	3529.53
428.65	3611.45
428.84	3735.50
429.03	3777.62
429.22	3655.92
429.40	3700.39
429.59	3691.02
429.78	3538.89
429.97	3566.98
430.16	3604.42
430.34	3749.54
430.53	3939.12
430.72	3667.62
430.91	3712.09
431.10	3765.92
431.28	3941.46
431.47	3845.50
431.66	3950.82
431.85	3932.10
432.03	3971.89
432.22	4002.32
432.41	3948.48
432.60	3943.80
432.79	3950.82
432.97	4018.70
433.16	4023.38
433.35	4009.34
433.54	4002.32
433.72	4056.15
433.91	4128.70
434.10	4053.81
434.28	3997.64
434.47	4049.13
434.66	4180.20
434.85	4252.75
435.03	4180.20
435.22	4196.58
435.41	4311.27
435.59	4255.09
435.78	4482.13
435.97	4315.95
436.16	4283.18
436.34	4297.22
436.53	4386.16
436.72	4346.37
436.90	4337.01
437.09	4449.36
437.28	4285.52
437.46	4421.27
437.65	4432.97
437.84	4444.68
438.02	4477.44
438.21	4360.42
438.40	4355.74
438.58	4631.92
438.77	4798.10
438.96	4697.46
439.14	4798.10
439.33	4882.36
439.52	4746.61
439.70	4770.01
439.89	4926.83
440.08	4880.02
440.26	4889.38
440.45	4894.06
440.63	4814.48
440.82	4980.66
441.01	5114.07
441.19	5064.92
441.38	5224.08
441.57	5191.31
441.75	5036.83
441.94	5322.38
442.12	5329.40
442.31	5270.89
442.50	5296.63
442.68	5212.37
442.87	5289.61
443.05	5467.49
443.24	5277.91
443.43	5338.76
443.61	5338.76
443.80	5500.26
443.98	5383.23
444.17	5268.55
444.35	5408.98
444.54	5511.96
444.73	5420.68
444.91	5425.36
445.10	5446.43
445.28	5425.36
445.47	5558.77
445.65	5565.79
445.84	5537.71
446.02	5628.99
446.21	5659.42
446.39	5530.69
446.58	5394.93
446.77	5561.11
446.95	5474.51
447.14	5490.90
447.32	5703.89
447.51	5586.86
447.69	5671.12
447.88	5596.22
448.06	5666.44
448.25	5598.56
448.43	5614.95
448.62	5612.60
448.80	5715.59
448.99	5685.16
449.17	5746.02
449.36	5657.07
449.54	5799.85
449.73	5996.45
449.91	5884.11
450.10	6078.37
450.28	6195.40
450.46	6038.58
450.65	5982.41
450.83	6040.92
451.02	6108.80
451.20	5914.53
451.39	6106.46
451.57	6059.65
451.76	5977.73
451.94	6026.88
452.13	6181.35
452.31	6120.50
452.49	6146.25
452.68	6239.87
452.86	6174.33
453.05	6099.44
453.23	6249.23
453.42	6169.65
453.60	6249.23
453.78	6279.66
453.97	6186.04
454.15	6225.82
454.34	6289.02
454.52	6349.87
454.70	6370.94
454.89	6443.49
455.07	6462.22
455.26	6429.45
455.44	6677.55
455.62	6427.11
455.81	6424.77
455.99	6555.84
456.17	6665.85
456.36	6562.86
456.54	6656.48
456.73	6658.82
456.91	6918.62
457.09	6715.00
457.28	7063.74
457.46	6717.34
457.64	6988.84
457.83	6986.50
458.01	6813.30
458.19	7030.97
458.38	6878.83
458.56	6778.19
458.74	7037.99
458.93	7087.14
459.11	7243.96
459.29	6988.84
459.48	7117.57
459.66	7096.50
459.84	7197.15
460.03	7311.83
460.21	7206.51
460.39	7248.64
460.57	7288.43
460.76	7183.10
460.94	7311.83
461.12	7295.45
461.31	7382.05
461.49	7307.15
461.67	7101.19
461.85	7641.85
462.04	7351.62
462.22	7974.21
462.40	7620.78
462.59	7693.34
462.77	7485.03
462.95	7524.82
463.13	7665.25
463.32	7583.34
463.50	7784.62
463.68	7779.94
463.86	7878.24
464.05	7585.68
464.23	7597.38
464.41	7829.09
464.59	7693.34
464.78	7803.35
464.96	7859.52
465.14	7756.54
465.32	7665.25
465.50	7955.48
465.69	7789.30
465.87	7859.52
466.05	7896.97
466.23	7810.37
466.41	7997.61
466.60	8234.00
466.78	7838.45
466.96	8166.13
467.14	8004.63
467.32	7868.88
467.51	8135.70
467.69	8084.21
467.87	8147.40
468.05	8222.30
468.23	8058.46
468.41	7978.89
468.60	8219.96
468.78	8334.65
468.96	8250.39
469.14	8180.17
469.32	8444.65
469.50	8259.75
469.69	8676.37
469.87	8683.39
470.05	8596.79
470.23	8549.98
470.41	8517.21
470.59	8713.81
470.77	8545.30
470.95	8760.63
471.14	8697.43
471.32	8592.11
471.50	8814.46
471.68	8894.04
471.86	8891.70
472.04	9001.70
472.22	9020.42
472.40	8849.57
472.58	8879.99
472.77	9053.19
472.95	9195.96
473.13	9371.50
473.31	9088.30
473.49	9214.69
473.67	9146.81
473.85	9191.28
474.03	9558.75
474.21	9511.94
474.39	9572.79
474.57	9610.24
474.75	9816.21
474.93	9790.46
475.12	9851.31
475.30	9935.57
475.48	9738.97
475.66	9966.00
475.84	9870.04
476.02	9921.53
476.20	10015.15
476.38	10349.85
476.56	10434.11
476.74	10277.29
476.92	10155.58
477.10	10076.01
477.28	10569.86
477.46	10370.91
477.64	10544.11
477.82	10679.86
478.00	10944.34
478.18	10719.65
478.36	10956.05
478.54	10876.47
478.72	11232.23
478.90	11283.72
479.08	11112.86
479.26	11276.70
479.44	11473.31
479.62	11508.41
479.80	11587.99
479.98	11716.72
480.16	12013.97
480.34	11838.43
480.52	11871.20
480.70	12102.91
480.88	11805.66
481.06	12187.17
481.24	12168.45
481.41	12505.48
481.59	12613.15
481.77	12517.18
481.95	12571.02
482.13	12776.98
482.31	12727.83
482.49	12966.57
482.67	12975.93
482.85	13167.85
483.03	13219.35
483.21	13261.48
483.39	13401.91
483.57	13254.45
483.74	13507.23
483.92	13921.51
484.10	13565.74
484.28	14073.64
484.46	14164.92
484.64	14157.90
484.82	14024.49
485.00	14167.26
485.18	14848.36
485.35	14927.94
485.53	14677.50
485.71	14546.43
485.89	14775.80
486.07	14995.81
486.25	15143.27
486.43	15136.24
486.61	15197.10
486.78	15690.95
486.96	15286.04
487.14	15651.16
487.32	15995.22
487.50	15803.30
487.68	15817.34
487.85	16100.55
488.03	16273.74
488.21	16730.15
488.39	16437.58
488.57	16751.21
488.75	16954.84
488.92	16676.32
489.10	17085.91
489.28	17062.51
489.46	17495.50
489.64	17163.15
489.81	17659.34
489.99	17678.07
490.17	17593.81
490.35	17977.65
490.53	17900.42
490.70	18291.29
490.88	18302.99
491.06	18408.31
491.24	18431.72
491.41	18607.26
491.59	18824.93
491.77	18644.71
491.95	18899.83
492.13	18881.10
492.30	19293.04
492.48	19278.99
492.66	19529.43
492.84	19573.90
493.01	19377.30
493.19	19761.14
493.37	19690.93
493.54	19924.98
493.72	20212.87
493.90	20219.89
494.08	20114.56
494.25	20313.51
494.43	20451.60
494.61	20760.55
494.79	20978.22
494.96	20655.23
495.14	20898.64
495.32	21326.96
495.49	21067.16
495.67	21481.44
495.85	21383.13
496.02	21495.48
496.20	21455.69
496.38	21935.50
496.55	21820.81
496.73	22279.56
496.91	22127.42
497.09	22370.84
497.26	22398.93
497.44	22157.85
497.62	22375.52
497.79	22635.32
497.97	22560.42
498.14	23033.21
498.32	23049.60
498.50	23264.92
498.67	23506.00
498.85	23552.81
499.03	23623.03
499.20	23452.17
499.38	23468.55
499.56	23578.56
499.73	23412.38
499.91	23679.20
500.08	24063.05
500.26	23819.63
500.44	24173.05
500.61	23920.28
500.79	23899.21
500.97	24402.43
501.14	24879.89
501.32	24868.19
501.49	24507.75
501.67	24936.07
501.84	24812.02
502.02	25053.09
502.20	24739.46
502.37	25235.66
502.55	25144.38
502.72	25188.85
502.90	25434.60
503.07	25352.68
503.25	25565.67
503.43	25425.24
503.60	25593.76
503.78	25891.01
503.95	25682.70
504.13	25610.14
504.30	26218.68
504.48	26050.16
504.65	26122.72
504.83	26499.55
505.01	26511.25
505.18	26459.76
505.36	26780.41
505.53	26553.38
505.71	26859.99
505.88	26614.23
506.06	27051.91
506.23	26841.26
506.41	26852.97
506.58	26986.38
506.76	27192.34
506.93	27192.34
507.11	27440.44
507.28	27157.24
507.46	27321.07
507.63	28053.66
507.81	27608.96
507.98	27606.62
508.16	27714.28
508.33	27866.42
508.50	28247.93
508.68	28086.43
508.85	28297.08
509.03	28128.56
509.20	28343.89
509.38	28531.13
509.55	28336.87
509.73	28683.27
509.90	28552.20
510.08	28276.01
510.25	28477.30
510.42	29008.60
510.60	28851.78
510.77	29076.48
510.95	29226.27
511.12	29205.20
511.30	29343.30
511.47	29385.43
511.64	29415.85
511.82	29607.78
511.99	29500.11
512.17	29659.27
512.34	29551.60
512.51	29797.36
512.69	30059.50
512.86	30089.93
513.04	30253.76
513.21	29942.47
513.38	30260.79
513.56	30733.57
513.73	30115.67
513.90	30682.08
514.08	30522.93
514.25	30705.49
514.43	30649.32
514.60	30897.41
514.77	30972.31
514.95	31171.25
515.12	30574.42
515.29	30909.11
515.47	31281.26
515.64	31309.35
515.81	30885.71
515.99	31517.65
516.16	31929.59
516.33	31192.32
516.51	31475.52
516.68	31428.71
516.85	31515.31
517.03	31651.06
517.20	32086.40
517.37	31969.38
517.54	31672.13
517.72	31779.79
517.89	32205.77
518.06	32353.23
518.24	31887.46
518.41	32189.39
518.58	32507.70
518.75	32009.17
518.93	32545.15
519.10	32065.34
519.27	32650.47
519.45	32776.86
519.62	32774.52
519.79	32865.80
519.96	32751.12
520.14	32975.81
520.31	33170.07
520.48	33067.09
520.65	33195.82
520.83	33720.10
521.00	33654.56
521.17	33134.96
521.34	33785.63
521.52	33846.49
521.69	33469.66
521.86	34169.48
522.03	34003.30
522.20	33914.36
522.38	34478.43
522.55	34338.00
522.72	33865.21
522.89	34068.84
523.07	34473.75
523.24	34356.72
523.41	34625.89
523.58	33893.30
523.75	34143.74
523.92	33942.45
524.10	34862.28
524.27	34569.71
524.44	34920.79
524.61	34820.15
524.78	34742.91
524.96	35000.37
525.13	35250.81
525.30	35447.41
525.47	35510.61
525.64	35047.18
525.81	35328.05
525.98	35489.54
526.16	35732.96
526.33	35171.23
526.50	35730.62
526.67	35541.03
526.84	35700.19
527.01	35414.65
527.18	35585.50
527.36	35569.12
527.53	35997.44
527.70	35873.39
527.87	36367.24
528.04	35878.07
528.21	36027.87
528.38	35861.69
528.55	36322.77
528.72	36753.43
528.89	36708.96
529.07	36332.14
529.24	36320.43
529.41	36547.47
529.58	36486.61
529.75	36498.31
529.92	36753.43
530.09	36954.72
530.26	36945.36
530.43	37081.11
530.60	37221.54
530.77	36830.67
530.94	37268.35
531.11	36666.83
531.28	36858.76
531.46	37167.71
531.63	37125.58
531.80	37392.40
531.97	37029.62
532.14	37368.99
532.31	37076.43
532.48	37109.19
532.65	37691.99
532.82	37315.16
532.99	37844.12
533.16	37668.58
533.33	37876.89
533.50	37621.77
533.67	37804.33
533.84	37589.00
534.01	37912.00
534.18	37933.06
534.35	38279.46
534.52	37986.89
534.69	38504.15
534.86	38391.81
535.03	38232.65
535.20	38298.19
535.37	38689.06
535.54	38520.54
535.71	38630.54
535.88	38501.81
536.05	38770.97
536.22	38916.09
536.38	38724.16
536.55	38506.49
536.72	38639.90
536.89	38583.73
537.06	39192.27
537.23	38883.32
537.40	39100.99
537.57	38759.27
537.74	39075.24
537.91	39363.13
538.08	38951.20
538.25	38628.20
538.42	39372.49
538.59	39555.05
538.75	39213.34
538.92	39290.57
539.09	39545.69
539.26	39328.02
539.43	39283.55
539.60	39470.79
539.77	39431.01
539.94	39756.34
540.11	39330.36
540.28	39335.04
540.44	40336.79
540.61	39856.98
540.78	39665.06
540.95	39695.49
541.12	39487.18
541.29	39971.67
541.46	40177.64
541.62	39833.58
541.79	40229.13
541.96	39826.56
542.13	39852.30
542.30	40257.21
542.47	40034.86
542.63	40250.19
542.80	40676.17
542.97	40425.73
543.14	41141.94
543.31	40680.85
543.48	40554.46
543.64	41247.26
543.81	40868.09
543.98	40947.67
544.15	41233.22
544.32	41202.79
544.48	41631.11
544.65	41357.27
544.82	41294.07
544.99	41001.50
545.16	40940.65
545.32	41273.01
545.49	41261.30
545.66	41553.87
545.83	41649.83
546.00	41476.63
546.16	41677.92
546.33	41387.69
546.50	41017.89
546.67	41649.83
546.83	41277.69
547.00	41397.06
547.17	41317.48
547.34	41462.59
547.50	41965.81
547.67	42117.94
547.84	41560.89
548.00	41930.70
548.17	42260.71
548.34	42204.54
548.51	42611.79
548.67	41928.36
548.84	42342.63
549.01	41900.27
549.18	42010.28
549.34	42344.97
549.51	42265.39
549.68	42550.94
549.84	42438.59
550.01	42057.09
550.18	42525.19
550.34	41893.25
550.51	42775.63
550.68	42763.93
550.84	41991.55
551.01	42555.62
551.18	42497.11
551.34	42717.12
551.51	42724.14
551.68	42377.74
551.84	42838.83
552.01	42300.50
552.18	43206.29
552.34	42686.69
552.51	42916.06
552.68	43199.27
552.84	42941.81
553.01	42932.45
553.18	43405.23
553.34	42880.95
553.51	42979.26
553.67	43438.00
553.84	43566.73
554.01	43255.44
554.17	43386.51
554.34	43447.36
554.51	43510.56
554.67	43508.22
554.84	43620.56
555.00	43232.04
555.17	43456.73
555.33	43477.79
555.50	43215.65
555.67	43269.48
555.83	43824.19
556.00	43606.52
556.16	44423.37
556.33	43786.74
556.50	43889.73
556.66	43882.70
556.83	43730.57
556.99	44058.24
557.16	43779.72
557.32	44060.58
557.49	44079.31
557.65	43835.89
557.82	44072.29
557.98	44215.06
558.15	44304.00
558.32	43988.03
558.48	43831.21
558.65	43840.57
558.81	43604.18
558.98	44350.81
559.14	43966.96
559.31	44088.67
559.47	44081.65
559.64	44149.53
559.80	44032.50
559.97	44163.57
560.13	44322.72
560.30	44360.17
560.46	44601.25
560.63	44828.28
560.79	44673.81
560.96	44706.57
561.12	44800.19
561.29	44722.96
561.45	44418.69
561.61	44486.56
561.78	44594.23
561.94	44428.05
562.11	44811.90
562.27	44641.04
562.44	44748.70
562.60	44975.73
562.77	44945.31
562.93	44662.10
563.10	45052.97
563.26	44556.78
563.42	44999.14
563.59	44495.92
563.75	44528.69
563.92	44659.76
564.08	44847.00
564.24	45048.29
564.41	45277.66
564.57	44994.46
564.74	44964.03
564.90	45130.21
565.07	44772.11
565.23	44692.53
565.39	45031.91
565.56	45024.89
565.72	44617.63
565.88	45162.98
566.05	45045.95
566.21	44938.29
566.38	45265.96
566.54	45408.73
566.70	45043.61
566.87	45024.89
567.03	45113.83
567.19	45483.63
567.36	45301.07
567.52	44973.39
567.68	45193.40
567.85	45324.47
568.01	45408.73
568.17	45015.52
568.34	45207.45
568.50	45539.80
568.66	45226.17
568.83	45359.58
568.99	45289.37
569.15	45415.76
569.32	45298.73
569.48	45195.74
569.64	45415.76
569.81	45598.32
569.97	45717.68
570.13	45429.80
570.30	45481.29
570.46	45666.19
570.62	45413.41
570.78	45097.44
570.95	45572.57
571.11	45977.48
571.27	45357.24
571.43	45703.64
571.60	45195.74
571.76	45509.38
571.92	45230.85
572.09	45628.74
572.25	45638.11
572.41	45469.59
572.57	45701.30
572.74	45743.43
572.90	45640.45
573.06	45874.50
573.22	45745.77
573.38	46092.17
573.55	45881.52
573.71	46108.55
573.87	45935.35
574.03	45556.19
574.20	46113.23
574.36	45811.31
574.52	45748.11
574.68	45778.54
574.84	46452.61
575.01	45911.95
575.17	45698.96
575.33	45911.95
575.49	45083.40
575.65	45860.46
575.82	46344.95
575.98	45921.31
576.14	46047.70
576.30	46366.01
576.46	46078.13
576.62	45986.85
576.79	45759.81
576.95	45853.44
577.11	45549.17
577.27	45907.27
577.43	46094.51
577.59	45867.48
577.75	45661.51
577.92	45574.91
578.08	45689.60
578.24	45937.69
578.40	46213.88
578.56	45921.31
578.72	46211.54
578.88	46073.45
579.04	46047.70
579.21	46038.34
579.37	46171.75
579.53	45949.40
579.69	45930.67
579.85	45705.98
580.01	46045.36
580.17	46012.59
580.33	46007.91
580.49	46073.45
580.65	46361.33
580.82	46073.45
580.98	45921.31
581.14	45998.55
581.30	45841.73
581.46	45911.95
581.62	45876.84
581.78	45937.69
581.94	46401.12
582.10	46115.58
582.26	46188.13
582.42	46085.15
582.58	46115.58
582.74	46171.75
582.90	45921.31
583.06	46124.94
583.22	45673.21
583.38	45937.69
583.54	46162.39
583.70	46473.68
583.86	46279.41
584.02	45975.14
584.18	46539.21
584.34	46698.37
584.50	46813.05
584.66	46483.04
584.82	46522.83
584.98	46674.96
585.14	46417.50
585.30	45996.21
585.46	46045.36
585.62	46155.36
585.78	46396.44
585.94	45998.55
586.10	46550.91
586.26	46115.58
586.42	46206.86
586.58	46440.91
586.74	46146.00
586.90	46146.00
587.06	46146.00
587.22	46265.37
587.38	46234.94
587.54	46333.24
587.70	46295.80
587.86	46756.88
588.02	46248.99
588.18	46344.95
588.34	46370.69
588.49	45940.04
588.65	46333.24
588.81	46604.75
588.97	46770.93
589.13	46363.67
589.29	46131.96
589.45	46897.31
589.61	46735.82
589.77	46424.53
589.93	46677.30
590.08	46815.40
590.24	46815.40
590.40	47070.51
590.56	46810.71
590.72	46953.49
590.88	46635.17
591.04	46515.81
591.20	47016.68
591.35	46902.00
591.51	47257.76
591.67	46993.28
591.83	47232.01
591.99	46747.52
592.15	46794.33
592.31	47028.38
592.46	46604.75
592.62	46351.97
592.78	47044.77
592.94	46859.87
593.10	47131.37
593.26	47393.51
593.41	46749.86
593.57	46827.10
593.73	47077.54
593.89	47126.69
594.05	47306.91
594.20	46761.56
594.36	47246.05
594.52	46817.74
594.68	46784.97
594.84	46876.25
594.99	47309.25
595.15	46665.60
595.31	46911.36
595.47	46887.95
595.62	46887.95
595.78	46967.53
595.94	46719.43
596.10	46916.04
596.25	47255.42
596.41	46724.11
596.57	46920.72
596.73	47093.92
596.88	47042.43
597.04	46979.23
597.20	46974.55
597.36	47159.45
597.51	47037.75
597.67	46436.23
597.83	46918.38
597.99	47100.94
598.14	46436.23
598.30	47105.62
598.46	47072.85
598.61	47224.99
598.77	46843.48
598.93	47325.63
599.09	47049.45
599.24	47665.01
599.40	47206.26
599.56	47370.10
599.71	47552.66
599.87	47903.74
600.03	47707.14
600.18	47129.03
600.34	47129.03
600.50	47398.19
600.65	47426.28
600.81	47489.47
600.97	47409.89
601.12	47227.33
601.28	47428.62
601.44	46658.58
601.59	47077.54
601.75	47206.26
601.91	46962.85
602.06	47395.85
602.22	47847.57
602.37	47065.83
602.53	46969.87
602.69	47370.10
602.84	47082.22
603.00	47182.86
603.16	47234.35
603.31	46780.29
603.47	47512.88
603.62	47487.13
603.78	47423.93
603.94	47402.87
604.09	47292.86
604.25	47318.61
604.40	47199.24
604.56	47290.52
604.71	47381.80
604.87	47138.39
605.03	47054.13
605.18	47271.80
605.34	46731.14
605.49	46693.69
605.65	47044.77
605.80	46759.22
605.96	46808.37
606.12	46787.31
606.27	47496.49
606.43	46539.21
606.58	46726.46
606.74	46930.08
606.89	47065.83
607.05	47316.27
607.20	47372.44
607.36	47320.95
607.51	46897.31
607.67	46979.23
607.82	46742.84
607.98	46993.28
608.13	47166.48
608.29	47213.29
608.44	47133.71
608.60	46869.23
608.75	47400.53
608.91	46841.14
609.06	46532.19
609.22	46838.80
609.37	46754.54
609.53	47206.26
609.68	47023.70
609.84	46885.61
609.99	46721.77
610.15	46787.31
610.30	46707.73
610.46	46726.46
610.61	47334.99
610.76	46862.21
610.92	46195.15
611.07	46543.89
611.23	46190.47
611.38	46696.03
611.54	46583.68
611.69	46696.03
611.84	46843.48
612.00	46850.50
612.15	46705.39
612.31	46597.73
612.46	46429.21
612.62	46539.21
612.77	46625.81
612.92	46747.52
613.08	46478.36
613.23	46663.26
613.39	46817.74
613.54	46312.18
613.69	46412.82
613.85	46401.12
614.00	46522.83
614.15	46450.27
614.31	46597.73
614.46	45961.10
614.62	46497.08
614.77	46307.50
614.92	46227.92
615.08	46752.20
615.23	46459.63
615.38	47004.98
615.54	46354.31
615.69	46623.47
615.84	46443.25
616.00	46899.65
616.15	46480.70
616.30	46625.81
616.46	46237.28
616.61	46164.73
616.76	46525.17
616.92	46366.01
617.07	46614.11
617.22	46169.41
617.37	46021.95
617.53	46335.59
617.68	45989.19
617.83	46232.60
617.99	46576.66
618.14	46410.48
618.29	45888.54
618.45	45790.24
618.60	45624.06
618.75	45614.70
618.90	45752.79
619.06	45839.39
619.21	45815.99
619.36	45911.95
619.51	45614.70
619.67	45755.13
619.82	45581.93
619.97	45998.55
620.12	45879.18
620.28	45886.20
620.43	45656.83
620.58	45876.84
620.73	45492.99
620.89	45839.39
621.04	46185.79
621.19	45509.38
621.34	46024.29
621.49	45415.76
621.65	45729.39
621.80	45846.41
621.95	45834.71
622.10	45893.22
622.25	45038.93
622.41	45249.58
622.56	45755.13
622.71	45401.71
622.86	45748.11
623.01	45750.45
623.16	45783.22
623.32	45446.18
623.47	45095.10
623.62	45387.67
623.77	45591.30
623.92	45287.03
624.07	45457.88
624.23	45687.26
624.38	45542.14
624.53	45284.68
624.68	45045.95
624.83	45387.67
624.98	45373.63
625.13	45258.94
625.29	45090.42
625.44	45268.30
625.59	45247.24
625.74	44844.66
625.89	44715.93
626.04	44671.46
626.19	44945.31
626.34	45064.67
626.49	44718.28
626.65	44605.93
626.80	44774.45
626.95	44275.91
627.10	44793.17
627.25	45109.14
627.40	45111.49
627.55	44751.04
627.70	44690.19
627.85	44404.64
628.00	44971.05
628.15	44788.49
628.30	44332.09
628.45	44069.95
628.60	44289.96
628.76	44294.64
628.91	44535.71
629.06	44304.00
629.21	44552.10
629.36	44336.77
629.51	44456.14
629.66	44617.63
629.81	44634.02
629.96	44638.70
630.11	44694.87
630.26	43931.86
630.41	44332.09
630.56	44210.38
630.71	44285.28
630.86	44069.95
631.01	43587.80
631.16	44100.37
631.31	44140.16
631.46	44009.09
631.61	44463.16
631.76	44030.16
631.91	44477.20
632.06	44650.40
632.21	44294.64
632.36	44622.31
632.51	43730.57
632.66	44119.10
632.81	43913.13
632.96	44196.34
633.10	43878.02
633.25	43866.32
633.40	43959.94
633.55	44320.38
633.70	44158.89
633.85	43913.13
634.00	43597.16
634.15	43592.48
634.30	43714.19
634.45	43459.07
634.60	43674.40
634.75	43423.96
634.90	43585.46
635.05	43861.64
635.19	44011.43
635.34	43241.40
635.49	43838.23
635.64	43629.93
635.79	43763.34
635.94	43299.91
636.09	43632.27
636.24	43295.23
636.39	43250.76
636.53	43054.15
636.68	43189.91
636.83	43189.91
636.98	42848.19
637.13	43091.60
637.28	43217.99
637.43	43096.28
637.57	42834.14
637.72	43227.35
637.87	43157.14
638.02	42995.64
638.17	43222.67
638.32	42871.59
638.46	42955.85
638.61	42696.05
638.76	42747.54
638.91	42974.58
639.06	42689.03
639.20	42665.63
639.35	42312.20
639.50	42314.55
639.65	43203.95
639.80	42887.98
639.94	43150.12
640.09	42969.90
640.24	42738.18
640.39	42272.42
640.54	42225.60
640.68	42288.80
640.83	43009.68
640.98	42593.07
641.13	42497.11
641.27	43093.94
641.42	42693.71
641.57	42628.18
641.72	42253.69
641.86	42674.99
642.01	42003.25
642.16	42181.13
642.31	42127.30
642.45	42543.92
642.60	41851.12
642.75	42342.63
642.90	42534.56
643.04	42319.23
643.19	42139.00
643.34	42373.06
643.48	41762.18
643.63	42164.75
643.78	42604.77
643.93	42171.77
644.07	42438.59
644.22	42398.80
644.37	41621.75
644.51	42277.10
644.66	41825.37
644.81	42110.92
644.95	41600.68
645.10	42263.05
645.25	41806.65
645.39	41345.56
645.54	41825.37
645.69	41652.17
645.83	41441.53
645.98	41780.90
646.13	41144.28
646.27	41509.40
646.42	41137.26
646.57	41813.67
646.71	41759.84
646.86	41956.44
647.00	41940.06
647.15	41893.25
647.30	41378.33
647.44	41991.55
647.59	41577.28
647.74	41743.45
647.88	41565.57
648.03	41710.69
648.17	41500.04
648.32	41654.51
648.47	41317.48
648.61	41228.54
648.76	41490.68
648.90	41289.39
649.05	41237.90
649.20	41319.82
649.34	41422.80
649.49	41352.58
649.63	41340.88
649.78	41256.62
649.92	41415.78
650.07	41638.13
650.21	41184.07
650.36	41366.63
650.51	41277.69
650.65	41347.90
650.80	41193.43
650.94	41184.07
651.09	40840.01
651.23	40697.24
651.38	41139.60
651.52	40421.05
651.67	40849.37
651.81	40844.69
651.96	40669.15
652.10	40711.28
652.25	40446.80
652.39	40730.00
652.54	40828.30
652.68	40903.20
652.83	40589.57
652.97	41219.17
653.12	40566.16
653.26	40659.79
653.41	41085.76
653.55	40364.88
653.70	40622.34
653.84	40594.25
653.99	40931.29
654.13	40182.32
654.27	40179.98
654.42	40648.08
654.56	40278.28
654.71	40346.15
654.85	40500.63
655.00	40662.13
655.14	40392.97
655.29	40512.33
655.43	40624.68
655.57	40198.70
655.72	39990.39
655.86	40566.16
656.01	40273.60
656.15	40084.01
656.30	40446.80
656.44	40172.96
656.58	40135.51
656.73	39995.07
656.87	39725.91
657.01	38965.24
657.16	39665.06
657.30	39871.03
657.45	39833.58
657.59	39737.62
657.73	39533.99
657.88	39136.10
658.02	39845.28
658.16	40023.16
658.31	39634.63
658.45	39548.03
658.60	39262.49
658.74	39775.06
658.88	39545.69
659.03	39395.90
659.17	39077.58
659.31	39323.34
659.46	39103.33
659.60	39210.99
659.74	39260.15
659.89	39679.10
660.03	38700.76
660.17	39192.27
660.32	39353.77
660.46	38726.50
660.60	38319.25
660.74	38761.61
660.89	39079.92
661.03	38646.93
661.17	38480.75
661.32	38756.93
661.46	38974.60
661.60	38747.57
661.74	38478.41
661.89	38616.50
662.03	39091.63
662.17	38403.51
662.31	38621.18
662.46	38927.79
662.60	38279.46
662.74	37879.23
662.88	37919.02
663.03	37949.45
663.17	37778.59
663.31	37647.52
663.45	37883.91
663.60	38403.51
663.74	37996.26
663.88	37764.54
664.02	37689.65
664.17	38129.67
664.31	37535.17
664.45	37600.71
664.59	37708.37
664.73	37574.96
664.88	37432.19
665.02	37308.14
665.16	37333.89
665.30	37303.46
665.44	37280.05
665.59	37226.22
665.73	37156.00
665.87	36290.01
666.01	37111.53
666.15	36659.81
666.29	36912.59
666.44	37081.11
666.58	37071.75
666.72	36828.33
666.86	36210.43
667.00	36460.87
667.14	36580.23
667.28	36498.31
667.43	36353.20
667.57	36643.43
667.71	36566.19
667.85	36811.95
667.99	36474.91
668.13	36268.94
668.27	36388.31
668.41	36133.19
668.56	35519.97
668.70	35922.54
668.84	36004.46
668.98	35641.68
669.12	36098.08
669.26	35372.52
669.40	35990.42
669.54	35459.12
669.68	35831.26
669.82	34897.39
669.96	35213.36
670.10	34712.49
670.25	34672.70
670.39	35070.59
670.53	35358.47
670.67	35166.55
670.81	35136.12
670.95	34866.96
671.09	34845.90
671.23	35239.11
671.37	34448.00
671.51	34710.14
671.65	34466.73
671.79	34595.46
671.93	34792.06
672.07	34787.38
672.21	34476.09
672.35	33933.09
672.49	34050.11
672.63	34396.51
672.77	33942.45
672.91	34026.71
673.05	34225.65
673.19	34052.45
673.33	33523.49
673.47	33574.98
673.61	33687.33
673.75	33565.62
673.89	33509.45
674.03	33516.47
674.17	33116.24
674.31	33516.47
674.45	33031.98
674.59	33259.01
674.73	32940.70
674.87	32776.86
675.01	32603.66
675.15	32397.70
675.29	32617.71
675.43	32334.50
675.56	32737.07
675.70	32643.45
675.84	32336.84
675.98	31412.33
676.12	32313.44
676.26	32280.67
676.40	32203.43
676.54	31819.58
676.68	31981.08
676.82	31536.38
676.96	32357.91
677.10	31690.85
677.23	31927.25
677.37	31442.76
677.51	31318.71
677.65	31489.57
677.79	31454.46
677.93	31211.04
678.07	31110.40
678.21	30951.24
678.34	30670.38
678.48	30298.23
678.62	30616.55
678.76	30316.96
678.90	30490.16
679.04	30391.86
679.18	30780.39
679.31	30153.12
679.45	30031.41
679.59	29879.28
679.73	30108.65
679.87	29591.39
680.00	29614.80
680.14	29525.86
680.28	29291.80
680.42	29441.60
680.56	29235.63
680.70	29200.52
680.83	29130.31
680.97	28769.86
681.11	29085.84
681.25	28819.02
681.39	28470.28
681.52	28400.06
681.66	28037.28
681.80	28336.87
681.94	28116.86
682.07	28184.73
682.21	27779.82
682.35	27852.38
682.49	27878.12
682.62	27892.16
682.76	27587.89
682.90	27562.15
683.04	27438.10
683.17	27330.44
683.31	27391.29
683.45	27466.19
683.59	26995.74
683.72	27084.68
683.86	26984.04
684.00	26867.01
684.13	27112.77
684.27	26466.78
684.41	26263.15
684.55	26480.82
684.68	26508.91
684.82	26068.89
684.96	26291.24
685.09	26162.51
685.23	26174.21
685.37	26331.03
685.50	26366.13
685.64	26225.70
685.78	25591.42
685.91	25696.74
686.05	25174.80
686.19	25015.65
686.32	25048.41
686.46	24889.26
686.60	24648.18
686.73	25240.34
686.87	24961.81
687.01	25010.96
687.14	25216.93
687.28	24559.24
687.42	24613.07
687.55	24446.90
687.69	24367.32
687.82	23796.23
687.96	24311.14
688.10	24212.84
688.23	24184.76
688.37	24524.13
688.50	24381.36
688.64	23517.70
688.78	24006.87
688.91	23592.60
689.05	23550.47
689.18	23625.37
689.32	23028.53
689.46	23007.47
689.59	23140.88
689.73	23693.24
689.86	23316.42
690.00	23332.80
690.13	22794.48
690.27	22794.48
690.41	22705.54
690.54	22537.02
690.68	22450.42
690.81	22279.56
690.95	22207.00
691.08	22284.24
691.22	22073.59
691.35	22106.36
691.49	22115.72
691.62	21600.80
691.76	21331.64
691.89	21528.25
692.03	21378.45
692.16	20957.16
692.30	21408.88
692.43	20938.43
692.57	21010.99
692.70	21008.65
692.84	21057.80
692.97	20702.04
693.11	20608.42
693.24	20479.69
693.38	20482.03
693.51	20556.93
693.65	20060.73
693.78	20226.91
693.92	20112.22
694.05	20266.70
694.19	20079.46
694.32	20063.07
694.45	20163.72
694.59	19908.60
694.72	20004.56
694.86	19676.88
694.99	19557.52
695.13	19185.37
695.26	19112.81
695.39	19276.65
695.53	19426.45
695.66	19239.20
695.80	19140.90
695.93	19274.31
696.07	19082.39
696.20	18483.21
696.33	18611.94
696.47	18197.67
696.60	18366.18
696.73	18438.74
696.87	18574.49
697.00	18464.49
697.14	18122.77
697.27	18029.15
697.40	18192.98
697.54	18075.96
697.67	17813.82
697.80	18073.62
697.94	17633.60
698.07	17551.68
698.21	17544.66
698.34	17558.70
698.47	17408.90
698.61	16936.12
698.74	17186.55
698.87	17048.46
699.01	16753.55
699.14	17242.73
699.27	16739.51
699.40	16638.87
699.54	16709.08
699.67	16849.52
699.80	16601.42
699.94	16400.13
700.07	16542.91
700.20	16386.09
700.34	16243.32
700.47	16315.87
700.60	16479.71
700.73	16224.59
700.87	16039.69
701.00	15793.94
701.13	15419.45
701.26	15742.44
701.40	15559.88
701.53	15367.96
701.66	15438.17
701.79	15309.44
701.93	15215.82
702.06	14822.61
702.19	15115.18
702.32	14977.09
702.46	14960.70
702.59	15267.31
702.72	15199.44
702.85	15112.84
702.99	14799.21
703.12	14703.25
703.25	14712.61
703.38	14834.32
703.51	14707.93
703.65	14436.42
703.78	14310.04
703.91	14019.81
704.04	14019.81
704.17	13926.19
704.31	14209.39
704.44	13987.04
704.57	13944.91
704.70	14075.98
704.83	13788.10
704.96	13713.20
705.10	13675.75
705.23	13537.66
>>>>>End Processed Spectral Data<<<<<
