SpectraSuite Data File
++++++++++++++++++++++++++++++++++++
Date: Fri Oct 25 10:47:46 EDT 2013
User: price-jones
Dark Spectrum Present: No
Reference Spectrum Present: No
Number of Sampled Component Spectra: 1
Spectrometers: USB2+H05261
Integration Time (usec): 100000 (USB2+H05261)
Spectra Averaged: 1 (USB2+H05261)
Boxcar Smoothing: 0 (USB2+H05261)
Correct for Electrical Dark: No (USB2+H05261)
Strobe/Lamp Enabled: No (USB2+H05261)
Correct for Detector Non-linearity: No (USB2+H05261)
Correct for Stray Light: No (USB2+H05261)
Number of Pixels in Processed Spectrum: 2048
>>>>>Begin Processed Spectral Data<<<<<
365.73	95.96
365.92	95.96
366.12	95.96
366.32	0.00
366.52	53.83
366.72	30.43
366.91	28.09
367.11	77.24
367.31	44.47
367.51	112.35
367.70	42.13
367.90	65.54
368.10	49.15
368.30	72.56
368.49	30.43
368.69	95.96
368.89	56.17
369.09	49.15
369.28	100.64
369.48	0.00
369.68	58.51
369.87	107.66
370.07	126.39
370.27	184.90
370.47	243.42
370.66	430.66
370.86	341.72
371.06	456.40
371.25	472.79
371.45	397.89
371.65	437.68
371.84	395.55
372.04	379.17
372.24	524.28
372.44	519.60
372.63	496.19
372.83	465.77
373.03	463.43
373.22	521.94
373.42	500.87
373.62	477.47
373.81	482.15
374.01	573.43
374.21	543.00
374.40	519.60
374.60	559.39
374.79	500.87
374.99	465.77
375.19	486.83
375.38	550.03
375.58	615.56
375.78	664.71
375.97	650.67
376.17	573.43
376.37	587.47
376.56	568.75
376.76	557.05
376.95	526.62
377.15	690.46
377.35	578.11
377.54	671.73
377.74	610.88
377.93	592.16
378.13	650.67
378.33	629.60
378.52	610.88
378.72	664.71
378.91	580.45
379.11	624.92
379.31	634.29
379.50	636.63
379.70	678.76
379.89	606.20
380.09	676.41
380.28	695.14
380.48	667.05
380.68	575.77
380.87	624.92
381.07	613.22
381.26	610.88
381.46	655.35
381.65	645.99
381.85	634.29
382.04	622.58
382.24	711.52
382.43	697.48
382.63	690.46
382.83	702.16
383.02	613.22
383.22	725.57
383.41	669.39
383.61	699.82
383.80	781.74
384.00	683.44
384.19	755.99
384.39	695.14
384.58	788.76
384.78	753.65
384.97	760.67
385.17	812.17
385.36	727.91
385.56	695.14
385.75	763.01
385.95	751.31
386.14	870.68
386.34	767.70
386.53	877.70
386.72	866.00
386.92	823.87
387.11	858.98
387.31	863.66
387.50	866.00
387.70	849.61
387.89	842.59
388.09	791.10
388.28	910.47
388.48	851.96
388.67	828.55
388.86	903.45
389.06	866.00
389.25	940.90
389.45	877.70
389.64	901.11
389.84	922.17
390.03	947.92
390.22	880.04
390.42	926.85
390.61	973.66
390.81	915.15
391.00	924.51
391.19	926.85
391.39	943.24
391.58	1039.20
391.78	978.34
391.97	1020.47
392.16	931.53
392.36	966.64
392.55	1095.37
392.75	987.71
392.94	1004.09
393.13	866.00
393.33	994.73
393.52	1041.54
393.71	1027.50
393.91	1041.54
394.10	985.37
394.29	1062.60
394.49	1071.97
394.68	1078.99
394.88	1114.10
395.07	1086.01
395.26	1116.44
395.46	1025.15
395.65	1170.27
395.84	1210.06
396.04	1139.84
396.23	1111.75
396.42	1015.79
396.62	1107.07
396.81	1149.20
397.00	1219.42
397.19	1249.85
397.39	1301.34
397.58	1268.57
397.77	1249.85
397.97	1214.74
398.16	1254.53
398.35	1390.28
398.55	1270.91
398.74	1270.91
398.93	1306.02
399.12	1387.94
399.32	1348.15
399.51	1350.49
399.70	1364.53
399.90	1308.36
400.09	1399.64
400.28	1401.98
400.47	1413.68
400.67	1390.28
400.86	1448.79
401.05	1497.94
401.24	1490.92
401.44	1575.18
401.63	1528.37
401.82	1535.39
402.01	1549.43
402.21	1561.14
402.40	1481.56
402.59	1558.80
402.78	1584.54
402.97	1523.69
403.17	1493.26
403.36	1549.43
403.55	1572.84
403.74	1678.16
403.93	1666.46
404.13	1659.44
404.32	1657.10
404.51	1617.31
404.70	1734.34
404.89	1654.76
405.09	1715.61
405.28	1802.21
405.47	1849.02
405.66	1774.13
405.85	1685.19
406.05	1708.59
406.24	1830.30
406.43	1774.13
406.62	1891.15
406.81	1783.49
407.00	1795.19
407.20	1797.53
407.39	1778.81
407.58	1827.96
407.77	1909.88
407.96	1914.56
408.15	1916.90
408.34	2062.01
408.54	1952.01
408.73	1982.43
408.92	2045.63
409.11	2071.37
409.30	2087.76
409.49	2080.74
409.68	2012.86
409.87	1916.90
410.07	1998.82
410.26	2064.35
410.45	2101.80
410.64	2085.42
410.83	2099.46
411.02	2228.19
411.21	2275.00
411.40	2296.07
411.59	2307.77
411.78	2190.74
411.98	2333.51
412.17	2289.04
412.36	2385.01
412.55	2394.37
412.74	2476.29
412.93	2471.61
413.12	2235.21
413.31	2413.09
413.50	2331.17
413.69	2478.63
413.88	2612.04
414.07	2513.74
414.26	2686.94
414.45	2729.06
414.64	2719.70
414.83	2614.38
415.02	2708.00
415.22	2729.06
415.41	2766.51
415.60	2775.88
415.79	2799.28
415.98	2878.86
416.17	2834.39
416.36	2888.22
416.55	2876.52
416.74	2977.16
416.93	2855.45
417.12	3014.61
417.31	2998.23
417.50	3038.02
417.69	3098.87
417.88	3091.85
418.07	3056.74
418.26	3068.44
418.45	3150.36
418.64	3225.26
418.83	3115.25
419.02	3162.06
419.21	3222.92
419.39	3183.13
419.58	3098.87
419.77	3108.23
419.96	3243.98
420.15	3215.90
420.34	3279.09
420.53	3365.69
420.72	3356.33
420.91	3389.10
421.10	3328.24
421.29	3386.76
421.48	3318.88
421.67	3440.59
421.86	3241.64
422.05	3492.08
422.24	3414.84
422.43	3435.91
422.61	3375.05
422.80	3466.33
422.99	3588.04
423.18	3552.93
423.37	3534.21
423.56	3655.92
423.75	3548.25
423.94	3419.52
424.13	3272.07
424.32	3321.22
424.50	3473.36
424.69	3564.64
424.88	3538.89
425.07	3471.01
425.26	3375.05
425.45	3595.06
425.64	3524.85
425.83	3496.76
426.01	3548.25
426.20	3667.62
426.39	3674.64
426.58	3508.46
426.77	3426.54
426.96	3646.55
427.15	3676.98
427.33	3592.72
427.52	3646.55
427.71	3726.13
427.90	3604.42
428.09	3716.77
428.28	3726.13
428.46	3740.18
428.65	3822.09
428.84	3843.16
429.03	3791.67
429.22	3684.00
429.40	3740.18
429.59	3845.50
429.78	3651.24
429.97	3602.08
430.16	3779.97
430.34	3831.46
430.53	3810.39
430.72	3901.67
430.91	3794.01
431.10	3911.04
431.28	4159.13
431.47	4112.32
431.66	4280.84
431.85	4114.66
432.03	4112.32
432.22	4203.60
432.41	4168.49
432.60	4109.98
432.79	4201.26
432.97	4264.46
433.16	4100.62
433.35	4208.28
433.54	4210.62
433.72	4341.69
433.91	4252.75
434.10	4292.54
434.28	4187.22
434.47	4290.20
434.66	4383.82
434.85	4479.79
435.03	4215.30
435.22	4430.63
435.41	4669.37
435.59	4533.62
435.78	4440.00
435.97	4519.57
436.16	4519.57
436.34	4428.29
436.53	4610.86
436.72	4638.94
436.90	4578.09
437.09	4657.67
437.28	4440.00
437.46	4709.16
437.65	4737.24
437.84	4596.81
438.02	4774.69
438.21	4704.48
438.40	4638.94
438.58	4758.31
438.77	4975.98
438.96	4765.33
439.14	4844.91
439.33	5151.52
439.52	5100.03
439.70	5067.26
439.89	4987.68
440.08	5174.92
440.26	5114.07
440.45	5210.03
440.63	5247.48
440.82	5331.74
441.01	5298.97
441.19	5521.32
441.38	5284.93
441.57	5404.30
441.75	5603.24
441.94	5554.09
442.12	5570.48
442.31	5586.86
442.50	5797.51
442.68	5720.27
442.87	5617.29
443.05	5643.03
443.24	5795.17
443.43	5696.86
443.61	5776.44
443.80	5856.02
443.98	5701.54
444.17	5596.22
444.35	5746.02
444.54	5909.85
444.73	5809.21
444.91	5724.95
445.10	5895.81
445.28	5713.25
445.47	5776.44
445.65	5902.83
445.84	5809.21
446.02	6092.41
446.21	5891.13
446.39	5942.62
446.58	5944.96
446.77	6012.84
446.95	5870.06
447.14	6045.60
447.32	5909.85
447.51	5991.77
447.69	5935.60
447.88	5998.79
448.06	6101.78
448.25	5961.34
448.43	6033.90
448.62	5982.41
448.80	5849.00
448.99	6150.93
449.17	6200.08
449.36	5884.11
449.54	6099.44
449.73	6232.85
449.91	6396.68
450.10	6326.47
450.28	6490.31
450.46	6375.62
450.65	6303.06
450.83	6401.37
451.02	6417.75
451.20	6312.42
451.39	6403.71
451.57	6396.68
451.76	6296.04
451.94	6347.53
452.13	6478.60
452.31	6612.01
452.49	6366.26
452.68	6616.69
452.86	6317.11
453.05	6590.95
453.23	6619.04
453.42	6342.85
453.60	6583.93
453.78	6663.51
453.97	6670.53
454.15	6590.95
454.34	6541.80
454.52	6717.34
454.70	6761.81
454.89	6757.13
455.07	6841.39
455.26	6700.95
455.44	6988.84
455.62	6780.53
455.81	7105.87
455.99	6953.73
456.17	7005.22
456.36	7070.76
456.54	7047.35
456.73	7066.08
456.91	7328.22
457.09	7213.53
457.28	7396.09
457.46	7335.24
457.64	7454.61
457.83	7152.68
458.01	7232.26
458.19	7433.54
458.38	7248.64
458.56	7620.78
458.74	7480.35
458.93	7473.33
459.11	7438.22
459.29	7564.61
459.48	7637.17
459.66	7609.08
459.84	7494.40
460.03	7702.70
460.21	7620.78
460.39	7801.01
460.57	7602.06
460.76	7658.23
460.94	7817.39
461.12	7581.00
461.31	7726.11
461.49	7786.96
461.67	7733.13
461.85	7955.48
462.04	7894.63
462.22	8212.94
462.40	7901.65
462.59	7896.97
462.77	7948.46
462.95	8037.40
463.13	7941.44
463.32	8128.68
463.50	8217.62
463.68	8109.96
463.86	8154.43
464.05	8025.70
464.23	8168.47
464.41	8194.22
464.59	7913.35
464.78	8051.44
464.96	8180.17
465.14	8077.19
465.32	8243.37
465.50	8416.57
465.69	8255.07
465.87	8308.90
466.05	8498.49
466.23	8334.65
466.41	8297.20
466.60	8676.37
466.78	8360.39
466.96	8255.07
467.14	8533.59
467.32	8587.43
467.51	8561.68
467.69	8475.08
467.87	8404.86
468.05	8667.00
468.23	8519.55
468.41	8566.36
468.60	8659.98
468.78	8774.67
468.96	8620.19
469.14	8697.43
469.32	8842.54
469.50	8732.54
469.69	8805.10
469.87	8922.12
470.05	8741.90
470.23	8861.27
470.41	8765.31
470.59	9163.20
470.77	9032.13
470.95	9144.47
471.14	9233.41
471.32	8889.35
471.50	9474.49
471.68	9247.46
471.86	9500.23
472.04	9214.69
472.22	9525.98
472.40	9259.16
472.58	9467.47
472.77	9462.79
472.95	9465.13
473.13	9586.83
473.31	9504.92
473.49	9525.98
473.67	9537.68
473.85	9624.28
474.03	9624.28
474.21	9977.70
474.39	9958.98
474.57	9914.51
474.75	10141.54
474.93	10356.87
475.12	10080.69
475.30	10221.12
475.48	10235.16
475.66	10031.54
475.84	10312.40
476.02	10520.71
476.20	10677.52
476.38	10677.52
476.56	10661.14
476.74	10775.83
476.92	10579.22
477.10	10871.79
477.28	10738.38
477.46	10878.81
477.64	10986.47
477.82	11236.91
478.00	11171.38
478.18	11314.15
478.36	11351.60
478.54	11421.81
478.72	11566.93
478.90	11793.96
479.08	11674.59
479.26	11974.18
479.44	11805.66
479.62	11997.59
479.80	11847.79
479.98	12133.34
480.16	12475.06
480.34	12259.73
480.52	12461.01
480.70	12343.99
480.88	12109.93
481.06	12545.27
481.24	12699.75
481.41	12840.18
481.59	13130.41
481.77	12886.99
481.95	12802.73
482.13	13331.69
482.31	13097.64
482.49	13542.34
482.67	13444.04
482.85	13855.97
483.03	13621.92
483.21	13729.58
483.39	13998.74
483.57	14040.87
483.74	13982.36
483.92	14260.88
484.10	14127.47
484.28	14560.47
484.46	14586.22
484.64	14981.77
484.82	14590.90
485.00	14958.36
485.18	14731.33
485.35	15150.29
485.53	14965.39
485.71	15145.61
485.89	15346.89
486.07	15026.24
486.25	15463.92
486.43	15489.67
486.61	15632.44
486.78	16109.91
486.96	16060.76
487.14	16147.36
487.32	16262.04
487.50	16327.58
487.68	16456.31
487.85	16652.91
488.03	16872.92
488.21	17001.65
488.39	16926.75
488.57	17055.48
488.75	17296.56
488.92	17830.20
489.10	17975.31
489.28	17841.90
489.46	18221.07
489.64	17795.09
489.81	18057.23
489.99	18218.73
490.17	18221.07
490.35	18817.91
490.53	18588.53
490.70	18759.39
490.88	19131.54
491.06	19117.50
491.24	18991.11
491.41	19007.49
491.59	18984.09
491.77	19054.30
491.95	19213.46
492.13	19756.46
492.30	19777.53
492.48	19793.91
492.66	19852.42
492.84	20037.33
493.01	20252.66
493.19	20383.73
493.37	20606.08
493.54	20381.38
493.72	20748.85
493.90	20795.66
494.08	20884.60
494.25	21186.53
494.43	21546.97
494.61	21287.17
494.79	21305.90
494.96	21259.09
495.14	21752.94
495.32	21928.48
495.49	21799.75
495.67	22071.25
495.85	22045.51
496.02	22319.35
496.20	22785.12
496.38	22443.40
496.55	22307.65
496.73	22745.33
496.91	22637.66
497.09	22782.77
497.26	23124.49
497.44	22932.57
497.62	23166.62
497.79	23562.17
497.97	23309.40
498.14	23452.17
498.32	23805.59
498.50	23679.20
498.67	23777.50
498.85	23971.77
499.03	24191.78
499.20	24032.62
499.38	24247.95
499.56	24402.43
499.73	24250.29
499.91	24781.59
500.08	24900.96
500.26	24369.66
500.44	24821.38
500.61	24933.73
500.79	24697.33
500.97	25062.46
501.14	25252.04
501.32	25174.80
501.49	25387.79
501.67	25394.81
501.84	25586.74
502.02	25582.06
502.20	25458.01
502.37	25785.68
502.55	25593.76
502.72	25504.82
502.90	25928.45
503.07	26087.61
503.25	25865.26
503.43	25958.88
503.60	26288.90
503.78	26277.19
503.95	26644.66
504.13	26345.07
504.30	26419.97
504.48	26464.44
504.65	26586.15
504.83	26665.72
505.01	27229.79
505.18	26852.97
505.36	27143.19
505.53	26616.57
505.71	27456.82
505.88	27391.29
506.06	27178.30
506.23	27300.01
506.41	27328.10
506.58	27810.25
506.76	27669.81
506.93	27929.61
507.11	27644.07
507.28	27660.45
507.46	28067.70
507.63	27604.28
507.81	28238.56
507.98	28261.97
508.16	28142.60
508.33	28474.96
508.50	28561.56
508.68	28561.56
508.85	28957.11
509.03	28643.48
509.20	28711.35
509.38	28957.11
509.55	28828.38
509.73	29013.28
509.90	29282.44
510.08	29048.39
510.25	29032.00
510.42	29589.05
510.60	29472.03
510.77	29727.14
510.95	29907.37
511.12	29525.86
511.30	30204.61
511.47	29860.55
511.64	29752.89
511.82	30363.77
511.99	29954.18
512.17	29865.24
512.34	30160.14
512.51	29963.54
512.69	30609.53
512.86	30513.56
513.04	30710.17
513.21	30658.68
513.38	30621.23
513.56	30174.19
513.73	30558.03
513.90	31094.02
514.08	30574.42
514.25	31070.61
514.43	31126.78
514.60	30668.04
514.77	31330.41
514.95	31159.55
515.12	31274.24
515.29	31171.25
515.47	31407.65
515.64	31786.82
515.81	31480.21
515.99	31594.89
516.16	31714.26
516.33	31873.42
516.51	32135.56
516.68	31414.67
516.85	31498.93
517.03	31709.58
517.20	31990.44
517.37	31964.70
517.54	32102.79
517.72	32381.31
517.89	32004.49
518.06	31847.67
518.24	32400.04
518.41	32343.86
518.58	32760.48
518.75	32116.83
518.93	32641.11
519.10	32739.41
519.27	32903.25
519.45	32657.49
519.62	33097.52
519.79	33219.22
519.96	32924.32
520.14	33528.17
520.31	33104.54
520.48	33404.13
520.65	33354.97
520.83	33137.30
521.00	33404.13
521.17	33509.45
521.34	33790.31
521.52	33649.88
521.69	34127.35
521.86	33832.44
522.03	34246.72
522.20	33701.37
522.38	34108.63
522.55	34230.33
522.72	33783.29
522.89	34277.15
523.07	34321.62
523.24	34235.02
523.41	34660.99
523.58	34295.87
523.75	34932.50
523.92	34815.47
524.10	35101.01
524.27	34881.00
524.44	35147.82
524.61	35442.73
524.78	35323.36
524.96	35152.51
525.13	35541.03
525.30	35342.09
525.47	35627.63
525.64	35571.46
525.81	35215.70
525.98	35505.93
526.16	34925.47
526.33	35246.13
526.50	35578.48
526.67	35835.94
526.84	35775.09
527.01	35381.88
527.18	36119.15
527.36	35777.43
527.53	36250.22
527.70	36500.65
527.87	36346.18
528.04	36357.88
528.21	35955.31
528.38	35974.03
528.55	36795.56
528.72	36524.06
528.89	36580.23
529.07	36175.32
529.24	36264.26
529.41	36425.76
529.58	36374.27
529.75	36299.37
529.92	36830.67
530.09	36666.83
530.26	36645.77
530.43	36910.25
530.60	36350.86
530.77	36767.48
530.94	37085.79
531.11	37221.54
531.28	37228.56
531.46	37287.07
531.63	37287.07
531.80	37146.64
531.97	37464.96
532.14	36978.12
532.31	37041.32
532.48	37691.99
532.65	37675.60
532.82	37628.79
532.99	37897.95
533.16	37778.59
533.33	37497.72
533.50	38150.73
533.67	37930.72
533.84	37612.41
534.01	38195.20
534.18	37621.77
534.35	38160.09
534.52	37762.20
534.69	37937.74
534.86	38232.65
535.03	37804.33
535.20	38469.04
535.37	38462.02
535.54	38518.20
535.71	38352.02
535.88	38550.96
536.05	38164.78
536.22	38476.07
536.38	38693.74
536.55	38618.84
536.72	38845.87
536.89	38293.50
537.06	38419.89
537.23	38817.78
537.40	38651.61
537.57	38731.18
537.74	38731.18
537.91	39306.96
538.08	38714.80
538.25	38803.74
538.42	39016.73
538.59	39199.29
538.75	38960.56
538.92	39110.35
539.09	39363.13
539.26	39274.19
539.43	39260.15
539.60	39772.72
539.77	39112.69
539.94	39110.35
540.11	39353.77
540.28	39524.63
540.44	39859.32
540.61	39318.66
540.78	39536.33
540.95	39438.03
541.12	39358.45
541.29	39178.23
541.46	39313.98
541.62	39709.53
541.79	39913.16
541.96	39510.58
542.13	39700.17
542.30	39849.96
542.47	39709.53
542.63	39995.07
542.80	39704.85
542.97	40725.32
543.14	40507.65
543.31	40507.65
543.48	40435.10
543.64	40605.95
543.81	40713.62
543.98	40484.25
544.15	40760.43
544.32	40849.37
544.48	41155.98
544.65	41027.25
544.82	40804.90
544.99	40704.26
545.16	40861.07
545.32	40629.36
545.49	41041.29
545.66	40603.61
545.83	41148.96
546.00	41223.86
546.16	41177.04
546.33	41474.29
546.50	40910.22
546.67	41273.01
546.83	40823.62
547.00	40935.97
547.17	40783.83
547.34	41057.68
547.50	41343.22
547.67	41860.48
547.84	41446.21
548.00	41631.11
548.17	41420.46
548.34	41813.67
548.51	41645.15
548.67	41806.65
548.84	41675.58
549.01	41581.96
549.18	41923.68
549.34	41656.85
549.51	42134.32
549.68	42108.58
549.84	41603.02
550.01	42206.88
550.18	41661.54
550.34	41921.34
550.51	41998.57
550.68	41839.42
550.84	41811.33
551.01	41773.88
551.18	42136.66
551.34	41998.57
551.51	42029.00
551.68	42176.45
551.84	42354.33
552.01	41942.40
552.18	42185.82
552.34	42417.53
552.51	42696.05
552.68	42309.86
552.84	42700.73
553.01	42665.63
553.18	42564.98
553.34	42188.16
553.51	42153.05
553.67	42286.46
553.84	42642.22
554.01	42564.98
554.17	42939.47
554.34	42913.72
554.51	42845.85
554.67	42780.31
554.84	43028.41
555.00	42572.00
555.17	42649.24
555.33	42763.93
555.50	42251.35
555.67	42415.19
555.83	42761.59
556.00	43007.34
556.16	43295.23
556.33	43147.78
556.50	42995.64
556.66	43599.50
556.83	42986.28
556.99	43264.80
557.16	43356.08
557.32	43367.79
557.49	43257.78
557.65	43089.26
557.82	43150.12
557.98	42583.71
558.15	43402.89
558.32	43592.48
558.48	43229.69
558.65	43201.61
558.81	43079.90
558.98	43196.93
559.14	43370.13
559.31	42951.17
559.47	43679.08
559.64	43306.93
559.80	43995.05
559.97	43988.03
560.13	43217.99
560.30	43290.55
560.46	43606.52
560.63	43679.08
560.79	43622.90
560.96	44186.97
561.12	43536.30
561.29	43557.37
561.45	43798.44
561.61	43606.52
561.78	43538.65
561.94	43578.43
562.11	43491.83
562.27	43756.32
562.44	43730.57
562.60	43658.01
562.77	44238.47
562.93	43779.72
563.10	44032.50
563.26	43421.62
563.42	43929.51
563.59	43824.19
563.75	43821.85
563.92	43786.74
564.08	43920.15
564.24	43863.98
564.41	43971.64
564.57	43978.67
564.74	43871.00
564.90	44100.37
565.07	44273.57
565.23	43821.85
565.39	43969.30
565.56	44128.46
565.72	43945.90
565.88	44018.46
566.05	44004.41
566.21	43927.17
566.38	44367.20
566.54	44165.91
566.70	44100.37
566.87	44374.22
567.03	43655.67
567.19	44634.02
567.36	44509.97
567.52	43973.98
567.68	44481.88
567.85	43985.69
568.01	44055.90
568.17	44016.11
568.34	44287.62
568.50	43885.04
568.66	44116.76
568.83	44563.80
568.99	44163.57
569.15	44222.08
569.32	44088.67
569.48	43887.39
569.64	44222.08
569.81	44900.84
569.97	43978.67
570.13	44105.06
570.30	44210.38
570.46	43847.60
570.62	43786.74
570.78	43643.97
570.95	44128.46
571.11	44348.47
571.27	44027.82
571.43	44189.31
571.60	44526.35
571.76	44369.54
571.92	44350.81
572.09	44605.93
572.25	44243.15
572.41	44587.21
572.57	44156.55
572.74	44521.67
572.90	44531.03
573.06	44353.15
573.22	44477.20
573.38	44449.11
573.55	44320.38
573.71	44828.28
573.87	44708.91
574.03	44329.75
574.20	44254.85
574.36	44406.98
574.52	44540.39
574.68	44524.01
574.84	44842.32
575.01	44563.80
575.17	44676.15
575.33	44100.37
575.49	44519.33
575.65	44584.86
575.82	44942.97
575.98	44432.73
576.14	44966.37
576.30	44509.97
576.46	44327.41
576.62	44381.24
576.79	44570.82
576.95	44128.46
577.11	44287.62
577.27	44257.19
577.43	44488.90
577.59	44428.05
577.75	44524.01
577.92	44222.08
578.08	44437.41
578.24	44659.76
578.40	44767.43
578.56	44446.77
578.72	44383.58
578.88	44769.77
579.04	44378.90
579.21	44435.07
579.37	44126.12
579.53	44612.95
579.69	44299.32
579.85	44704.23
580.01	44648.06
580.17	44870.41
580.33	44301.66
580.49	44552.10
580.65	44231.44
580.82	44720.62
580.98	44463.16
581.14	44390.60
581.30	44774.45
581.46	44767.43
581.62	44533.37
581.78	44907.86
581.94	44928.92
582.10	45008.50
582.26	45041.27
582.42	44844.66
582.58	44587.21
582.74	44896.16
582.90	44781.47
583.06	45160.64
583.22	45137.23
583.38	45081.06
583.54	44556.78
583.70	44760.40
583.86	44526.35
584.02	44116.76
584.18	44844.66
584.34	44605.93
584.50	44779.13
584.66	44687.85
584.82	44261.87
584.98	45291.71
585.14	44751.04
585.30	44472.52
585.46	44919.56
585.62	44472.52
585.78	44624.65
585.94	44425.71
586.10	44718.28
586.26	44868.07
586.42	44554.44
586.58	44737.00
586.74	45043.61
586.90	44191.65
587.06	44327.41
587.22	44690.19
587.38	44133.14
587.54	45062.33
587.70	45265.96
587.86	44980.42
588.02	44802.53
588.18	44992.12
588.34	44678.49
588.49	44500.61
588.65	44507.63
588.81	44594.23
588.97	44516.99
589.13	44575.50
589.29	44524.01
589.45	44797.85
589.61	44954.67
589.77	45109.14
589.93	44727.64
590.08	44926.58
590.24	44999.14
590.40	44828.28
590.56	44954.67
590.72	44872.75
590.88	44680.83
591.04	44722.96
591.20	45195.74
591.35	45343.20
591.51	45015.52
591.67	45001.48
591.83	44858.71
591.99	44725.30
592.15	44753.38
592.31	44739.34
592.46	44713.59
592.62	44912.54
592.78	45357.24
592.94	45041.27
593.10	45071.70
593.26	45191.06
593.41	45174.68
593.57	44868.07
593.73	45326.81
593.89	45315.11
594.05	45237.87
594.20	45036.59
594.36	45074.04
594.52	44856.37
594.68	44966.37
594.84	44992.12
594.99	45565.55
595.15	44769.77
595.31	45581.93
595.47	45406.39
595.62	44669.12
595.78	44989.78
595.94	45160.64
596.10	45720.02
596.25	44858.71
596.41	45387.67
596.57	45031.91
596.73	45071.70
596.88	44952.33
597.04	45277.66
597.20	45102.12
597.36	45422.78
597.51	45291.71
597.67	45659.17
597.83	45333.84
597.99	45324.47
598.14	45247.24
598.30	45177.02
598.46	44711.25
598.61	45485.97
598.77	44858.71
598.93	44769.77
599.09	44982.76
599.24	45956.42
599.40	45364.26
599.56	45193.40
599.71	45514.06
599.87	45413.41
600.03	45315.11
600.18	45092.76
600.34	45191.06
600.50	44762.75
600.65	44980.42
600.81	45551.51
600.97	45371.28
601.12	45272.98
601.28	45230.85
601.44	45453.20
601.59	45574.91
601.75	44725.30
601.91	45118.51
602.06	44533.37
602.22	44851.69
602.37	44882.11
602.53	45186.38
602.69	45586.61
602.84	44961.69
603.00	45041.27
603.16	45038.93
603.31	45116.17
603.47	45291.71
603.62	44744.02
603.78	45256.60
603.94	45209.79
604.09	45069.36
604.25	45291.71
604.40	45036.59
604.56	45179.36
604.71	45088.08
604.87	45130.21
605.03	45418.10
605.18	44994.46
605.34	45151.27
605.49	44994.46
605.65	45195.74
605.80	45455.54
605.96	45078.72
606.12	45481.29
606.27	45319.79
606.43	44657.42
606.58	45188.72
606.74	44912.54
606.89	45052.97
607.05	44982.76
607.20	45069.36
607.36	45195.74
607.51	45123.19
607.67	45256.60
607.82	44945.31
607.98	45010.84
608.13	44985.10
608.29	44732.32
608.44	44837.64
608.60	44318.04
608.75	44715.93
608.91	44507.63
609.06	44715.93
609.22	44964.03
609.37	44596.57
609.53	44690.19
609.68	44924.24
609.84	44844.66
609.99	44987.44
610.15	44479.54
610.30	44233.78
610.46	44617.63
610.61	44715.93
610.76	44608.27
610.92	44439.75
611.07	44872.75
611.23	44573.16
611.38	44741.68
611.54	44294.64
611.69	44655.08
611.84	44254.85
612.00	44095.69
612.15	44406.98
612.31	44479.54
612.46	44406.98
612.62	44786.15
612.77	44325.07
612.92	44399.96
613.08	43887.39
613.23	44404.64
613.39	44362.51
613.54	44023.14
613.69	44615.29
613.85	44376.56
614.00	44524.01
614.15	44355.49
614.31	44575.50
614.46	44788.49
614.62	44367.20
614.77	44254.85
614.92	43971.64
615.08	44158.89
615.23	44196.34
615.38	43936.54
615.54	43639.29
615.69	43824.19
615.84	43761.00
616.00	44177.61
616.15	43885.04
616.30	44072.29
616.46	43714.19
616.61	43281.19
616.76	43709.50
616.92	43835.89
617.07	43723.55
617.22	43868.66
617.37	43807.81
617.53	43639.29
617.68	44144.84
617.83	43707.16
617.99	44072.29
618.14	43688.44
618.29	43805.47
618.45	43255.44
618.60	43257.78
618.75	43351.40
618.90	43920.15
619.06	44032.50
619.21	43838.23
619.36	43540.99
619.51	43402.89
619.67	43330.34
619.82	43290.55
619.97	43641.63
620.12	43213.31
620.28	43269.48
620.43	43295.23
620.58	43358.42
620.73	43370.13
620.89	43187.56
621.04	43320.98
621.19	43152.46
621.34	43318.64
621.49	43166.50
621.65	43005.00
621.80	43367.79
621.95	43033.09
622.10	42822.44
622.25	43012.02
622.41	42899.68
622.56	43049.47
622.71	43021.39
622.86	43206.29
623.01	42906.70
623.16	42899.68
623.32	42667.97
623.47	43299.91
623.62	43075.22
623.77	43012.02
623.92	42705.41
624.07	42550.94
624.23	42880.95
624.38	42841.17
624.53	42583.71
624.68	42714.78
624.83	42761.59
624.98	42557.96
625.13	42560.30
625.29	42801.38
625.44	42525.19
625.59	42438.59
625.74	41628.77
625.89	41638.13
626.04	41928.36
626.19	42288.80
626.34	42466.68
626.49	42529.87
626.65	42777.97
626.80	42752.23
626.95	42440.93
627.10	42188.16
627.25	42249.01
627.40	41633.45
627.55	41621.75
627.70	41649.83
627.85	41621.75
628.00	41954.10
628.15	42281.78
628.30	41918.99
628.45	42061.77
628.60	42316.89
628.76	42178.79
628.91	42225.60
629.06	42223.26
629.21	41710.69
629.36	41350.24
629.51	41771.54
629.66	41921.34
629.81	41535.15
629.96	41883.89
630.11	41668.56
630.26	41951.76
630.41	41799.63
630.56	41708.35
630.71	41776.22
630.86	41406.42
631.01	41244.92
631.16	41680.26
631.31	41380.67
631.46	40694.89
631.61	41460.25
631.76	41383.01
631.91	41343.22
632.06	41383.01
632.21	41174.70
632.36	41865.16
632.51	41392.37
632.66	41134.92
632.81	40488.93
632.96	41207.47
633.10	41233.22
633.25	40896.18
633.40	41085.76
633.55	41319.82
633.70	40959.38
633.85	41144.28
634.00	41036.61
634.15	41106.83
634.30	41017.89
634.45	40828.30
634.60	40680.85
634.75	41174.70
634.90	41060.02
635.05	41081.08
635.19	40779.15
635.34	41216.83
635.49	40893.84
635.64	40748.73
635.79	40032.52
635.94	40282.96
636.09	40886.82
636.24	40526.38
636.39	40353.18
636.53	40271.26
636.68	40407.01
636.83	40657.45
636.98	40397.65
637.13	40416.37
637.28	40289.98
637.43	40566.16
637.57	40493.61
637.72	40638.72
637.87	40329.77
638.02	40470.20
638.17	40175.30
638.32	40009.12
638.46	40252.53
638.61	40500.63
638.76	40147.21
638.91	40072.31
639.06	39639.31
639.20	40086.36
639.35	39999.76
639.50	40194.02
639.65	40350.84
639.80	40409.35
639.94	40086.36
640.09	40016.14
640.24	39646.33
640.39	39814.85
640.54	39793.79
640.68	39920.18
640.83	40046.57
640.98	40093.38
641.13	39676.76
641.27	40086.36
641.42	39800.81
641.57	40095.72
641.72	39669.74
641.86	39363.13
642.01	39531.65
642.16	39365.47
642.31	39072.90
642.45	39484.84
642.60	39555.05
642.75	38857.57
642.90	39665.06
643.04	39225.04
643.19	39126.74
643.34	39634.63
643.48	39550.37
643.63	39014.39
643.78	39459.09
643.93	39012.05
644.07	39000.35
644.22	39379.51
644.37	38808.42
644.51	39248.44
644.66	38888.00
644.81	39105.67
644.95	39079.92
645.10	39239.08
645.25	39105.67
645.39	39297.59
645.54	38815.44
645.69	38878.64
645.83	39103.33
645.98	39012.05
646.13	39278.87
646.27	38698.42
646.42	39058.86
646.57	39152.48
646.71	39030.77
646.86	38618.84
647.00	39253.12
647.15	38785.02
647.30	38792.04
647.44	39063.54
647.59	38955.88
647.74	38642.24
647.88	38527.56
648.03	38293.50
648.17	38618.84
648.32	38696.08
648.47	38433.94
648.61	38410.53
648.76	38850.55
648.90	38398.83
649.05	38988.64
649.20	38686.71
649.34	38794.38
649.49	37963.49
649.63	38256.06
649.78	38485.43
649.92	38565.01
650.07	38574.37
650.21	38323.93
650.36	38211.59
650.51	38045.41
650.65	38864.60
650.80	38756.93
650.94	38328.61
651.09	38272.44
651.23	38466.70
651.38	37996.26
651.52	38284.14
651.67	38242.01
651.81	38064.13
651.96	37947.11
652.10	37778.59
652.25	37830.08
652.39	37809.01
652.54	38005.62
652.68	38195.20
652.83	37888.59
652.97	37816.04
653.12	37881.57
653.26	37633.47
653.41	37413.46
653.55	37256.65
653.70	38005.62
653.84	37855.82
653.99	37888.59
654.13	37551.56
654.27	38014.98
654.42	37230.90
654.56	37598.37
654.71	37663.90
654.85	37584.32
655.00	37640.50
655.14	37413.46
655.29	37247.29
655.43	36844.71
655.57	37046.00
655.72	36971.10
655.86	36755.77
656.01	37127.92
656.15	36807.26
656.30	36891.52
656.44	37148.98
656.58	36769.82
656.73	36634.06
656.87	36624.70
657.01	36673.85
657.16	37069.40
657.30	36804.92
657.45	37146.64
657.59	36811.95
657.73	36650.45
657.88	37029.62
658.02	36584.91
658.16	36503.00
658.31	37177.07
658.45	36996.85
658.60	36910.25
658.74	37008.55
658.88	36400.01
659.03	36329.80
659.17	36503.00
659.31	36559.17
659.46	36643.43
659.60	36421.08
659.74	36353.20
659.89	35864.03
660.03	36114.47
660.17	36404.69
660.32	35910.84
660.46	36156.60
660.60	36313.41
660.74	36425.76
660.89	36182.34
661.03	35969.35
661.17	36030.21
661.32	35306.98
661.46	35632.32
661.60	35693.17
661.74	35917.86
661.89	35559.76
662.03	36016.16
662.17	35487.20
662.31	35573.80
662.46	35835.94
662.60	35316.34
662.74	35564.44
662.88	35384.22
663.03	35447.41
663.17	35360.81
663.31	35297.62
663.45	35908.50
663.60	35445.07
663.74	35463.80
663.88	34803.77
664.02	34897.39
664.17	35159.53
664.31	34930.16
664.45	34703.12
664.59	35084.63
664.73	34965.26
664.88	35108.04
665.02	34408.22
665.16	34714.83
665.30	34469.07
665.44	34866.96
665.59	34099.26
665.73	33811.38
665.87	34518.22
666.01	34103.95
666.15	33991.60
666.29	34043.09
666.44	34288.85
666.58	34183.52
666.72	34015.01
666.86	34398.85
667.00	34693.76
667.14	33869.89
667.28	33544.56
667.43	34012.66
667.57	33851.17
667.71	33617.11
667.85	33369.02
667.99	33528.17
668.13	33558.60
668.27	33397.10
668.41	33970.54
668.56	33343.27
668.70	33259.01
668.84	33184.12
668.98	33266.03
669.12	33331.57
669.26	33156.03
669.40	33081.13
669.54	33354.97
669.68	33289.44
669.82	32783.88
669.96	32914.95
670.10	33041.34
670.25	32973.47
670.39	32987.51
670.53	32645.79
670.67	32287.69
670.81	32573.24
670.95	32730.05
671.09	32793.25
671.23	32725.37
671.37	32666.86
671.51	32524.08
671.65	32339.18
671.79	32229.18
671.93	32339.18
672.07	31857.03
672.21	31786.82
672.35	31716.60
672.49	32023.21
672.63	32297.05
672.77	32072.36
672.91	31782.13
673.05	31674.47
673.19	31723.62
673.33	31330.41
673.47	31704.90
673.61	31248.49
673.75	31182.96
673.89	31094.02
674.03	31049.55
674.17	30958.27
674.31	31161.89
674.45	30855.28
674.59	31154.87
674.73	31166.57
674.87	30918.48
675.01	30972.31
675.15	31122.10
675.29	30801.45
675.43	30866.98
675.56	30813.15
675.70	30328.66
675.84	30363.77
675.98	29551.60
676.12	30352.07
676.26	30047.80
676.40	29888.64
676.54	29677.99
676.68	29457.98
676.82	29181.80
676.96	29806.72
677.10	29067.11
677.23	29181.80
677.37	29542.24
677.51	29280.10
677.65	29223.93
677.79	28725.39
677.93	28973.49
678.07	29015.62
678.21	29130.31
678.34	28795.61
678.48	28919.66
678.62	28685.61
678.76	28549.85
678.90	28245.58
679.04	28360.27
679.18	28158.99
679.31	27772.80
679.45	28217.50
679.59	27782.16
679.73	28013.87
679.87	28135.58
680.00	27924.93
680.14	27494.27
680.28	27316.39
680.42	27623.00
680.56	27644.07
680.70	27281.28
680.83	26916.16
680.97	27278.94
681.11	27236.81
681.25	27129.15
681.39	27094.04
681.52	26998.08
681.66	27274.26
681.80	26635.30
681.94	26686.79
682.07	26909.14
682.21	26590.83
682.35	26277.19
682.49	26221.02
682.62	26054.84
682.76	25809.09
682.90	25844.20
683.04	25598.44
683.17	25898.03
683.31	26171.87
683.45	25804.41
683.59	25577.37
683.72	24755.85
683.86	25312.89
684.00	25130.33
684.13	25450.99
684.27	25111.61
684.41	25010.96
684.55	24987.56
684.68	24978.20
684.82	24746.48
684.96	24776.91
685.09	24613.07
685.23	24690.31
685.37	24786.27
685.50	24273.70
685.64	24297.10
685.78	24512.43
685.91	24030.28
686.05	24166.03
686.19	23573.88
686.32	24027.94
686.46	23885.17
686.60	23332.80
686.73	23424.08
686.87	23264.92
687.01	23740.05
687.14	23131.51
687.28	22803.84
687.42	22881.08
687.55	22675.11
687.69	22754.69
687.82	22813.20
687.96	23271.95
688.10	23082.36
688.23	22857.67
688.37	22424.67
688.50	22059.55
688.64	22239.77
688.78	22429.35
688.91	22244.45
689.05	21965.93
689.18	21781.03
689.32	21771.66
689.46	21970.61
689.59	22412.97
689.73	22429.35
689.86	21879.33
690.00	21462.71
690.13	21872.31
690.27	21783.37
690.41	21621.87
690.54	21216.96
690.68	20971.20
690.81	20760.55
690.95	21081.21
691.08	21029.71
691.22	21046.10
691.35	20905.66
691.49	20814.38
691.62	20973.54
691.76	20898.64
691.89	20746.51
692.03	20556.93
692.16	20409.47
692.30	20503.09
692.43	20301.81
692.57	20095.84
692.70	20135.63
692.84	20343.94
692.97	19913.28
693.11	20142.65
693.24	20105.20
693.38	19531.77
693.51	19585.60
693.65	19232.18
693.78	19751.78
693.92	19431.13
694.05	19197.07
694.19	19110.47
694.32	19302.40
694.45	19082.39
694.59	19115.16
694.72	19051.96
694.86	18593.22
694.99	18691.52
695.13	18380.23
695.26	18438.74
695.39	18176.60
695.53	18354.48
695.66	18457.46
695.80	18394.27
695.93	18115.75
696.07	18082.98
696.20	18228.09
696.33	17980.00
696.47	17694.45
696.60	17806.80
696.73	17898.08
696.87	17797.43
697.00	17767.01
697.14	17783.39
697.27	17448.69
697.40	17774.03
697.54	17661.68
697.67	17224.00
697.80	16996.97
697.94	17123.36
698.07	17366.78
698.21	17034.42
698.34	16889.31
698.47	17184.21
698.61	16634.19
698.74	16812.07
698.87	16767.60
699.01	16673.98
699.14	16177.78
699.27	16229.27
699.40	16049.05
699.54	16217.57
699.67	15592.65
699.80	16004.58
699.94	16189.49
700.07	16114.59
700.20	16088.84
700.34	15499.03
700.47	15712.02
700.60	15782.23
700.73	15866.49
700.87	15733.08
701.00	15527.11
701.13	15304.76
701.26	15386.68
701.40	15480.30
701.53	15517.75
701.66	15307.10
701.79	14817.93
701.93	14918.57
702.06	14958.36
702.19	14829.63
702.32	14913.89
702.46	14602.60
702.59	14773.46
702.72	14932.62
702.85	14614.30
702.99	14906.87
703.12	14927.94
703.25	14384.93
703.38	14384.93
703.51	14576.86
703.65	14462.17
703.78	14361.53
703.91	14033.85
704.04	14003.43
704.17	14012.79
704.31	13547.02
704.44	13654.69
704.57	13373.82
704.70	13446.38
704.83	13537.66
704.96	13951.93
705.10	13741.29
705.23	13916.83
>>>>>End Processed Spectral Data<<<<<
