SpectraSuite Data File
++++++++++++++++++++++++++++++++++++
Date: Fri Oct 25 11:33:34 EDT 2013
User: price-jones
Dark Spectrum Present: No
Reference Spectrum Present: No
Number of Sampled Component Spectra: 1
Spectrometers: USB2+H05261
Integration Time (usec): 100000 (USB2+H05261)
Spectra Averaged: 1 (USB2+H05261)
Boxcar Smoothing: 0 (USB2+H05261)
Correct for Electrical Dark: No (USB2+H05261)
Strobe/Lamp Enabled: No (USB2+H05261)
Correct for Detector Non-linearity: No (USB2+H05261)
Correct for Stray Light: No (USB2+H05261)
Number of Pixels in Processed Spectrum: 2048
>>>>>Begin Processed Spectral Data<<<<<
365.73	269.16
365.92	269.16
366.12	269.16
366.32	168.52
366.52	257.46
366.72	149.79
366.91	177.88
367.11	142.77
367.31	142.77
367.51	173.20
367.70	147.45
367.90	245.76
368.10	184.90
368.30	149.79
368.49	184.90
368.69	215.33
368.89	217.67
369.09	163.84
369.28	245.76
369.48	217.67
369.68	238.73
369.87	194.26
370.07	276.18
370.27	273.84
370.47	358.10
370.66	489.17
370.86	512.58
371.06	517.26
371.25	596.84
371.45	517.26
371.65	568.75
371.84	470.45
372.04	538.32
372.24	514.92
372.44	526.62
372.63	620.24
372.83	552.37
373.03	596.84
373.22	580.45
373.42	610.88
373.62	568.75
373.81	676.41
374.01	615.56
374.21	620.24
374.40	631.94
374.60	664.71
374.79	624.92
374.99	587.47
375.19	624.92
375.38	648.33
375.58	704.50
375.78	627.26
375.97	695.14
376.17	713.86
376.37	685.78
376.56	704.50
376.76	690.46
376.95	741.95
377.15	718.54
377.35	711.52
377.54	744.29
377.74	695.14
377.93	739.61
378.13	678.76
378.33	636.63
378.52	737.27
378.72	713.86
378.91	688.12
379.11	676.41
379.31	674.07
379.50	706.84
379.70	795.78
379.89	716.20
380.09	704.50
380.28	748.97
380.48	716.20
380.68	788.76
380.87	690.46
381.07	795.78
381.26	760.67
381.46	805.14
381.65	798.12
381.85	734.93
382.04	730.25
382.24	751.31
382.43	835.57
382.63	774.72
382.83	812.17
383.02	800.46
383.22	774.72
383.41	739.61
383.61	795.78
383.80	814.51
384.00	868.34
384.19	816.85
384.39	837.91
384.58	814.51
384.78	800.46
384.97	798.12
385.17	784.08
385.36	755.99
385.56	884.72
385.75	870.68
385.95	856.64
386.14	816.85
386.34	891.74
386.53	905.79
386.72	929.19
386.92	849.61
387.11	809.83
387.31	837.91
387.50	919.83
387.70	966.64
387.89	847.27
388.09	851.96
388.28	877.70
388.48	882.38
388.67	917.49
388.86	894.08
389.06	966.64
389.25	924.51
389.45	896.43
389.64	931.53
389.84	912.81
390.03	926.85
390.22	1013.45
390.42	929.19
390.61	912.81
390.81	926.85
391.00	985.37
391.19	1027.50
391.39	983.02
391.58	1095.37
391.78	1013.45
391.97	933.87
392.16	1048.56
392.36	1025.15
392.55	1004.09
392.75	1032.18
392.94	1086.01
393.13	1069.62
393.33	1095.37
393.52	1069.62
393.71	1097.71
393.91	1125.80
394.10	1116.44
394.29	1142.18
394.49	1139.84
394.68	1088.35
394.88	1081.33
395.07	1203.04
395.26	1121.12
395.46	1128.14
395.65	1109.41
395.84	1160.91
396.04	1284.95
396.23	1132.82
396.42	1181.97
396.62	1284.95
396.81	1247.51
397.00	1158.57
397.19	1160.91
397.39	1198.35
397.58	1174.95
397.77	1193.67
397.97	1273.25
398.16	1210.06
398.35	1277.93
398.55	1315.38
398.74	1198.35
398.93	1306.02
399.12	1256.87
399.32	1385.60
399.51	1409.00
399.70	1345.81
399.90	1355.17
400.09	1345.81
400.28	1383.26
400.47	1430.07
400.67	1355.17
400.86	1425.39
401.05	1399.64
401.24	1394.96
401.44	1432.41
401.63	1406.66
401.82	1479.22
402.01	1474.54
402.21	1469.86
402.40	1460.49
402.59	1441.77
402.78	1425.39
402.97	1526.03
403.17	1535.39
403.36	1490.92
403.55	1535.39
403.74	1596.25
403.93	1568.16
404.13	1542.41
404.32	1621.99
404.51	1652.42
404.70	1694.55
404.89	1647.74
405.09	1593.90
405.28	1638.38
405.47	1675.82
405.66	1692.21
405.85	1732.00
406.05	1600.93
406.24	1661.78
406.43	1717.95
406.62	1753.06
406.81	1827.96
407.00	1856.04
407.20	1785.83
407.39	1757.74
407.58	1755.40
407.77	1898.17
407.96	1858.39
408.15	1905.20
408.34	1909.88
408.54	2012.86
408.73	1806.89
408.92	1930.94
409.11	2054.99
409.30	1874.77
409.49	1933.28
409.68	1994.14
409.87	1935.62
410.07	2010.52
410.26	1942.64
410.45	2054.99
410.64	2071.37
410.83	2090.10
411.02	2150.95
411.21	2141.59
411.40	2141.59
411.59	2193.08
411.78	2202.44
411.98	2160.31
412.17	2209.47
412.36	2174.36
412.55	2319.47
412.74	2263.30
412.93	2305.43
413.12	2363.94
413.31	2363.94
413.50	2345.22
413.69	2455.22
413.88	2431.82
414.07	2420.11
414.26	2544.16
414.45	2436.50
414.64	2399.05
414.83	2581.61
415.02	2551.18
415.22	2640.12
415.41	2628.42
415.60	2555.86
415.79	2672.89
415.98	2640.12
416.17	2750.13
416.36	2644.81
416.55	2698.64
416.74	2892.90
416.93	2818.00
417.12	2754.81
417.31	2902.26
417.50	2869.50
417.69	2991.20
417.88	2963.12
418.07	2932.69
418.26	3045.04
418.45	3047.38
418.64	3019.29
418.83	3023.97
419.02	3049.72
419.21	3108.23
419.39	3012.27
419.58	3194.83
419.77	3162.06
419.96	3105.89
420.15	3192.49
420.34	3133.98
420.53	3138.66
420.72	3265.05
420.91	3246.32
421.10	3335.26
421.29	3344.63
421.48	3332.92
421.67	3199.51
421.86	3358.67
422.05	3262.71
422.24	3365.69
422.43	3288.45
422.61	3363.35
422.80	3428.88
422.99	3510.80
423.18	3398.46
423.37	3463.99
423.56	3513.14
423.75	3471.01
423.94	3363.35
424.13	3192.49
424.32	3384.41
424.50	3489.74
424.69	3494.42
424.88	3281.43
425.07	3435.91
425.26	3419.52
425.45	3461.65
425.64	3482.72
425.83	3545.91
426.01	3517.83
426.20	3510.80
426.39	3536.55
426.58	3435.91
426.77	3442.93
426.96	3487.40
427.15	3520.17
427.33	3595.06
427.52	3478.04
427.71	3660.60
427.90	3557.61
428.09	3592.72
428.28	3609.11
428.46	3695.71
428.65	3810.39
428.84	3779.97
429.03	3798.69
429.22	3698.05
429.40	3836.14
429.59	3702.73
429.78	3630.17
429.97	3604.42
430.16	3772.94
430.34	3829.12
430.53	3887.63
430.72	3845.50
430.91	3985.93
431.10	3822.09
431.28	3880.61
431.47	4007.00
431.66	3999.98
431.85	3992.95
432.03	4035.08
432.22	4175.52
432.41	4088.92
432.60	4065.51
432.79	4100.62
432.97	4065.51
433.16	4222.33
433.35	4060.83
433.54	4161.47
433.72	4346.37
433.91	4149.77
434.10	4166.15
434.28	4159.13
434.47	4217.65
434.66	4273.82
434.85	4449.36
435.03	4367.44
435.22	4395.53
435.41	4400.21
435.59	4421.27
435.78	4360.42
435.97	4475.10
436.16	4348.72
436.34	4325.31
436.53	4334.67
436.72	4500.85
436.90	4386.16
437.09	4414.25
437.28	4428.29
437.46	4692.77
437.65	4521.92
437.84	4617.88
438.02	4456.38
438.21	4652.98
438.40	4540.64
438.58	4713.84
438.77	4844.91
438.96	4671.71
439.14	4734.90
439.33	4833.21
439.52	4840.23
439.70	4992.36
439.89	4992.36
440.08	5203.01
440.26	4994.70
440.45	5090.67
440.63	5060.24
440.82	5109.39
441.01	4992.36
441.19	5039.17
441.38	5366.85
441.57	5282.59
441.75	5275.57
441.94	5341.10
442.12	5310.68
442.31	5547.07
442.50	5327.06
442.68	5303.65
442.87	5434.72
443.05	5516.64
443.24	5441.75
443.43	5425.36
443.61	5589.20
443.80	5729.63
443.98	5500.26
444.17	5317.70
444.35	5514.30
444.54	5771.76
444.73	5643.03
444.91	5540.05
445.10	5729.63
445.28	5628.99
445.47	5633.67
445.65	5734.31
445.84	5750.70
446.02	5877.09
446.21	5767.08
446.39	5675.80
446.58	5802.19
446.77	5802.19
446.95	5551.75
447.14	5617.29
447.32	5666.44
447.51	5717.93
447.69	5916.87
447.88	5799.85
448.06	5738.99
448.25	5736.65
448.43	5839.64
448.62	5778.78
448.80	5753.04
448.99	5982.41
449.17	5865.38
449.36	5846.66
449.54	6087.73
449.73	6118.16
449.91	6153.27
450.10	6071.35
450.28	6193.06
450.46	6157.95
450.65	6099.44
450.83	6155.61
451.02	6094.76
451.20	6209.44
451.39	6061.99
451.57	6155.61
451.76	6071.35
451.94	6347.53
452.13	6380.30
452.31	6289.02
452.49	6129.86
452.68	6277.32
452.86	6153.27
453.05	6314.77
453.23	6431.79
453.42	6174.33
453.60	6459.88
453.78	6455.20
453.97	6335.83
454.15	6319.45
454.34	6359.24
454.52	6595.63
454.70	6490.31
454.89	6663.51
455.07	6670.53
455.26	6518.39
455.44	6525.41
455.62	6623.72
455.81	6635.42
455.99	6623.72
456.17	6899.90
456.36	6853.09
456.54	6867.13
456.73	6799.26
456.91	6974.80
457.09	6918.62
457.28	7056.72
457.46	6911.60
457.64	7155.02
457.83	7030.97
458.01	6970.12
458.19	7126.93
458.38	7255.66
458.56	7166.72
458.74	7138.63
458.93	7269.70
459.11	7084.80
459.29	7255.66
459.48	7335.24
459.66	7414.82
459.84	7342.26
460.03	7552.91
460.21	7300.13
460.39	7272.04
460.57	7438.22
460.76	7559.93
460.94	7517.80
461.12	7529.50
461.31	7531.84
461.49	7695.68
461.67	7506.10
461.85	7616.10
462.04	7585.68
462.22	8002.29
462.40	7847.82
462.59	7719.09
462.77	7798.66
462.95	7688.66
463.13	7672.28
463.32	7962.50
463.50	7803.35
463.68	7903.99
463.86	7962.50
464.05	7658.23
464.23	7882.92
464.41	8091.23
464.59	7798.66
464.78	8084.21
464.96	8128.68
465.14	7960.16
465.32	8093.57
465.50	7936.76
465.69	8098.25
465.87	8056.12
466.05	8032.72
466.23	8198.90
466.41	8114.64
466.60	8229.32
466.78	8039.74
466.96	8124.00
467.14	8259.75
467.32	8386.14
467.51	8271.45
467.69	8271.45
467.87	8287.84
468.05	8482.10
468.23	8187.19
468.41	8430.61
468.60	8519.55
468.78	8671.68
468.96	8390.82
469.14	8545.30
469.32	8734.88
469.50	8414.23
469.69	8795.73
469.87	8566.36
470.05	8669.34
470.23	8849.57
470.41	8875.31
470.59	8938.51
470.77	8725.52
470.95	8779.35
471.14	9064.89
471.32	8767.65
471.50	9125.75
471.68	8968.93
471.86	8840.20
472.04	9132.77
472.22	9348.10
472.40	9268.52
472.58	9277.88
472.77	9383.21
472.95	9404.27
473.13	9809.19
473.31	9359.80
473.49	9434.70
473.67	9275.54
473.85	9432.36
474.03	9701.52
474.21	9495.55
474.39	9914.51
474.57	9790.46
474.75	9628.96
474.93	9991.75
475.12	9860.68
475.30	9919.19
475.48	10052.60
475.66	9994.09
475.84	9977.70
476.02	10291.34
476.20	10436.45
476.38	10228.14
476.56	10595.61
476.74	10490.28
476.92	10523.05
477.10	10485.60
477.28	10665.82
477.46	10611.99
477.64	10771.15
477.82	10974.77
478.00	11180.74
478.18	11201.80
478.36	11229.89
478.54	11360.96
478.72	11302.45
478.90	11515.44
479.08	11651.19
479.26	11747.15
479.44	11658.21
479.62	11833.75
479.80	11580.97
479.98	11836.09
480.16	12081.85
480.34	12168.45
480.52	12095.89
480.70	12400.16
480.88	12025.67
481.06	12336.96
481.24	12381.43
481.41	12629.53
481.59	12776.98
481.77	12664.64
481.95	12769.96
482.13	12917.42
482.31	12741.88
482.49	13434.68
482.67	13277.86
482.85	13469.78
483.03	13736.60
483.21	13811.50
483.39	13689.79
483.57	13926.19
483.74	13818.52
483.92	13652.34
484.10	13921.51
484.28	14452.81
484.46	14506.64
484.64	14717.29
484.82	14326.42
485.00	14607.28
485.18	15183.06
485.35	15136.24
485.53	14930.28
485.71	15201.78
485.89	15475.62
486.07	15311.78
486.25	15564.56
486.43	15473.28
486.61	15625.42
486.78	15922.66
486.96	15824.36
487.14	16130.97
487.32	16266.72
487.50	16116.93
487.68	16526.52
487.85	16575.67
488.03	16702.06
488.21	16776.96
488.39	16877.60
488.57	17282.52
488.75	17135.06
488.92	17607.85
489.10	17436.99
489.28	17483.80
489.46	17682.75
489.64	17855.95
489.81	18141.49
489.99	18019.78
490.17	18221.07
490.35	18352.14
490.53	18623.64
490.70	18768.76
490.88	18307.67
491.06	18775.78
491.24	18635.35
491.41	19211.12
491.59	19096.43
491.77	19300.06
491.95	19398.36
492.13	19735.40
492.30	19840.72
492.48	19775.19
492.66	19585.60
492.84	19985.83
493.01	19946.05
493.19	20002.22
493.37	20453.94
493.54	20350.96
493.72	20774.60
493.90	20659.91
494.08	21081.21
494.25	20786.30
494.43	20718.42
494.61	21228.66
494.79	21158.44
494.96	21638.25
495.14	21439.31
495.32	21563.36
495.49	21858.26
495.67	21514.20
495.85	22352.12
496.02	22216.36
496.20	22546.38
496.38	22005.72
496.55	22331.05
496.73	22963.00
496.91	22747.67
497.09	22644.68
497.26	22649.36
497.44	22822.56
497.62	22981.72
497.79	23618.35
497.97	23538.77
498.14	23779.84
498.32	23733.03
498.50	23960.06
498.67	23924.96
498.85	23688.56
499.03	24009.22
499.20	23985.81
499.38	24163.69
499.56	24367.32
499.73	24472.64
499.91	24259.65
500.08	24706.70
500.26	24538.18
500.44	24790.95
500.61	24575.62
500.79	24683.29
500.97	25340.98
501.14	25633.55
501.32	25242.68
501.49	25282.47
501.67	25387.79
501.84	25624.18
502.02	25408.86
502.20	25619.50
502.37	25773.98
502.55	25802.07
502.72	25907.39
502.90	26050.16
503.07	26111.02
503.25	26176.55
503.43	25979.95
503.60	26087.61
503.78	26412.95
503.95	26522.95
504.13	26450.39
504.30	26867.01
504.48	26478.48
504.65	26824.88
504.83	27019.14
505.01	27047.23
505.18	27124.47
505.36	27349.16
505.53	27225.11
505.71	27030.85
505.88	27599.60
506.06	27257.88
506.23	27655.77
506.41	27536.40
506.58	27950.68
506.76	28084.09
506.93	28109.83
507.11	27988.13
507.28	27974.08
507.46	28098.13
507.63	28236.22
507.81	28575.60
507.98	28371.97
508.16	28280.69
508.33	28477.30
508.50	28811.99
508.68	28353.25
508.85	29027.32
509.03	28933.70
509.20	28528.79
509.38	29088.18
509.55	29450.96
509.73	29158.39
509.90	29383.09
510.08	29406.49
510.25	29752.89
510.42	29617.14
510.60	29670.97
510.77	30054.82
510.95	30075.88
511.12	29773.95
511.30	29675.65
511.47	29888.64
511.64	30345.05
511.82	29926.09
511.99	30136.74
512.17	30735.92
512.34	30560.37
512.51	30904.43
512.69	31133.81
512.86	30962.95
513.04	31302.32
513.21	31023.80
513.38	30998.06
513.56	30888.05
513.73	30848.26
513.90	31145.51
514.08	31187.64
514.25	31379.56
514.43	31424.03
514.60	31529.36
514.77	31344.45
514.95	31761.07
515.12	31386.58
515.29	31639.36
515.47	32212.79
515.64	32217.47
515.81	31981.08
515.99	31775.11
516.16	32540.47
516.33	32147.26
516.51	32238.54
516.68	32264.28
516.85	32257.26
517.03	32842.40
517.20	32514.72
517.37	32245.56
517.54	33163.05
517.72	32975.81
517.89	32706.65
518.06	33645.20
518.24	32929.00
518.41	32954.74
518.58	33195.82
518.75	33165.39
518.93	33453.28
519.10	33141.99
519.27	33399.44
519.45	33394.76
519.62	33696.69
519.79	33916.70
519.96	33769.25
520.14	33771.59
520.31	33745.84
520.48	34134.37
520.65	33961.17
520.83	34464.39
521.00	34031.39
521.17	34082.88
521.34	34558.01
521.52	34766.32
521.69	35452.09
521.86	34415.24
522.03	34721.85
522.20	34991.01
522.38	35168.89
522.55	34700.78
522.72	34983.99
522.89	35241.45
523.07	35281.24
523.24	35154.85
523.41	35241.45
523.58	34888.03
523.75	35571.46
523.92	35302.30
524.10	35758.70
524.27	35367.84
524.44	35402.94
524.61	35709.55
524.78	36182.34
524.96	35824.24
525.13	35892.12
525.30	36353.20
525.47	36196.38
525.64	36058.29
525.81	36177.66
525.98	36109.78
526.16	36458.52
526.33	36254.90
526.50	36989.83
526.67	36280.64
526.84	36863.44
527.01	36495.97
527.18	36809.61
527.36	37209.84
527.53	37123.24
527.70	37258.99
527.87	36968.76
528.04	36732.37
528.21	36503.00
528.38	36863.44
528.55	37497.72
528.72	36914.93
528.89	37127.92
529.07	37261.33
529.24	37003.87
529.41	37247.29
529.58	37500.06
529.75	37102.17
529.92	37483.68
530.09	37731.78
530.26	37904.98
530.43	37801.99
530.60	37706.03
530.77	37940.08
530.94	37696.67
531.11	37897.95
531.28	38014.98
531.46	38094.56
531.63	37935.40
531.80	38213.93
531.97	38094.56
532.14	38422.23
532.31	38295.85
532.48	38560.33
532.65	38480.75
532.82	38340.32
532.99	38586.07
533.16	39007.37
533.33	38625.86
533.50	38738.21
533.67	38866.94
533.84	39215.68
534.01	38803.74
534.18	38892.68
534.35	39353.77
534.52	38792.04
534.69	39218.02
534.86	39552.71
535.03	39112.69
535.20	39189.93
535.37	39269.51
535.54	39707.19
535.71	38918.43
535.88	39342.06
536.05	39667.40
536.22	39510.58
536.38	40034.86
536.55	39416.96
536.72	39613.57
536.89	39115.03
537.06	40030.18
537.23	40165.93
537.40	39433.35
537.57	39955.29
537.74	39817.19
537.91	40114.44
538.08	40451.48
538.25	39711.87
538.42	40418.71
538.59	40622.34
538.75	40280.62
538.92	40664.47
539.09	40378.92
539.26	40587.23
539.43	40734.68
539.60	40737.02
539.77	40741.71
539.94	40868.09
540.11	40641.06
540.28	40568.51
540.44	40617.66
540.61	40395.31
540.78	40762.77
540.95	41001.50
541.12	40367.22
541.29	40889.16
541.46	41317.48
541.62	41001.50
541.79	41153.64
541.96	40950.01
542.13	40921.93
542.30	41123.21
542.47	41219.17
542.63	41429.82
542.80	41361.95
542.97	41804.31
543.14	41872.18
543.31	41523.44
543.48	41783.24
543.64	42195.18
543.81	42401.14
543.98	41816.01
544.15	41635.79
544.32	42450.30
544.48	42419.87
544.65	42220.92
544.82	42417.53
544.99	42057.09
545.16	42356.67
545.32	42246.67
545.49	42438.59
545.66	42712.44
545.83	42567.32
546.00	42698.39
546.16	42682.01
546.33	42553.28
546.50	42288.80
546.67	43035.43
546.83	42220.92
547.00	42347.31
547.17	42359.02
547.34	42206.88
547.50	42831.80
547.67	43269.48
547.84	42630.52
548.00	43246.08
548.17	43250.76
548.34	43470.77
548.51	43374.81
548.67	43159.48
548.84	43323.32
549.01	42885.64
549.18	43283.53
549.34	43611.20
549.51	43732.91
549.68	43461.41
549.84	43241.40
550.01	43405.23
550.18	43285.87
550.34	43737.59
550.51	44114.42
550.68	43662.69
550.84	43318.64
551.01	44002.07
551.18	43732.91
551.34	43768.02
551.51	43885.04
551.68	43828.87
551.84	43878.02
552.01	43894.41
552.18	43978.67
552.34	43927.17
552.51	44524.01
552.68	43906.11
552.84	43831.21
553.01	44219.74
553.18	44109.74
553.34	43995.05
553.51	44423.37
553.67	44374.22
553.84	44296.98
554.01	44472.52
554.17	44472.52
554.34	44418.69
554.51	44348.47
554.67	44942.97
554.84	44346.13
555.00	44484.22
555.17	44582.52
555.33	44676.15
555.50	44896.16
555.67	44411.67
555.83	44638.70
556.00	44914.88
556.16	45434.48
556.33	45069.36
556.50	44734.66
556.66	44416.35
556.83	44825.94
556.99	45132.55
557.16	45130.21
557.32	44830.62
557.49	45162.98
557.65	45057.65
557.82	45212.13
557.98	44809.56
558.15	45202.77
558.32	45287.03
558.48	45092.76
558.65	45078.72
558.81	45359.58
558.98	45305.75
559.14	45249.58
559.31	45319.79
559.47	45354.90
559.64	45467.25
559.80	45319.79
559.97	45741.09
560.13	45397.03
560.30	45406.39
560.46	45661.51
560.63	45670.87
560.79	45680.24
560.96	45977.48
561.12	45925.99
561.29	45715.34
561.45	45787.90
561.61	45418.10
561.78	45865.14
561.94	45198.09
562.11	45820.67
562.27	45961.10
562.44	45436.82
562.60	45666.19
562.77	45827.69
562.93	45832.37
563.10	46080.47
563.26	46124.94
563.42	46258.35
563.59	46021.95
563.75	45598.32
563.92	46150.68
564.08	46146.00
564.24	46190.47
564.41	46024.29
564.57	45923.65
564.74	46117.92
564.90	45865.14
565.07	46241.96
565.23	45963.44
565.39	45921.31
565.56	46337.93
565.72	45904.93
565.88	46066.42
566.05	46216.22
566.21	46506.44
566.38	46375.37
566.54	46405.80
566.70	46447.93
566.87	46333.24
567.03	46476.02
567.19	46415.16
567.36	46443.25
567.52	46188.13
567.68	46597.73
567.85	46862.21
568.01	46885.61
568.17	46230.26
568.34	46522.83
568.50	46836.46
568.66	45823.01
568.83	46749.86
568.99	46607.09
569.15	46490.06
569.32	46122.60
569.48	46260.69
569.64	46817.74
569.81	46766.24
569.97	46944.12
570.13	46763.90
570.30	46380.06
570.46	46902.00
570.62	46356.65
570.78	46878.59
570.95	46604.75
571.11	46726.46
571.27	46447.93
571.43	46859.87
571.60	47084.56
571.76	46649.22
571.92	46454.95
572.09	46529.85
572.25	46632.83
572.41	46845.82
572.57	46707.73
572.74	47019.02
572.90	46571.98
573.06	46988.60
573.22	47026.04
573.38	46824.76
573.55	46621.13
573.71	47281.16
573.87	47210.95
574.03	46871.57
574.20	47194.56
574.36	47166.48
574.52	47021.36
574.68	46583.68
574.84	46906.68
575.01	47271.80
575.17	47257.76
575.33	47243.71
575.49	46696.03
575.65	47292.86
575.82	47159.45
575.98	46960.51
576.14	47536.28
576.30	47550.32
576.46	46712.41
576.62	47070.51
576.79	47290.52
576.95	46810.71
577.11	46784.97
577.27	47021.36
577.43	46960.51
577.59	47386.49
577.75	47042.43
577.92	46635.17
578.08	47253.08
578.24	46799.01
578.40	47538.62
578.56	47012.00
578.72	47126.69
578.88	47557.35
579.04	47463.72
579.21	46902.00
579.37	47187.54
579.53	47168.82
579.69	47105.62
579.85	46887.95
580.01	47143.07
580.17	47332.65
580.33	46965.19
580.49	46958.17
580.65	47276.48
580.82	47154.77
580.98	46721.77
581.14	46967.53
581.30	47388.83
581.46	47611.18
581.62	46902.00
581.78	46920.72
581.94	47332.65
582.10	47257.76
582.26	47522.24
582.42	47285.84
582.58	47243.71
582.74	47224.99
582.90	47114.98
583.06	47632.24
583.22	47283.50
583.38	47810.12
583.54	47222.65
583.70	47416.91
583.86	47334.99
584.02	46770.93
584.18	47599.47
584.34	47657.99
584.50	47557.35
584.66	47679.05
584.82	47632.24
584.98	47571.39
585.14	47014.34
585.30	46705.39
585.46	47592.45
585.62	47210.95
585.78	47480.11
585.94	46913.70
586.10	47386.49
586.26	47395.85
586.42	46967.53
586.58	47489.47
586.74	47339.68
586.90	46976.89
587.06	47597.13
587.22	47185.20
587.38	47374.78
587.54	47693.10
587.70	47966.94
587.86	47777.36
588.02	47674.37
588.18	47489.47
588.34	47395.85
588.49	47508.19
588.65	47388.83
588.81	47704.80
588.97	47847.57
589.13	47466.06
589.29	47456.70
589.45	47648.63
589.61	47695.44
589.77	47597.13
589.93	47707.14
590.08	47487.13
590.24	47770.33
590.40	48318.02
590.56	48034.81
590.72	47714.16
590.88	47995.03
591.04	47903.74
591.20	47913.11
591.35	47908.43
591.51	48704.21
591.67	48044.18
591.83	47887.36
591.99	47973.96
592.15	47700.12
592.31	47800.76
592.46	47718.84
592.62	47812.46
592.78	48149.50
592.94	47870.98
593.10	48381.21
593.26	48282.91
593.41	48112.05
593.57	48133.12
593.73	48086.31
593.89	48732.29
594.05	48023.11
594.20	48069.92
594.36	48542.71
594.52	48112.05
594.68	47662.67
594.84	48032.47
594.99	48261.85
595.15	48121.41
595.31	48060.56
595.47	47863.96
595.62	48397.60
595.78	47899.06
595.94	48261.85
596.10	48142.48
596.25	48301.64
596.41	47943.53
596.57	47665.01
596.73	48512.28
596.88	48367.17
597.04	48156.52
597.20	48561.44
597.36	48107.37
597.51	48292.27
597.67	48041.84
597.83	48126.10
597.99	48243.12
598.14	48329.72
598.30	48006.73
598.46	47990.34
598.61	48449.09
598.77	48151.84
598.93	48051.20
599.09	48058.22
599.24	48493.56
599.40	48437.39
599.56	48416.32
599.71	48851.66
599.87	48776.76
600.03	48605.91
600.18	47934.17
600.34	48224.40
600.50	48521.65
600.65	48210.35
600.81	48402.28
600.97	48470.15
601.12	48566.12
601.28	48191.63
601.44	48336.74
601.59	48451.43
601.75	48495.90
601.91	48406.96
602.06	48210.35
602.22	48657.40
602.37	48224.40
602.53	48325.04
602.69	48626.97
602.84	48039.50
603.00	48428.02
603.16	47772.67
603.31	48243.12
603.47	48692.50
603.62	48280.57
603.78	47894.38
603.94	48264.19
604.09	48542.71
604.25	48112.05
604.40	47723.52
604.56	47971.62
604.71	48685.48
604.87	48137.80
605.03	48072.26
605.18	47854.59
605.34	48685.48
605.49	48259.51
605.65	48388.24
605.80	48273.55
605.96	48226.74
606.12	48334.40
606.27	48362.49
606.43	48083.97
606.58	48545.05
606.74	48474.84
606.89	48154.18
607.05	48383.55
607.20	48362.49
607.36	48037.16
607.51	48278.23
607.67	47887.36
607.82	48121.41
607.98	47973.96
608.13	48465.47
608.29	47763.31
608.44	48477.18
608.60	48133.12
608.75	48126.10
608.91	48030.13
609.06	47749.27
609.22	48203.33
609.37	48219.72
609.53	48257.17
609.68	47997.37
609.84	47498.83
609.99	47442.66
610.15	48299.30
610.30	47856.93
610.46	47756.29
610.61	48102.69
610.76	48252.48
610.92	48053.54
611.07	47564.37
611.23	48013.75
611.38	47800.76
611.54	47810.12
611.69	47447.34
611.84	48062.90
612.00	47959.92
612.15	48168.22
612.31	48095.67
612.46	47887.36
612.62	47814.80
612.77	47700.12
612.92	47878.00
613.08	47917.79
613.23	47817.14
613.39	47672.03
613.54	47639.26
613.69	47856.93
613.85	47327.97
614.00	47679.05
614.15	47929.49
614.31	47599.47
614.46	47636.92
614.62	47334.99
614.77	47363.08
614.92	47409.89
615.08	47475.43
615.23	47798.42
615.38	47775.02
615.54	47728.20
615.69	47819.49
615.84	47643.94
616.00	47906.08
616.15	47688.42
616.30	47510.53
616.46	47819.49
616.61	47828.85
616.76	47753.95
616.92	47468.40
617.07	47880.34
617.22	47224.99
617.37	46719.43
617.53	47428.62
617.68	47423.93
617.83	47100.94
617.99	47650.97
618.14	47665.01
618.29	47023.70
618.45	47325.63
618.60	46857.52
618.75	46574.32
618.90	47147.75
619.06	47091.58
619.21	47114.98
619.36	47196.90
619.51	46916.04
619.67	46616.45
619.82	46820.08
619.97	47213.29
620.12	47349.04
620.28	46944.12
620.43	47402.87
620.58	47463.72
620.73	47463.72
620.89	46995.62
621.04	47079.88
621.19	47122.01
621.34	46623.47
621.49	46780.29
621.65	46925.40
621.80	46930.08
621.95	46663.26
622.10	46841.14
622.25	46808.37
622.41	46513.47
622.56	46604.75
622.71	46892.63
622.86	46902.00
623.01	46937.10
623.16	46897.31
623.32	46721.77
623.47	46834.12
623.62	46452.61
623.77	46663.26
623.92	46251.33
624.07	46635.17
624.23	46808.37
624.38	46419.84
624.53	46614.11
624.68	46241.96
624.83	46300.48
624.98	46351.97
625.13	46080.47
625.29	46075.79
625.44	46841.14
625.59	46190.47
625.74	46131.96
625.89	45933.01
626.04	46300.48
626.19	46426.87
626.34	46082.81
626.49	45918.97
626.65	45947.06
626.80	45759.81
626.95	45918.97
627.10	45579.59
627.25	45909.61
627.40	45963.44
627.55	45844.07
627.70	45930.67
627.85	46309.84
628.00	45858.12
628.15	46099.19
628.30	45808.96
628.45	45420.44
628.60	45584.27
628.76	45572.57
628.91	45865.14
629.06	45600.66
629.21	45170.00
629.36	45450.86
629.51	46176.43
629.66	46021.95
629.81	45502.35
629.96	45734.07
630.11	45200.43
630.26	45542.14
630.41	45240.21
630.56	45336.18
630.71	45677.90
630.86	45567.89
631.01	45134.89
631.16	45888.54
631.31	45003.82
631.46	45200.43
631.61	45956.42
631.76	45361.92
631.91	45542.14
632.06	45434.48
632.21	45481.29
632.36	45338.52
632.51	44917.22
632.66	45240.21
632.81	45017.86
632.96	45287.03
633.10	44706.57
633.25	45301.07
633.40	45067.02
633.55	45298.73
633.70	45186.38
633.85	44891.48
634.00	44825.94
634.15	44552.10
634.30	44926.58
634.45	44533.37
634.60	44821.26
634.75	44886.79
634.90	44643.38
635.05	45148.93
635.19	44774.45
635.34	45078.72
635.49	44479.54
635.64	44877.43
635.79	44814.24
635.94	44868.07
636.09	44760.40
636.24	44842.32
636.39	44561.46
636.53	44664.44
636.68	44545.08
636.83	44397.62
636.98	44027.82
637.13	44406.98
637.28	44198.68
637.43	44411.67
637.57	44493.58
637.72	44254.85
637.87	44554.44
638.02	44201.02
638.17	44509.97
638.32	43866.32
638.46	44222.08
638.61	44210.38
638.76	43906.11
638.91	44137.82
639.06	43718.87
639.20	43768.02
639.35	44034.84
639.50	43688.44
639.65	43901.43
639.80	44032.50
639.94	44362.51
640.09	44112.08
640.24	44350.81
640.39	43683.76
640.54	43365.45
640.68	44184.63
640.83	43866.32
640.98	44069.95
641.13	43622.90
641.27	44023.14
641.42	43913.13
641.57	43936.54
641.72	43658.01
641.86	43578.43
642.01	43508.22
642.16	43391.19
642.31	43435.66
642.45	43440.34
642.60	42873.93
642.75	43594.82
642.90	43761.00
643.04	43405.23
643.19	43482.47
643.34	43468.43
643.48	42667.97
643.63	43400.55
643.78	43122.03
643.93	43573.75
644.07	43274.16
644.22	42717.12
644.37	43049.47
644.51	43377.15
644.66	43302.25
644.81	43250.76
644.95	43217.99
645.10	42934.79
645.25	42728.82
645.39	43255.44
645.54	42972.24
645.69	42609.45
645.83	42717.12
645.98	42607.11
646.13	42740.52
646.27	42958.19
646.42	42717.12
646.57	42696.05
646.71	42670.31
646.86	42789.67
647.00	42810.74
647.15	42934.79
647.30	42808.40
647.44	42857.55
647.59	42700.73
647.74	42387.10
647.88	42801.38
648.03	42857.55
648.17	42944.15
648.32	42485.40
648.47	43178.20
648.61	42359.02
648.76	42717.12
648.90	42651.58
649.05	42445.62
649.20	42377.74
649.34	42572.00
649.49	42686.69
649.63	42459.66
649.78	42691.37
649.92	42288.80
650.07	42904.36
650.21	42518.17
650.36	42724.14
650.51	42471.36
650.65	42586.05
650.80	42265.39
650.94	42328.59
651.09	42527.53
651.23	42113.26
651.38	42019.64
651.52	41680.26
651.67	41998.57
651.81	42291.14
651.96	41722.39
652.10	41668.56
652.25	41448.55
652.39	42108.58
652.54	42281.78
652.68	41832.39
652.83	41762.18
652.97	42403.49
653.12	41619.41
653.26	41834.74
653.41	41605.36
653.55	41722.39
653.70	42373.06
653.84	41614.72
653.99	42293.48
654.13	41876.86
654.27	41717.71
654.42	41542.17
654.56	41511.74
654.71	41888.57
654.85	41996.23
655.00	41654.51
655.14	41516.42
655.29	42047.72
655.43	41755.16
655.57	41261.30
655.72	40971.08
655.86	41275.35
656.01	41390.03
656.15	41088.10
656.30	41083.42
656.44	41069.38
656.58	41251.94
656.73	41177.04
656.87	41198.11
657.01	40718.30
657.16	41195.77
657.30	41053.00
657.45	41053.00
657.59	41048.32
657.73	40730.00
657.88	40954.69
658.02	40706.60
658.16	40973.42
658.31	41020.23
658.45	41067.04
658.60	40898.52
658.74	40730.00
658.88	41202.79
659.03	40889.16
659.17	40538.08
659.31	40327.43
659.46	40350.84
659.60	40722.98
659.74	40465.52
659.89	40233.81
660.03	39805.49
660.17	40062.95
660.32	40121.46
660.46	39899.11
660.60	39845.28
660.74	39833.58
660.89	40196.36
661.03	39922.52
661.17	39744.64
661.32	39351.43
661.46	39789.11
661.60	39519.95
661.74	39707.19
661.89	39627.61
662.03	39901.45
662.17	39461.43
662.31	39346.75
662.46	39321.00
662.60	39442.71
662.74	38738.21
662.88	38974.60
663.03	38955.88
663.17	38632.88
663.31	39026.09
663.45	39058.86
663.60	39049.50
663.74	38843.53
663.88	38951.20
664.02	38773.31
664.17	39447.39
664.31	38848.21
664.45	38213.93
664.59	38663.31
664.73	38124.99
664.88	38515.86
665.02	38188.18
665.16	38637.56
665.30	38583.73
665.44	38497.13
665.59	38333.29
665.73	38274.78
665.87	38195.20
666.01	38019.66
666.15	37858.17
666.29	38363.72
666.44	38586.07
666.58	37806.67
666.72	38206.90
666.86	37874.55
667.00	37301.12
667.14	37699.01
667.28	37823.06
667.43	37469.64
667.57	37493.04
667.71	38050.09
667.85	37500.06
667.99	37544.53
668.13	37212.18
668.27	37151.32
668.41	37120.90
668.56	36407.03
668.70	36692.58
668.84	36575.55
668.98	36800.24
669.12	36933.65
669.26	37247.29
669.40	36584.91
669.54	36474.91
669.68	36980.46
669.82	36694.92
669.96	36362.56
670.10	36348.52
670.25	36126.17
670.39	36055.95
670.53	36451.50
670.67	36119.15
670.81	36252.56
670.95	36196.38
671.09	35924.88
671.23	35952.97
671.37	36095.74
671.51	35681.47
671.65	35976.37
671.79	35597.21
671.93	35629.98
672.07	35686.15
672.21	35770.41
672.35	35276.55
672.49	35559.76
672.63	35093.99
672.77	34927.81
672.91	35124.42
673.05	35159.53
673.19	34873.98
673.33	34515.88
673.47	34827.17
673.61	34469.07
673.75	34558.01
673.89	34656.31
674.03	34279.49
674.17	34139.05
674.31	34115.65
674.45	33858.19
674.59	33832.44
674.73	34155.44
674.87	33858.19
675.01	33558.60
675.15	33919.04
675.29	33188.80
675.43	33684.99
675.56	33443.91
675.70	33256.67
675.84	33605.41
675.98	32458.55
676.12	33530.51
676.26	33378.38
676.40	32861.12
676.54	32800.27
676.68	32556.85
676.82	32217.47
676.96	32767.50
677.10	33095.18
677.23	32542.81
677.37	32437.48
677.51	32505.36
677.65	31875.76
677.79	31873.42
677.93	32109.81
678.07	32505.36
678.21	31634.68
678.34	31407.65
678.48	31452.12
678.62	31241.47
678.76	31515.31
678.90	31370.20
679.04	31419.35
679.18	31639.36
679.31	30897.41
679.45	30588.46
679.59	30792.09
679.73	30960.61
679.87	30515.90
680.00	30920.82
680.14	30120.35
680.28	30307.60
680.42	30417.60
680.56	30221.00
680.70	30326.32
680.83	29898.00
680.97	29933.11
681.11	29635.86
681.25	29596.07
681.39	29441.60
681.52	29589.05
681.66	29230.95
681.80	28732.42
681.94	28861.15
682.07	28858.81
682.21	28570.92
682.35	28531.13
682.49	28753.48
682.62	28725.39
682.76	28601.35
682.90	28437.51
683.04	28203.46
683.17	28353.25
683.31	28086.43
683.45	28224.52
683.59	28112.17
683.72	27922.59
683.86	27590.24
684.00	27658.11
684.13	27938.97
684.27	27129.15
684.41	27295.33
684.55	27241.50
684.68	26977.01
684.82	26941.91
684.96	27026.17
685.09	27140.85
685.23	27084.68
685.37	27250.86
685.50	27473.21
685.64	26623.59
685.78	26544.02
685.91	26335.71
686.05	25972.92
686.19	25759.94
686.32	26040.80
686.46	25528.22
686.60	25312.89
686.73	25528.22
686.87	25752.91
687.01	25832.49
687.14	25446.30
687.28	25415.88
687.42	25495.46
687.55	25448.64
687.69	25312.89
687.82	25109.27
687.96	25078.84
688.10	25230.98
688.23	24886.92
688.37	25034.37
688.50	25055.43
688.64	24762.87
688.78	24680.95
688.91	24435.19
689.05	24266.67
689.18	24102.84
689.32	23683.88
689.46	23913.25
689.59	23779.84
689.73	23887.51
689.86	24114.54
690.00	24079.43
690.13	23531.75
690.27	23597.28
690.41	23550.47
690.54	23054.28
690.68	22995.76
690.81	22794.48
690.95	22970.02
691.08	22939.59
691.22	22780.43
691.35	22712.56
691.49	22714.90
691.62	22850.65
691.76	22441.06
691.89	22377.86
692.03	21762.30
692.16	21701.45
692.30	21837.20
692.43	22040.82
692.57	21729.53
692.70	21776.34
692.84	21708.47
692.97	21137.38
693.11	21383.13
693.24	21041.42
693.38	21053.12
693.51	21003.97
693.65	21071.84
693.78	21092.91
693.92	20730.12
694.05	20451.60
694.19	20699.70
694.32	20823.75
694.45	20936.09
694.59	20695.02
694.72	20589.69
694.86	20407.13
694.99	20140.31
695.13	19901.58
695.26	20098.18
695.39	19672.20
695.53	19704.97
695.66	19859.45
695.80	19557.52
695.93	19459.21
696.07	19580.92
696.20	19014.51
696.33	19108.13
696.47	19129.20
696.60	18998.13
696.73	19030.90
696.87	19222.82
697.00	19211.12
697.14	18455.12
697.27	18831.95
697.40	18647.05
697.54	18679.82
697.67	18485.55
697.80	18527.68
697.94	18302.99
698.07	18036.17
698.21	18324.05
698.34	17818.50
698.47	17820.84
698.61	17558.70
698.74	17610.19
698.87	17518.91
699.01	17408.90
699.14	17432.31
699.27	17680.41
699.40	17322.30
699.54	17205.28
699.67	17338.69
699.80	16994.63
699.94	16816.75
700.07	17186.55
700.20	16699.72
700.34	17034.42
700.47	16807.39
700.60	16769.94
700.73	16800.37
700.87	16327.58
701.00	16004.58
701.13	16320.56
701.26	16407.16
701.40	16339.28
701.53	15836.06
701.66	16093.52
701.79	15976.50
701.93	15859.47
702.06	15833.72
702.19	15639.46
702.32	15578.61
702.46	15466.26
702.59	15672.23
702.72	15740.10
702.85	15494.35
702.99	15384.34
703.12	15330.51
703.25	15180.71
703.38	15028.58
703.51	15194.76
703.65	14691.54
703.78	14974.75
703.91	14164.92
704.04	14586.22
704.17	14532.39
704.31	14387.27
704.44	14665.80
704.57	14281.95
704.70	14258.54
704.83	14366.21
704.96	14160.24
705.10	14113.43
705.23	13738.94
>>>>>End Processed Spectral Data<<<<<
