SpectraSuite Data File
++++++++++++++++++++++++++++++++++++
Date: Fri Oct 25 10:43:55 EDT 2013
User: price-jones
Dark Spectrum Present: No
Reference Spectrum Present: No
Number of Sampled Component Spectra: 1
Spectrometers: USB2+H05261
Integration Time (usec): 100000 (USB2+H05261)
Spectra Averaged: 1 (USB2+H05261)
Boxcar Smoothing: 0 (USB2+H05261)
Correct for Electrical Dark: No (USB2+H05261)
Strobe/Lamp Enabled: No (USB2+H05261)
Correct for Detector Non-linearity: No (USB2+H05261)
Correct for Stray Light: No (USB2+H05261)
Number of Pixels in Processed Spectrum: 2048
>>>>>Begin Processed Spectral Data<<<<<
365.73	170.86
365.92	170.86
366.12	170.86
366.32	70.22
366.52	63.19
366.72	21.06
366.91	53.83
367.11	25.75
367.31	7.02
367.51	18.72
367.70	30.43
367.90	53.83
368.10	84.26
368.30	0.00
368.49	58.51
368.69	7.02
368.89	23.41
369.09	7.02
369.28	0.00
369.48	70.22
369.68	77.24
369.87	63.19
370.07	166.18
370.27	133.41
370.47	191.92
370.66	355.76
370.86	425.98
371.06	404.91
371.25	528.96
371.45	423.64
371.65	545.34
371.84	440.02
372.04	458.74
372.24	411.93
372.44	543.00
372.63	559.39
372.83	514.92
373.03	470.45
373.22	521.94
373.42	512.58
373.62	535.98
373.81	620.24
374.01	610.88
374.21	578.11
374.40	603.86
374.60	653.01
374.79	610.88
374.99	559.39
375.19	550.03
375.38	667.05
375.58	589.82
375.78	615.56
375.97	547.69
376.17	650.67
376.37	615.56
376.56	573.43
376.76	585.13
376.95	699.82
377.15	671.73
377.35	690.46
377.54	678.76
377.74	723.23
377.93	606.20
378.13	629.60
378.33	645.99
378.52	638.97
378.72	695.14
378.91	648.33
379.11	648.33
379.31	662.37
379.50	681.10
379.70	608.54
379.89	667.05
380.09	648.33
380.28	671.73
380.48	657.69
380.68	730.25
380.87	758.33
381.07	653.01
381.26	620.24
381.46	770.04
381.65	763.01
381.85	692.80
382.04	716.20
382.24	791.10
382.43	615.56
382.63	690.46
382.83	730.25
383.02	746.63
383.22	795.78
383.41	772.38
383.61	800.46
383.80	730.25
384.00	793.44
384.19	793.44
384.39	896.43
384.58	781.74
384.78	844.93
384.97	842.59
385.17	760.67
385.36	788.76
385.56	828.55
385.75	767.70
385.95	858.98
386.14	903.45
386.34	823.87
386.53	802.80
386.72	849.61
386.92	950.26
387.11	908.13
387.31	891.74
387.50	863.66
387.70	847.27
387.89	889.40
388.09	910.47
388.28	849.61
388.48	833.23
388.67	950.26
388.86	891.74
389.06	973.66
389.25	922.17
389.45	1064.94
389.64	1057.92
389.84	987.71
390.03	961.96
390.22	994.73
390.42	1001.75
390.61	1034.52
390.81	1102.39
391.00	1158.57
391.19	1090.69
391.39	1121.12
391.58	1081.33
391.78	1132.82
391.97	1067.28
392.16	1102.39
392.36	1050.90
392.55	1076.65
392.75	1048.56
392.94	1034.52
393.13	971.32
393.33	950.26
393.52	1100.05
393.71	1144.52
393.91	1067.28
394.10	1053.24
394.29	1153.88
394.49	1203.04
394.68	1261.55
394.88	1242.82
395.07	1266.23
395.26	1268.57
395.46	1247.51
395.65	1282.61
395.84	1357.51
396.04	1369.21
396.23	1287.29
396.42	1196.01
396.62	1224.10
396.81	1275.59
397.00	1252.19
397.19	1205.38
397.39	1301.34
397.58	1383.26
397.77	1467.52
397.97	1497.94
398.16	1488.58
398.35	1535.39
398.55	1516.67
398.74	1556.46
398.93	1589.22
399.12	1577.52
399.32	1535.39
399.51	1533.05
399.70	1579.86
399.90	1614.97
400.09	1610.29
400.28	1727.32
400.47	1717.95
400.67	1607.95
400.86	1729.66
401.05	1834.98
401.24	1708.59
401.44	1783.49
401.63	1720.29
401.82	1732.00
402.01	1668.80
402.21	1886.47
402.40	1832.64
402.59	1776.47
402.78	1877.11
402.97	1891.15
403.17	1858.39
403.36	1973.07
403.55	1872.43
403.74	1926.26
403.93	1898.17
404.13	1905.20
404.32	2036.27
404.51	1881.79
404.70	1963.71
404.89	2050.31
405.09	2073.71
405.28	2050.31
405.47	2010.52
405.66	2153.29
405.85	1984.77
406.05	2038.61
406.24	2062.01
406.43	2104.14
406.62	2263.30
406.81	2324.15
407.00	2129.89
407.20	2162.66
407.39	2188.40
407.58	2303.09
407.77	2169.68
407.96	2307.77
408.15	2289.04
408.34	2272.66
408.54	2429.48
408.73	2333.51
408.92	2338.20
409.11	2413.09
409.30	2445.86
409.49	2396.71
409.68	2347.56
409.87	2300.75
410.07	2520.76
410.26	2424.80
410.45	2595.65
410.64	2518.42
410.83	2492.67
411.02	2597.99
411.21	2661.19
411.40	2686.94
411.59	2649.49
411.78	2663.53
411.98	2780.56
412.17	2754.81
412.36	2738.43
412.55	2745.45
412.74	2843.75
412.93	2942.05
413.12	2895.24
413.31	3049.72
413.50	2967.80
413.69	3150.36
413.88	3012.27
414.07	3133.98
414.26	3028.65
414.45	3103.55
414.64	3052.06
414.83	3286.11
415.02	3098.87
415.22	3297.81
415.41	3304.84
415.60	3206.53
415.79	3330.58
415.98	3426.54
416.17	3499.10
416.36	3396.12
416.55	3379.73
416.74	3412.50
416.93	3330.58
417.12	3377.39
417.31	3606.77
417.50	3471.01
417.69	3716.77
417.88	3611.45
418.07	3552.93
418.26	3552.93
418.45	3686.34
418.64	3765.92
418.83	3634.85
419.02	3555.27
419.21	3740.18
419.39	3751.88
419.58	3744.86
419.77	3468.67
419.96	3712.09
420.15	3777.62
420.34	3911.04
420.53	3880.61
420.72	4065.51
420.91	3936.78
421.10	4004.66
421.29	4016.36
421.48	3976.57
421.67	3985.93
421.86	4086.58
422.05	3978.91
422.24	3922.74
422.43	4030.40
422.61	3964.87
422.80	4007.00
422.99	4007.00
423.18	4091.26
423.37	4320.63
423.56	4079.55
423.75	4042.11
423.94	4124.02
424.13	3824.44
424.32	3964.87
424.50	4107.64
424.69	4215.30
424.88	4107.64
425.07	4173.18
425.26	4039.76
425.45	4102.96
425.64	4011.68
425.83	4109.98
426.01	4156.79
426.20	4138.07
426.39	4208.28
426.58	4032.74
426.77	4131.05
426.96	4117.00
427.15	4063.17
427.33	4100.62
427.52	4322.97
427.71	4285.52
427.90	4290.20
428.09	4390.84
428.28	4320.63
428.46	4374.46
428.65	4257.43
428.84	4491.49
429.03	4552.34
429.22	4231.69
429.40	4386.16
429.59	4224.67
429.78	4166.15
429.97	4004.66
430.16	4112.32
430.34	4210.62
430.53	4400.21
430.72	4252.75
430.91	4390.84
431.10	4442.34
431.28	4758.31
431.47	4947.89
431.66	4868.31
431.85	4798.10
432.03	4786.40
432.22	4896.40
432.41	4807.46
432.60	4910.44
432.79	4908.10
432.97	4978.32
433.16	5046.20
433.35	4880.02
433.54	4851.93
433.72	4833.21
433.91	4823.84
434.10	4964.28
434.28	5055.56
434.47	5071.94
434.66	5128.11
434.85	5174.92
435.03	5132.79
435.22	5062.58
435.41	5413.66
435.59	5261.52
435.78	5172.58
435.97	5352.81
436.16	5315.36
436.34	5488.56
436.53	5535.37
436.72	5472.17
436.90	5242.80
437.09	5345.78
437.28	5277.91
437.46	5364.51
437.65	5383.23
437.84	5528.35
438.02	5160.88
438.21	5280.25
438.40	5383.23
438.58	5561.11
438.77	5570.48
438.96	5526.00
439.14	5760.06
439.33	5851.34
439.52	6073.69
439.70	5935.60
439.89	5994.11
440.08	5870.06
440.26	5757.72
440.45	5916.87
440.63	6143.91
440.82	6342.85
441.01	6221.14
441.19	6333.49
441.38	6286.68
441.57	6317.11
441.75	6443.49
441.94	6429.45
442.12	6389.66
442.31	6537.12
442.50	6719.68
442.68	6614.35
442.87	6534.78
443.05	6757.13
443.24	6724.36
443.43	6705.63
443.61	6726.70
443.80	6841.39
443.98	6752.45
444.17	6633.08
444.35	6736.06
444.54	6834.36
444.73	6761.81
444.91	6738.40
445.10	6656.48
445.28	6710.32
445.47	6569.88
445.65	6614.35
445.84	6703.29
446.02	6745.42
446.21	6932.67
446.39	6726.70
446.58	7014.59
446.77	7021.61
446.95	6729.04
447.14	7150.34
447.32	7215.87
447.51	6960.75
447.69	6988.84
447.88	7030.97
448.06	6998.20
448.25	6757.13
448.43	7066.08
448.62	7138.63
448.80	7073.10
448.99	7087.14
449.17	7206.51
449.36	6965.43
449.54	7227.57
449.73	7445.24
449.91	7599.72
450.10	7478.01
450.28	7414.82
450.46	7585.68
450.65	7414.82
450.83	7637.17
451.02	7503.76
451.20	7592.70
451.39	7611.42
451.57	7499.08
451.76	7419.50
451.94	7604.40
452.13	7581.00
452.31	7419.50
452.49	7192.47
452.68	7581.00
452.86	7433.54
453.05	7543.55
453.23	7616.10
453.42	7655.89
453.60	7559.93
453.78	7564.61
453.97	7751.85
454.15	7789.30
454.34	7733.13
454.52	7634.83
454.70	7826.75
454.89	7840.79
455.07	7808.03
455.26	8049.10
455.44	8088.89
455.62	8088.89
455.81	8280.82
455.99	8161.45
456.17	8023.36
456.36	8285.50
456.54	8224.64
456.73	8238.69
456.91	8390.82
457.09	8589.77
457.28	8552.32
457.46	8435.29
457.64	8397.84
457.83	8542.96
458.01	8334.65
458.19	8472.74
458.38	8498.49
458.56	8730.20
458.74	8655.30
458.93	8390.82
459.11	8444.65
459.29	8477.42
459.48	8718.50
459.66	8755.94
459.84	8879.99
460.03	9048.51
460.21	8884.67
460.39	8933.82
460.57	8711.47
460.76	8938.51
460.94	8954.89
461.12	9027.45
461.31	9029.79
461.49	8816.80
461.67	9050.85
461.85	9474.49
462.04	9025.11
462.22	9518.96
462.40	9231.07
462.59	9254.48
462.77	9247.46
462.95	9364.48
463.13	9291.93
463.32	9392.57
463.50	9224.05
463.68	9635.99
463.86	9411.29
464.05	9210.01
464.23	9495.55
464.41	9413.63
464.59	9135.11
464.78	9626.62
464.96	9504.92
465.14	9266.18
465.32	9696.84
465.50	9544.70
465.69	9678.12
465.87	9678.12
466.05	9589.17
466.23	9603.22
466.41	9818.55
466.60	9940.26
466.78	9614.92
466.96	9476.83
467.14	9673.43
467.32	9696.84
467.51	9970.68
467.69	9572.79
467.87	9717.90
468.05	9811.53
468.23	9879.40
468.41	9727.27
468.60	9853.66
468.78	9851.31
468.96	9884.08
469.14	9919.19
469.32	10246.87
469.50	9881.74
469.69	10078.35
469.87	10139.20
470.05	10169.63
470.23	10134.52
470.41	10242.18
470.59	10377.94
470.77	10195.37
470.95	10225.80
471.14	10721.99
471.32	10305.38
471.50	10478.58
471.68	10532.41
471.86	10965.41
472.04	10923.28
472.22	10869.45
472.40	10682.20
472.58	10832.00
472.77	10626.03
472.95	10967.75
473.13	11176.06
473.31	11063.71
473.49	10988.82
473.67	10988.82
473.85	10988.82
474.03	11311.81
474.21	11433.52
474.39	11655.87
474.57	11470.97
474.75	11637.14
474.93	11707.36
475.12	11517.78
475.30	11564.59
475.48	11520.12
475.66	11651.19
475.84	11723.74
476.02	12025.67
476.20	12011.63
476.38	12322.92
476.56	12236.32
476.74	12147.38
476.92	12121.63
477.10	12315.90
477.28	12566.34
477.46	12552.29
477.64	12688.04
477.82	12943.16
478.00	13022.74
478.18	12851.88
478.36	12973.59
478.54	13348.08
478.72	13568.09
478.90	13399.57
479.08	13474.46
479.26	13745.97
479.44	13523.62
479.62	13767.03
479.80	13757.67
479.98	13916.83
480.16	14242.16
480.34	13865.33
480.52	14249.18
480.70	14181.31
480.88	14127.47
481.06	14497.28
481.24	14569.83
481.41	14951.34
481.59	14871.76
481.77	14759.42
481.95	15208.80
482.13	14888.15
482.31	15297.74
482.49	15426.47
482.67	15534.14
482.85	15594.99
483.03	15747.12
483.21	15807.98
483.39	16013.95
483.57	15992.88
483.74	15957.77
483.92	16257.36
484.10	15932.03
484.28	16390.77
484.46	17111.66
484.64	17001.65
484.82	16547.59
485.00	16779.30
485.18	16996.97
485.35	16903.35
485.53	16395.45
485.71	16901.01
485.89	16723.13
486.07	16793.34
486.25	17139.74
486.43	17373.80
486.61	17432.31
486.78	17790.41
486.96	18071.28
487.14	18073.62
487.32	18466.83
487.50	18534.70
487.68	18909.19
487.85	19143.24
488.03	19150.26
488.21	19381.98
488.39	19023.87
488.57	19248.57
488.75	19494.32
488.92	20051.37
489.10	20112.22
489.28	20161.37
489.46	20498.41
489.64	20587.35
489.81	20926.73
489.99	20790.98
490.17	20950.14
490.35	21223.98
490.53	21259.09
490.70	21359.73
490.88	21242.70
491.06	21748.26
491.24	21696.77
491.41	21469.73
491.59	21694.43
491.77	21303.56
491.95	21546.97
492.13	22199.98
492.30	22443.40
492.48	22740.64
492.66	22970.02
492.84	23084.70
493.01	22682.13
493.19	22698.52
493.37	22838.95
493.54	23068.32
493.72	22965.34
493.90	23679.20
494.08	23592.60
494.25	24079.43
494.43	24144.97
494.61	24002.19
494.79	24271.36
494.96	24460.94
495.14	24533.50
495.32	24690.31
495.49	24671.59
495.67	24559.24
495.85	24812.02
496.02	25006.28
496.20	25233.32
496.38	25516.52
496.55	25443.96
496.73	26024.42
496.91	25645.25
497.09	25745.89
497.26	26029.10
497.44	26108.68
497.62	26267.83
497.79	26214.00
497.97	25825.47
498.14	26335.71
498.32	26305.28
498.50	26562.74
498.67	26892.76
498.85	26986.38
499.03	27000.42
499.20	27227.45
499.38	27112.77
499.56	27433.42
499.73	27164.26
499.91	27683.86
500.08	27470.87
500.26	26883.39
500.44	27321.07
500.61	27346.82
500.79	27431.08
500.97	27559.81
501.14	28051.32
501.32	27894.50
501.49	27985.79
501.67	28048.98
501.84	28430.49
502.02	28348.57
502.20	28622.41
502.37	28772.21
502.55	28835.40
502.72	29235.63
502.90	28947.75
503.07	28795.61
503.25	29130.31
503.43	28725.39
503.60	28875.19
503.78	28879.87
503.95	29057.75
504.13	29603.10
504.30	29495.43
504.48	29631.18
504.65	29582.03
504.83	29804.38
505.01	29778.64
505.18	30099.29
505.36	30899.75
505.53	30293.55
505.71	30773.36
505.88	30764.00
506.06	30281.85
506.23	30658.68
506.41	30515.90
506.58	30965.29
506.76	30642.29
506.93	31206.36
507.11	31262.54
507.28	30780.39
507.46	31182.96
507.63	30684.42
507.81	30998.06
507.98	31002.74
508.16	31487.23
508.33	31283.60
508.50	31611.28
508.68	32119.17
508.85	32151.94
509.03	32119.17
509.20	32114.49
509.38	32163.64
509.55	32465.57
509.73	31842.99
509.90	32147.26
510.08	32367.27
510.25	32657.49
510.42	32383.65
510.60	32964.10
510.77	33003.89
510.95	33156.03
511.12	33008.58
511.30	33036.66
511.47	33289.44
511.64	33453.28
511.82	33460.30
511.99	33436.89
512.17	33663.93
512.34	33214.54
512.51	33481.36
512.69	33947.13
512.86	33827.76
513.04	33708.40
513.21	33837.12
513.38	34012.66
513.56	33956.49
513.73	33481.36
513.90	33846.49
514.08	34115.65
514.25	34087.56
514.43	34368.43
514.60	34614.18
514.77	34618.86
514.95	34607.16
515.12	34785.04
515.29	34632.91
515.47	34857.60
515.64	34719.51
515.81	34902.07
515.99	34991.01
516.16	34319.28
516.33	34387.15
516.51	34782.70
516.68	34263.10
516.85	33984.58
517.03	34361.40
517.20	34913.77
517.37	35178.25
517.54	35276.55
517.72	35306.98
517.89	34794.40
518.06	34946.54
518.24	35278.89
518.41	34651.63
518.58	35770.41
518.75	35318.68
518.93	35955.31
519.10	35569.12
519.27	36187.02
519.45	35622.95
519.62	36226.81
519.79	36322.77
519.96	36425.76
520.14	36751.09
520.31	35981.06
520.48	36114.47
520.65	36636.41
520.83	36514.70
521.00	36840.03
521.17	36891.52
521.34	36989.83
521.52	36858.76
521.69	37397.08
521.86	37724.75
522.03	37624.11
522.20	37022.59
522.38	37165.37
522.55	37773.91
522.72	37464.96
522.89	37060.04
523.07	37804.33
523.24	37603.05
523.41	38061.79
523.58	37544.53
523.75	38455.00
523.92	38242.01
524.10	38251.38
524.27	38438.62
524.44	38543.94
524.61	38197.54
524.78	38387.13
524.96	38785.02
525.13	38986.30
525.30	38745.23
525.47	38983.96
525.64	38253.72
525.81	38876.30
525.98	38506.49
526.16	38251.38
526.33	37965.83
526.50	38412.87
526.67	37785.61
526.84	38064.13
527.01	38464.36
527.18	38710.12
527.36	39402.92
527.53	39042.48
527.70	39431.01
527.87	39393.56
528.04	39442.71
528.21	39590.16
528.38	39313.98
528.55	39826.56
528.72	40041.88
528.89	40060.61
529.07	40182.32
529.24	39440.37
529.41	40198.70
529.58	39899.11
529.75	39847.62
529.92	39915.50
530.09	40032.52
530.26	40191.68
530.43	40690.21
530.60	40257.21
530.77	40491.27
530.94	40414.03
531.11	40325.09
531.28	40638.72
531.46	40435.10
531.63	40435.10
531.80	40713.62
531.97	40411.69
532.14	40439.78
532.31	40409.35
532.48	40175.30
532.65	40800.22
532.82	40430.41
532.99	41050.66
533.16	40748.73
533.33	40893.84
533.50	41593.66
533.67	41198.11
533.84	40804.90
534.01	40863.41
534.18	40884.48
534.35	41464.93
534.52	41186.41
534.69	41312.80
534.86	41310.46
535.03	41596.00
535.20	42274.76
535.37	41797.29
535.54	42422.21
535.71	41918.99
535.88	41666.22
536.05	41521.10
536.22	41876.86
536.38	41471.95
536.55	41790.27
536.72	41813.67
536.89	41605.36
537.06	41841.76
537.23	42417.53
537.40	42150.71
537.57	42284.12
537.74	42085.17
537.91	42864.57
538.08	41893.25
538.25	41635.79
538.42	42094.53
538.59	42600.09
538.75	42043.04
538.92	41790.27
539.09	42724.14
539.26	42630.52
539.43	42241.99
539.60	42604.77
539.77	42473.70
539.94	42300.50
540.11	42183.48
540.28	42593.07
540.44	42717.12
540.61	42384.76
540.78	42335.61
540.95	42518.17
541.12	42199.86
541.29	42990.96
541.46	43178.20
541.62	42967.55
541.79	43196.93
541.96	42031.34
542.13	42621.16
542.30	42948.83
542.47	42553.28
542.63	43016.71
542.80	43232.04
542.97	43414.60
543.14	43887.39
543.31	43557.37
543.48	43700.14
543.64	44203.36
543.81	44224.42
543.98	43798.44
544.15	43489.49
544.32	44039.52
544.48	44409.32
544.65	44067.61
544.82	43929.51
544.99	43859.30
545.16	43667.37
545.32	43629.93
545.49	44105.06
545.66	44355.49
545.83	44004.41
546.00	44074.63
546.16	44147.18
546.33	44168.25
546.50	43641.63
546.67	44268.89
546.83	43342.04
547.00	43817.17
547.17	44025.48
547.34	43955.26
547.50	44116.76
547.67	44832.96
547.84	44561.46
548.00	44355.49
548.17	45001.48
548.34	44378.90
548.51	44765.09
548.67	45102.12
548.84	45221.49
549.01	44533.37
549.18	44657.42
549.34	45045.95
549.51	45099.78
549.68	45181.70
549.84	44795.51
550.01	45052.97
550.18	45038.93
550.34	44891.48
550.51	44545.08
550.68	45237.87
550.84	44500.61
551.01	45022.54
551.18	44926.58
551.34	45371.28
551.51	45097.44
551.68	45228.51
551.84	45191.06
552.01	45137.23
552.18	45209.79
552.34	45188.72
552.51	45322.13
552.68	44683.17
552.84	45303.41
553.01	45537.46
553.18	45422.78
553.34	45439.16
553.51	45181.70
553.67	45834.71
553.84	45617.04
554.01	45916.63
554.17	45638.11
554.34	45881.52
554.51	45684.92
554.67	45375.97
554.84	45984.51
555.00	45359.58
555.17	45556.19
555.33	45808.96
555.50	45565.55
555.67	45340.86
555.83	45794.92
556.00	45776.20
556.16	46206.86
556.33	45638.11
556.50	45925.99
556.66	45902.59
556.83	45525.76
556.99	45869.82
557.16	46588.36
557.32	45830.03
557.49	45897.91
557.65	45925.99
557.82	45965.78
557.98	46031.32
558.15	46045.36
558.32	46270.05
558.48	45663.85
558.65	45696.62
558.81	46028.98
558.98	45972.80
559.14	46295.80
559.31	46291.12
559.47	46291.12
559.64	46281.75
559.80	46298.14
559.97	46632.83
560.13	45787.90
560.30	46028.98
560.46	46164.73
560.63	46674.96
560.79	46424.53
560.96	46288.77
561.12	46117.92
561.29	46251.33
561.45	46380.06
561.61	46199.83
561.78	46019.61
561.94	45914.29
562.11	46382.40
562.27	46387.08
562.44	46403.46
562.60	46845.82
562.77	46445.59
562.93	46232.60
563.10	46806.03
563.26	46061.74
563.42	46747.52
563.59	46401.12
563.75	46454.95
563.92	46717.09
564.08	46733.48
564.24	46658.58
564.41	46691.35
564.57	46632.83
564.74	46600.07
564.90	46405.80
565.07	46279.41
565.23	46433.89
565.39	46808.37
565.56	46286.43
565.72	46150.68
565.88	46211.54
566.05	46443.25
566.21	46536.87
566.38	46429.21
566.54	46614.11
566.70	47246.05
566.87	47014.34
567.03	46714.75
567.19	46848.16
567.36	46986.25
567.52	46443.25
567.68	46447.93
567.85	46361.33
568.01	46532.19
568.17	46443.25
568.34	47288.18
568.50	46918.38
568.66	46471.34
568.83	46555.60
568.99	46635.17
569.15	46742.84
569.32	46616.45
569.48	46639.86
569.64	47173.50
569.81	46323.88
569.97	46651.56
570.13	46742.84
570.30	46454.95
570.46	46541.55
570.62	46553.26
570.78	46127.28
570.95	46436.23
571.11	46761.56
571.27	46433.89
571.43	46480.70
571.60	46726.46
571.76	46717.09
571.92	46424.53
572.09	46731.14
572.25	46557.94
572.41	47068.17
572.57	46630.49
572.74	47126.69
572.90	46817.74
573.06	47145.41
573.22	46784.97
573.38	46813.05
573.55	46784.97
573.71	46983.91
573.87	46564.96
574.03	47051.79
574.20	46806.03
574.36	46609.43
574.52	46665.60
574.68	47016.68
574.84	46815.40
575.01	47009.66
575.17	46789.65
575.33	46251.33
575.49	46775.61
575.65	46724.11
575.82	46909.02
575.98	46937.10
576.14	47056.47
576.30	46822.42
576.46	46529.85
576.62	46618.79
576.79	46653.90
576.95	46251.33
577.11	46806.03
577.27	46986.25
577.43	46637.51
577.59	46780.29
577.75	46344.95
577.92	46532.19
578.08	46600.07
578.24	46504.10
578.40	47047.11
578.56	47068.17
578.72	47049.45
578.88	47063.49
579.04	47356.06
579.21	46955.83
579.37	46834.12
579.53	47299.89
579.69	46878.59
579.85	46721.77
580.01	47086.90
580.17	46976.89
580.33	46892.63
580.49	46726.46
580.65	47131.37
580.82	46969.87
580.98	46747.52
581.14	46569.64
581.30	47157.11
581.46	46995.62
581.62	47075.19
581.78	47276.48
581.94	47126.69
582.10	47178.18
582.26	47126.69
582.42	46794.33
582.58	47110.30
582.74	46946.47
582.90	47004.98
583.06	47229.67
583.22	47306.91
583.38	47346.70
583.54	47136.05
583.70	46941.78
583.86	46768.58
584.02	46801.35
584.18	47072.85
584.34	46717.09
584.50	46742.84
584.66	47019.02
584.82	47138.39
584.98	47103.28
585.14	46981.57
585.30	46838.80
585.46	46890.29
585.62	47061.15
585.78	46405.80
585.94	46602.41
586.10	46796.67
586.26	46642.20
586.42	47002.64
586.58	47236.69
586.74	47084.56
586.90	47138.39
587.06	46506.44
587.22	47070.51
587.38	46955.83
587.54	47051.79
587.70	47304.57
587.86	46958.17
588.02	46995.62
588.18	47320.95
588.34	46946.47
588.49	46230.26
588.65	46380.06
588.81	46651.56
588.97	46522.83
589.13	46632.83
589.29	46373.03
589.45	46813.05
589.61	46583.68
589.77	47143.07
589.93	46639.86
590.08	47349.04
590.24	47327.97
590.40	47487.13
590.56	47166.48
590.72	47318.61
590.88	46761.56
591.04	47131.37
591.20	47332.65
591.35	47306.91
591.51	47662.67
591.67	47466.06
591.83	46796.67
591.99	46988.60
592.15	46642.20
592.31	47063.49
592.46	46845.82
592.62	46710.07
592.78	47227.33
592.94	47433.30
593.10	47033.07
593.26	47138.39
593.41	47227.33
593.57	46834.12
593.73	46983.91
593.89	47098.60
594.05	46794.33
594.20	47103.28
594.36	47119.66
594.52	46857.52
594.68	46944.12
594.84	47192.22
594.99	47014.34
595.15	47117.32
595.31	47150.09
595.47	47114.98
595.62	47332.65
595.78	46894.97
595.94	47388.83
596.10	47002.64
596.25	47037.75
596.41	47220.31
596.57	47070.51
596.73	47007.32
596.88	46761.56
597.04	46670.28
597.20	47475.43
597.36	46864.55
597.51	47407.55
597.67	47166.48
597.83	47044.77
597.99	47552.66
598.14	47154.77
598.30	47103.28
598.46	46864.55
598.61	47150.09
598.77	46916.04
598.93	46974.55
599.09	47185.20
599.24	48222.06
599.40	47112.64
599.56	47269.46
599.71	47157.11
599.87	47339.68
600.03	47150.09
600.18	46951.15
600.34	47009.66
600.50	47213.29
600.65	46791.99
600.81	47334.99
600.97	47320.95
601.12	47449.68
601.28	46855.18
601.44	46958.17
601.59	47002.64
601.75	46803.69
601.91	46948.81
602.06	46981.57
602.22	47435.64
602.37	46827.10
602.53	46845.82
602.69	47124.35
602.84	46965.19
603.00	46925.40
603.16	47164.14
603.31	47028.38
603.47	47421.59
603.62	47049.45
603.78	47339.68
603.94	47054.13
604.09	47372.44
604.25	47271.80
604.40	46777.95
604.56	46714.75
604.71	47203.92
604.87	47246.05
605.03	47042.43
605.18	47098.60
605.34	46967.53
605.49	46541.55
605.65	47208.61
605.80	46913.70
605.96	47030.72
606.12	46677.30
606.27	47054.13
606.43	46852.84
606.58	46845.82
606.74	47215.63
606.89	46941.78
607.05	47173.50
607.20	47037.75
607.36	46656.24
607.51	47007.32
607.67	46665.60
607.82	46894.97
607.98	46569.64
608.13	46946.47
608.29	46684.33
608.44	46492.40
608.60	46160.05
608.75	46775.61
608.91	46717.09
609.06	46927.74
609.22	46677.30
609.37	46490.06
609.53	46644.54
609.68	46532.19
609.84	46438.57
609.99	46260.69
610.15	46218.56
610.30	46501.76
610.46	46323.88
610.61	46356.65
610.76	46272.39
610.92	46967.53
611.07	46946.47
611.23	46354.31
611.38	46480.70
611.54	46480.70
611.69	45904.93
611.84	46101.53
612.00	45993.87
612.15	46380.06
612.31	46501.76
612.46	46115.58
612.62	46330.90
612.77	46117.92
612.92	46263.03
613.08	46321.54
613.23	45921.31
613.39	45811.31
613.54	45329.16
613.69	45654.49
613.85	45944.72
614.00	46176.43
614.15	46525.17
614.31	45977.48
614.46	46239.62
614.62	45923.65
614.77	45853.44
614.92	45963.44
615.08	45464.91
615.23	45607.68
615.38	45769.18
615.54	45687.26
615.69	45888.54
615.84	45705.98
616.00	45670.87
616.15	45595.98
616.30	45825.35
616.46	45366.60
616.61	45134.89
616.76	45340.86
616.92	45471.93
617.07	45399.37
617.22	45127.87
617.37	45291.71
617.53	45666.19
617.68	45860.46
617.83	45242.56
617.99	45347.88
618.14	45294.05
618.29	45406.39
618.45	45024.89
618.60	44987.44
618.75	45088.08
618.90	45050.63
619.06	45036.59
619.21	45518.74
619.36	45392.35
619.51	45207.45
619.67	45308.09
619.82	45240.21
619.97	45109.14
620.12	44685.51
620.28	44524.01
620.43	45343.20
620.58	44854.03
620.73	45329.16
620.89	45228.51
621.04	44896.16
621.19	45177.02
621.34	45134.89
621.49	45031.91
621.65	44744.02
621.80	44793.17
621.95	44488.90
622.10	44729.98
622.25	44516.99
622.41	44191.65
622.56	44348.47
622.71	44671.46
622.86	44566.14
623.01	44451.45
623.16	44446.77
623.32	44154.21
623.47	44236.12
623.62	44245.49
623.77	44261.87
623.92	44154.21
624.07	44392.94
624.23	43784.40
624.38	44519.33
624.53	43634.61
624.68	44355.49
624.83	44273.57
624.98	43983.35
625.13	43679.08
625.29	44079.31
625.44	43992.71
625.59	43737.59
625.74	43313.95
625.89	43571.41
626.04	43892.07
626.19	43913.13
626.34	43555.03
626.49	43540.99
626.65	43835.89
626.80	44135.48
626.95	43990.37
627.10	43842.92
627.25	43650.99
627.40	43068.20
627.55	43395.87
627.70	43028.41
627.85	43540.99
628.00	42887.98
628.15	43550.35
628.30	43260.12
628.45	43641.63
628.60	43351.40
628.76	43473.11
628.91	43430.98
629.06	43351.40
629.21	43096.28
629.36	43122.03
629.51	42969.90
629.66	43138.41
629.81	42986.28
629.96	42969.90
630.11	43096.28
630.26	43012.02
630.41	43253.10
630.56	42782.65
630.71	42969.90
630.86	43044.79
631.01	42789.67
631.16	42852.87
631.31	42513.49
631.46	42323.91
631.61	42691.37
631.76	42967.55
631.91	42890.32
632.06	42979.26
632.21	42724.14
632.36	43140.75
632.51	42319.23
632.66	42492.43
632.81	42160.07
632.96	42253.69
633.10	42445.62
633.25	42787.33
633.40	42754.57
633.55	42625.84
633.70	42293.48
633.85	42536.90
634.00	42265.39
634.15	42366.04
634.30	42337.95
634.45	42211.56
634.60	42436.25
634.75	42426.89
634.90	42302.84
635.05	42555.62
635.19	42092.19
635.34	42316.89
635.49	42174.11
635.64	41986.87
635.79	42220.92
635.94	41778.56
636.09	42314.55
636.24	42134.32
636.39	41631.11
636.53	41525.78
636.68	41670.90
636.83	41413.44
636.98	41923.68
637.13	41476.63
637.28	42457.32
637.43	42026.66
637.57	42017.30
637.72	41626.43
637.87	41799.63
638.02	42164.75
638.17	41640.47
638.32	41574.94
638.46	41996.23
638.61	41635.79
638.76	41593.66
638.91	41467.27
639.06	41717.71
639.20	41273.01
639.35	41970.49
639.50	41563.23
639.65	41642.81
639.80	41706.01
639.94	41518.76
640.09	41439.18
640.24	41415.78
640.39	40978.10
640.54	41024.91
640.68	41074.06
640.83	41053.00
640.98	41041.29
641.13	40872.78
641.27	41432.16
641.42	41205.13
641.57	40687.87
641.72	40954.69
641.86	41017.89
642.01	40395.31
642.16	40877.46
642.31	40629.36
642.45	40744.05
642.60	40076.99
642.75	40502.97
642.90	40671.49
643.04	40737.02
643.19	40680.85
643.34	40673.83
643.48	40648.08
643.63	40463.18
643.78	40381.26
643.93	40287.64
644.07	40610.64
644.22	40409.35
644.37	40304.02
644.51	40362.54
644.66	40355.52
644.81	40643.40
644.95	40741.71
645.10	40744.05
645.25	40278.28
645.39	40140.19
645.54	39955.29
645.69	40444.46
645.83	40428.07
645.98	40067.63
646.13	40191.68
646.27	40549.78
646.42	40172.96
646.57	40088.70
646.71	39845.28
646.86	40289.98
647.00	40109.76
647.15	39927.20
647.30	39709.53
647.44	39669.74
647.59	39693.15
647.74	39679.10
647.88	39449.73
648.03	39772.72
648.17	39831.24
648.32	39620.59
648.47	39838.26
648.61	39756.34
648.76	40135.51
648.90	39805.49
649.05	39583.14
649.20	39445.05
649.34	39192.27
649.49	39484.84
649.63	39262.49
649.78	39578.46
649.92	39395.90
650.07	40135.51
650.21	39431.01
650.36	39517.60
650.51	39194.61
650.65	39512.92
650.80	39913.16
650.94	39894.43
651.09	39061.20
651.23	39505.90
651.38	39000.35
651.52	38778.00
651.67	39159.50
651.81	39000.35
651.96	38979.28
652.10	39016.73
652.25	39061.20
652.39	38820.13
652.54	39143.12
652.68	39325.68
652.83	39103.33
652.97	38885.66
653.12	38974.60
653.26	38841.19
653.41	38288.82
653.55	38759.27
653.70	38918.43
653.84	38553.30
653.99	38639.90
654.13	38740.55
654.27	38775.66
654.42	38412.87
654.56	38389.47
654.71	38911.41
654.85	38529.90
655.00	38401.17
655.14	38382.45
655.29	38263.08
655.43	38345.00
655.57	37376.01
655.72	37546.87
655.86	37385.38
656.01	37406.44
656.15	37537.51
656.30	37631.13
656.44	37570.28
656.58	37869.87
656.73	37998.60
656.87	38307.55
657.01	37785.61
657.16	37942.42
657.30	37649.86
657.45	37258.99
657.59	37560.92
657.73	37722.41
657.88	37951.79
658.02	37869.87
658.16	38487.77
658.31	38078.18
658.45	38209.25
658.60	37670.92
658.74	37986.89
658.88	37619.43
659.03	37530.49
659.17	37301.12
659.31	37654.54
659.46	36856.42
659.60	37317.50
659.74	37577.30
659.89	37612.41
660.03	37242.60
660.17	37481.34
660.32	37951.79
660.46	37137.28
660.60	37146.64
660.74	37305.80
660.89	37095.15
661.03	36411.71
661.17	36460.87
661.32	36591.94
661.46	36884.50
661.60	36739.39
661.74	36875.14
661.89	36952.38
662.03	36566.19
662.17	36765.14
662.31	36657.47
662.46	36814.29
662.60	36613.00
662.74	36608.32
662.88	36432.78
663.03	35927.22
663.17	36533.42
663.31	36037.23
663.45	36313.41
663.60	36165.96
663.74	36048.93
663.88	36231.49
664.02	35711.89
664.17	36123.83
664.31	35625.29
664.45	35641.68
664.59	35842.96
664.73	35709.55
664.88	35468.48
665.02	35482.52
665.16	35622.95
665.30	35175.91
665.44	35318.68
665.59	35103.35
665.73	35325.71
665.87	35232.08
666.01	35232.08
666.15	35239.11
666.29	35241.45
666.44	35419.33
666.58	35323.36
666.72	35021.44
666.86	34600.14
667.00	34834.19
667.14	34429.28
667.28	34607.16
667.43	34808.45
667.57	34412.90
667.71	34501.84
667.85	34235.02
667.99	34742.91
668.13	34513.54
668.27	34616.52
668.41	34623.54
668.56	34384.81
668.70	34513.54
668.84	34040.75
668.98	33785.63
669.12	33823.08
669.26	34024.37
669.40	34110.97
669.54	33787.97
669.68	33795.00
669.82	33500.09
669.96	33940.11
670.10	33603.07
670.25	34146.08
670.39	33392.42
670.53	33336.25
670.67	33415.83
670.81	33322.21
670.95	33191.14
671.09	33450.94
671.23	33090.49
671.37	33333.91
671.51	33034.32
671.65	32872.82
671.79	32765.16
671.93	32985.17
672.07	33036.66
672.21	32854.10
672.35	32627.07
672.49	32893.89
672.63	32783.88
672.77	32503.02
672.91	32936.02
673.05	32339.18
673.19	32451.53
673.33	32051.30
673.47	31995.12
673.61	32444.51
673.75	31971.72
673.89	31564.46
674.03	31599.57
674.17	32086.40
674.31	31644.04
674.45	31662.77
674.59	31845.33
674.73	31981.08
674.87	31920.23
675.01	31524.68
675.15	31466.16
675.29	31529.36
675.43	31168.91
675.56	31449.78
675.70	31105.72
675.84	31005.08
675.98	30579.10
676.12	30822.51
676.26	30902.09
676.40	30944.22
676.54	30632.93
676.68	30733.57
676.82	30190.57
676.96	30272.49
677.10	30359.09
677.23	30459.73
677.37	30008.01
677.51	29792.68
677.65	30045.46
677.79	29539.90
677.93	29570.33
678.07	29296.49
678.21	29024.98
678.34	29191.16
678.48	29186.48
678.62	29352.66
678.76	29034.35
678.90	28943.06
679.04	28601.35
679.18	28540.49
679.31	28503.04
679.45	28254.95
679.59	28451.55
679.73	28400.06
679.87	28383.68
680.00	28444.53
680.14	28334.53
680.28	28112.17
680.42	28194.09
680.56	28224.52
680.70	27838.33
680.83	28107.49
680.97	27690.88
681.11	27646.41
681.25	27723.65
681.39	27812.59
681.52	27466.19
681.66	27218.09
681.80	26923.18
681.94	27194.68
682.07	27040.21
682.21	26871.69
682.35	26911.48
682.49	26710.19
682.62	26895.10
682.76	26628.27
682.90	26499.55
683.04	26410.60
683.17	26719.56
683.31	26096.97
683.45	26108.68
683.59	25968.24
683.72	25764.62
683.86	26338.05
684.00	26209.32
684.13	25802.07
684.27	25476.73
684.41	25476.73
684.55	25146.72
684.68	25439.28
684.82	25425.24
684.96	25345.66
685.09	25539.93
685.23	25010.96
685.37	24994.58
685.50	25172.46
685.64	24985.22
685.78	24751.17
685.91	24657.54
686.05	24489.03
686.19	24496.05
686.32	24095.82
686.46	23786.86
686.60	23569.19
686.73	23168.96
686.87	23236.84
687.01	23386.63
687.14	23241.52
687.28	23103.43
687.42	23138.54
687.55	23281.31
687.69	23431.10
687.82	23150.24
687.96	23564.51
688.10	23133.86
688.23	22607.23
688.37	22670.43
688.50	22775.75
688.64	23037.89
688.78	22785.12
688.91	22345.09
689.05	22658.73
689.18	22443.40
689.32	22192.96
689.46	22820.22
689.59	22274.88
689.73	22551.06
689.86	21846.56
690.00	21638.25
690.13	21963.59
690.27	21750.60
690.41	21893.37
690.54	21706.13
690.68	21483.78
690.81	21715.49
690.95	21619.53
691.08	21341.00
691.22	21310.58
691.35	21268.45
691.49	21326.96
691.62	21111.63
691.76	21277.81
691.89	20940.77
692.03	20765.23
692.16	21046.10
692.30	20491.39
692.43	20402.45
692.57	20404.79
692.70	20402.45
692.84	20142.65
692.97	20004.56
693.11	20147.33
693.24	19920.30
693.38	19634.75
693.51	20039.67
693.65	19892.21
693.78	19997.54
693.92	19632.41
694.05	19463.90
694.19	19571.56
694.32	19421.77
694.45	19267.29
694.59	19559.86
694.72	19225.16
694.86	19332.82
694.99	18946.64
695.13	18831.95
695.26	19250.91
695.39	18916.21
695.53	18836.63
695.66	18810.89
695.80	18878.76
695.93	18590.88
696.07	18845.99
696.20	18354.48
696.33	18523.00
696.47	18586.19
696.60	18235.11
696.73	18288.95
696.87	18080.64
697.00	18223.41
697.14	17783.39
697.27	17638.28
697.40	17699.13
697.54	17539.97
697.67	17301.24
697.80	17425.29
697.94	17420.61
698.07	17427.63
698.21	17252.09
698.34	17432.31
698.47	17144.42
698.61	16931.44
698.74	16669.30
698.87	16732.49
699.01	16762.92
699.14	16329.92
699.27	16395.45
699.40	16556.95
699.54	16554.61
699.67	16238.64
699.80	16470.35
699.94	16023.31
700.07	16346.30
700.20	16374.39
700.34	16175.44
700.47	16177.78
700.60	16168.42
700.73	15990.54
700.87	16093.52
701.00	15974.16
701.13	15815.00
701.26	15587.97
701.40	15606.69
701.53	15543.50
701.66	15428.81
701.79	15087.09
701.93	15461.58
702.06	15143.27
702.19	15082.41
702.32	15061.35
702.46	15040.28
702.59	15129.22
702.72	14925.60
702.85	15005.17
702.99	14750.06
703.12	14815.59
703.25	14473.87
703.38	14478.55
703.51	14518.34
703.65	14527.71
703.78	14310.04
703.91	14169.60
704.04	14361.53
704.17	14347.48
704.31	14167.26
704.44	13870.01
704.57	14087.68
704.70	13919.17
704.83	13680.43
704.96	13886.40
705.10	13757.67
705.23	13846.61
>>>>>End Processed Spectral Data<<<<<
