SpectraSuite Data File
++++++++++++++++++++++++++++++++++++
Date: Fri Oct 25 11:33:52 EDT 2013
User: price-jones
Dark Spectrum Present: No
Reference Spectrum Present: No
Number of Sampled Component Spectra: 1
Spectrometers: USB2+H05261
Integration Time (usec): 100000 (USB2+H05261)
Spectra Averaged: 1 (USB2+H05261)
Boxcar Smoothing: 0 (USB2+H05261)
Correct for Electrical Dark: No (USB2+H05261)
Strobe/Lamp Enabled: No (USB2+H05261)
Correct for Detector Non-linearity: No (USB2+H05261)
Correct for Stray Light: No (USB2+H05261)
Number of Pixels in Processed Spectrum: 2048
>>>>>Begin Processed Spectral Data<<<<<
365.73	252.78
365.92	252.78
366.12	252.78
366.32	159.16
366.52	149.79
366.72	231.71
366.91	220.01
367.11	196.60
367.31	208.31
367.51	194.26
367.70	201.29
367.90	154.48
368.10	166.18
368.30	180.22
368.49	173.20
368.69	234.05
368.89	238.73
369.09	170.86
369.28	217.67
369.48	252.78
369.68	245.76
369.87	243.42
370.07	198.95
370.27	315.97
370.47	337.04
370.66	447.04
370.86	482.15
371.06	526.62
371.25	571.09
371.45	559.39
371.65	587.47
371.84	517.26
372.04	596.84
372.24	601.52
372.44	552.37
372.63	624.92
372.83	650.67
373.03	547.69
373.22	491.51
373.42	608.54
373.62	624.92
373.81	695.14
374.01	711.52
374.21	645.99
374.40	585.13
374.60	638.97
374.79	674.07
374.99	667.05
375.19	587.47
375.38	660.03
375.58	638.97
375.78	755.99
375.97	653.01
376.17	709.18
376.37	669.39
376.56	685.78
376.76	671.73
376.95	751.31
377.15	753.65
377.35	704.50
377.54	711.52
377.74	699.82
377.93	718.54
378.13	634.29
378.33	697.48
378.52	631.94
378.72	657.69
378.91	683.44
379.11	751.31
379.31	723.23
379.50	662.37
379.70	727.91
379.89	781.74
380.09	697.48
380.28	709.18
380.48	814.51
380.68	669.39
380.87	758.33
381.07	727.91
381.26	774.72
381.46	770.04
381.65	777.06
381.85	816.85
382.04	744.29
382.24	786.42
382.43	748.97
382.63	767.70
382.83	823.87
383.02	812.17
383.22	805.14
383.41	751.31
383.61	802.80
383.80	847.27
384.00	812.17
384.19	770.04
384.39	840.25
384.58	763.01
384.78	807.48
384.97	919.83
385.17	819.19
385.36	779.40
385.56	917.49
385.75	812.17
385.95	891.74
386.14	898.77
386.34	781.74
386.53	889.40
386.72	880.04
386.92	873.02
387.11	880.04
387.31	851.96
387.50	868.34
387.70	877.70
387.89	898.77
388.09	919.83
388.28	866.00
388.48	861.32
388.67	936.21
388.86	952.60
389.06	873.02
389.25	959.62
389.45	915.15
389.64	912.81
389.84	1008.77
390.03	999.41
390.22	1015.79
390.42	983.02
390.61	997.07
390.81	940.90
391.00	933.87
391.19	964.30
391.39	990.05
391.58	973.66
391.78	1022.81
391.97	1025.15
392.16	992.39
392.36	1078.99
392.55	1011.11
392.75	1104.73
392.94	997.07
393.13	1027.50
393.33	999.41
393.52	1004.09
393.71	1039.20
393.91	1001.75
394.10	1125.80
394.29	1062.60
394.49	1076.65
394.68	1158.57
394.88	1064.94
395.07	1135.16
395.26	1160.91
395.46	1130.48
395.65	1186.65
395.84	1170.27
396.04	1240.48
396.23	1116.44
396.42	1111.75
396.62	1291.98
396.81	1289.64
397.00	1282.61
397.19	1373.89
397.39	1282.61
397.58	1177.29
397.77	1224.10
397.97	1329.42
398.16	1228.78
398.35	1362.19
398.55	1165.59
398.74	1207.72
398.93	1341.13
399.12	1306.02
399.32	1224.10
399.51	1345.81
399.70	1352.83
399.90	1299.00
400.09	1341.13
400.28	1338.79
400.47	1418.36
400.67	1401.98
400.86	1427.73
401.05	1392.62
401.24	1523.69
401.44	1460.49
401.63	1359.85
401.82	1387.94
402.01	1476.88
402.21	1479.22
402.40	1488.58
402.59	1462.83
402.78	1619.65
402.97	1579.86
403.17	1474.54
403.36	1586.88
403.55	1497.94
403.74	1437.09
403.93	1507.30
404.13	1607.95
404.32	1694.55
404.51	1614.97
404.70	1607.95
404.89	1626.67
405.09	1827.96
405.28	1664.12
405.47	1682.85
405.66	1722.63
405.85	1678.16
406.05	1640.72
406.24	1715.61
406.43	1724.97
406.62	1753.06
406.81	1874.77
407.00	1694.55
407.20	1757.74
407.39	1865.41
407.58	1877.11
407.77	1867.75
407.96	1886.47
408.15	1827.96
408.34	1813.92
408.54	1872.43
408.73	1858.39
408.92	1874.77
409.11	1888.81
409.30	1940.30
409.49	2036.27
409.68	2064.35
409.87	1998.82
410.07	2005.84
410.26	2043.29
410.45	2108.82
410.64	2069.03
410.83	2155.63
411.02	2242.23
411.21	2157.97
411.40	2106.48
411.59	2179.04
411.78	2111.16
411.98	2176.70
412.17	2214.15
412.36	2270.32
412.55	2377.98
412.74	2434.16
412.93	2270.32
413.12	2300.75
413.31	2387.35
413.50	2403.73
413.69	2424.80
413.88	2459.90
414.07	2438.84
414.26	2518.42
414.45	2497.35
414.64	2392.03
414.83	2567.57
415.02	2600.34
415.22	2579.27
415.41	2633.10
415.60	2616.72
415.79	2731.41
415.98	2724.38
416.17	2595.65
416.36	2679.91
416.55	2630.76
416.74	2834.39
416.93	2815.66
417.12	2785.24
417.31	2806.30
417.50	2766.51
417.69	2937.37
417.88	2818.00
418.07	2871.84
418.26	2974.82
418.45	2920.99
418.64	2977.16
418.83	3096.53
419.02	2930.35
419.21	2991.20
419.39	3143.34
419.58	2965.46
419.77	3126.96
419.96	3103.55
420.15	3192.49
420.34	3183.13
420.53	3098.87
420.72	3323.56
420.91	3236.96
421.10	3166.74
421.29	3258.03
421.48	3178.45
421.67	3265.05
421.86	3272.07
422.05	3288.45
422.24	3056.74
422.43	3248.66
422.61	3328.24
422.80	3456.97
422.99	3372.71
423.18	3349.31
423.37	3419.52
423.56	3438.25
423.75	3489.74
423.94	3344.63
424.13	3164.40
424.32	3281.43
424.50	3424.20
424.69	3485.06
424.88	3501.44
425.07	3426.54
425.26	3288.45
425.45	3515.48
425.64	3485.06
425.83	3309.52
426.01	3445.27
426.20	3475.70
426.39	3370.37
426.58	3501.44
426.77	3379.73
426.96	3449.95
427.15	3517.83
427.33	3597.40
427.52	3499.10
427.71	3499.10
427.90	3557.61
428.09	3684.00
428.28	3653.58
428.46	3756.56
428.65	3506.12
428.84	3744.86
429.03	3880.61
429.22	3599.74
429.40	3742.52
429.59	3878.27
429.78	3555.27
429.97	3578.68
430.16	3723.79
430.34	3833.80
430.53	3939.12
430.72	3878.27
430.91	3861.88
431.10	3922.74
431.28	3927.42
431.47	3960.19
431.66	3894.65
431.85	3796.35
432.03	4081.89
432.22	4058.49
432.41	4074.87
432.60	3925.08
432.79	4060.83
432.97	4109.98
433.16	4098.28
433.35	4109.98
433.54	4044.45
433.72	4180.20
433.91	4035.08
434.10	4182.54
434.28	3967.21
434.47	4187.22
434.66	4283.18
434.85	4264.46
435.03	4236.37
435.22	4381.48
435.41	4395.53
435.59	4383.82
435.78	4430.63
435.97	4348.72
436.16	4332.33
436.34	4358.08
436.53	4545.32
436.72	4657.67
436.90	4514.89
437.09	4454.04
437.28	4231.69
437.46	4491.49
437.65	4535.96
437.84	4507.87
438.02	4514.89
438.21	4685.75
438.40	4514.89
438.58	4758.31
438.77	4741.93
438.96	4648.30
439.14	4870.65
439.33	4823.84
439.52	4964.28
439.70	4877.68
439.89	4901.08
440.08	5034.49
440.26	5006.41
440.45	4856.61
440.63	4992.36
440.82	5193.65
441.01	5046.20
441.19	5188.97
441.38	5207.69
441.57	5214.71
441.75	5252.16
441.94	5341.10
442.12	5404.30
442.31	5298.97
442.50	5404.30
442.68	5380.89
442.87	5385.57
443.05	5420.68
443.24	5518.98
443.43	5416.00
443.61	5563.45
443.80	5551.75
443.98	5380.89
444.17	5296.63
444.35	5476.85
444.54	5575.16
444.73	5511.96
444.91	5542.39
445.10	5664.10
445.28	5586.86
445.47	5685.16
445.65	5542.39
445.84	5703.89
446.02	5671.12
446.21	5764.74
446.39	5666.44
446.58	5874.74
446.77	5706.23
446.95	5603.24
447.14	5703.89
447.32	5895.81
447.51	5598.56
447.69	5743.67
447.88	5682.82
448.06	5865.38
448.25	5919.21
448.43	5797.51
448.62	5870.06
448.80	5689.84
448.99	5682.82
449.17	5968.37
449.36	5715.59
449.54	5973.05
449.73	6033.90
449.91	6148.59
450.10	5923.90
450.28	6101.78
450.46	6094.76
450.65	6031.56
450.83	6120.50
451.02	6057.31
451.20	6141.57
451.39	6211.78
451.57	6073.69
451.76	5930.92
451.94	6010.50
452.13	6366.26
452.31	6146.25
452.49	6043.26
452.68	6335.83
452.86	6150.93
453.05	6473.92
453.23	6265.61
453.42	6277.32
453.60	6361.58
453.78	6445.84
453.97	6492.65
454.15	6349.87
454.34	6258.59
454.52	6548.82
454.70	6511.37
454.89	6490.31
455.07	6649.46
455.26	6722.02
455.44	6729.04
455.62	6705.63
455.81	6736.06
455.99	6761.81
456.17	6820.32
456.36	6698.61
456.54	6881.18
456.73	6586.27
456.91	6904.58
457.09	6930.33
457.28	7138.63
457.46	6841.39
457.64	7068.42
457.83	6904.58
458.01	6904.58
458.19	7148.00
458.38	7131.61
458.56	7019.27
458.74	7066.08
458.93	7136.29
459.11	7115.23
459.29	7052.03
459.48	7328.22
459.66	7290.77
459.84	7307.15
460.03	7433.54
460.21	7386.73
460.39	7288.43
460.57	7241.62
460.76	7375.03
460.94	7262.68
461.12	7550.57
461.31	7655.89
461.49	7440.56
461.67	7332.90
461.85	7543.55
462.04	7522.48
462.22	8035.06
462.40	7765.90
462.59	7613.76
462.77	7712.07
462.95	7789.30
463.13	7721.43
463.32	7737.81
463.50	7808.03
463.68	7789.30
463.86	7824.41
464.05	7744.83
464.23	7892.29
464.41	7868.88
464.59	7756.54
464.78	7955.48
464.96	7969.52
465.14	7927.39
465.32	8133.36
465.50	8175.49
465.69	8142.72
465.87	8037.40
466.05	8105.28
466.23	8121.66
466.41	8124.00
466.60	8222.30
466.78	8044.42
466.96	8028.04
467.14	8175.49
467.32	8161.45
467.51	8217.62
467.69	7997.61
467.87	8224.64
468.05	8360.39
468.23	8224.64
468.41	8336.99
468.60	8231.66
468.78	8407.20
468.96	8477.42
469.14	8505.51
469.32	8695.09
469.50	8374.44
469.69	8877.65
469.87	8819.14
470.05	8643.60
470.23	8908.08
470.41	8662.32
470.59	8910.42
470.77	8882.33
470.95	8739.56
471.14	9097.66
471.32	8678.71
471.50	8877.65
471.68	8774.67
471.86	9081.28
472.04	9043.83
472.22	9170.22
472.40	8971.27
472.58	9181.92
472.77	9146.81
472.95	9273.20
473.13	9591.52
473.31	9303.63
473.49	9249.80
473.67	9341.08
473.85	9654.71
474.03	9811.53
474.21	9638.33
474.39	9659.39
474.57	9692.16
474.75	9799.82
474.93	10024.51
475.12	9724.93
475.30	9966.00
475.48	9951.96
475.66	9987.07
475.84	9944.94
476.02	9989.41
476.20	10125.16
476.38	10438.79
476.56	10443.47
476.74	10464.54
476.92	10469.22
477.10	10303.04
477.28	10729.02
477.46	10590.92
477.64	10644.76
477.82	11023.92
478.00	11311.81
478.18	11070.73
478.36	11192.44
478.54	11297.77
478.72	11166.70
478.90	11400.75
479.08	11515.44
479.26	11463.94
479.44	11861.84
479.62	11758.85
479.80	11751.83
479.98	11833.75
480.16	12084.19
480.34	12081.85
480.52	11981.20
480.70	12051.42
480.88	12201.21
481.06	12257.39
481.24	12226.96
481.41	12589.74
481.59	12784.01
481.77	12779.32
481.95	12816.77
482.13	12957.21
482.31	12905.71
482.49	13233.39
482.67	13331.69
482.85	13568.09
483.03	13678.09
483.21	13769.37
483.39	13692.13
483.57	13518.93
483.74	13767.03
483.92	13970.66
484.10	13720.22
484.28	14314.72
484.46	14380.25
484.64	14614.30
484.82	14497.28
485.00	14658.78
485.18	14677.50
485.35	15169.01
485.53	15049.64
485.71	15096.46
485.89	15365.62
486.07	15225.18
486.25	15199.44
486.43	15459.24
486.61	15461.58
486.78	15807.98
486.96	15845.43
487.14	16070.12
487.32	16074.80
487.50	16287.79
487.68	16570.99
487.85	16482.05
488.03	16514.82
488.21	16573.33
488.39	16875.26
488.57	16893.99
488.75	16931.44
488.92	17228.68
489.10	17146.76
489.28	17427.63
489.46	17820.84
489.64	17748.28
489.81	18054.89
489.99	18038.51
490.17	17923.82
490.35	18291.29
490.53	18167.24
490.70	18616.62
490.88	18192.98
491.06	18719.60
491.24	18934.93
491.41	19138.56
491.59	18768.76
491.77	19063.66
491.95	19356.23
492.13	19552.84
492.30	19548.15
492.48	19349.21
492.66	19585.60
492.84	19665.18
493.01	20025.62
493.19	19887.53
493.37	20552.24
493.54	20294.79
493.72	20570.97
493.90	20524.16
494.08	20690.34
494.25	20884.60
494.43	20706.72
494.61	20947.79
494.79	21153.76
494.96	21146.74
495.14	21474.42
495.32	21661.66
495.49	21345.69
495.67	21830.18
495.85	21797.41
496.02	21954.22
496.20	22171.89
496.38	22246.79
496.55	22309.99
496.73	23007.47
496.91	22441.06
497.09	22518.29
497.26	22899.80
497.44	22857.67
497.62	22848.31
497.79	23171.30
497.97	22951.29
498.14	23594.94
498.32	23817.29
498.50	23473.23
498.67	23908.57
498.85	23929.64
499.03	24034.96
499.20	23571.54
499.38	23985.81
499.56	24250.29
499.73	24250.29
499.91	24308.80
500.08	24746.48
500.26	24233.91
500.44	24554.56
500.61	24482.00
500.79	24627.12
500.97	24692.65
501.14	25455.67
501.32	24910.32
501.49	25027.35
501.67	25186.50
501.84	25429.92
502.02	25298.85
502.20	25312.89
502.37	25359.70
502.55	25502.48
502.72	25785.68
502.90	25848.88
503.07	25589.08
503.25	26057.18
503.43	26073.57
503.60	26160.17
503.78	26221.02
503.95	26237.41
504.13	26544.02
504.30	26490.18
504.48	26450.39
504.65	26909.14
504.83	26803.82
505.01	26925.52
505.18	26960.63
505.36	27278.94
505.53	27646.41
505.71	27248.52
505.88	27218.09
506.06	27302.35
506.23	27395.97
506.41	27332.78
506.58	27620.66
506.76	27655.77
506.93	28245.58
507.11	27522.36
507.28	27953.02
507.46	28222.18
507.63	28149.62
507.81	28362.61
507.98	27871.10
508.16	28477.30
508.33	28687.95
508.50	28591.98
508.68	28694.97
508.85	29034.35
509.03	28706.67
509.20	28926.68
509.38	29092.86
509.55	29223.93
509.73	29572.67
509.90	29252.02
510.08	29319.89
510.25	29153.71
510.42	29626.50
510.60	29343.30
510.77	29425.22
510.95	29905.02
511.12	29626.50
511.30	29958.86
511.47	29713.10
511.64	29685.01
511.82	30122.69
511.99	30092.27
512.17	30438.67
512.34	29961.20
512.51	30930.18
512.69	30656.34
512.86	30579.10
513.04	31094.02
513.21	30536.97
513.38	31000.40
513.56	31098.70
513.73	31089.34
513.90	30897.41
514.08	31227.43
514.25	31400.63
514.43	31658.09
514.60	31229.77
514.77	31779.79
514.95	31756.39
515.12	31503.61
515.29	31681.49
515.47	31445.10
515.64	31835.97
515.81	31964.70
515.99	31938.95
516.16	32091.09
516.33	32224.50
516.51	32231.52
516.68	31920.23
516.85	32378.97
517.03	32381.31
517.20	32629.41
517.37	32559.19
517.54	32659.84
517.72	32680.90
517.89	32247.90
518.06	32650.47
518.24	33022.62
518.41	32524.08
518.58	33010.92
518.75	32809.63
518.93	33289.44
519.10	33219.22
519.27	33429.87
519.45	33198.16
519.62	33666.27
519.79	33787.97
519.96	33563.28
520.14	33364.34
520.31	33378.38
520.48	33855.85
520.65	33874.57
520.83	34113.31
521.00	34253.74
521.17	34078.20
521.34	34258.42
521.52	34188.21
521.69	34443.32
521.86	34352.04
522.03	34663.33
522.20	34679.72
522.38	35115.06
522.55	34986.33
522.72	34827.17
522.89	34918.45
523.07	34899.73
523.24	34752.27
523.41	35098.67
523.58	35089.31
523.75	35442.73
523.92	35306.98
524.10	35428.69
524.27	35431.03
524.44	35398.26
524.61	35377.20
524.78	35718.92
524.96	35735.30
525.13	35952.97
525.30	36023.19
525.47	35779.77
525.64	36133.19
525.81	36062.97
525.98	35967.01
526.16	35885.09
526.33	35936.59
526.50	36542.78
526.67	36290.01
526.84	36355.54
527.01	36797.90
527.18	36243.20
527.36	36811.95
527.53	36465.55
527.70	37053.02
527.87	36933.65
528.04	36397.67
528.21	36989.83
528.38	37020.25
528.55	36975.78
528.72	36821.31
528.89	37450.91
529.07	36713.64
529.24	36898.55
529.41	37186.43
529.58	37148.98
529.75	37345.59
529.92	37394.74
530.09	37745.82
530.26	37439.21
530.43	37441.55
530.60	37277.71
530.77	37415.80
530.94	37385.38
531.11	37516.45
531.28	37949.45
531.46	38080.52
531.63	38019.66
531.80	38164.78
531.97	37715.39
532.14	37996.26
532.31	38199.88
532.48	37928.38
532.65	38422.23
532.82	38066.47
532.99	38543.94
533.16	38281.80
533.33	38218.61
533.50	38602.46
533.67	38499.47
533.84	38195.20
534.01	38749.91
534.18	38906.73
534.35	39047.16
534.52	39014.39
534.69	39398.24
534.86	39021.41
535.03	38862.26
535.20	39419.30
535.37	39328.02
535.54	39206.31
535.71	39337.38
535.88	39189.93
536.05	39335.04
536.22	39751.66
536.38	39264.83
536.55	39297.59
536.72	39445.05
536.89	39578.46
537.06	39239.08
537.23	39681.44
537.40	39594.84
537.57	39569.10
537.74	40102.74
537.91	40245.51
538.08	39889.75
538.25	39765.70
538.42	40018.48
538.59	40231.47
538.75	40219.77
538.92	40460.84
539.09	40540.42
539.26	40418.71
539.43	40542.76
539.60	39899.11
539.77	40306.37
539.94	40509.99
540.11	40680.85
540.28	40837.67
540.44	40685.53
540.61	40722.98
540.78	40215.08
540.95	40594.25
541.12	40378.92
541.29	40669.15
541.46	41001.50
541.62	41223.86
541.79	41053.00
541.96	41167.68
542.13	41010.87
542.30	40942.99
542.47	40847.03
542.63	40741.71
542.80	41282.37
542.97	41478.97
543.14	41151.30
543.31	41951.76
543.48	41474.29
543.64	41654.51
543.81	41783.24
543.98	42019.64
544.15	41383.01
544.32	41841.76
544.48	41947.08
544.65	41989.21
544.82	41954.10
544.99	42033.68
545.16	42068.79
545.32	41923.68
545.49	42370.72
545.66	42689.03
545.83	42014.96
546.00	42286.46
546.16	42267.73
546.33	41717.71
546.50	42117.94
546.67	42960.53
546.83	41820.69
547.00	42190.50
547.17	42560.30
547.34	42801.38
547.50	42562.64
547.67	43042.45
547.84	42829.46
548.00	42703.07
548.17	42976.92
548.34	43281.19
548.51	42902.02
548.67	42422.21
548.84	42848.19
549.01	42784.99
549.18	43278.85
549.34	43129.05
549.51	43058.84
549.68	43030.75
549.84	43234.38
550.01	43442.68
550.18	43044.79
550.34	43379.49
550.51	43129.05
550.68	43569.07
550.84	43105.65
551.01	43772.70
551.18	43688.44
551.34	43838.23
551.51	43658.01
551.68	43709.50
551.84	43388.85
552.01	43538.65
552.18	43643.97
552.34	43592.48
552.51	43519.92
552.68	43510.56
552.84	43728.23
553.01	44208.04
553.18	43894.41
553.34	43995.05
553.51	43950.58
553.67	43873.34
553.84	44203.36
554.01	43966.96
554.17	43786.74
554.34	44500.61
554.51	44198.68
554.67	44285.28
554.84	44189.31
555.00	44414.01
555.17	44313.36
555.33	44252.51
555.50	44474.86
555.67	44512.31
555.83	43992.71
556.00	44891.48
556.16	44919.56
556.33	44481.88
556.50	44215.06
556.66	44720.62
556.83	44531.03
556.99	45097.44
557.16	45062.33
557.32	44388.26
557.49	44624.65
557.65	44570.82
557.82	44435.07
557.98	45003.82
558.15	44615.29
558.32	44563.80
558.48	44683.17
558.65	44957.01
558.81	44832.96
558.98	44959.35
559.14	44519.33
559.31	44493.58
559.47	45256.60
559.64	45118.51
559.80	45207.45
559.97	45095.10
560.13	45052.97
560.30	45202.77
560.46	45581.93
560.63	45560.87
560.79	45392.35
560.96	45324.47
561.12	45387.67
561.29	45448.52
561.45	45567.89
561.61	45219.15
561.78	45413.41
561.94	45448.52
562.11	45874.50
562.27	45237.87
562.44	45490.65
562.60	45521.08
562.77	45610.02
562.93	45703.64
563.10	46199.83
563.26	45584.27
563.42	46246.65
563.59	45560.87
563.75	45385.33
563.92	45738.75
564.08	45773.86
564.24	45947.06
564.41	45574.91
564.57	46024.29
564.74	45808.96
564.90	45270.64
565.07	45492.99
565.23	45581.93
565.39	45691.94
565.56	46316.86
565.72	45750.45
565.88	46410.48
566.05	45689.60
566.21	46071.10
566.38	46040.68
566.54	46052.38
566.70	45972.80
566.87	46007.91
567.03	45832.37
567.19	46185.79
567.36	45972.80
567.52	46155.36
567.68	46270.05
567.85	46216.22
568.01	46520.49
568.17	46155.36
568.34	46068.76
568.50	46141.32
568.66	45925.99
568.83	46162.39
568.99	45984.51
569.15	46440.91
569.32	45888.54
569.48	46328.56
569.64	46880.93
569.81	46438.57
569.97	46476.02
570.13	46817.74
570.30	45940.04
570.46	46277.07
570.62	46223.24
570.78	45907.27
570.95	46375.37
571.11	46417.50
571.27	46295.80
571.43	46363.67
571.60	46010.25
571.76	46415.16
571.92	46602.41
572.09	46101.53
572.25	46003.23
572.41	45998.55
572.57	46464.32
572.74	46677.30
572.90	46777.95
573.06	46836.46
573.22	46635.17
573.38	46923.06
573.55	47063.49
573.71	46838.80
573.87	47063.49
574.03	46454.95
574.20	47323.29
574.36	46829.44
574.52	46941.78
574.68	46843.48
574.84	46960.51
575.01	46691.35
575.17	46981.57
575.33	46464.32
575.49	46663.26
575.65	46981.57
575.82	47033.07
575.98	46415.16
576.14	46990.94
576.30	46979.23
576.46	47152.43
576.62	46609.43
576.79	46571.98
576.95	46138.98
577.11	46405.80
577.27	46953.49
577.43	47044.77
577.59	47112.64
577.75	46628.15
577.92	46398.78
578.08	46621.13
578.24	46848.16
578.40	46845.82
578.56	47089.24
578.72	47157.11
578.88	47026.04
579.04	46806.03
579.21	46981.57
579.37	46897.31
579.53	47175.84
579.69	46593.04
579.85	46607.09
580.01	46431.55
580.17	46962.85
580.33	47224.99
580.49	46820.08
580.65	47241.37
580.82	46803.69
580.98	47089.24
581.14	46335.59
581.30	47306.91
581.46	47171.16
581.62	47098.60
581.78	46944.12
581.94	47105.62
582.10	47063.49
582.26	47639.26
582.42	47316.27
582.58	46974.55
582.74	47161.79
582.90	46780.29
583.06	47004.98
583.22	47056.47
583.38	47030.72
583.54	47351.38
583.70	47014.34
583.86	47192.22
584.02	46827.10
584.18	47110.30
584.34	47489.47
584.50	47536.28
584.66	47047.11
584.82	47281.16
584.98	47114.98
585.14	47433.30
585.30	46789.65
585.46	47283.50
585.62	47040.09
585.78	47070.51
585.94	46667.94
586.10	47262.44
586.26	47042.43
586.42	47030.72
586.58	47334.99
586.74	46979.23
586.90	47185.20
587.06	47433.30
587.22	47129.03
587.38	46885.61
587.54	47264.78
587.70	47374.78
587.86	47007.32
588.02	47065.83
588.18	47449.68
588.34	47536.28
588.49	47262.44
588.65	46939.44
588.81	47440.32
588.97	47119.66
589.13	47344.36
589.29	47208.61
589.45	47299.89
589.61	47470.75
589.77	47330.31
589.93	47351.38
590.08	47505.85
590.24	47969.28
590.40	48039.50
590.56	47753.95
590.72	47234.35
590.88	47592.45
591.04	46813.05
591.20	47601.82
591.35	48041.84
591.51	47908.43
591.67	47608.84
591.83	47878.00
591.99	47709.48
592.15	47316.27
592.31	47583.09
592.46	47679.05
592.62	47775.02
592.78	47461.38
592.94	48418.66
593.10	47826.51
593.26	48034.81
593.41	47903.74
593.57	47920.13
593.73	48016.09
593.89	48121.41
594.05	47665.01
594.20	47557.35
594.36	48264.19
594.52	47873.32
594.68	47667.35
594.84	47927.15
594.99	48149.50
595.15	47775.02
595.31	47782.04
595.47	47908.43
595.62	47927.15
595.78	47917.79
595.94	48114.39
596.10	47894.38
596.25	47847.57
596.41	48219.72
596.57	47503.51
596.73	48151.84
596.88	48009.07
597.04	47803.10
597.20	48009.07
597.36	48079.28
597.51	47756.29
597.67	48009.07
597.83	47885.02
597.99	48048.86
598.14	47934.17
598.30	47838.21
598.46	47791.40
598.61	48161.20
598.77	48055.88
598.93	48020.77
599.09	48301.64
599.24	48439.73
599.40	47936.51
599.56	48203.33
599.71	48123.75
599.87	48629.31
600.03	48346.11
600.18	48264.19
600.34	47634.58
600.50	47959.92
600.65	48135.46
600.81	47800.76
600.97	48009.07
601.12	48158.86
601.28	48069.92
601.44	47742.25
601.59	48186.95
601.75	47744.59
601.91	48311.00
602.06	47945.87
602.22	48282.91
602.37	47580.75
602.53	47973.96
602.69	48144.82
602.84	47786.72
603.00	47767.99
603.16	48018.43
603.31	47805.44
603.47	48025.45
603.62	47910.77
603.78	48268.87
603.94	48301.64
604.09	47688.42
604.25	47931.83
604.40	48179.93
604.56	48030.13
604.71	48486.54
604.87	48385.89
605.03	47980.98
605.18	48149.50
605.34	48027.79
605.49	47618.20
605.65	48006.73
605.80	47943.53
605.96	47414.57
606.12	48016.09
606.27	48098.01
606.43	47941.19
606.58	48383.55
606.74	47634.58
606.89	47679.05
607.05	48027.79
607.20	48193.97
607.36	47657.99
607.51	47578.41
607.67	47655.65
607.82	48013.75
607.98	47456.70
608.13	47695.44
608.29	48287.59
608.44	48062.90
608.60	47995.03
608.75	47873.32
608.91	47676.71
609.06	47220.31
609.22	47833.53
609.37	47646.29
609.53	48093.33
609.68	48102.69
609.84	47861.61
609.99	47758.63
610.15	47988.00
610.30	47634.58
610.46	47770.33
610.61	48210.35
610.76	47840.55
610.92	47711.82
611.07	47770.33
611.23	47597.13
611.38	47800.76
611.54	47461.38
611.69	47964.60
611.84	47779.70
612.00	47824.17
612.15	47519.90
612.31	47814.80
612.46	47372.44
612.62	47342.02
612.77	47419.25
612.92	48034.81
613.08	47325.63
613.23	47714.16
613.39	47346.70
613.54	47178.18
613.69	47782.04
613.85	47323.29
614.00	47742.25
614.15	47564.37
614.31	47313.93
614.46	47288.18
614.62	46944.12
614.77	47229.67
614.92	47449.68
615.08	47271.80
615.23	47297.55
615.38	47318.61
615.54	47501.17
615.69	47365.42
615.84	47290.52
616.00	47353.72
616.15	47215.63
616.30	47250.74
616.46	47206.26
616.61	47047.11
616.76	47370.10
616.92	47255.42
617.07	47126.69
617.22	47159.45
617.37	47019.02
617.53	46712.41
617.68	46766.24
617.83	47262.44
617.99	47269.46
618.14	46913.70
618.29	46766.24
618.45	46621.13
618.60	46845.82
618.75	46564.96
618.90	46756.88
619.06	46768.58
619.21	46803.69
619.36	47063.49
619.51	46209.20
619.67	46614.11
619.82	46829.44
619.97	46873.91
620.12	46827.10
620.28	46216.22
620.43	46887.95
620.58	46616.45
620.73	46454.95
620.89	47107.96
621.04	46906.68
621.19	46705.39
621.34	46710.07
621.49	46536.87
621.65	46696.03
621.80	46380.06
621.95	46562.62
622.10	46801.35
622.25	46106.21
622.41	46546.23
622.56	46649.22
622.71	46424.53
622.86	46192.81
623.01	46274.73
623.16	46230.26
623.32	46209.20
623.47	46429.21
623.62	46380.06
623.77	46485.38
623.92	46452.61
624.07	46319.20
624.23	46288.77
624.38	46525.17
624.53	46021.95
624.68	46281.75
624.83	45808.96
624.98	46110.89
625.13	45907.27
625.29	45708.32
625.44	46380.06
625.59	45928.33
625.74	45930.67
625.89	45975.14
626.04	45584.27
626.19	45792.58
626.34	45750.45
626.49	45532.78
626.65	45212.13
626.80	46066.42
626.95	45392.35
627.10	45148.93
627.25	45626.40
627.40	45645.13
627.55	46239.62
627.70	45429.80
627.85	45907.27
628.00	45776.20
628.15	45935.35
628.30	45591.30
628.45	44905.52
628.60	44945.31
628.76	45315.11
628.91	45397.03
629.06	45518.74
629.21	44655.08
629.36	45326.81
629.51	44832.96
629.66	45434.48
629.81	45144.25
629.96	45013.18
630.11	45160.64
630.26	45380.65
630.41	44945.31
630.56	45207.45
630.71	45111.49
630.86	45284.68
631.01	45340.86
631.16	45298.73
631.31	44968.71
631.46	44753.38
631.61	45256.60
631.76	45207.45
631.91	45013.18
632.06	45230.85
632.21	45474.27
632.36	44835.30
632.51	44538.05
632.66	44935.95
632.81	44528.69
632.96	44849.35
633.10	44657.42
633.25	44741.68
633.40	44631.68
633.55	44949.99
633.70	44622.31
633.85	44423.37
634.00	44161.23
634.15	44582.52
634.30	44629.34
634.45	44643.38
634.60	44659.76
634.75	44821.26
634.90	44566.14
635.05	44760.40
635.19	44411.67
635.34	44566.14
635.49	44247.83
635.64	44488.90
635.79	44804.88
635.94	44154.21
636.09	44512.31
636.24	44416.35
636.39	44575.50
636.53	44236.12
636.68	44254.85
636.83	43714.19
636.98	43997.39
637.13	43686.10
637.28	43753.97
637.43	43756.32
637.57	44168.25
637.72	43814.83
637.87	43889.73
638.02	44072.29
638.17	43896.75
638.32	43777.38
638.46	43966.96
638.61	43402.89
638.76	43599.50
638.91	43466.09
639.06	43835.89
639.20	43613.54
639.35	43402.89
639.50	43477.79
639.65	43402.89
639.80	44065.27
639.94	43861.64
640.09	44205.70
640.24	44107.40
640.39	43536.30
640.54	42909.04
640.68	43482.47
640.83	43789.08
640.98	43910.79
641.13	43311.61
641.27	43650.99
641.42	43538.65
641.57	43189.91
641.72	43262.46
641.86	43320.98
642.01	42782.65
642.16	43037.77
642.31	43225.01
642.45	43276.51
642.60	42934.79
642.75	43140.75
642.90	43634.61
643.04	43232.04
643.19	43276.51
643.34	42752.23
643.48	42749.88
643.63	42457.32
643.78	43407.58
643.93	43325.66
644.07	42972.24
644.22	42621.16
644.37	42595.41
644.51	43440.34
644.66	42927.77
644.81	43014.37
644.95	42658.60
645.10	43037.77
645.25	42569.66
645.39	42483.06
645.54	42721.80
645.69	42586.05
645.83	42469.02
645.98	41998.57
646.13	42651.58
646.27	42270.08
646.42	42064.11
646.57	42518.17
646.71	42635.20
646.86	42831.80
647.00	42333.27
647.15	42703.07
647.30	42462.00
647.44	42511.15
647.59	42263.05
647.74	41872.18
647.88	42511.15
648.03	43058.84
648.17	42604.77
648.32	42185.82
648.47	42256.03
648.61	42099.22
648.76	42246.67
648.90	41860.48
649.05	42272.42
649.20	42492.43
649.34	42054.75
649.49	42419.87
649.63	41977.51
649.78	42246.67
649.92	41951.76
650.07	42251.35
650.21	42323.91
650.36	42232.63
650.51	42150.71
650.65	42281.78
650.80	42150.71
650.94	42314.55
651.09	42157.73
651.23	41654.51
651.38	41628.77
651.52	41326.84
651.67	41439.18
651.81	41675.58
651.96	41633.45
652.10	41045.97
652.25	41776.22
652.39	41631.11
652.54	41469.61
652.68	42319.23
652.83	41881.55
652.97	41776.22
653.12	41404.08
653.26	41764.52
653.41	41652.17
653.55	41261.30
653.70	41825.37
653.84	41633.45
653.99	41251.94
654.13	41137.26
654.27	41120.87
654.42	41242.58
654.56	41240.24
654.71	41055.34
654.85	41638.13
655.00	41581.96
655.14	41478.97
655.29	41460.25
655.43	41146.62
655.57	40587.23
655.72	40734.68
655.86	41029.59
656.01	40582.55
656.15	40577.87
656.30	41195.77
656.44	40821.28
656.58	41179.39
656.73	40830.65
656.87	40540.42
657.01	40645.74
657.16	41181.73
657.30	40465.52
657.45	40893.84
657.59	40378.92
657.73	40385.94
657.88	40587.23
658.02	40722.98
658.16	40966.40
658.31	40697.24
658.45	40725.32
658.60	40467.86
658.74	40692.55
658.88	40554.46
659.03	39922.52
659.17	40074.65
659.31	39562.08
659.46	39988.05
659.60	40603.61
659.74	40037.20
659.89	39812.51
660.03	39447.39
660.17	40147.21
660.32	39945.92
660.46	39643.99
660.60	39524.63
660.74	39786.77
660.89	39487.18
661.03	39243.76
661.17	39899.11
661.32	39681.44
661.46	39318.66
661.60	39501.22
661.74	39541.01
661.89	39037.80
662.03	39077.58
662.17	39269.51
662.31	39416.96
662.46	39585.48
662.60	38588.41
662.74	38665.65
662.88	38789.70
663.03	38462.02
663.17	38642.24
663.31	38426.92
663.45	39154.82
663.60	39262.49
663.74	39061.20
663.88	38932.47
664.02	38368.40
664.17	38747.57
664.31	37968.17
664.45	38272.44
664.59	38586.07
664.73	38508.83
664.88	38494.79
665.02	38047.75
665.16	38155.41
665.30	38333.29
665.44	38244.35
665.59	37596.03
665.73	37963.49
665.87	37530.49
666.01	38150.73
666.15	37778.59
666.29	37785.61
666.44	37649.86
666.58	38019.66
666.72	37574.96
666.86	37511.77
667.00	37530.49
667.14	37502.40
667.28	37390.06
667.43	37228.56
667.57	37432.19
667.71	37359.63
667.85	37598.37
667.99	37340.91
668.13	37394.74
668.27	37022.59
668.41	36868.12
668.56	36577.89
668.70	36662.15
668.84	36184.68
668.98	36397.67
669.12	36421.08
669.26	36402.35
669.40	36484.27
669.54	37013.23
669.68	37008.55
669.82	36065.31
669.96	36285.33
670.10	35807.86
670.25	36231.49
670.39	36051.27
670.53	36315.75
670.67	35842.96
670.81	36322.77
670.95	35831.26
671.09	35819.56
671.23	35089.31
671.37	35835.94
671.51	35683.81
671.65	35414.65
671.79	35264.85
671.93	35618.27
672.07	35611.25
672.21	34930.16
672.35	35344.43
672.49	34766.32
672.63	34904.41
672.77	35330.39
672.91	34939.52
673.05	34841.21
673.19	34525.24
673.33	34258.42
673.47	34576.73
673.61	34204.59
673.75	34293.53
673.89	34202.25
674.03	33984.58
674.17	34026.71
674.31	33734.14
674.45	33696.69
674.59	33914.36
674.73	33656.90
674.87	33518.81
675.01	33476.68
675.15	33116.24
675.29	33207.52
675.43	33216.88
675.56	33406.47
675.70	33502.43
675.84	33305.82
675.98	31866.39
676.12	32961.76
676.26	32884.53
676.40	32772.18
676.54	32699.62
676.68	32542.81
676.82	32229.18
676.96	32423.44
677.10	32566.21
677.23	32400.04
677.37	32046.62
677.51	32077.04
677.65	32102.79
677.79	31889.80
677.93	31875.76
678.07	31882.78
678.21	31452.12
678.34	31040.18
678.48	31288.28
678.62	31524.68
678.76	31435.74
678.90	31119.76
679.04	31033.16
679.18	31351.48
679.31	30890.39
679.45	30822.51
679.59	30412.92
679.73	30600.16
679.87	30328.66
680.00	30448.03
680.14	30153.12
680.28	30272.49
680.42	30422.28
680.56	29811.40
680.70	30251.42
680.83	29593.73
680.97	29621.82
681.11	29425.22
681.25	28882.21
681.39	29095.20
681.52	28896.25
681.66	29046.05
681.80	28725.39
681.94	28837.74
682.07	28704.33
682.21	28563.90
682.35	28037.28
682.49	28350.91
682.62	28694.97
682.76	28374.31
682.90	28510.07
683.04	28273.67
683.17	28184.73
683.31	27845.35
683.45	27828.97
683.59	27700.24
683.72	27072.98
683.86	27541.08
684.00	27538.74
684.13	27496.61
684.27	27342.14
684.41	27040.21
684.55	27304.69
684.68	26876.37
684.82	26630.62
684.96	26607.21
685.09	26941.91
685.23	26864.67
685.37	27239.15
685.50	27065.96
685.64	26749.98
685.78	26314.64
685.91	26054.84
686.05	25748.23
686.19	25326.94
686.32	25862.92
686.46	25713.13
686.60	25057.78
686.73	25493.12
686.87	25362.04
687.01	25802.07
687.14	25539.93
687.28	25130.33
687.42	25294.17
687.55	24952.45
687.69	25008.62
687.82	24624.78
687.96	24580.31
688.10	24676.27
688.23	24573.28
688.37	24671.59
688.50	24709.04
688.64	24765.21
688.78	24596.69
688.91	24121.56
689.05	24100.50
689.18	24051.34
689.32	23669.84
689.46	24011.56
689.59	23274.29
689.73	23779.84
689.86	23831.33
690.00	23695.58
690.13	23477.91
690.27	23281.31
690.41	23379.61
690.54	22686.81
690.68	23035.55
690.81	22799.16
690.95	22590.85
691.08	22265.52
691.22	22331.05
691.35	22579.15
691.49	22885.76
691.62	22359.14
691.76	22148.49
691.89	22202.32
692.03	21497.82
692.16	21996.35
692.30	22104.02
692.43	21785.71
692.57	21308.24
692.70	21422.92
692.84	21151.42
692.97	21238.02
693.11	21153.76
693.24	20781.62
693.38	20905.66
693.51	20814.38
693.65	20814.38
693.78	20676.29
693.92	20655.23
694.05	20725.44
694.19	20446.92
694.32	20173.08
694.45	20545.22
694.59	20505.43
694.72	20521.82
694.86	20032.65
694.99	20273.72
695.13	19932.00
695.26	19960.09
695.39	19803.27
695.53	19510.71
695.66	19740.08
695.80	19440.49
695.93	19374.95
696.07	19400.70
696.20	19091.75
696.33	18869.40
696.47	18689.18
696.60	18993.45
696.73	19054.30
696.87	18691.52
697.00	18735.99
697.14	18792.16
697.27	18698.54
697.40	18462.15
697.54	18190.64
697.67	18370.86
697.80	18249.16
697.94	17921.48
698.07	17919.14
698.21	17895.74
698.34	17841.90
698.47	17631.26
698.61	17296.56
698.74	17371.46
698.87	17558.70
699.01	17413.59
699.14	17455.72
699.27	17186.55
699.40	17584.44
699.54	17186.55
699.67	17151.45
699.80	17121.02
699.94	16919.73
700.07	16957.18
700.20	16643.55
700.34	16617.80
700.47	16458.65
700.60	16751.21
700.73	16556.95
700.87	16599.08
701.00	16168.42
701.13	16187.14
701.26	15983.52
701.40	16248.00
701.53	15838.41
701.66	15833.72
701.79	15613.71
701.93	15337.53
702.06	15262.63
702.19	15524.77
702.32	15449.88
702.46	15819.68
702.59	15859.47
702.72	15459.24
702.85	15475.62
702.99	15548.18
703.12	15456.90
703.25	15136.24
703.38	14937.30
703.51	14967.73
703.65	14862.40
703.78	14663.46
703.91	14689.20
704.04	14714.95
704.17	14614.30
704.31	14457.49
704.44	14288.97
704.57	14143.86
704.70	14157.90
704.83	14066.62
704.96	14071.30
705.10	13853.63
705.23	13944.91
>>>>>End Processed Spectral Data<<<<<
