SpectraSuite Data File
++++++++++++++++++++++++++++++++++++
Date: Fri Oct 25 11:33:24 EDT 2013
User: price-jones
Dark Spectrum Present: No
Reference Spectrum Present: No
Number of Sampled Component Spectra: 1
Spectrometers: USB2+H05261
Integration Time (usec): 100000 (USB2+H05261)
Spectra Averaged: 1 (USB2+H05261)
Boxcar Smoothing: 0 (USB2+H05261)
Correct for Electrical Dark: No (USB2+H05261)
Strobe/Lamp Enabled: No (USB2+H05261)
Correct for Detector Non-linearity: No (USB2+H05261)
Correct for Stray Light: No (USB2+H05261)
Number of Pixels in Processed Spectrum: 2048
>>>>>Begin Processed Spectral Data<<<<<
365.73	245.76
365.92	245.76
366.12	245.76
366.32	285.55
366.52	147.45
366.72	217.67
366.91	227.03
367.11	180.22
367.31	222.35
367.51	163.84
367.70	217.67
367.90	201.29
368.10	119.37
368.30	182.56
368.49	203.63
368.69	203.63
368.89	170.86
369.09	154.48
369.28	182.56
369.48	208.31
369.68	170.86
369.87	264.48
370.07	248.10
370.27	220.01
370.47	334.70
370.66	533.64
370.86	538.32
371.06	561.73
371.25	559.39
371.45	517.26
371.65	496.19
371.84	613.22
372.04	526.62
372.24	535.98
372.44	578.11
372.63	592.16
372.83	564.07
373.03	580.45
373.22	500.87
373.42	620.24
373.62	638.97
373.81	603.86
374.01	662.37
374.21	697.48
374.40	645.99
374.60	674.07
374.79	620.24
374.99	653.01
375.19	678.76
375.38	634.29
375.58	648.33
375.78	653.01
375.97	552.37
376.17	716.20
376.37	692.80
376.56	650.67
376.76	641.31
376.95	720.88
377.15	713.86
377.35	777.06
377.54	653.01
377.74	716.20
377.93	657.69
378.13	683.44
378.33	751.31
378.52	634.29
378.72	737.27
378.91	699.82
379.11	713.86
379.31	692.80
379.50	727.91
379.70	690.46
379.89	720.88
380.09	812.17
380.28	697.48
380.48	753.65
380.68	758.33
380.87	767.70
381.07	676.41
381.26	760.67
381.46	793.44
381.65	798.12
381.85	748.97
382.04	849.61
382.24	819.19
382.43	849.61
382.63	671.73
382.83	793.44
383.02	844.93
383.22	830.89
383.41	770.04
383.61	800.46
383.80	791.10
384.00	781.74
384.19	863.66
384.39	851.96
384.58	807.48
384.78	884.72
384.97	805.14
385.17	877.70
385.36	875.36
385.56	889.40
385.75	816.85
385.95	849.61
386.14	854.30
386.34	842.59
386.53	889.40
386.72	823.87
386.92	877.70
387.11	854.30
387.31	894.08
387.50	889.40
387.70	877.70
387.89	931.53
388.09	940.90
388.28	978.34
388.48	910.47
388.67	971.32
388.86	950.26
389.06	912.81
389.25	964.30
389.45	908.13
389.64	891.74
389.84	976.00
390.03	903.45
390.22	1004.09
390.42	905.79
390.61	922.17
390.81	1029.84
391.00	936.21
391.19	1013.45
391.39	1064.94
391.58	1064.94
391.78	1083.67
391.97	961.96
392.16	1022.81
392.36	1057.92
392.55	1118.78
392.75	1149.20
392.94	1043.88
393.13	1123.46
393.33	997.07
393.52	1095.37
393.71	1210.06
393.91	1184.31
394.10	1093.03
394.29	1158.57
394.49	1090.69
394.68	1224.10
394.88	1118.78
395.07	1060.26
395.26	1027.50
395.46	1102.39
395.65	1128.14
395.84	1205.38
396.04	1221.76
396.23	1259.21
396.42	1193.67
396.62	1273.25
396.81	1207.72
397.00	1235.80
397.19	1200.69
397.39	1275.59
397.58	1259.21
397.77	1172.61
397.97	1277.93
398.16	1256.87
398.35	1163.25
398.55	1320.06
398.74	1268.57
398.93	1343.47
399.12	1289.64
399.32	1252.19
399.51	1249.85
399.70	1462.83
399.90	1320.06
400.09	1327.08
400.28	1383.26
400.47	1369.21
400.67	1357.51
400.86	1416.02
401.05	1411.34
401.24	1453.47
401.44	1434.75
401.63	1444.11
401.82	1404.32
402.01	1458.15
402.21	1458.15
402.40	1462.83
402.59	1488.58
402.78	1483.90
402.97	1507.30
403.17	1589.22
403.36	1589.22
403.55	1607.95
403.74	1612.63
403.93	1647.74
404.13	1633.69
404.32	1561.14
404.51	1504.96
404.70	1739.02
404.89	1544.75
405.09	1694.55
405.28	1713.27
405.47	1659.44
405.66	1732.00
405.85	1636.03
406.05	1577.52
406.24	1767.10
406.43	1713.27
406.62	1790.51
406.81	1797.53
407.00	1699.23
407.20	1764.76
407.39	1891.15
407.58	1893.49
407.77	1930.94
407.96	1996.48
408.15	1860.73
408.34	1865.41
408.54	1872.43
408.73	1975.41
408.92	1937.96
409.11	2026.90
409.30	1963.71
409.49	2071.37
409.68	1998.82
409.87	1989.46
410.07	2036.27
410.26	2054.99
410.45	1940.30
410.64	2101.80
410.83	2211.81
411.02	2136.91
411.21	2134.57
411.40	2275.00
411.59	2143.93
411.78	2211.81
411.98	2237.55
412.17	2296.07
412.36	2181.38
412.55	2333.51
412.74	2429.48
412.93	2382.67
413.12	2263.30
413.31	2485.65
413.50	2408.41
413.69	2354.58
413.88	2457.56
414.07	2485.65
414.26	2457.56
414.45	2452.88
414.64	2518.42
414.83	2513.74
415.02	2581.61
415.22	2663.53
415.41	2696.30
415.60	2628.42
415.79	2658.85
415.98	2679.91
416.17	2834.39
416.36	2743.11
416.55	2885.88
416.74	2754.81
416.93	2841.41
417.12	2913.97
417.31	2839.07
417.50	2787.58
417.69	2949.08
417.88	2918.65
418.07	2792.26
418.26	2951.42
418.45	2923.33
418.64	3096.53
418.83	3021.63
419.02	3077.80
419.21	3119.93
419.39	3087.17
419.58	3087.17
419.77	3173.77
419.96	3236.96
420.15	3080.14
420.34	3124.62
420.53	3150.36
420.72	3349.31
420.91	3290.79
421.10	3365.69
421.29	3332.92
421.48	3248.66
421.67	3314.20
421.86	3211.22
422.05	3335.26
422.24	3410.16
422.43	3398.46
422.61	3321.22
422.80	3604.42
422.99	3358.67
423.18	3405.48
423.37	3428.88
423.56	3300.16
423.75	3466.33
423.94	3251.00
424.13	3248.66
424.32	3316.54
424.50	3435.91
424.69	3503.78
424.88	3461.65
425.07	3445.27
425.26	3447.61
425.45	3356.33
425.64	3473.36
425.83	3398.46
426.01	3487.40
426.20	3400.80
426.39	3478.04
426.58	3461.65
426.77	3508.46
426.96	3562.30
427.15	3559.95
427.33	3536.55
427.52	3456.97
427.71	3655.92
427.90	3716.77
428.09	3676.98
428.28	3744.86
428.46	3548.25
428.65	3646.55
428.84	3918.06
429.03	3747.20
429.22	3555.27
429.40	3749.54
429.59	3707.41
429.78	3590.38
429.97	3527.19
430.16	3796.35
430.34	3873.59
430.53	3962.53
430.72	3932.10
430.91	3875.93
431.10	3857.20
431.28	4009.34
431.47	3953.16
431.66	3976.57
431.85	4053.81
432.03	4021.04
432.22	4196.58
432.41	3967.21
432.60	4037.42
432.79	4107.64
432.97	4014.02
433.16	4117.00
433.35	4025.72
433.54	4250.41
433.72	4227.01
433.91	4301.90
434.10	4229.35
434.28	4060.83
434.47	4369.78
434.66	4276.16
434.85	4180.20
435.03	4442.34
435.22	4339.35
435.41	4477.44
435.59	4493.83
435.78	4390.84
435.97	4362.76
436.16	4465.74
436.34	4416.59
436.53	4416.59
436.72	4524.26
436.90	4386.16
437.09	4652.98
437.28	4313.61
437.46	4643.62
437.65	4587.45
437.84	4622.56
438.02	4683.41
438.21	4599.15
438.40	4631.92
438.58	4751.29
438.77	4816.82
438.96	4837.89
439.14	4842.57
439.33	4805.12
439.52	4863.63
439.70	4896.40
439.89	4968.96
440.08	5008.75
440.26	5104.71
440.45	5064.92
440.63	5114.07
440.82	5153.86
441.01	5177.26
441.19	5266.21
441.38	5336.42
441.57	5310.68
441.75	5273.23
441.94	5352.81
442.12	5352.81
442.31	5526.00
442.50	5511.96
442.68	5294.29
442.87	5359.83
443.05	5469.83
443.24	5497.92
443.43	5610.26
443.61	5530.69
443.80	5767.08
443.98	5439.40
444.17	5287.27
444.35	5652.39
444.54	5500.26
444.73	5596.22
444.91	5694.52
445.10	5703.89
445.28	5626.65
445.47	5682.82
445.65	5764.74
445.84	5638.35
446.02	5785.80
446.21	5694.52
446.39	5760.06
446.58	5872.40
446.77	5694.52
446.95	5600.90
447.14	5678.14
447.32	5806.87
447.51	5820.91
447.69	5706.23
447.88	5746.02
448.06	5757.72
448.25	5767.08
448.43	5947.30
448.62	5825.59
448.80	5526.00
448.99	5923.90
449.17	5921.56
449.36	5755.38
449.54	5926.24
449.73	6066.67
449.91	6134.54
450.10	6001.13
450.28	6155.61
450.46	6143.91
450.65	6232.85
450.83	6108.80
451.02	6148.59
451.20	6310.08
451.39	6134.54
451.57	6207.10
451.76	6153.27
451.94	6272.64
452.13	6396.68
452.31	6127.52
452.49	6162.63
452.68	6211.78
452.86	6387.32
453.05	6354.55
453.23	6335.83
453.42	6291.36
453.60	6417.75
453.78	6457.54
453.97	6324.13
454.15	6448.18
454.34	6249.23
454.52	6506.69
454.70	6574.56
454.89	6551.16
455.07	6630.74
455.26	6602.65
455.44	6698.61
455.62	6679.89
455.81	6803.94
455.99	6768.83
456.17	6717.34
456.36	6773.51
456.54	6911.60
456.73	6984.16
456.91	6956.07
457.09	7052.03
457.28	7014.59
457.46	6855.43
457.64	6918.62
457.83	7075.44
458.01	7012.24
458.19	7082.46
458.38	7056.72
458.56	7236.94
458.74	7178.42
458.93	7173.74
459.11	7136.29
459.29	7005.22
459.48	7368.01
459.66	7117.57
459.84	7360.98
460.03	7255.66
460.21	7517.80
460.39	7314.17
460.57	7487.37
460.76	7379.71
460.94	7433.54
461.12	7440.56
461.31	7562.27
461.49	7595.04
461.67	7595.04
461.85	7620.78
462.04	7576.31
462.22	8124.00
462.40	7737.81
462.59	7691.00
462.77	7740.15
462.95	7957.82
463.13	7826.75
463.32	7784.62
463.50	7812.71
463.68	7920.37
463.86	8114.64
464.05	7880.58
464.23	7864.20
464.41	8039.74
464.59	7859.52
464.78	8025.70
464.96	8042.08
465.14	8107.62
465.32	8149.75
465.50	8142.72
465.69	8163.79
465.87	8084.21
466.05	8081.87
466.23	8318.26
466.41	8128.68
466.60	8418.91
466.78	8180.17
466.96	8285.50
467.14	8348.69
467.32	8318.26
467.51	8409.54
467.69	8287.84
467.87	8163.79
468.05	8311.24
468.23	8332.31
468.41	8257.41
468.60	8287.84
468.78	8573.38
468.96	8528.91
469.14	8500.83
469.32	8578.06
469.50	8524.23
469.69	8835.52
469.87	8788.71
470.05	8952.55
470.23	8779.35
470.41	8772.33
470.59	8861.27
470.77	8695.09
470.95	8802.75
471.14	9034.47
471.32	8713.81
471.50	9128.09
471.68	9013.40
471.86	9149.15
472.04	9064.89
472.22	9535.34
472.40	9210.01
472.58	9151.49
472.77	9298.95
472.95	9369.16
473.13	9544.70
473.31	9355.12
473.49	9303.63
473.67	9514.28
473.85	9579.81
474.03	9825.57
474.21	9633.64
474.39	9884.08
474.57	9902.81
474.75	9720.24
474.93	10045.58
475.12	9961.32
475.30	10197.71
475.48	10029.20
475.66	10150.90
475.84	10143.88
476.02	10429.43
476.20	10186.01
476.38	10225.80
476.56	10623.69
476.74	10637.73
476.92	10466.88
477.10	10511.35
477.28	10768.80
477.46	10911.58
477.64	10827.32
477.82	11201.80
478.00	11314.15
478.18	11183.08
478.36	11185.42
478.54	11372.66
478.72	11398.41
478.90	11578.63
479.08	11735.45
479.26	11674.59
479.44	11791.62
479.62	11918.01
479.80	11702.68
479.98	11829.07
480.16	12390.80
480.34	12315.90
480.52	12439.95
480.70	12423.56
480.88	12011.63
481.06	12599.10
481.24	12645.91
481.41	12648.26
481.59	12699.75
481.77	12776.98
481.95	12989.97
482.13	13322.33
482.31	12840.18
482.49	13369.14
482.67	13308.29
482.85	13369.14
483.03	13411.27
483.21	13415.95
483.39	13792.78
483.57	13596.17
483.74	13977.68
483.92	14120.45
484.10	13909.80
484.28	14319.40
484.46	14541.75
484.64	14644.73
484.82	14604.94
485.00	14780.48
485.18	14927.94
485.35	14946.66
485.53	15021.56
485.71	15314.13
485.89	15463.92
486.07	15337.53
486.25	15667.55
486.43	15545.84
486.61	16098.20
486.78	15840.75
486.96	15712.02
487.14	16173.10
487.32	16313.53
487.50	16067.78
487.68	16652.91
487.85	16681.00
488.03	16664.61
488.21	17106.98
488.39	17158.47
488.57	17373.80
488.75	17193.58
488.92	17149.11
489.10	17390.18
489.28	17525.93
489.46	17834.88
489.64	18078.30
489.81	17980.00
489.99	18244.48
490.17	18190.64
490.35	18420.02
490.53	18462.15
490.70	19073.03
490.88	18780.46
491.06	18958.34
491.24	19068.34
491.41	18977.06
491.59	19293.04
491.77	19281.33
491.95	19332.82
492.13	19791.57
492.30	19655.82
492.48	19976.47
492.66	20102.86
492.84	19833.70
493.01	20093.50
493.19	20060.73
493.37	20837.79
493.54	20203.50
493.72	20748.85
493.90	20634.16
494.08	20924.39
494.25	20748.85
494.43	21228.66
494.61	21397.18
494.79	21493.14
494.96	21383.13
495.14	21696.77
495.32	21495.48
495.49	21811.45
495.67	21942.52
495.85	22092.32
496.02	22136.79
496.20	22422.33
496.38	22265.52
496.55	22455.10
496.73	22848.31
496.91	23028.53
497.09	23117.47
497.26	22948.95
497.44	22998.10
497.62	22934.91
497.79	23695.58
497.97	23316.42
498.14	23845.38
498.32	23695.58
498.50	24006.87
498.67	24046.66
498.85	24027.94
499.03	23929.64
499.20	24383.70
499.38	24079.43
499.56	24662.22
499.73	24374.34
499.91	24697.33
500.08	24638.82
500.26	24496.05
500.44	24765.21
500.61	24999.26
500.79	24929.05
500.97	25064.80
501.14	25483.75
501.32	25443.96
501.49	25553.97
501.67	25570.35
501.84	25919.09
502.02	25589.08
502.20	25921.43
502.37	25954.20
502.55	25678.02
502.72	25844.20
502.90	25907.39
503.07	26125.06
503.25	25954.20
503.43	25916.75
503.60	26888.07
503.78	26609.55
503.95	26106.34
504.13	26607.21
504.30	27138.51
504.48	26782.75
504.65	27030.85
504.83	27084.68
505.01	27466.19
505.18	27201.71
505.36	27573.85
505.53	27459.16
505.71	27211.07
505.88	27395.97
506.06	27552.79
506.23	27742.37
506.41	27332.78
506.58	27613.64
506.76	28056.00
506.93	28166.01
507.11	28158.99
507.28	28114.52
507.46	28306.44
507.63	28758.16
507.81	28381.34
507.98	28437.51
508.16	28833.06
508.33	28807.31
508.50	28950.09
508.68	29039.03
508.85	28877.53
509.03	29064.77
509.20	29134.99
509.38	29741.19
509.55	29237.97
509.73	29528.20
509.90	29539.90
510.08	29570.33
510.25	29500.11
510.42	29982.26
510.60	29333.93
510.77	30118.01
510.95	30242.06
511.12	30132.06
511.30	30197.59
511.47	30204.61
511.64	30319.30
511.82	30494.84
511.99	30110.99
512.17	30543.99
512.34	30501.86
512.51	30941.88
512.69	30764.00
512.86	30654.00
513.04	30892.73
513.21	30934.86
513.38	31239.13
513.56	31597.23
513.73	30775.70
513.90	31199.34
514.08	31562.12
514.25	31931.93
514.43	31384.24
514.60	31688.51
514.77	31796.18
514.95	32093.43
515.12	31770.43
515.29	31669.79
515.47	32158.96
515.64	31952.99
515.81	32018.53
515.99	32411.74
516.16	32196.41
516.33	32306.41
516.51	32442.17
516.68	32669.20
516.85	32905.59
517.03	32914.95
517.20	32889.21
517.37	32835.38
517.54	32987.51
517.72	32737.07
517.89	33137.30
518.06	33116.24
518.24	32879.85
518.41	32868.14
518.58	33443.91
518.75	33270.72
518.93	33415.83
519.10	33483.70
519.27	33376.04
519.45	33567.96
519.62	34036.07
519.79	33926.07
519.96	34178.84
520.14	33802.02
520.31	33755.21
520.48	34110.97
520.65	33923.72
520.83	34321.62
521.00	34436.30
521.17	34384.81
521.34	34789.72
521.52	34403.53
521.69	34855.26
521.86	34637.59
522.03	35152.51
522.20	34740.57
522.38	35000.37
522.55	35370.18
522.72	34787.38
522.89	35349.11
523.07	35634.66
523.24	35222.72
523.41	35545.72
523.58	35421.67
523.75	35274.21
523.92	35159.53
524.10	35852.33
524.27	35695.51
524.44	35662.74
524.61	35992.76
524.78	36065.31
524.96	36055.95
525.13	36311.07
525.30	36631.72
525.47	36086.38
525.64	36198.73
525.81	36615.34
525.98	36596.62
526.16	36390.65
526.33	36531.08
526.50	36538.10
526.67	36584.91
526.84	36765.14
527.01	36928.97
527.18	36542.78
527.36	36928.97
527.53	36966.42
527.70	36879.82
527.87	37284.73
528.04	37085.79
528.21	37118.56
528.38	37163.03
528.55	37605.39
528.72	37067.06
528.89	37060.04
529.07	37397.08
529.24	37376.01
529.41	37794.97
529.58	37326.86
529.75	37572.62
529.92	37818.38
530.09	37839.44
530.26	37865.19
530.43	38075.84
530.60	38045.41
530.77	37811.35
530.94	38029.02
531.11	37757.52
531.28	38368.40
531.46	38106.26
531.63	38211.59
531.80	38286.48
531.97	38511.17
532.14	38192.86
532.31	38398.83
532.48	38621.18
532.65	38569.69
532.82	38291.16
532.99	38373.08
533.16	38445.64
533.33	38569.69
533.50	38827.15
533.67	39154.82
533.84	38464.36
534.01	38972.26
534.18	39201.63
534.35	39370.15
534.52	39133.76
534.69	39625.27
534.86	39896.77
535.03	38778.00
535.20	39505.90
535.37	39498.88
535.54	39777.40
535.71	39473.13
535.88	39297.59
536.05	39548.03
536.22	39576.12
536.38	40072.31
536.55	39735.27
536.72	39674.42
536.89	39625.27
537.06	39957.63
537.23	40383.60
537.40	40170.61
537.57	39842.94
537.74	40032.52
537.91	40706.60
538.08	40002.10
538.25	39959.97
538.42	40292.32
538.59	40664.47
538.75	39952.94
538.92	40889.16
539.09	40737.02
539.26	40765.11
539.43	40835.33
539.60	40554.46
539.77	40407.01
539.94	41144.28
540.11	40886.82
540.28	40996.82
540.44	41015.55
540.61	41017.89
540.78	40863.41
540.95	41111.51
541.12	40788.52
541.29	41127.89
541.46	41371.31
541.62	41085.76
541.79	41111.51
541.96	40964.06
542.13	41076.40
542.30	41113.85
542.47	41483.66
542.63	41689.62
542.80	41816.01
542.97	41944.74
543.14	42050.06
543.31	42066.45
543.48	42085.17
543.64	42621.16
543.81	42143.69
543.98	42078.15
544.15	42155.39
544.32	41928.36
544.48	42864.57
544.65	42384.76
544.82	42469.02
544.99	42302.84
545.16	42534.56
545.32	42169.43
545.49	42799.04
545.66	42789.67
545.83	43110.33
546.00	42906.70
546.16	42576.69
546.33	42754.57
546.50	42342.63
546.67	42761.59
546.83	42569.66
547.00	42682.01
547.17	42555.62
547.34	42780.31
547.50	43171.18
547.67	43199.27
547.84	42993.30
548.00	43281.19
548.17	43491.83
548.34	43599.50
548.51	43641.63
548.67	43278.85
548.84	43353.74
549.01	42932.45
549.18	43562.05
549.34	43611.20
549.51	43732.91
549.68	43786.74
549.84	43482.47
550.01	43852.28
550.18	43201.61
550.34	43543.33
550.51	44006.75
550.68	43775.04
550.84	43590.14
551.01	43852.28
551.18	43515.24
551.34	44041.86
551.51	43695.46
551.68	43737.59
551.84	43751.63
552.01	43913.13
552.18	44027.82
552.34	43798.44
552.51	44458.48
552.68	44233.78
552.84	44175.27
553.01	44563.80
553.18	44533.37
553.34	44254.85
553.51	44179.95
553.67	44626.99
553.84	44676.15
554.01	44514.65
554.17	44561.46
554.34	44488.90
554.51	44765.09
554.67	44741.68
554.84	44596.57
555.00	44919.56
555.17	44692.53
555.33	44795.51
555.50	44669.12
555.67	45186.38
555.83	44758.06
556.00	45333.84
556.16	45090.42
556.33	45029.57
556.50	44877.43
556.66	45436.82
556.83	45284.68
556.99	45390.01
557.16	45588.95
557.32	45588.95
557.49	45113.83
557.65	44994.46
557.82	45544.48
557.98	45399.37
558.15	45291.71
558.32	45029.57
558.48	45705.98
558.65	45752.79
558.81	45385.33
558.98	45382.99
559.14	45815.99
559.31	45652.15
559.47	45434.48
559.64	45521.08
559.80	45595.98
559.97	45013.18
560.13	45443.84
560.30	45212.13
560.46	45801.94
560.63	45347.88
560.79	46064.08
560.96	46387.08
561.12	45684.92
561.29	45935.35
561.45	46043.02
561.61	46007.91
561.78	45764.49
561.94	46230.26
562.11	45979.82
562.27	45925.99
562.44	46218.56
562.60	46239.62
562.77	46028.98
562.93	45783.22
563.10	45900.25
563.26	46028.98
563.42	46532.19
563.59	46176.43
563.75	46078.13
563.92	46129.62
564.08	45743.43
564.24	46061.74
564.41	46309.84
564.57	46412.82
564.74	46220.90
564.90	46007.91
565.07	46480.70
565.23	46461.97
565.39	46354.31
565.56	46272.39
565.72	46134.30
565.88	46550.91
566.05	46064.08
566.21	46281.75
566.38	46358.99
566.54	46323.88
566.70	46461.97
566.87	46583.68
567.03	46122.60
567.19	46801.35
567.36	46586.02
567.52	46223.24
567.68	46988.60
567.85	46485.38
568.01	46742.84
568.17	46522.83
568.34	46834.12
568.50	46681.98
568.66	46635.17
568.83	46497.08
568.99	46600.07
569.15	47047.11
569.32	46822.42
569.48	46604.75
569.64	46808.37
569.81	46958.17
569.97	46920.72
570.13	46824.76
570.30	46394.10
570.46	46642.20
570.62	46939.44
570.78	46859.87
570.95	47009.66
571.11	47288.18
571.27	46576.66
571.43	46564.96
571.60	47248.39
571.76	46892.63
571.92	46731.14
572.09	46597.73
572.25	46703.05
572.41	46899.65
572.57	46377.72
572.74	47117.32
572.90	46777.95
573.06	47299.89
573.22	46880.93
573.38	47199.24
573.55	47110.30
573.71	47192.22
573.87	47023.70
574.03	46869.23
574.20	47248.39
574.36	47187.54
574.52	46789.65
574.68	47250.74
574.84	47096.26
575.01	47232.01
575.17	46944.12
575.33	47117.32
575.49	46951.15
575.65	47707.14
575.82	47150.09
575.98	47063.49
576.14	47072.85
576.30	47381.80
576.46	47381.80
576.62	47028.38
576.79	47129.03
576.95	46934.76
577.11	47136.05
577.27	46791.99
577.43	47098.60
577.59	47168.82
577.75	46997.96
577.92	47000.30
578.08	47063.49
578.24	46782.63
578.40	47437.98
578.56	47054.13
578.72	47241.37
578.88	47452.02
579.04	47320.95
579.21	47271.80
579.37	47033.07
579.53	47812.46
579.69	47283.50
579.85	47555.00
580.01	47405.21
580.17	47538.62
580.33	47203.92
580.49	47428.62
580.65	47433.30
580.82	47072.85
580.98	47604.16
581.14	46988.60
581.30	47437.98
581.46	47063.49
581.62	47021.36
581.78	47030.72
581.94	47480.11
582.10	47159.45
582.26	47515.22
582.42	47349.04
582.58	47332.65
582.74	47349.04
582.90	47442.66
583.06	47564.37
583.22	47283.50
583.38	47552.66
583.54	47480.11
583.70	47503.51
583.86	47412.23
584.02	47445.00
584.18	47847.57
584.34	47793.74
584.50	47632.24
584.66	47674.37
584.82	47526.92
584.98	47800.76
585.14	47533.94
585.30	47367.76
585.46	47569.05
585.62	47489.47
585.78	47938.85
585.94	47138.39
586.10	47388.83
586.26	47449.68
586.42	47292.86
586.58	47821.83
586.74	47409.89
586.90	47524.58
587.06	47613.52
587.22	47482.45
587.38	47503.51
587.54	47547.98
587.70	48123.75
587.86	47468.40
588.02	47655.65
588.18	47419.25
588.34	47604.16
588.49	47454.36
588.65	47262.44
588.81	47868.64
588.97	47714.16
589.13	47641.60
589.29	47688.42
589.45	47655.65
589.61	47814.80
589.77	47707.14
589.93	47810.12
590.08	47915.45
590.24	47952.90
590.40	47889.70
590.56	48170.57
590.72	48236.10
590.88	48135.46
591.04	47655.65
591.20	47903.74
591.35	47852.25
591.51	48287.59
591.67	48301.64
591.83	48563.78
591.99	47735.23
592.15	47906.08
592.31	47941.19
592.46	47990.34
592.62	47866.30
592.78	47948.21
592.94	48107.37
593.10	48308.66
593.26	48582.50
593.41	48226.74
593.57	48292.27
593.73	48245.46
593.89	48385.89
594.05	48339.08
594.20	48222.06
594.36	48460.79
594.52	48371.85
594.68	48772.08
594.84	48343.77
594.99	48425.68
595.15	48322.70
595.31	48294.61
595.47	48226.74
595.62	48179.93
595.78	48193.97
595.94	48320.36
596.10	47936.51
596.25	48617.61
596.41	48683.14
596.57	47913.11
596.73	48149.50
596.88	48388.24
597.04	48205.67
597.20	48582.50
597.36	48526.33
597.51	48383.55
597.67	48023.11
597.83	48467.81
597.99	48217.38
598.14	48418.66
598.30	48193.97
598.46	48299.30
598.61	49010.82
598.77	48264.19
598.93	48261.85
599.09	48465.47
599.24	48329.72
599.40	48332.06
599.56	48474.84
599.71	48516.96
599.87	48996.77
600.03	48451.43
600.18	48236.10
600.34	48425.68
600.50	48254.82
600.65	48554.41
600.81	48861.02
600.97	49092.74
601.12	48570.80
601.28	48624.63
601.44	48657.40
601.59	48289.93
601.75	48432.71
601.91	48626.97
602.06	48580.16
602.22	48662.08
602.37	48348.45
602.53	48271.21
602.69	48486.54
602.84	48093.33
603.00	48629.31
603.16	48488.88
603.31	48428.02
603.47	48341.42
603.62	48633.99
603.78	48645.69
603.94	48231.42
604.09	48776.76
604.25	48088.65
604.40	48308.66
604.56	48505.26
604.71	48889.11
604.87	48182.27
605.03	47873.32
605.18	48622.29
605.34	48355.47
605.49	48233.76
605.65	48437.39
605.80	48215.04
605.96	48303.98
606.12	48369.51
606.27	48786.13
606.43	48470.15
606.58	48334.40
606.74	48318.02
606.89	47863.96
607.05	48692.50
607.20	48605.91
607.36	48219.72
607.51	48313.34
607.67	48044.18
607.82	48154.18
607.98	47948.21
608.13	48198.65
608.29	48163.54
608.44	48308.66
608.60	48044.18
608.75	47955.24
608.91	48095.67
609.06	48135.46
609.22	48772.08
609.37	48149.50
609.53	48289.93
609.68	48381.21
609.84	48074.60
609.99	48086.31
610.15	48334.40
610.30	48151.84
610.46	48184.61
610.61	47934.17
610.76	48421.00
610.92	47873.32
611.07	48282.91
611.23	47934.17
611.38	47957.58
611.54	48062.90
611.69	48325.04
611.84	48135.46
612.00	47742.25
612.15	48062.90
612.31	47999.71
612.46	48079.28
612.62	47980.98
612.77	47995.03
612.92	47964.60
613.08	47990.34
613.23	48161.20
613.39	47690.76
613.54	47751.61
613.69	47873.32
613.85	47714.16
614.00	47636.92
614.15	47721.18
614.31	47325.63
614.46	47819.49
614.62	47906.08
614.77	47988.00
614.92	47711.82
615.08	47653.31
615.23	47751.61
615.38	48238.44
615.54	47430.96
615.69	47793.74
615.84	47824.17
616.00	47646.29
616.15	47903.74
616.30	47723.52
616.46	47475.43
616.61	47445.00
616.76	47767.99
616.92	47173.50
617.07	47517.56
617.22	47686.07
617.37	47433.30
617.53	47182.86
617.68	47290.52
617.83	47519.90
617.99	47627.56
618.14	47477.77
618.29	47662.67
618.45	47442.66
618.60	47105.62
618.75	47196.90
618.90	47224.99
619.06	47033.07
619.21	47166.48
619.36	47281.16
619.51	47100.94
619.67	47026.04
619.82	47173.50
619.97	47269.46
620.12	47093.92
620.28	46794.33
620.43	47697.78
620.58	47154.77
620.73	47049.45
620.89	47672.03
621.04	47248.39
621.19	47239.03
621.34	47119.66
621.49	47185.20
621.65	47304.57
621.80	47159.45
621.95	47056.47
622.10	47129.03
622.25	46932.42
622.41	46677.30
622.56	46717.09
622.71	47114.98
622.86	46918.38
623.01	47187.54
623.16	46831.78
623.32	46775.61
623.47	46972.21
623.62	46948.81
623.77	46777.95
623.92	46710.07
624.07	46965.19
624.23	46838.80
624.38	46679.64
624.53	46361.33
624.68	46047.70
624.83	46312.18
624.98	46817.74
625.13	46476.02
625.29	46265.37
625.44	46672.62
625.59	46595.38
625.74	46586.02
625.89	45897.91
626.04	46272.39
626.19	46309.84
626.34	45879.18
626.49	45867.48
626.65	46174.09
626.80	46279.41
626.95	45897.91
627.10	45766.84
627.25	45902.59
627.40	46150.68
627.55	46038.34
627.70	46206.86
627.85	46361.33
628.00	46050.04
628.15	45986.85
628.30	45897.91
628.45	45846.41
628.60	45652.15
628.76	45649.81
628.91	45563.21
629.06	45972.80
629.21	45502.35
629.36	45542.14
629.51	45614.70
629.66	46099.19
629.81	45773.86
629.96	46064.08
630.11	46256.01
630.26	45223.83
630.41	45560.87
630.56	45741.09
630.71	45813.65
630.86	45329.16
631.01	45059.99
631.16	45345.54
631.31	45315.11
631.46	45343.20
631.61	45666.19
631.76	45673.21
631.91	45198.09
632.06	45759.81
632.21	45610.02
632.36	45844.07
632.51	45160.64
632.66	45640.45
632.81	45130.21
632.96	45497.67
633.10	45027.23
633.25	45177.02
633.40	45064.67
633.55	45270.64
633.70	45474.27
633.85	44921.90
634.00	44659.76
634.15	45326.81
634.30	44837.64
634.45	44978.07
634.60	45141.91
634.75	44751.04
634.90	44868.07
635.05	45134.89
635.19	44924.24
635.34	45272.98
635.49	45209.79
635.64	45233.19
635.79	44952.33
635.94	45109.14
636.09	45029.57
636.24	45003.82
636.39	44903.18
636.53	44982.76
636.68	44392.94
636.83	44451.45
636.98	44472.52
637.13	44224.42
637.28	44659.76
637.43	44299.32
637.57	44605.93
637.72	44538.05
637.87	44554.44
638.02	44603.59
638.17	44566.14
638.32	44161.23
638.46	44039.52
638.61	44002.07
638.76	44144.84
638.91	43952.92
639.06	43976.33
639.20	43915.47
639.35	44238.47
639.50	44137.82
639.65	44095.69
639.80	44313.36
639.94	44257.19
640.09	44252.51
640.24	44378.90
640.39	43943.56
640.54	43784.40
640.68	43899.09
640.83	44123.78
640.98	43793.76
641.13	43814.83
641.27	44346.13
641.42	43828.87
641.57	43681.42
641.72	43945.90
641.86	43941.22
642.01	43526.94
642.16	43882.70
642.31	43210.97
642.45	43681.42
642.60	43606.52
642.75	43672.06
642.90	43995.05
643.04	43178.20
643.19	43564.39
643.34	43559.71
643.48	43026.07
643.63	43428.64
643.78	43615.88
643.93	43599.50
644.07	43688.44
644.22	43405.23
644.37	43414.60
644.51	43423.96
644.66	43124.37
644.81	43304.59
644.95	43409.92
645.10	43061.18
645.25	43107.99
645.39	42916.06
645.54	43042.45
645.69	42986.28
645.83	42710.10
645.98	42616.47
646.13	43157.14
646.27	43185.22
646.42	42953.51
646.57	42794.36
646.71	42983.94
646.86	43175.86
647.00	43194.59
647.15	42862.23
647.30	42887.98
647.44	42976.92
647.59	42789.67
647.74	42529.87
647.88	42916.06
648.03	42850.53
648.17	43302.25
648.32	42869.25
648.47	42703.07
648.61	42239.65
648.76	42941.81
648.90	42506.47
649.05	42775.63
649.20	42478.38
649.34	42263.05
649.49	42382.42
649.63	42787.33
649.78	42808.40
649.92	42794.36
650.07	43021.39
650.21	42724.14
650.36	43021.39
650.51	42419.87
650.65	42782.65
650.80	42621.16
650.94	42649.24
651.09	42366.04
651.23	41766.86
651.38	42003.25
651.52	41825.37
651.67	42007.94
651.81	42220.92
651.96	42057.09
652.10	41954.10
652.25	41387.69
652.39	42181.13
652.54	42061.77
652.68	41808.99
652.83	41869.84
652.97	41956.44
653.12	42204.54
653.26	41694.30
653.41	41841.76
653.55	41816.01
653.70	42043.04
653.84	41942.40
653.99	41734.09
654.13	42141.35
654.27	41797.29
654.42	42057.09
654.56	41703.67
654.71	42206.88
654.85	41858.14
655.00	41951.76
655.14	41596.00
655.29	42157.73
655.43	41677.92
655.57	41418.12
655.72	40921.93
655.86	41322.16
656.01	41343.22
656.15	40809.58
656.30	41420.46
656.44	41792.61
656.58	41324.50
656.73	41579.62
656.87	41165.34
657.01	41043.63
657.16	41427.48
657.30	41308.11
657.45	41287.05
657.59	40900.86
657.73	40870.43
657.88	40760.43
658.02	41113.85
658.16	41020.23
658.31	41038.95
658.45	41249.60
658.60	41247.26
658.74	41060.02
658.88	40641.06
659.03	40762.77
659.17	40407.01
659.31	40847.03
659.46	40774.47
659.60	40636.38
659.74	40156.57
659.89	40163.59
660.03	40374.24
660.17	40582.55
660.32	40493.61
660.46	40502.97
660.60	40044.23
660.74	39978.69
660.89	40430.41
661.03	40062.95
661.17	39622.93
661.32	40208.06
661.46	39903.79
661.60	40107.42
661.74	39323.34
661.89	39253.12
662.03	39936.56
662.17	39681.44
662.31	39576.12
662.46	39721.23
662.60	39508.24
662.74	39110.35
662.88	39283.55
663.03	39438.03
663.17	39264.83
663.31	39086.95
663.45	39332.70
663.60	39185.25
663.74	39131.42
663.88	39199.29
664.02	39065.88
664.17	39299.94
664.31	39056.52
664.45	39023.75
664.59	38890.34
664.73	38717.14
664.88	38866.94
665.02	38410.53
665.16	38534.58
665.30	38773.31
665.44	38497.13
665.59	38293.50
665.73	38195.20
665.87	37874.55
666.01	38866.94
666.15	38316.91
666.29	38078.18
666.44	38326.27
666.58	38120.31
666.72	37682.62
666.86	38274.78
667.00	37464.96
667.14	38003.28
667.28	37993.92
667.43	38005.62
667.57	38120.31
667.71	37874.55
667.85	37879.23
667.99	37930.72
668.13	37387.72
668.27	37130.26
668.41	37085.79
668.56	36865.78
668.70	37074.09
668.84	37132.60
668.98	36933.65
669.12	36891.52
669.26	37177.07
669.40	36821.31
669.54	37036.64
669.68	37088.13
669.82	36561.51
669.96	36615.34
670.10	36250.22
670.25	36327.45
670.39	36442.14
670.53	36500.65
670.67	36507.68
670.81	36203.41
670.95	36243.20
671.09	36273.62
671.23	36175.32
671.37	36006.80
671.51	36107.44
671.65	35924.88
671.79	35859.35
671.93	35821.90
672.07	35637.00
672.21	35480.18
672.35	35370.18
672.49	35421.67
672.63	35658.06
672.77	35470.82
672.91	35501.25
673.05	35601.89
673.19	35246.13
673.33	34518.22
673.47	35042.50
673.61	34785.04
673.75	34918.45
673.89	35028.46
674.03	34789.72
674.17	34394.17
674.31	34143.74
674.45	34153.10
674.59	34103.95
674.73	34277.15
674.87	34356.72
675.01	34078.20
675.15	33479.02
675.29	33553.92
675.43	34010.32
675.56	33797.34
675.70	33359.66
675.84	33319.87
675.98	32631.75
676.12	33350.29
676.26	33509.45
676.40	33537.54
676.54	32835.38
676.68	33015.60
676.82	32320.46
676.96	32690.26
677.10	32912.61
677.23	32683.24
677.37	32744.09
677.51	32517.06
677.65	31765.75
677.79	32315.78
677.93	32301.73
678.07	32046.62
678.21	31999.80
678.34	31721.28
678.48	31510.63
678.62	31667.45
678.76	31620.64
678.90	31344.45
679.04	31475.52
679.18	31215.72
679.31	31077.63
679.45	30991.03
679.59	30644.63
679.73	30782.73
679.87	30632.93
680.00	30686.76
680.14	30724.21
680.28	30855.28
680.42	30810.81
680.56	30242.06
680.70	30235.04
680.83	30047.80
680.97	30003.33
681.11	29935.45
681.25	29673.31
681.39	29532.88
681.52	29844.17
681.66	29450.96
681.80	29184.14
681.94	28893.91
682.07	29043.71
682.21	29235.63
682.35	28919.66
682.49	28936.04
682.62	29008.60
682.76	29333.93
682.90	28507.72
683.04	28500.70
683.17	28538.15
683.31	28194.09
683.45	28149.62
683.59	28229.20
683.72	27974.08
683.86	27594.92
684.00	28051.32
684.13	27707.26
684.27	27253.20
684.41	27412.35
684.55	27608.96
684.68	27508.32
684.82	27269.58
684.96	27229.79
685.09	27154.90
685.23	26991.06
685.37	27484.91
685.50	27180.64
685.64	26852.97
685.78	26565.08
685.91	26326.35
686.05	26071.23
686.19	26195.28
686.32	26263.15
686.46	25860.58
686.60	25415.88
686.73	25972.92
686.87	26127.40
687.01	25975.27
687.14	25855.90
687.28	25710.78
687.42	25385.45
687.55	25525.88
687.69	25565.67
687.82	25193.53
687.96	24973.52
688.10	25046.07
688.23	24945.43
688.37	24938.41
688.50	24936.07
688.64	24931.39
688.78	24886.92
688.91	24407.11
689.05	24577.97
689.18	24236.25
689.32	23630.05
689.46	23924.96
689.59	23777.50
689.73	24109.86
689.86	23805.59
690.00	23843.04
690.13	23854.74
690.27	23484.94
690.41	23569.19
690.54	23248.54
690.68	23763.46
690.81	23103.43
690.95	23194.71
691.08	22988.74
691.22	22761.71
691.35	22981.72
691.49	22815.54
691.62	22941.93
691.76	22494.89
691.89	22366.16
692.03	21874.65
692.16	22005.72
692.30	22232.75
692.43	22022.10
692.57	21678.04
692.70	21685.06
692.84	21827.84
692.97	21364.41
693.11	21345.69
693.24	21235.68
693.38	21097.59
693.51	21312.92
693.65	21200.57
693.78	20879.92
693.92	20676.29
694.05	20884.60
694.19	20624.80
694.32	20741.83
694.45	20912.69
694.59	20786.30
694.72	20903.32
694.86	20802.68
694.99	20353.30
695.13	20161.37
695.26	20098.18
695.39	19852.42
695.53	19901.58
695.66	20196.48
695.80	19878.17
695.93	19466.24
696.07	19461.55
696.20	19372.61
696.33	19307.08
696.47	19066.00
696.60	19126.86
696.73	19117.50
696.87	19140.90
697.00	19110.47
697.14	18768.76
697.27	18841.31
697.40	18466.83
697.54	18560.45
697.67	18485.55
697.80	18696.20
697.94	18398.95
698.07	18143.83
698.21	18090.00
698.34	18120.43
698.47	18192.98
698.61	17811.48
698.74	17879.35
698.87	17905.10
699.01	17640.62
699.14	17584.44
699.27	17640.62
699.40	17591.47
699.54	17493.16
699.67	17664.02
699.80	17451.03
699.94	16877.60
700.07	17266.13
700.20	17193.58
700.34	16624.83
700.47	16851.86
700.60	16945.48
700.73	16716.11
700.87	16425.88
701.00	16460.99
701.13	16116.93
701.26	16032.67
701.40	16093.52
701.53	15995.22
701.66	16173.10
701.79	16301.83
701.93	15770.53
702.06	15578.61
702.19	15707.34
702.32	15815.00
702.46	15751.81
702.59	15606.69
702.72	15590.31
702.85	15492.01
702.99	15466.26
703.12	15365.62
703.25	15389.02
703.38	15154.97
703.51	15002.83
703.65	15070.71
703.78	14897.51
703.91	14888.15
704.04	14609.62
704.17	14436.42
704.31	14420.04
704.44	14663.46
704.57	14801.55
704.70	14396.64
704.83	14427.06
704.96	14017.47
705.10	14340.46
705.23	14085.34
>>>>>End Processed Spectral Data<<<<<
