SpectraSuite Data File
++++++++++++++++++++++++++++++++++++
Date: Fri Oct 25 10:43:52 EDT 2013
User: price-jones
Dark Spectrum Present: No
Reference Spectrum Present: No
Number of Sampled Component Spectra: 1
Spectrometers: USB2+H05261
Integration Time (usec): 100000 (USB2+H05261)
Spectra Averaged: 1 (USB2+H05261)
Boxcar Smoothing: 0 (USB2+H05261)
Correct for Electrical Dark: No (USB2+H05261)
Strobe/Lamp Enabled: No (USB2+H05261)
Correct for Detector Non-linearity: No (USB2+H05261)
Correct for Stray Light: No (USB2+H05261)
Number of Pixels in Processed Spectrum: 2048
>>>>>Begin Processed Spectral Data<<<<<
365.73	234.05
365.92	234.05
366.12	234.05
366.32	95.96
366.52	9.36
366.72	35.11
366.91	46.81
367.11	0.00
367.31	0.00
367.51	9.36
367.70	46.81
367.90	42.13
368.10	14.04
368.30	46.81
368.49	51.49
368.69	81.92
368.89	0.00
369.09	0.00
369.28	58.51
369.48	9.36
369.68	23.41
369.87	152.13
370.07	114.69
370.27	121.71
370.47	191.92
370.66	379.17
370.86	404.91
371.06	409.59
371.25	383.85
371.45	442.36
371.65	418.96
371.84	411.93
372.04	435.34
372.24	451.72
372.44	531.30
372.63	603.86
372.83	519.60
373.03	442.36
373.22	463.43
373.42	554.71
373.62	566.41
373.81	592.16
374.01	528.96
374.21	610.88
374.40	561.73
374.60	629.60
374.79	613.22
374.99	582.79
375.19	629.60
375.38	571.09
375.58	653.01
375.78	660.03
375.97	585.13
376.17	744.29
376.37	629.60
376.56	631.94
376.76	575.77
376.95	603.86
377.15	624.92
377.35	671.73
377.54	645.99
377.74	657.69
377.93	638.97
378.13	601.52
378.33	631.94
378.52	575.77
378.72	720.88
378.91	713.86
379.11	650.67
379.31	657.69
379.50	634.29
379.70	669.39
379.89	734.93
380.09	716.20
380.28	655.35
380.48	685.78
380.68	681.10
380.87	690.46
381.07	737.27
381.26	697.48
381.46	674.07
381.65	683.44
381.85	664.71
382.04	753.65
382.24	681.10
382.43	725.57
382.63	706.84
382.83	685.78
383.02	741.95
383.22	781.74
383.41	788.76
383.61	737.27
383.80	844.93
384.00	748.97
384.19	763.01
384.39	805.14
384.58	821.53
384.78	777.06
384.97	793.44
385.17	805.14
385.36	772.38
385.56	772.38
385.75	823.87
385.95	866.00
386.14	856.64
386.34	854.30
386.53	833.23
386.72	802.80
386.92	922.17
387.11	961.96
387.31	936.21
387.50	877.70
387.70	896.43
387.89	908.13
388.09	891.74
388.28	861.32
388.48	896.43
388.67	1022.81
388.86	926.85
389.06	947.92
389.25	1018.13
389.45	1022.81
389.64	959.62
389.84	966.64
390.03	947.92
390.22	1064.94
390.42	1055.58
390.61	999.41
390.81	1090.69
391.00	1097.71
391.19	1121.12
391.39	1128.14
391.58	1097.71
391.78	1095.37
391.97	1095.37
392.16	978.34
392.36	1064.94
392.55	1064.94
392.75	950.26
392.94	987.71
393.13	1018.13
393.33	1001.75
393.52	1048.56
393.71	1132.82
393.91	1076.65
394.10	1118.78
394.29	1263.89
394.49	1214.74
394.68	1235.80
394.88	1308.36
395.07	1301.34
395.26	1313.04
395.46	1277.93
395.65	1186.65
395.84	1259.21
396.04	1224.10
396.23	1184.31
396.42	1153.88
396.62	1233.46
396.81	1224.10
397.00	1240.48
397.19	1324.74
397.39	1465.18
397.58	1500.28
397.77	1371.55
397.97	1373.89
398.16	1579.86
398.35	1416.02
398.55	1387.94
398.74	1521.35
398.93	1577.52
399.12	1528.37
399.32	1483.90
399.51	1568.16
399.70	1664.12
399.90	1509.65
400.09	1664.12
400.28	1596.25
400.47	1650.08
400.67	1668.80
400.86	1685.19
401.05	1734.34
401.24	1834.98
401.44	1795.19
401.63	1717.95
401.82	1699.23
402.01	1769.44
402.21	1776.47
402.40	1806.89
402.59	1769.44
402.78	1823.28
402.97	1839.66
403.17	1830.30
403.36	1907.54
403.55	1930.94
403.74	1926.26
403.93	1867.75
404.13	1930.94
404.32	1874.77
404.51	1935.62
404.70	1991.80
404.89	1994.14
405.09	2071.37
405.28	2057.33
405.47	1980.09
405.66	2113.50
405.85	2146.27
406.05	2010.52
406.24	1959.03
406.43	2050.31
406.62	2099.46
406.81	2141.59
407.00	2083.08
407.20	2054.99
407.39	2204.78
407.58	2279.68
407.77	2282.02
407.96	2354.58
408.15	2333.51
408.34	2286.70
408.54	2450.54
408.73	2368.62
408.92	2396.71
409.11	2406.07
409.30	2422.45
409.49	2298.41
409.68	2333.51
409.87	2396.71
410.07	2464.58
410.26	2368.62
410.45	2509.05
410.64	2462.24
410.83	2644.81
411.02	2576.93
411.21	2747.79
411.40	2619.06
411.59	2738.43
411.78	2614.38
411.98	2724.38
412.17	2574.59
412.36	2696.30
412.55	2810.98
412.74	2892.90
412.93	2916.31
413.12	2778.22
413.31	3009.93
413.50	2913.97
413.69	2874.18
413.88	3021.63
414.07	2930.35
414.26	3033.33
414.45	3204.19
414.64	3075.46
414.83	3049.72
415.02	3117.59
415.22	3133.98
415.41	3141.00
415.60	3052.06
415.79	3335.26
415.98	3494.42
416.17	3321.22
416.36	3351.65
416.55	3372.71
416.74	3426.54
416.93	3365.69
417.12	3447.61
417.31	3396.12
417.50	3281.43
417.69	3604.42
417.88	3506.12
418.07	3456.97
418.26	3419.52
418.45	3595.06
418.64	3700.39
418.83	3662.94
419.02	3754.22
419.21	3648.90
419.39	3794.01
419.58	3702.73
419.77	3637.19
419.96	3754.22
420.15	3723.79
420.34	3721.45
420.53	3733.15
420.72	3936.78
420.91	4056.15
421.10	4077.21
421.29	4025.72
421.48	3882.95
421.67	3948.48
421.86	3913.38
422.05	3899.33
422.24	3985.93
422.43	3864.22
422.61	3971.89
422.80	4095.94
422.99	4119.34
423.18	3988.27
423.37	4007.00
423.56	3976.57
423.75	4070.19
423.94	3847.84
424.13	3831.46
424.32	3936.78
424.50	4009.34
424.69	4194.24
424.88	4065.51
425.07	4009.34
425.26	3953.16
425.45	4060.83
425.64	3978.91
425.83	4142.75
426.01	4077.21
426.20	4145.09
426.39	4121.68
426.58	3988.27
426.77	4067.85
426.96	4049.13
427.15	3948.48
427.33	4311.27
427.52	4299.56
427.71	4393.19
427.90	4248.07
428.09	4236.37
428.28	4301.90
428.46	4227.01
428.65	4290.20
428.84	4365.10
429.03	4386.16
429.22	4053.81
429.40	4248.07
429.59	4191.90
429.78	3913.38
429.97	4009.34
430.16	3983.59
430.34	4161.47
430.53	4374.46
430.72	4196.58
430.91	4098.28
431.10	4360.42
431.28	4681.07
431.47	4807.46
431.66	4664.69
431.85	4517.23
432.03	4620.22
432.22	4592.13
432.41	4767.67
432.60	4709.16
432.79	4961.94
432.97	4943.21
433.16	4582.77
433.35	4835.55
433.54	4671.71
433.72	4779.37
433.91	4741.93
434.10	4802.78
434.28	4915.12
434.47	4990.02
434.66	5167.90
434.85	5088.32
435.03	5123.43
435.22	4870.65
435.41	5158.54
435.59	5181.95
435.78	5170.24
435.97	5394.93
436.16	5327.06
436.34	5287.27
436.53	5221.74
436.72	5423.02
436.90	5308.34
437.09	5348.12
437.28	5305.99
437.46	5369.19
437.65	5298.97
437.84	5317.70
438.02	5221.74
438.21	5277.91
438.40	5305.99
438.58	5460.47
438.77	5781.12
438.96	5497.92
439.14	5687.50
439.33	5678.14
439.52	5722.61
439.70	5783.46
439.89	5760.06
440.08	5820.91
440.26	5863.04
440.45	5823.25
440.63	5954.32
440.82	5912.19
441.01	5968.37
441.19	6111.14
441.38	6377.96
441.57	6267.95
441.75	6338.17
441.94	6539.46
442.12	6417.75
442.31	6530.09
442.50	6544.14
442.68	6483.28
442.87	6356.90
443.05	6516.05
443.24	6614.35
443.43	6593.29
443.61	6518.39
443.80	6911.60
443.98	6518.39
444.17	6443.49
444.35	6651.80
444.54	6801.60
444.73	6918.62
444.91	6588.61
445.10	6579.25
445.28	6780.53
445.47	6429.45
445.65	6532.44
445.84	6696.27
446.02	6775.85
446.21	6799.26
446.39	6799.26
446.58	6855.43
446.77	7016.93
446.95	6654.14
447.14	6754.79
447.32	6925.65
447.51	6981.82
447.69	6670.53
447.88	6991.18
448.06	6862.45
448.25	7000.54
448.43	6881.18
448.62	6974.80
448.80	6970.12
448.99	6986.50
449.17	7239.28
449.36	6995.86
449.54	7218.21
449.73	7218.21
449.91	7351.62
450.10	7234.60
450.28	7417.16
450.46	7445.24
450.65	7342.26
450.83	7410.14
451.02	7396.09
451.20	7339.92
451.39	7503.76
451.57	7396.09
451.76	7391.41
451.94	7447.58
452.13	7372.69
452.31	7342.26
452.49	7300.13
452.68	7290.77
452.86	7325.88
453.05	7456.95
453.23	7527.16
453.42	7517.80
453.60	7442.90
453.78	7517.80
453.97	7438.22
454.15	7595.04
454.34	7590.36
454.52	7728.45
454.70	7667.60
454.89	7887.61
455.07	7812.71
455.26	7744.83
455.44	7744.83
455.62	7873.56
455.81	8004.63
455.99	8112.30
456.17	8023.36
456.36	8149.75
456.54	8070.17
456.73	8100.59
456.91	8400.18
457.09	8285.50
457.28	8545.30
457.46	8175.49
457.64	8297.20
457.83	8482.10
458.01	8322.94
458.19	8322.94
458.38	8196.56
458.56	8362.73
458.74	8664.66
458.93	8496.14
459.11	8519.55
459.29	8285.50
459.48	8573.38
459.66	8573.38
459.84	8727.86
460.03	8901.06
460.21	8552.32
460.39	8718.50
460.57	8667.00
460.76	8917.44
460.94	8720.84
461.12	8856.59
461.31	8805.10
461.49	8821.48
461.67	8769.99
461.85	9188.94
462.04	9046.17
462.22	9202.99
462.40	9273.20
462.59	9163.20
462.77	9071.92
462.95	9118.73
463.13	9128.09
463.32	8938.51
463.50	9282.56
463.68	8992.34
463.86	9284.91
464.05	9132.77
464.23	9158.52
464.41	9240.44
464.59	9142.13
464.78	9528.32
464.96	9329.38
465.14	9441.72
465.32	9418.32
465.50	9437.04
465.69	9556.41
465.87	9516.62
466.05	9563.43
466.23	9434.70
466.41	9415.98
466.60	9638.33
466.78	9364.48
466.96	9451.08
467.14	9617.26
467.32	9638.33
467.51	9696.84
467.69	9415.98
467.87	9603.22
468.05	9909.83
468.23	9533.00
468.41	9645.35
468.60	9816.21
468.78	9954.30
468.96	9816.21
469.14	9853.66
469.32	9830.25
469.50	9888.76
469.69	10122.82
469.87	9844.29
470.05	9949.62
470.23	9935.57
470.41	10054.94
470.59	10150.90
470.77	9921.53
470.95	10214.10
471.14	10373.25
471.32	10045.58
471.50	10509.01
471.68	10654.12
471.86	10459.85
472.04	10813.28
472.22	10857.75
472.40	10588.58
472.58	10595.61
472.77	10696.25
472.95	10743.06
473.13	11068.39
473.31	10654.12
473.49	10794.55
473.67	10750.08
473.85	10867.11
474.03	11283.72
474.21	11253.30
474.39	11463.94
474.57	11218.19
474.75	11421.81
474.93	11487.35
475.12	11262.66
475.30	11559.91
475.48	11510.75
475.66	11576.29
475.84	11583.31
476.02	11655.87
476.20	11948.43
476.38	11910.99
476.56	11976.52
476.74	11873.54
476.92	11999.93
477.10	11941.41
477.28	12489.10
477.46	12301.86
477.64	12645.91
477.82	12603.78
478.00	12816.77
478.18	12725.49
478.36	12823.80
478.54	13027.42
478.72	12826.14
478.90	13132.75
479.08	13235.73
479.26	13329.35
479.44	13310.63
479.62	13619.58
479.80	13628.94
479.98	13699.16
480.16	13902.78
480.34	13923.85
480.52	14143.86
480.70	14033.85
480.88	13937.89
481.06	14134.50
481.24	14338.12
481.41	14516.00
481.59	14801.55
481.77	14824.95
481.95	14677.50
482.13	14932.62
482.31	14977.09
482.49	15349.23
482.67	15166.67
482.85	15477.96
483.03	15330.51
483.21	15550.52
483.39	15826.70
483.57	15655.84
483.74	16093.52
483.92	15967.13
484.10	16032.67
484.28	16210.55
484.46	16423.54
484.64	16655.25
484.82	16269.06
485.00	16463.33
485.18	16716.11
485.35	16917.39
485.53	16393.11
485.71	16400.13
485.89	16678.66
486.07	17032.08
486.25	16947.82
486.43	17167.83
486.61	17490.82
486.78	17586.79
486.96	17694.45
487.14	17972.97
487.32	18176.60
487.50	18429.38
487.68	18539.38
487.85	18705.56
488.03	19042.60
488.21	18977.06
488.39	19028.56
488.57	18824.93
488.75	19087.07
488.92	19564.54
489.10	19576.24
489.28	20079.46
489.46	20065.41
489.64	19969.45
489.81	20837.79
489.99	20718.42
490.17	20718.42
490.35	20891.62
490.53	20673.95
490.70	21010.99
490.88	21076.52
491.06	21312.92
491.24	21333.98
491.41	21118.65
491.59	21198.23
491.77	21404.20
491.95	21551.65
492.13	21729.53
492.30	22061.89
492.48	22059.55
492.66	21996.35
492.84	22211.68
493.01	22412.97
493.19	22342.75
493.37	22700.86
493.54	22820.22
493.72	22965.34
493.90	23300.03
494.08	23501.32
494.25	23583.24
494.43	23765.80
494.61	23836.02
494.79	23976.45
494.96	23660.48
495.14	24327.53
495.32	24023.26
495.49	24264.33
495.67	24360.30
495.85	24746.48
496.02	24980.54
496.20	24879.89
496.38	24975.86
496.55	25233.32
496.73	25577.37
496.91	25273.10
497.09	25467.37
497.26	25766.96
497.44	25560.99
497.62	25816.11
497.79	25993.99
497.97	25535.24
498.14	25755.26
498.32	26239.75
498.50	26204.64
498.67	26469.12
498.85	26574.44
499.03	26618.91
499.20	26761.69
499.38	26871.69
499.56	27314.05
499.73	27522.36
499.91	27292.99
500.08	27094.04
500.26	26843.60
500.44	27157.24
500.61	26955.95
500.79	27077.66
500.97	27438.10
501.14	27838.33
501.32	27576.19
501.49	27768.12
501.67	27875.78
501.84	27840.67
502.02	28067.70
502.20	28271.33
502.37	28374.31
502.55	28388.36
502.72	28327.50
502.90	28343.89
503.07	28500.70
503.25	29024.98
503.43	28484.32
503.60	28205.80
503.78	28900.94
503.95	28683.27
504.13	29156.05
504.30	28891.57
504.48	29467.34
504.65	29289.46
504.83	29820.77
505.01	29961.20
505.18	29596.07
505.36	29923.75
505.53	30110.99
505.71	30050.14
505.88	30155.46
506.06	30389.52
506.23	30174.19
506.41	30433.99
506.58	30094.61
506.76	30473.78
506.93	30672.72
507.11	30511.22
507.28	30312.28
507.46	30412.92
507.63	30548.67
507.81	30969.97
507.98	30471.43
508.16	30904.43
508.33	31239.13
508.50	31524.68
508.68	31274.24
508.85	31800.86
509.03	31747.03
509.20	31772.77
509.38	31510.63
509.55	31707.24
509.73	31945.97
509.90	31938.95
510.08	31997.46
510.25	31983.42
510.42	32027.89
510.60	32503.02
510.77	32376.63
510.95	32868.14
511.12	32538.13
511.30	32713.67
511.47	33280.08
511.64	33127.94
511.82	33081.13
511.99	32725.37
512.17	33106.88
512.34	32804.95
512.51	32701.96
512.69	33268.37
512.86	33209.86
513.04	33312.84
513.21	33378.38
513.38	33184.12
513.56	33436.89
513.73	33247.31
513.90	33855.85
514.08	33830.10
514.25	33841.81
514.43	33724.78
514.60	33701.37
514.77	33876.91
514.95	34380.13
515.12	33954.15
515.29	34272.46
515.47	34658.65
515.64	34443.32
515.81	34349.70
515.99	34216.29
516.16	34419.92
516.33	34125.01
516.51	33916.70
516.68	33563.28
516.85	33919.04
517.03	33989.26
517.20	34162.46
517.37	34789.72
517.54	35054.20
517.72	34569.71
517.89	34457.37
518.06	34391.83
518.24	34719.51
518.41	34920.79
518.58	35150.17
518.75	35007.39
518.93	35424.01
519.10	35227.40
519.27	35866.37
519.45	36072.34
519.62	35587.85
519.79	35906.16
519.96	36184.68
520.14	36212.77
520.31	35213.36
520.48	35887.43
520.65	36018.50
520.83	36187.02
521.00	36519.38
521.17	36500.65
521.34	36631.72
521.52	36577.89
521.69	36598.96
521.86	37188.77
522.03	36488.95
522.20	36767.48
522.38	36889.18
522.55	37123.24
522.72	36797.90
522.89	37177.07
523.07	37556.24
523.24	36964.08
523.41	37479.00
523.58	37387.72
523.75	37823.06
523.92	38197.54
524.10	37757.52
524.27	37488.36
524.44	38094.56
524.61	38150.73
524.78	37947.11
524.96	37851.14
525.13	38124.99
525.30	38410.53
525.47	38487.77
525.64	38314.57
525.81	38333.29
525.98	37965.83
526.16	37858.17
526.33	37839.44
526.50	38040.73
526.67	37338.57
526.84	38309.89
527.01	37766.88
527.18	38139.03
527.36	38714.80
527.53	38864.60
527.70	39257.81
527.87	38913.75
528.04	38649.27
528.21	39075.24
528.38	39049.50
528.55	39189.93
528.72	39335.04
528.89	39239.08
529.07	39512.92
529.24	39173.55
529.41	39627.61
529.58	39613.57
529.75	39789.11
529.92	39232.06
530.09	39552.71
530.26	39777.40
530.43	39871.03
530.60	40039.54
530.77	39665.06
530.94	40332.11
531.11	40039.54
531.28	39981.03
531.46	40481.91
531.63	40084.01
531.80	40025.50
531.97	40133.17
532.14	39915.50
532.31	40198.70
532.48	40009.12
532.65	39777.40
532.82	40488.93
532.99	40161.25
533.16	39978.69
533.33	40399.99
533.50	40957.03
533.67	40708.94
533.84	40399.99
534.01	40989.80
534.18	40399.99
534.35	40938.31
534.52	40889.16
534.69	41027.25
534.86	41118.53
535.03	41212.15
535.20	41469.61
535.37	41530.47
535.54	41818.35
535.71	41439.18
535.88	41294.07
536.05	41247.26
536.22	41628.77
536.38	41464.93
536.55	41427.48
536.72	41235.56
536.89	41294.07
537.06	41483.66
537.23	41804.31
537.40	41689.62
537.57	41738.77
537.74	41743.45
537.91	41991.55
538.08	41698.98
538.25	41338.54
538.42	41708.35
538.59	42361.36
538.75	41799.63
538.92	42181.13
539.09	41848.78
539.26	42052.41
539.43	41708.35
539.60	42021.98
539.77	41762.18
539.94	42047.72
540.11	41970.49
540.28	41970.49
540.44	41958.78
540.61	41832.39
540.78	41762.18
540.95	42270.08
541.12	41879.21
541.29	42087.51
541.46	42541.58
541.62	42134.32
541.79	42532.22
541.96	42307.52
542.13	42323.91
542.30	42335.61
542.47	42707.76
542.63	42572.00
542.80	42752.23
542.97	43002.66
543.14	43243.74
543.31	43215.65
543.48	43103.31
543.64	43693.12
543.81	43332.68
543.98	43585.46
544.15	43297.57
544.32	43419.28
544.48	43782.06
544.65	43353.74
544.82	43271.82
544.99	42925.42
545.16	43454.39
545.32	43496.52
545.49	44257.19
545.66	43892.07
545.83	44254.85
546.00	43849.94
546.16	43768.02
546.33	43714.19
546.50	43557.37
546.67	44069.95
546.83	43711.84
547.00	43971.64
547.17	43746.95
547.34	43608.86
547.50	43667.37
547.67	44416.35
547.84	43875.68
548.00	44116.76
548.17	44184.63
548.34	44355.49
548.51	44666.78
548.67	44706.57
548.84	44603.59
549.01	44236.12
549.18	44491.24
549.34	44121.44
549.51	44568.48
549.68	44598.91
549.84	44107.40
550.01	44570.82
550.18	44142.50
550.34	44596.57
550.51	44032.50
550.68	44821.26
550.84	44428.05
551.01	44722.96
551.18	44779.13
551.34	44367.20
551.51	44797.85
551.68	44891.48
551.84	45067.02
552.01	44760.40
552.18	44687.85
552.34	44477.20
552.51	45027.23
552.68	44657.42
552.84	45434.48
553.01	45029.57
553.18	45443.84
553.34	45017.86
553.51	45401.71
553.67	45017.86
553.84	45572.57
554.01	45359.58
554.17	45516.40
554.34	45305.75
554.51	45504.70
554.67	45268.30
554.84	45031.91
555.00	45099.78
555.17	45003.82
555.33	45289.37
555.50	45371.28
555.67	45198.09
555.83	45022.54
556.00	45481.29
556.16	46120.26
556.33	45226.17
556.50	45923.65
556.66	45661.51
556.83	44938.29
556.99	46087.49
557.16	45769.18
557.32	45404.05
557.49	45844.07
557.65	45455.54
557.82	46206.86
557.98	45893.22
558.15	45614.70
558.32	45752.79
558.48	45331.50
558.65	45521.08
558.81	45464.91
558.98	45394.69
559.14	45757.47
559.31	45240.21
559.47	45598.32
559.64	45698.96
559.80	45705.98
559.97	45979.82
560.13	45855.78
560.30	45961.10
560.46	45682.58
560.63	46148.34
560.79	45869.82
560.96	46267.71
561.12	46021.95
561.29	45598.32
561.45	45633.42
561.61	45855.78
561.78	45970.46
561.94	45844.07
562.11	45652.15
562.27	45729.39
562.44	46124.94
562.60	46230.26
562.77	46164.73
562.93	46253.67
563.10	46541.55
563.26	45928.33
563.42	46129.62
563.59	45965.78
563.75	45996.21
563.92	46401.12
564.08	45998.55
564.24	46087.49
564.41	46160.05
564.57	45886.20
564.74	46335.59
564.90	46232.60
565.07	46220.90
565.23	45956.42
565.39	46431.55
565.56	46424.53
565.72	46014.93
565.88	46178.77
566.05	46298.14
566.21	45918.97
566.38	46244.30
566.54	46424.53
566.70	46370.69
566.87	46223.24
567.03	46426.87
567.19	46611.77
567.36	46567.30
567.52	46256.01
567.68	46340.27
567.85	46197.49
568.01	46586.02
568.17	46316.86
568.34	46667.94
568.50	46733.48
568.66	46354.31
568.83	46052.38
568.99	46223.24
569.15	46497.08
569.32	45968.12
569.48	46314.52
569.64	46710.07
569.81	46279.41
569.97	46546.23
570.13	46312.18
570.30	46384.74
570.46	46094.51
570.62	45989.19
570.78	45947.06
570.95	45984.51
571.11	46555.60
571.27	46204.52
571.43	46485.38
571.60	46445.59
571.76	45975.14
571.92	46323.88
572.09	46110.89
572.25	46419.84
572.41	46499.42
572.57	46590.70
572.74	47019.02
572.90	46635.17
573.06	46733.48
573.22	46492.40
573.38	46553.26
573.55	46169.41
573.71	47105.62
573.87	46527.51
574.03	46766.24
574.20	47051.79
574.36	46447.93
574.52	46806.03
574.68	46674.96
574.84	46628.15
575.01	46356.65
575.17	46415.16
575.33	46499.42
575.49	46841.14
575.65	46356.65
575.82	46649.22
575.98	46616.45
576.14	46450.27
576.30	46672.62
576.46	46855.18
576.62	46174.09
576.79	46459.63
576.95	46199.83
577.11	46766.24
577.27	46426.87
577.43	46639.86
577.59	46611.77
577.75	46686.67
577.92	46642.20
578.08	46216.22
578.24	46272.39
578.40	46443.25
578.56	46555.60
578.72	46738.16
578.88	46803.69
579.04	46981.57
579.21	46368.35
579.37	46541.55
579.53	46473.68
579.69	46227.92
579.85	46752.20
580.01	46691.35
580.17	46525.17
580.33	46583.68
580.49	46789.65
580.65	46380.06
580.82	46653.90
580.98	46363.67
581.14	46274.73
581.30	46485.38
581.46	46806.03
581.62	46618.79
581.78	46653.90
581.94	46876.25
582.10	46522.83
582.26	47019.02
582.42	46852.84
582.58	46251.33
582.74	46586.02
582.90	47089.24
583.06	46838.80
583.22	46782.63
583.38	47384.15
583.54	46766.24
583.70	47051.79
583.86	46511.13
584.02	46445.59
584.18	47306.91
584.34	47016.68
584.50	46602.41
584.66	46373.03
584.82	46511.13
584.98	46438.57
585.14	46337.93
585.30	46529.85
585.46	46141.32
585.62	46902.00
585.78	46450.27
585.94	46270.05
586.10	46335.59
586.26	46248.99
586.42	46906.68
586.58	46712.41
586.74	46745.18
586.90	46742.84
587.06	46876.25
587.22	46541.55
587.38	46663.26
587.54	46815.40
587.70	46775.61
587.86	46450.27
588.02	46684.33
588.18	47072.85
588.34	46445.59
588.49	46141.32
588.65	45645.13
588.81	45844.07
588.97	46873.91
589.13	46124.94
589.29	46195.15
589.45	46628.15
589.61	46653.90
589.77	46267.71
589.93	46232.60
590.08	47077.54
590.24	46857.52
590.40	47327.97
590.56	46960.51
590.72	46930.08
590.88	46703.05
591.04	46550.91
591.20	47236.69
591.35	47192.22
591.51	47178.18
591.67	46698.37
591.83	46714.75
591.99	46157.70
592.15	46618.79
592.31	46618.79
592.46	47040.09
592.62	46464.32
592.78	46951.15
592.94	47019.02
593.10	46649.22
593.26	46918.38
593.41	46827.10
593.57	46731.14
593.73	46536.87
593.89	46808.37
594.05	46787.31
594.20	46951.15
594.36	46644.54
594.52	47215.63
594.68	46415.16
594.84	46782.63
594.99	46990.94
595.15	46464.32
595.31	46951.15
595.47	47072.85
595.62	46836.46
595.78	46719.43
595.94	46990.94
596.10	46974.55
596.25	47267.12
596.41	46389.42
596.57	46600.07
596.73	46674.96
596.88	46731.14
597.04	46649.22
597.20	46469.00
597.36	47044.77
597.51	46787.31
597.67	46836.46
597.83	47009.66
597.99	47110.30
598.14	46784.97
598.30	46733.48
598.46	46726.46
598.61	46698.37
598.77	46473.68
598.93	46689.01
599.09	46429.21
599.24	47159.45
599.40	47306.91
599.56	47278.82
599.71	46878.59
599.87	47061.15
600.03	46918.38
600.18	46754.54
600.34	46632.83
600.50	46887.95
600.65	46674.96
600.81	46799.01
600.97	47297.55
601.12	46869.23
601.28	46780.29
601.44	46380.06
601.59	46653.90
601.75	46380.06
601.91	46328.56
602.06	46728.80
602.22	46691.35
602.37	46855.18
602.53	46859.87
602.69	47061.15
602.84	46593.04
603.00	46728.80
603.16	46838.80
603.31	46440.91
603.47	46927.74
603.62	46906.68
603.78	47026.04
603.94	46693.69
604.09	46689.01
604.25	47206.26
604.40	46824.76
604.56	46576.66
604.71	46911.36
604.87	46590.70
605.03	46784.97
605.18	46564.96
605.34	46562.62
605.49	46447.93
605.65	46689.01
605.80	46614.11
605.96	47021.36
606.12	46965.19
606.27	47093.92
606.43	46368.35
606.58	46733.48
606.74	46506.44
606.89	46344.95
607.05	46497.08
607.20	46443.25
607.36	46469.00
607.51	46665.60
607.67	46518.15
607.82	46202.18
607.98	46340.27
608.13	46639.86
608.29	45984.51
608.44	46433.89
608.60	46312.18
608.75	46429.21
608.91	46162.39
609.06	46204.52
609.22	46543.89
609.37	46155.36
609.53	46431.55
609.68	46274.73
609.84	46279.41
609.99	46178.77
610.15	45958.76
610.30	46286.43
610.46	45961.10
610.61	46120.26
610.76	46174.09
610.92	46115.58
611.07	46164.73
611.23	46476.02
611.38	46337.93
611.54	45900.25
611.69	45787.90
611.84	45895.56
612.00	45558.53
612.15	45759.81
612.31	46106.21
612.46	45563.21
612.62	46340.27
612.77	45633.42
612.92	45624.06
613.08	45542.14
613.23	45708.32
613.39	45806.62
613.54	45312.77
613.69	45869.82
613.85	45745.77
614.00	45832.37
614.15	46073.45
614.31	45722.37
614.46	45532.78
614.62	45635.77
614.77	45504.70
614.92	45659.17
615.08	45502.35
615.23	45268.30
615.38	45518.74
615.54	45141.91
615.69	45359.58
615.84	45181.70
616.00	45460.23
616.15	45373.63
616.30	45378.31
616.46	45191.06
616.61	44893.82
616.76	45130.21
616.92	44713.59
617.07	45001.48
617.22	45155.96
617.37	44945.31
617.53	45642.79
617.68	45345.54
617.83	45081.06
617.99	45460.23
618.14	45415.76
618.29	44734.66
618.45	44659.76
618.60	44711.25
618.75	44767.43
618.90	44828.28
619.06	44257.19
619.21	45265.96
619.36	44952.33
619.51	44931.26
619.67	44573.16
619.82	44765.09
619.97	45064.67
620.12	44514.65
620.28	44624.65
620.43	44760.40
620.58	44802.53
620.73	44807.22
620.89	44514.65
621.04	44528.69
621.19	44568.48
621.34	44767.43
621.49	44306.34
621.65	44495.92
621.80	44610.61
621.95	44524.01
622.10	44498.26
622.25	44083.99
622.41	43978.67
622.56	44313.36
622.71	44514.65
622.86	44233.78
623.01	44479.54
623.16	44598.91
623.32	44163.57
623.47	44381.24
623.62	44086.33
623.77	43665.03
623.92	44493.58
624.07	44079.31
624.23	43540.99
624.38	43927.17
624.53	43828.87
624.68	44720.62
624.83	43922.49
624.98	43981.01
625.13	43557.37
625.29	43519.92
625.44	43428.64
625.59	43695.46
625.74	43393.53
625.89	43164.16
626.04	43264.80
626.19	43704.82
626.34	43332.68
626.49	43477.79
626.65	43423.96
626.80	43737.59
626.95	43377.15
627.10	43812.49
627.25	43056.50
627.40	43257.78
627.55	42726.48
627.70	43049.47
627.85	43398.21
628.00	42864.57
628.15	43236.72
628.30	43079.90
628.45	43098.62
628.60	43042.45
628.76	42871.59
628.91	42993.30
629.06	42632.86
629.21	42986.28
629.36	42682.01
629.51	42628.18
629.66	42597.75
629.81	43182.88
629.96	42602.43
630.11	42997.98
630.26	42873.93
630.41	42904.36
630.56	42677.33
630.71	42604.77
630.86	42691.37
631.01	42714.78
631.16	42572.00
631.31	42157.73
631.46	42649.24
631.61	42618.81
631.76	42597.75
631.91	42068.79
632.06	42782.65
632.21	42466.68
632.36	43365.45
632.51	41926.02
632.66	42412.85
632.81	42274.76
632.96	42293.48
633.10	42162.41
633.25	42588.39
633.40	42082.83
633.55	42567.32
633.70	42117.94
633.85	41668.56
634.00	42204.54
634.15	42342.63
634.30	42195.18
634.45	41762.18
634.60	41886.23
634.75	42237.31
634.90	41654.51
635.05	42443.27
635.19	42202.20
635.34	41851.12
635.49	42265.39
635.64	41603.02
635.79	41720.05
635.94	41591.32
636.09	41684.94
636.24	41368.97
636.39	41247.26
636.53	41858.14
636.68	41385.35
636.83	41420.46
636.98	42380.08
637.13	41474.29
637.28	42003.25
637.43	41954.10
637.57	41467.27
637.72	41055.34
637.87	41434.50
638.02	41345.56
638.17	41495.36
638.32	41216.83
638.46	41221.52
638.61	41373.65
638.76	41507.06
638.91	41282.37
639.06	41139.60
639.20	41256.62
639.35	41509.40
639.50	41284.71
639.65	41371.31
639.80	41155.98
639.94	40741.71
640.09	41216.83
640.24	41027.25
640.39	40971.08
640.54	40816.60
640.68	41099.81
640.83	41043.63
640.98	40577.87
641.13	41317.48
641.27	40856.39
641.42	40884.48
641.57	40690.21
641.72	40722.98
641.86	40603.61
642.01	40591.91
642.16	40479.57
642.31	40271.26
642.45	40636.38
642.60	39929.54
642.75	40748.73
642.90	40680.85
643.04	40739.36
643.19	40531.06
643.34	40414.03
643.48	40048.91
643.63	40177.64
643.78	39988.05
643.93	40734.68
644.07	40456.16
644.22	40261.90
644.37	40381.26
644.51	40175.30
644.66	40217.43
644.81	40458.50
644.95	40474.88
645.10	40198.70
645.25	40320.41
645.39	40285.30
645.54	40463.18
645.69	39845.28
645.83	39831.24
645.98	40208.06
646.13	39758.68
646.27	39896.77
646.42	39889.75
646.57	39948.26
646.71	39651.02
646.86	39786.77
647.00	39983.37
647.15	39665.06
647.30	39590.16
647.44	39487.18
647.59	39856.98
647.74	39346.75
647.88	39826.56
648.03	40208.06
648.17	39875.71
648.32	39356.11
648.47	39377.17
648.61	39377.17
648.76	39660.38
648.90	39377.17
649.05	39475.48
649.20	39447.39
649.34	39749.32
649.49	38787.36
649.63	39065.88
649.78	39494.20
649.92	39210.99
650.07	39676.76
650.21	39271.85
650.36	39030.77
650.51	39297.59
650.65	39714.21
650.80	39646.33
650.94	39681.44
651.09	39122.05
651.23	38880.98
651.38	39168.87
651.52	38747.57
651.67	38660.97
651.81	38850.55
651.96	38941.83
652.10	39201.63
652.25	38916.09
652.39	38918.43
652.54	38904.38
652.68	38817.78
652.83	38611.82
652.97	38937.15
653.12	38932.47
653.26	38218.61
653.41	38272.44
653.55	38689.06
653.70	38820.13
653.84	38529.90
653.99	38167.12
654.13	38286.48
654.27	38410.53
654.42	37846.46
654.56	38146.05
654.71	38380.10
654.85	38515.86
655.00	38246.69
655.14	38139.03
655.29	38272.44
655.43	37736.46
655.57	37481.34
655.72	37099.83
655.86	37240.26
656.01	37429.85
656.15	37464.96
656.30	37535.17
656.44	37479.00
656.58	37853.48
656.73	37434.53
656.87	37619.43
657.01	37621.77
657.16	37586.66
657.30	37368.99
657.45	37371.33
657.59	37319.84
657.73	37488.36
657.88	37727.10
658.02	37567.94
658.16	37977.53
658.31	37581.98
658.45	37701.35
658.60	37453.25
658.74	37429.85
658.88	37624.11
659.03	37605.39
659.17	37436.87
659.31	36931.31
659.46	37008.55
659.60	37081.11
659.74	37343.25
659.89	37095.15
660.03	37200.47
660.17	37097.49
660.32	37170.05
660.46	37256.65
660.60	36978.12
660.74	36573.21
660.89	37104.51
661.03	36273.62
661.17	36458.52
661.32	36226.81
661.46	36856.42
661.60	36662.15
661.74	36320.43
661.89	36751.09
662.03	36608.32
662.17	36715.98
662.31	36662.15
662.46	36495.97
662.60	36521.72
662.74	36196.38
662.88	36685.56
663.03	36257.24
663.17	36238.51
663.31	36222.13
663.45	36039.57
663.60	36240.86
663.74	35658.06
663.88	36116.81
664.02	35505.93
664.17	36161.28
664.31	35681.47
664.45	35519.97
664.59	35573.80
664.73	35704.87
664.88	35952.97
665.02	35285.92
665.16	35274.21
665.30	35089.31
665.44	35381.88
665.59	35000.37
665.73	35257.83
665.87	35304.64
666.01	35161.87
666.15	35157.19
666.29	35297.62
666.44	35597.21
666.58	34904.41
666.72	34864.62
666.86	34438.64
667.00	34890.37
667.14	34827.17
667.28	34401.19
667.43	34391.83
667.57	34799.08
667.71	34831.85
667.85	34691.42
667.99	34560.35
668.13	34272.46
668.27	34082.88
668.41	34539.29
668.56	33717.76
668.70	34333.32
668.84	33727.12
668.98	33823.08
669.12	34075.86
669.26	33696.69
669.40	33830.10
669.54	33380.72
669.68	33404.13
669.82	33008.58
669.96	33436.89
670.10	33069.43
670.25	33558.60
670.39	32840.06
670.53	33235.61
670.67	33125.60
670.81	33163.05
670.95	32959.42
671.09	33462.64
671.23	32924.32
671.37	32924.32
671.51	32774.52
671.65	32823.67
671.79	32716.01
671.93	32292.37
672.07	32971.13
672.21	32678.56
672.35	32233.86
672.49	32680.90
672.63	32496.00
672.77	32369.61
672.91	32617.71
673.05	32009.17
673.19	32240.88
673.33	32233.86
673.47	31543.40
673.61	31931.93
673.75	31688.51
673.89	31908.52
674.03	31622.98
674.17	31157.21
674.31	31501.27
674.45	31531.70
674.59	31927.25
674.73	31512.97
674.87	31475.52
675.01	31152.53
675.15	31058.91
675.29	31035.50
675.43	31257.85
675.56	31309.35
675.70	31091.68
675.84	30686.76
675.98	29900.34
676.12	30527.61
676.26	30799.11
676.40	30841.24
676.54	30878.69
676.68	30668.04
676.82	29780.98
676.96	30162.48
677.10	29944.81
677.23	30008.01
677.37	29729.48
677.51	29883.96
677.65	29738.85
677.79	29528.20
677.93	29628.84
678.07	28900.94
678.21	28828.38
678.34	29261.38
678.48	29287.12
678.62	29050.73
678.76	28685.61
678.90	28465.60
679.04	28596.67
679.18	28713.69
679.31	28435.17
679.45	28357.93
679.59	28355.59
679.73	28147.28
679.87	28421.13
680.00	27929.61
680.14	28360.27
680.28	28154.30
680.42	28133.24
680.56	28002.17
680.70	28119.20
680.83	27922.59
680.97	27784.50
681.11	27901.53
681.25	27290.65
681.39	27421.72
681.52	27229.79
681.66	27199.37
681.80	27157.24
681.94	27267.24
682.07	27054.25
682.21	26731.26
682.35	26698.49
682.49	26647.00
682.62	26604.87
682.76	26644.66
682.90	26462.10
683.04	26600.19
683.17	26099.31
683.31	25982.29
683.45	26111.02
683.59	25823.13
683.72	25905.05
683.86	26314.64
684.00	25912.07
684.13	25642.91
684.27	25322.26
684.41	25680.36
684.55	25198.21
684.68	25633.55
684.82	25446.30
684.96	25294.17
685.09	24992.24
685.23	24922.02
685.37	25055.43
685.50	25132.67
685.64	24877.55
685.78	24606.05
685.91	24545.20
686.05	24474.98
686.19	24074.75
686.32	24308.80
686.46	23784.52
686.60	23428.76
686.73	23370.25
686.87	23269.61
687.01	23332.80
687.14	23042.57
687.28	23152.58
687.42	23056.62
687.55	23543.45
687.69	23300.03
687.82	23384.29
687.96	23297.69
688.10	22995.76
688.23	22560.42
688.37	22747.67
688.50	22721.92
688.64	22537.02
688.78	22324.03
688.91	22352.12
689.05	22328.71
689.18	22375.52
689.32	22082.95
689.46	22518.29
689.59	22178.92
689.73	22764.05
689.86	21947.20
690.00	21825.50
690.13	21881.67
690.27	21373.77
690.41	21724.85
690.54	21476.76
690.68	21495.48
690.81	21369.09
690.95	21308.24
691.08	21284.83
691.22	21495.48
691.35	20996.95
691.49	21256.75
691.62	20915.03
691.76	21020.35
691.89	20837.79
692.03	20924.39
692.16	20613.10
692.30	20512.46
692.43	20360.32
692.57	20542.88
692.70	20437.56
692.84	20229.25
692.97	19927.32
693.11	20325.21
693.24	19922.64
693.38	19822.00
693.51	19932.00
693.65	19892.21
693.78	19616.03
693.92	19487.30
694.05	19410.06
694.19	19515.39
694.32	19538.79
694.45	19295.38
694.59	19501.34
694.72	19197.07
694.86	19101.11
694.99	18948.98
695.13	19316.44
695.26	18993.45
695.39	18801.52
695.53	18871.74
695.66	18834.29
695.80	18583.85
695.93	18597.90
696.07	18548.75
696.20	18696.20
696.33	18799.18
696.47	18523.00
696.60	18230.43
696.73	18242.14
696.87	18111.07
697.00	17919.14
697.14	17757.64
697.27	18012.76
697.40	17706.15
697.54	17500.19
697.67	17312.94
697.80	17369.12
697.94	17186.55
698.07	17202.94
698.21	17247.41
698.34	17373.80
698.47	17326.99
698.61	16889.31
698.74	16968.88
698.87	16748.87
699.01	16798.02
699.14	16559.29
699.27	16320.56
699.40	16664.61
699.54	16519.50
699.67	16102.89
699.80	16198.85
699.94	16233.96
700.07	16166.08
700.20	16152.04
700.34	16063.10
700.47	16266.72
700.60	16159.06
700.73	15983.52
700.87	16133.31
701.00	15868.83
701.13	15550.52
701.26	15311.78
701.40	15709.68
701.53	15370.30
701.66	15208.80
701.79	15213.48
701.93	15009.86
702.06	15016.88
702.19	14707.93
702.32	15037.94
702.46	14963.04
702.59	14986.45
702.72	14721.97
702.85	14869.42
702.99	14836.66
703.12	14883.47
703.25	14464.51
703.38	14555.79
703.51	14373.23
703.65	14239.82
703.78	14298.33
703.91	14118.11
704.04	13963.64
704.17	13968.32
704.31	14094.71
704.44	14090.02
704.57	13898.10
704.70	13996.40
704.83	13811.50
704.96	13912.14
705.10	13858.31
705.23	13879.38
>>>>>End Processed Spectral Data<<<<<
