SpectraSuite Data File
++++++++++++++++++++++++++++++++++++
Date: Fri Oct 25 10:48:10 EDT 2013
User: price-jones
Dark Spectrum Present: No
Reference Spectrum Present: No
Number of Sampled Component Spectra: 1
Spectrometers: USB2+H05261
Integration Time (usec): 100000 (USB2+H05261)
Spectra Averaged: 1 (USB2+H05261)
Boxcar Smoothing: 0 (USB2+H05261)
Correct for Electrical Dark: No (USB2+H05261)
Strobe/Lamp Enabled: No (USB2+H05261)
Correct for Detector Non-linearity: No (USB2+H05261)
Correct for Stray Light: No (USB2+H05261)
Number of Pixels in Processed Spectrum: 2048
>>>>>Begin Processed Spectral Data<<<<<
365.73	191.92
365.92	191.92
366.12	191.92
366.32	77.24
366.52	60.85
366.72	25.75
366.91	0.00
367.11	147.45
367.31	0.00
367.51	7.02
367.70	39.79
367.90	16.38
368.10	14.04
368.30	0.00
368.49	100.64
368.69	72.56
368.89	58.51
369.09	42.13
369.28	56.17
369.48	56.17
369.68	70.22
369.87	126.39
370.07	91.28
370.27	149.79
370.47	217.67
370.66	362.78
370.86	430.66
371.06	442.36
371.25	440.02
371.45	428.32
371.65	531.30
371.84	493.85
372.04	400.23
372.24	479.81
372.44	484.49
372.63	461.09
372.83	510.24
373.03	461.09
373.22	428.32
373.42	456.40
373.62	566.41
373.81	603.86
374.01	475.13
374.21	498.53
374.40	512.58
374.60	564.07
374.79	557.05
374.99	573.43
375.19	493.85
375.38	582.79
375.58	552.37
375.78	596.84
375.97	568.75
376.17	617.90
376.37	596.84
376.56	580.45
376.76	571.09
376.95	547.69
377.15	690.46
377.35	528.96
377.54	596.84
377.74	512.58
377.93	505.56
378.13	561.73
378.33	660.03
378.52	655.35
378.72	671.73
378.91	587.47
379.11	617.90
379.31	711.52
379.50	610.88
379.70	587.47
379.89	606.20
380.09	655.35
380.28	699.82
380.48	592.16
380.68	599.18
380.87	617.90
381.07	737.27
381.26	683.44
381.46	706.84
381.65	657.69
381.85	617.90
382.04	706.84
382.24	676.41
382.43	695.14
382.63	662.37
382.83	655.35
383.02	667.05
383.22	709.18
383.41	732.59
383.61	718.54
383.80	812.17
384.00	791.10
384.19	657.69
384.39	741.95
384.58	702.16
384.78	814.51
384.97	713.86
385.17	746.63
385.36	716.20
385.56	791.10
385.75	791.10
385.95	833.23
386.14	814.51
386.34	706.84
386.53	800.46
386.72	798.12
386.92	821.53
387.11	826.21
387.31	847.27
387.50	840.25
387.70	800.46
387.89	781.74
388.09	854.30
388.28	821.53
388.48	873.02
388.67	786.42
388.86	793.44
389.06	840.25
389.25	908.13
389.45	816.85
389.64	856.64
389.84	830.89
390.03	938.55
390.22	912.81
390.42	978.34
390.61	891.74
390.81	866.00
391.00	959.62
391.19	950.26
391.39	959.62
391.58	999.41
391.78	947.92
391.97	997.07
392.16	940.90
392.36	961.96
392.55	943.24
392.75	936.21
392.94	926.85
393.13	945.58
393.33	903.45
393.52	1001.75
393.71	1013.45
393.91	1022.81
394.10	999.41
394.29	1095.37
394.49	1034.52
394.68	1123.46
394.88	1041.54
395.07	1116.44
395.26	1128.14
395.46	1060.26
395.65	1174.95
395.84	1107.07
396.04	1165.59
396.23	1156.22
396.42	1114.10
396.62	1064.94
396.81	1081.33
397.00	1125.80
397.19	1207.72
397.39	1186.65
397.58	1252.19
397.77	1233.46
397.97	1268.57
398.16	1263.89
398.35	1296.66
398.55	1270.91
398.74	1266.23
398.93	1238.14
399.12	1268.57
399.32	1263.89
399.51	1329.42
399.70	1441.77
399.90	1401.98
400.09	1404.32
400.28	1394.96
400.47	1371.55
400.67	1411.34
400.86	1357.51
401.05	1448.79
401.24	1404.32
401.44	1474.54
401.63	1586.88
401.82	1406.66
402.01	1448.79
402.21	1544.75
402.40	1598.59
402.59	1500.28
402.78	1544.75
402.97	1549.43
403.17	1563.48
403.36	1589.22
403.55	1596.25
403.74	1645.40
403.93	1666.46
404.13	1610.29
404.32	1673.48
404.51	1607.95
404.70	1650.08
404.89	1643.06
405.09	1764.76
405.28	1762.42
405.47	1694.55
405.66	1706.25
405.85	1654.76
406.05	1703.91
406.24	1830.30
406.43	1724.97
406.62	1783.49
406.81	1760.08
407.00	1797.53
407.20	1806.89
407.39	1781.15
407.58	1926.26
407.77	1895.83
407.96	1919.24
408.15	1916.90
408.34	1977.75
408.54	1970.73
408.73	1919.24
408.92	1982.43
409.11	2026.90
409.30	1975.41
409.49	2024.56
409.68	1980.09
409.87	1956.69
410.07	2169.68
410.26	2101.80
410.45	2097.12
410.64	2101.80
410.83	2129.89
411.02	2211.81
411.21	2307.77
411.40	2267.98
411.59	2270.32
411.78	2275.00
411.98	2324.15
412.17	2293.72
412.36	2377.98
412.55	2417.77
412.74	2312.45
412.93	2424.80
413.12	2363.94
413.31	2605.02
413.50	2455.22
413.69	2509.05
413.88	2541.82
414.07	2450.54
414.26	2490.33
414.45	2511.39
414.64	2647.15
414.83	2644.81
415.02	2579.27
415.22	2684.59
415.41	2630.76
415.60	2668.21
415.79	2754.81
415.98	2743.11
416.17	2782.90
416.36	2801.62
416.55	2850.77
416.74	2862.48
416.93	2848.43
417.12	2909.29
417.31	2911.63
417.50	2963.12
417.69	3033.33
417.88	2972.48
418.07	2986.52
418.26	2946.73
418.45	3005.25
418.64	3288.45
418.83	3159.72
419.02	3171.43
419.21	3131.64
419.39	3309.52
419.58	3183.13
419.77	3234.62
419.96	3180.79
420.15	3332.92
420.34	3234.62
420.53	3251.00
420.72	3365.69
420.91	3288.45
421.10	3321.22
421.29	3379.73
421.48	3356.33
421.67	3414.84
421.86	3389.10
422.05	3314.20
422.24	3389.10
422.43	3419.52
422.61	3372.71
422.80	3466.33
422.99	3428.88
423.18	3522.51
423.37	3485.06
423.56	3620.81
423.75	3492.08
423.94	3517.83
424.13	3260.37
424.32	3396.12
424.50	3487.40
424.69	3496.76
424.88	3606.77
425.07	3442.93
425.26	3501.44
425.45	3552.93
425.64	3538.89
425.83	3433.57
426.01	3489.74
426.20	3520.17
426.39	3634.85
426.58	3571.66
426.77	3440.59
426.96	3517.83
427.15	3403.14
427.33	3693.37
427.52	3564.64
427.71	3705.07
427.90	3627.83
428.09	3756.56
428.28	3822.09
428.46	3676.98
428.65	3756.56
428.84	3721.45
429.03	3763.58
429.22	3754.22
429.40	3765.92
429.59	3716.77
429.78	3616.13
429.97	3578.68
430.16	3667.62
430.34	3819.75
430.53	3904.01
430.72	3892.31
430.91	3918.06
431.10	3864.22
431.28	3985.93
431.47	4060.83
431.66	4084.23
431.85	4105.30
432.03	4084.23
432.22	4205.94
432.41	4149.77
432.60	4152.11
432.79	4231.69
432.97	4095.94
433.16	4154.45
433.35	3969.55
433.54	4238.71
433.72	4224.67
433.91	4308.93
434.10	4283.18
434.28	4182.54
434.47	4273.82
434.66	4355.74
434.85	4414.25
435.03	4308.93
435.22	4304.25
435.41	4479.79
435.59	4580.43
435.78	4465.74
435.97	4688.09
436.16	4599.15
436.34	4498.51
436.53	4601.49
436.72	4561.70
436.90	4498.51
437.09	4720.86
437.28	4634.26
437.46	4622.56
437.65	4638.94
437.84	4507.87
438.02	4624.90
438.21	4594.47
438.40	4498.51
438.58	4849.59
438.77	4802.78
438.96	4968.96
439.14	4880.02
439.33	5163.22
439.52	4903.42
439.70	4997.04
439.89	4912.78
440.08	5055.56
440.26	5114.07
440.45	5029.81
440.63	5142.16
440.82	5242.80
441.01	5308.34
441.19	5380.89
441.38	5364.51
441.57	5277.91
441.75	5474.51
441.94	5572.82
442.12	5767.08
442.31	5631.33
442.50	5610.26
442.68	5462.81
442.87	5526.00
443.05	5607.92
443.24	5795.17
443.43	5720.27
443.61	5781.12
443.80	5846.66
443.98	5537.71
444.17	5486.22
444.35	5785.80
444.54	5696.86
444.73	5802.19
444.91	5802.19
445.10	5916.87
445.28	5680.48
445.47	5788.14
445.65	5689.84
445.84	5678.14
446.02	5912.19
446.21	5844.32
446.39	5708.57
446.58	5919.21
446.77	5830.27
446.95	5783.46
447.14	5792.83
447.32	5912.19
447.51	5687.50
447.69	5895.81
447.88	5841.98
448.06	5900.49
448.25	5942.62
448.43	6083.05
448.62	5937.94
448.80	5977.73
448.99	6155.61
449.17	6209.44
449.36	5994.11
449.54	6256.25
449.73	6153.27
449.91	6321.79
450.10	6225.82
450.28	6352.21
450.46	6349.87
450.65	6305.40
450.83	6134.54
451.02	6319.45
451.20	6237.53
451.39	6380.30
451.57	6195.40
451.76	6455.20
451.94	6307.74
452.13	6494.99
452.31	6448.18
452.49	6384.98
452.68	6296.04
452.86	6354.55
453.05	6373.28
453.23	6612.01
453.42	6389.66
453.60	6420.09
453.78	6588.61
453.97	6431.79
454.15	6579.25
454.34	6555.84
454.52	6796.92
454.70	6820.32
454.89	6724.36
455.07	6691.59
455.26	6682.23
455.44	6743.08
455.62	6745.42
455.81	6672.87
455.99	6853.09
456.17	6808.62
456.36	6803.94
456.54	7023.95
456.73	7150.34
456.91	7417.16
457.09	7234.60
457.28	7148.00
457.46	6986.50
457.64	7148.00
457.83	7162.04
458.01	6939.69
458.19	7293.11
458.38	7236.94
458.56	7353.96
458.74	7180.76
458.93	7194.81
459.11	7318.86
459.29	7234.60
459.48	7297.79
459.66	7363.33
459.84	7281.41
460.03	7688.66
460.21	7529.50
460.39	7456.95
460.57	7585.68
460.76	7524.82
460.94	7515.46
461.12	7784.62
461.31	7529.50
461.49	7665.25
461.67	7485.03
461.85	7779.94
462.04	7742.49
462.22	8226.98
462.40	7815.05
462.59	7920.37
462.77	7929.74
462.95	7983.57
463.13	7803.35
463.32	7871.22
463.50	8060.80
463.68	8114.64
463.86	7985.91
464.05	7866.54
464.23	7810.37
464.41	8219.96
464.59	7941.44
464.78	8402.52
464.96	8180.17
465.14	7960.16
465.32	8159.11
465.50	8170.81
465.69	8402.52
465.87	8140.38
466.05	8180.17
466.23	8266.77
466.41	8149.75
466.60	8283.16
466.78	8435.29
466.96	8212.94
467.14	8458.70
467.32	8418.91
467.51	8557.00
467.69	8217.62
467.87	8287.84
468.05	8540.61
468.23	8482.10
468.41	8271.45
468.60	8446.99
468.78	8564.02
468.96	8395.50
469.14	8655.30
469.32	8781.69
469.50	8552.32
469.69	8744.24
469.87	8861.27
470.05	8793.39
470.23	8854.25
470.41	8854.25
470.59	9039.15
470.77	9020.42
470.95	8800.41
471.14	9172.56
471.32	8933.82
471.50	9217.03
471.68	9242.78
471.86	9338.74
472.04	9261.50
472.22	9544.70
472.40	9359.80
472.58	9151.49
472.77	9350.44
472.95	9401.93
473.13	9717.90
473.31	9350.44
473.49	9434.70
473.67	9504.92
473.85	9504.92
474.03	9748.33
474.21	9643.01
474.39	10040.90
474.57	9748.33
474.75	9795.14
474.93	9799.82
475.12	9996.43
475.30	10235.16
475.48	9846.63
475.66	10038.56
475.84	10228.14
476.02	10171.97
476.20	10143.88
476.38	10523.05
476.56	10836.68
476.74	10619.01
476.92	10583.90
477.10	10527.73
477.28	10726.68
477.46	10794.55
477.64	10841.36
477.82	10995.84
478.00	11428.84
478.18	11281.38
478.36	11520.12
478.54	11328.19
478.72	11419.47
478.90	11545.86
479.08	11648.85
479.26	12053.76
479.44	11950.78
479.62	11875.88
479.80	11847.79
479.98	11960.14
480.16	12046.74
480.34	12170.79
480.52	12362.71
480.70	12425.90
480.88	12292.49
481.06	12671.66
481.24	12666.98
481.41	12692.73
481.59	12858.90
481.77	13048.49
481.95	12926.78
482.13	13011.04
482.31	13036.78
482.49	13376.16
482.67	13502.55
482.85	13614.90
483.03	13516.59
483.21	13727.24
483.39	13968.32
483.57	13886.40
483.74	13914.48
483.92	14125.13
484.10	13944.91
484.28	14546.43
484.46	14452.81
484.64	14775.80
484.82	14427.06
485.00	14724.31
485.18	14958.36
485.35	14782.82
485.53	14911.55
485.71	14710.27
485.89	15073.05
486.07	15213.48
486.25	15208.80
486.43	15199.44
486.61	15618.39
486.78	15660.52
486.96	16032.67
487.14	16336.94
487.32	15929.69
487.50	16194.17
487.68	16259.70
487.85	16549.93
488.03	16769.94
488.21	16697.38
488.39	16975.91
488.57	17172.51
488.75	17076.55
488.92	17273.15
489.10	17591.47
489.28	17767.01
489.46	17593.81
489.64	17397.20
489.81	18157.88
489.99	18071.28
490.17	18169.58
490.35	18572.15
490.53	18331.08
490.70	18466.83
490.88	18860.04
491.06	18796.84
491.24	18710.24
491.41	18869.40
491.59	19150.26
491.77	19236.86
491.95	19374.95
492.13	19468.58
492.30	19587.94
492.48	19363.25
492.66	19377.30
492.84	19814.98
493.01	20030.30
493.19	19967.11
493.37	20442.24
493.54	20287.76
493.72	20449.26
493.90	20432.88
494.08	21137.38
494.25	21205.25
494.43	21149.08
494.61	21184.19
494.79	21139.72
494.96	21088.23
495.14	21254.40
495.32	21472.07
495.49	21443.99
495.67	21514.20
495.85	21940.18
496.02	21874.65
496.20	21994.01
496.38	22183.60
496.55	22466.80
496.73	22806.18
496.91	22424.67
497.09	22628.30
497.26	23051.94
497.44	22852.99
497.62	23063.64
497.79	23073.00
497.97	22785.12
498.14	23637.07
498.32	23861.76
498.50	23384.29
498.67	23784.52
498.85	23669.84
499.03	23531.75
499.20	23955.38
499.38	23999.85
499.56	24016.24
499.73	23878.15
499.91	24659.88
500.08	24166.03
500.26	24369.66
500.44	24304.12
500.61	24381.36
500.79	24592.01
500.97	24828.40
501.14	24917.34
501.32	24917.34
501.49	24886.92
501.67	25097.56
501.84	25104.59
502.02	25289.49
502.20	25163.10
502.37	25450.99
502.55	25462.69
502.72	25710.78
502.90	25940.16
503.07	25640.57
503.25	25886.32
503.43	25816.11
503.60	25762.28
503.78	25977.61
503.95	25949.52
504.13	26148.46
504.30	26366.13
504.48	26326.35
504.65	26448.05
504.83	26712.53
505.01	26911.48
505.18	26698.49
505.36	26735.94
505.53	27143.19
505.71	27197.02
505.88	27080.00
506.06	26864.67
506.23	27166.60
506.41	27105.74
506.58	27351.50
506.76	27503.64
506.93	27718.96
507.11	27566.83
507.28	27770.46
507.46	27562.15
507.63	27737.69
507.81	27946.00
507.98	27744.71
508.16	27875.78
508.33	28056.00
508.50	28025.57
508.68	28032.60
508.85	28341.55
509.03	27995.15
509.20	28683.27
509.38	29191.16
509.55	28898.59
509.73	28907.96
509.90	29125.63
510.08	28795.61
510.25	28905.62
510.42	29179.46
510.60	29326.91
510.77	29163.08
510.95	29563.31
511.12	29338.62
511.30	29308.19
511.47	29436.92
511.64	29809.06
511.82	29624.16
511.99	29701.40
512.17	29975.24
512.34	30043.12
512.51	30094.61
512.69	30082.91
512.86	30202.27
513.04	30235.04
513.21	30298.23
513.38	30443.35
513.56	30452.71
513.73	30670.38
513.90	30302.92
514.08	30401.22
514.25	30703.15
514.43	30576.76
514.60	30944.22
514.77	30813.15
514.95	31321.05
515.12	31082.31
515.29	30759.32
515.47	31683.83
515.64	31711.92
515.81	31164.23
515.99	31250.83
516.16	31318.71
516.33	31524.68
516.51	31770.43
516.68	31543.40
516.85	31323.39
517.03	31505.95
517.20	31866.39
517.37	31798.52
517.54	32109.81
517.72	32229.18
517.89	32208.11
518.06	32266.63
518.24	32044.27
518.41	32212.79
518.58	32030.23
518.75	31995.12
518.93	32481.95
519.10	32311.10
519.27	32706.65
519.45	32968.79
519.62	32559.19
519.79	32666.86
519.96	33139.65
520.14	32945.38
520.31	32856.44
520.48	33017.94
520.65	33511.79
520.83	32996.87
521.00	33062.41
521.17	33376.04
521.34	33172.41
521.52	33694.35
521.69	33202.84
521.86	33792.65
522.03	33586.69
522.20	34012.66
522.38	33858.19
522.55	34052.45
522.72	33811.38
522.89	34132.03
523.07	34323.96
523.24	33827.76
523.41	34197.57
523.58	33930.75
523.75	34319.28
523.92	34485.45
524.10	34501.84
524.27	34733.55
524.44	34553.33
524.61	34923.13
524.78	34930.16
524.96	34567.37
525.13	35000.37
525.30	35145.48
525.47	35150.17
525.64	34906.75
525.81	35264.85
525.98	34941.86
526.16	35049.52
526.33	34902.07
526.50	35456.78
526.67	34817.81
526.84	35445.07
527.01	34852.92
527.18	35297.62
527.36	35571.46
527.53	35562.10
527.70	35927.22
527.87	35667.42
528.04	35672.10
528.21	35524.65
528.38	35508.27
528.55	35716.58
528.72	36105.10
528.89	35995.10
529.07	36051.27
529.24	35988.08
529.41	36875.14
529.58	36271.28
529.75	36400.01
529.92	36367.24
530.09	36863.44
530.26	36760.45
530.43	36416.40
530.60	36383.63
530.77	36715.98
530.94	36935.99
531.11	36636.41
531.28	36943.02
531.46	36596.62
531.63	37111.53
531.80	37125.58
531.97	37083.45
532.14	36849.39
532.31	36966.42
532.48	37186.43
532.65	37357.29
532.82	36730.03
532.99	37399.42
533.16	37099.83
533.33	37486.02
533.50	37546.87
533.67	37874.55
533.84	37200.47
534.01	37940.08
534.18	37848.80
534.35	37935.40
534.52	37668.58
534.69	37495.38
534.86	37813.70
535.03	37673.26
535.20	37986.89
535.37	38073.49
535.54	38326.27
535.71	38204.56
535.88	38298.19
536.05	38256.06
536.22	38323.93
536.38	38199.88
536.55	38263.08
536.72	38171.80
536.89	37993.92
537.06	38555.64
537.23	38534.58
537.40	38387.13
537.57	38361.38
537.74	38424.57
537.91	38951.20
538.08	38843.53
538.25	38188.18
538.42	39070.56
538.59	39049.50
538.75	38656.29
538.92	38696.08
539.09	38969.92
539.26	38663.31
539.43	38909.07
539.60	39206.31
539.77	38855.23
539.94	39108.01
540.11	39159.50
540.28	39164.18
540.44	39304.62
540.61	39019.07
540.78	39119.71
540.95	39316.32
541.12	38937.15
541.29	39447.39
541.46	39463.77
541.62	39648.68
541.79	39248.44
541.96	39119.71
542.13	39662.72
542.30	39269.51
542.47	39538.67
542.63	39398.24
542.80	39353.77
542.97	39931.88
543.14	40329.77
543.31	40032.52
543.48	40257.21
543.64	40828.30
543.81	40556.80
543.98	40554.46
544.15	40374.24
544.32	40765.11
544.48	40694.89
544.65	40650.42
544.82	40547.44
544.99	40095.72
545.16	40758.09
545.32	39929.54
545.49	40311.05
545.66	40952.35
545.83	41132.57
546.00	40964.06
546.16	41261.30
546.33	40861.07
546.50	40498.29
546.67	41109.17
546.83	40135.51
547.00	40947.67
547.17	40950.01
547.34	41102.15
547.50	41170.02
547.67	41336.20
547.84	41212.15
548.00	41462.59
548.17	41097.47
548.34	41069.38
548.51	41755.16
548.67	41680.26
548.84	41280.03
549.01	41303.43
549.18	41373.65
549.34	41855.80
549.51	41652.17
549.68	41626.43
549.84	41315.14
550.01	41572.60
550.18	41778.56
550.34	41603.02
550.51	41357.27
550.68	41759.84
550.84	41670.90
551.01	41354.93
551.18	41691.96
551.34	42146.03
551.51	41940.06
551.68	41710.69
551.84	42263.05
552.01	41816.01
552.18	41876.86
552.34	41944.74
552.51	42347.31
552.68	42029.00
552.84	42237.31
553.01	42412.85
553.18	42347.31
553.34	42244.33
553.51	42117.94
553.67	42160.07
553.84	42429.23
554.01	42183.48
554.17	42913.72
554.34	42501.79
554.51	42178.79
554.67	42162.41
554.84	42515.83
555.00	42223.26
555.17	42232.63
555.33	42773.29
555.50	42377.74
555.67	42342.63
555.83	42948.83
556.00	42801.38
556.16	43126.71
556.33	42885.64
556.50	42555.62
556.66	42698.39
556.83	42815.42
556.99	43049.47
557.16	42880.95
557.32	43557.37
557.49	42740.52
557.65	42351.99
557.82	42890.32
557.98	42742.86
558.15	43051.81
558.32	42721.80
558.48	42885.64
558.65	43035.43
558.81	42925.42
558.98	43168.84
559.14	43049.47
559.31	42714.78
559.47	43199.27
559.64	43072.88
559.80	43482.47
559.97	43056.50
560.13	43201.61
560.30	42859.89
560.46	43325.66
560.63	43220.33
560.79	43122.03
560.96	43449.70
561.12	43452.05
561.29	43381.83
561.45	43346.72
561.61	43693.12
561.78	43119.69
561.94	43058.84
562.11	43210.97
562.27	43583.12
562.44	43365.45
562.60	43849.94
562.77	43489.49
562.93	43288.21
563.10	43501.20
563.26	43908.45
563.42	43791.42
563.59	43466.09
563.75	43512.90
563.92	43742.27
564.08	43908.45
564.24	43976.33
564.41	43917.81
564.57	43831.21
564.74	43629.93
564.90	43423.96
565.07	44037.18
565.23	43597.16
565.39	44055.90
565.56	44081.65
565.72	43999.73
565.88	43894.41
566.05	43601.84
566.21	44154.21
566.38	43786.74
566.54	43906.11
566.70	43969.30
566.87	44130.80
567.03	43636.95
567.19	43978.67
567.36	43627.59
567.52	43693.12
567.68	44332.09
567.85	44062.93
568.01	43849.94
568.17	43491.83
568.34	43913.13
568.50	43569.07
568.66	43749.29
568.83	44198.68
568.99	43538.65
569.15	44229.10
569.32	43906.11
569.48	43555.03
569.64	44306.34
569.81	44245.49
569.97	44154.21
570.13	44086.33
570.30	43969.30
570.46	43775.04
570.62	43634.61
570.78	44114.42
570.95	44357.83
571.11	44556.78
571.27	44217.40
571.43	43934.20
571.60	44165.91
571.76	44481.88
571.92	44030.16
572.09	44156.55
572.25	43793.76
572.41	44114.42
572.57	44346.13
572.74	45104.46
572.90	44189.31
573.06	44280.60
573.22	44292.30
573.38	44453.79
573.55	43924.83
573.71	44411.67
573.87	44194.00
574.03	43718.87
574.20	44006.75
574.36	44388.26
574.52	44158.89
574.68	44327.41
574.84	44430.39
575.01	44341.45
575.17	44191.65
575.33	44149.53
575.49	44355.49
575.65	44392.94
575.82	44137.82
575.98	43957.60
576.14	44704.23
576.30	44559.12
576.46	44186.97
576.62	44039.52
576.79	44215.06
576.95	44065.27
577.11	44149.53
577.27	44287.62
577.43	44767.43
577.59	44463.16
577.75	44233.78
577.92	43793.76
578.08	43805.47
578.24	43814.83
578.40	44287.62
578.56	44156.55
578.72	44210.38
578.88	44521.67
579.04	44596.57
579.21	44004.41
579.37	44226.76
579.53	44821.26
579.69	44542.74
579.85	44458.48
580.01	44315.70
580.17	44921.90
580.33	44706.57
580.49	44643.38
580.65	44514.65
580.82	44596.57
580.98	44194.00
581.14	44325.07
581.30	44701.89
581.46	44205.70
581.62	44605.93
581.78	44652.74
581.94	44568.48
582.10	44484.22
582.26	44652.74
582.42	44685.51
582.58	44273.57
582.74	44446.77
582.90	44121.44
583.06	44409.32
583.22	44634.02
583.38	44793.17
583.54	44346.13
583.70	44465.50
583.86	44367.20
584.02	44140.16
584.18	44371.88
584.34	44430.39
584.50	44854.03
584.66	44383.58
584.82	44086.33
584.98	44680.83
585.14	44528.69
585.30	44376.56
585.46	44481.88
585.62	44388.26
585.78	44498.26
585.94	44524.01
586.10	44233.78
586.26	44402.30
586.42	44612.95
586.58	44783.81
586.74	44449.11
586.90	44493.58
587.06	44376.56
587.22	44292.30
587.38	44053.56
587.54	44893.82
587.70	44858.71
587.86	44549.76
588.02	44758.06
588.18	44584.86
588.34	44439.75
588.49	44493.58
588.65	44149.53
588.81	44753.38
588.97	44149.53
589.13	44584.86
589.29	44264.21
589.45	44968.71
589.61	44959.35
589.77	44502.95
589.93	44615.29
590.08	44786.15
590.24	44992.12
590.40	44760.40
590.56	45127.87
590.72	44765.09
590.88	45158.30
591.04	45090.42
591.20	45235.53
591.35	44957.01
591.51	45380.65
591.67	44493.58
591.83	44856.37
591.99	44334.43
592.15	44383.58
592.31	44772.11
592.46	44912.54
592.62	44591.89
592.78	45078.72
592.94	44992.12
593.10	44467.84
593.26	45034.25
593.41	44755.72
593.57	44729.98
593.73	44957.01
593.89	44931.26
594.05	44732.32
594.20	45125.53
594.36	44954.67
594.52	45123.19
594.68	44549.76
594.84	45324.47
594.99	44907.86
595.15	45261.28
595.31	45162.98
595.47	44849.35
595.62	44734.66
595.78	45172.34
595.94	45027.23
596.10	45055.31
596.25	45275.32
596.41	45352.56
596.57	44884.45
596.73	45284.68
596.88	45202.77
597.04	45076.38
597.20	44933.60
597.36	45085.74
597.51	45507.04
597.67	45055.31
597.83	44809.56
597.99	45031.91
598.14	45020.20
598.30	44425.71
598.46	44755.72
598.61	45067.02
598.77	44601.25
598.93	44629.34
599.09	44722.96
599.24	45270.64
599.40	44694.87
599.56	44949.99
599.71	45003.82
599.87	45270.64
600.03	45038.93
600.18	44732.32
600.34	44816.58
600.50	44994.46
600.65	44779.13
600.81	45148.93
600.97	45481.29
601.12	45139.57
601.28	45188.72
601.44	45057.65
601.59	44847.00
601.75	44545.08
601.91	44481.88
602.06	44832.96
602.22	44896.16
602.37	44758.06
602.53	44854.03
602.69	45462.57
602.84	44917.22
603.00	45130.21
603.16	44949.99
603.31	44924.24
603.47	45013.18
603.62	45003.82
603.78	44886.79
603.94	44732.32
604.09	45134.89
604.25	45113.83
604.40	45312.77
604.56	44526.35
604.71	44863.39
604.87	45029.57
605.03	44879.77
605.18	44442.09
605.34	44622.31
605.49	44622.31
605.65	45064.67
605.80	44823.60
605.96	45221.49
606.12	44809.56
606.27	45111.49
606.43	44624.65
606.58	45294.05
606.74	44669.12
606.89	45301.07
607.05	44587.21
607.20	44739.34
607.36	44732.32
607.51	45223.83
607.67	44657.42
607.82	44708.91
607.98	44858.71
608.13	44739.34
608.29	45034.25
608.44	44587.21
608.60	44051.22
608.75	44133.14
608.91	44669.12
609.06	44617.63
609.22	44699.55
609.37	44156.55
609.53	44938.29
609.68	44823.60
609.84	44561.46
609.99	44498.26
610.15	44648.06
610.30	44294.64
610.46	44259.53
610.61	44271.23
610.76	44760.40
610.92	44278.25
611.07	44634.02
611.23	44484.22
611.38	44163.57
611.54	44692.53
611.69	43908.45
611.84	43948.24
612.00	44409.32
612.15	44346.13
612.31	44612.95
612.46	44406.98
612.62	44383.58
612.77	44568.48
612.92	44708.91
613.08	44058.24
613.23	44463.16
613.39	44177.61
613.54	43908.45
613.69	43693.12
613.85	44018.46
614.00	44165.91
614.15	44009.09
614.31	44516.99
614.46	44486.56
614.62	44170.59
614.77	44133.14
614.92	44093.35
615.08	43620.56
615.23	43456.73
615.38	44018.46
615.54	43409.92
615.69	43793.76
615.84	43648.65
616.00	43948.24
616.15	43995.05
616.30	43922.49
616.46	43374.81
616.61	43693.12
616.76	43608.86
616.92	43136.07
617.07	43679.08
617.22	43538.65
617.37	43239.06
617.53	44240.81
617.68	43821.85
617.83	43555.03
617.99	43777.38
618.14	43381.83
618.29	43468.43
618.45	43311.61
618.60	43168.84
618.75	43339.70
618.90	43335.02
619.06	43531.62
619.21	43377.15
619.36	43885.04
619.51	43517.58
619.67	43625.25
619.82	43356.08
619.97	43746.95
620.12	43306.93
620.28	42759.25
620.43	42742.86
620.58	43576.09
620.73	43449.70
620.89	42766.27
621.04	42780.31
621.19	43082.24
621.34	43225.01
621.49	43164.16
621.65	43026.07
621.80	42990.96
621.95	42735.84
622.10	43084.58
622.25	42653.92
622.41	42834.14
622.56	42920.74
622.71	42845.85
622.86	43063.52
623.01	42852.87
623.16	43447.36
623.32	42876.27
623.47	42721.80
623.62	42899.68
623.77	42581.37
623.92	42356.67
624.07	42300.50
624.23	42478.38
624.38	42192.84
624.53	42628.18
624.68	42532.22
624.83	42520.51
624.98	42749.88
625.13	42663.28
625.29	42845.85
625.44	42394.12
625.59	42136.66
625.74	42312.20
625.89	41851.12
626.04	41727.07
626.19	42387.10
626.34	42122.62
626.49	42043.04
626.65	42059.43
626.80	42071.13
626.95	41729.41
627.10	42000.91
627.25	42010.28
627.40	41563.23
627.55	41799.63
627.70	41125.55
627.85	41799.63
628.00	42068.79
628.15	41785.58
628.30	41528.13
628.45	41799.63
628.60	41848.78
628.76	41865.16
628.91	41851.12
629.06	41556.21
629.21	41387.69
629.36	41727.07
629.51	41668.56
629.66	41991.55
629.81	41832.39
629.96	41237.90
630.11	41518.76
630.26	41776.22
630.41	41195.77
630.56	41177.04
630.71	41680.26
630.86	41109.17
631.01	41347.90
631.16	41261.30
631.31	41371.31
631.46	40760.43
631.61	41263.64
631.76	41296.41
631.91	40898.52
632.06	41230.88
632.21	41109.17
632.36	41628.77
632.51	41170.02
632.66	41450.89
632.81	40669.15
632.96	41069.38
633.10	40334.45
633.25	40495.95
633.40	41102.15
633.55	41336.20
633.70	40978.10
633.85	40671.49
634.00	41034.27
634.15	40875.12
634.30	40802.56
634.45	40722.98
634.60	40437.44
634.75	40765.11
634.90	40545.10
635.05	40868.09
635.19	40844.69
635.34	40884.48
635.49	41041.29
635.64	40718.30
635.79	40624.68
635.94	40353.18
636.09	40641.06
636.24	40360.20
636.39	40538.08
636.53	40147.21
636.68	40582.55
636.83	40254.87
636.98	40542.76
637.13	39941.24
637.28	40229.13
637.43	40458.50
637.57	40556.80
637.72	40343.81
637.87	40009.12
638.02	40243.17
638.17	40201.04
638.32	39945.92
638.46	39871.03
638.61	40275.94
638.76	39807.83
638.91	40208.06
639.06	40381.26
639.20	39709.53
639.35	39948.26
639.50	39990.39
639.65	40084.01
639.80	40109.76
639.94	40275.94
640.09	39873.37
640.24	39901.45
640.39	39442.71
640.54	39707.19
640.68	39578.46
640.83	40039.54
640.98	39618.25
641.13	39505.90
641.27	39856.98
641.42	39456.75
641.57	39517.60
641.72	39538.67
641.86	39171.21
642.01	39283.55
642.16	39412.28
642.31	39129.08
642.45	39592.50
642.60	38904.38
642.75	39290.57
642.90	39262.49
643.04	39007.37
643.19	39253.12
643.34	39426.32
643.48	39480.16
643.63	39026.09
643.78	39409.94
643.93	39049.50
644.07	38955.88
644.22	38649.27
644.37	38710.12
644.51	38806.08
644.66	38742.89
644.81	38754.59
644.95	38988.64
645.10	38738.21
645.25	39096.31
645.39	39115.03
645.54	39159.50
645.69	39023.75
645.83	38639.90
645.98	39100.99
646.13	38981.62
646.27	38995.67
646.42	39026.09
646.57	38508.83
646.71	38602.46
646.86	38550.96
647.00	38836.51
647.15	38625.86
647.30	39042.48
647.44	38637.56
647.59	38890.34
647.74	38665.65
647.88	38583.73
648.03	38181.16
648.17	38562.67
648.32	38284.14
648.47	38139.03
648.61	38586.07
648.76	38239.67
648.90	38604.80
649.05	38160.09
649.20	38408.19
649.34	38850.55
649.49	38586.07
649.63	38548.62
649.78	38579.05
649.92	38092.22
650.07	38679.69
650.21	38040.73
650.36	38272.44
650.51	37942.42
650.65	38513.52
650.80	38366.06
650.94	38450.32
651.09	38377.76
651.23	37677.94
651.38	38080.52
651.52	37801.99
651.67	38071.15
651.81	37930.72
651.96	38017.32
652.10	37699.01
652.25	37673.26
652.39	37944.76
652.54	37684.97
652.68	38022.00
652.83	38239.67
652.97	37785.61
653.12	37890.93
653.26	37553.90
653.41	37502.40
653.55	37448.57
653.70	37518.79
653.84	37900.29
653.99	37809.01
654.13	37769.22
654.27	37202.82
654.42	37284.73
654.56	37493.04
654.71	37530.49
654.85	37699.01
655.00	37507.08
655.14	37326.86
655.29	37038.98
655.43	37092.81
655.57	36973.44
655.72	36840.03
655.86	37015.57
656.01	37116.22
656.15	37029.62
656.30	36818.97
656.44	36704.28
656.58	36840.03
656.73	36781.52
656.87	36678.54
657.01	36493.63
657.16	36762.79
657.30	36528.74
657.45	36395.33
657.59	36624.70
657.73	36739.39
657.88	36783.86
658.02	36306.39
658.16	36847.05
658.31	36348.52
658.45	36744.07
658.60	36301.71
658.74	36678.54
658.88	36800.24
659.03	36505.34
659.17	36266.60
659.31	36435.12
659.46	36444.48
659.60	36531.08
659.74	36137.87
659.89	35915.52
660.03	36058.29
660.17	36030.21
660.32	36137.87
660.46	36201.07
660.60	36041.91
660.74	36322.77
660.89	36112.13
661.03	35655.72
661.17	35606.57
661.32	35545.72
661.46	35934.24
661.60	35524.65
661.74	35756.36
661.89	35754.02
662.03	35641.68
662.17	35227.40
662.31	35019.10
662.46	35629.98
662.60	35426.35
662.74	35491.88
662.88	35445.07
663.03	35473.16
663.17	35070.59
663.31	34815.47
663.45	35463.80
663.60	35325.71
663.74	35037.82
663.88	34775.68
664.02	34436.30
664.17	34761.64
664.31	34848.24
664.45	34754.61
664.59	34644.61
664.73	35047.18
664.88	34583.76
665.02	34190.55
665.16	34684.40
665.30	34176.50
665.44	34572.05
665.59	34057.14
665.73	34263.10
665.87	34047.77
666.01	34019.69
666.15	34015.01
666.29	34143.74
666.44	34188.21
666.58	34227.99
666.72	34600.14
666.86	34122.67
667.00	34073.52
667.14	33802.02
667.28	33708.40
667.43	33914.36
667.57	33694.35
667.71	33530.51
667.85	33656.90
667.99	33352.63
668.13	33570.30
668.27	33170.07
668.41	33647.54
668.56	32772.18
668.70	33490.73
668.84	32896.23
668.98	33319.87
669.12	33095.18
669.26	33177.09
669.40	33027.30
669.54	32800.27
669.68	33003.89
669.82	32917.29
669.96	32840.06
670.10	32772.18
670.25	33020.28
670.39	32472.59
670.53	32575.58
670.67	32629.41
670.81	32959.42
670.95	32711.33
671.09	32779.20
671.23	32559.19
671.37	32488.98
671.51	31915.54
671.65	32018.53
671.79	31630.00
671.93	31974.06
672.07	32458.55
672.21	31793.84
672.35	31583.19
672.49	31978.74
672.63	31992.78
672.77	31768.09
672.91	31674.47
673.05	31896.82
673.19	31559.78
673.33	31625.32
673.47	31005.08
673.61	31285.94
673.75	30976.99
673.89	30932.52
674.03	30724.21
674.17	30930.18
674.31	30885.71
674.45	30710.17
674.59	30899.75
674.73	30721.87
674.87	30820.17
675.01	30855.28
675.15	30773.36
675.29	30464.41
675.43	30874.01
675.56	30431.65
675.70	30398.88
675.84	30092.27
675.98	29261.38
676.12	30218.66
676.26	30029.07
676.40	30022.05
676.54	29619.48
676.68	29677.99
676.82	29383.09
676.96	29582.03
677.10	29209.89
677.23	29195.84
677.37	28978.17
677.51	29111.58
677.65	29383.09
677.79	29003.92
677.93	29076.48
678.07	28950.09
678.21	28479.64
678.34	28364.95
678.48	28737.10
678.62	28725.39
678.76	28348.57
678.90	28357.93
679.04	28360.27
679.18	28325.16
679.31	27611.30
679.45	27599.60
679.59	27517.68
679.73	27304.69
679.87	27969.40
680.00	27997.49
680.14	27508.32
680.28	27585.55
680.42	27241.50
680.56	27283.62
680.70	27428.74
680.83	27014.46
680.97	26951.27
681.11	27012.12
681.25	26909.14
681.39	26845.94
681.52	26768.71
681.66	27178.30
681.80	26459.76
681.94	26759.34
682.07	26302.94
682.21	26127.40
682.35	25905.05
682.49	26260.81
682.62	26071.23
682.76	25930.80
682.90	26080.59
683.04	25851.22
683.17	25523.54
683.31	25776.32
683.45	25504.82
683.59	25518.86
683.72	25656.95
683.86	25151.40
684.00	25165.44
684.13	25509.50
684.27	25144.38
684.41	24924.36
684.55	24620.10
684.68	24940.75
684.82	24599.03
684.96	24587.33
685.09	24915.00
685.23	24690.31
685.37	24390.72
685.50	24486.68
685.64	24519.45
685.78	24084.11
685.91	24575.62
686.05	23866.44
686.19	23733.03
686.32	24079.43
686.46	23716.65
686.60	23318.76
686.73	23363.23
686.87	23307.05
687.01	23243.86
687.14	23065.98
687.28	23028.53
687.42	22817.88
687.55	22862.35
687.69	22506.59
687.82	22838.95
687.96	22792.14
688.10	22773.41
688.23	22630.64
688.37	22766.39
688.50	22279.56
688.64	22363.82
688.78	22286.58
688.91	22038.48
689.05	22169.55
689.18	22087.64
689.32	21844.22
689.46	21687.40
689.59	21916.78
689.73	22085.30
689.86	21652.30
690.00	21542.29
690.13	21710.81
690.27	21537.61
690.41	21317.60
690.54	20971.20
690.68	21233.34
690.81	21139.72
690.95	21006.31
691.08	21324.62
691.22	20851.83
691.35	21214.62
691.49	20926.73
691.62	20781.62
691.76	20842.47
691.89	20627.14
692.03	20545.22
692.16	20343.94
692.30	20236.27
692.43	19967.11
692.57	19997.54
692.70	19962.43
692.84	19829.02
692.97	19580.92
693.11	19503.68
693.24	19552.84
693.38	19660.50
693.51	19496.66
693.65	19454.53
693.78	19300.06
693.92	19344.53
694.05	19276.65
694.19	18927.91
694.32	19112.81
694.45	18838.97
694.59	18855.36
694.72	18878.76
694.86	18785.14
694.99	18607.26
695.13	18782.80
695.26	18501.93
695.39	18150.85
695.53	18513.64
695.66	18621.30
695.80	18340.44
695.93	18305.33
696.07	18235.11
696.20	18122.77
696.33	18045.53
696.47	17841.90
696.60	17919.14
696.73	17715.51
696.87	17755.30
697.00	17682.75
697.14	17745.94
697.27	17111.66
697.40	17408.90
697.54	17476.78
697.67	17355.07
697.80	17504.87
697.94	16926.75
698.07	16879.94
698.21	16978.25
698.34	16788.66
698.47	16641.21
698.61	16793.34
698.74	16437.58
698.87	16662.27
699.01	16252.68
699.14	16524.18
699.27	16449.28
699.40	16313.53
699.54	16250.34
699.67	15910.96
699.80	15913.30
699.94	15915.64
700.07	16187.14
700.20	15899.26
700.34	15634.78
700.47	15676.91
700.60	15702.65
700.73	15573.92
700.87	15550.52
701.00	15482.64
701.13	15374.98
701.26	15307.10
701.40	15360.94
701.53	15304.76
701.66	15084.75
701.79	14974.75
701.93	15066.03
702.06	14604.94
702.19	14743.03
702.32	14813.25
702.46	14728.99
702.59	14892.83
702.72	14684.52
702.85	14485.58
702.99	14593.24
703.12	14504.30
703.25	14698.56
703.38	14703.25
703.51	14218.75
703.65	14518.34
703.78	14104.07
703.91	13982.36
704.04	14083.00
704.17	14129.81
704.31	13858.31
704.44	13385.52
704.57	13776.39
704.70	13371.48
704.83	13530.64
704.96	13619.58
705.10	13652.34
705.23	13404.25
>>>>>End Processed Spectral Data<<<<<
