SpectraSuite Data File
++++++++++++++++++++++++++++++++++++
Date: Fri Oct 25 11:33:51 EDT 2013
User: price-jones
Dark Spectrum Present: No
Reference Spectrum Present: No
Number of Sampled Component Spectra: 1
Spectrometers: USB2+H05261
Integration Time (usec): 100000 (USB2+H05261)
Spectra Averaged: 1 (USB2+H05261)
Boxcar Smoothing: 0 (USB2+H05261)
Correct for Electrical Dark: No (USB2+H05261)
Strobe/Lamp Enabled: No (USB2+H05261)
Correct for Detector Non-linearity: No (USB2+H05261)
Correct for Stray Light: No (USB2+H05261)
Number of Pixels in Processed Spectrum: 2048
>>>>>Begin Processed Spectral Data<<<<<
365.73	168.52
365.92	168.52
366.12	168.52
366.32	210.65
366.52	198.95
366.72	177.88
366.91	170.86
367.11	168.52
367.31	154.48
367.51	91.28
367.70	224.69
367.90	257.46
368.10	191.92
368.30	194.26
368.49	161.50
368.69	182.56
368.89	173.20
369.09	198.95
369.28	161.50
369.48	243.42
369.68	243.42
369.87	210.65
370.07	280.86
370.27	339.38
370.47	313.63
370.66	540.66
370.86	454.06
371.06	568.75
371.25	528.96
371.45	491.51
371.65	475.13
371.84	524.28
372.04	540.66
372.24	580.45
372.44	674.07
372.63	624.92
372.83	655.35
373.03	638.97
373.22	538.32
373.42	585.13
373.62	561.73
373.81	662.37
374.01	674.07
374.21	720.88
374.40	692.80
374.60	755.99
374.79	615.56
374.99	624.92
375.19	580.45
375.38	645.99
375.58	671.73
375.78	737.27
375.97	718.54
376.17	669.39
376.37	716.20
376.56	671.73
376.76	648.33
376.95	697.48
377.15	676.41
377.35	615.56
377.54	648.33
377.74	690.46
377.93	702.16
378.13	697.48
378.33	737.27
378.52	671.73
378.72	664.71
378.91	718.54
379.11	746.63
379.31	746.63
379.50	760.67
379.70	720.88
379.89	720.88
380.09	763.01
380.28	744.29
380.48	774.72
380.68	737.27
380.87	748.97
381.07	774.72
381.26	765.36
381.46	748.97
381.65	741.95
381.85	690.46
382.04	741.95
382.24	809.83
382.43	866.00
382.63	753.65
382.83	854.30
383.02	830.89
383.22	954.94
383.41	870.68
383.61	798.12
383.80	788.76
384.00	791.10
384.19	650.67
384.39	802.80
384.58	851.96
384.78	821.53
384.97	798.12
385.17	786.42
385.36	765.36
385.56	777.06
385.75	814.51
385.95	842.59
386.14	908.13
386.34	809.83
386.53	835.57
386.72	875.36
386.92	884.72
387.11	884.72
387.31	870.68
387.50	901.11
387.70	931.53
387.89	908.13
388.09	873.02
388.28	877.70
388.48	917.49
388.67	880.04
388.86	858.98
389.06	954.94
389.25	926.85
389.45	1013.45
389.64	903.45
389.84	987.71
390.03	964.30
390.22	964.30
390.42	1011.11
390.61	966.64
390.81	987.71
391.00	1001.75
391.19	973.66
391.39	1008.77
391.58	1015.79
391.78	959.62
391.97	1011.11
392.16	971.32
392.36	1074.31
392.55	1004.09
392.75	1090.69
392.94	1015.79
393.13	1039.20
393.33	1057.92
393.52	1088.35
393.71	1095.37
393.91	1104.73
394.10	1025.15
394.29	1083.67
394.49	1071.97
394.68	1156.22
394.88	1057.92
395.07	1165.59
395.26	1163.25
395.46	1137.50
395.65	1193.67
395.84	1200.69
396.04	1294.32
396.23	1160.91
396.42	1163.25
396.62	1142.18
396.81	1282.61
397.00	1226.44
397.19	1275.59
397.39	1174.95
397.58	1322.40
397.77	1132.82
397.97	1233.46
398.16	1242.82
398.35	1329.42
398.55	1188.99
398.74	1266.23
398.93	1301.34
399.12	1366.87
399.32	1343.47
399.51	1352.83
399.70	1350.49
399.90	1387.94
400.09	1397.30
400.28	1423.05
400.47	1427.73
400.67	1406.66
400.86	1451.13
401.05	1394.96
401.24	1469.86
401.44	1458.15
401.63	1387.94
401.82	1434.75
402.01	1439.43
402.21	1427.73
402.40	1495.60
402.59	1460.49
402.78	1490.92
402.97	1526.03
403.17	1682.85
403.36	1483.90
403.55	1544.75
403.74	1593.90
403.93	1427.73
404.13	1614.97
404.32	1596.25
404.51	1591.56
404.70	1685.19
404.89	1631.35
405.09	1680.50
405.28	1682.85
405.47	1717.95
405.66	1603.27
405.85	1732.00
406.05	1605.61
406.24	1636.03
406.43	1748.38
406.62	1905.20
406.81	1760.08
407.00	1767.10
407.20	1753.06
407.39	1837.32
407.58	1760.08
407.77	1842.00
407.96	1832.64
408.15	1926.26
408.34	1703.91
408.54	1893.49
408.73	1884.13
408.92	1909.88
409.11	1959.03
409.30	1949.67
409.49	1952.01
409.68	2047.97
409.87	1954.35
410.07	2010.52
410.26	1973.07
410.45	2029.24
410.64	2022.22
410.83	2139.25
411.02	2024.56
411.21	2085.42
411.40	2160.31
411.59	2221.17
411.78	2167.34
411.98	2195.42
412.17	2216.49
412.36	2258.62
412.55	2284.36
412.74	2324.15
412.93	2338.20
413.12	2359.26
413.31	2483.31
413.50	2429.48
413.69	2373.30
413.88	2459.90
414.07	2413.09
414.26	2530.12
414.45	2576.93
414.64	2544.16
414.83	2595.65
415.02	2581.61
415.22	2703.32
415.41	2679.91
415.60	2637.78
415.79	2614.38
415.98	2813.32
416.17	2661.19
416.36	2614.38
416.55	2785.24
416.74	2867.16
416.93	2759.49
417.12	2740.77
417.31	2808.64
417.50	2888.22
417.69	2972.48
417.88	2942.05
418.07	2883.54
418.26	2909.29
418.45	3023.97
418.64	3119.93
418.83	2986.52
419.02	2923.33
419.21	3054.40
419.39	3028.65
419.58	3038.02
419.77	3005.25
419.96	3141.00
420.15	3152.70
420.34	3115.25
420.53	3171.43
420.72	3218.24
420.91	3187.81
421.10	3300.16
421.29	3206.53
421.48	3344.63
421.67	3302.50
421.86	3262.71
422.05	3342.28
422.24	3258.03
422.43	3349.31
422.61	3321.22
422.80	3456.97
422.99	3377.39
423.18	3339.94
423.37	3445.27
423.56	3321.22
423.75	3330.58
423.94	3211.22
424.13	3267.39
424.32	3269.73
424.50	3393.78
424.69	3522.51
424.88	3499.10
425.07	3389.10
425.26	3480.38
425.45	3396.12
425.64	3304.84
425.83	3384.41
426.01	3662.94
426.20	3538.89
426.39	3478.04
426.58	3503.78
426.77	3590.38
426.96	3737.84
427.15	3501.44
427.33	3543.57
427.52	3660.60
427.71	3737.84
427.90	3564.64
428.09	3749.54
428.28	3473.36
428.46	3634.85
428.65	3810.39
428.84	3644.21
429.03	3894.65
429.22	3742.52
429.40	3730.81
429.59	3777.62
429.78	3676.98
429.97	3637.19
430.16	3768.26
430.34	3962.53
430.53	3854.86
430.72	3829.12
430.91	3885.29
431.10	3999.98
431.28	3934.44
431.47	4030.40
431.66	3992.95
431.85	3946.14
432.03	3995.29
432.22	4053.81
432.41	3906.35
432.60	4138.07
432.79	4124.02
432.97	4131.05
433.16	4147.43
433.35	4023.38
433.54	4241.05
433.72	4320.63
433.91	4187.22
434.10	4196.58
434.28	4044.45
434.47	4093.60
434.66	4175.52
434.85	4159.13
435.03	4355.74
435.22	4409.57
435.41	4540.64
435.59	4402.55
435.78	4308.93
435.97	4381.48
436.16	4430.63
436.34	4449.36
436.53	4393.19
436.72	4744.27
436.90	4456.38
437.09	4542.98
437.28	4379.14
437.46	4531.28
437.65	4547.66
437.84	4538.30
438.02	4732.56
438.21	4587.45
438.40	4493.83
438.58	4814.48
438.77	4683.41
438.96	4739.58
439.14	4910.44
439.33	4720.86
439.52	4842.57
439.70	4912.78
439.89	4931.51
440.08	5062.58
440.26	5004.07
440.45	5015.77
440.63	5039.17
440.82	5289.61
441.01	4994.70
441.19	5100.03
441.38	5224.08
441.57	5303.65
441.75	5303.65
441.94	5317.70
442.12	5270.89
442.31	5397.28
442.50	5357.49
442.68	5284.93
442.87	5502.60
443.05	5446.43
443.24	5530.69
443.43	5497.92
443.61	5694.52
443.80	5753.04
443.98	5397.28
444.17	5366.85
444.35	5643.03
444.54	5420.68
444.73	5689.84
444.91	5462.81
445.10	5493.24
445.28	5554.09
445.47	5549.41
445.65	5666.44
445.84	5764.74
446.02	5715.59
446.21	5909.85
446.39	5598.56
446.58	5809.21
446.77	5783.46
446.95	5591.54
447.14	5701.54
447.32	5797.51
447.51	5806.87
447.69	5671.12
447.88	5881.77
448.06	5753.04
448.25	5809.21
448.43	5706.23
448.62	5738.99
448.80	5783.46
448.99	5729.63
449.17	5975.39
449.36	5959.00
449.54	5886.45
449.73	6019.86
449.91	6071.35
450.10	6132.20
450.28	6230.51
450.46	6136.88
450.65	6085.39
450.83	6040.92
451.02	6174.33
451.20	6078.37
451.39	6293.70
451.57	6099.44
451.76	6186.04
451.94	6148.59
452.13	6328.81
452.31	6352.21
452.49	6181.35
452.68	6249.23
452.86	6211.78
453.05	6342.85
453.23	6373.28
453.42	6457.54
453.60	6359.24
453.78	6377.96
453.97	6282.00
454.15	6586.27
454.34	6516.05
454.52	6335.83
454.70	6539.46
454.89	6597.97
455.07	6588.61
455.26	6565.20
455.44	6644.78
455.62	6525.41
455.81	6644.78
455.99	6810.96
456.17	6665.85
456.36	6654.14
456.54	6890.54
456.73	7014.59
456.91	7110.55
457.09	6939.69
457.28	7171.40
457.46	6958.41
457.64	7091.82
457.83	6984.16
458.01	7169.06
458.19	7056.72
458.38	7269.70
458.56	7103.53
458.74	7089.48
458.93	7140.97
459.11	7190.13
459.29	7180.76
459.48	6981.82
459.66	7342.26
459.84	7300.13
460.03	7370.35
460.21	7332.90
460.39	7459.29
460.57	7473.33
460.76	7351.62
460.94	7506.10
461.12	7588.02
461.31	7618.44
461.49	7524.82
461.67	7660.57
461.85	7665.25
462.04	7590.36
462.22	8109.96
462.40	7714.41
462.59	7751.85
462.77	7950.80
462.95	8037.40
463.13	7616.10
463.32	7836.11
463.50	7922.71
463.68	7915.69
463.86	8016.33
464.05	7679.30
464.23	8035.06
464.41	7995.27
464.59	7669.94
464.78	8002.29
464.96	8093.57
465.14	7896.97
465.32	8013.99
465.50	8018.68
465.69	7969.52
465.87	8112.30
466.05	8114.64
466.23	8147.40
466.41	8322.94
466.60	8259.75
466.78	8032.72
466.96	8149.75
467.14	8273.79
467.32	8423.59
467.51	8542.96
467.69	8184.85
467.87	8236.35
468.05	8479.76
468.23	8320.60
468.41	8264.43
468.60	8503.17
468.78	8533.59
468.96	8388.48
469.14	8557.00
469.32	8648.28
469.50	8301.88
469.69	8606.15
469.87	8760.63
470.05	8732.54
470.23	8788.71
470.41	8856.59
470.59	8868.29
470.77	8617.85
470.95	8894.04
471.14	8952.55
471.32	8772.33
471.50	9022.77
471.68	8943.19
471.86	8936.17
472.04	9107.02
472.22	9284.91
472.40	9245.12
472.58	9261.50
472.77	9259.16
472.95	9334.06
473.13	9767.06
473.31	9242.78
473.49	9312.99
473.67	9432.36
473.85	9472.15
474.03	9554.07
474.21	9643.01
474.39	9944.94
474.57	9778.76
474.75	9884.08
474.93	9856.00
475.12	9792.80
475.30	10045.58
475.48	10029.20
475.66	10005.79
475.84	9919.19
476.02	10207.08
476.20	10209.42
476.38	10303.04
476.56	10485.60
476.74	10565.18
476.92	10389.64
477.10	10476.24
477.28	10516.03
477.46	10635.39
477.64	10810.93
477.82	11162.01
478.00	11110.52
478.18	11218.19
478.36	11035.63
478.54	11204.14
478.72	11096.48
478.90	11431.18
479.08	11751.83
479.26	11779.92
479.44	11737.79
479.62	11669.91
479.80	11861.84
479.98	11925.03
480.16	12107.59
480.34	11899.28
480.52	12292.49
480.70	12332.28
480.88	12219.94
481.06	12465.69
481.24	12491.44
481.41	12559.31
481.59	12723.15
481.77	12769.96
481.95	13036.78
482.13	12863.58
482.31	12751.24
482.49	13376.16
482.67	13289.56
482.85	13390.20
483.03	13437.02
483.21	13694.47
483.39	14015.13
483.57	13727.24
483.74	13954.27
483.92	14057.26
484.10	14022.15
484.28	14455.15
484.46	14410.68
484.64	14551.11
484.82	14295.99
485.00	14654.09
485.18	14960.70
485.35	14937.30
485.53	15002.83
485.71	15037.94
485.89	15389.02
486.07	15529.45
486.25	15232.21
486.43	15662.86
486.61	15583.29
486.78	15866.49
486.96	15871.17
487.14	16152.04
487.32	16255.02
487.50	16112.25
487.68	16484.39
487.85	16535.88
488.03	16837.81
488.21	17097.61
488.39	16933.78
488.57	17310.60
488.75	17364.43
488.92	17277.83
489.10	17415.93
489.28	17614.87
489.46	17511.89
489.64	17654.66
489.81	18171.92
489.99	17961.27
490.17	18134.47
490.35	18106.38
490.53	18527.68
490.70	18801.52
490.88	18504.28
491.06	18817.91
491.24	18956.00
491.41	19171.33
491.59	19087.07
491.77	19384.32
491.95	19248.57
492.13	19506.02
492.30	19651.14
492.48	19545.81
492.66	19697.95
492.84	20020.94
493.01	19976.47
493.19	19924.98
493.37	20315.85
493.54	20299.47
493.72	20346.28
493.90	20503.09
494.08	20528.84
494.25	21120.99
494.43	21139.72
494.61	21095.25
494.79	21212.28
494.96	21067.16
495.14	21165.46
495.32	21432.29
495.49	22085.30
495.67	21804.43
495.85	21813.79
496.02	22043.17
496.20	22235.09
496.38	22272.54
496.55	22389.56
496.73	22419.99
496.91	22546.38
497.09	22977.04
497.26	22932.57
497.44	23047.26
497.62	22974.70
497.79	23278.97
497.97	23398.34
498.14	23639.41
498.32	23545.79
498.50	23613.66
498.67	24086.45
498.85	24100.50
499.03	24081.77
499.20	24123.90
499.38	24348.59
499.56	24159.01
499.73	24030.28
499.91	24376.68
500.08	24395.40
500.26	24308.80
500.44	24751.17
500.61	24774.57
500.79	24732.44
500.97	24982.88
501.14	25392.47
501.32	25090.54
501.49	25296.51
501.67	25338.64
501.84	25654.61
502.02	25436.94
502.20	25692.06
502.37	25687.38
502.55	25734.19
502.72	25872.28
502.90	26059.52
503.07	26160.17
503.25	25961.22
503.43	26314.64
503.60	26178.89
503.78	26431.67
503.95	26295.92
504.13	26455.08
504.30	26555.72
504.48	26513.59
504.65	26850.63
504.83	26855.31
505.01	27154.90
505.18	27030.85
505.36	27641.73
505.53	26913.82
505.71	27821.95
505.88	27363.20
506.06	27110.43
506.23	27470.87
506.41	27295.33
506.58	27632.36
506.76	27725.99
506.93	28407.08
507.11	27896.85
507.28	28039.62
507.46	27934.29
507.63	27943.66
507.81	28369.63
507.98	28575.60
508.16	28526.45
508.33	28421.13
508.50	28755.82
508.68	28638.80
508.85	29207.55
509.03	28772.21
509.20	28762.84
509.38	29179.46
509.55	29436.92
509.73	29296.49
509.90	29282.44
510.08	29263.72
510.25	29422.87
510.42	29738.85
510.60	29593.73
510.77	29846.51
510.95	30073.54
511.12	29975.24
511.30	29745.87
511.47	29764.59
511.64	29776.30
511.82	30448.03
511.99	30370.79
512.17	30464.41
512.34	30682.08
512.51	30773.36
512.69	30822.51
512.86	30663.36
513.04	30562.72
513.21	30581.44
513.38	31346.79
513.56	31208.70
513.73	30955.93
513.90	31321.05
514.08	31215.72
514.25	31402.97
514.43	31592.55
514.60	31807.88
514.77	31281.26
514.95	31627.66
515.12	31880.44
515.29	31482.55
515.47	32041.93
515.64	31960.02
515.81	32020.87
515.99	31915.54
516.16	32456.21
516.33	32385.99
516.51	32051.30
516.68	32390.67
516.85	32652.81
517.03	32730.05
517.20	32470.25
517.37	32158.96
517.54	32882.19
517.72	32926.66
517.89	32603.66
518.06	32818.99
518.24	33118.58
518.41	32992.19
518.58	33020.28
518.75	32929.00
518.93	33406.47
519.10	33603.07
519.27	33352.63
519.45	33301.14
519.62	33460.30
519.79	33841.81
519.96	33598.39
520.14	33881.60
520.31	33603.07
520.48	34141.39
520.65	33905.00
520.83	34230.33
521.00	34148.42
521.17	34162.46
521.34	34583.76
521.52	34696.10
521.69	34190.55
521.86	34511.20
522.03	34906.75
522.20	34572.05
522.38	35143.14
522.55	35075.27
522.72	34696.10
522.89	35103.35
523.07	35426.35
523.24	35028.46
523.41	35384.22
523.58	35157.19
523.75	35791.47
523.92	35512.95
524.10	35428.69
524.27	35360.81
524.44	35824.24
524.61	35606.57
524.78	35875.73
524.96	35903.82
525.13	35660.40
525.30	36018.50
525.47	36313.41
525.64	35744.66
525.81	36458.52
525.98	36060.63
526.16	36182.34
526.33	36252.56
526.50	36514.70
526.67	36184.68
526.84	36079.36
527.01	36453.84
527.18	36748.75
527.36	36783.86
527.53	36840.03
527.70	37291.76
527.87	36917.27
528.04	36858.76
528.21	37333.89
528.38	37240.26
528.55	37055.36
528.72	36875.14
528.89	37226.22
529.07	37247.29
529.24	37062.38
529.41	38139.03
529.58	37628.79
529.75	37516.45
529.92	37385.38
530.09	37565.60
530.26	37614.75
530.43	37535.17
530.60	37539.85
530.77	37479.00
530.94	37949.45
531.11	37462.61
531.28	37567.94
531.46	38059.45
531.63	38148.39
531.80	38003.28
531.97	38305.21
532.14	38190.52
532.31	38256.06
532.48	38445.64
532.65	38658.63
532.82	38291.16
532.99	38597.77
533.16	38504.15
533.33	38501.81
533.50	38689.06
533.67	38667.99
533.84	38459.68
534.01	38682.03
534.18	38698.42
534.35	39227.38
534.52	39313.98
534.69	39250.78
534.86	39419.30
535.03	39112.69
535.20	39735.27
535.37	39278.87
535.54	39386.54
535.71	39419.30
535.88	39585.48
536.05	39501.22
536.22	39615.91
536.38	39456.75
536.55	39395.90
536.72	39524.63
536.89	39489.52
537.06	39562.08
537.23	40091.04
537.40	39641.65
537.57	40009.12
537.74	39969.33
537.91	39749.32
538.08	40210.40
538.25	39622.93
538.42	40128.48
538.59	40271.26
538.75	40142.53
538.92	40266.58
539.09	40631.70
539.26	40282.96
539.43	40271.26
539.60	40821.28
539.77	40245.51
539.94	40659.79
540.11	40875.12
540.28	40662.13
540.44	40084.01
540.61	40264.24
540.78	40432.75
540.95	41022.57
541.12	41024.91
541.29	40690.21
541.46	40701.92
541.62	41071.72
541.79	41099.81
541.96	40980.44
542.13	40531.06
542.30	40910.22
542.47	41373.65
542.63	41539.83
542.80	41359.61
542.97	41514.08
543.14	42031.34
543.31	41198.11
543.48	41851.12
543.64	41991.55
543.81	41890.91
543.98	41769.20
544.15	41270.67
544.32	42422.21
544.48	42361.36
544.65	42234.97
544.82	42185.82
544.99	41897.93
545.16	42206.88
545.32	42183.48
545.49	42185.82
545.66	42586.05
545.83	42490.09
546.00	42754.57
546.16	42389.44
546.33	42347.31
546.50	42099.22
546.67	42476.04
546.83	42103.90
547.00	42574.34
547.17	42335.61
547.34	42492.43
547.50	43180.54
547.67	43299.91
547.84	42483.06
548.00	42604.77
548.17	43126.71
548.34	43065.86
548.51	42752.23
548.67	43311.61
548.84	43072.88
549.01	43276.51
549.18	43381.83
549.34	43255.44
549.51	43175.86
549.68	43660.35
549.84	43210.97
550.01	43583.12
550.18	42920.74
550.34	43580.78
550.51	44072.29
550.68	43819.51
550.84	43117.35
551.01	43658.01
551.18	43311.61
551.34	43648.65
551.51	44004.41
551.68	43934.20
551.84	43435.66
552.01	43077.56
552.18	43501.20
552.34	43814.83
552.51	43725.89
552.68	43440.34
552.84	44404.64
553.01	43887.39
553.18	43871.00
553.34	44095.69
553.51	43852.28
553.67	44388.26
553.84	44325.07
554.01	44271.23
554.17	44334.43
554.34	44210.38
554.51	44399.96
554.67	44725.30
554.84	44907.86
555.00	44423.37
555.17	44729.98
555.33	44554.44
555.50	44451.45
555.67	44692.53
555.83	44849.35
556.00	44851.69
556.16	45338.52
556.33	44945.31
556.50	45059.99
556.66	44664.44
556.83	44573.16
556.99	44720.62
557.16	45134.89
557.32	44952.33
557.49	45022.54
557.65	44444.43
557.82	44966.37
557.98	44809.56
558.15	44673.81
558.32	45057.65
558.48	45177.02
558.65	45160.64
558.81	45455.54
558.98	45139.57
559.14	44954.67
559.31	45221.49
559.47	45261.28
559.64	45214.47
559.80	45427.46
559.97	45041.27
560.13	44753.38
560.30	45357.24
560.46	46113.23
560.63	45525.76
560.79	45574.91
560.96	45500.01
561.12	45382.99
561.29	46007.91
561.45	45617.04
561.61	45598.32
561.78	45546.82
561.94	45530.44
562.11	45804.28
562.27	45708.32
562.44	45436.82
562.60	46007.91
562.77	45837.05
562.93	45766.84
563.10	46073.45
563.26	45469.59
563.42	46129.62
563.59	45703.64
563.75	45298.73
563.92	46007.91
564.08	45855.78
564.24	46075.79
564.41	46012.59
564.57	46333.24
564.74	45902.59
564.90	45722.37
565.07	45921.31
565.23	46012.59
565.39	45904.93
565.56	46447.93
565.72	45808.96
565.88	46248.99
566.05	45764.49
566.21	46366.01
566.38	46007.91
566.54	45928.33
566.70	46333.24
566.87	46272.39
567.03	45731.73
567.19	46445.59
567.36	46480.70
567.52	46206.86
567.68	46878.59
567.85	46656.24
568.01	46522.83
568.17	46040.68
568.34	46670.28
568.50	46321.54
568.66	46007.91
568.83	46358.99
568.99	46473.68
569.15	46354.31
569.32	46337.93
569.48	46459.63
569.64	46735.82
569.81	46541.55
569.97	46803.69
570.13	46787.31
570.30	46494.74
570.46	46326.22
570.62	46913.70
570.78	46707.73
570.95	46429.21
571.11	46527.51
571.27	46703.05
571.43	46590.70
571.60	46667.94
571.76	46141.32
571.92	46497.08
572.09	46637.51
572.25	46581.34
572.41	46717.09
572.57	46719.43
572.74	47051.79
572.90	46593.04
573.06	46824.76
573.22	46478.36
573.38	46681.98
573.55	46721.77
573.71	47033.07
573.87	46927.74
574.03	46887.95
574.20	46955.83
574.36	46602.41
574.52	46824.76
574.68	46646.88
574.84	47136.05
575.01	46780.29
575.17	46597.73
575.33	46845.82
575.49	46789.65
575.65	46887.95
575.82	46880.93
575.98	46995.62
576.14	47199.24
576.30	47388.83
576.46	46831.78
576.62	47117.32
576.79	46761.56
576.95	46616.45
577.11	46344.95
577.27	46686.67
577.43	46979.23
577.59	47168.82
577.75	47157.11
577.92	46621.13
578.08	47304.57
578.24	47178.18
578.40	47339.68
578.56	47456.70
578.72	46483.04
578.88	47091.58
579.04	46969.87
579.21	46794.33
579.37	47072.85
579.53	46820.08
579.69	47100.94
579.85	46897.31
580.01	46747.52
580.17	46855.18
580.33	47222.65
580.49	47192.22
580.65	47124.35
580.82	46937.10
580.98	47075.19
581.14	46850.50
581.30	47320.95
581.46	46979.23
581.62	47253.08
581.78	47129.03
581.94	47143.07
582.10	47112.64
582.26	47061.15
582.42	47084.56
582.58	47379.46
582.74	47412.23
582.90	47091.58
583.06	47217.97
583.22	47173.50
583.38	46864.55
583.54	47178.18
583.70	47009.66
583.86	47147.75
584.02	47185.20
584.18	47552.66
584.34	47255.42
584.50	47587.77
584.66	47540.96
584.82	47559.69
584.98	47543.30
585.14	47332.65
585.30	46960.51
585.46	47475.43
585.62	47241.37
585.78	47267.12
585.94	46876.25
586.10	46983.91
586.26	47077.54
586.42	46813.05
586.58	47302.23
586.74	47313.93
586.90	47084.56
587.06	47138.39
587.22	47597.13
587.38	47201.58
587.54	47449.68
587.70	47611.18
587.86	47318.61
588.02	46887.95
588.18	47356.06
588.34	47405.21
588.49	47714.16
588.65	47220.31
588.81	47442.66
588.97	47662.67
589.13	47131.37
589.29	47487.13
589.45	47480.11
589.61	47648.63
589.77	47721.18
589.93	47688.42
590.08	47686.07
590.24	47253.08
590.40	47756.29
590.56	47856.93
590.72	47632.24
590.88	47349.04
591.04	47398.19
591.20	48060.56
591.35	47873.32
591.51	47990.34
591.67	47812.46
591.83	48168.22
591.99	47800.76
592.15	47536.28
592.31	47964.60
592.46	47618.20
592.62	47894.38
592.78	48095.67
592.94	47749.27
593.10	47849.91
593.26	48226.74
593.41	47760.97
593.57	48060.56
593.73	48133.12
593.89	48231.42
594.05	48151.84
594.20	48320.36
594.36	48629.31
594.52	48020.77
594.68	47978.64
594.84	48013.75
594.99	48425.68
595.15	47543.30
595.31	48311.00
595.47	47976.30
595.62	47760.97
595.78	47906.08
595.94	47948.21
596.10	48336.74
596.25	48093.33
596.41	48107.37
596.57	48301.64
596.73	47814.80
596.88	48257.17
597.04	47625.22
597.20	48058.22
597.36	47980.98
597.51	48191.63
597.67	47973.96
597.83	48130.78
597.99	48175.25
598.14	47744.59
598.30	48025.45
598.46	48011.41
598.61	48584.84
598.77	47906.08
598.93	48538.03
599.09	47910.77
599.24	48736.98
599.40	48336.74
599.56	48275.89
599.71	48303.98
599.87	48509.94
600.03	48648.03
600.18	48423.34
600.34	47878.00
600.50	48259.51
600.65	47679.05
600.81	48596.54
600.97	48460.79
601.12	48219.72
601.28	48301.64
601.44	48069.92
601.59	48135.46
601.75	48023.11
601.91	48011.41
602.06	48011.41
602.22	48676.12
602.37	48296.95
602.53	48076.94
602.69	48355.47
602.84	48142.48
603.00	48053.54
603.16	47915.45
603.31	48083.97
603.47	47906.08
603.62	48044.18
603.78	48107.37
603.94	48303.98
604.09	48493.56
604.25	47966.94
604.40	47950.56
604.56	48170.57
604.71	48587.18
604.87	48044.18
605.03	48083.97
605.18	48357.81
605.34	48039.50
605.49	48130.78
605.65	48088.65
605.80	47676.71
605.96	47997.37
606.12	47751.61
606.27	48233.76
606.43	47849.91
606.58	48102.69
606.74	48086.31
606.89	48037.16
607.05	48346.11
607.20	47894.38
607.36	47964.60
607.51	48048.86
607.67	47978.64
607.82	47704.80
607.98	47716.50
608.13	48048.86
608.29	47950.56
608.44	48095.67
608.60	47742.25
608.75	47819.49
608.91	47952.90
609.06	47800.76
609.22	47938.85
609.37	47814.80
609.53	48140.14
609.68	48144.82
609.84	47990.34
609.99	48086.31
610.15	47641.60
610.30	47672.03
610.46	47702.46
610.61	47756.29
610.76	47952.90
610.92	47728.20
611.07	47952.90
611.23	47636.92
611.38	48065.24
611.54	48318.02
611.69	48128.44
611.84	47665.01
612.00	47784.38
612.15	47323.29
612.31	48046.52
612.46	46983.91
612.62	47622.88
612.77	47536.28
612.92	47580.75
613.08	47386.49
613.23	47622.88
613.39	47826.51
613.54	47489.47
613.69	47931.83
613.85	47784.38
614.00	47435.64
614.15	47777.36
614.31	47370.10
614.46	47447.34
614.62	47702.46
614.77	47679.05
614.92	47342.02
615.08	47339.68
615.23	47702.46
615.38	47753.95
615.54	47339.68
615.69	47505.85
615.84	47386.49
616.00	47192.22
616.15	47360.74
616.30	47585.43
616.46	47655.65
616.61	47313.93
616.76	47327.97
616.92	47194.56
617.07	47187.54
617.22	47021.36
617.37	46965.19
617.53	47313.93
617.68	47098.60
617.83	46902.00
617.99	47136.05
618.14	47323.29
618.29	46745.18
618.45	46951.15
618.60	46710.07
618.75	46775.61
618.90	46574.32
619.06	46848.16
619.21	46988.60
619.36	47430.96
619.51	47026.04
619.67	46426.87
619.82	46696.03
619.97	47124.35
620.12	46831.78
620.28	46808.37
620.43	47187.54
620.58	46864.55
620.73	47016.68
620.89	46974.55
621.04	46791.99
621.19	46983.91
621.34	46822.42
621.49	46618.79
621.65	46375.37
621.80	46932.42
621.95	46728.80
622.10	46663.26
622.25	46756.88
622.41	46728.80
622.56	46253.67
622.71	46642.20
622.86	46422.19
623.01	46726.46
623.16	46370.69
623.32	46515.81
623.47	46571.98
623.62	46890.29
623.77	46373.03
623.92	46609.43
624.07	46059.40
624.23	46726.46
624.38	46387.08
624.53	46344.95
624.68	46504.10
624.83	46127.28
624.98	46279.41
625.13	46176.43
625.29	46218.56
625.44	46169.41
625.59	45855.78
625.74	45982.16
625.89	45827.69
626.04	45958.76
626.19	45909.61
626.34	45876.84
626.49	45628.74
626.65	45914.29
626.80	45806.62
626.95	45624.06
627.10	45504.70
627.25	46302.82
627.40	45797.26
627.55	45954.08
627.70	45713.00
627.85	45647.47
628.00	45862.80
628.15	45750.45
628.30	45375.97
628.45	45336.18
628.60	44954.67
628.76	45184.04
628.91	45354.90
629.06	44949.99
629.21	45296.39
629.36	45511.72
629.51	45677.90
629.66	45500.01
629.81	45305.75
629.96	45619.38
630.11	45492.99
630.26	44966.37
630.41	45392.35
630.56	44975.73
630.71	45057.65
630.86	45322.13
631.01	44989.78
631.16	44903.18
631.31	45067.02
631.46	45294.05
631.61	45598.32
631.76	45261.28
631.91	44907.86
632.06	45584.27
632.21	44982.76
632.36	45586.61
632.51	44519.33
632.66	45071.70
632.81	44739.34
632.96	45336.18
633.10	44935.95
633.25	45214.47
633.40	44971.05
633.55	45240.21
633.70	44751.04
633.85	45130.21
634.00	44521.67
634.15	44605.93
634.30	44931.26
634.45	44296.98
634.60	44608.27
634.75	44961.69
634.90	44540.39
635.05	44940.63
635.19	44411.67
635.34	44615.29
635.49	44573.16
635.64	44502.95
635.79	44896.16
635.94	44617.63
636.09	44975.73
636.24	44336.77
636.39	44428.05
636.53	44868.07
636.68	44137.82
636.83	43955.26
636.98	44311.02
637.13	44004.41
637.28	43695.46
637.43	44526.35
637.57	44320.38
637.72	43978.67
637.87	44149.53
638.02	43866.32
638.17	43934.20
638.32	43842.92
638.46	43426.30
638.61	43445.02
638.76	43966.96
638.91	43833.55
639.06	43924.83
639.20	43819.51
639.35	43510.56
639.50	43466.09
639.65	44048.88
639.80	43859.30
639.94	44002.07
640.09	44114.42
640.24	43920.15
640.39	43674.40
640.54	43086.92
640.68	43491.83
640.83	43761.00
640.98	43920.15
641.13	43323.32
641.27	44016.11
641.42	43494.18
641.57	43922.49
641.72	43253.10
641.86	43084.58
642.01	43147.78
642.16	43669.72
642.31	42735.84
642.45	43735.25
642.60	43299.91
642.75	43077.56
642.90	43138.41
643.04	43248.42
643.19	43440.34
643.34	42967.55
643.48	42703.07
643.63	43274.16
643.78	43208.63
643.93	43456.73
644.07	43306.93
644.22	42983.94
644.37	42864.57
644.51	43145.44
644.66	43255.44
644.81	42564.98
644.95	42792.01
645.10	42419.87
645.25	42714.78
645.39	42478.38
645.54	43175.86
645.69	42644.56
645.83	42225.60
645.98	42618.81
646.13	42550.94
646.27	42623.50
646.42	42223.26
646.57	42773.29
646.71	42373.06
646.86	42810.74
647.00	42927.77
647.15	42927.77
647.30	42780.31
647.44	42698.39
647.59	42581.37
647.74	42487.74
647.88	42885.64
648.03	42635.20
648.17	42976.92
648.32	42630.52
648.47	42366.04
648.61	42319.23
648.76	42068.79
648.90	41839.42
649.05	42005.59
649.20	42433.91
649.34	42256.03
649.49	42265.39
649.63	42047.72
649.78	42555.62
649.92	42239.65
650.07	42724.14
650.21	42478.38
650.36	42487.74
650.51	41766.86
650.65	42342.63
650.80	42415.19
650.94	42398.80
651.09	41956.44
651.23	41911.97
651.38	42092.19
651.52	41495.36
651.67	41858.14
651.81	41855.80
651.96	41759.84
652.10	41610.04
652.25	41579.62
652.39	41640.47
652.54	41610.04
652.68	41394.71
652.83	41263.64
652.97	41886.23
653.12	41462.59
653.26	41837.08
653.41	41680.26
653.55	41546.85
653.70	41799.63
653.84	41689.62
653.99	41486.00
654.13	41427.48
654.27	41368.97
654.42	41684.94
654.56	41198.11
654.71	41553.87
654.85	41546.85
655.00	41244.92
655.14	41830.05
655.29	41439.18
655.43	41551.53
655.57	41347.90
655.72	40769.79
655.86	41158.32
656.01	41067.04
656.15	40685.53
656.30	40942.99
656.44	41235.56
656.58	41200.45
656.73	41177.04
656.87	40533.40
657.01	40453.82
657.16	41013.21
657.30	40844.69
657.45	40289.98
657.59	40505.31
657.73	40552.12
657.88	41090.44
658.02	40957.03
658.16	40825.96
658.31	40549.78
658.45	40786.18
658.60	40058.27
658.74	40399.99
658.88	40634.04
659.03	40437.44
659.17	40318.07
659.31	40212.74
659.46	40112.10
659.60	40243.17
659.74	40442.12
659.89	39950.60
660.03	40161.25
660.17	40414.03
660.32	39934.22
660.46	39779.74
660.60	39463.77
660.74	40231.47
660.89	39936.56
661.03	39775.06
661.17	39529.31
661.32	39323.34
661.46	40011.46
661.60	39445.05
661.74	39587.82
661.89	39686.12
662.03	39292.91
662.17	39276.53
662.31	39248.44
662.46	39285.89
662.60	39117.37
662.74	38733.53
662.88	39016.73
663.03	39133.76
663.17	39196.95
663.31	38471.39
663.45	38873.96
663.60	39283.55
663.74	39140.78
663.88	38974.60
664.02	38462.02
664.17	38895.02
664.31	38433.94
664.45	38522.88
664.59	38721.82
664.73	38211.59
664.88	38614.16
665.02	38115.62
665.16	38447.98
665.30	38361.38
665.44	37942.42
665.59	38323.93
665.73	38232.65
665.87	37986.89
666.01	37799.65
666.15	38141.37
666.29	37792.63
666.44	37837.10
666.58	37881.57
666.72	37668.58
666.86	37589.00
667.00	37376.01
667.14	37387.72
667.28	37060.04
667.43	37404.10
667.57	37298.78
667.71	37832.42
667.85	37694.33
667.99	37677.94
668.13	37280.05
668.27	36620.02
668.41	36762.79
668.56	36861.10
668.70	36535.76
668.84	36765.14
668.98	36615.34
669.12	37106.85
669.26	36554.49
669.40	36715.98
669.54	36488.95
669.68	36926.63
669.82	36446.82
669.96	35892.12
670.10	35948.29
670.25	35945.95
670.39	36484.27
670.53	36418.74
670.67	35477.84
670.81	35981.06
670.95	35903.82
671.09	35857.01
671.23	35962.33
671.37	36062.97
671.51	35370.18
671.65	35536.35
671.79	35241.45
671.93	35838.28
672.07	35487.20
672.21	35871.05
672.35	35068.25
672.49	35318.68
672.63	35239.11
672.77	35211.02
672.91	35084.63
673.05	34749.93
673.19	34658.65
673.33	34778.02
673.47	34731.21
673.61	34169.48
673.75	34047.77
673.89	34356.72
674.03	34347.36
674.17	34000.96
674.31	34260.76
674.45	33773.93
674.59	34117.99
674.73	34073.52
674.87	33504.77
675.01	33497.75
675.15	33528.17
675.29	33069.43
675.43	33401.79
675.56	33350.29
675.70	33312.84
675.84	33340.93
675.98	31786.82
676.12	33324.55
676.26	33539.88
676.40	32491.32
676.54	32416.42
676.68	32914.95
676.82	32378.97
676.96	32631.75
677.10	32727.71
677.23	32273.65
677.37	32250.24
677.51	32163.64
677.65	32283.01
677.79	31866.39
677.93	31861.71
678.07	31772.77
678.21	31791.50
678.34	31344.45
678.48	31550.42
678.62	31267.22
678.76	31496.59
678.90	31150.19
679.04	31058.91
679.18	31180.62
679.31	30824.86
679.45	30773.36
679.59	30609.53
679.73	30691.44
679.87	30333.34
680.00	30352.07
680.14	30396.54
680.28	30672.72
680.42	30309.94
680.56	30153.12
680.70	29909.71
680.83	29240.31
680.97	29820.77
681.11	29881.62
681.25	29284.78
681.39	29467.34
681.52	29603.10
681.66	28910.30
681.80	28435.17
681.94	28922.00
682.07	28535.81
682.21	28638.80
682.35	28898.59
682.49	28709.01
682.62	28547.51
682.76	28765.18
682.90	28699.65
683.04	28278.35
683.17	28072.39
683.31	27775.14
683.45	28095.79
683.59	27733.01
683.72	27208.73
683.86	27513.00
684.00	27658.11
684.13	27225.11
684.27	27192.34
684.41	27243.84
684.55	27194.68
684.68	26859.99
684.82	26305.28
684.96	26792.11
685.09	26581.46
685.23	26576.78
685.37	27007.44
685.50	27000.42
685.64	26759.34
685.78	26082.93
685.91	26162.51
686.05	25954.20
686.19	25916.75
686.32	26085.27
686.46	25525.88
686.60	25069.48
686.73	25383.11
686.87	25785.68
687.01	25556.31
687.14	25404.17
687.28	25301.19
687.42	25298.85
687.55	24992.24
687.69	25188.85
687.82	24753.51
687.96	25078.84
688.10	24814.36
688.23	24631.80
688.37	24772.23
688.50	24861.17
688.64	24556.90
688.78	24610.73
688.91	24168.37
689.05	24517.11
689.18	23939.00
689.32	23789.20
689.46	23534.09
689.59	23674.52
689.73	23747.08
689.86	24133.26
690.00	23850.06
690.13	23557.49
690.27	23321.10
690.41	23175.98
690.54	22944.27
690.68	23173.64
690.81	22600.21
690.95	22792.14
691.08	22689.15
691.22	22389.56
691.35	22654.05
691.49	22862.35
691.62	22604.89
691.76	22256.15
691.89	21998.70
692.03	21783.37
692.16	21816.13
692.30	22015.08
692.43	21558.67
692.57	21488.46
692.70	21488.46
692.84	21954.22
692.97	21151.42
693.11	21043.76
693.24	21055.46
693.38	20954.82
693.51	20858.85
693.65	20812.04
693.78	20828.43
693.92	20652.89
694.05	20634.16
694.19	20716.08
694.32	20180.10
694.45	20748.85
694.59	20903.32
694.72	20521.82
694.86	19978.81
694.99	20264.36
695.13	19999.88
695.26	19536.45
695.39	19468.58
695.53	19875.83
695.66	19971.79
695.80	19786.89
695.93	19344.53
696.07	19557.52
696.20	19098.77
696.33	18728.97
696.47	18972.38
696.60	18864.72
696.73	19005.15
696.87	19096.43
697.00	19084.73
697.14	18923.23
697.27	18518.32
697.40	18464.49
697.54	18621.30
697.67	18242.14
697.80	18225.75
697.94	17886.37
698.07	18132.13
698.21	17834.88
698.34	18207.03
698.47	17661.68
698.61	17371.46
698.74	17790.41
698.87	17631.26
699.01	17654.66
699.14	17502.53
699.27	17310.60
699.40	17366.78
699.54	16863.56
699.67	17114.00
699.80	17322.30
699.94	17102.29
700.07	17158.47
700.20	16776.96
700.34	16760.58
700.47	16800.37
700.60	17034.42
700.73	16786.32
700.87	16451.63
701.00	16189.49
701.13	16222.25
701.26	16163.74
701.40	15807.98
701.53	15901.60
701.66	15978.84
701.79	15859.47
701.93	15564.56
702.06	15700.31
702.19	15651.16
702.32	15885.22
702.46	15515.41
702.59	15669.89
702.72	15459.24
702.85	15648.82
702.99	15241.57
703.12	14956.02
703.25	15157.31
703.38	15051.99
703.51	15147.95
703.65	14963.04
703.78	14761.76
703.91	14366.21
704.04	14551.11
704.17	14239.82
704.31	14703.25
704.44	14303.01
704.57	14209.39
704.70	14291.31
704.83	14239.82
704.96	13745.97
705.10	14174.28
705.23	13891.08
>>>>>End Processed Spectral Data<<<<<
