SpectraSuite Data File
++++++++++++++++++++++++++++++++++++
Date: Fri Oct 25 10:47:27 EDT 2013
User: price-jones
Dark Spectrum Present: No
Reference Spectrum Present: No
Number of Sampled Component Spectra: 1
Spectrometers: USB2+H05261
Integration Time (usec): 100000 (USB2+H05261)
Spectra Averaged: 1 (USB2+H05261)
Boxcar Smoothing: 0 (USB2+H05261)
Correct for Electrical Dark: No (USB2+H05261)
Strobe/Lamp Enabled: No (USB2+H05261)
Correct for Detector Non-linearity: No (USB2+H05261)
Correct for Stray Light: No (USB2+H05261)
Number of Pixels in Processed Spectrum: 2048
>>>>>Begin Processed Spectral Data<<<<<
365.73	91.28
365.92	91.28
366.12	91.28
366.32	30.43
366.52	67.88
366.72	159.16
366.91	0.00
367.11	35.11
367.31	79.58
367.51	42.13
367.70	63.19
367.90	67.88
368.10	131.07
368.30	49.15
368.49	98.30
368.69	112.35
368.89	65.54
369.09	9.36
369.28	77.24
369.48	65.54
369.68	131.07
369.87	121.71
370.07	112.35
370.27	88.94
370.47	238.73
370.66	304.27
370.86	376.83
371.06	451.72
371.25	468.11
371.45	418.96
371.65	477.47
371.84	390.87
372.04	458.74
372.24	433.00
372.44	475.13
372.63	433.00
372.83	505.56
373.03	407.25
373.22	482.15
373.42	430.66
373.62	470.45
373.81	540.66
374.01	627.26
374.21	561.73
374.40	493.85
374.60	533.64
374.79	545.34
374.99	533.64
375.19	566.41
375.38	585.13
375.58	571.09
375.78	624.92
375.97	622.58
376.17	645.99
376.37	538.32
376.56	596.84
376.76	603.86
376.95	631.94
377.15	599.18
377.35	545.34
377.54	545.34
377.74	564.07
377.93	631.94
378.13	561.73
378.33	650.67
378.52	589.82
378.72	601.52
378.91	657.69
379.11	596.84
379.31	601.52
379.50	601.52
379.70	622.58
379.89	688.12
380.09	587.47
380.28	660.03
380.48	662.37
380.68	653.01
380.87	723.23
381.07	638.97
381.26	631.94
381.46	610.88
381.65	704.50
381.85	601.52
382.04	564.07
382.24	688.12
382.43	634.29
382.63	631.94
382.83	741.95
383.02	657.69
383.22	723.23
383.41	676.41
383.61	688.12
383.80	681.10
384.00	669.39
384.19	748.97
384.39	770.04
384.58	746.63
384.78	772.38
384.97	835.57
385.17	760.67
385.36	727.91
385.56	723.23
385.75	683.44
385.95	725.57
386.14	866.00
386.34	816.85
386.53	774.72
386.72	758.33
386.92	791.10
387.11	793.44
387.31	777.06
387.50	819.19
387.70	856.64
387.89	791.10
388.09	812.17
388.28	849.61
388.48	861.32
388.67	779.40
388.86	823.87
389.06	835.57
389.25	978.34
389.45	931.53
389.64	910.47
389.84	884.72
390.03	898.77
390.22	905.79
390.42	929.19
390.61	863.66
390.81	870.68
391.00	947.92
391.19	952.60
391.39	1006.43
391.58	954.94
391.78	985.37
391.97	901.11
392.16	1020.47
392.36	976.00
392.55	1060.26
392.75	964.30
392.94	915.15
393.13	987.71
393.33	1015.79
393.52	1004.09
393.71	1018.13
393.91	1015.79
394.10	983.02
394.29	1046.22
394.49	954.94
394.68	1081.33
394.88	1081.33
395.07	1114.10
395.26	1130.48
395.46	1104.73
395.65	1142.18
395.84	1104.73
396.04	1137.50
396.23	1123.46
396.42	1142.18
396.62	1046.22
396.81	1086.01
397.00	1268.57
397.19	1121.12
397.39	1179.63
397.58	1198.35
397.77	1226.44
397.97	1156.22
398.16	1289.64
398.35	1315.38
398.55	1263.89
398.74	1205.38
398.93	1275.59
399.12	1317.72
399.32	1275.59
399.51	1322.40
399.70	1366.87
399.90	1373.89
400.09	1362.19
400.28	1423.05
400.47	1416.02
400.67	1399.64
400.86	1289.64
401.05	1434.75
401.24	1399.64
401.44	1533.05
401.63	1479.22
401.82	1526.03
402.01	1441.77
402.21	1467.52
402.40	1441.77
402.59	1509.65
402.78	1638.38
402.97	1570.50
403.17	1563.48
403.36	1612.63
403.55	1561.14
403.74	1727.32
403.93	1643.06
404.13	1593.90
404.32	1504.96
404.51	1610.29
404.70	1743.70
404.89	1668.80
405.09	1710.93
405.28	1652.42
405.47	1636.03
405.66	1668.80
405.85	1699.23
406.05	1647.74
406.24	1741.36
406.43	1682.85
406.62	1741.36
406.81	1830.30
407.00	1818.60
407.20	1792.85
407.39	1774.13
407.58	1888.81
407.77	1874.77
407.96	1940.30
408.15	1966.05
408.34	1853.70
408.54	1827.96
408.73	1968.39
408.92	1968.39
409.11	2017.54
409.30	2043.29
409.49	1984.77
409.68	1952.01
409.87	1994.14
410.07	2108.82
410.26	2153.29
410.45	2162.66
410.64	2066.69
410.83	2141.59
411.02	2143.93
411.21	2155.63
411.40	2225.85
411.59	2216.49
411.78	2298.41
411.98	2235.21
412.17	2284.36
412.36	2258.62
412.55	2326.49
412.74	2436.50
412.93	2382.67
413.12	2289.04
413.31	2525.44
413.50	2380.32
413.69	2480.97
413.88	2502.03
414.07	2525.44
414.26	2448.20
414.45	2661.19
414.64	2581.61
414.83	2609.70
415.02	2656.51
415.22	2654.17
415.41	2724.38
415.60	2612.04
415.79	2775.88
415.98	2871.84
416.17	2829.71
416.36	2855.45
416.55	2794.60
416.74	2736.09
416.93	2925.67
417.12	2888.22
417.31	2855.45
417.50	2925.67
417.69	3098.87
417.88	3082.49
418.07	2958.44
418.26	2942.05
418.45	3061.42
418.64	3105.89
418.83	3040.36
419.02	3094.19
419.21	3042.70
419.39	3068.44
419.58	3197.17
419.77	3047.38
419.96	3220.58
420.15	3279.09
420.34	3297.81
420.53	3332.92
420.72	3318.88
420.91	3281.43
421.10	3239.30
421.29	3508.46
421.48	3384.41
421.67	3389.10
421.86	3281.43
422.05	3363.35
422.24	3255.69
422.43	3384.41
422.61	3391.44
422.80	3438.25
422.99	3419.52
423.18	3510.80
423.37	3487.40
423.56	3487.40
423.75	3463.99
423.94	3466.33
424.13	3255.69
424.32	3424.20
424.50	3438.25
424.69	3585.70
424.88	3585.70
425.07	3513.14
425.26	3370.37
425.45	3466.33
425.64	3501.44
425.83	3534.21
426.01	3562.30
426.20	3536.55
426.39	3468.67
426.58	3606.77
426.77	3499.10
426.96	3471.01
427.15	3482.72
427.33	3494.42
427.52	3492.08
427.71	3740.18
427.90	3625.49
428.09	3754.22
428.28	3707.41
428.46	3824.44
428.65	3803.37
428.84	3822.09
429.03	3665.28
429.22	3817.41
429.40	3702.73
429.59	3749.54
429.78	3625.49
429.97	3576.34
430.16	3672.30
430.34	3756.56
430.53	3822.09
430.72	3754.22
430.91	3843.16
431.10	3920.40
431.28	3955.51
431.47	4039.76
431.66	4159.13
431.85	4011.68
432.03	4032.74
432.22	4138.07
432.41	4119.34
432.60	4210.62
432.79	4245.73
432.97	4238.71
433.16	4191.90
433.35	4109.98
433.54	4191.90
433.72	4175.52
433.91	4180.20
434.10	4156.79
434.28	4149.77
434.47	4301.90
434.66	4423.61
434.85	4482.13
435.03	4416.59
435.22	4327.65
435.41	4514.89
435.59	4461.06
435.78	4381.48
435.97	4622.56
436.16	4411.91
436.34	4486.81
436.53	4447.02
436.72	4781.71
436.90	4234.03
437.09	4447.02
437.28	4486.81
437.46	4634.26
437.65	4613.20
437.84	4627.24
438.02	4741.93
438.21	4638.94
438.40	4554.68
438.58	4828.53
438.77	4755.97
438.96	4889.38
439.14	4966.62
439.33	5142.16
439.52	5093.01
439.70	4887.04
439.89	4990.02
440.08	4968.96
440.26	4964.28
440.45	5090.67
440.63	5104.71
440.82	5329.40
441.01	5083.64
441.19	5308.34
441.38	5392.59
441.57	5280.25
441.75	5385.57
441.94	5495.58
442.12	5313.02
442.31	5579.84
442.50	5504.94
442.68	5650.05
442.87	5397.28
443.05	5654.73
443.24	5785.80
443.43	5708.57
443.61	5708.57
443.80	5802.19
443.98	5626.65
444.17	5500.26
444.35	5839.64
444.54	5823.25
444.73	5884.11
444.91	5888.79
445.10	5792.83
445.28	5743.67
445.47	5715.59
445.65	5818.57
445.84	5874.74
446.02	5729.63
446.21	5636.01
446.39	5659.42
446.58	5774.10
446.77	5771.76
446.95	5612.60
447.14	5980.07
447.32	5905.17
447.51	5860.70
447.69	5755.38
447.88	5806.87
448.06	5923.90
448.25	5998.79
448.43	5951.98
448.62	5734.31
448.80	5907.51
448.99	6001.13
449.17	6026.88
449.36	6008.16
449.54	6218.80
449.73	6087.73
449.91	6232.85
450.10	6274.98
450.28	6375.62
450.46	6134.54
450.65	6132.20
450.83	6225.82
451.02	6188.38
451.20	6312.42
451.39	6380.30
451.57	6232.85
451.76	6197.74
451.94	6279.66
452.13	6443.49
452.31	6289.02
452.49	6122.84
452.68	6249.23
452.86	6340.51
453.05	6399.02
453.23	6560.52
453.42	6256.25
453.60	6473.92
453.78	6462.22
453.97	6560.52
454.15	6476.26
454.34	6506.69
454.52	6696.27
454.70	6539.46
454.89	6733.72
455.07	6551.16
455.26	6665.85
455.44	6881.18
455.62	6773.51
455.81	6724.36
455.99	6707.98
456.17	6869.47
456.36	6998.20
456.54	6902.24
456.73	7045.01
456.91	7009.90
457.09	7138.63
457.28	7236.94
457.46	7026.29
457.64	7201.83
457.83	7204.17
458.01	7129.27
458.19	7447.58
458.38	7208.85
458.56	7295.45
458.74	7269.70
458.93	7335.24
459.11	7382.05
459.29	7307.15
459.48	7119.91
459.66	7265.02
459.84	7478.01
460.03	7543.55
460.21	7478.01
460.39	7440.56
460.57	7391.41
460.76	7529.50
460.94	7798.66
461.12	7637.17
461.31	7630.15
461.49	7700.36
461.67	7632.49
461.85	7833.77
462.04	7641.85
462.22	8018.68
462.40	7812.71
462.59	7791.64
462.77	7815.05
462.95	7880.58
463.13	7903.99
463.32	7967.18
463.50	7932.08
463.68	7976.55
463.86	7981.23
464.05	7896.97
464.23	7871.22
464.41	8126.34
464.59	7723.77
464.78	8236.35
464.96	8023.36
465.14	8016.33
465.32	8250.39
465.50	8124.00
465.69	8231.66
465.87	8142.72
466.05	8205.92
466.23	8198.90
466.41	8388.48
466.60	8510.19
466.78	8159.11
466.96	8276.13
467.14	8273.79
467.32	8400.18
467.51	8505.51
467.69	8308.90
467.87	8472.74
468.05	8381.46
468.23	8374.44
468.41	8540.61
468.60	8510.19
468.78	8760.63
468.96	8531.25
469.14	8601.47
469.32	8779.35
469.50	8348.69
469.69	8816.80
469.87	8807.44
470.05	8704.45
470.23	8903.40
470.41	8622.53
470.59	8751.26
470.77	8784.03
470.95	9013.40
471.14	9214.69
471.32	8814.46
471.50	9266.18
471.68	9322.35
471.86	9130.43
472.04	9205.33
472.22	9343.42
472.40	9308.31
472.58	9200.65
472.77	9465.13
472.95	9387.89
473.13	9757.69
473.31	9289.59
473.49	9289.59
473.67	9383.21
473.85	9687.48
474.03	9874.72
474.21	9762.37
474.39	9909.83
474.57	9923.87
474.75	10068.98
474.93	10026.86
475.12	9919.19
475.30	10162.61
475.48	10024.51
475.66	10274.95
475.84	10076.01
476.02	10235.16
476.20	10349.85
476.38	10509.01
476.56	10565.18
476.74	10750.08
476.92	10597.95
477.10	10736.04
477.28	10836.68
477.46	10665.82
477.64	10963.07
477.82	10937.32
478.00	11178.40
478.18	11070.73
478.36	11265.00
478.54	11634.80
478.72	11452.24
478.90	11379.68
479.08	11562.25
479.26	11800.98
479.44	11698.00
479.62	11590.33
479.80	11690.98
479.98	11918.01
480.16	12318.24
480.34	12360.37
480.52	12369.73
480.70	12159.08
480.88	12250.36
481.06	12004.61
481.24	12521.87
481.41	12547.61
481.59	12889.33
481.77	12933.80
481.95	12999.34
482.13	12751.24
482.31	12968.91
482.49	13380.84
482.67	13156.15
482.85	13439.36
483.03	13668.73
483.21	13600.85
483.39	13947.25
483.57	13820.86
483.74	13907.46
483.92	13977.68
484.10	13961.30
484.28	14118.11
484.46	14384.93
484.64	14712.61
484.82	14537.07
485.00	14686.86
485.18	14808.57
485.35	15056.67
485.53	14815.59
485.71	14764.10
485.89	15143.27
486.07	15019.22
486.25	15417.11
486.43	15466.26
486.61	15389.02
486.78	15594.99
486.96	15829.04
487.14	16189.49
487.32	16224.59
487.50	16123.95
487.68	16446.94
487.85	16669.30
488.03	16594.40
488.21	17034.42
488.39	16615.46
488.57	16624.83
488.75	16982.93
488.92	17303.58
489.10	17539.97
489.28	17816.16
489.46	18087.66
489.64	17326.99
489.81	17774.03
489.99	18164.90
490.17	18340.44
490.35	18387.25
490.53	18242.14
490.70	18345.12
490.88	18494.91
491.06	18965.36
491.24	18640.03
491.41	19040.26
491.59	18932.59
491.77	18810.89
491.95	19091.75
492.13	19384.32
492.30	19613.69
492.48	19307.08
492.66	20116.90
492.84	19850.08
493.01	19843.06
493.19	19990.52
493.37	20191.80
493.54	20233.93
493.72	20238.61
493.90	20594.37
494.08	20683.31
494.25	21109.29
494.43	21179.51
494.61	20940.77
494.79	21350.37
494.96	20877.58
495.14	21289.51
495.32	21448.67
495.49	21474.42
495.67	21947.20
495.85	21830.18
496.02	22015.08
496.20	22106.36
496.38	21923.80
496.55	22583.83
496.73	22927.89
496.91	22663.41
497.09	22661.07
497.26	22508.93
497.44	22469.14
497.62	22874.06
497.79	23119.81
497.97	22672.77
498.14	23101.09
498.32	23075.34
498.50	23597.28
498.67	23672.18
498.85	23772.82
499.03	23704.95
499.20	23775.16
499.38	23864.10
499.56	24006.87
499.73	23836.02
499.91	23917.93
500.08	24336.89
500.26	24479.66
500.44	24407.11
500.61	24685.63
500.79	24680.95
500.97	24556.90
501.14	24964.15
501.32	24561.58
501.49	24793.29
501.67	25362.04
501.84	25142.03
502.02	25177.14
502.20	25422.90
502.37	25769.30
502.55	25230.98
502.72	25523.54
502.90	25783.34
503.07	25469.71
503.25	25968.24
503.43	25750.57
503.60	26017.40
503.78	25776.32
503.95	25949.52
504.13	26274.85
504.30	26260.81
504.48	26005.69
504.65	26424.65
504.83	26745.30
505.01	26637.64
505.18	26403.58
505.36	27012.12
505.53	26796.79
505.71	27276.60
505.88	27197.02
506.06	26981.70
506.23	27044.89
506.41	27070.64
506.58	27080.00
506.76	27288.31
506.93	27611.30
507.11	27470.87
507.28	27314.05
507.46	27318.73
507.63	27718.96
507.81	27927.27
507.98	28023.23
508.16	27924.93
508.33	27718.96
508.50	28327.50
508.68	28240.90
508.85	28170.69
509.03	28479.64
509.20	28741.78
509.38	28711.35
509.55	28458.57
509.73	28875.19
509.90	28933.70
510.08	28573.26
510.25	28985.19
510.42	29006.26
510.60	29252.02
510.77	29240.31
510.95	29493.09
511.12	29109.24
511.30	29572.67
511.47	29598.41
511.64	29680.33
511.82	29769.27
511.99	29792.68
512.17	29783.32
512.34	29766.93
512.51	30195.25
512.69	29919.07
512.86	30073.54
513.04	30029.07
513.21	30099.29
513.38	30225.68
513.56	30354.41
513.73	30595.48
513.90	30670.38
514.08	30501.86
514.25	30621.23
514.43	30682.08
514.60	30691.44
514.77	30717.19
514.95	31082.31
515.12	30895.07
515.29	31302.32
515.47	31330.41
515.64	31505.95
515.81	31168.91
515.99	31388.92
516.16	31250.83
516.33	31459.14
516.51	31597.23
516.68	31604.25
516.85	31393.61
517.03	31622.98
517.20	31637.02
517.37	31318.71
517.54	32086.40
517.72	31754.05
517.89	31475.52
518.06	31786.82
518.24	32011.51
518.41	31667.45
518.58	31866.39
518.75	32168.32
518.93	32283.01
519.10	31999.80
519.27	32236.20
519.45	32456.21
519.62	33034.32
519.79	32975.81
519.96	33088.15
520.14	33017.94
520.31	32643.45
520.48	33268.37
520.65	33071.77
520.83	33603.07
521.00	33638.18
521.17	33186.46
521.34	33425.19
521.52	33551.58
521.69	33968.19
521.86	33823.08
522.03	33699.03
522.20	33528.17
522.38	34071.18
522.55	34038.41
522.72	34132.03
522.89	34108.63
523.07	33982.24
523.24	33862.87
523.41	34345.02
523.58	34007.98
523.75	34845.90
523.92	34237.36
524.10	34916.11
524.27	34775.68
524.44	34733.55
524.61	35028.46
524.78	34618.86
524.96	34653.97
525.13	35058.88
525.30	35108.04
525.47	35339.75
525.64	34859.94
525.81	34955.90
525.98	35519.97
526.16	35161.87
526.33	35154.85
526.50	35211.02
526.67	35213.36
526.84	35093.99
527.01	35119.74
527.18	35477.84
527.36	35718.92
527.53	35608.91
527.70	35988.08
527.87	35747.00
528.04	35889.77
528.21	35526.99
528.38	35754.02
528.55	35899.14
528.72	35964.67
528.89	36268.94
529.07	35779.77
529.24	36023.19
529.41	36439.80
529.58	35538.69
529.75	36187.02
529.92	36292.35
530.09	36388.31
530.26	36690.24
530.43	36500.65
530.60	36540.44
530.77	36519.38
530.94	37471.98
531.11	36680.88
531.28	36795.56
531.46	36512.36
531.63	37125.58
531.80	36982.80
531.97	36973.44
532.14	37291.76
532.31	37308.14
532.48	37113.87
532.65	37097.49
532.82	36992.17
532.99	37347.93
533.16	36877.48
533.33	37177.07
533.50	37497.72
533.67	37354.95
533.84	37287.07
534.01	37284.73
534.18	37682.62
534.35	37649.86
534.52	37542.19
534.69	37837.10
534.86	38501.81
535.03	37500.06
535.20	38075.84
535.37	38115.62
535.54	38057.11
535.71	37645.18
535.88	38087.54
536.05	37944.76
536.22	38239.67
536.38	38342.66
536.55	38476.07
536.72	38206.90
536.89	37830.08
537.06	37956.47
537.23	38197.54
537.40	38714.80
537.57	39002.69
537.74	38497.13
537.91	38820.13
538.08	38721.82
538.25	38394.15
538.42	38618.84
538.59	38625.86
538.75	38572.03
538.92	38623.52
539.09	38696.08
539.26	39091.63
539.43	38698.42
539.60	38796.72
539.77	39110.35
539.94	38972.26
540.11	38759.27
540.28	38998.01
540.44	39407.60
540.61	39091.63
540.78	39009.71
540.95	39206.31
541.12	38958.22
541.29	39531.65
541.46	39599.52
541.62	39601.86
541.79	39885.07
541.96	39225.04
542.13	39077.58
542.30	39686.12
542.47	39576.12
542.63	39775.06
542.80	40203.38
542.97	40140.19
543.14	40093.38
543.31	40156.57
543.48	40346.15
543.64	40573.19
543.81	40804.90
543.98	40226.79
544.15	40318.07
544.32	40706.60
544.48	41141.94
544.65	40411.69
544.82	40760.43
544.99	40458.50
545.16	40549.78
545.32	40392.97
545.49	40753.41
545.66	40493.61
545.83	40435.10
546.00	40959.38
546.16	40741.71
546.33	40568.51
546.50	40399.99
546.67	40678.51
546.83	40715.96
547.00	40938.31
547.17	41118.53
547.34	40608.29
547.50	40996.82
547.67	41324.50
547.84	40809.58
548.00	41291.73
548.17	41062.36
548.34	41191.09
548.51	41586.64
548.67	41696.64
548.84	41787.92
549.01	41221.52
549.18	41237.90
549.34	41567.91
549.51	41516.42
549.68	41806.65
549.84	41769.20
550.01	41806.65
550.18	41134.92
550.34	41420.46
550.51	41631.11
550.68	41701.32
550.84	41500.04
551.01	41549.19
551.18	41734.09
551.34	41361.95
551.51	41771.54
551.68	41951.76
551.84	42354.33
552.01	41397.06
552.18	41872.18
552.34	41979.85
552.51	42007.94
552.68	42359.02
552.84	42471.36
553.01	42754.57
553.18	42436.25
553.34	42155.39
553.51	42010.28
553.67	41895.59
553.84	42569.66
554.01	42281.78
554.17	42726.48
554.34	42817.76
554.51	42508.81
554.67	42763.93
554.84	42085.17
555.00	42270.08
555.17	42541.58
555.33	42909.04
555.50	42820.10
555.67	42777.97
555.83	42609.45
556.00	42590.73
556.16	42738.18
556.33	42824.78
556.50	42717.12
556.66	42897.34
556.83	42674.99
556.99	43124.37
557.16	42831.80
557.32	42557.96
557.49	42799.04
557.65	42796.70
557.82	42763.93
557.98	42789.67
558.15	42869.25
558.32	43239.06
558.48	42979.26
558.65	43082.24
558.81	42607.11
558.98	43131.39
559.14	43304.59
559.31	42885.64
559.47	43220.33
559.64	43239.06
559.80	43370.13
559.97	43440.34
560.13	43365.45
560.30	43241.40
560.46	43299.91
560.63	43253.10
560.79	43110.33
560.96	43281.19
561.12	43107.99
561.29	43248.42
561.45	43578.43
561.61	43175.86
561.78	43246.08
561.94	43505.88
562.11	43587.80
562.27	43009.68
562.44	43662.69
562.60	43180.54
562.77	43557.37
562.93	43412.26
563.10	43505.88
563.26	43381.83
563.42	43438.00
563.59	42794.36
563.75	43398.21
563.92	43526.94
564.08	43590.14
564.24	43707.16
564.41	43620.56
564.57	43225.01
564.74	43756.32
564.90	43798.44
565.07	43690.78
565.23	43716.53
565.39	43583.12
565.56	43966.96
565.72	43634.61
565.88	43622.90
566.05	43887.39
566.21	43702.48
566.38	43777.38
566.54	43828.87
566.70	44191.65
566.87	44306.34
567.03	43838.23
567.19	44219.74
567.36	43709.50
567.52	43845.26
567.68	43838.23
567.85	43934.20
568.01	44027.82
568.17	43693.12
568.34	44123.78
568.50	43775.04
568.66	43700.14
568.83	43929.51
568.99	43847.60
569.15	43725.89
569.32	43885.04
569.48	43845.26
569.64	44540.39
569.81	44547.42
569.97	43880.36
570.13	44123.78
570.30	43997.39
570.46	43730.57
570.62	43716.53
570.78	44079.31
570.95	43770.36
571.11	44315.70
571.27	44240.81
571.43	44451.45
571.60	44006.75
571.76	43655.67
571.92	43924.83
572.09	43714.19
572.25	44076.97
572.41	43782.06
572.57	44009.09
572.74	44367.20
572.90	44512.31
573.06	44226.76
573.22	44093.35
573.38	44233.78
573.55	44016.11
573.71	44390.60
573.87	44212.72
574.03	44067.61
574.20	44278.25
574.36	44329.75
574.52	43896.75
574.68	44385.92
574.84	44397.62
575.01	43831.21
575.17	44463.16
575.33	44332.09
575.49	44212.72
575.65	44332.09
575.82	44655.08
575.98	44458.48
576.14	44587.21
576.30	44112.08
576.46	44058.24
576.62	43819.51
576.79	44133.14
576.95	44081.65
577.11	44493.58
577.27	44367.20
577.43	44631.68
577.59	44577.84
577.75	44318.04
577.92	44184.63
578.08	44357.83
578.24	44289.96
578.40	44250.17
578.56	44671.46
578.72	44669.12
578.88	44624.65
579.04	44584.86
579.21	44325.07
579.37	44081.65
579.53	44247.83
579.69	43714.19
579.85	44208.04
580.01	44512.31
580.17	44678.49
580.33	44516.99
580.49	44694.87
580.65	44622.31
580.82	44540.39
580.98	44446.77
581.14	44350.81
581.30	44409.32
581.46	44643.38
581.62	44652.74
581.78	44519.33
581.94	44542.74
582.10	44673.81
582.26	44765.09
582.42	44568.48
582.58	44652.74
582.74	44320.38
582.90	44196.34
583.06	44116.76
583.22	44495.92
583.38	45069.36
583.54	44828.28
583.70	44662.10
583.86	44343.79
584.02	44306.34
584.18	44491.24
584.34	44299.32
584.50	44547.42
584.66	44547.42
584.82	44584.86
584.98	44708.91
585.14	44414.01
585.30	44367.20
585.46	44498.26
585.62	44069.95
585.78	44811.90
585.94	44498.26
586.10	44201.02
586.26	44699.55
586.42	44706.57
586.58	44360.17
586.74	44797.85
586.90	44374.22
587.06	44439.75
587.22	44514.65
587.38	44507.63
587.54	44989.78
587.70	45310.43
587.86	44472.52
588.02	44411.67
588.18	44851.69
588.34	44713.59
588.49	44423.37
588.65	44205.70
588.81	44678.49
588.97	44460.82
589.13	44479.54
589.29	44680.83
589.45	45085.74
589.61	44421.03
589.77	44886.79
589.93	44722.96
590.08	44729.98
590.24	45394.69
590.40	44786.15
590.56	44917.22
590.72	44669.12
590.88	44339.11
591.04	44896.16
591.20	45090.42
591.35	44587.21
591.51	45146.59
591.67	44715.93
591.83	44889.13
591.99	44376.56
592.15	44891.48
592.31	44760.40
592.46	44715.93
592.62	44304.00
592.78	44942.97
592.94	45017.86
593.10	44776.79
593.26	45247.24
593.41	44839.98
593.57	44662.10
593.73	44690.19
593.89	44802.53
594.05	44617.63
594.20	44568.48
594.36	45436.82
594.52	44273.57
594.68	45315.11
594.84	44828.28
594.99	45076.38
595.15	44886.79
595.31	45500.01
595.47	44863.39
595.62	45230.85
595.78	45081.06
595.94	45193.40
596.10	45123.19
596.25	45092.76
596.41	45162.98
596.57	44687.85
596.73	45151.27
596.88	44793.17
597.04	44538.05
597.20	45095.10
597.36	45048.29
597.51	45598.32
597.67	44971.05
597.83	45457.88
597.99	45144.25
598.14	45165.32
598.30	44737.00
598.46	45418.10
598.61	44772.11
598.77	44561.46
598.93	44753.38
599.09	44982.76
599.24	45280.00
599.40	45382.99
599.56	45064.67
599.71	45074.04
599.87	45209.79
600.03	44727.64
600.18	44919.56
600.34	45130.21
600.50	45240.21
600.65	44971.05
600.81	44975.73
600.97	45050.63
601.12	45287.03
601.28	45160.64
601.44	44942.97
601.59	44987.44
601.75	44465.50
601.91	45020.20
602.06	44306.34
602.22	44957.01
602.37	44566.14
602.53	45001.48
602.69	45277.66
602.84	44601.25
603.00	44617.63
603.16	44978.07
603.31	45003.82
603.47	45155.96
603.62	45048.29
603.78	45404.05
603.94	44655.08
604.09	45097.44
604.25	44891.48
604.40	45294.05
604.56	44919.56
604.71	45188.72
604.87	44933.60
605.03	44957.01
605.18	44807.22
605.34	44678.49
605.49	44622.31
605.65	44856.37
605.80	44570.82
605.96	44877.43
606.12	45020.20
606.27	45146.59
606.43	44872.75
606.58	44561.46
606.74	44959.35
606.89	44779.13
607.05	44989.78
607.20	44856.37
607.36	44739.34
607.51	44947.65
607.67	44453.79
607.82	44729.98
607.98	45223.83
608.13	44601.25
608.29	45055.31
608.44	44568.48
608.60	44341.45
608.75	44416.35
608.91	44304.00
609.06	44404.64
609.22	44748.70
609.37	44343.79
609.53	44928.92
609.68	44432.73
609.84	45015.52
609.99	44818.92
610.15	44261.87
610.30	43852.28
610.46	44009.09
610.61	44158.89
610.76	44196.34
610.92	44863.39
611.07	44395.28
611.23	44626.99
611.38	44608.27
611.54	44046.54
611.69	44189.31
611.84	44004.41
612.00	44456.14
612.15	44081.65
612.31	44432.73
612.46	44280.60
612.62	44002.07
612.77	44406.98
612.92	44119.10
613.08	44119.10
613.23	44350.81
613.39	44385.92
613.54	43686.10
613.69	43973.98
613.85	43842.92
614.00	44378.90
614.15	44451.45
614.31	43971.64
614.46	44460.82
614.62	44215.06
614.77	44105.06
614.92	44163.57
615.08	43971.64
615.23	44055.90
615.38	43739.93
615.54	43540.99
615.69	43599.50
615.84	43739.93
616.00	43821.85
616.15	44425.71
616.30	43562.05
616.46	43433.32
616.61	43777.38
616.76	43442.68
616.92	43306.93
617.07	43356.08
617.22	43538.65
617.37	43842.92
617.53	43995.05
617.68	43878.02
617.83	44091.01
617.99	44069.95
618.14	43676.74
618.29	43707.16
618.45	43042.45
618.60	43459.07
618.75	43491.83
618.90	43475.45
619.06	43831.21
619.21	43232.04
619.36	43548.01
619.51	43239.06
619.67	43372.47
619.82	43459.07
619.97	43480.13
620.12	43019.05
620.28	43040.11
620.43	42878.61
620.58	43461.41
620.73	43042.45
620.89	43295.23
621.04	43112.67
621.19	43028.41
621.34	43065.86
621.49	42674.99
621.65	42841.17
621.80	43250.76
621.95	42909.04
622.10	43103.31
622.25	42841.17
622.41	42564.98
622.56	42602.43
622.71	42845.85
622.86	43220.33
623.01	42955.85
623.16	43152.46
623.32	42923.08
623.47	42955.85
623.62	42834.14
623.77	42693.71
623.92	42728.82
624.07	42543.92
624.23	42124.96
624.38	42202.20
624.53	42553.28
624.68	42300.50
624.83	42328.59
624.98	42527.53
625.13	41921.34
625.29	42438.59
625.44	42878.61
625.59	42064.11
625.74	42150.71
625.89	42129.64
626.04	41865.16
626.19	42382.42
626.34	42415.19
626.49	42120.28
626.65	42007.94
626.80	42637.54
626.95	42323.91
627.10	42000.91
627.25	41993.89
627.40	41635.79
627.55	41352.58
627.70	41443.87
627.85	41748.14
628.00	41694.30
628.15	42136.66
628.30	42438.59
628.45	41979.85
628.60	41635.79
628.76	42031.34
628.91	42017.30
629.06	41687.28
629.21	42019.64
629.36	41614.72
629.51	41333.86
629.66	41310.46
629.81	41523.44
629.96	41724.73
630.11	41708.35
630.26	41785.58
630.41	41359.61
630.56	41380.67
630.71	41329.18
630.86	41020.23
631.01	41471.95
631.16	41104.49
631.31	41413.44
631.46	41221.52
631.61	41415.78
631.76	41015.55
631.91	41212.15
632.06	41244.92
632.21	41069.38
632.36	41181.73
632.51	40840.01
632.66	41249.60
632.81	40636.38
632.96	41050.66
633.10	41247.26
633.25	40942.99
633.40	41383.01
633.55	41263.64
633.70	40975.76
633.85	40910.22
634.00	41081.08
634.15	40807.24
634.30	40828.30
634.45	40879.80
634.60	40402.33
634.75	40788.52
634.90	40521.69
635.05	40725.32
635.19	40570.85
635.34	40575.53
635.49	40556.80
635.64	39938.90
635.79	40517.01
635.94	40975.76
636.09	40407.01
636.24	40346.15
636.39	40144.87
636.53	40493.61
636.68	40573.19
636.83	40339.13
636.98	40891.50
637.13	39810.17
637.28	40287.64
637.43	40280.62
637.57	40524.04
637.72	40114.44
637.87	40699.58
638.02	40278.28
638.17	39988.05
638.32	39992.73
638.46	39587.82
638.61	40013.80
638.76	39583.14
638.91	40175.30
639.06	40095.72
639.20	40449.14
639.35	40004.44
639.50	40046.57
639.65	40016.14
639.80	40250.19
639.94	39873.37
640.09	39543.35
640.24	39543.35
640.39	39711.87
640.54	39524.63
640.68	39203.97
640.83	39943.58
640.98	39791.45
641.13	39185.25
641.27	39728.25
641.42	39246.10
641.57	40051.25
641.72	39515.26
641.86	39194.61
642.01	39274.19
642.16	39274.19
642.31	39374.83
642.45	39569.10
642.60	39075.24
642.75	39203.97
642.90	39552.71
643.04	39512.92
643.19	39185.25
643.34	39613.57
643.48	39196.95
643.63	38967.58
643.78	39468.45
643.93	38726.50
644.07	39208.65
644.22	38960.56
644.37	38806.08
644.51	39002.69
644.66	39068.22
644.81	39225.04
644.95	39208.65
645.10	39061.20
645.25	39093.97
645.39	39208.65
645.54	39131.42
645.69	38820.13
645.83	38216.27
645.98	38174.14
646.13	38951.20
646.27	38850.55
646.42	38988.64
646.57	38925.45
646.71	38733.53
646.86	38412.87
647.00	38873.96
647.15	38593.09
647.30	38932.47
647.44	38873.96
647.59	38691.40
647.74	38785.02
647.88	38501.81
648.03	38408.19
648.17	38209.25
648.32	38045.41
648.47	38232.65
648.61	38164.78
648.76	38639.90
648.90	38014.98
649.05	38373.08
649.20	38419.89
649.34	38785.02
649.49	38382.45
649.63	38073.49
649.78	38209.25
649.92	38242.01
650.07	38452.66
650.21	38080.52
650.36	38277.12
650.51	37991.58
650.65	38345.00
650.80	38345.00
650.94	38373.08
651.09	38450.32
651.23	37886.25
651.38	38157.75
651.52	37986.89
651.67	38258.40
651.81	38024.34
651.96	37626.45
652.10	37546.87
652.25	37832.42
652.39	37710.71
652.54	37675.60
652.68	37848.80
652.83	37752.84
652.97	38038.39
653.12	37502.40
653.26	37902.64
653.41	38031.36
653.55	37834.76
653.70	37345.59
653.84	37275.37
653.99	37806.67
654.13	37317.50
654.27	37305.80
654.42	37411.12
654.56	37453.25
654.71	37359.63
654.85	37441.55
655.00	37710.71
655.14	37020.25
655.29	37432.19
655.43	37036.64
655.57	37268.35
655.72	37188.77
655.86	36954.72
656.01	37048.34
656.15	36879.82
656.30	37038.98
656.44	36854.08
656.58	36715.98
656.73	36701.94
656.87	37024.93
657.01	36554.49
657.16	37057.70
657.30	36470.23
657.45	37022.59
657.59	36503.00
657.73	36514.70
657.88	36687.90
658.02	36481.93
658.16	36582.57
658.31	36975.78
658.45	36858.76
658.60	36517.04
658.74	36980.46
658.88	36889.18
659.03	36280.64
659.17	36165.96
659.31	36395.33
659.46	36205.75
659.60	36481.93
659.74	35957.65
659.89	36126.17
660.03	36189.36
660.17	36383.63
660.32	36016.16
660.46	35887.43
660.60	36081.70
660.74	36311.07
660.89	35679.13
661.03	35833.60
661.17	35828.92
661.32	35421.67
661.46	35456.78
661.60	35534.01
661.74	35899.14
661.89	35735.30
662.03	35896.80
662.17	35138.46
662.31	35253.15
662.46	35637.00
662.60	35328.05
662.74	35047.18
662.88	35166.55
663.03	34991.01
663.17	35629.98
663.31	35435.71
663.45	35314.00
663.60	35442.73
663.74	34838.87
663.88	34794.40
664.02	35019.10
664.17	35023.78
664.31	34810.79
664.45	34665.67
664.59	34829.51
664.73	34705.46
664.88	34871.64
665.02	33696.69
665.16	34719.51
665.30	34433.96
665.44	34312.25
665.59	34307.57
665.73	34064.16
665.87	33874.57
666.01	34251.40
666.15	34227.99
666.29	34007.98
666.44	34305.23
666.58	34293.53
666.72	34031.39
666.86	34096.92
667.00	34483.11
667.14	34106.29
667.28	33738.82
667.43	33684.99
667.57	33516.47
667.71	33362.00
667.85	33167.73
667.99	33736.48
668.13	33500.09
668.27	33727.12
668.41	33823.08
668.56	33209.86
668.70	33291.78
668.84	33425.19
668.98	32898.57
669.12	33303.48
669.26	33268.37
669.40	32676.22
669.54	32643.45
669.68	32797.93
669.82	33156.03
669.96	32711.33
670.10	32760.48
670.25	32765.16
670.39	32767.50
670.53	32414.08
670.67	32299.39
670.81	32533.45
670.95	32474.93
671.09	32346.20
671.23	32556.85
671.37	32315.78
671.51	32339.18
671.65	32210.45
671.79	31662.77
671.93	31936.61
672.07	31754.05
672.21	31988.10
672.35	31716.60
672.49	32088.74
672.63	31606.59
672.77	31604.25
672.91	31667.45
673.05	31672.13
673.19	31321.05
673.33	31178.28
673.47	30969.97
673.61	31323.39
673.75	31243.81
673.89	31112.74
674.03	30780.39
674.17	30817.83
674.31	30883.37
674.45	30724.21
674.59	30543.99
674.73	31035.50
674.87	30642.29
675.01	30593.14
675.15	30775.70
675.29	30988.69
675.43	30534.63
675.56	30934.86
675.70	30684.42
675.84	29907.37
675.98	29205.20
676.12	29958.86
676.26	30204.61
676.40	29881.62
676.54	29944.81
676.68	29785.66
676.82	29158.39
676.96	29591.39
677.10	28964.13
677.23	29113.92
677.37	29200.52
677.51	29736.51
677.65	29046.05
677.79	28741.78
677.93	28835.40
678.07	28790.93
678.21	28540.49
678.34	28573.26
678.48	28636.45
678.62	28425.81
678.76	28507.72
678.90	28264.31
679.04	28383.68
679.18	28027.92
679.31	27978.76
679.45	27686.20
679.59	27777.48
679.73	27697.90
679.87	27985.79
680.00	27775.14
680.14	27487.25
680.28	27517.68
680.42	27154.90
680.56	27386.61
680.70	27323.41
680.83	27190.00
680.97	26930.20
681.11	26731.26
681.25	26609.55
681.39	26684.45
681.52	26944.25
681.66	26742.96
681.80	26757.00
681.94	26469.12
682.07	26293.58
682.21	26595.51
682.35	26473.80
682.49	26422.31
682.62	26277.19
682.76	25919.09
682.90	25883.98
683.04	25909.73
683.17	25792.70
683.31	25628.87
683.45	26054.84
683.59	25544.61
683.72	25245.02
683.86	25245.02
684.00	25172.46
684.13	25186.50
684.27	25324.60
684.41	25092.88
684.55	24702.01
684.68	24868.19
684.82	25053.09
684.96	24800.32
685.09	24776.91
685.23	24369.66
685.37	24627.12
685.50	24524.13
685.64	24245.61
685.78	24088.79
685.91	24128.58
686.05	23899.21
686.19	23812.61
686.32	23688.56
686.46	23625.37
686.60	23571.54
686.73	23159.60
686.87	23384.29
687.01	23531.75
687.14	23161.94
687.28	23295.35
687.42	23157.26
687.55	22522.98
687.69	22831.93
687.82	22824.90
687.96	22923.21
688.10	22525.32
688.23	22635.32
688.37	22604.89
688.50	22209.34
688.64	22024.44
688.78	22534.68
688.91	21968.27
689.05	22136.79
689.18	22050.19
689.32	21640.59
689.46	21832.52
689.59	21916.78
689.73	22249.13
689.86	21809.11
690.00	21769.32
690.13	21912.10
690.27	21535.27
690.41	21256.75
690.54	21144.40
690.68	21001.63
690.81	21193.55
690.95	20711.40
691.08	21003.97
691.22	21111.63
691.35	20727.78
691.49	20868.22
691.62	20613.10
691.76	20680.97
691.89	20854.17
692.03	20531.18
692.16	20294.79
692.30	20442.24
692.43	20126.27
692.57	19990.52
692.70	19861.79
692.84	19850.08
692.97	19840.72
693.11	19737.74
693.24	19770.51
693.38	19662.84
693.51	19697.95
693.65	19484.96
693.78	19468.58
693.92	19552.84
694.05	19267.29
694.19	19021.53
694.32	19225.16
694.45	19288.35
694.59	18993.45
694.72	18944.30
694.86	18693.86
694.99	18448.10
695.13	18745.35
695.26	18611.94
695.39	18548.75
695.53	18260.86
695.66	18307.67
695.80	18370.86
695.93	18457.46
696.07	18167.24
696.20	18075.96
696.33	17954.25
696.47	18312.35
696.60	17792.75
696.73	17453.37
696.87	17694.45
697.00	17825.52
697.14	17420.61
697.27	17453.37
697.40	17441.67
697.54	17348.05
697.67	17294.22
697.80	17254.43
697.94	17242.73
698.07	16973.56
698.21	16758.24
698.34	17013.35
698.47	16713.77
698.61	16641.21
698.74	16629.51
698.87	16578.01
699.01	16278.43
699.14	16250.34
699.27	16449.28
699.40	16350.98
699.54	16198.85
699.67	16074.80
699.80	16283.11
699.94	15859.47
700.07	15803.30
700.20	15744.78
700.34	15800.96
700.47	15917.98
700.60	15908.62
700.73	15866.49
700.87	15569.24
701.00	15377.32
701.13	15494.35
701.26	15379.66
701.40	15517.75
701.53	15033.26
701.66	14988.79
701.79	15103.48
701.93	15040.28
702.06	14899.85
702.19	14698.56
702.32	15012.20
702.46	14593.24
702.59	14684.52
702.72	14719.63
702.85	14621.33
702.99	14733.67
703.12	14686.86
703.25	14455.15
703.38	14387.27
703.51	14228.12
703.65	14235.14
703.78	14410.68
703.91	14258.54
704.04	14111.09
704.17	14008.11
704.31	13848.95
704.44	13727.24
704.57	13661.71
704.70	13488.51
704.83	13720.22
704.96	13703.84
705.10	13879.38
705.23	13731.92
>>>>>End Processed Spectral Data<<<<<
