SpectraSuite Data File
++++++++++++++++++++++++++++++++++++
Date: Fri Oct 25 10:44:39 EDT 2013
User: price-jones
Dark Spectrum Present: No
Reference Spectrum Present: No
Number of Sampled Component Spectra: 1
Spectrometers: USB2+H05261
Integration Time (usec): 100000 (USB2+H05261)
Spectra Averaged: 1 (USB2+H05261)
Boxcar Smoothing: 0 (USB2+H05261)
Correct for Electrical Dark: No (USB2+H05261)
Strobe/Lamp Enabled: No (USB2+H05261)
Correct for Detector Non-linearity: No (USB2+H05261)
Correct for Stray Light: No (USB2+H05261)
Number of Pixels in Processed Spectrum: 2048
>>>>>Begin Processed Spectral Data<<<<<
365.73	152.13
365.92	152.13
366.12	152.13
366.32	11.70
366.52	28.09
366.72	56.17
366.91	0.00
367.11	21.06
367.31	0.00
367.51	7.02
367.70	65.54
367.90	102.98
368.10	77.24
368.30	21.06
368.49	0.00
368.69	74.90
368.89	37.45
369.09	100.64
369.28	56.17
369.48	67.88
369.68	0.00
369.87	60.85
370.07	102.98
370.27	133.41
370.47	191.92
370.66	362.78
370.86	404.91
371.06	437.68
371.25	423.64
371.45	386.19
371.65	461.09
371.84	461.09
372.04	456.40
372.24	442.36
372.44	559.39
372.63	454.06
372.83	428.32
373.03	517.26
373.22	442.36
373.42	484.49
373.62	554.71
373.81	514.92
374.01	510.24
374.21	477.47
374.40	496.19
374.60	552.37
374.79	503.22
374.99	599.18
375.19	587.47
375.38	517.26
375.58	514.92
375.78	510.24
375.97	578.11
376.17	559.39
376.37	521.94
376.56	641.31
376.76	552.37
376.95	606.20
377.15	543.00
377.35	636.63
377.54	599.18
377.74	552.37
377.93	610.88
378.13	519.60
378.33	610.88
378.52	653.01
378.72	571.09
378.91	627.26
379.11	603.86
379.31	573.43
379.50	617.90
379.70	657.69
379.89	624.92
380.09	648.33
380.28	603.86
380.48	606.20
380.68	636.63
380.87	725.57
381.07	662.37
381.26	638.97
381.46	613.22
381.65	585.13
381.85	653.01
382.04	683.44
382.24	692.80
382.43	603.86
382.63	662.37
382.83	662.37
383.02	748.97
383.22	688.12
383.41	653.01
383.61	723.23
383.80	690.46
384.00	718.54
384.19	777.06
384.39	772.38
384.58	734.93
384.78	704.50
384.97	772.38
385.17	734.93
385.36	730.25
385.56	725.57
385.75	767.70
385.95	770.04
386.14	877.70
386.34	753.65
386.53	777.06
386.72	795.78
386.92	823.87
387.11	730.25
387.31	816.85
387.50	741.95
387.70	732.59
387.89	741.95
388.09	840.25
388.28	823.87
388.48	833.23
388.67	898.77
388.86	908.13
389.06	844.93
389.25	861.32
389.45	877.70
389.64	898.77
389.84	957.28
390.03	823.87
390.22	849.61
390.42	912.81
390.61	884.72
390.81	866.00
391.00	973.66
391.19	931.53
391.39	924.51
391.58	912.81
391.78	964.30
391.97	922.17
392.16	933.87
392.36	959.62
392.55	964.30
392.75	945.58
392.94	954.94
393.13	938.55
393.33	987.71
393.52	957.28
393.71	1006.43
393.91	1034.52
394.10	1034.52
394.29	1095.37
394.49	1004.09
394.68	1071.97
394.88	1050.90
395.07	1107.07
395.26	1125.80
395.46	1083.67
395.65	1114.10
395.84	1151.54
396.04	1174.95
396.23	1228.78
396.42	1151.54
396.62	1053.24
396.81	1088.35
397.00	1221.76
397.19	1186.65
397.39	1160.91
397.58	1177.29
397.77	1226.44
397.97	1203.04
398.16	1327.08
398.35	1261.55
398.55	1259.21
398.74	1315.38
398.93	1343.47
399.12	1362.19
399.32	1273.25
399.51	1282.61
399.70	1373.89
399.90	1416.02
400.09	1413.68
400.28	1404.32
400.47	1437.09
400.67	1441.77
400.86	1420.71
401.05	1432.41
401.24	1350.49
401.44	1474.54
401.63	1511.99
401.82	1437.09
402.01	1509.65
402.21	1614.97
402.40	1584.54
402.59	1479.22
402.78	1544.75
402.97	1486.24
403.17	1514.33
403.36	1666.46
403.55	1535.39
403.74	1633.69
403.93	1577.52
404.13	1612.63
404.32	1626.67
404.51	1549.43
404.70	1612.63
404.89	1673.48
405.09	1799.87
405.28	1682.85
405.47	1795.19
405.66	1762.42
405.85	1732.00
406.05	1818.60
406.24	1799.87
406.43	1792.85
406.62	1834.98
406.81	1930.94
407.00	1795.19
407.20	1753.06
407.39	1846.68
407.58	1989.46
407.77	1952.01
407.96	1928.60
408.15	1942.64
408.34	1947.33
408.54	2024.56
408.73	1888.81
408.92	2094.78
409.11	2092.44
409.30	2038.61
409.49	2069.03
409.68	1984.77
409.87	1928.60
410.07	2073.71
410.26	2129.89
410.45	2062.01
410.64	2083.08
410.83	2218.83
411.02	2202.44
411.21	2232.87
411.40	2179.04
411.59	2317.13
411.78	2167.34
411.98	2370.96
412.17	2319.47
412.36	2368.62
412.55	2303.09
412.74	2443.52
412.93	2471.61
413.12	2342.88
413.31	2523.10
413.50	2539.48
413.69	2459.90
413.88	2537.14
414.07	2565.23
414.26	2548.84
414.45	2567.57
414.64	2607.36
414.83	2684.59
415.02	2672.89
415.22	2818.00
415.41	2836.73
415.60	2731.41
415.79	2848.43
415.98	2731.41
416.17	2820.35
416.36	2771.19
416.55	2878.86
416.74	2867.16
416.93	2822.69
417.12	2827.37
417.31	3005.25
417.50	2855.45
417.69	3054.40
417.88	2974.82
418.07	2949.08
418.26	3115.25
418.45	3059.08
418.64	3297.81
418.83	3197.17
419.02	3084.83
419.21	3204.19
419.39	3164.40
419.58	3162.06
419.77	3314.20
419.96	3243.98
420.15	3225.26
420.34	3260.37
420.53	3246.32
420.72	3260.37
420.91	3258.03
421.10	3403.14
421.29	3527.19
421.48	3288.45
421.67	3391.44
421.86	3267.39
422.05	3454.63
422.24	3323.56
422.43	3337.60
422.61	3508.46
422.80	3442.93
422.99	3510.80
423.18	3562.30
423.37	3543.57
423.56	3552.93
423.75	3592.72
423.94	3433.57
424.13	3417.18
424.32	3267.39
424.50	3445.27
424.69	3588.04
424.88	3513.14
425.07	3445.27
425.26	3417.18
425.45	3531.87
425.64	3485.06
425.83	3517.83
426.01	3625.49
426.20	3695.71
426.39	3604.42
426.58	3461.65
426.77	3515.48
426.96	3552.93
427.15	3574.00
427.33	3599.74
427.52	3637.19
427.71	3740.18
427.90	3794.01
428.09	3684.00
428.28	3616.13
428.46	3660.60
428.65	3531.87
428.84	3845.50
429.03	3784.65
429.22	3655.92
429.40	3948.48
429.59	3770.60
429.78	3669.96
429.97	3463.99
430.16	3693.37
430.34	3632.51
430.53	3803.37
430.72	3735.50
430.91	3866.56
431.10	3971.89
431.28	3990.61
431.47	3995.29
431.66	4093.60
431.85	4100.62
432.03	4154.45
432.22	4292.54
432.41	4060.83
432.60	4231.69
432.79	4149.77
432.97	4131.05
433.16	4102.96
433.35	4250.41
433.54	4271.48
433.72	4135.73
433.91	4231.69
434.10	4397.87
434.28	4154.45
434.47	4369.78
434.66	4463.40
434.85	4437.66
435.03	4383.82
435.22	4566.39
435.41	4540.64
435.59	4440.00
435.78	4484.47
435.97	4571.07
436.16	4491.49
436.34	4409.57
436.53	4561.70
436.72	4704.48
436.90	4594.47
437.09	4573.41
437.28	4493.83
437.46	4568.73
437.65	4660.01
437.84	4748.95
438.02	4596.81
438.21	4535.96
438.40	4601.49
438.58	4938.53
438.77	4830.87
438.96	4774.69
439.14	5041.51
439.33	4929.17
439.52	5041.51
439.70	5067.26
439.89	5062.58
440.08	5219.39
440.26	5118.75
440.45	5167.90
440.63	5411.32
440.82	5345.78
441.01	5284.93
441.19	5430.04
441.38	5378.55
441.57	5516.64
441.75	5441.75
441.94	5659.42
442.12	5495.58
442.31	5526.00
442.50	5628.99
442.68	5526.00
442.87	5591.54
443.05	5614.95
443.24	5769.42
443.43	5703.89
443.61	5659.42
443.80	5778.78
443.98	5757.72
444.17	5507.28
444.35	5767.08
444.54	5813.89
444.73	5907.51
444.91	5973.05
445.10	5849.00
445.28	5778.78
445.47	5724.95
445.65	5813.89
445.84	5839.64
446.02	5949.64
446.21	5806.87
446.39	5959.00
446.58	5968.37
446.77	5954.32
446.95	5729.63
447.14	5877.09
447.32	5944.96
447.51	5902.83
447.69	6005.81
447.88	6038.58
448.06	6026.88
448.25	5998.79
448.43	5921.56
448.62	6087.73
448.80	5877.09
448.99	6059.65
449.17	6164.97
449.36	6061.99
449.54	6200.08
449.73	6146.25
449.91	6237.53
450.10	6251.57
450.28	6361.58
450.46	6326.47
450.65	6370.94
450.83	6258.59
451.02	6361.58
451.20	6499.67
451.39	6480.94
451.57	6354.55
451.76	6258.59
451.94	6436.47
452.13	6429.45
452.31	6494.99
452.49	6291.36
452.68	6333.49
452.86	6282.00
453.05	6590.95
453.23	6665.85
453.42	6373.28
453.60	6537.12
453.78	6560.52
453.97	6527.75
454.15	6637.76
454.34	6595.63
454.52	6871.81
454.70	6867.13
454.89	6684.57
455.07	6670.53
455.26	6747.76
455.44	6904.58
455.62	6850.75
455.81	6853.09
455.99	6878.83
456.17	6918.62
456.36	6958.41
456.54	7145.66
456.73	7052.03
456.91	7316.51
457.09	7218.21
457.28	7199.49
457.46	7201.83
457.64	7274.38
457.83	7194.81
458.01	7304.81
458.19	7417.16
458.38	7346.94
458.56	7459.29
458.74	7487.37
458.93	7349.28
459.11	7445.24
459.29	7398.43
459.48	7550.57
459.66	7389.07
459.84	7644.19
460.03	7653.55
460.21	7623.12
460.39	7728.45
460.57	7520.14
460.76	7611.42
460.94	7665.25
461.12	7735.47
461.31	7721.43
461.49	7737.81
461.67	7758.88
461.85	7969.52
462.04	7845.48
462.22	8116.98
462.40	7892.29
462.59	7978.89
462.77	7782.28
462.95	7962.50
463.13	7934.42
463.32	7871.22
463.50	8187.19
463.68	7995.27
463.86	7939.10
464.05	7953.14
464.23	8070.17
464.41	8184.85
464.59	7985.91
464.78	8119.32
464.96	8203.58
465.14	8131.02
465.32	8212.94
465.50	8262.09
465.69	8325.29
465.87	8301.88
466.05	8173.15
466.23	8194.22
466.41	8376.78
466.60	8477.42
466.78	8280.82
466.96	8273.79
467.14	8203.58
467.32	8449.33
467.51	8416.57
467.69	8372.10
467.87	8671.68
468.05	8542.96
468.23	8465.72
468.41	8545.30
468.60	8535.93
468.78	8601.47
468.96	8711.47
469.14	8854.25
469.32	8688.07
469.50	8528.91
469.69	8622.53
469.87	9013.40
470.05	8924.46
470.23	8823.82
470.41	8985.32
470.59	9067.24
470.77	8898.72
470.95	8968.93
471.14	9247.46
471.32	8938.51
471.50	9097.66
471.68	9104.68
471.86	9348.10
472.04	9249.80
472.22	9376.19
472.40	9191.28
472.58	9472.15
472.77	9502.58
472.95	9547.05
473.13	9533.00
473.31	9474.49
473.49	9273.20
473.67	9638.33
473.85	9549.39
474.03	9643.01
474.21	9975.36
474.39	9844.29
474.57	9834.93
474.75	9912.17
474.93	10139.20
475.12	10066.64
475.30	10162.61
475.48	10099.41
475.66	10139.20
475.84	10267.93
476.02	10204.74
476.20	10485.60
476.38	10373.25
476.56	10682.20
476.74	10778.17
476.92	10537.09
477.10	10707.95
477.28	10897.53
477.46	10794.55
477.64	11052.01
477.82	11084.78
478.00	11218.19
478.18	11344.58
478.36	11239.25
478.54	11555.22
478.72	11536.50
478.90	11627.78
479.08	11742.47
479.26	11852.47
479.44	11730.76
479.62	11784.60
479.80	11934.39
479.98	12028.01
480.16	12294.83
480.34	12156.74
480.52	12444.63
480.70	12477.40
480.88	12458.67
481.06	12472.71
481.24	12692.73
481.41	12608.47
481.59	12886.99
481.77	12968.91
481.95	13078.91
482.13	13081.25
482.31	13212.32
482.49	13341.05
482.67	13390.20
482.85	13570.43
483.03	13675.75
483.21	13722.56
483.39	13977.68
483.57	13851.29
483.74	13692.13
483.92	14052.58
484.10	14181.31
484.28	14525.36
484.46	14523.02
484.64	14717.29
484.82	14618.99
485.00	14876.44
485.18	14848.36
485.35	14981.77
485.53	14923.26
485.71	14726.65
485.89	15068.37
486.07	15136.24
486.25	15431.15
486.43	15597.33
486.61	15494.35
486.78	15838.41
486.96	15962.45
487.14	16072.46
487.32	16079.48
487.50	16372.05
487.68	16496.10
487.85	16671.64
488.03	16826.11
488.21	17078.89
488.39	17071.87
488.57	17109.32
488.75	17490.82
488.92	17642.96
489.10	17841.90
489.28	17689.77
489.46	17724.88
489.64	17926.16
489.81	17877.01
489.99	18307.67
490.17	18412.99
490.35	18595.56
490.53	18438.74
490.70	18775.78
490.88	18490.23
491.06	18850.67
491.24	18902.17
491.41	18913.87
491.59	18930.25
491.77	19068.34
491.95	19077.71
492.13	19426.45
492.30	19571.56
492.48	19515.39
492.66	19763.48
492.84	19847.74
493.01	19929.66
493.19	19971.79
493.37	20208.19
493.54	20528.84
493.72	20505.43
493.90	20580.33
494.08	20725.44
494.25	21029.71
494.43	21027.37
494.61	20971.20
494.79	21104.61
494.96	21369.09
495.14	21656.98
495.32	21465.05
495.49	21696.77
495.67	21729.53
495.85	21462.71
496.02	22246.79
496.20	22345.09
496.38	22347.44
496.55	21951.88
496.73	23101.09
496.91	22485.53
497.09	22843.63
497.26	23044.91
497.44	22972.36
497.62	23073.00
497.79	23204.07
497.97	23073.00
498.14	23084.70
498.32	23651.11
498.50	23370.25
498.67	23648.77
498.85	23868.78
499.03	23775.16
499.20	24004.53
499.38	24280.72
499.56	24624.78
499.73	23814.95
499.91	24287.74
500.08	24425.83
500.26	24180.07
500.44	24437.53
500.61	24584.99
500.79	24493.71
500.97	25017.99
501.14	25046.07
501.32	24900.96
501.49	25111.61
501.67	24994.58
501.84	25256.72
502.02	25294.17
502.20	25401.83
502.37	25582.06
502.55	25130.33
502.72	25701.42
502.90	26050.16
503.07	25731.85
503.25	26010.37
503.43	25645.25
503.60	26017.40
503.78	26047.82
503.95	26017.40
504.13	26073.57
504.30	26359.11
504.48	26106.34
504.65	26487.84
504.83	26176.55
505.01	26747.64
505.18	26473.80
505.36	26843.60
505.53	27180.64
505.71	26988.72
505.88	27236.81
506.06	26806.16
506.23	27295.33
506.41	27402.99
506.58	27646.41
506.76	27491.93
506.93	27377.25
507.11	27199.37
507.28	27676.83
507.46	27555.13
507.63	27896.85
507.81	27632.36
507.98	27821.95
508.16	28030.26
508.33	27995.15
508.50	28538.15
508.68	28709.01
508.85	28528.79
509.03	28615.39
509.20	28549.85
509.38	28783.91
509.55	28807.31
509.73	29020.30
509.90	29043.71
510.08	28779.23
510.25	28680.92
510.42	29266.06
510.60	29254.36
510.77	29266.06
510.95	29202.86
511.12	29385.43
511.30	29591.39
511.47	29898.00
511.64	29551.60
511.82	29928.43
511.99	29680.33
512.17	30029.07
512.34	29603.10
512.51	29706.08
512.69	30148.44
512.86	30192.91
513.04	30424.62
513.21	30309.94
513.38	30251.42
513.56	30567.40
513.73	30263.13
513.90	30616.55
514.08	30796.77
514.25	30590.80
514.43	30740.60
514.60	30820.17
514.77	30689.10
514.95	31515.31
515.12	30700.81
515.29	31234.45
515.47	31393.61
515.64	31613.62
515.81	31257.85
515.99	31276.58
516.16	31428.71
516.33	31314.03
516.51	31732.98
516.68	31005.08
516.85	31009.76
517.03	31622.98
517.20	31515.31
517.37	31847.67
517.54	32039.59
517.72	31611.28
517.89	31716.60
518.06	31681.49
518.24	31641.70
518.41	32055.98
518.58	31772.77
518.75	31758.73
518.93	32425.78
519.10	32292.37
519.27	32465.57
519.45	32339.18
519.62	32591.96
519.79	32540.47
519.96	32804.95
520.14	33228.59
520.31	32821.33
520.48	32751.12
520.65	33174.75
520.83	33401.79
521.00	33455.62
521.17	33345.61
521.34	33287.10
521.52	33537.54
521.69	33563.28
521.86	33762.23
522.03	33532.86
522.20	33453.28
522.38	33670.95
522.55	33743.50
522.72	33897.98
522.89	34127.35
523.07	34146.08
523.24	33902.66
523.41	34356.72
523.58	34326.30
523.75	34609.50
523.92	34728.87
524.10	35136.12
524.27	34352.04
524.44	34951.22
524.61	34834.19
524.78	34855.26
524.96	34731.21
525.13	35002.71
525.30	35225.06
525.47	35047.18
525.64	34895.05
525.81	34927.81
525.98	35154.85
526.16	34944.20
526.33	34946.54
526.50	35454.44
526.67	34883.34
526.84	35229.74
527.01	35267.19
527.18	35157.19
527.36	35927.22
527.53	35798.49
527.70	36219.79
527.87	35978.72
528.04	35702.53
528.21	35920.20
528.38	36072.34
528.55	36315.75
528.72	36233.83
528.89	36156.60
529.07	36222.13
529.24	35894.46
529.41	36528.74
529.58	36481.93
529.75	36442.14
529.92	36362.56
530.09	36463.21
530.26	36486.61
530.43	36477.25
530.60	36556.83
530.77	36217.45
530.94	36704.28
531.11	36905.57
531.28	36638.75
531.46	36900.89
531.63	36886.84
531.80	36879.82
531.97	37022.59
532.14	36985.15
532.31	37095.15
532.48	37429.85
532.65	37113.87
532.82	37132.60
532.99	37280.05
533.16	36910.25
533.33	37500.06
533.50	37804.33
533.67	37181.75
533.84	37308.14
534.01	37366.65
534.18	37092.81
534.35	37762.20
534.52	37642.84
534.69	37895.61
534.86	37912.00
535.03	37879.23
535.20	37895.61
535.37	37743.48
535.54	38291.16
535.71	37813.70
535.88	38094.56
536.05	37912.00
536.22	38466.70
536.38	38665.65
536.55	38202.22
536.72	38373.08
536.89	37806.67
537.06	38263.08
537.23	38628.20
537.40	38471.39
537.57	38462.02
537.74	38539.26
537.91	38728.84
538.08	38485.43
538.25	38616.50
538.42	38677.35
538.59	38635.22
538.75	38401.17
538.92	38682.03
539.09	39129.08
539.26	38955.88
539.43	39002.69
539.60	38969.92
539.77	38630.54
539.94	38836.51
540.11	39070.56
540.28	39072.90
540.44	39161.84
540.61	39264.83
540.78	39229.72
540.95	39400.58
541.12	39374.83
541.29	38904.38
541.46	39377.17
541.62	39248.44
541.79	39306.96
541.96	38822.47
542.13	39203.97
542.30	39470.79
542.47	39374.83
542.63	39777.40
542.80	39814.85
542.97	40034.86
543.14	40179.98
543.31	40055.93
543.48	40133.17
543.64	40435.10
543.81	40170.61
543.98	40493.61
544.15	40198.70
544.32	40601.27
544.48	40563.82
544.65	40488.93
544.82	39969.33
544.99	40430.41
545.16	40942.99
545.32	40575.53
545.49	40526.38
545.66	41013.21
545.83	40664.47
546.00	40917.25
546.16	40425.73
546.33	40545.10
546.50	40016.14
546.67	40479.57
546.83	40095.72
547.00	40931.29
547.17	40634.04
547.34	41111.51
547.50	40809.58
547.67	41006.19
547.84	40863.41
548.00	41069.38
548.17	41677.92
548.34	41256.62
548.51	41572.60
548.67	41439.18
548.84	41357.27
549.01	40685.53
549.18	41167.68
549.34	41261.30
549.51	41031.93
549.68	41434.50
549.84	41605.36
550.01	41483.66
550.18	41116.19
550.34	41794.95
550.51	41521.10
550.68	41790.27
550.84	41326.84
551.01	41659.20
551.18	41586.64
551.34	41694.30
551.51	41759.84
551.68	41947.08
551.84	41621.75
552.01	41748.14
552.18	41750.48
552.34	42089.85
552.51	41890.91
552.68	41537.49
552.84	42075.81
553.01	42183.48
553.18	42047.72
553.34	42026.66
553.51	41869.84
553.67	41881.55
553.84	42330.93
554.01	42106.24
554.17	42443.27
554.34	42099.22
554.51	42607.11
554.67	42714.78
554.84	42422.21
555.00	42263.05
555.17	42590.73
555.33	42478.38
555.50	42391.78
555.67	42574.34
555.83	42452.64
556.00	42651.58
556.16	43122.03
556.33	42560.30
556.50	42808.40
556.66	42532.22
556.83	42576.69
556.99	43075.22
557.16	42674.99
557.32	42885.64
557.49	42944.15
557.65	42536.90
557.82	42632.86
557.98	42946.49
558.15	42822.44
558.32	43192.25
558.48	42586.05
558.65	42731.16
558.81	42906.70
558.98	42564.98
559.14	43082.24
559.31	42644.56
559.47	43093.94
559.64	42951.17
559.80	43239.06
559.97	43447.36
560.13	42644.56
560.30	43058.84
560.46	43098.62
560.63	43082.24
560.79	43278.85
560.96	43316.29
561.12	43487.15
561.29	43037.77
561.45	43157.14
561.61	42864.57
561.78	42997.98
561.94	43152.46
562.11	43342.04
562.27	43171.18
562.44	43220.33
562.60	43519.92
562.77	43508.22
562.93	43416.94
563.10	43793.76
563.26	42719.46
563.42	43555.03
563.59	43480.13
563.75	42941.81
563.92	43690.78
564.08	43732.91
564.24	43552.69
564.41	43227.35
564.57	43777.38
564.74	43370.13
564.90	43281.19
565.07	43391.19
565.23	43597.16
565.39	43489.49
565.56	43948.24
565.72	43234.38
565.88	43665.03
566.05	43508.22
566.21	43409.92
566.38	43398.21
566.54	43887.39
566.70	43845.26
566.87	44315.70
567.03	43473.11
567.19	44135.48
567.36	43814.83
567.52	43821.85
567.68	44161.23
567.85	43674.40
568.01	43943.56
568.17	43655.67
568.34	43632.27
568.50	43435.66
568.66	43489.49
568.83	44053.56
568.99	43573.75
569.15	43688.44
569.32	43519.92
569.48	43892.07
569.64	43882.70
569.81	44069.95
569.97	43962.28
570.13	43915.47
570.30	44062.93
570.46	43611.20
570.62	43236.72
570.78	43831.21
570.95	43653.33
571.11	44601.25
571.27	43613.54
571.43	43452.05
571.60	43615.88
571.76	43786.74
571.92	43842.92
572.09	43901.43
572.25	43952.92
572.41	43672.06
572.57	43789.08
572.74	44079.31
572.90	43990.37
573.06	44011.43
573.22	44257.19
573.38	44053.56
573.55	43643.97
573.71	44095.69
573.87	43716.53
574.03	43700.14
574.20	43938.88
574.36	43763.34
574.52	44004.41
574.68	44203.36
574.84	43765.68
575.01	44027.82
575.17	43662.69
575.33	43519.92
575.49	43683.76
575.65	44362.51
575.82	44395.28
575.98	43552.69
576.14	44205.70
576.30	43871.00
576.46	43952.92
576.62	43959.94
576.79	44320.38
576.95	43999.73
577.11	43531.62
577.27	43835.89
577.43	44044.20
577.59	43601.84
577.75	44009.09
577.92	43957.60
578.08	43922.49
578.24	43650.99
578.40	43562.05
578.56	43768.02
578.72	44231.44
578.88	44507.63
579.04	44369.54
579.21	43896.75
579.37	44179.95
579.53	43959.94
579.69	43742.27
579.85	43973.98
580.01	43964.62
580.17	44091.01
580.33	44404.64
580.49	44460.82
580.65	44463.16
580.82	44243.15
580.98	44364.85
581.14	43964.62
581.30	44430.39
581.46	44357.83
581.62	43934.20
581.78	43995.05
581.94	44479.54
582.10	43894.41
582.26	44456.14
582.42	44067.61
582.58	44076.97
582.74	44168.25
582.90	44137.82
583.06	44304.00
583.22	44083.99
583.38	44584.86
583.54	44404.64
583.70	44222.08
583.86	44004.41
584.02	43393.53
584.18	44491.24
584.34	44409.32
584.50	44095.69
584.66	44027.82
584.82	44065.27
584.98	44217.40
585.14	44226.76
585.30	44189.31
585.46	44364.85
585.62	44577.84
585.78	44149.53
585.94	43917.81
586.10	44266.55
586.26	44168.25
586.42	44191.65
586.58	44257.19
586.74	44107.40
586.90	43894.41
587.06	44299.32
587.22	44402.30
587.38	44285.28
587.54	44786.15
587.70	44472.52
587.86	44135.48
588.02	44215.06
588.18	44334.43
588.34	44381.24
588.49	43847.60
588.65	43889.73
588.81	43924.83
588.97	44091.01
589.13	44004.41
589.29	44350.81
589.45	44198.68
589.61	44622.31
589.77	44701.89
589.93	44814.24
590.08	44449.11
590.24	44772.11
590.40	44697.21
590.56	44758.06
590.72	44245.49
590.88	44205.70
591.04	44385.92
591.20	44938.29
591.35	44903.18
591.51	44896.16
591.67	44411.67
591.83	44662.10
591.99	44545.08
592.15	44940.63
592.31	44343.79
592.46	44524.01
592.62	44388.26
592.78	44987.44
592.94	44921.90
593.10	44715.93
593.26	44774.45
593.41	44704.23
593.57	44294.64
593.73	43943.56
593.89	44837.64
594.05	44783.81
594.20	44729.98
594.36	44652.74
594.52	44196.34
594.68	44708.91
594.84	43927.17
594.99	44788.49
595.15	44615.29
595.31	44722.96
595.47	44388.26
595.62	44910.20
595.78	44509.97
595.94	45336.18
596.10	44877.43
596.25	44891.48
596.41	44671.46
596.57	45069.36
596.73	44435.07
596.88	44444.43
597.04	44479.54
597.20	44690.19
597.36	44474.86
597.51	44910.20
597.67	45521.08
597.83	44865.73
597.99	44884.45
598.14	44641.04
598.30	44402.30
598.46	44381.24
598.61	44528.69
598.77	44041.86
598.93	44744.02
599.09	44563.80
599.24	45055.31
599.40	44643.38
599.56	44612.95
599.71	45177.02
599.87	44767.43
600.03	44706.57
600.18	44774.45
600.34	44917.22
600.50	45010.84
600.65	44421.03
600.81	44729.98
600.97	45205.11
601.12	44823.60
601.28	44842.32
601.44	44240.81
601.59	44442.09
601.75	44509.97
601.91	44418.69
602.06	44130.80
602.22	44449.11
602.37	44626.99
602.53	44980.42
602.69	45186.38
602.84	44554.44
603.00	44683.17
603.16	44882.11
603.31	44931.26
603.47	44577.84
603.62	44629.34
603.78	44598.91
603.94	44521.67
604.09	45179.36
604.25	44905.52
604.40	44495.92
604.56	44884.45
604.71	44725.30
604.87	44498.26
605.03	44619.97
605.18	44278.25
605.34	44687.85
605.49	44257.19
605.65	44985.10
605.80	44842.32
605.96	44587.21
606.12	44727.64
606.27	44603.59
606.43	44570.82
606.58	44737.00
606.74	44435.07
606.89	44395.28
607.05	44402.30
607.20	44636.36
607.36	44245.49
607.51	44697.21
607.67	44514.65
607.82	44458.48
607.98	44306.34
608.13	44308.68
608.29	44299.32
608.44	44282.94
608.60	44254.85
608.75	44306.34
608.91	44020.80
609.06	44186.97
609.22	44364.85
609.37	43959.94
609.53	44247.83
609.68	44329.75
609.84	44039.52
609.99	44484.22
610.15	44009.09
610.30	43779.72
610.46	43662.69
610.61	43849.94
610.76	43873.34
610.92	43995.05
611.07	44355.49
611.23	44360.17
611.38	43871.00
611.54	43882.70
611.69	44067.61
611.84	43756.32
612.00	44037.18
612.15	43824.19
612.31	43849.94
612.46	43828.87
612.62	43917.81
612.77	43735.25
612.92	44067.61
613.08	43840.57
613.23	43861.64
613.39	44165.91
613.54	43648.65
613.69	43711.84
613.85	43618.22
614.00	43768.02
614.15	43571.41
614.31	43812.49
614.46	43950.58
614.62	44041.86
614.77	43807.81
614.92	43005.00
615.08	43299.91
615.23	43157.14
615.38	43524.60
615.54	43342.04
615.69	43206.29
615.84	43311.61
616.00	43852.28
616.15	43269.48
616.30	43217.99
616.46	43049.47
616.61	43304.59
616.76	43449.70
616.92	42691.37
617.07	43175.86
617.22	42869.25
617.37	43100.97
617.53	43442.68
617.68	43573.75
617.83	43026.07
617.99	43454.39
618.14	43356.08
618.29	43255.44
618.45	43037.77
618.60	43075.22
618.75	42976.92
618.90	43178.20
619.06	42906.70
619.21	43398.21
619.36	42997.98
619.51	43112.67
619.67	42876.27
619.82	43927.17
619.97	42852.87
620.12	42649.24
620.28	42579.03
620.43	42979.26
620.58	43077.56
620.73	42408.17
620.89	42761.59
621.04	42691.37
621.19	42696.05
621.34	42590.73
621.49	42249.01
621.65	42665.63
621.80	42677.33
621.95	42731.16
622.10	42036.02
622.25	41947.08
622.41	42396.46
622.56	42522.85
622.71	42363.70
622.86	42464.34
623.01	42576.69
623.16	42244.33
623.32	42213.90
623.47	42408.17
623.62	42073.47
623.77	42087.51
623.92	42838.83
624.07	41926.02
624.23	41748.14
624.38	41860.48
624.53	41565.57
624.68	41776.22
624.83	42241.99
624.98	42019.64
625.13	41776.22
625.29	42183.48
625.44	41930.70
625.59	42052.41
625.74	41607.70
625.89	41457.91
626.04	41483.66
626.19	42075.81
626.34	41734.09
626.49	41977.51
626.65	41448.55
626.80	42005.59
626.95	41799.63
627.10	41397.06
627.25	41429.82
627.40	41532.81
627.55	41605.36
627.70	40917.25
627.85	41607.70
628.00	41542.17
628.15	41469.61
628.30	41071.72
628.45	41804.31
628.60	41544.51
628.76	41338.54
628.91	41607.70
629.06	41535.15
629.21	41265.99
629.36	40982.78
629.51	41078.74
629.66	41219.17
629.81	40816.60
629.96	40964.06
630.11	41045.97
630.26	41237.90
630.41	41179.39
630.56	40863.41
630.71	41322.16
630.86	41078.74
631.01	40701.92
631.16	40989.80
631.31	40818.94
631.46	40620.00
631.61	40697.24
631.76	40840.01
631.91	40184.66
632.06	40872.78
632.21	41319.82
632.36	41085.76
632.51	40470.20
632.66	41144.28
632.81	40254.87
632.96	40561.48
633.10	40297.00
633.25	40767.45
633.40	40631.70
633.55	41139.60
633.70	40369.56
633.85	40299.34
634.00	40556.80
634.15	40444.46
634.30	40334.45
634.45	40191.68
634.60	40484.25
634.75	40250.19
634.90	40453.82
635.05	40203.38
635.19	40121.46
635.34	40404.67
635.49	40016.14
635.64	40378.92
635.79	39821.87
635.94	39852.30
636.09	39941.24
636.24	39920.18
636.39	39679.10
636.53	39915.50
636.68	39917.84
636.83	39679.10
636.98	40198.70
637.13	39910.82
637.28	39882.73
637.43	39899.11
637.57	40044.23
637.72	40100.40
637.87	39859.32
638.02	40088.70
638.17	39744.64
638.32	39335.04
638.46	39414.62
638.61	39363.13
638.76	39306.96
638.91	39697.83
639.06	39435.69
639.20	39267.17
639.35	40163.59
639.50	39775.06
639.65	39854.64
639.80	39770.38
639.94	39805.49
640.09	39669.74
640.24	39847.62
640.39	39739.96
640.54	38813.10
640.68	39367.81
640.83	39496.54
640.98	39037.80
641.13	38974.60
641.27	39655.70
641.42	39353.77
641.57	39201.63
641.72	39297.59
641.86	38934.81
642.01	38902.04
642.16	38972.26
642.31	38494.79
642.45	39253.12
642.60	38651.61
642.75	39136.10
642.90	38749.91
643.04	39019.07
643.19	38925.45
643.34	38906.73
643.48	38511.17
643.63	38583.73
643.78	38553.30
643.93	38354.36
644.07	38583.73
644.22	38644.59
644.37	38462.02
644.51	38515.86
644.66	38639.90
644.81	38705.44
644.95	38412.87
645.10	38763.95
645.25	38330.95
645.39	38759.27
645.54	38583.73
645.69	38799.06
645.83	38576.71
645.98	38305.21
646.13	38532.24
646.27	38281.80
646.42	38527.56
646.57	38518.20
646.71	38487.77
646.86	39199.29
647.00	38335.63
647.15	38312.23
647.30	38396.49
647.44	37954.13
647.59	38113.28
647.74	38225.63
647.88	37914.34
648.03	38024.34
648.17	38000.94
648.32	38092.22
648.47	38139.03
648.61	38132.01
648.76	38305.21
648.90	38459.68
649.05	38057.11
649.20	37949.45
649.34	37998.60
649.49	37661.56
649.63	37965.83
649.78	37654.54
649.92	37701.35
650.07	38068.81
650.21	37619.43
650.36	37769.22
650.51	37748.16
650.65	38019.66
650.80	38176.48
650.94	38103.92
651.09	38024.34
651.23	37266.01
651.38	37471.98
651.52	37544.53
651.67	37689.65
651.81	37097.49
651.96	37249.63
652.10	37195.79
652.25	37202.82
652.39	37769.22
652.54	37507.08
652.68	37624.11
652.83	37378.36
652.97	37652.20
653.12	37551.56
653.26	37256.65
653.41	37015.57
653.55	37104.51
653.70	37043.66
653.84	37216.86
653.99	37141.96
654.13	36943.02
654.27	37249.63
654.42	36959.40
654.56	36968.76
654.71	37371.33
654.85	37179.41
655.00	37081.11
655.14	37081.11
655.29	36636.41
655.43	36479.59
655.57	36802.58
655.72	36748.75
655.86	36528.74
656.01	36222.13
656.15	36561.51
656.30	36641.09
656.44	36388.31
656.58	36226.81
656.73	36219.79
656.87	36264.26
657.01	36451.50
657.16	36521.72
657.30	36500.65
657.45	36051.27
657.59	36727.69
657.73	36215.11
657.88	36692.58
658.02	36498.31
658.16	36664.49
658.31	36243.20
658.45	36446.82
658.60	36046.59
658.74	36217.45
658.88	36280.64
659.03	35747.00
659.17	36189.36
659.31	36198.73
659.46	36210.43
659.60	35871.05
659.74	36165.96
659.89	35534.01
660.03	36070.00
660.17	35747.00
660.32	35786.79
660.46	36170.64
660.60	35466.14
660.74	35667.42
660.89	35772.75
661.03	35349.11
661.17	35688.49
661.32	35007.39
661.46	35353.79
661.60	35234.42
661.74	35622.95
661.89	35117.40
662.03	35498.91
662.17	35412.31
662.31	34808.45
662.46	35491.88
662.60	35487.20
662.74	35063.57
662.88	34450.35
663.03	34717.17
663.17	34345.02
663.31	34192.89
663.45	34511.20
663.60	34888.03
663.74	34309.91
663.88	34546.31
664.02	34742.91
664.17	34457.37
664.31	34370.77
664.45	34127.35
664.59	34473.75
664.73	34440.98
664.88	34614.18
665.02	34108.63
665.16	34265.44
665.30	34129.69
665.44	33890.96
665.59	33982.24
665.73	33710.74
665.87	33844.15
666.01	34122.67
666.15	33881.60
666.29	33921.38
666.44	33972.88
666.58	33729.46
666.72	33425.19
666.86	33795.00
667.00	33469.66
667.14	33771.59
667.28	33195.82
667.43	32921.98
667.57	33233.27
667.71	32830.69
667.85	32996.87
667.99	32905.59
668.13	33216.88
668.27	32999.21
668.41	33717.76
668.56	32959.42
668.70	32973.47
668.84	32765.16
668.98	32566.21
669.12	32486.64
669.26	32629.41
669.40	32477.27
669.54	32311.10
669.68	32535.79
669.82	32807.29
669.96	32264.28
670.10	32070.02
670.25	32598.98
670.39	32112.15
670.53	32128.53
670.67	31938.95
670.81	32385.99
670.95	32233.86
671.09	31887.46
671.23	32168.32
671.37	31903.84
671.51	31740.00
671.65	31564.46
671.79	31697.88
671.93	31587.87
672.07	31697.88
672.21	31407.65
672.35	31630.00
672.49	31470.84
672.63	31810.22
672.77	31512.97
672.91	31519.99
673.05	31096.36
673.19	31051.89
673.33	30855.28
673.47	30799.11
673.61	31257.85
673.75	30422.28
673.89	30628.25
674.03	30717.19
674.17	30726.55
674.31	30686.76
674.45	31042.53
674.59	30431.65
674.73	30501.86
674.87	30457.39
675.01	30195.25
675.15	30590.80
675.29	29844.17
675.43	30265.47
675.56	30150.78
675.70	30031.41
675.84	29788.00
675.98	29015.62
676.12	29926.09
676.26	29443.94
676.40	29689.70
676.54	29319.89
676.68	29745.87
676.82	28957.11
676.96	29415.85
677.10	29605.44
677.23	28734.76
677.37	29020.30
677.51	28856.46
677.65	28760.50
677.79	28622.41
677.93	28786.25
678.07	28297.08
678.21	28290.06
678.34	28308.78
678.48	28006.85
678.62	28369.63
678.76	27623.00
678.90	27772.80
679.04	27641.73
679.18	27763.43
679.31	27543.42
679.45	27873.44
679.59	27297.67
679.73	27304.69
679.87	26948.93
680.00	27140.85
680.14	26941.91
680.28	27143.19
680.42	27480.23
680.56	26932.54
680.70	26855.31
680.83	27000.42
680.97	26923.18
681.11	26888.07
681.25	26581.46
681.39	26340.39
681.52	26448.05
681.66	26225.70
681.80	26298.26
681.94	26340.39
682.07	26253.79
682.21	26115.70
682.35	25933.14
682.49	25954.20
682.62	26057.18
682.76	25788.02
682.90	25577.37
683.04	25462.69
683.17	25249.70
683.31	24973.52
683.45	25390.13
683.59	25230.98
683.72	25010.96
683.86	24725.42
684.00	24725.42
684.13	25041.39
684.27	24830.74
684.41	24489.03
684.55	24575.62
684.68	24360.30
684.82	24655.20
684.96	24273.70
685.09	24470.30
685.23	24718.40
685.37	23922.62
685.50	24002.19
685.64	23997.51
685.78	23927.30
685.91	23978.79
686.05	23552.81
686.19	23564.51
686.32	23370.25
686.46	22993.42
686.60	22979.38
686.73	22717.24
686.87	22852.99
687.01	22651.70
687.14	22682.13
687.28	22785.12
687.42	22843.63
687.55	22824.90
687.69	23213.43
687.82	22462.12
687.96	22640.00
688.10	22228.07
688.23	22520.63
688.37	21905.07
688.50	21766.98
688.64	21888.69
688.78	22071.25
688.91	21661.66
689.05	21954.22
689.18	22005.72
689.32	21774.00
689.46	21722.51
689.59	21357.39
689.73	21633.57
689.86	21291.85
690.00	21333.98
690.13	21184.19
690.27	21062.48
690.41	21170.15
690.54	20779.28
690.68	20594.37
690.81	20994.61
690.95	20802.68
691.08	20886.94
691.22	20765.23
691.35	20425.86
691.49	20783.96
691.62	20585.01
691.76	20460.96
691.89	20313.51
692.03	20133.29
692.16	19894.55
692.30	19889.87
692.43	19932.00
692.57	19639.44
692.70	19817.32
692.84	19541.13
692.97	19482.62
693.11	19381.98
693.24	19440.49
693.38	19239.20
693.51	19257.93
693.65	19396.02
693.78	19379.64
693.92	19206.44
694.05	19274.31
694.19	18923.23
694.32	18625.98
694.45	18946.64
694.59	18717.26
694.72	18607.26
694.86	18700.88
694.99	18256.18
695.13	18391.93
695.26	18202.35
695.39	18305.33
695.53	18167.24
695.66	18155.54
695.80	18298.31
695.93	18139.15
696.07	17891.06
696.20	18139.15
696.33	17703.81
696.47	17884.03
696.60	17598.49
696.73	17619.55
696.87	17521.25
697.00	17530.61
697.14	17467.42
697.27	17193.58
697.40	17259.11
697.54	17137.40
697.67	17078.89
697.80	17202.94
697.94	16854.20
698.07	16758.24
698.21	16650.57
698.34	16695.04
698.47	16304.17
698.61	16453.97
698.74	16372.05
698.87	15992.88
699.01	16013.95
699.14	15875.85
699.27	16011.60
699.40	15925.00
699.54	15751.81
699.67	15763.51
699.80	15777.55
699.94	15573.92
700.07	15723.72
700.20	15403.07
700.34	15461.58
700.47	15660.52
700.60	15845.43
700.73	15709.68
700.87	15583.29
701.00	15147.95
701.13	15386.68
701.26	15346.89
701.40	15047.30
701.53	15241.57
701.66	14836.66
701.79	15000.49
701.93	14906.87
702.06	14710.27
702.19	14843.68
702.32	14565.15
702.46	14686.86
702.59	14331.10
702.72	14600.26
702.85	14551.11
702.99	14230.46
703.12	14305.35
703.25	14120.45
703.38	14164.92
703.51	14185.99
703.65	14033.85
703.78	13877.04
703.91	13987.04
704.04	14045.55
704.17	13792.78
704.31	14066.62
704.44	13678.09
704.57	13525.96
704.70	13495.53
704.83	13324.67
704.96	13495.53
705.10	13675.75
705.23	13387.86
>>>>>End Processed Spectral Data<<<<<
