SpectraSuite Data File
++++++++++++++++++++++++++++++++++++
Date: Fri Oct 25 10:44:16 EDT 2013
User: price-jones
Dark Spectrum Present: No
Reference Spectrum Present: No
Number of Sampled Component Spectra: 1
Spectrometers: USB2+H05261
Integration Time (usec): 100000 (USB2+H05261)
Spectra Averaged: 1 (USB2+H05261)
Boxcar Smoothing: 0 (USB2+H05261)
Correct for Electrical Dark: No (USB2+H05261)
Strobe/Lamp Enabled: No (USB2+H05261)
Correct for Detector Non-linearity: No (USB2+H05261)
Correct for Stray Light: No (USB2+H05261)
Number of Pixels in Processed Spectrum: 2048
>>>>>Begin Processed Spectral Data<<<<<
365.73	117.03
365.92	117.03
366.12	117.03
366.32	0.00
366.52	23.41
366.72	0.00
366.91	39.79
367.11	14.04
367.31	46.81
367.51	16.38
367.70	30.43
367.90	72.56
368.10	60.85
368.30	0.00
368.49	63.19
368.69	21.06
368.89	44.47
369.09	23.41
369.28	107.66
369.48	65.54
369.68	79.58
369.87	93.62
370.07	42.13
370.27	156.82
370.47	184.90
370.66	456.40
370.86	449.38
371.06	447.04
371.25	477.47
371.45	430.66
371.65	526.62
371.84	440.02
372.04	484.49
372.24	517.26
372.44	482.15
372.63	444.70
372.83	435.34
373.03	535.98
373.22	472.79
373.42	599.18
373.62	486.83
373.81	468.11
374.01	512.58
374.21	564.07
374.40	526.62
374.60	561.73
374.79	524.28
374.99	533.64
375.19	559.39
375.38	669.39
375.58	564.07
375.78	624.92
375.97	580.45
376.17	653.01
376.37	620.24
376.56	650.67
376.76	585.13
376.95	592.16
377.15	596.84
377.35	692.80
377.54	592.16
377.74	662.37
377.93	636.63
378.13	615.56
378.33	622.58
378.52	688.12
378.72	660.03
378.91	683.44
379.11	650.67
379.31	681.10
379.50	550.03
379.70	660.03
379.89	711.52
380.09	676.41
380.28	650.67
380.48	660.03
380.68	690.46
380.87	770.04
381.07	711.52
381.26	723.23
381.46	657.69
381.65	664.71
381.85	706.84
382.04	664.71
382.24	648.33
382.43	664.71
382.63	641.31
382.83	706.84
383.02	660.03
383.22	816.85
383.41	734.93
383.61	741.95
383.80	812.17
384.00	781.74
384.19	767.70
384.39	828.55
384.58	730.25
384.78	781.74
384.97	744.29
385.17	854.30
385.36	819.19
385.56	816.85
385.75	732.59
385.95	774.72
386.14	844.93
386.34	819.19
386.53	835.57
386.72	800.46
386.92	880.04
387.11	816.85
387.31	814.51
387.50	877.70
387.70	861.32
387.89	863.66
388.09	938.55
388.28	882.38
388.48	947.92
388.67	917.49
388.86	833.23
389.06	896.43
389.25	1013.45
389.45	968.98
389.64	1029.84
389.84	1001.75
390.03	1015.79
390.22	999.41
390.42	997.07
390.61	992.39
390.81	997.07
391.00	1022.81
391.19	1114.10
391.39	1022.81
391.58	1081.33
391.78	1039.20
391.97	1149.20
392.16	1090.69
392.36	1043.88
392.55	985.37
392.75	1069.62
392.94	1001.75
393.13	1064.94
393.33	1055.58
393.52	1104.73
393.71	1153.88
393.91	1050.90
394.10	1074.31
394.29	1107.07
394.49	1076.65
394.68	1259.21
394.88	1184.31
395.07	1263.89
395.26	1263.89
395.46	1256.87
395.65	1238.14
395.84	1167.93
396.04	1299.00
396.23	1158.57
396.42	1177.29
396.62	1263.89
396.81	1132.82
397.00	1184.31
397.19	1315.38
397.39	1362.19
397.58	1355.17
397.77	1284.95
397.97	1399.64
398.16	1434.75
398.35	1476.88
398.55	1439.43
398.74	1362.19
398.93	1416.02
399.12	1558.80
399.32	1476.88
399.51	1542.41
399.70	1636.03
399.90	1549.43
400.09	1579.86
400.28	1626.67
400.47	1577.52
400.67	1650.08
400.86	1593.90
401.05	1668.80
401.24	1689.87
401.44	1619.65
401.63	1739.02
401.82	1614.97
402.01	1729.66
402.21	1771.79
402.40	1743.70
402.59	1739.02
402.78	1732.00
402.97	1774.13
403.17	1757.74
403.36	1837.32
403.55	1806.89
403.74	1973.07
403.93	1902.86
404.13	1760.08
404.32	1783.49
404.51	1952.01
404.70	1879.45
404.89	1844.34
405.09	2038.61
405.28	1987.11
405.47	1905.20
405.66	1870.09
405.85	1989.46
406.05	1947.33
406.24	2001.16
406.43	2076.06
406.62	2066.69
406.81	2165.00
407.00	1987.11
407.20	2040.95
407.39	2033.93
407.58	2069.03
407.77	2239.89
407.96	2176.70
408.15	2186.06
408.34	2235.21
408.54	2193.08
408.73	2221.17
408.92	2347.56
409.11	2445.86
409.30	2272.66
409.49	2200.10
409.68	2157.97
409.87	2319.47
410.07	2356.92
410.26	2303.09
410.45	2406.07
410.64	2385.01
410.83	2377.98
411.02	2553.52
411.21	2513.74
411.40	2574.59
411.59	2523.10
411.78	2661.19
411.98	2586.29
412.17	2684.59
412.36	2630.76
412.55	2677.57
412.74	2757.15
412.93	2717.36
413.12	2780.56
413.31	2864.82
413.50	2834.39
413.69	2902.26
413.88	2829.71
414.07	2815.66
414.26	2736.09
414.45	2864.82
414.64	2946.73
414.83	2841.41
415.02	3119.93
415.22	3131.64
415.41	3204.19
415.60	3236.96
415.79	3157.38
415.98	3183.13
416.17	3328.24
416.36	3176.11
416.55	3276.75
416.74	3332.92
416.93	3332.92
417.12	3215.90
417.31	3300.16
417.50	3461.65
417.69	3480.38
417.88	3471.01
418.07	3426.54
418.26	3449.95
418.45	3466.33
418.64	3538.89
418.83	3550.59
419.02	3672.30
419.21	3653.58
419.39	3559.95
419.58	3520.17
419.77	3506.12
419.96	3653.58
420.15	3623.15
420.34	3786.99
420.53	3782.31
420.72	3782.31
420.91	3833.80
421.10	3784.65
421.29	3929.76
421.48	3740.18
421.67	3826.78
421.86	3786.99
422.05	3777.62
422.24	3817.41
422.43	3847.84
422.61	3728.47
422.80	3786.99
422.99	3847.84
423.18	3904.01
423.37	4105.30
423.56	3906.35
423.75	3999.98
423.94	3733.15
424.13	3669.96
424.32	3808.05
424.50	4025.72
424.69	3950.82
424.88	4035.08
425.07	3936.78
425.26	3857.20
425.45	3791.67
425.64	4009.34
425.83	3990.61
426.01	4044.45
426.20	3920.40
426.39	3899.33
426.58	3960.19
426.77	3950.82
426.96	4046.79
427.15	3939.12
427.33	4042.11
427.52	4079.55
427.71	4135.73
427.90	4133.39
428.09	4182.54
428.28	4145.09
428.46	4217.65
428.65	4133.39
428.84	4196.58
429.03	4287.86
429.22	4023.38
429.40	4051.47
429.59	4093.60
429.78	3819.75
429.97	3880.61
430.16	4049.13
430.34	4198.92
430.53	4126.36
430.72	4236.37
430.91	4217.65
431.10	4360.42
431.28	4470.42
431.47	4594.47
431.66	4610.86
431.85	4418.93
432.03	4681.07
432.22	4627.24
432.41	4702.14
432.60	4669.37
432.79	4734.90
432.97	4837.89
433.16	4697.46
433.35	4702.14
433.54	4748.95
433.72	4704.48
433.91	4727.88
434.10	4709.16
434.28	4826.18
434.47	4917.47
434.66	4823.84
434.85	4926.83
435.03	4826.18
435.22	4903.42
435.41	4971.30
435.59	5041.51
435.78	5090.67
435.97	5046.20
436.16	5095.35
436.34	5128.11
436.53	5104.71
436.72	5275.57
436.90	5139.82
437.09	5090.67
437.28	5184.29
437.46	4957.25
437.65	5102.37
437.84	5193.65
438.02	5123.43
438.21	5210.03
438.40	5032.15
438.58	5226.42
438.77	5401.96
438.96	5364.51
439.14	5556.43
439.33	5614.95
439.52	5502.60
439.70	5666.44
439.89	5650.05
440.08	5678.14
440.26	5750.70
440.45	5652.39
440.63	5687.50
440.82	5874.74
441.01	5734.31
441.19	5949.64
441.38	6069.01
441.57	6061.99
441.75	6202.42
441.94	6272.64
442.12	6368.60
442.31	6277.32
442.50	6331.15
442.68	6347.53
442.87	6148.59
443.05	6455.20
443.24	6427.11
443.43	6469.24
443.61	6448.18
443.80	6326.47
443.98	6408.39
444.17	6207.10
444.35	6532.44
444.54	6654.14
444.73	6633.08
444.91	6487.96
445.10	6427.11
445.28	6527.75
445.47	6354.55
445.65	6408.39
445.84	6228.17
446.02	6670.53
446.21	6516.05
446.39	6665.85
446.58	6719.68
446.77	6553.50
446.95	6614.35
447.14	6747.76
447.32	6707.98
447.51	6738.40
447.69	6773.51
447.88	6672.87
448.06	6621.38
448.25	6661.16
448.43	6846.07
448.62	6628.40
448.80	6703.29
448.99	6895.22
449.17	6768.83
449.36	6953.73
449.54	6963.09
449.73	7009.90
449.91	6932.67
450.10	7178.42
450.28	7211.19
450.46	7133.95
450.65	7148.00
450.83	7075.44
451.02	7171.40
451.20	7365.67
451.39	7405.46
451.57	7091.82
451.76	7199.49
451.94	7040.33
452.13	7218.21
452.31	7213.53
452.49	7180.76
452.68	7239.28
452.86	7152.68
453.05	7236.94
453.23	7126.93
453.42	7318.86
453.60	7414.82
453.78	7349.28
453.97	7258.00
454.15	7538.87
454.34	7412.48
454.52	7473.33
454.70	7396.09
454.89	7433.54
455.07	7581.00
455.26	7728.45
455.44	7815.05
455.62	7838.45
455.81	7882.92
455.99	7810.37
456.17	7803.35
456.36	7817.39
456.54	7962.50
456.73	8051.44
456.91	8187.19
457.09	8079.53
457.28	8369.76
457.46	7981.23
457.64	8079.53
457.83	8053.78
458.01	7957.82
458.19	8348.69
458.38	8187.19
458.56	8224.64
458.74	8304.22
458.93	8219.96
459.11	8346.35
459.29	8243.37
459.48	8358.05
459.66	8351.03
459.84	8475.08
460.03	8521.89
460.21	8327.63
460.39	8475.08
460.57	8468.06
460.76	8559.34
460.94	8547.64
461.12	8561.68
461.31	8781.69
461.49	8681.05
461.67	8573.38
461.85	8865.95
462.04	8608.49
462.22	8896.38
462.40	9090.64
462.59	8854.25
462.77	8912.76
462.95	8901.06
463.13	9041.49
463.32	9006.38
463.50	8954.89
463.68	9008.72
463.86	9015.74
464.05	8961.91
464.23	9200.65
464.41	9013.40
464.59	8812.12
464.78	9034.47
464.96	9158.52
465.14	9235.75
465.32	9245.12
465.50	9355.12
465.69	9380.87
465.87	9109.36
466.05	9198.31
466.23	8990.00
466.41	8990.00
466.60	9298.95
466.78	9221.71
466.96	9305.97
467.14	9371.50
467.32	9467.47
467.51	9507.26
467.69	9247.46
467.87	9387.89
468.05	9390.23
468.23	9366.82
468.41	9387.89
468.60	9760.03
468.78	9481.51
468.96	9783.44
469.14	9554.07
469.32	9867.70
469.50	9476.83
469.69	9577.47
469.87	9692.16
470.05	9666.41
470.23	9804.50
470.41	9671.09
470.59	9879.40
470.77	9736.63
470.95	10036.22
471.14	10127.50
471.32	9937.91
471.50	10225.80
471.68	10087.71
471.86	10401.34
472.04	10284.31
472.22	10576.88
472.40	10312.40
472.58	10333.47
472.77	10307.72
472.95	10553.48
473.13	10913.92
473.31	10504.32
473.49	10520.71
473.67	10593.26
473.85	10686.89
474.03	10635.39
474.21	10869.45
474.39	11042.65
474.57	11096.48
474.75	11115.20
474.93	11265.00
475.12	11052.01
475.30	11129.25
475.48	11283.72
475.66	11384.37
475.84	11204.14
476.02	11248.61
476.20	11426.50
476.38	11611.40
476.56	12088.87
476.74	11925.03
476.92	11829.07
477.10	12002.27
477.28	11929.71
477.46	12063.12
477.64	12182.49
477.82	12367.39
478.00	12662.30
478.18	12505.48
478.36	12514.84
478.54	12727.83
478.72	12744.22
478.90	12854.22
479.08	12842.52
479.26	12989.97
479.44	13076.57
479.62	13481.49
479.80	13474.46
479.98	13476.80
480.16	13549.36
480.34	13434.68
480.52	13673.41
480.70	13790.44
480.88	13638.30
481.06	13776.39
481.24	13926.19
481.41	14171.94
481.59	14471.53
481.77	14497.28
481.95	14307.69
482.13	14689.20
482.31	14508.98
482.49	14806.23
482.67	14974.75
482.85	15056.67
483.03	15309.44
483.21	15220.50
483.39	15365.62
483.57	15311.78
483.74	15573.92
483.92	15552.86
484.10	15264.97
484.28	15880.53
484.46	16088.84
484.64	16285.45
484.82	16058.42
485.00	16269.06
485.18	16358.00
485.35	16671.64
485.53	16077.14
485.71	16163.74
485.89	16575.67
486.07	16421.20
486.25	16720.79
486.43	16879.94
486.61	17022.72
486.78	17322.30
486.96	17348.05
487.14	17921.48
487.32	17853.61
487.50	17851.27
487.68	18050.21
487.85	18403.63
488.03	18459.81
488.21	18679.82
488.39	18757.05
488.57	18588.53
488.75	18930.25
488.92	18927.91
489.10	19152.60
489.28	19426.45
489.46	19775.19
489.64	19749.44
489.81	19917.96
489.99	20067.75
490.17	20037.33
490.35	19990.52
490.53	20231.59
490.70	20400.11
490.88	20652.89
491.06	20779.28
491.24	20751.19
491.41	20725.44
491.59	20638.84
491.77	20772.25
491.95	21172.49
492.13	21247.38
492.30	21586.76
492.48	21781.03
492.66	21546.97
492.84	21525.91
493.01	21891.03
493.19	22052.53
493.37	22141.47
493.54	22232.75
493.72	22618.94
493.90	22632.98
494.08	23161.94
494.25	22752.35
494.43	23400.68
494.61	23573.88
494.79	23550.47
494.96	23351.52
495.14	23637.07
495.32	23927.30
495.49	23445.15
495.67	24009.22
495.85	24215.18
496.02	24159.01
496.20	24362.64
496.38	24617.75
496.55	24526.47
496.73	25102.25
496.91	24795.64
497.09	24973.52
497.26	25149.06
497.44	24975.86
497.62	24980.54
497.79	25263.74
497.97	25355.02
498.14	25490.77
498.32	25558.65
498.50	25813.77
498.67	26045.48
498.85	26312.30
499.03	26017.40
499.20	26096.97
499.38	26005.69
499.56	26206.98
499.73	26574.44
499.91	26560.40
500.08	26583.80
500.26	26237.41
500.44	26675.09
500.61	26515.93
500.79	26464.44
500.97	27035.53
501.14	27133.83
501.32	27096.38
501.49	26616.57
501.67	26892.76
501.84	27534.06
502.02	27187.66
502.20	27840.67
502.37	28105.15
502.55	28100.47
502.72	27768.12
502.90	28184.73
503.07	27880.46
503.25	28023.23
503.43	28126.22
503.60	28135.58
503.78	28058.34
503.95	28034.94
504.13	28563.90
504.30	28395.38
504.48	28725.39
504.65	29001.58
504.83	28952.43
505.01	28889.23
505.18	28886.89
505.36	29280.10
505.53	29757.57
505.71	29575.01
505.88	29720.12
506.06	29039.03
506.23	29757.57
506.41	29876.94
506.58	29930.77
506.76	30171.85
506.93	30691.44
507.11	29907.37
507.28	30127.38
507.46	30050.14
507.63	30188.23
507.81	30380.15
507.98	29916.73
508.16	30171.85
508.33	30988.69
508.50	30747.62
508.68	30780.39
508.85	30904.43
509.03	30909.11
509.20	31299.98
509.38	31496.59
509.55	31292.96
509.73	31365.52
509.90	31108.06
510.08	31419.35
510.25	31154.87
510.42	31424.03
510.60	31571.49
510.77	31651.06
510.95	32102.79
511.12	31763.41
511.30	32369.61
511.47	32491.32
511.64	32589.62
511.82	32467.91
511.99	32154.28
512.17	32591.96
512.34	32135.56
512.51	32767.50
512.69	32790.91
512.86	33085.81
513.04	33237.95
513.21	33109.22
513.38	32545.15
513.56	32615.37
513.73	32538.13
513.90	33078.79
514.08	33095.18
514.25	33483.70
514.43	33158.37
514.60	32992.19
514.77	33198.16
514.95	33687.33
515.12	33858.19
515.29	33343.27
515.47	34117.99
515.64	34314.59
515.81	33502.43
515.99	33792.65
516.16	33717.76
516.33	33497.75
516.51	33460.30
516.68	33521.15
516.85	33549.24
517.03	33790.31
517.20	33886.28
517.37	33956.49
517.54	34658.65
517.72	34251.40
517.89	34117.99
518.06	34012.66
518.24	34239.70
518.41	34347.36
518.58	34913.77
518.75	34452.69
518.93	34782.70
519.10	34630.57
519.27	35110.38
519.45	35089.31
519.62	35606.57
519.79	35618.27
519.96	35639.34
520.14	36030.21
520.31	35250.81
520.48	35915.52
520.65	35531.67
520.83	36037.23
521.00	35847.64
521.17	36222.13
521.34	35803.17
521.52	36437.46
521.69	36172.98
521.86	35819.56
522.03	36437.46
522.20	36540.44
522.38	36339.16
522.55	36329.80
522.72	36404.69
522.89	36549.81
523.07	36739.39
523.24	36954.72
523.41	36549.81
523.58	37111.53
523.75	37654.54
523.92	36821.31
524.10	37652.20
524.27	37350.27
524.44	36968.76
524.61	37736.46
524.78	37322.18
524.96	37471.98
525.13	37694.33
525.30	37586.66
525.47	37684.97
525.64	37834.76
525.81	37787.95
525.98	37825.40
526.16	37415.80
526.33	37310.48
526.50	37626.45
526.67	37132.60
526.84	37291.76
527.01	37273.03
527.18	37727.10
527.36	38024.34
527.53	37848.80
527.70	38609.48
527.87	38445.64
528.04	38295.85
528.21	38377.76
528.38	38632.88
528.55	39218.02
528.72	39175.89
528.89	39203.97
529.07	38820.13
529.24	38637.56
529.41	38639.90
529.58	38841.19
529.75	38642.24
529.92	39208.65
530.09	39016.73
530.26	39292.91
530.43	39384.19
530.60	39208.65
530.77	38918.43
530.94	39922.52
531.11	39775.06
531.28	39882.73
531.46	39864.00
531.63	39538.67
531.80	39311.64
531.97	39779.74
532.14	39519.95
532.31	39402.92
532.48	39452.07
532.65	39526.97
532.82	40037.20
532.99	39997.41
533.16	39880.39
533.33	39548.03
533.50	40093.38
533.67	40128.48
533.84	40095.72
534.01	39990.39
534.18	39812.51
534.35	40622.34
534.52	40573.19
534.69	40877.46
534.86	40818.94
535.03	40402.33
535.20	41069.38
535.37	41036.61
535.54	41092.79
535.71	40715.96
535.88	40917.25
536.05	40741.71
536.22	40692.55
536.38	41202.79
536.55	40409.35
536.72	41050.66
536.89	40491.27
537.06	41195.77
537.23	40921.93
537.40	41024.91
537.57	41212.15
537.74	41432.16
537.91	41408.76
538.08	41045.97
538.25	41125.55
538.42	40896.18
538.59	41961.12
538.75	41170.02
538.92	41478.97
539.09	41371.31
539.26	41340.88
539.43	41301.09
539.60	41385.35
539.77	40832.99
539.94	41528.13
540.11	41172.36
540.28	41441.53
540.44	41607.70
540.61	41727.07
540.78	41406.42
540.95	41368.97
541.12	41493.02
541.29	41626.43
541.46	42169.43
541.62	42026.66
541.79	42382.42
541.96	42033.68
542.13	42382.42
542.30	41181.73
542.47	42024.32
542.63	42305.18
542.80	42188.16
542.97	42632.86
543.14	42700.73
543.31	42403.49
543.48	42735.84
543.64	43040.11
543.81	42883.30
543.98	42649.24
544.15	42703.07
544.32	42986.28
544.48	43452.05
544.65	42649.24
544.82	43288.21
544.99	42880.95
545.16	43328.00
545.32	42934.79
545.49	43213.31
545.66	43543.33
545.83	43454.39
546.00	43889.73
546.16	43349.06
546.33	43377.15
546.50	43150.12
546.67	43096.28
546.83	42745.20
547.00	43304.59
547.17	43421.62
547.34	42995.64
547.50	43313.95
547.67	44034.84
547.84	43688.44
548.00	43852.28
548.17	43810.15
548.34	43660.35
548.51	44039.52
548.67	44072.29
548.84	44271.23
549.01	43838.23
549.18	43548.01
549.34	43662.69
549.51	43964.62
549.68	44311.02
549.84	43957.60
550.01	44208.04
550.18	44151.87
550.34	44446.77
550.51	43721.21
550.68	44186.97
550.84	43831.21
551.01	43929.51
551.18	44444.43
551.34	44472.52
551.51	44165.91
551.68	44397.62
551.84	44311.02
552.01	44041.86
552.18	44680.83
552.34	44006.75
552.51	44568.48
552.68	44355.49
552.84	44790.83
553.01	44720.62
553.18	44463.16
553.34	44292.30
553.51	44215.06
553.67	44194.00
553.84	45022.54
554.01	44851.69
554.17	45151.27
554.34	44868.07
554.51	44905.52
554.67	44947.65
554.84	44692.53
555.00	44868.07
555.17	45027.23
555.33	44636.36
555.50	44781.47
555.67	44957.01
555.83	44556.78
556.00	45237.87
556.16	45045.95
556.33	45024.89
556.50	45097.44
556.66	44694.87
556.83	44643.38
556.99	45436.82
557.16	45331.50
557.32	44870.41
557.49	45434.48
557.65	44938.29
557.82	45235.53
557.98	44896.16
558.15	44774.45
558.32	45277.66
558.48	45081.06
558.65	45010.84
558.81	45170.00
558.98	45308.09
559.14	45333.84
559.31	45052.97
559.47	45277.66
559.64	45418.10
559.80	45750.45
559.97	45399.37
560.13	45167.66
560.30	44994.46
560.46	45081.06
560.63	45464.91
560.79	45415.76
560.96	45841.73
561.12	45612.36
561.29	45521.08
561.45	45612.36
561.61	45617.04
561.78	45617.04
561.94	45593.64
562.11	45588.95
562.27	45654.49
562.44	45289.37
562.60	45766.84
562.77	46005.57
562.93	45837.05
563.10	45909.61
563.26	45462.57
563.42	45947.06
563.59	45394.69
563.75	45745.77
563.92	45778.54
564.08	45787.90
564.24	46045.36
564.41	45872.16
564.57	45907.27
564.74	45764.49
564.90	46071.10
565.07	45982.16
565.23	45518.74
565.39	45865.14
565.56	45776.20
565.72	45397.03
565.88	45708.32
566.05	45937.69
566.21	45710.66
566.38	45769.18
566.54	45605.34
566.70	46115.58
566.87	46300.48
567.03	46005.57
567.19	46377.72
567.36	45778.54
567.52	45947.06
567.68	46122.60
567.85	45848.75
568.01	45893.22
568.17	45890.88
568.34	45734.07
568.50	46286.43
568.66	46096.85
568.83	46106.21
568.99	45467.25
569.15	45701.30
569.32	45851.09
569.48	45813.65
569.64	46312.18
569.81	46258.35
569.97	45937.69
570.13	46047.70
570.30	46326.22
570.46	45514.06
570.62	45904.93
570.78	45474.27
570.95	46043.02
571.11	45605.34
571.27	46216.22
571.43	45923.65
571.60	45893.22
571.76	45965.78
571.92	46012.59
572.09	45933.01
572.25	46087.49
572.41	45975.14
572.57	46176.43
572.74	46415.16
572.90	45989.19
573.06	46358.99
573.22	46225.58
573.38	46349.63
573.55	46141.32
573.71	46017.27
573.87	46064.08
574.03	45928.33
574.20	46302.82
574.36	45961.10
574.52	45839.39
574.68	45869.82
574.84	45792.58
575.01	46312.18
575.17	46192.81
575.33	45965.78
575.49	46323.88
575.65	46146.00
575.82	45794.92
575.98	45933.01
576.14	46192.81
576.30	46417.50
576.46	46312.18
576.62	46347.29
576.79	46267.71
576.95	45989.19
577.11	46190.47
577.27	46639.86
577.43	46663.26
577.59	46155.36
577.75	46036.00
577.92	45827.69
578.08	45738.75
578.24	45745.77
578.40	46314.52
578.56	46082.81
578.72	46223.24
578.88	46227.92
579.04	46415.16
579.21	45979.82
579.37	46085.15
579.53	45968.12
579.69	46141.32
579.85	46211.54
580.01	46092.17
580.17	46223.24
580.33	46375.37
580.49	46286.43
580.65	46340.27
580.82	46623.47
580.98	46134.30
581.14	46038.34
581.30	46447.93
581.46	46190.47
581.62	45876.84
581.78	46438.57
581.94	46136.64
582.10	46337.93
582.26	46349.63
582.42	46476.02
582.58	46176.43
582.74	46265.37
582.90	46036.00
583.06	46532.19
583.22	46426.87
583.38	46756.88
583.54	46759.22
583.70	46244.30
583.86	46146.00
584.02	45804.28
584.18	46569.64
584.34	46333.24
584.50	46199.83
584.66	46204.52
584.82	46078.13
584.98	46330.90
585.14	46312.18
585.30	45998.55
585.46	46791.99
585.62	45879.18
585.78	46234.94
585.94	45652.15
586.10	46129.62
586.26	46560.28
586.42	46611.77
586.58	46740.50
586.74	46515.81
586.90	45977.48
587.06	46333.24
587.22	46340.27
587.38	46101.53
587.54	46665.60
587.70	46576.66
587.86	46607.09
588.02	46146.00
588.18	46637.51
588.34	46232.60
588.49	45638.11
588.65	45750.45
588.81	45755.13
588.97	45804.28
589.13	45443.84
589.29	46190.47
589.45	46248.99
589.61	46209.20
589.77	46417.50
589.93	46204.52
590.08	46281.75
590.24	46539.21
590.40	46630.49
590.56	46768.58
590.72	46588.36
590.88	46443.25
591.04	46469.00
591.20	47089.24
591.35	46366.01
591.51	46323.88
591.67	46504.10
591.83	46600.07
591.99	46298.14
592.15	46759.22
592.31	46319.20
592.46	46417.50
592.62	46499.42
592.78	46518.15
592.94	46955.83
593.10	46614.11
593.26	46752.20
593.41	46375.37
593.57	46487.72
593.73	46321.54
593.89	46478.36
594.05	46576.66
594.20	46590.70
594.36	46904.34
594.52	46019.61
594.68	46307.50
594.84	46794.33
594.99	46644.54
595.15	46162.39
595.31	46621.13
595.47	46483.04
595.62	46642.20
595.78	46452.61
595.94	46319.20
596.10	46806.03
596.25	46923.06
596.41	46728.80
596.57	46450.27
596.73	46674.96
596.88	46316.86
597.04	46373.03
597.20	47119.66
597.36	46600.07
597.51	46773.27
597.67	46712.41
597.83	46693.69
597.99	46726.46
598.14	46660.92
598.30	46555.60
598.46	46403.46
598.61	46731.14
598.77	46099.19
598.93	46508.79
599.09	46476.02
599.24	47271.80
599.40	46913.70
599.56	46902.00
599.71	46508.79
599.87	46501.76
600.03	46689.01
600.18	46586.02
600.34	46295.80
600.50	46735.82
600.65	46211.54
600.81	47044.77
600.97	46864.55
601.12	46813.05
601.28	46433.89
601.44	46616.45
601.59	46670.28
601.75	46522.83
601.91	46567.30
602.06	46340.27
602.22	46433.89
602.37	46499.42
602.53	46705.39
602.69	46951.15
602.84	46326.22
603.00	46681.98
603.16	46600.07
603.31	46426.87
603.47	46511.13
603.62	46478.36
603.78	46808.37
603.94	46302.82
604.09	47157.11
604.25	46735.82
604.40	46614.11
604.56	46873.91
604.71	46911.36
604.87	46417.50
605.03	46433.89
605.18	46241.96
605.34	46342.61
605.49	46232.60
605.65	46494.74
605.80	46251.33
605.96	46050.04
606.12	46630.49
606.27	46471.34
606.43	46316.86
606.58	46550.91
606.74	46246.65
606.89	45881.52
607.05	46621.13
607.20	46623.47
607.36	46036.00
607.51	46110.89
607.67	46286.43
607.82	46066.42
607.98	46134.30
608.13	46164.73
608.29	46188.13
608.44	45823.01
608.60	45827.69
608.75	46473.68
608.91	45890.88
609.06	46092.17
609.22	46136.64
609.37	45930.67
609.53	46307.50
609.68	46057.06
609.84	45722.37
609.99	45633.42
610.15	45792.58
610.30	45858.12
610.46	45528.10
610.61	46003.23
610.76	45762.15
610.92	45705.98
611.07	45839.39
611.23	46099.19
611.38	45923.65
611.54	45567.89
611.69	45673.21
611.84	45895.56
612.00	45595.98
612.15	45572.57
612.31	45928.33
612.46	45617.04
612.62	45858.12
612.77	45727.05
612.92	45977.48
613.08	45741.09
613.23	45329.16
613.39	45572.57
613.54	45022.54
613.69	45237.87
613.85	45312.77
614.00	45633.42
614.15	45570.23
614.31	45621.72
614.46	45930.67
614.62	45586.61
614.77	45542.14
614.92	45542.14
615.08	44765.09
615.23	45184.04
615.38	45558.53
615.54	45162.98
615.69	45359.58
615.84	45006.16
616.00	45296.39
616.15	44989.78
616.30	45427.46
616.46	45059.99
616.61	44556.78
616.76	45036.59
616.92	44458.48
617.07	44446.77
617.22	44816.58
617.37	44825.94
617.53	44825.94
617.68	44783.81
617.83	44985.10
617.99	45179.36
618.14	45340.86
618.29	44957.01
618.45	44369.54
618.60	44509.97
618.75	44460.82
618.90	44837.64
619.06	44659.76
619.21	44729.98
619.36	44814.24
619.51	44486.56
619.67	44673.81
619.82	44795.51
619.97	44694.87
620.12	44392.94
620.28	44172.93
620.43	44229.10
620.58	44334.43
620.73	44692.53
620.89	44243.15
621.04	44552.10
621.19	44247.83
621.34	44568.48
621.49	44271.23
621.65	43973.98
621.80	44327.41
621.95	44053.56
622.10	44074.63
622.25	44126.12
622.41	44053.56
622.56	43927.17
622.71	43765.68
622.86	43969.30
623.01	43896.75
623.16	43646.31
623.32	43555.03
623.47	44367.20
623.62	43966.96
623.77	43618.22
623.92	43718.87
624.07	43629.93
624.23	43814.83
624.38	43690.78
624.53	43700.14
624.68	43491.83
624.83	43775.04
624.98	43739.93
625.13	43299.91
625.29	43466.09
625.44	43487.15
625.59	43482.47
625.74	42871.59
625.89	43107.99
626.04	43571.41
626.19	43175.86
626.34	43477.79
626.49	43639.29
626.65	43569.07
626.80	43494.18
626.95	43220.33
627.10	43161.82
627.25	43194.59
627.40	43229.69
627.55	42653.92
627.70	42024.32
627.85	43000.32
628.00	42838.83
628.15	42784.99
628.30	42567.32
628.45	43400.55
628.60	42768.61
628.76	43019.05
628.91	42614.13
629.06	42899.68
629.21	42766.27
629.36	42759.25
629.51	42593.07
629.66	42490.09
629.81	42342.63
629.96	42899.68
630.11	42796.70
630.26	42857.55
630.41	42614.13
630.56	42476.04
630.71	42073.47
630.86	42417.53
631.01	42349.65
631.16	42359.02
631.31	42401.14
631.46	41993.89
631.61	42134.32
631.76	42674.99
631.91	42099.22
632.06	42249.01
632.21	42607.11
632.36	42316.89
632.51	41991.55
632.66	41991.55
632.81	41949.42
632.96	41851.12
633.10	41837.08
633.25	41874.52
633.40	42131.98
633.55	42160.07
633.70	41820.69
633.85	41701.32
634.00	41628.77
634.15	42146.03
634.30	41617.07
634.45	41867.50
634.60	41820.69
634.75	41680.26
634.90	42234.97
635.05	41624.09
635.19	41556.21
635.34	41926.02
635.49	41385.35
635.64	41626.43
635.79	41446.21
635.94	41497.70
636.09	41371.31
636.24	41383.01
636.39	41441.53
636.53	41383.01
636.68	41446.21
636.83	41429.82
636.98	41471.95
637.13	41146.62
637.28	41532.81
637.43	41928.36
637.57	41425.14
637.72	41008.53
637.87	41333.86
638.02	41223.86
638.17	41247.26
638.32	41092.79
638.46	41085.76
638.61	40966.40
638.76	41357.27
638.91	41078.74
639.06	41216.83
639.20	41315.14
639.35	41193.43
639.50	41102.15
639.65	41242.58
639.80	41249.60
639.94	40683.19
640.09	40746.39
640.24	41174.70
640.39	40158.91
640.54	40222.11
640.68	40596.59
640.83	40676.17
640.98	40346.15
641.13	40634.04
641.27	40872.78
641.42	40547.44
641.57	40685.53
641.72	40643.40
641.86	40648.08
642.01	39957.63
642.16	40374.24
642.31	39971.67
642.45	40339.13
642.60	40210.40
642.75	40013.80
642.90	40322.75
643.04	40245.51
643.19	40168.27
643.34	40374.24
643.48	39945.92
643.63	40203.38
643.78	39950.60
643.93	40191.68
644.07	40009.12
644.22	40114.44
644.37	39658.04
644.51	39838.26
644.66	40140.19
644.81	40130.83
644.95	40229.13
645.10	39873.37
645.25	39985.71
645.39	39887.41
645.54	40088.70
645.69	39433.35
645.83	39508.24
645.98	39718.89
646.13	39796.13
646.27	39861.66
646.42	39826.56
646.57	39974.01
646.71	39604.20
646.86	39531.65
647.00	39796.13
647.15	39526.97
647.30	40058.27
647.44	39494.20
647.59	39023.75
647.74	39309.30
647.88	39449.73
648.03	39496.54
648.17	39232.06
648.32	39498.88
648.47	39349.09
648.61	39061.20
648.76	39218.02
648.90	39330.36
649.05	39285.89
649.20	38976.94
649.34	39274.19
649.49	38656.29
649.63	39257.81
649.78	39070.56
649.92	39248.44
650.07	39227.38
650.21	38955.88
650.36	38714.80
650.51	38714.80
650.65	39463.77
650.80	39613.57
650.94	39168.87
651.09	38948.85
651.23	38902.04
651.38	38815.44
651.52	38810.76
651.67	38684.37
651.81	38721.82
651.96	38225.63
652.10	38625.86
652.25	39082.27
652.39	38548.62
652.54	38918.43
652.68	38675.01
652.83	38888.00
652.97	38639.90
653.12	38822.47
653.26	38719.48
653.41	38792.04
653.55	38583.73
653.70	38373.08
653.84	38497.13
653.99	38305.21
654.13	38012.64
654.27	38623.52
654.42	38134.35
654.56	37521.13
654.71	38246.69
654.85	38478.41
655.00	38202.22
655.14	38066.47
655.29	37591.34
655.43	37926.04
655.57	37890.93
655.72	37467.30
655.86	37322.18
656.01	36917.27
656.15	37289.42
656.30	37607.73
656.44	37261.33
656.58	37291.76
656.73	37460.27
656.87	37577.30
657.01	37720.07
657.16	37787.95
657.30	37663.90
657.45	37188.77
657.59	37488.36
657.73	37294.10
657.88	37886.25
658.02	37661.56
658.16	37996.26
658.31	37752.84
658.45	37415.80
658.60	37673.26
658.74	37551.56
658.88	37200.47
659.03	36605.98
659.17	37090.47
659.31	37076.43
659.46	36823.65
659.60	37270.69
659.74	36982.80
659.89	37088.13
660.03	37134.94
660.17	36875.14
660.32	36865.78
660.46	37010.89
660.60	36690.24
660.74	36898.55
660.89	36493.63
661.03	36456.18
661.17	36690.24
661.32	36418.74
661.46	36400.01
661.60	36732.37
661.74	36446.82
661.89	36512.36
662.03	36229.15
662.17	36432.78
662.31	35854.67
662.46	36657.47
662.60	35983.40
662.74	36320.43
662.88	36009.14
663.03	35782.11
663.17	36163.62
663.31	35906.16
663.45	35796.15
663.60	35861.69
663.74	35716.58
663.88	35716.58
664.02	35845.30
664.17	35784.45
664.31	35199.32
664.45	35679.13
664.59	35311.66
664.73	35534.01
664.88	35552.74
665.02	34813.13
665.16	35108.04
665.30	35103.35
665.44	35295.28
665.59	34993.35
665.73	35243.79
665.87	35175.91
666.01	35047.18
666.15	34993.35
666.29	34937.18
666.44	35091.65
666.58	34955.90
666.72	34572.05
666.86	34878.66
667.00	34710.14
667.14	34443.32
667.28	34265.44
667.43	34480.77
667.57	34717.17
667.71	34300.55
667.85	34012.66
667.99	34574.39
668.13	34146.08
668.27	34071.18
668.41	34506.52
668.56	33996.28
668.70	34490.13
668.84	33895.64
668.98	33420.51
669.12	33495.41
669.26	33792.65
669.40	33195.82
669.54	33577.33
669.68	33680.31
669.82	33326.89
669.96	33130.28
670.10	33144.33
670.25	33715.42
670.39	33308.16
670.53	32811.97
670.67	32943.04
670.81	33188.80
670.95	33315.19
671.09	32996.87
671.23	32818.99
671.37	33149.01
671.51	32900.91
671.65	32493.66
671.79	32701.96
671.93	32488.98
672.07	32744.09
672.21	32460.89
672.35	32823.67
672.49	32591.96
672.63	32273.65
672.77	32306.41
672.91	32514.72
673.05	32191.73
673.19	32060.66
673.33	31952.99
673.47	31740.00
673.61	31779.79
673.75	31929.59
673.89	31482.55
674.03	31335.09
674.17	31510.63
674.31	31618.30
674.45	31379.56
674.59	31288.28
674.73	31604.25
674.87	31370.20
675.01	31058.91
675.15	31400.63
675.29	31512.97
675.43	30789.75
675.56	30866.98
675.70	31033.16
675.84	30658.68
675.98	29867.58
676.12	30773.36
676.26	30817.83
676.40	30284.19
676.54	30728.89
676.68	30661.02
676.82	29743.53
676.96	30092.27
677.10	29975.24
677.23	29996.31
677.37	29757.57
677.51	29603.10
677.65	29633.52
677.79	28884.55
677.93	29322.23
678.07	29633.52
678.21	29235.63
678.34	29039.03
678.48	28711.35
678.62	28980.51
678.76	28521.77
678.90	28587.30
679.04	28210.48
679.18	28306.44
679.31	28240.90
679.45	28236.22
679.59	27922.59
679.73	28149.62
679.87	28332.18
680.00	28133.24
680.14	28264.31
680.28	28102.81
680.42	28011.53
680.56	27679.18
680.70	27768.12
680.83	28002.17
680.97	27833.65
681.11	27599.60
681.25	27178.30
681.39	27370.22
681.52	27494.27
681.66	27335.12
681.80	27204.05
681.94	26948.93
682.07	27129.15
682.21	26684.45
682.35	26555.72
682.49	26820.20
682.62	26834.24
682.76	26291.24
682.90	26534.65
683.04	26263.15
683.17	26338.05
683.31	26223.36
683.45	26118.04
683.59	26026.76
683.72	25888.67
683.86	25619.50
684.00	25907.39
684.13	25577.37
684.27	25586.74
684.41	25500.14
684.55	24893.94
684.68	25170.12
684.82	25142.03
684.96	25198.21
685.09	25277.79
685.23	24999.26
685.37	24566.26
685.50	24957.13
685.64	24526.47
685.78	24624.78
685.91	24353.27
686.05	24348.59
686.19	24266.67
686.32	24318.17
686.46	23487.28
686.60	23314.08
686.73	23482.59
686.87	23391.31
687.01	23339.82
687.14	22974.70
687.28	23456.85
687.42	23466.21
687.55	23236.84
687.69	23428.76
687.82	23150.24
687.96	23119.81
688.10	22874.06
688.23	23089.38
688.37	22691.49
688.50	22604.89
688.64	22333.39
688.78	22305.31
688.91	22487.87
689.05	22356.80
689.18	22614.26
689.32	21846.56
689.46	22148.49
689.59	22162.53
689.73	22352.12
689.86	22141.47
690.00	21561.02
690.13	22022.10
690.27	21647.61
690.41	21542.29
690.54	21462.71
690.68	21333.98
690.81	21474.42
690.95	21343.35
691.08	21359.73
691.22	21151.42
691.35	21095.25
691.49	21586.76
691.62	21235.68
691.76	20854.17
691.89	21186.53
692.03	20631.82
692.16	20695.02
692.30	20517.14
692.43	20231.59
692.57	20285.42
692.70	20510.11
692.84	20372.02
692.97	20264.36
693.11	20051.37
693.24	20027.96
693.38	19836.04
693.51	19915.62
693.65	20074.77
693.78	19878.17
693.92	19466.24
694.05	19564.54
694.19	19351.55
694.32	19421.77
694.45	19138.56
694.59	18958.34
694.72	19176.01
694.86	19145.58
694.99	18888.12
695.13	19051.96
695.26	18738.33
695.39	18623.64
695.53	18684.50
695.66	19096.43
695.80	18719.60
695.93	18506.62
696.07	18279.58
696.20	18312.35
696.33	18122.77
696.47	17958.93
696.60	18001.06
696.73	17905.10
696.87	18164.90
697.00	17699.13
697.14	17640.62
697.27	17806.80
697.40	17867.65
697.54	17668.70
697.67	17575.08
697.80	17326.99
697.94	17280.18
698.07	17228.68
698.21	17149.11
698.34	17160.81
698.47	16938.46
698.61	16943.14
698.74	16725.47
698.87	16709.08
699.01	16463.33
699.14	16348.64
699.27	16315.87
699.40	16449.28
699.54	16465.67
699.67	16322.90
699.80	16135.65
699.94	16100.55
700.07	16154.38
700.20	16133.31
700.34	16018.63
700.47	16116.93
700.60	16135.65
700.73	16306.51
700.87	15941.39
701.00	15812.66
701.13	15749.46
701.26	15679.25
701.40	15489.67
701.53	15592.65
701.66	15201.78
701.79	14946.66
701.93	15314.13
702.06	15396.04
702.19	15185.40
702.32	15042.62
702.46	14853.04
702.59	14656.43
702.72	14523.02
702.85	14773.46
702.99	15005.17
703.12	14611.96
703.25	14410.68
703.38	14338.12
703.51	14441.11
703.65	14328.76
703.78	14253.86
703.91	14160.24
704.04	14066.62
704.17	14263.22
704.31	14052.58
704.44	14029.17
704.57	13902.78
704.70	13867.67
704.83	13701.50
704.96	13750.65
705.10	13806.82
705.23	13612.56
>>>>>End Processed Spectral Data<<<<<
