SpectraSuite Data File
++++++++++++++++++++++++++++++++++++
Date: Fri Oct 25 11:34:22 EDT 2013
User: price-jones
Dark Spectrum Present: No
Reference Spectrum Present: No
Number of Sampled Component Spectra: 1
Spectrometers: USB2+H05261
Integration Time (usec): 100000 (USB2+H05261)
Spectra Averaged: 1 (USB2+H05261)
Boxcar Smoothing: 0 (USB2+H05261)
Correct for Electrical Dark: No (USB2+H05261)
Strobe/Lamp Enabled: No (USB2+H05261)
Correct for Detector Non-linearity: No (USB2+H05261)
Correct for Stray Light: No (USB2+H05261)
Number of Pixels in Processed Spectrum: 2048
>>>>>Begin Processed Spectral Data<<<<<
365.73	297.25
365.92	297.25
366.12	297.25
366.32	248.10
366.52	243.42
366.72	196.60
366.91	145.11
367.11	182.56
367.31	166.18
367.51	177.88
367.70	212.99
367.90	175.54
368.10	175.54
368.30	175.54
368.49	102.98
368.69	184.90
368.89	227.03
369.09	248.10
369.28	191.92
369.48	262.14
369.68	227.03
369.87	245.76
370.07	266.82
370.27	339.38
370.47	365.12
370.66	470.45
370.86	503.22
371.06	500.87
371.25	557.05
371.45	505.56
371.65	564.07
371.84	641.31
372.04	599.18
372.24	526.62
372.44	580.45
372.63	552.37
372.83	557.05
373.03	547.69
373.22	575.77
373.42	641.31
373.62	601.52
373.81	702.16
374.01	587.47
374.21	634.29
374.40	688.12
374.60	664.71
374.79	739.61
374.99	629.60
375.19	648.33
375.38	643.65
375.58	660.03
375.78	678.76
375.97	683.44
376.17	702.16
376.37	704.50
376.56	718.54
376.76	739.61
376.95	681.10
377.15	564.07
377.35	697.48
377.54	685.78
377.74	622.58
377.93	697.48
378.13	671.73
378.33	716.20
378.52	664.71
378.72	732.59
378.91	667.05
379.11	648.33
379.31	737.27
379.50	669.39
379.70	732.59
379.89	755.99
380.09	723.23
380.28	713.86
380.48	767.70
380.68	814.51
380.87	807.48
381.07	662.37
381.26	805.14
381.46	674.07
381.65	770.04
381.85	716.20
382.04	697.48
382.24	739.61
382.43	650.67
382.63	688.12
382.83	758.33
383.02	774.72
383.22	826.21
383.41	863.66
383.61	741.95
383.80	826.21
384.00	781.74
384.19	779.40
384.39	788.76
384.58	877.70
384.78	791.10
384.97	854.30
385.17	849.61
385.36	837.91
385.56	830.89
385.75	781.74
385.95	793.44
386.14	844.93
386.34	851.96
386.53	880.04
386.72	798.12
386.92	866.00
387.11	940.90
387.31	896.43
387.50	856.64
387.70	854.30
387.89	929.19
388.09	987.71
388.28	851.96
388.48	854.30
388.67	898.77
388.86	912.81
389.06	840.25
389.25	954.94
389.45	926.85
389.64	898.77
389.84	908.13
390.03	950.26
390.22	931.53
390.42	912.81
390.61	994.73
390.81	976.00
391.00	1018.13
391.19	978.34
391.39	994.73
391.58	987.71
391.78	978.34
391.97	1062.60
392.16	915.15
392.36	1022.81
392.55	1004.09
392.75	1022.81
392.94	964.30
393.13	1053.24
393.33	1104.73
393.52	1067.28
393.71	1027.50
393.91	1036.86
394.10	1004.09
394.29	1043.88
394.49	1071.97
394.68	1172.61
394.88	1093.03
395.07	1186.65
395.26	1128.14
395.46	1156.22
395.65	1132.82
395.84	1203.04
396.04	1135.16
396.23	1174.95
396.42	1165.59
396.62	1163.25
396.81	1221.76
397.00	1160.91
397.19	1177.29
397.39	1282.61
397.58	1224.10
397.77	1170.27
397.97	1226.44
398.16	1198.35
398.35	1254.53
398.55	1256.87
398.74	1235.80
398.93	1284.95
399.12	1224.10
399.32	1320.06
399.51	1212.40
399.70	1303.68
399.90	1294.32
400.09	1306.02
400.28	1315.38
400.47	1446.45
400.67	1448.79
400.86	1523.69
401.05	1369.21
401.24	1378.58
401.44	1430.07
401.63	1387.94
401.82	1350.49
402.01	1387.94
402.21	1406.66
402.40	1327.08
402.59	1504.96
402.78	1528.37
402.97	1486.24
403.17	1469.86
403.36	1493.26
403.55	1502.62
403.74	1427.73
403.93	1556.46
404.13	1502.62
404.32	1509.65
404.51	1603.27
404.70	1507.30
404.89	1687.53
405.09	1671.14
405.28	1629.01
405.47	1621.99
405.66	1607.95
405.85	1657.10
406.05	1732.00
406.24	1710.93
406.43	1727.32
406.62	1687.53
406.81	1802.21
407.00	1753.06
407.20	1682.85
407.39	1785.83
407.58	1724.97
407.77	1856.04
407.96	1769.44
408.15	1799.87
408.34	1760.08
408.54	1860.73
408.73	1954.35
408.92	1870.09
409.11	1870.09
409.30	1809.23
409.49	1872.43
409.68	1891.15
409.87	1907.54
410.07	1980.09
410.26	2031.58
410.45	1982.43
410.64	1947.33
410.83	2059.67
411.02	2054.99
411.21	2115.84
411.40	2019.88
411.59	2157.97
411.78	2139.25
411.98	2122.87
412.17	2169.68
412.36	2174.36
412.55	2179.04
412.74	2298.41
412.93	2298.41
413.12	2174.36
413.31	2291.38
413.50	2279.68
413.69	2361.60
413.88	2331.17
414.07	2539.48
414.26	2469.27
414.45	2429.48
414.64	2469.27
414.83	2597.99
415.02	2506.71
415.22	2532.46
415.41	2537.14
415.60	2499.69
415.79	2441.18
415.98	2600.34
416.17	2605.02
416.36	2520.76
416.55	2607.36
416.74	2661.19
416.93	2722.04
417.12	2712.68
417.31	2698.64
417.50	2750.13
417.69	2888.22
417.88	2841.41
418.07	2902.26
418.26	2719.70
418.45	2935.03
418.64	3040.36
418.83	2771.19
419.02	2967.80
419.21	2995.89
419.39	3073.12
419.58	3002.91
419.77	2836.73
419.96	2988.86
420.15	3016.95
420.34	3112.91
420.53	3150.36
420.72	3176.11
420.91	3136.32
421.10	3183.13
421.29	3075.46
421.48	3082.49
421.67	3166.74
421.86	3098.87
422.05	3192.49
422.24	3236.96
422.43	3330.58
422.61	3220.58
422.80	3246.32
422.99	3199.51
423.18	3314.20
423.37	3309.52
423.56	3356.33
423.75	3325.90
423.94	3251.00
424.13	3007.59
424.32	3190.15
424.50	3321.22
424.69	3358.67
424.88	3400.80
425.07	3269.73
425.26	3269.73
425.45	3332.92
425.64	3330.58
425.83	3349.31
426.01	3346.97
426.20	3379.73
426.39	3419.52
426.58	3389.10
426.77	3375.05
426.96	3531.87
427.15	3337.60
427.33	3410.16
427.52	3550.59
427.71	3499.10
427.90	3452.29
428.09	3588.04
428.28	3566.98
428.46	3611.45
428.65	3454.63
428.84	3695.71
429.03	3583.36
429.22	3515.48
429.40	3618.47
429.59	3672.30
429.78	3613.79
429.97	3391.44
430.16	3499.10
430.34	3641.87
430.53	3723.79
430.72	3808.05
430.91	3740.18
431.10	3702.73
431.28	3756.56
431.47	3857.20
431.66	3992.95
431.85	3838.48
432.03	3953.16
432.22	4004.66
432.41	3967.21
432.60	3880.61
432.79	3922.74
432.97	3962.53
433.16	3997.64
433.35	3983.59
433.54	4107.64
433.72	4072.53
433.91	4210.62
434.10	4079.55
434.28	4016.36
434.47	4086.58
434.66	4098.28
434.85	4196.58
435.03	4208.28
435.22	4107.64
435.41	4372.12
435.59	4250.41
435.78	4332.33
435.97	4163.81
436.16	4290.20
436.34	4152.11
436.53	4344.03
436.72	4353.40
436.90	4205.94
437.09	4372.12
437.28	4269.14
437.46	4236.37
437.65	4496.17
437.84	4484.47
438.02	4489.15
438.21	4461.06
438.40	4517.23
438.58	4568.73
438.77	4676.39
438.96	4526.60
439.14	4568.73
439.33	4727.88
439.52	4711.50
439.70	4891.72
439.89	4709.16
440.08	4800.44
440.26	4851.93
440.45	4718.52
440.63	4980.66
440.82	4983.00
441.01	5004.07
441.19	5069.60
441.38	4961.94
441.57	5104.71
441.75	4987.68
441.94	5270.89
442.12	5221.74
442.31	5163.22
442.50	5280.25
442.68	5231.10
442.87	5174.92
443.05	5425.36
443.24	5423.02
443.43	5298.97
443.61	5416.00
443.80	5533.03
443.98	5219.39
444.17	5254.50
444.35	5430.04
444.54	5416.00
444.73	5437.06
444.91	5444.09
445.10	5331.74
445.28	5434.72
445.47	5404.30
445.65	5518.98
445.84	5493.24
446.02	5579.84
446.21	5547.07
446.39	5467.49
446.58	5668.78
446.77	5605.58
446.95	5479.19
447.14	5481.53
447.32	5579.84
447.51	5554.09
447.69	5509.62
447.88	5416.00
448.06	5540.05
448.25	5540.05
448.43	5640.69
448.62	5666.44
448.80	5605.58
448.99	5734.31
449.17	5785.80
449.36	5706.23
449.54	5703.89
449.73	5776.44
449.91	5874.74
450.10	5942.62
450.28	6029.22
450.46	5951.98
450.65	5959.00
450.83	5877.09
451.02	5954.32
451.20	5928.58
451.39	5982.41
451.57	5872.40
451.76	6010.50
451.94	6012.84
452.13	5994.11
452.31	6214.12
452.49	5912.19
452.68	6064.33
452.86	6113.48
453.05	6200.08
453.23	6071.35
453.42	6040.92
453.60	6164.97
453.78	6209.44
453.97	6139.23
454.15	6134.54
454.34	6204.76
454.52	6331.15
454.70	6326.47
454.89	6249.23
455.07	6356.90
455.26	6394.34
455.44	6434.13
455.62	6331.15
455.81	6452.86
455.99	6392.00
456.17	6724.36
456.36	6431.79
456.54	6473.92
456.73	6759.47
456.91	6799.26
457.09	6803.94
457.28	6871.81
457.46	6773.51
457.64	6839.05
457.83	6736.06
458.01	6759.47
458.19	7037.99
458.38	6817.98
458.56	7023.95
458.74	6946.71
458.93	6930.33
459.11	7068.42
459.29	6853.09
459.48	6974.80
459.66	7082.46
459.84	7035.65
460.03	7213.53
460.21	7103.53
460.39	7098.84
460.57	7197.15
460.76	7138.63
460.94	7510.78
461.12	7145.66
461.31	7358.64
461.49	7318.86
461.67	7279.07
461.85	7478.01
462.04	7241.62
462.22	7838.45
462.40	7548.23
462.59	7445.24
462.77	7478.01
462.95	7470.99
463.13	7447.58
463.32	7438.22
463.50	7749.51
463.68	7592.70
463.86	7733.13
464.05	7672.28
464.23	7632.49
464.41	7728.45
464.59	7761.22
464.78	7779.94
464.96	7630.15
465.14	7695.68
465.32	7758.88
465.50	7730.79
465.69	7658.23
465.87	7873.56
466.05	7606.74
466.23	7831.43
466.41	7831.43
466.60	7932.08
466.78	7953.14
466.96	7939.10
467.14	8044.42
467.32	8154.43
467.51	8271.45
467.69	7971.86
467.87	8088.89
468.05	8243.37
468.23	7985.91
468.41	7985.91
468.60	8138.04
468.78	8187.19
468.96	8030.38
469.14	8212.94
469.32	8397.84
469.50	8320.60
469.69	8437.63
469.87	8334.65
470.05	8503.17
470.23	8561.68
470.41	8472.74
470.59	8439.97
470.77	8561.68
470.95	8528.91
471.14	8648.28
471.32	8585.08
471.50	8702.11
471.68	8791.05
471.86	8856.59
472.04	8959.57
472.22	8809.78
472.40	8676.37
472.58	9036.81
472.77	9095.32
472.95	9071.92
473.13	9460.45
473.31	8973.61
473.49	9177.24
473.67	9004.04
473.85	9256.82
474.03	9312.99
474.21	9458.10
474.39	9247.46
474.57	9509.60
474.75	9568.11
474.93	9430.02
475.12	9584.49
475.30	9640.67
475.48	9528.32
475.66	9823.23
475.84	9753.01
476.02	9675.77
476.20	9956.64
476.38	9991.75
476.56	10195.37
476.74	10031.54
476.92	10017.49
477.10	10064.30
477.28	10420.06
477.46	10511.35
477.64	10389.64
477.82	10583.90
478.00	10698.59
478.18	10719.65
478.36	10792.21
478.54	10916.26
478.72	10918.60
478.90	11162.01
479.08	11302.45
479.26	11309.47
479.44	11110.52
479.62	11440.54
479.80	11597.35
479.98	11569.27
480.16	11826.73
480.34	11885.24
480.52	11786.94
480.70	11679.27
480.88	11737.79
481.06	11803.32
481.24	12095.89
481.41	11978.86
481.59	12266.75
481.77	12294.83
481.95	12386.12
482.13	12383.77
482.31	12482.08
482.49	12695.07
482.67	12748.90
482.85	13184.24
483.03	12922.10
483.21	13291.90
483.39	13060.19
483.57	13312.97
483.74	13607.87
483.92	13411.27
484.10	13486.17
484.28	13926.19
484.46	13940.23
484.64	14108.75
484.82	13776.39
485.00	14111.09
485.18	14354.51
485.35	14616.65
485.53	14471.53
485.71	14476.21
485.89	14965.39
486.07	14714.95
486.25	14834.32
486.43	14920.92
486.61	15023.90
486.78	14979.43
486.96	15363.28
487.14	15386.68
487.32	15536.48
487.50	15826.70
487.68	15871.17
487.85	16023.31
488.03	16451.63
488.21	16444.60
488.39	16182.46
488.57	16409.50
488.75	16596.74
488.92	16924.41
489.10	16774.62
489.28	17027.40
489.46	17099.95
489.64	17081.23
489.81	17577.42
489.99	17209.96
490.17	17294.22
490.35	17982.34
490.53	17980.00
490.70	17767.01
490.88	17865.31
491.06	18192.98
491.24	18118.09
491.41	18246.82
491.59	18661.09
491.77	18675.13
491.95	18338.10
492.13	18860.04
492.30	19178.35
492.48	19211.12
492.66	18876.42
492.84	19215.80
493.01	19330.48
493.19	19452.19
493.37	19620.71
493.54	19730.72
493.72	19618.37
493.90	19880.51
494.08	20027.96
494.25	20273.72
494.43	20173.08
494.61	20184.78
494.79	20332.23
494.96	20608.42
495.14	20765.23
495.32	20875.24
495.49	21214.62
495.67	20886.94
495.85	21202.91
496.02	21436.97
496.20	21467.39
496.38	21458.03
496.55	21645.27
496.73	21930.82
496.91	21865.28
497.09	22061.89
497.26	21933.16
497.44	22274.88
497.62	22242.11
497.79	22792.14
497.97	22740.64
498.14	22441.06
498.32	22700.86
498.50	23190.03
498.67	22637.66
498.85	22967.68
499.03	23101.09
499.20	23105.77
499.38	23583.24
499.56	23410.04
499.73	23456.85
499.91	23552.81
500.08	23711.97
500.26	23520.04
500.44	23573.88
500.61	23929.64
500.79	23920.28
500.97	24137.94
501.14	24240.93
501.32	24313.48
501.49	24187.10
501.67	24425.83
501.84	24294.76
502.02	24797.98
502.20	24879.89
502.37	24706.70
502.55	24805.00
502.72	24912.66
502.90	24912.66
503.07	24905.64
503.25	25254.38
503.43	25092.88
503.60	25221.61
503.78	25472.05
503.95	25720.15
504.13	25422.90
504.30	25722.49
504.48	25415.88
504.65	25502.48
504.83	25799.73
505.01	26171.87
505.18	26164.85
505.36	26059.52
505.53	26099.31
505.71	26249.11
505.88	26431.67
506.06	26319.32
506.23	26342.73
506.41	26513.59
506.58	26778.07
506.76	26689.13
506.93	26932.54
507.11	27145.53
507.28	26885.73
507.46	26958.29
507.63	27089.36
507.81	27583.21
507.98	26937.23
508.16	27194.68
508.33	27236.81
508.50	27725.99
508.68	27819.61
508.85	27676.83
509.03	27768.12
509.20	27751.73
509.38	28268.99
509.55	28067.70
509.73	28091.11
509.90	28545.17
510.08	28170.69
510.25	28432.83
510.42	28676.24
510.60	28968.81
510.77	28814.34
510.95	28692.63
511.12	28896.25
511.30	28900.94
511.47	28964.13
511.64	29109.24
511.82	29303.51
511.99	29216.91
512.17	29078.82
512.34	29675.65
512.51	29635.86
512.69	29837.15
512.86	29570.33
513.04	29898.00
513.21	29909.71
513.38	29972.90
513.56	29785.66
513.73	29823.11
513.90	29951.84
514.08	29902.68
514.25	29986.94
514.43	30368.45
514.60	30071.20
514.77	30110.99
514.95	30635.27
515.12	30312.28
515.29	30424.62
515.47	30771.02
515.64	30895.07
515.81	30857.62
515.99	30766.34
516.16	31206.36
516.33	30953.58
516.51	31290.62
516.68	31042.53
516.85	31204.02
517.03	31548.08
517.20	31796.18
517.37	31030.82
517.54	31599.57
517.72	31475.52
517.89	31377.22
518.06	31662.77
518.24	32243.22
518.41	31777.45
518.58	31850.01
518.75	31754.05
518.93	32233.86
519.10	32210.45
519.27	32156.62
519.45	32439.82
519.62	32458.55
519.79	32130.87
519.96	32575.58
520.14	32505.36
520.31	32449.19
520.48	32783.88
520.65	32933.68
520.83	32818.99
521.00	33146.67
521.17	33013.26
521.34	33141.99
521.52	33340.93
521.69	33411.15
521.86	33525.83
522.03	33766.91
522.20	33663.93
522.38	33769.25
522.55	33703.71
522.72	33741.16
522.89	33848.83
523.07	34106.29
523.24	33921.38
523.41	33914.36
523.58	34068.84
523.75	34174.16
523.92	34380.13
524.10	34314.59
524.27	34183.52
524.44	34143.74
524.61	34052.45
524.78	34361.40
524.96	34340.34
525.13	34326.30
525.30	34939.52
525.47	34974.63
525.64	34841.21
525.81	34918.45
525.98	35290.60
526.16	34836.53
526.33	34969.94
526.50	35098.67
526.67	35253.15
526.84	35428.69
527.01	35250.81
527.18	35435.71
527.36	35697.85
527.53	35693.17
527.70	35569.12
527.87	36144.89
528.04	35875.73
528.21	35587.85
528.38	35501.25
528.55	35852.33
528.72	35894.46
528.89	35613.59
529.07	35723.60
529.24	35590.19
529.41	36020.84
529.58	36233.83
529.75	36336.82
529.92	36226.81
530.09	36266.60
530.26	36432.78
530.43	36737.05
530.60	36088.72
530.77	36182.34
530.94	36589.59
531.11	36643.43
531.28	36648.11
531.46	36835.35
531.63	37158.34
531.80	36397.67
531.97	36669.17
532.14	36711.30
532.31	37013.23
532.48	36807.26
532.65	37315.16
532.82	36781.52
532.99	37092.81
533.16	37270.69
533.33	37429.85
533.50	37649.86
533.67	37656.88
533.84	37038.98
534.01	37584.32
534.18	37682.62
534.35	37876.89
534.52	37666.24
534.69	38281.80
534.86	37984.55
535.03	37827.74
535.20	37947.11
535.37	38234.99
535.54	38234.99
535.71	38017.32
535.88	38185.84
536.05	38038.39
536.22	38160.09
536.38	38087.54
536.55	38501.81
536.72	37886.25
536.89	38251.38
537.06	38553.30
537.23	38967.58
537.40	38557.99
537.57	38389.47
537.74	38595.43
537.91	38895.02
538.08	38782.68
538.25	38455.00
538.42	38396.49
538.59	38560.33
538.75	38717.14
538.92	38785.02
539.09	39026.09
539.26	39115.03
539.43	38857.57
539.60	39147.80
539.77	39047.16
539.94	39470.79
540.11	39360.79
540.28	39302.28
540.44	39604.20
540.61	38869.28
540.78	39126.74
540.95	39274.19
541.12	39119.71
541.29	39653.36
541.46	39538.67
541.62	39772.72
541.79	39337.38
541.96	39503.56
542.13	39732.93
542.30	39487.18
542.47	39828.90
542.63	39777.40
542.80	40594.25
542.97	40460.84
543.14	40498.29
543.31	40009.12
543.48	40156.57
543.64	40636.38
543.81	40069.97
543.98	40395.31
544.15	40236.15
544.32	40725.32
544.48	40739.36
544.65	40683.19
544.82	40767.45
544.99	40737.02
545.16	40804.90
545.32	40336.79
545.49	40896.18
545.66	41577.28
545.83	41291.73
546.00	40952.35
546.16	40753.41
546.33	41345.56
546.50	40722.98
546.67	41088.10
546.83	40502.97
547.00	41219.17
547.17	41053.00
547.34	41357.27
547.50	41567.91
547.67	41724.73
547.84	40964.06
548.00	41443.87
548.17	42106.24
548.34	41668.56
548.51	41551.53
548.67	41361.95
548.84	41486.00
549.01	41647.49
549.18	41488.34
549.34	42043.04
549.51	41876.86
549.68	42277.10
549.84	41984.53
550.01	42354.33
550.18	41706.01
550.34	42150.71
550.51	41909.63
550.68	41916.65
550.84	41947.08
551.01	42054.75
551.18	42061.77
551.34	42085.17
551.51	41979.85
551.68	42328.59
551.84	42440.93
552.01	42089.85
552.18	42195.18
552.34	42323.91
552.51	42653.92
552.68	42176.45
552.84	42492.43
553.01	42747.54
553.18	42614.13
553.34	42614.13
553.51	42195.18
553.67	42834.14
553.84	43054.15
554.01	42916.06
554.17	42609.45
554.34	43192.25
554.51	42944.15
554.67	42656.26
554.84	42810.74
555.00	42972.24
555.17	43072.88
555.33	43040.11
555.50	43005.00
555.67	42738.18
555.83	42972.24
556.00	43124.37
556.16	43522.26
556.33	42974.58
556.50	43063.52
556.66	43217.99
556.83	43337.36
556.99	43765.68
557.16	43676.74
557.32	43648.65
557.49	43658.01
557.65	43679.08
557.82	43367.79
557.98	43463.75
558.15	43583.12
558.32	43772.70
558.48	43517.58
558.65	43550.35
558.81	43274.16
558.98	43208.63
559.14	43756.32
559.31	43725.89
559.47	44025.48
559.64	43915.47
559.80	43695.46
559.97	43936.54
560.13	43718.87
560.30	43744.61
560.46	43765.68
560.63	44229.10
560.79	44233.78
560.96	43454.39
561.12	44479.54
561.29	44128.46
561.45	44278.25
561.61	44170.59
561.78	43672.06
561.94	43512.90
562.11	44304.00
562.27	44301.66
562.44	43761.00
562.60	43892.07
562.77	44648.06
562.93	43878.02
563.10	44374.22
563.26	44065.27
563.42	44575.50
563.59	44322.72
563.75	43985.69
563.92	44388.26
564.08	44325.07
564.24	43943.56
564.41	44037.18
564.57	44533.37
564.74	44568.48
564.90	44311.02
565.07	44671.46
565.23	44744.02
565.39	44357.83
565.56	44458.48
565.72	44486.56
565.88	44533.37
566.05	44755.72
566.21	44891.48
566.38	44568.48
566.54	44411.67
566.70	44465.50
566.87	44811.90
567.03	44542.74
567.19	44636.36
567.36	44584.86
567.52	44680.83
567.68	45146.59
567.85	44924.24
568.01	45001.48
568.17	44898.50
568.34	45043.61
568.50	44994.46
568.66	44856.37
568.83	44392.94
568.99	44692.53
569.15	45041.27
569.32	44713.59
569.48	44954.67
569.64	45132.55
569.81	45085.74
569.97	45621.72
570.13	44987.44
570.30	44479.54
570.46	45083.40
570.62	45057.65
570.78	44472.52
570.95	45193.40
571.11	45198.09
571.27	44828.28
571.43	44748.70
571.60	44949.99
571.76	44987.44
571.92	45109.14
572.09	44783.81
572.25	44589.55
572.41	44790.83
572.57	45167.66
572.74	45373.63
572.90	45109.14
573.06	45577.25
573.22	45338.52
573.38	45244.90
573.55	45315.11
573.71	45734.07
573.87	45062.33
574.03	45256.60
574.20	45361.92
574.36	44947.65
574.52	45902.59
574.68	45448.52
574.84	45209.79
575.01	45645.13
575.17	45427.46
575.33	45497.67
575.49	45104.46
575.65	45010.84
575.82	45296.39
575.98	44868.07
576.14	45404.05
576.30	45462.57
576.46	45162.98
576.62	45301.07
576.79	45277.66
576.95	45354.90
577.11	45064.67
577.27	45392.35
577.43	45296.39
577.59	45909.61
577.75	45368.94
577.92	45038.93
578.08	45413.41
578.24	45420.44
578.40	45570.23
578.56	45071.70
578.72	45324.47
578.88	45373.63
579.04	45443.84
579.21	45581.93
579.37	45233.19
579.53	45811.31
579.69	45263.62
579.85	45595.98
580.01	45256.60
580.17	45478.95
580.33	45345.54
580.49	45612.36
580.65	45591.30
580.82	45769.18
580.98	45127.87
581.14	45394.69
581.30	45940.04
581.46	45490.65
581.62	45139.57
581.78	45483.63
581.94	45581.93
582.10	45701.30
582.26	45883.86
582.42	45713.00
582.58	45549.17
582.74	45691.94
582.90	45638.11
583.06	45759.81
583.22	45633.42
583.38	45642.79
583.54	45872.16
583.70	45539.80
583.86	45600.66
584.02	45708.32
584.18	46120.26
584.34	45647.47
584.50	45961.10
584.66	45375.97
584.82	45659.17
584.98	45876.84
585.14	46169.41
585.30	45481.29
585.46	45626.40
585.62	45439.16
585.78	45705.98
585.94	45284.68
586.10	45490.65
586.26	45380.65
586.42	45574.91
586.58	45762.15
586.74	45352.56
586.90	45705.98
587.06	45619.38
587.22	45993.87
587.38	45745.77
587.54	45918.97
587.70	45652.15
587.86	45577.25
588.02	45820.67
588.18	45621.72
588.34	45776.20
588.49	46251.33
588.65	45787.90
588.81	45986.85
588.97	45909.61
589.13	45586.61
589.29	46089.83
589.45	46375.37
589.61	45907.27
589.77	45968.12
589.93	45801.94
590.08	45670.87
590.24	46492.40
590.40	46330.90
590.56	46256.01
590.72	46316.86
590.88	46052.38
591.04	46288.77
591.20	46380.06
591.35	46265.37
591.51	46581.34
591.67	46300.48
591.83	46611.77
591.99	46129.62
592.15	46050.04
592.31	46113.23
592.46	46232.60
592.62	46199.83
592.78	45975.14
592.94	46564.96
593.10	46548.57
593.26	46321.54
593.41	46621.13
593.57	46658.58
593.73	46473.68
593.89	46625.81
594.05	46953.49
594.20	46396.44
594.36	46663.26
594.52	46515.81
594.68	46281.75
594.84	46183.45
594.99	46426.87
595.15	46391.76
595.31	46770.93
595.47	46424.53
595.62	46333.24
595.78	46124.94
595.94	46258.35
596.10	46211.54
596.25	46532.19
596.41	46815.40
596.57	45689.60
596.73	46831.78
596.88	46225.58
597.04	46857.52
597.20	46389.42
597.36	46316.86
597.51	46586.02
597.67	46471.34
597.83	46471.34
597.99	46803.69
598.14	46274.73
598.30	46384.74
598.46	46672.62
598.61	46780.29
598.77	46459.63
598.93	46740.50
599.09	46560.28
599.24	46719.43
599.40	47063.49
599.56	46747.52
599.71	46885.61
599.87	47243.71
600.03	46763.90
600.18	46820.08
600.34	46791.99
600.50	46995.62
600.65	46616.45
600.81	46672.62
600.97	47014.34
601.12	46677.30
601.28	46719.43
601.44	46703.05
601.59	46396.44
601.75	46740.50
601.91	47077.54
602.06	46637.51
602.22	46569.64
602.37	46557.94
602.53	47100.94
602.69	46644.54
602.84	46476.02
603.00	46962.85
603.16	46555.60
603.31	46480.70
603.47	46593.04
603.62	46567.30
603.78	46904.34
603.94	46791.99
604.09	46656.24
604.25	46253.67
604.40	46298.14
604.56	46656.24
604.71	46707.73
604.87	46454.95
605.03	46312.18
605.18	46899.65
605.34	46775.61
605.49	46471.34
605.65	46707.73
605.80	46167.07
605.96	46295.80
606.12	46347.29
606.27	46529.85
606.43	46443.25
606.58	46532.19
606.74	46672.62
606.89	47016.68
607.05	46415.16
607.20	46323.88
607.36	46569.64
607.51	46632.83
607.67	46443.25
607.82	46347.29
607.98	46644.54
608.13	46445.59
608.29	46677.30
608.44	46522.83
608.60	45979.82
608.75	46607.09
608.91	46110.89
609.06	46003.23
609.22	46321.54
609.37	46274.73
609.53	45911.95
609.68	46485.38
609.84	46169.41
609.99	46464.32
610.15	46134.30
610.30	46398.78
610.46	46309.84
610.61	46293.46
610.76	46513.47
610.92	46153.02
611.07	46127.28
611.23	46300.48
611.38	46204.52
611.54	46141.32
611.69	46883.27
611.84	46167.07
612.00	45869.82
612.15	46452.61
612.31	45675.55
612.46	45921.31
612.62	46199.83
612.77	46192.81
612.92	46403.46
613.08	46277.07
613.23	45593.64
613.39	45893.22
613.54	45846.41
613.69	46588.36
613.85	46043.02
614.00	46415.16
614.15	45991.53
614.31	45984.51
614.46	45808.96
614.62	45429.80
614.77	46043.02
614.92	46007.91
615.08	45427.46
615.23	46281.75
615.38	45787.90
615.54	45893.22
615.69	45670.87
615.84	45696.62
616.00	45684.92
616.15	45734.07
616.30	45937.69
616.46	45949.40
616.61	45724.71
616.76	45401.71
616.92	45696.62
617.07	45902.59
617.22	46000.89
617.37	45165.32
617.53	45586.61
617.68	45198.09
617.83	45397.03
617.99	46050.04
618.14	45879.18
618.29	45315.11
618.45	45528.10
618.60	45607.68
618.75	45354.90
618.90	45595.98
619.06	45219.15
619.21	45408.73
619.36	45923.65
619.51	45361.92
619.67	45258.94
619.82	45368.94
619.97	45483.63
620.12	45415.76
620.28	44942.97
620.43	45448.52
620.58	45406.39
620.73	45207.45
620.89	46000.89
621.04	45223.83
621.19	45050.63
621.34	44947.65
621.49	45186.38
621.65	45432.14
621.80	45425.12
621.95	45502.35
622.10	45359.58
622.25	45226.17
622.41	44961.69
622.56	45460.23
622.71	45132.55
622.86	45216.81
623.01	45081.06
623.16	44687.85
623.32	44701.89
623.47	44694.87
623.62	44818.92
623.77	45219.15
623.92	44961.69
624.07	44802.53
624.23	44823.60
624.38	44680.83
624.53	44687.85
624.68	44739.34
624.83	44781.47
624.98	44711.25
625.13	44296.98
625.29	44383.58
625.44	44685.51
625.59	44732.32
625.74	44629.34
625.89	44371.88
626.04	44528.69
626.19	44580.18
626.34	44685.51
626.49	44615.29
626.65	44526.35
626.80	44458.48
626.95	44053.56
627.10	43847.60
627.25	44179.95
627.40	44547.42
627.55	44266.55
627.70	43955.26
627.85	44484.22
628.00	44341.45
628.15	44533.37
628.30	43838.23
628.45	44163.57
628.60	43400.55
628.76	43880.36
628.91	44027.82
629.06	43866.32
629.21	43761.00
629.36	43466.09
629.51	43894.41
629.66	43835.89
629.81	43854.62
629.96	43988.03
630.11	43913.13
630.26	43377.15
630.41	44374.22
630.56	43533.96
630.71	43583.12
630.86	43711.84
631.01	43414.60
631.16	43580.78
631.31	43693.12
631.46	43590.14
631.61	44392.94
631.76	44079.31
631.91	43723.55
632.06	44098.03
632.21	43885.04
632.36	43360.76
632.51	43714.19
632.66	43470.77
632.81	43297.57
632.96	43779.72
633.10	43580.78
633.25	42946.49
633.40	43459.07
633.55	43969.30
633.70	43005.00
633.85	43234.38
634.00	42979.26
634.15	43241.40
634.30	43374.81
634.45	43210.97
634.60	42983.94
634.75	43468.43
634.90	43047.13
635.05	43030.75
635.19	42976.92
635.34	43126.71
635.49	43342.04
635.64	43426.30
635.79	43248.42
635.94	42869.25
636.09	42801.38
636.24	43150.12
636.39	42693.71
636.53	43112.67
636.68	42749.88
636.83	42642.22
636.98	42202.20
637.13	42326.25
637.28	42642.22
637.43	42745.20
637.57	42302.84
637.72	42520.51
637.87	42368.38
638.02	42733.50
638.17	42525.19
638.32	42389.44
638.46	42361.36
638.61	41963.46
638.76	42408.17
638.91	42593.07
639.06	42270.08
639.20	41951.76
639.35	42373.06
639.50	41933.04
639.65	42190.50
639.80	42625.84
639.94	42146.03
640.09	42244.33
640.24	41839.42
640.39	42059.43
640.54	41759.84
640.68	41958.78
640.83	42307.52
640.98	42120.28
641.13	41429.82
641.27	42302.84
641.42	41340.88
641.57	42260.71
641.72	41904.95
641.86	41816.01
642.01	42110.92
642.16	41614.72
642.31	41687.28
642.45	42085.17
642.60	41647.49
642.75	41434.50
642.90	41645.15
643.04	41703.67
643.19	41277.69
643.34	41457.91
643.48	41509.40
643.63	41448.55
643.78	41352.58
643.93	41708.35
644.07	41535.15
644.22	41668.56
644.37	41528.13
644.51	41450.89
644.66	41701.32
644.81	41593.66
644.95	41525.78
645.10	41256.62
645.25	41432.16
645.39	41092.79
645.54	40975.76
645.69	40886.82
645.83	40538.08
645.98	41434.50
646.13	41102.15
646.27	41436.84
646.42	40783.83
646.57	41092.79
646.71	41345.56
646.86	41441.53
647.00	40896.18
647.15	40938.31
647.30	41202.79
647.44	40994.48
647.59	40659.79
647.74	40727.66
647.88	40814.26
648.03	41148.96
648.17	41017.89
648.32	41155.98
648.47	41375.99
648.61	40793.20
648.76	40854.05
648.90	40694.89
649.05	40320.41
649.20	40776.81
649.34	40727.66
649.49	41001.50
649.63	41191.09
649.78	41041.29
649.92	40774.47
650.07	40999.16
650.21	40938.31
650.36	41163.00
650.51	40575.53
650.65	40811.92
650.80	41116.19
650.94	40514.67
651.09	40594.25
651.23	40119.12
651.38	40898.52
651.52	40018.48
651.67	40194.02
651.81	39878.05
651.96	40741.71
652.10	40123.80
652.25	40151.89
652.39	40257.21
652.54	40123.80
652.68	39997.41
652.83	40039.54
652.97	40212.74
653.12	39531.65
653.26	39754.00
653.41	40144.87
653.55	40013.80
653.70	40004.44
653.84	40196.36
653.99	40196.36
654.13	40126.14
654.27	40282.96
654.42	39920.18
654.56	40084.01
654.71	39793.79
654.85	39913.16
655.00	39758.68
655.14	39864.00
655.29	39777.40
655.43	39545.69
655.57	39665.06
655.72	39559.73
655.86	39686.12
656.01	39632.29
656.15	39133.76
656.30	39793.79
656.44	39423.98
656.58	39641.65
656.73	39688.46
656.87	39096.31
657.01	39311.64
657.16	39660.38
657.30	39824.22
657.45	39082.27
657.59	39089.29
657.73	39098.65
657.88	38740.55
658.02	39346.75
658.16	39920.18
658.31	39248.44
658.45	39002.69
658.60	39290.57
658.74	39208.65
658.88	39098.65
659.03	39414.62
659.17	38855.23
659.31	38885.66
659.46	39054.18
659.60	38754.59
659.74	38326.27
659.89	38422.23
660.03	38265.42
660.17	38532.24
660.32	38813.10
660.46	38302.87
660.60	37963.49
660.74	38546.28
660.89	38960.56
661.03	38258.40
661.17	38253.72
661.32	38066.47
661.46	37766.88
661.60	37919.02
661.74	37841.78
661.89	38129.67
662.03	38071.15
662.17	38078.18
662.31	37539.85
662.46	37972.85
662.60	37865.19
662.74	37635.81
662.88	37469.64
663.03	37411.12
663.17	37556.24
663.31	37326.86
663.45	37858.17
663.60	37516.45
663.74	37230.90
663.88	37046.00
664.02	37242.60
664.17	37177.07
664.31	36964.08
664.45	37069.40
664.59	37111.53
664.73	36940.68
664.88	37095.15
665.02	36779.18
665.16	36737.05
665.30	36657.47
665.44	37249.63
665.59	36734.71
665.73	36582.57
665.87	36126.17
666.01	36699.60
666.15	36346.18
666.29	36954.72
666.44	36833.01
666.58	36774.50
666.72	36037.23
666.86	36517.04
667.00	36304.05
667.14	36517.04
667.28	35955.31
667.43	35983.40
667.57	36334.48
667.71	36072.34
667.85	35840.62
667.99	36191.70
668.13	35620.61
668.27	35454.44
668.41	36046.59
668.56	35335.07
668.70	35552.74
668.84	35033.14
668.98	35405.28
669.12	34859.94
669.26	34958.24
669.40	35353.79
669.54	35005.05
669.68	35208.68
669.82	35084.63
669.96	34665.67
670.10	34462.05
670.25	34820.15
670.39	34602.48
670.53	34845.90
670.67	34653.97
670.81	35342.09
670.95	34731.21
671.09	34611.84
671.23	34518.22
671.37	34721.85
671.51	34450.35
671.65	34314.59
671.79	34026.71
671.93	34094.58
672.07	33949.47
672.21	34026.71
672.35	33715.42
672.49	33839.47
672.63	33675.63
672.77	33764.57
672.91	34143.74
673.05	33600.73
673.19	33233.27
673.33	33600.73
673.47	32835.38
673.61	32774.52
673.75	33027.30
673.89	33205.18
674.03	33020.28
674.17	32720.69
674.31	32456.21
674.45	33055.39
674.59	32957.08
674.73	32713.67
674.87	32598.98
675.01	32285.35
675.15	32037.25
675.29	31878.10
675.43	31852.35
675.56	32278.33
675.70	32020.87
675.84	32149.60
675.98	31140.83
676.12	31679.15
676.26	32336.84
676.40	31309.35
676.54	31473.18
676.68	31292.96
676.82	30953.58
676.96	31215.72
677.10	31363.18
677.23	30827.20
677.37	31098.70
677.51	30932.52
677.65	31152.53
677.79	30473.78
677.93	30548.67
678.07	30586.12
678.21	30391.86
678.34	30132.06
678.48	29900.34
678.62	30333.34
678.76	29979.92
678.90	29785.66
679.04	29640.54
679.18	30094.61
679.31	29876.94
679.45	29523.52
679.59	29340.96
679.73	29926.09
679.87	29399.47
680.00	29188.82
680.14	29434.58
680.28	29315.21
680.42	29085.84
680.56	28882.21
680.70	28790.93
680.83	28470.28
680.97	28694.97
681.11	28484.32
681.25	28126.22
681.39	28315.80
681.52	27999.83
681.66	28037.28
681.80	27847.69
681.94	27658.11
682.07	27463.85
682.21	27325.75
682.35	27571.51
682.49	27779.82
682.62	27262.56
682.76	27524.70
682.90	27278.94
683.04	27307.03
683.17	27065.96
683.31	26679.77
683.45	26424.65
683.59	26773.39
683.72	26668.06
683.86	26574.44
684.00	26534.65
684.13	26448.05
684.27	26518.27
684.41	26003.35
684.55	26569.76
684.68	25825.47
684.82	25802.07
684.96	26108.68
685.09	25673.34
685.23	25568.01
685.37	26040.80
685.50	25788.02
685.64	25638.23
685.78	25640.57
685.91	25247.36
686.05	24910.32
686.19	24594.35
686.32	24877.55
686.46	24336.89
686.60	24343.91
686.73	24961.81
686.87	24540.52
687.01	24559.24
687.14	24549.88
687.28	24306.46
687.42	23934.32
687.55	24264.33
687.69	24299.44
687.82	24123.90
687.96	23882.83
688.10	24065.39
688.23	23796.23
688.37	23405.36
688.50	23836.02
688.64	23751.76
688.78	23124.49
688.91	23370.25
689.05	23527.06
689.18	23126.83
689.32	22647.02
689.46	22803.84
689.59	22625.96
689.73	23014.49
689.86	22815.54
690.00	22672.77
690.13	22604.89
690.27	22590.85
690.41	22511.27
690.54	21933.16
690.68	22225.73
690.81	21991.67
690.95	21654.64
691.08	21837.20
691.22	21572.72
691.35	21654.64
691.49	22029.12
691.62	21731.87
691.76	21284.83
691.89	21010.99
692.03	21034.39
692.16	20842.47
692.30	20959.50
692.43	20783.96
692.57	20746.51
692.70	20669.27
692.84	20486.71
692.97	20290.10
693.11	20292.44
693.24	20290.10
693.38	20699.70
693.51	20123.93
693.65	20039.67
693.78	19939.02
693.92	19768.16
694.05	20042.01
694.19	19606.67
694.32	19557.52
694.45	19864.13
694.59	19913.28
694.72	19784.55
694.86	19304.74
694.99	19115.16
695.13	19075.37
695.26	19176.01
695.39	18960.68
695.53	18890.46
695.66	19187.71
695.80	18588.53
695.93	18810.89
696.07	18640.03
696.20	18391.93
696.33	18225.75
696.47	18389.59
696.60	18113.41
696.73	18295.97
696.87	18412.99
697.00	18192.98
697.14	18141.49
697.27	17696.79
697.40	17996.38
697.54	17727.22
697.67	17551.68
697.80	17713.17
697.94	17692.11
698.07	17385.50
698.21	17444.01
698.34	17167.83
698.47	17193.58
698.61	17057.82
698.74	16758.24
698.87	17121.02
699.01	16842.50
699.14	16573.33
699.27	16468.01
699.40	16575.67
699.54	16248.00
699.67	16259.70
699.80	16240.98
699.94	16264.38
700.07	16194.17
700.20	16112.25
700.34	15985.86
700.47	16126.29
700.60	16067.78
700.73	15981.18
700.87	15761.17
701.00	15606.69
701.13	15948.41
701.26	15428.81
701.40	15536.48
701.53	15185.40
701.66	15346.89
701.79	15475.62
701.93	15091.77
702.06	15161.99
702.19	15021.56
702.32	15068.37
702.46	15154.97
702.59	15082.41
702.72	15267.31
702.85	14665.80
702.99	14668.14
703.12	14579.20
703.25	14359.19
703.38	14480.89
703.51	14462.17
703.65	14249.18
703.78	14097.05
703.91	14106.41
704.04	14026.83
704.17	13820.86
704.31	13916.83
704.44	13673.41
704.57	13874.70
704.70	13558.72
704.83	13738.94
704.96	13322.33
705.10	13563.40
705.23	13547.02
>>>>>End Processed Spectral Data<<<<<
