SpectraSuite Data File
++++++++++++++++++++++++++++++++++++
Date: Fri Oct 25 10:44:18 EDT 2013
User: price-jones
Dark Spectrum Present: No
Reference Spectrum Present: No
Number of Sampled Component Spectra: 1
Spectrometers: USB2+H05261
Integration Time (usec): 100000 (USB2+H05261)
Spectra Averaged: 1 (USB2+H05261)
Boxcar Smoothing: 0 (USB2+H05261)
Correct for Electrical Dark: No (USB2+H05261)
Strobe/Lamp Enabled: No (USB2+H05261)
Correct for Detector Non-linearity: No (USB2+H05261)
Correct for Stray Light: No (USB2+H05261)
Number of Pixels in Processed Spectrum: 2048
>>>>>Begin Processed Spectral Data<<<<<
365.73	102.98
365.92	102.98
366.12	102.98
366.32	70.22
366.52	11.70
366.72	49.15
366.91	21.06
367.11	63.19
367.31	42.13
367.51	0.00
367.70	18.72
367.90	112.35
368.10	0.00
368.30	56.17
368.49	0.00
368.69	86.60
368.89	35.11
369.09	0.00
369.28	0.00
369.48	30.43
369.68	138.09
369.87	74.90
370.07	135.75
370.27	131.07
370.47	180.22
370.66	451.72
370.86	376.83
371.06	430.66
371.25	449.38
371.45	430.66
371.65	470.45
371.84	409.59
372.04	458.74
372.24	491.51
372.44	514.92
372.63	547.69
372.83	503.22
373.03	519.60
373.22	538.32
373.42	540.66
373.62	575.77
373.81	514.92
374.01	505.56
374.21	517.26
374.40	561.73
374.60	631.94
374.79	500.87
374.99	524.28
375.19	629.60
375.38	571.09
375.58	594.50
375.78	664.71
375.97	585.13
376.17	634.29
376.37	587.47
376.56	634.29
376.76	617.90
376.95	613.22
377.15	641.31
377.35	713.86
377.54	667.05
377.74	706.84
377.93	678.76
378.13	716.20
378.33	699.82
378.52	641.31
378.72	709.18
378.91	622.58
379.11	688.12
379.31	599.18
379.50	655.35
379.70	660.03
379.89	753.65
380.09	716.20
380.28	669.39
380.48	713.86
380.68	751.31
380.87	727.91
381.07	718.54
381.26	704.50
381.46	664.71
381.65	667.05
381.85	674.07
382.04	709.18
382.24	734.93
382.43	697.48
382.63	765.36
382.83	777.06
383.02	711.52
383.22	699.82
383.41	685.78
383.61	826.21
383.80	786.42
384.00	685.78
384.19	685.78
384.39	755.99
384.58	791.10
384.78	840.25
384.97	858.98
385.17	847.27
385.36	793.44
385.56	800.46
385.75	917.49
385.95	734.93
386.14	903.45
386.34	819.19
386.53	816.85
386.72	788.76
386.92	898.77
387.11	919.83
387.31	744.29
387.50	837.91
387.70	880.04
387.89	873.02
388.09	807.48
388.28	889.40
388.48	856.64
388.67	856.64
388.86	971.32
389.06	959.62
389.25	929.19
389.45	994.73
389.64	1064.94
389.84	997.07
390.03	978.34
390.22	1046.22
390.42	950.26
390.61	1006.43
390.81	966.64
391.00	1088.35
391.19	1090.69
391.39	1043.88
391.58	1069.62
391.78	1086.01
391.97	1064.94
392.16	1022.81
392.36	1062.60
392.55	985.37
392.75	931.53
392.94	1039.20
393.13	1015.79
393.33	929.19
393.52	1060.26
393.71	1013.45
393.91	1128.14
394.10	1097.71
394.29	1097.71
394.49	1200.69
394.68	1228.78
394.88	1160.91
395.07	1289.64
395.26	1214.74
395.46	1153.88
395.65	1146.86
395.84	1207.72
396.04	1270.91
396.23	1142.18
396.42	1207.72
396.62	1130.48
396.81	1238.14
397.00	1256.87
397.19	1252.19
397.39	1371.55
397.58	1373.89
397.77	1390.28
397.97	1364.53
398.16	1483.90
398.35	1394.96
398.55	1380.92
398.74	1437.09
398.93	1500.28
399.12	1551.78
399.32	1495.60
399.51	1486.24
399.70	1605.61
399.90	1483.90
400.09	1568.16
400.28	1504.96
400.47	1570.50
400.67	1710.93
400.86	1657.10
401.05	1657.10
401.24	1654.76
401.44	1696.89
401.63	1736.68
401.82	1746.04
402.01	1694.55
402.21	1846.68
402.40	1774.13
402.59	1741.36
402.78	1732.00
402.97	1750.72
403.17	1809.23
403.36	1844.34
403.55	1811.57
403.74	1867.75
403.93	1874.77
404.13	1949.67
404.32	1923.92
404.51	1799.87
404.70	1919.24
404.89	1966.05
405.09	1949.67
405.28	1952.01
405.47	1923.92
405.66	1928.60
405.85	1991.80
406.05	1863.07
406.24	2019.88
406.43	2087.76
406.62	2045.63
406.81	2090.10
407.00	2069.03
407.20	2045.63
407.39	2059.67
407.58	2071.37
407.77	2085.42
407.96	2174.36
408.15	2209.47
408.34	2361.60
408.54	2239.89
408.73	2289.04
408.92	2317.13
409.11	2331.17
409.30	2310.11
409.49	2253.94
409.68	2408.41
409.87	2279.68
410.07	2253.94
410.26	2349.90
410.45	2373.30
410.64	2445.86
410.83	2499.69
411.02	2537.14
411.21	2614.38
411.40	2703.32
411.59	2654.17
411.78	2623.74
411.98	2637.78
412.17	2677.57
412.36	2576.93
412.55	2597.99
412.74	2799.28
412.93	2897.58
413.12	2640.12
413.31	2839.07
413.50	2771.19
413.69	2944.39
413.88	2876.52
414.07	2928.01
414.26	2942.05
414.45	2885.88
414.64	2930.35
414.83	3056.74
415.02	3119.93
415.22	3260.37
415.41	3096.53
415.60	3089.51
415.79	3115.25
415.98	3267.39
416.17	3218.24
416.36	3176.11
416.55	3363.35
416.74	3323.56
416.93	3321.22
417.12	3346.97
417.31	3276.75
417.50	3311.86
417.69	3515.48
417.88	3361.01
418.07	3379.73
418.26	3485.06
418.45	3531.87
418.64	3557.61
418.83	3545.91
419.02	3578.68
419.21	3552.93
419.39	3641.87
419.58	3510.80
419.77	3564.64
419.96	3693.37
420.15	3688.68
420.34	3695.71
420.53	3571.66
420.72	3765.92
420.91	3896.99
421.10	3803.37
421.29	3894.65
421.48	3810.39
421.67	3831.46
421.86	3831.46
422.05	3698.05
422.24	3803.37
422.43	3805.71
422.61	3859.54
422.80	3859.54
422.99	3925.08
423.18	3918.06
423.37	4042.11
423.56	3978.91
423.75	4058.49
423.94	3976.57
424.13	3592.72
424.32	3822.09
424.50	4065.51
424.69	3920.40
424.88	3819.75
425.07	4058.49
425.26	3838.48
425.45	3847.84
425.64	4058.49
425.83	3939.12
426.01	4138.07
426.20	4121.68
426.39	4109.98
426.58	3992.95
426.77	3995.29
426.96	4016.36
427.15	4058.49
427.33	4004.66
427.52	4002.32
427.71	4014.02
427.90	4191.90
428.09	4332.33
428.28	4234.03
428.46	4229.35
428.65	4128.70
428.84	4219.99
429.03	4205.94
429.22	4177.86
429.40	4159.13
429.59	4039.76
429.78	3929.76
429.97	3967.21
430.16	4044.45
430.34	4201.26
430.53	4121.68
430.72	4332.33
430.91	4273.82
431.10	4318.29
431.28	4505.53
431.47	4671.71
431.66	4594.47
431.85	4519.57
432.03	4648.30
432.22	4669.37
432.41	4648.30
432.60	4695.11
432.79	4718.52
432.97	4840.23
433.16	4683.41
433.35	4662.35
433.54	4606.17
433.72	4451.70
433.91	4695.11
434.10	4800.44
434.28	4727.88
434.47	4748.95
434.66	4884.70
434.85	4877.68
435.03	5027.47
435.22	4945.55
435.41	5195.99
435.59	5069.60
435.78	5158.54
435.97	5022.79
436.16	5114.07
436.34	5184.29
436.53	5181.95
436.72	5130.45
436.90	5034.49
437.09	5111.73
437.28	5076.62
437.46	5219.39
437.65	5144.50
437.84	5228.76
438.02	5135.14
438.21	5081.30
438.40	5163.22
438.58	5394.93
438.77	5392.59
438.96	5455.79
439.14	5544.73
439.33	5701.54
439.52	5696.86
439.70	5526.00
439.89	5795.17
440.08	5809.21
440.26	5685.16
440.45	5687.50
440.63	5767.08
440.82	6085.39
441.01	5970.71
441.19	5944.96
441.38	6141.57
441.57	5944.96
441.75	6279.66
441.94	6401.37
442.12	6462.22
442.31	6363.92
442.50	6270.30
442.68	6176.67
442.87	6410.73
443.05	6296.04
443.24	6581.59
443.43	6511.37
443.61	6349.87
443.80	6661.16
443.98	6408.39
444.17	6333.49
444.35	6462.22
444.54	6576.91
444.73	6656.48
444.91	6408.39
445.10	6525.41
445.28	6487.96
445.47	6377.96
445.65	6417.75
445.84	6590.95
446.02	6525.41
446.21	6413.07
446.39	6511.37
446.58	6757.13
446.77	6750.10
446.95	6494.99
447.14	6743.08
447.32	6785.21
447.51	6658.82
447.69	6768.83
447.88	6633.08
448.06	6724.36
448.25	6902.24
448.43	6778.19
448.62	6724.36
448.80	6782.87
448.99	6792.23
449.17	6759.47
449.36	6817.98
449.54	6956.07
449.73	6949.05
449.91	7117.57
450.10	7115.23
450.28	7213.53
450.46	7248.64
450.65	7314.17
450.83	7197.15
451.02	7157.36
451.20	7438.22
451.39	7400.77
451.57	7227.57
451.76	7178.42
451.94	7302.47
452.13	7325.88
452.31	7297.79
452.49	7229.91
452.68	7222.89
452.86	7166.72
453.05	7372.69
453.23	7478.01
453.42	7222.89
453.60	7360.98
453.78	7482.69
453.97	7435.88
454.15	7400.77
454.34	7393.75
454.52	7653.55
454.70	7499.08
454.89	7669.94
455.07	7796.32
455.26	7569.29
455.44	7808.03
455.62	7676.96
455.81	7733.13
455.99	7700.36
456.17	7808.03
456.36	7712.07
456.54	7817.39
456.73	7999.95
456.91	8107.62
457.09	8133.36
457.28	8241.03
457.46	7995.27
457.64	8224.64
457.83	7992.93
458.01	7985.91
458.19	8203.58
458.38	8100.59
458.56	8259.75
458.74	8154.43
458.93	8135.70
459.11	8262.09
459.29	8149.75
459.48	8241.03
459.66	8252.73
459.84	8439.97
460.03	8610.83
460.21	8568.70
460.39	8531.25
460.57	8596.79
460.76	8751.26
460.94	8641.26
461.12	8589.77
461.31	8601.47
461.49	8713.81
461.67	8676.37
461.85	8936.17
462.04	8688.07
462.22	8795.73
462.40	8833.18
462.59	8954.89
462.77	8823.82
462.95	8987.66
463.13	8964.25
463.32	8826.16
463.50	9004.04
463.68	9123.41
463.86	9207.67
464.05	9092.98
464.23	8990.00
464.41	9181.92
464.59	9076.60
464.78	9254.48
464.96	9111.71
465.14	9025.11
465.32	9090.64
465.50	9254.48
465.69	9315.33
465.87	9100.00
466.05	9324.69
466.23	9195.96
466.41	9249.80
466.60	9441.72
466.78	9334.06
466.96	9312.99
467.14	9259.16
467.32	9387.89
467.51	9352.78
467.69	9193.62
467.87	9603.22
468.05	9582.15
468.23	9516.62
468.41	9462.79
468.60	9329.38
468.78	9628.96
468.96	9654.71
469.14	9589.17
469.32	9893.44
469.50	9394.91
469.69	9710.88
469.87	9860.68
470.05	9982.38
470.23	9895.78
470.41	9767.06
470.59	9951.96
470.77	9895.78
470.95	10068.98
471.14	10019.83
471.32	10005.79
471.50	10263.25
471.68	10413.04
471.86	10169.63
472.04	10422.41
472.22	10424.75
472.40	10483.26
472.58	10445.81
472.77	10450.49
472.95	10771.15
473.13	10843.70
473.31	10572.20
473.49	10649.44
473.67	10738.38
473.85	10560.50
474.03	10820.30
474.21	11052.01
474.39	11033.29
474.57	11265.00
474.75	11089.46
474.93	11255.64
475.12	11213.51
475.30	11145.63
475.48	11290.74
475.66	11211.17
475.84	11314.15
476.02	11541.18
476.20	11632.46
476.38	11630.12
476.56	11868.86
476.74	11751.83
476.92	11847.79
477.10	11864.18
477.28	12093.55
477.46	12058.44
477.64	12409.52
477.82	12542.93
478.00	12886.99
478.18	12395.48
478.36	12531.23
478.54	12666.98
478.72	12615.49
478.90	12821.45
479.08	12940.82
479.26	13270.84
479.44	13362.12
479.62	13256.79
479.80	13139.77
479.98	13301.26
480.16	13713.20
480.34	13659.37
480.52	13694.47
480.70	13940.23
480.88	13659.37
481.06	13855.97
481.24	13958.96
481.41	14017.47
481.59	14391.95
481.77	14441.11
481.95	14270.25
482.13	14736.01
482.31	14408.34
482.49	15246.25
482.67	15253.27
482.85	14963.04
483.03	15007.52
483.21	15234.55
483.39	15543.50
483.57	15157.31
483.74	15562.22
483.92	15868.83
484.10	15562.22
484.28	15985.86
484.46	16365.03
484.64	16262.04
484.82	16093.52
485.00	16248.00
485.18	16318.22
485.35	16596.74
485.53	15971.82
485.71	16194.17
485.89	16329.92
486.07	16411.84
486.25	16891.65
486.43	17001.65
486.61	17170.17
486.78	17565.72
486.96	17488.48
487.14	17720.20
487.32	17802.11
487.50	17881.69
487.68	18405.97
487.85	18129.79
488.03	18525.34
488.21	18974.72
488.39	18394.27
488.57	18476.19
488.75	18930.25
488.92	19257.93
489.10	19449.85
489.28	19260.27
489.46	19730.72
489.64	19843.06
489.81	19992.86
489.99	19990.52
490.17	20311.17
490.35	20622.46
490.53	20329.89
490.70	20643.52
490.88	20592.03
491.06	20858.85
491.24	20692.68
491.41	21128.02
491.59	20877.58
491.77	20840.13
491.95	21441.65
492.13	21252.06
492.30	21591.44
492.48	21474.42
492.66	21743.58
492.84	22045.51
493.01	22071.25
493.19	22008.06
493.37	22335.73
493.54	22221.05
493.72	23030.87
493.90	22555.74
494.08	23047.26
494.25	23108.11
494.43	23260.24
494.61	23496.64
494.79	23756.44
494.96	23543.45
495.14	23623.03
495.32	23962.40
495.49	24034.96
495.67	24067.73
495.85	23992.83
496.02	24519.45
496.20	24254.97
496.38	24278.38
496.55	24556.90
496.73	25046.07
496.91	24865.85
497.09	24489.03
497.26	24849.47
497.44	24889.26
497.62	25406.52
497.79	25336.30
497.97	24959.47
498.14	25469.71
498.32	25605.46
498.50	25790.36
498.67	26480.82
498.85	25867.60
499.03	25989.31
499.20	26534.65
499.38	26309.96
499.56	26675.09
499.73	26609.55
499.91	26677.43
500.08	26623.59
500.26	26504.23
500.44	26717.22
500.61	26827.22
500.79	26682.11
500.97	27138.51
501.14	26867.01
501.32	27204.05
501.49	27061.27
501.67	27101.06
501.84	27510.66
502.02	27751.73
502.20	27723.65
502.37	28121.54
502.55	27740.03
502.72	28294.74
502.90	28699.65
503.07	28137.92
503.25	28456.23
503.43	28102.81
503.60	28196.43
503.78	28453.89
503.95	28133.24
504.13	28914.98
504.30	28671.56
504.48	28437.51
504.65	28900.94
504.83	29282.44
505.01	29296.49
505.18	29177.12
505.36	29525.86
505.53	29340.96
505.71	29500.11
505.88	29762.25
506.06	29537.56
506.23	29605.44
506.41	29640.54
506.58	29811.40
506.76	30010.35
506.93	29886.30
507.11	30281.85
507.28	30000.99
507.46	30258.45
507.63	30279.51
507.81	30286.53
507.98	30230.36
508.16	30609.53
508.33	30415.26
508.50	30834.22
508.68	30960.61
508.85	31503.61
509.03	30857.62
509.20	31173.60
509.38	31171.25
509.55	31381.90
509.73	31545.74
509.90	31498.93
510.08	31545.74
510.25	31250.83
510.42	31398.29
510.60	31835.97
510.77	31910.86
510.95	32180.03
511.12	32325.14
511.30	32177.68
511.47	32353.23
511.64	32439.82
511.82	33050.70
511.99	32222.16
512.17	32650.47
512.34	32540.47
512.51	32706.65
512.69	32451.53
512.86	32772.18
513.04	33088.15
513.21	32837.72
513.38	32835.38
513.56	33034.32
513.73	33102.20
513.90	33132.62
514.08	33193.48
514.25	33074.11
514.43	33434.55
514.60	33766.91
514.77	33298.80
514.95	33743.50
515.12	33607.75
515.29	33514.13
515.47	34174.16
515.64	34267.78
515.81	33584.35
515.99	33640.52
516.16	33827.76
516.33	33586.69
516.51	33989.26
516.68	33343.27
516.85	33291.78
517.03	33518.81
517.20	34483.11
517.37	34274.80
517.54	34991.01
517.72	34513.54
517.89	33890.96
518.06	34220.97
518.24	34288.85
518.41	34368.43
518.58	34775.68
518.75	34506.52
518.93	34771.00
519.10	34380.13
519.27	35236.77
519.45	35206.34
519.62	35295.28
519.79	35428.69
519.96	35498.91
520.14	35599.55
520.31	35461.46
520.48	35405.28
520.65	35510.61
520.83	35967.01
521.00	36180.00
521.17	35330.39
521.34	36322.77
521.52	36130.85
521.69	36477.25
521.86	36517.04
522.03	36517.04
522.20	36758.11
522.38	36360.22
522.55	36758.11
522.72	36889.18
522.89	36418.74
523.07	37240.26
523.24	36634.06
523.41	37247.29
523.58	37003.87
523.75	37666.24
523.92	37177.07
524.10	37270.69
524.27	37366.65
524.44	37598.37
524.61	37563.26
524.78	37544.53
524.96	37549.21
525.13	37949.45
525.30	38068.81
525.47	37830.08
525.64	37507.08
525.81	37998.60
525.98	37933.06
526.16	37235.58
526.33	37263.67
526.50	37956.47
526.67	37163.03
526.84	37614.75
527.01	37619.43
527.18	37883.91
527.36	37904.98
527.53	38560.33
527.70	38426.92
527.87	37996.26
528.04	38569.69
528.21	38775.66
528.38	38590.75
528.55	38845.87
528.72	39269.51
528.89	39246.10
529.07	38864.60
529.24	38920.77
529.41	39288.23
529.58	38672.67
529.75	38583.73
529.92	39283.55
530.09	39262.49
530.26	39054.18
530.43	39248.44
530.60	39407.60
530.77	39136.10
530.94	39531.65
531.11	39622.93
531.28	39229.72
531.46	39669.74
531.63	39555.05
531.80	39908.47
531.97	39545.69
532.14	39789.11
532.31	39297.59
532.48	39386.54
532.65	40016.14
532.82	39812.51
532.99	40325.09
533.16	39512.92
533.33	40297.00
533.50	40018.48
533.67	39796.13
533.84	39625.27
534.01	40147.21
534.18	39943.58
534.35	40739.36
534.52	40154.23
534.69	40388.28
534.86	40921.93
535.03	40694.89
535.20	40978.10
535.37	41195.77
535.54	41134.92
535.71	40844.69
535.88	40350.84
536.05	40392.97
536.22	40900.86
536.38	41186.41
536.55	40942.99
536.72	40802.56
536.89	40399.99
537.06	40968.74
537.23	41240.24
537.40	40942.99
537.57	41422.80
537.74	40945.33
537.91	41687.28
538.08	41390.03
538.25	41120.87
538.42	41429.82
538.59	41523.44
538.75	41226.20
538.92	41434.50
539.09	41949.42
539.26	41291.73
539.43	41570.25
539.60	41200.45
539.77	41563.23
539.94	41675.58
540.11	41338.54
540.28	41771.54
540.44	41839.42
540.61	41411.10
540.78	41345.56
540.95	42183.48
541.12	41600.68
541.29	41556.21
541.46	41844.10
541.62	42010.28
541.79	42546.26
541.96	41811.33
542.13	42075.81
542.30	42223.26
542.47	42120.28
542.63	42117.94
542.80	42251.35
542.97	42501.79
543.14	42504.13
543.31	42452.64
543.48	42660.94
543.64	43358.42
543.81	43166.50
543.98	42834.14
544.15	42534.56
544.32	42883.30
544.48	43035.43
544.65	43344.38
544.82	43124.37
544.99	42447.96
545.16	43299.91
545.32	43136.07
545.49	43711.84
545.66	43468.43
545.83	43543.33
546.00	43775.04
546.16	43351.40
546.33	43346.72
546.50	42988.62
546.67	43676.74
546.83	43374.81
547.00	43185.22
547.17	43292.89
547.34	43110.33
547.50	43208.63
547.67	43601.84
547.84	43445.02
548.00	43615.88
548.17	44201.02
548.34	43943.56
548.51	43833.55
548.67	44102.71
548.84	43964.62
549.01	43662.69
549.18	43936.54
549.34	44135.48
549.51	44189.31
549.68	44011.43
549.84	44100.37
550.01	44156.55
550.18	44201.02
550.34	44013.77
550.51	44182.29
550.68	44112.08
550.84	43281.19
551.01	43969.30
551.18	44137.82
551.34	44247.83
551.51	44219.74
551.68	44744.02
551.84	44341.45
552.01	44325.07
552.18	44474.86
552.34	44191.65
552.51	44411.67
552.68	44194.00
552.84	44655.08
553.01	44385.92
553.18	44811.90
553.34	44603.59
553.51	44507.63
553.67	44786.15
553.84	44664.44
554.01	45022.54
554.17	44533.37
554.34	44746.36
554.51	44952.33
554.67	45141.91
554.84	44891.48
555.00	44949.99
555.17	44577.84
555.33	45113.83
555.50	44961.69
555.67	44825.94
555.83	44720.62
556.00	45151.27
556.16	45413.41
556.33	44891.48
556.50	44884.45
556.66	45244.90
556.83	44556.78
556.99	45179.36
557.16	45397.03
557.32	45078.72
557.49	45464.91
557.65	45123.19
557.82	45401.71
557.98	45359.58
558.15	45155.96
558.32	45298.73
558.48	45127.87
558.65	44954.67
558.81	45097.44
558.98	45076.38
559.14	45071.70
559.31	44935.95
559.47	45581.93
559.64	45462.57
559.80	45434.48
559.97	45230.85
560.13	45195.74
560.30	45338.52
560.46	45441.50
560.63	45666.19
560.79	45947.06
560.96	45757.47
561.12	46028.98
561.29	45778.54
561.45	45638.11
561.61	45619.38
561.78	45368.94
561.94	45378.31
562.11	45647.47
562.27	45584.27
562.44	45832.37
562.60	45724.71
562.77	45900.25
562.93	45883.86
563.10	45954.08
563.26	45371.28
563.42	45757.47
563.59	45675.55
563.75	45811.31
563.92	46010.25
564.08	46047.70
564.24	45701.30
564.41	45907.27
564.57	45738.75
564.74	45827.69
564.90	45858.12
565.07	46162.39
565.23	45846.41
565.39	45677.90
565.56	45921.31
565.72	45652.15
565.88	45867.48
566.05	45890.88
566.21	46024.29
566.38	45628.74
566.54	45902.59
566.70	46057.06
566.87	46347.29
567.03	46131.96
567.19	46197.49
567.36	46202.18
567.52	45743.43
567.68	46277.07
567.85	45984.51
568.01	46160.05
568.17	45867.48
568.34	45738.75
568.50	45925.99
568.66	46064.08
568.83	45996.21
568.99	45799.60
569.15	46033.66
569.32	45930.67
569.48	45923.65
569.64	46387.08
569.81	46040.68
569.97	45741.09
570.13	46162.39
570.30	45965.78
570.46	45827.69
570.62	45689.60
570.78	46164.73
570.95	45942.38
571.11	46312.18
571.27	46314.52
571.43	46064.08
571.60	46232.60
571.76	45982.16
571.92	46260.69
572.09	45933.01
572.25	45879.18
572.41	46000.89
572.57	46174.09
572.74	46752.20
572.90	46078.13
573.06	46410.48
573.22	46302.82
573.38	46277.07
573.55	46040.68
573.71	46422.19
573.87	46429.21
574.03	46548.57
574.20	46419.84
574.36	45825.35
574.52	46136.64
574.68	45900.25
574.84	46146.00
575.01	46162.39
575.17	45977.48
575.33	45996.21
575.49	45982.16
575.65	46171.75
575.82	46354.31
575.98	46293.46
576.14	46141.32
576.30	46230.26
576.46	46174.09
576.62	46380.06
576.79	46021.95
576.95	45954.08
577.11	46136.64
577.27	46178.77
577.43	46021.95
577.59	46113.23
577.75	45804.28
577.92	45996.21
578.08	45698.96
578.24	45790.24
578.40	46293.46
578.56	46146.00
578.72	46312.18
578.88	46480.70
579.04	46071.10
579.21	46305.16
579.37	46366.01
579.53	46445.59
579.69	46007.91
579.85	46302.82
580.01	46351.97
580.17	46178.77
580.33	46579.00
580.49	46330.90
580.65	46679.64
580.82	46454.95
580.98	45965.78
581.14	46225.58
581.30	46382.40
581.46	46279.41
581.62	46426.87
581.78	46330.90
581.94	46588.36
582.10	46361.33
582.26	46469.00
582.42	46382.40
582.58	46679.64
582.74	46445.59
582.90	46897.31
583.06	46113.23
583.22	46735.82
583.38	46408.14
583.54	46464.32
583.70	46850.50
583.86	46312.18
584.02	46220.90
584.18	46127.28
584.34	46583.68
584.50	46398.78
584.66	46461.97
584.82	45991.53
584.98	46478.36
585.14	46824.76
585.30	46473.68
585.46	46384.74
585.62	45937.69
585.78	46316.86
585.94	46153.02
586.10	46239.62
586.26	46068.76
586.42	46499.42
586.58	46747.52
586.74	46305.16
586.90	46288.77
587.06	46267.71
587.22	46478.36
587.38	45940.04
587.54	46586.02
587.70	46501.76
587.86	46672.62
588.02	46213.88
588.18	46557.94
588.34	46223.24
588.49	46043.02
588.65	45359.58
588.81	46108.55
588.97	46003.23
589.13	45827.69
589.29	45914.29
589.45	46031.32
589.61	46021.95
589.77	46183.45
589.93	46387.08
590.08	46050.04
590.24	46075.79
590.40	46529.85
590.56	46616.45
590.72	46653.90
590.88	45956.42
591.04	46178.77
591.20	46925.40
591.35	46506.44
591.51	46492.40
591.67	46590.70
591.83	46609.43
591.99	46511.13
592.15	46731.14
592.31	46595.38
592.46	46569.64
592.62	46672.62
592.78	46913.70
592.94	46738.16
593.10	46291.12
593.26	46796.67
593.41	46319.20
593.57	46450.27
593.73	46019.61
593.89	46834.12
594.05	46412.82
594.20	46452.61
594.36	46635.17
594.52	45998.55
594.68	46017.27
594.84	46373.03
594.99	46813.05
595.15	46405.80
595.31	46609.43
595.47	46267.71
595.62	46632.83
595.78	46887.95
595.94	46560.28
596.10	46564.96
596.25	46838.80
596.41	46831.78
596.57	46323.88
596.73	46717.09
596.88	46366.01
597.04	46431.55
597.20	46286.43
597.36	46382.40
597.51	46539.21
597.67	46761.56
597.83	46314.52
597.99	46918.38
598.14	46588.36
598.30	46370.69
598.46	46426.87
598.61	46609.43
598.77	46138.98
598.93	46384.74
599.09	46948.81
599.24	47107.96
599.40	47042.43
599.56	46995.62
599.71	46354.31
599.87	46447.93
600.03	46625.81
600.18	46799.01
600.34	46689.01
600.50	46632.83
600.65	46522.83
600.81	46583.68
600.97	46618.79
601.12	47114.98
601.28	46351.97
601.44	46794.33
601.59	46134.30
601.75	46433.89
601.91	46326.22
602.06	46307.50
602.22	46293.46
602.37	46824.76
602.53	46642.20
602.69	47093.92
602.84	46464.32
603.00	46443.25
603.16	46398.78
603.31	46801.35
603.47	46368.35
603.62	45982.16
603.78	46581.34
603.94	46614.11
604.09	46387.08
604.25	46522.83
604.40	46279.41
604.56	46614.11
604.71	46728.80
604.87	46092.17
605.03	46178.77
605.18	46314.52
605.34	46382.40
605.49	46270.05
605.65	46260.69
605.80	46078.13
605.96	46464.32
606.12	46380.06
606.27	46532.19
606.43	46333.24
606.58	46309.84
606.74	46185.79
606.89	46628.15
607.05	46569.64
607.20	46295.80
607.36	46202.18
607.51	46520.49
607.67	46075.79
607.82	46181.11
607.98	46248.99
608.13	46204.52
608.29	46316.86
608.44	45916.63
608.60	45820.67
608.75	45808.96
608.91	45815.99
609.06	46059.40
609.22	46206.86
609.37	45530.44
609.53	46211.54
609.68	45993.87
609.84	45867.48
609.99	45998.55
610.15	45727.05
610.30	46188.13
610.46	45855.78
610.61	45935.35
610.76	46361.33
610.92	45750.45
611.07	46232.60
611.23	45701.30
611.38	46012.59
611.54	45619.38
611.69	46012.59
611.84	45659.17
612.00	45780.88
612.15	46199.83
612.31	45745.77
612.46	45823.01
612.62	45876.84
612.77	45137.23
612.92	46019.61
613.08	45408.73
613.23	45799.60
613.39	45457.88
613.54	44921.90
613.69	45509.38
613.85	45404.05
614.00	45455.54
614.15	46328.56
614.31	45488.31
614.46	45539.80
614.62	45481.29
614.77	45078.72
614.92	45734.07
615.08	45411.07
615.23	45097.44
615.38	45085.74
615.54	44959.35
615.69	45310.43
615.84	45036.59
616.00	45020.20
616.15	45106.80
616.30	45635.77
616.46	44952.33
616.61	44832.96
616.76	44706.57
616.92	44552.10
617.07	44725.30
617.22	44395.28
617.37	44556.78
617.53	44877.43
617.68	45099.78
617.83	45448.52
617.99	44903.18
618.14	44942.97
618.29	44992.12
618.45	44823.60
618.60	44451.45
618.75	44718.28
618.90	44357.83
619.06	45015.52
619.21	44856.37
619.36	44996.80
619.51	44584.86
619.67	44437.41
619.82	44994.46
619.97	44952.33
620.12	44783.81
620.28	44205.70
620.43	44083.99
620.58	44306.34
620.73	44390.60
620.89	44488.90
621.04	44507.63
621.19	44360.17
621.34	44336.77
621.49	44404.64
621.65	43955.26
621.80	44320.38
621.95	43990.37
622.10	44006.75
622.25	43634.61
622.41	43632.27
622.56	44055.90
622.71	44304.00
622.86	43878.02
623.01	43798.44
623.16	44027.82
623.32	44130.80
623.47	43985.69
623.62	44079.31
623.77	43976.33
623.92	43854.62
624.07	43882.70
624.23	43629.93
624.38	43566.73
624.53	43702.48
624.68	43473.11
624.83	43379.49
624.98	43559.71
625.13	43393.53
625.29	43538.65
625.44	43285.87
625.59	43232.04
625.74	42965.21
625.89	43140.75
626.04	43220.33
626.19	43578.43
626.34	43379.49
626.49	43370.13
626.65	43522.26
626.80	43276.51
626.95	43323.32
627.10	43667.37
627.25	43105.65
627.40	42932.45
627.55	42677.33
627.70	42756.91
627.85	42628.18
628.00	42665.63
628.15	42726.48
628.30	42454.98
628.45	42693.71
628.60	43292.89
628.76	43433.32
628.91	43606.52
629.06	42609.45
629.21	42330.93
629.36	42630.52
629.51	42602.43
629.66	42260.71
629.81	42286.46
629.96	42628.18
630.11	42569.66
630.26	42616.47
630.41	43040.11
630.56	42735.84
630.71	42007.94
630.86	42398.80
631.01	42192.84
631.16	42391.78
631.31	42412.85
631.46	41965.81
631.61	42143.69
631.76	42394.12
631.91	42333.27
632.06	42103.90
632.21	42274.76
632.36	42548.60
632.51	42167.09
632.66	41837.08
632.81	41745.80
632.96	42799.04
633.10	42129.64
633.25	42045.38
633.40	42113.26
633.55	42377.74
633.70	42139.00
633.85	41750.48
634.00	41888.57
634.15	41837.08
634.30	41755.16
634.45	41755.16
634.60	41640.47
634.75	41904.95
634.90	41916.65
635.05	41500.04
635.19	41507.06
635.34	41851.12
635.49	41593.66
635.64	41422.80
635.79	41565.57
635.94	41371.31
636.09	41584.30
636.24	41455.57
636.39	41205.13
636.53	41060.02
636.68	41380.67
636.83	41635.79
636.98	41509.40
637.13	41670.90
637.28	41626.43
637.43	41567.91
637.57	41546.85
637.72	41106.83
637.87	41071.72
638.02	41478.97
638.17	41174.70
638.32	41244.92
638.46	41383.01
638.61	41371.31
638.76	41036.61
638.91	41020.23
639.06	40772.13
639.20	40821.28
639.35	41230.88
639.50	41090.44
639.65	41034.27
639.80	41308.11
639.94	40645.74
640.09	40957.03
640.24	40507.65
640.39	40098.06
640.54	40156.57
640.68	40730.00
640.83	40891.50
640.98	40657.45
641.13	40472.54
641.27	40884.48
641.42	40266.58
641.57	40914.90
641.72	40201.04
641.86	40367.22
642.01	40149.55
642.16	40598.93
642.31	40198.70
642.45	40687.87
642.60	40203.38
642.75	40187.00
642.90	40004.44
643.04	40378.92
643.19	39758.68
643.34	40016.14
643.48	39831.24
643.63	39945.92
643.78	39878.05
643.93	40058.27
644.07	39770.38
644.22	39519.95
644.37	39791.45
644.51	39988.05
644.66	40439.78
644.81	39777.40
644.95	39924.86
645.10	40018.48
645.25	40329.77
645.39	40332.11
645.54	40072.31
645.69	39796.13
645.83	39658.04
645.98	40086.36
646.13	39868.69
646.27	39943.58
646.42	39723.57
646.57	39845.28
646.71	39438.03
646.86	39842.94
647.00	39997.41
647.15	39562.08
647.30	39601.86
647.44	39173.55
647.59	39414.62
647.74	39456.75
647.88	39798.47
648.03	39695.49
648.17	39463.77
648.32	39033.11
648.47	39597.18
648.61	39276.53
648.76	39482.50
648.90	39398.24
649.05	39070.56
649.20	39108.01
649.34	38969.92
649.49	38869.28
649.63	39138.44
649.78	38700.76
649.92	39047.16
650.07	39625.27
650.21	38328.61
650.36	38380.10
650.51	39054.18
650.65	39564.42
650.80	39548.03
650.94	39253.12
651.09	38995.67
651.23	39157.16
651.38	38686.71
651.52	38602.46
651.67	39014.39
651.81	38497.13
651.96	38588.41
652.10	38478.41
652.25	38326.27
652.39	38698.42
652.54	38630.54
652.68	38782.68
652.83	38391.81
652.97	38548.62
653.12	38583.73
653.26	38553.30
653.41	38497.13
653.55	38565.01
653.70	38377.76
653.84	38370.74
653.99	38354.36
654.13	38265.42
654.27	38141.37
654.42	38279.46
654.56	38169.46
654.71	37904.98
654.85	38689.06
655.00	38202.22
655.14	37935.40
655.29	37584.32
655.43	38157.75
655.57	37701.35
655.72	37659.22
655.86	37612.41
656.01	37380.70
656.15	37434.53
656.30	37450.91
656.44	37453.25
656.58	37069.40
656.73	37556.24
656.87	37879.23
657.01	37794.97
657.16	37567.94
657.30	37258.99
657.45	37139.62
657.59	37511.77
657.73	37500.06
657.88	37741.14
658.02	38115.62
658.16	37743.48
658.31	37603.05
658.45	37596.03
658.60	37170.05
658.74	37586.66
658.88	37408.78
659.03	37361.97
659.17	37081.11
659.31	36959.40
659.46	36823.65
659.60	36732.37
659.74	37280.05
659.89	37062.38
660.03	37184.09
660.17	36933.65
660.32	36828.33
660.46	37060.04
660.60	36776.84
660.74	36664.49
660.89	36610.66
661.03	36622.36
661.17	36449.16
661.32	36107.44
661.46	36605.98
661.60	36591.94
661.74	36388.31
661.89	36428.10
662.03	36252.56
662.17	36165.96
662.31	36196.38
662.46	36196.38
662.60	36285.33
662.74	36280.64
662.88	36329.80
663.03	35672.10
663.17	35978.72
663.31	35978.72
663.45	35770.41
663.60	35887.43
663.74	35637.00
663.88	35716.58
664.02	35852.33
664.17	35690.83
664.31	35854.67
664.45	35765.73
664.59	35590.19
664.73	35463.80
664.88	35655.72
665.02	34986.33
665.16	35051.86
665.30	35173.57
665.44	35400.60
665.59	34923.13
665.73	34817.81
665.87	34588.44
666.01	34834.19
666.15	35098.67
666.29	34972.28
666.44	34885.68
666.58	34527.58
666.72	34878.66
666.86	34583.76
667.00	34740.57
667.14	34239.70
667.28	34335.66
667.43	34270.12
667.57	34808.45
667.71	34398.85
667.85	34242.04
667.99	34167.14
668.13	33652.22
668.27	34302.89
668.41	34225.65
668.56	33989.26
668.70	34293.53
668.84	33909.68
668.98	33366.68
669.12	33582.01
669.26	33305.82
669.40	33324.55
669.54	33628.82
669.68	33684.99
669.82	32999.21
669.96	33233.27
670.10	33401.79
670.25	33219.22
670.39	33385.40
670.53	32807.29
670.67	32849.42
670.81	33266.03
670.95	33359.66
671.09	33202.84
671.23	32732.39
671.37	33043.68
671.51	32432.80
671.65	32861.12
671.79	32432.80
671.93	32191.73
672.07	32931.34
672.21	32964.10
672.35	32545.15
672.49	32758.14
672.63	32364.93
672.77	32538.13
672.91	32203.43
673.05	31686.17
673.19	31990.44
673.33	31981.08
673.47	31651.06
673.61	31644.04
673.75	31508.29
673.89	31363.18
674.03	31562.12
674.17	31449.78
674.31	31466.16
674.45	31627.66
674.59	31325.73
674.73	31381.90
674.87	31304.67
675.01	31236.79
675.15	31344.45
675.29	31409.99
675.43	30979.33
675.56	31541.06
675.70	30752.30
675.84	30885.71
675.98	30073.54
676.12	30382.49
676.26	30270.15
676.40	30682.08
676.54	30651.66
676.68	30761.66
676.82	30279.51
676.96	30099.29
677.10	30213.98
677.23	29839.49
677.37	30108.65
677.51	29582.03
677.65	29848.85
677.79	28882.21
677.93	29397.13
678.07	29399.47
678.21	28973.49
678.34	29153.71
678.48	29303.51
678.62	28760.50
678.76	28709.01
678.90	28498.36
679.04	28474.96
679.18	28599.01
679.31	28287.71
679.45	28608.37
679.59	27974.08
679.73	27838.33
679.87	27896.85
680.00	28009.19
680.14	28166.01
680.28	27990.47
680.42	27906.21
680.56	27648.75
680.70	27669.81
680.83	27960.04
680.97	27489.59
681.11	27494.27
681.25	27527.04
681.39	27215.75
681.52	27520.02
681.66	27307.03
681.80	26941.91
681.94	27309.37
682.07	26749.98
682.21	26883.39
682.35	26590.83
682.49	26988.72
682.62	26838.92
682.76	26801.47
682.90	26429.33
683.04	25902.71
683.17	25809.09
683.31	26333.37
683.45	26059.52
683.59	25715.47
683.72	25947.18
683.86	25706.10
684.00	25488.43
684.13	25795.04
684.27	25687.38
684.41	25273.10
684.55	25156.08
684.68	25348.00
684.82	24971.18
684.96	24929.05
685.09	25106.93
685.23	24744.14
685.37	24819.04
685.50	25099.90
685.64	24716.06
685.78	24383.70
685.91	24287.74
686.05	24376.68
686.19	24449.24
686.32	24067.73
686.46	23480.25
686.60	23515.36
686.73	23456.85
686.87	23194.71
687.01	23229.82
687.14	23388.97
687.28	23285.99
687.42	23105.77
687.55	23178.33
687.69	23206.41
687.82	23000.44
687.96	23344.50
688.10	23218.11
688.23	22707.88
688.37	22635.32
688.50	22333.39
688.64	22614.26
688.78	22518.29
688.91	22167.21
689.05	22455.10
689.18	22335.73
689.32	21977.63
689.46	22274.88
689.59	22031.46
689.73	22565.10
689.86	22129.77
690.00	21685.06
690.13	21710.81
690.27	21575.06
690.41	21453.35
690.54	21369.09
690.68	21013.33
690.81	21240.36
690.95	21111.63
691.08	21298.88
691.22	20926.73
691.35	21242.70
691.49	21200.57
691.62	21188.87
691.76	21025.03
691.89	21120.99
692.03	20624.80
692.16	20620.12
692.30	20390.75
692.43	20100.52
692.57	20126.27
692.70	20615.44
692.84	20657.57
692.97	19772.85
693.11	19913.28
693.24	20042.01
693.38	19817.32
693.51	19992.86
693.65	19756.46
693.78	19714.33
693.92	19662.84
694.05	19454.53
694.19	19211.12
694.32	19400.70
694.45	18939.62
694.59	19206.44
694.72	19091.75
694.86	18864.72
694.99	18640.03
695.13	19028.56
695.26	18705.56
695.39	18658.75
695.53	19042.60
695.66	18991.11
695.80	18817.91
695.93	18518.32
696.07	18291.29
696.20	18567.47
696.33	18462.15
696.47	18401.29
696.60	17984.68
696.73	17956.59
696.87	18164.90
697.00	18057.23
697.14	17994.04
697.27	17460.40
697.40	17865.31
697.54	17525.93
697.67	17500.19
697.80	17432.31
697.94	17249.75
698.07	17135.06
698.21	16891.65
698.34	17277.83
698.47	16961.86
698.61	17003.99
698.74	16966.54
698.87	16755.90
699.01	16327.58
699.14	16524.18
699.27	16510.14
699.40	16631.85
699.54	16432.90
699.67	16348.64
699.80	15976.50
699.94	16290.13
700.07	16182.46
700.20	15758.83
700.34	15838.41
700.47	15974.16
700.60	15967.13
700.73	15978.84
700.87	15929.69
701.00	15840.75
701.13	15580.95
701.26	15145.61
701.40	15693.29
701.53	15220.50
701.66	15627.76
701.79	15272.00
701.93	15328.17
702.06	15246.25
702.19	15260.29
702.32	15129.22
702.46	14920.92
702.59	14869.42
702.72	15047.30
702.85	14878.79
702.99	14635.37
703.12	14743.03
703.25	14609.62
703.38	14263.22
703.51	14485.58
703.65	14466.85
703.78	14413.02
703.91	14277.27
704.04	14265.57
704.17	14221.10
704.31	14024.49
704.44	14169.60
704.57	14113.43
704.70	14012.79
704.83	13853.63
704.96	13748.31
705.10	13947.25
705.23	13846.61
>>>>>End Processed Spectral Data<<<<<
