SpectraSuite Data File
++++++++++++++++++++++++++++++++++++
Date: Fri Oct 25 11:34:04 EDT 2013
User: price-jones
Dark Spectrum Present: No
Reference Spectrum Present: No
Number of Sampled Component Spectra: 1
Spectrometers: USB2+H05261
Integration Time (usec): 100000 (USB2+H05261)
Spectra Averaged: 1 (USB2+H05261)
Boxcar Smoothing: 0 (USB2+H05261)
Correct for Electrical Dark: No (USB2+H05261)
Strobe/Lamp Enabled: No (USB2+H05261)
Correct for Detector Non-linearity: No (USB2+H05261)
Correct for Stray Light: No (USB2+H05261)
Number of Pixels in Processed Spectrum: 2048
>>>>>Begin Processed Spectral Data<<<<<
365.73	248.10
365.92	248.10
366.12	248.10
366.32	215.33
366.52	187.24
366.72	145.11
366.91	208.31
367.11	222.35
367.31	201.29
367.51	102.98
367.70	163.84
367.90	217.67
368.10	205.97
368.30	191.92
368.49	140.43
368.69	117.03
368.89	205.97
369.09	182.56
369.28	128.73
369.48	180.22
369.68	243.42
369.87	264.48
370.07	210.65
370.27	269.16
370.47	294.91
370.66	491.51
370.86	468.11
371.06	533.64
371.25	557.05
371.45	444.70
371.65	557.05
371.84	500.87
372.04	575.77
372.24	535.98
372.44	543.00
372.63	559.39
372.83	566.41
373.03	648.33
373.22	540.66
373.42	575.77
373.62	622.58
373.81	578.11
374.01	608.54
374.21	718.54
374.40	678.76
374.60	795.78
374.79	655.35
374.99	615.56
375.19	692.80
375.38	622.58
375.58	667.05
375.78	713.86
375.97	669.39
376.17	718.54
376.37	629.60
376.56	603.86
376.76	683.44
376.95	667.05
377.15	819.19
377.35	582.79
377.54	702.16
377.74	641.31
377.93	678.76
378.13	617.90
378.33	704.50
378.52	699.82
378.72	739.61
378.91	765.36
379.11	711.52
379.31	662.37
379.50	702.16
379.70	807.48
379.89	826.21
380.09	704.50
380.28	720.88
380.48	814.51
380.68	723.23
380.87	744.29
381.07	765.36
381.26	786.42
381.46	779.40
381.65	795.78
381.85	748.97
382.04	828.55
382.24	746.63
382.43	699.82
382.63	746.63
382.83	788.76
383.02	814.51
383.22	877.70
383.41	772.38
383.61	758.33
383.80	737.27
384.00	753.65
384.19	821.53
384.39	917.49
384.58	854.30
384.78	821.53
384.97	835.57
385.17	812.17
385.36	861.32
385.56	938.55
385.75	826.21
385.95	812.17
386.14	896.43
386.34	863.66
386.53	931.53
386.72	798.12
386.92	868.34
387.11	807.48
387.31	870.68
387.50	844.93
387.70	840.25
387.89	915.15
388.09	950.26
388.28	903.45
388.48	837.91
388.67	1036.86
388.86	917.49
389.06	1006.43
389.25	929.19
389.45	873.02
389.64	926.85
389.84	985.37
390.03	945.58
390.22	938.55
390.42	950.26
390.61	912.81
390.81	961.96
391.00	1032.18
391.19	990.05
391.39	987.71
391.58	1001.75
391.78	985.37
391.97	1062.60
392.16	961.96
392.36	1048.56
392.55	971.32
392.75	985.37
392.94	1064.94
393.13	1069.62
393.33	1062.60
393.52	1125.80
393.71	1020.47
393.91	1123.46
394.10	1060.26
394.29	1074.31
394.49	1107.07
394.68	1132.82
394.88	1107.07
395.07	1179.63
395.26	1132.82
395.46	1165.59
395.65	1130.48
395.84	1153.88
396.04	1240.48
396.23	1128.14
396.42	1200.69
396.62	1221.76
396.81	1217.08
397.00	1151.54
397.19	1261.55
397.39	1277.93
397.58	1277.93
397.77	1254.53
397.97	1174.95
398.16	1277.93
398.35	1263.89
398.55	1221.76
398.74	1256.87
398.93	1397.30
399.12	1306.02
399.32	1270.91
399.51	1350.49
399.70	1383.26
399.90	1261.55
400.09	1280.27
400.28	1448.79
400.47	1451.13
400.67	1406.66
400.86	1373.89
401.05	1476.88
401.24	1404.32
401.44	1406.66
401.63	1521.35
401.82	1514.33
402.01	1369.21
402.21	1465.18
402.40	1444.11
402.59	1483.90
402.78	1474.54
402.97	1437.09
403.17	1465.18
403.36	1448.79
403.55	1535.39
403.74	1509.65
403.93	1607.95
404.13	1570.50
404.32	1537.73
404.51	1493.26
404.70	1624.33
404.89	1617.31
405.09	1614.97
405.28	1717.95
405.47	1746.04
405.66	1673.48
405.85	1778.81
406.05	1666.46
406.24	1764.76
406.43	1638.38
406.62	1708.59
406.81	1750.72
407.00	1710.93
407.20	1727.32
407.39	1792.85
407.58	1902.86
407.77	1783.49
407.96	1856.04
408.15	1834.98
408.34	1909.88
408.54	1907.54
408.73	1874.77
408.92	1844.34
409.11	1996.48
409.30	1916.90
409.49	2022.22
409.68	1870.09
409.87	1980.09
410.07	2031.58
410.26	2085.42
410.45	2022.22
410.64	2036.27
410.83	2045.63
411.02	2136.91
411.21	2169.68
411.40	2069.03
411.59	2188.40
411.78	2115.84
411.98	2120.53
412.17	2080.74
412.36	2193.08
412.55	2307.77
412.74	2382.67
412.93	2326.49
413.12	2326.49
413.31	2429.48
413.50	2307.77
413.69	2340.54
413.88	2457.56
414.07	2471.61
414.26	2429.48
414.45	2422.45
414.64	2450.54
414.83	2471.61
415.02	2438.84
415.22	2583.95
415.41	2546.50
415.60	2597.99
415.79	2675.23
415.98	2684.59
416.17	2740.77
416.36	2647.15
416.55	2740.77
416.74	2843.75
416.93	2668.21
417.12	2895.24
417.31	2740.77
417.50	2754.81
417.69	2867.16
417.88	2853.11
418.07	2766.51
418.26	2862.48
418.45	2960.78
418.64	2988.86
418.83	2874.18
419.02	3005.25
419.21	3150.36
419.39	3054.40
419.58	3094.19
419.77	2981.84
419.96	3253.34
420.15	3115.25
420.34	3148.02
420.53	3108.23
420.72	3159.72
420.91	3150.36
421.10	3126.96
421.29	3229.94
421.48	3215.90
421.67	3155.04
421.86	3192.49
422.05	3229.94
422.24	3194.83
422.43	3243.98
422.61	3295.47
422.80	3318.88
422.99	3438.25
423.18	3318.88
423.37	3407.82
423.56	3225.26
423.75	3405.48
423.94	3262.71
424.13	3087.17
424.32	3192.49
424.50	3393.78
424.69	3349.31
424.88	3440.59
425.07	3368.03
425.26	3356.33
425.45	3412.50
425.64	3311.86
425.83	3428.88
426.01	3468.67
426.20	3456.97
426.39	3417.18
426.58	3445.27
426.77	3363.35
426.96	3524.85
427.15	3431.23
427.33	3454.63
427.52	3517.83
427.71	3620.81
427.90	3562.30
428.09	3616.13
428.28	3627.83
428.46	3527.19
428.65	3770.60
428.84	3758.90
429.03	3609.11
429.22	3646.55
429.40	3674.64
429.59	3721.45
429.78	3485.06
429.97	3672.30
430.16	3786.99
430.34	3686.34
430.53	3889.97
430.72	3735.50
430.91	3889.97
431.10	3602.08
431.28	3875.93
431.47	3929.76
431.66	3901.67
431.85	3911.04
432.03	3845.50
432.22	4025.72
432.41	4011.68
432.60	4114.66
432.79	4072.53
432.97	3969.55
433.16	3988.27
433.35	4077.21
433.54	4018.70
433.72	4145.09
433.91	4156.79
434.10	3997.64
434.28	4091.26
434.47	4182.54
434.66	4166.15
434.85	4271.48
435.03	4210.62
435.22	4280.84
435.41	4348.72
435.59	4325.31
435.78	4498.51
435.97	4292.54
436.16	4428.29
436.34	4278.50
436.53	4325.31
436.72	4507.87
436.90	4283.18
437.09	4559.36
437.28	4194.24
437.46	4344.03
437.65	4542.98
437.84	4547.66
438.02	4540.64
438.21	4493.83
438.40	4409.57
438.58	4671.71
438.77	4746.61
438.96	4671.71
439.14	4837.89
439.33	4779.37
439.52	4884.70
439.70	4896.40
439.89	4919.81
440.08	4957.25
440.26	4880.02
440.45	4915.12
440.63	4961.94
440.82	4884.70
441.01	5043.85
441.19	5004.07
441.38	5336.42
441.57	5224.08
441.75	5238.12
441.94	5284.93
442.12	5373.87
442.31	5174.92
442.50	5481.53
442.68	5369.19
442.87	5390.25
443.05	5355.15
443.24	5502.60
443.43	5514.30
443.61	5572.82
443.80	5568.13
443.98	5376.21
444.17	5245.14
444.35	5495.58
444.54	5535.37
444.73	5469.83
444.91	5633.67
445.10	5579.84
445.28	5420.68
445.47	5554.09
445.65	5554.09
445.84	5612.60
446.02	5596.22
446.21	5643.03
446.39	5509.62
446.58	5678.14
446.77	5568.13
446.95	5720.27
447.14	5528.35
447.32	5717.93
447.51	5626.65
447.69	5556.43
447.88	5696.86
448.06	5685.16
448.25	5715.59
448.43	5650.05
448.62	5692.18
448.80	5701.54
448.99	5638.35
449.17	5802.19
449.36	5650.05
449.54	5797.51
449.73	5844.32
449.91	6202.42
450.10	6003.47
450.28	6125.18
450.46	6167.31
450.65	5926.24
450.83	6094.76
451.02	5991.77
451.20	6019.86
451.39	5996.45
451.57	6059.65
451.76	6022.20
451.94	6057.31
452.13	6317.11
452.31	5935.60
452.49	5956.66
452.68	6143.91
452.86	6230.51
453.05	6279.66
453.23	6225.82
453.42	6118.16
453.60	6225.82
453.78	6380.30
453.97	6457.54
454.15	6289.02
454.34	6186.04
454.52	6424.77
454.70	6499.67
454.89	6544.14
455.07	6509.03
455.26	6462.22
455.44	6572.22
455.62	6548.82
455.81	6619.04
455.99	6612.01
456.17	6689.25
456.36	6607.33
456.54	6925.65
456.73	6843.73
456.91	6991.18
457.09	7040.33
457.28	6782.87
457.46	6623.72
457.64	6761.81
457.83	6988.84
458.01	6895.22
458.19	7033.31
458.38	7002.88
458.56	7009.90
458.74	7119.91
458.93	6984.16
459.11	7075.44
459.29	7119.91
459.48	6977.14
459.66	7077.78
459.84	7286.09
460.03	7377.37
460.21	7325.88
460.39	7279.07
460.57	7438.22
460.76	7300.13
460.94	7398.43
461.12	7272.04
461.31	7321.20
461.49	7351.62
461.67	7398.43
461.85	7461.63
462.04	7468.65
462.22	7908.67
462.40	7686.32
462.59	7599.72
462.77	7543.55
462.95	7644.19
463.13	7674.62
463.32	7616.10
463.50	7702.70
463.68	7815.05
463.86	7698.02
464.05	7627.81
464.23	7592.70
464.41	7840.79
464.59	7728.45
464.78	7861.86
464.96	7756.54
465.14	7716.75
465.32	8070.17
465.50	7929.74
465.69	7920.37
465.87	7906.33
466.05	8079.53
466.23	8091.23
466.41	7988.25
466.60	8283.16
466.78	7838.45
466.96	7815.05
467.14	8002.29
467.32	8224.64
467.51	8243.37
467.69	8056.12
467.87	8121.66
468.05	8119.32
468.23	8386.14
468.41	7985.91
468.60	8397.84
468.78	8301.88
468.96	8196.56
469.14	8395.50
469.32	8416.57
469.50	8245.71
469.69	8465.72
469.87	8622.53
470.05	8580.40
470.23	8547.64
470.41	8594.45
470.59	8802.75
470.77	8580.40
470.95	8718.50
471.14	8718.50
471.32	8755.94
471.50	8877.65
471.68	8865.95
471.86	8819.14
472.04	9064.89
472.22	9149.15
472.40	8837.86
472.58	9006.38
472.77	9259.16
472.95	9156.18
473.13	9565.77
473.31	9184.26
473.49	9331.72
473.67	9406.61
473.85	9355.12
474.03	9598.54
474.21	9518.96
474.39	9717.90
474.57	9561.09
474.75	9781.10
474.93	9774.08
475.12	9675.77
475.30	9792.80
475.48	9790.46
475.66	10076.01
475.84	9811.53
476.02	9853.66
476.20	10167.29
476.38	10305.38
476.56	10403.68
476.74	10176.65
476.92	10331.12
477.10	10361.55
477.28	10403.68
477.46	10368.57
477.64	10537.09
477.82	10562.84
478.00	10906.90
478.18	10827.32
478.36	10953.71
478.54	11185.42
478.72	10995.84
478.90	11185.42
479.08	11316.49
479.26	11272.02
479.44	11559.91
479.62	11253.30
479.80	11702.68
479.98	11606.72
480.16	11988.22
480.34	11775.24
480.52	12109.93
480.70	12049.08
480.88	11698.00
481.06	12264.41
481.24	12161.42
481.41	12365.05
481.59	12367.39
481.77	12812.09
481.95	12540.59
482.13	12809.75
482.31	12779.32
482.49	13074.23
482.67	13207.64
482.85	13193.60
483.03	13233.39
483.21	13441.70
483.39	13490.85
483.57	13455.74
483.74	13474.46
483.92	13989.38
484.10	13673.41
484.28	14115.77
484.46	14054.92
484.64	14490.26
484.82	14108.75
485.00	14443.45
485.18	14647.07
485.35	14726.65
485.53	14757.08
485.71	14986.45
485.89	15138.58
486.07	15042.62
486.25	15037.94
486.43	15260.29
486.61	15496.69
486.78	15445.20
486.96	15573.92
487.14	15852.45
487.32	15398.38
487.50	16013.95
487.68	15927.35
487.85	16222.25
488.03	16493.76
488.21	16533.54
488.39	16409.50
488.57	16786.32
488.75	17235.70
488.92	17015.69
489.10	17172.51
489.28	17310.60
489.46	17476.78
489.64	17380.82
489.81	17818.50
489.99	17518.91
490.17	18066.60
490.35	18092.34
490.53	18239.79
490.70	18164.90
490.88	18075.96
491.06	18391.93
491.24	18473.85
491.41	18590.88
491.59	18728.97
491.77	18998.13
491.95	18991.11
492.13	19377.30
492.30	19576.24
492.48	19283.67
492.66	19176.01
492.84	19337.51
493.01	19784.55
493.19	19789.23
493.37	20252.66
493.54	19960.09
493.72	20355.64
493.90	20201.16
494.08	20269.04
494.25	20355.64
494.43	20395.43
494.61	20585.01
494.79	21062.48
494.96	21085.89
495.14	21151.42
495.32	21329.30
495.49	21165.46
495.67	21261.43
495.85	21563.36
496.02	21577.40
496.20	22129.77
496.38	21820.81
496.55	21832.52
496.73	22518.29
496.91	22483.19
497.09	22361.48
497.26	22707.88
497.44	22604.89
497.62	23206.41
497.79	22920.87
497.97	22782.77
498.14	23070.66
498.32	23351.52
498.50	23360.89
498.67	23545.79
498.85	23449.83
499.03	23393.65
499.20	23779.84
499.38	24327.53
499.56	23814.95
499.73	23700.26
499.91	24039.64
500.08	24463.28
500.26	24074.75
500.44	24208.16
500.61	24346.25
500.79	24100.50
500.97	24872.87
501.14	24711.38
501.32	25289.49
501.49	24907.98
501.67	25029.69
501.84	25104.59
502.02	24973.52
502.20	24982.88
502.37	25167.78
502.55	25235.66
502.72	25572.69
502.90	25434.60
503.07	25432.26
503.25	25661.63
503.43	25633.55
503.60	25598.44
503.78	26293.58
503.95	25853.56
504.13	26183.57
504.30	25979.95
504.48	26338.05
504.65	26394.22
504.83	26455.08
505.01	26614.23
505.18	26499.55
505.36	26822.54
505.53	26139.10
505.71	26529.97
505.88	27082.34
506.06	27000.42
506.23	26960.63
506.41	27056.59
506.58	27424.06
506.76	26918.50
506.93	27524.70
507.11	27548.11
507.28	27410.01
507.46	27714.28
507.63	27379.59
507.81	27613.64
507.98	27597.26
508.16	28065.36
508.33	27936.63
508.50	28231.54
508.68	28577.94
508.85	28669.22
509.03	28201.11
509.20	28528.79
509.38	28786.25
509.55	28912.64
509.73	28910.30
509.90	28861.15
510.08	28861.15
510.25	28795.61
510.42	28975.83
510.60	29163.08
510.77	29350.32
510.95	29450.96
511.12	29144.35
511.30	29394.79
511.47	29490.75
511.64	29331.59
511.82	29364.36
511.99	29743.53
512.17	29883.96
512.34	29701.40
512.51	30150.78
512.69	30258.45
512.86	30225.68
513.04	30361.43
513.21	30199.93
513.38	30689.10
513.56	30721.87
513.73	30422.28
513.90	30459.73
514.08	30031.41
514.25	30806.13
514.43	31037.84
514.60	31136.15
514.77	31063.59
514.95	31314.03
515.12	30850.60
515.29	31419.35
515.47	31426.37
515.64	31498.93
515.81	31168.91
515.99	31473.18
516.16	31737.66
516.33	31868.73
516.51	31749.37
516.68	31606.59
516.85	32072.36
517.03	31728.30
517.20	32006.83
517.37	31934.27
517.54	31798.52
517.72	31885.12
517.89	32493.66
518.06	32374.29
518.24	32170.66
518.41	32278.33
518.58	32278.33
518.75	32243.22
518.93	32889.21
519.10	32566.21
519.27	32610.68
519.45	32594.30
519.62	33301.14
519.79	33338.59
519.96	33294.12
520.14	32994.53
520.31	33034.32
520.48	33247.31
520.65	33488.38
520.83	33963.51
521.00	34132.03
521.17	33560.94
521.34	33736.48
521.52	33937.77
521.69	33741.16
521.86	33949.47
522.03	33834.78
522.20	34499.50
522.38	34775.68
522.55	34543.97
522.72	34410.56
522.89	34621.20
523.07	34480.77
523.24	34534.60
523.41	34600.14
523.58	34366.09
523.75	34754.61
523.92	34663.33
524.10	34759.30
524.27	35152.51
524.44	35129.10
524.61	35199.32
524.78	35005.05
524.96	35035.48
525.13	35580.82
525.30	35456.78
525.47	35229.74
525.64	35299.96
525.81	35583.16
525.98	35463.80
526.16	35732.96
526.33	35435.71
526.50	36297.03
526.67	35449.75
526.84	35948.29
527.01	36081.70
527.18	35915.52
527.36	36453.84
527.53	36481.93
527.70	35927.22
527.87	36486.61
528.04	35887.43
528.21	36613.00
528.38	35974.03
528.55	36444.48
528.72	36400.01
528.89	36825.99
529.07	36519.38
529.24	36531.08
529.41	36884.50
529.58	37006.21
529.75	36844.71
529.92	37219.20
530.09	36788.54
530.26	36776.84
530.43	36982.80
530.60	37343.25
530.77	36917.27
530.94	37394.74
531.11	36790.88
531.28	36734.71
531.46	37488.36
531.63	37053.02
531.80	37251.97
531.97	37727.10
532.14	37820.72
532.31	37361.97
532.48	37722.41
532.65	37996.26
532.82	37823.06
532.99	38045.41
533.16	37743.48
533.33	38199.88
533.50	37881.57
533.67	38197.54
533.84	37551.56
534.01	38445.64
534.18	38057.11
534.35	38436.28
534.52	38153.07
534.69	38508.83
534.86	38703.10
535.03	38658.63
535.20	38710.12
535.37	39131.42
535.54	38646.93
535.71	38223.29
535.88	38518.20
536.05	39110.35
536.22	39147.80
536.38	39367.81
536.55	38976.94
536.72	39220.36
536.89	38824.81
537.06	39037.80
537.23	39227.38
537.40	39016.73
537.57	38904.38
537.74	39079.92
537.91	39531.65
538.08	39248.44
538.25	39290.57
538.42	39775.06
538.59	39426.32
538.75	39297.59
538.92	39924.86
539.09	39903.79
539.26	39440.37
539.43	39786.77
539.60	39304.62
539.77	39707.19
539.94	40177.64
540.11	39730.59
540.28	40215.08
540.44	40271.26
540.61	39971.67
540.78	39943.58
540.95	40002.10
541.12	40240.83
541.29	39931.88
541.46	40147.21
541.62	40058.27
541.79	40435.10
541.96	39966.99
542.13	39814.85
542.30	40437.44
542.47	40608.29
542.63	40357.86
542.80	40793.20
542.97	41099.81
543.14	41193.43
543.31	40872.78
543.48	41280.03
543.64	41408.76
543.81	41251.94
543.98	41242.58
544.15	41013.21
544.32	41102.15
544.48	41741.11
544.65	41256.62
544.82	41603.02
544.99	41146.62
545.16	40961.72
545.32	41343.22
545.49	41509.40
545.66	41933.04
545.83	41537.49
546.00	41963.46
546.16	41418.12
546.33	41867.50
546.50	41493.02
546.67	41947.08
546.83	41460.25
547.00	41731.75
547.17	41647.49
547.34	42117.94
547.50	42146.03
547.67	42373.06
547.84	42256.03
548.00	42564.98
548.17	42586.05
548.34	42431.57
548.51	42307.52
548.67	42824.78
548.84	42380.08
549.01	42440.93
549.18	42230.29
549.34	42574.34
549.51	42887.98
549.68	42731.16
549.84	42426.89
550.01	43054.15
550.18	42752.23
550.34	42670.31
550.51	42707.76
550.68	43063.52
550.84	42543.92
551.01	42794.36
551.18	42663.28
551.34	42768.61
551.51	43225.01
551.68	43194.59
551.84	43110.33
552.01	43124.37
552.18	43531.62
552.34	43147.78
552.51	43278.85
552.68	42660.94
552.84	43253.10
553.01	43105.65
553.18	43456.73
553.34	43077.56
553.51	43203.95
553.67	43583.12
553.84	43721.21
554.01	43540.99
554.17	43786.74
554.34	43732.91
554.51	43571.41
554.67	43775.04
554.84	43686.10
555.00	43690.78
555.17	43763.34
555.33	43805.47
555.50	43981.01
555.67	43559.71
555.83	43927.17
556.00	44091.01
556.16	44432.73
556.33	44055.90
556.50	43529.28
556.66	44205.70
556.83	43791.42
556.99	44123.78
557.16	44238.47
557.32	44406.98
557.49	44236.12
557.65	43913.13
557.82	44748.70
557.98	44250.17
558.15	44404.64
558.32	44477.20
558.48	44360.17
558.65	44376.56
558.81	44261.87
558.98	44371.88
559.14	44573.16
559.31	44186.97
559.47	44540.39
559.64	44381.24
559.80	44563.80
559.97	44357.83
560.13	44095.69
560.30	44924.24
560.46	44786.15
560.63	44989.78
560.79	44795.51
560.96	44783.81
561.12	44685.51
561.29	44666.78
561.45	44959.35
561.61	44690.19
561.78	44961.69
561.94	45184.04
562.11	44563.80
562.27	44928.92
562.44	44900.84
562.60	45078.72
562.77	44940.63
562.93	44959.35
563.10	45584.27
563.26	44783.81
563.42	45137.23
563.59	45067.02
563.75	44774.45
563.92	44912.54
564.08	45167.66
564.24	45357.24
564.41	45361.92
564.57	45282.34
564.74	44755.72
564.90	45069.36
565.07	45036.59
565.23	44678.49
565.39	45022.54
565.56	45317.45
565.72	45095.10
565.88	45441.50
566.05	45305.75
566.21	45247.24
566.38	45216.81
566.54	45347.88
566.70	45113.83
566.87	45464.91
567.03	45492.99
567.19	45462.57
567.36	45429.80
567.52	45420.44
567.68	45542.14
567.85	45741.09
568.01	45855.78
568.17	45092.76
568.34	45759.81
568.50	45668.53
568.66	45595.98
568.83	45797.26
568.99	45647.47
569.15	45556.19
569.32	45490.65
569.48	45137.23
569.64	45766.84
569.81	45722.37
569.97	45879.18
570.13	45750.45
570.30	45478.95
570.46	45935.35
570.62	45869.82
570.78	45539.80
570.95	45586.61
571.11	46241.96
571.27	45708.32
571.43	45684.92
571.60	45696.62
571.76	45717.68
571.92	45265.96
572.09	45895.56
572.25	45958.76
572.41	45659.17
572.57	46026.63
572.74	46707.73
572.90	45675.55
573.06	46000.89
573.22	45848.75
573.38	46066.42
573.55	46141.32
573.71	46286.43
573.87	46136.64
574.03	45846.41
574.20	46431.55
574.36	46082.81
574.52	46096.85
574.68	46131.96
574.84	45778.54
575.01	46380.06
575.17	46349.63
575.33	45958.76
575.49	46312.18
575.65	46281.75
575.82	46185.79
575.98	45680.24
576.14	46548.57
576.30	46681.98
576.46	46279.41
576.62	46328.56
576.79	46410.48
576.95	45956.42
577.11	46230.26
577.27	46461.97
577.43	46131.96
577.59	46150.68
577.75	46146.00
577.92	45794.92
578.08	46258.35
578.24	46401.12
578.40	46277.07
578.56	46550.91
578.72	46099.19
578.88	46241.96
579.04	46637.51
579.21	46110.89
579.37	46092.17
579.53	46412.82
579.69	46043.02
579.85	45951.74
580.01	46209.20
580.17	46246.65
580.33	46358.99
580.49	46464.32
580.65	46319.20
580.82	46131.96
580.98	46340.27
581.14	46227.92
581.30	46628.15
581.46	46373.03
581.62	46328.56
581.78	45965.78
581.94	46824.76
582.10	46230.26
582.26	46515.81
582.42	46199.83
582.58	46457.29
582.74	46337.93
582.90	46506.44
583.06	46389.42
583.22	46195.15
583.38	46660.92
583.54	46733.48
583.70	46422.19
583.86	46380.06
584.02	46160.05
584.18	46742.84
584.34	46696.03
584.50	46689.01
584.66	46855.18
584.82	46539.21
584.98	46663.26
585.14	46230.26
585.30	46211.54
585.46	46424.53
585.62	46651.56
585.78	46618.79
585.94	46410.48
586.10	46527.51
586.26	46611.77
586.42	46340.27
586.58	46504.10
586.74	46560.28
586.90	46382.40
587.06	46689.01
587.22	46483.04
587.38	46571.98
587.54	46745.18
587.70	47030.72
587.86	46520.49
588.02	46326.22
588.18	46588.36
588.34	46892.63
588.49	46667.94
588.65	46534.53
588.81	46494.74
588.97	46806.03
589.13	46679.64
589.29	46763.90
589.45	46953.49
589.61	47114.98
589.77	46747.52
589.93	46639.86
590.08	46958.17
590.24	46979.23
590.40	47145.41
590.56	47203.92
590.72	46993.28
590.88	47063.49
591.04	47054.13
591.20	47299.89
591.35	47320.95
591.51	47267.12
591.67	47189.88
591.83	47480.11
591.99	46852.84
592.15	46894.97
592.31	47147.75
592.46	46993.28
592.62	46866.89
592.78	47442.66
592.94	47437.98
593.10	47089.24
593.26	47428.62
593.41	47276.48
593.57	47143.07
593.73	47248.39
593.89	47503.51
594.05	47632.24
594.20	47475.43
594.36	47400.53
594.52	47636.92
594.68	47014.34
594.84	46953.49
594.99	47805.44
595.15	46927.74
595.31	47409.89
595.47	46801.35
595.62	47164.14
595.78	47138.39
595.94	47419.25
596.10	47229.67
596.25	47634.58
596.41	47065.83
596.57	47276.48
596.73	47208.61
596.88	47377.12
597.04	47320.95
597.20	47281.16
597.36	47470.75
597.51	47189.88
597.67	47210.95
597.83	47295.21
597.99	47339.68
598.14	47089.24
598.30	47140.73
598.46	47498.83
598.61	47388.83
598.77	47545.64
598.93	47234.35
599.09	47000.30
599.24	47615.86
599.40	47299.89
599.56	47367.76
599.71	47770.33
599.87	48163.54
600.03	47320.95
600.18	47730.54
600.34	47351.38
600.50	47381.80
600.65	47428.62
600.81	47676.71
600.97	47608.84
601.12	47573.73
601.28	47203.92
601.44	48016.09
601.59	47402.87
601.75	47208.61
601.91	47913.11
602.06	47498.83
602.22	47665.01
602.37	47629.90
602.53	47330.31
602.69	47753.95
602.84	47377.12
603.00	47540.96
603.16	47650.97
603.31	47381.80
603.47	47545.64
603.62	47421.59
603.78	47459.04
603.94	47608.84
604.09	47250.74
604.25	47445.00
604.40	47325.63
604.56	47332.65
604.71	47695.44
604.87	47423.93
605.03	47487.13
605.18	47157.11
605.34	47852.25
605.49	47138.39
605.65	47611.18
605.80	47454.36
605.96	46969.87
606.12	47201.58
606.27	47400.53
606.43	47075.19
606.58	47278.82
606.74	47564.37
606.89	47337.33
607.05	47260.10
607.20	47501.17
607.36	47136.05
607.51	47313.93
607.67	47402.87
607.82	46864.55
607.98	47587.77
608.13	47290.52
608.29	47023.70
608.44	47316.27
608.60	47007.32
608.75	47487.13
608.91	47171.16
609.06	47014.34
609.22	47524.58
609.37	47320.95
609.53	47452.02
609.68	47470.75
609.84	47119.66
609.99	47175.84
610.15	47304.57
610.30	47178.18
610.46	47026.04
610.61	47313.93
610.76	46946.47
610.92	47086.90
611.07	46759.22
611.23	46789.65
611.38	47035.41
611.54	47131.37
611.69	46969.87
611.84	46972.21
612.00	47220.31
612.15	47054.13
612.31	46925.40
612.46	46824.76
612.62	47002.64
612.77	47278.82
612.92	46983.91
613.08	46955.83
613.23	47023.70
613.39	47133.71
613.54	46934.76
613.69	46925.40
613.85	46712.41
614.00	46569.64
614.15	46796.67
614.31	46431.55
614.46	47002.64
614.62	46852.84
614.77	46981.57
614.92	46525.17
615.08	46876.25
615.23	47299.89
615.38	46902.00
615.54	46913.70
615.69	46204.52
615.84	46637.51
616.00	47391.17
616.15	46752.20
616.30	46649.22
616.46	46454.95
616.61	46485.38
616.76	46230.26
616.92	46272.39
617.07	46644.54
617.22	46153.02
617.37	46410.48
617.53	46443.25
617.68	46534.53
617.83	46216.22
617.99	46731.14
618.14	46347.29
618.29	46181.11
618.45	46267.71
618.60	46483.04
618.75	45769.18
618.90	46115.58
619.06	46106.21
619.21	46122.60
619.36	46588.36
619.51	45982.16
619.67	45986.85
619.82	46113.23
619.97	46293.46
620.12	45911.95
620.28	46286.43
620.43	45951.74
620.58	46256.01
620.73	45944.72
620.89	46342.61
621.04	46499.42
621.19	46244.30
621.34	45923.65
621.49	46080.47
621.65	46043.02
621.80	46211.54
621.95	45991.53
622.10	45965.78
622.25	45729.39
622.41	46071.10
622.56	45956.42
622.71	45963.44
622.86	46054.72
623.01	45923.65
623.16	45867.48
623.32	45528.10
623.47	45911.95
623.62	45642.79
623.77	45930.67
623.92	45745.77
624.07	45715.34
624.23	45928.33
624.38	45846.41
624.53	45485.97
624.68	45418.10
624.83	45656.83
624.98	45804.28
625.13	45179.36
625.29	45317.45
625.44	45509.38
625.59	45577.25
625.74	44959.35
625.89	45003.82
626.04	45315.11
626.19	45354.90
626.34	45235.53
626.49	44779.13
626.65	44626.99
626.80	45610.02
626.95	44776.79
627.10	44610.61
627.25	45282.34
627.40	45268.30
627.55	45399.37
627.70	45076.38
627.85	45067.02
628.00	45099.78
628.15	44488.90
628.30	44779.13
628.45	44566.14
628.60	44439.75
628.76	44748.70
628.91	44638.70
629.06	44596.57
629.21	44381.24
629.36	44563.80
629.51	44704.23
629.66	44758.06
629.81	44823.60
629.96	45055.31
630.11	44795.51
630.26	44247.83
630.41	44608.27
630.56	44472.52
630.71	44470.18
630.86	44556.78
631.01	44304.00
631.16	44226.76
631.31	44430.39
631.46	44720.62
631.61	44954.67
631.76	44942.97
631.91	44664.44
632.06	44706.57
632.21	44355.49
632.36	44418.69
632.51	44172.93
632.66	44624.65
632.81	44552.10
632.96	44608.27
633.10	43903.77
633.25	43849.94
633.40	44355.49
633.55	44224.42
633.70	44065.27
633.85	43728.23
634.00	43854.62
634.15	43819.51
634.30	43707.16
634.45	43753.97
634.60	43840.57
634.75	44112.08
634.90	44238.47
635.05	43931.86
635.19	43732.91
635.34	44144.84
635.49	43723.55
635.64	43948.24
635.79	43894.41
635.94	43810.15
636.09	43920.15
636.24	43353.74
636.39	43423.96
636.53	43686.10
636.68	43601.84
636.83	43110.33
636.98	43304.59
637.13	43697.80
637.28	43503.54
637.43	43494.18
637.57	43611.20
637.72	43253.10
637.87	43756.32
638.02	43613.54
638.17	43335.02
638.32	43112.67
638.46	42801.38
638.61	42899.68
638.76	42895.00
638.91	43292.89
639.06	42965.21
639.20	42850.53
639.35	42763.93
639.50	42541.58
639.65	43248.42
639.80	43147.78
639.94	42885.64
640.09	43304.59
640.24	43112.67
640.39	42801.38
640.54	42682.01
640.68	42852.87
640.83	43056.50
640.98	42462.00
641.13	42286.46
641.27	42843.51
641.42	42756.91
641.57	42604.77
641.72	42719.46
641.86	42923.08
642.01	42557.96
642.16	42387.10
642.31	42185.82
642.45	42808.40
642.60	42120.28
642.75	42307.52
642.90	42658.60
643.04	42543.92
643.19	42213.90
643.34	42749.88
643.48	42106.24
643.63	42335.61
643.78	42258.37
643.93	42815.42
644.07	42721.80
644.22	42209.22
644.37	42522.85
644.51	42295.82
644.66	42473.70
644.81	42403.49
644.95	42562.64
645.10	42466.68
645.25	41909.63
645.39	41614.72
645.54	42085.17
645.69	41834.74
645.83	41790.27
645.98	41703.67
646.13	41947.08
646.27	41937.72
646.42	41535.15
646.57	42017.30
646.71	41954.10
646.86	42021.98
647.00	42054.75
647.15	41841.76
647.30	42129.64
647.44	41642.81
647.59	41918.99
647.74	41305.77
647.88	41621.75
648.03	42120.28
648.17	41986.87
648.32	41916.65
648.47	42052.41
648.61	41399.40
648.76	41706.01
648.90	41303.43
649.05	41525.78
649.20	41591.32
649.34	41415.78
649.49	41617.07
649.63	41331.52
649.78	41153.64
649.92	41666.22
650.07	41916.65
650.21	41167.68
650.36	41668.56
650.51	41373.65
650.65	41483.66
650.80	41708.35
650.94	41469.61
651.09	41387.69
651.23	41088.10
651.38	40872.78
651.52	40648.08
651.67	41092.79
651.81	41193.43
651.96	41111.51
652.10	41104.49
652.25	40910.22
652.39	40938.31
652.54	41570.25
652.68	41099.81
652.83	41062.36
652.97	41055.34
653.12	40807.24
653.26	40783.83
653.41	40858.73
653.55	41113.85
653.70	40781.49
653.84	40657.45
653.99	41064.70
654.13	40774.47
654.27	40898.52
654.42	40509.99
654.56	40528.72
654.71	41071.72
654.85	40690.21
655.00	40615.32
655.14	40854.05
655.29	40683.19
655.43	40921.93
655.57	40238.49
655.72	39955.29
655.86	40079.33
656.01	40285.30
656.15	40278.28
656.30	40472.54
656.44	40514.67
656.58	40790.86
656.73	40261.90
656.87	40032.52
657.01	40060.61
657.16	40425.73
657.30	39901.45
657.45	40102.74
657.59	39889.75
657.73	39122.05
657.88	40032.52
658.02	39735.27
658.16	39842.94
658.31	40320.41
658.45	39920.18
658.60	39922.52
658.74	40048.91
658.88	39885.07
659.03	39580.80
659.17	39388.88
659.31	39686.12
659.46	39466.11
659.60	39711.87
659.74	39292.91
659.89	38995.67
660.03	39112.69
660.17	39098.65
660.32	39274.19
660.46	39030.77
660.60	39386.54
660.74	39014.39
660.89	38990.98
661.03	39100.99
661.17	38836.51
661.32	38838.85
661.46	39117.37
661.60	38766.29
661.74	39037.80
661.89	38567.35
662.03	39042.48
662.17	38794.38
662.31	38553.30
662.46	38293.50
662.60	38274.78
662.74	38052.43
662.88	37806.67
663.03	38199.88
663.17	38366.06
663.31	38029.02
663.45	38129.67
663.60	38157.75
663.74	37659.22
663.88	38401.17
664.02	37776.25
664.17	38649.27
664.31	37790.29
664.45	37883.91
664.59	37916.68
664.73	37586.66
664.88	38234.99
665.02	37551.56
665.16	37273.03
665.30	37401.76
665.44	37240.26
665.59	37184.09
665.73	37858.17
665.87	36765.14
666.01	37397.08
666.15	37205.16
666.29	36727.69
666.44	37104.51
666.58	36809.61
666.72	36978.12
666.86	37329.20
667.00	36914.93
667.14	36837.69
667.28	36762.79
667.43	36603.64
667.57	36907.91
667.71	37179.41
667.85	36842.37
667.99	36678.54
668.13	36236.17
668.27	36128.51
668.41	36400.01
668.56	35868.71
668.70	35983.40
668.84	35442.73
668.98	35840.62
669.12	35943.61
669.26	35885.09
669.40	36336.82
669.54	35754.02
669.68	36531.08
669.82	35747.00
669.96	35585.50
670.10	35105.70
670.25	35250.81
670.39	34979.31
670.53	35508.27
670.67	35236.77
670.81	35885.09
670.95	35419.33
671.09	35257.83
671.23	35182.93
671.37	34946.54
671.51	35192.30
671.65	34623.54
671.79	34646.95
671.93	34944.20
672.07	35278.89
672.21	34932.50
672.35	34471.41
672.49	34885.68
672.63	34445.66
672.77	34766.32
672.91	34604.82
673.05	34167.14
673.19	33954.15
673.33	34185.86
673.47	33937.77
673.61	33951.81
673.75	33696.69
673.89	33593.71
674.03	33525.83
674.17	33261.35
674.31	33345.61
674.45	33149.01
674.59	33371.36
674.73	32950.06
674.87	33085.81
675.01	32666.86
675.15	33062.41
675.29	32360.25
675.43	32444.51
675.56	32931.34
675.70	32650.47
675.84	32727.71
675.98	31276.58
676.12	32573.24
676.26	32339.18
676.40	32140.24
676.54	32116.83
676.68	32004.49
676.82	31711.92
676.96	31920.23
677.10	31892.14
677.23	31817.24
677.37	31744.69
677.51	31613.62
677.65	31732.98
677.79	31288.28
677.93	31274.24
678.07	31054.23
678.21	30890.39
678.34	30902.09
678.48	30869.33
678.62	30600.16
678.76	30415.26
678.90	30630.59
679.04	30443.35
679.18	30967.63
679.31	30183.55
679.45	30153.12
679.59	30127.38
679.73	30244.40
679.87	29818.42
680.00	29956.52
680.14	30157.80
680.28	29834.81
680.42	30092.27
680.56	29441.60
680.70	29474.37
680.83	29216.91
680.97	29062.43
681.11	29153.71
681.25	28842.42
681.39	28341.55
681.52	28753.48
681.66	28755.82
681.80	28285.37
681.94	28196.43
682.07	28329.84
682.21	28149.62
682.35	27786.84
682.49	27817.27
682.62	28189.41
682.76	27775.14
682.90	27857.06
683.04	27714.28
683.17	27491.93
683.31	27501.29
683.45	27398.31
683.59	27414.69
683.72	27370.22
683.86	27040.21
684.00	27262.56
684.13	26944.25
684.27	26991.06
684.41	26754.66
684.55	26532.31
684.68	26740.62
684.82	26391.88
684.96	26356.77
685.09	26459.76
685.23	26019.74
685.37	26628.27
685.50	26625.93
685.64	26242.09
685.78	25937.82
685.91	25635.89
686.05	25680.36
686.19	25472.05
686.32	25291.83
686.46	25188.85
686.60	25010.96
686.73	25266.08
686.87	24973.52
687.01	25207.57
687.14	25041.39
687.28	24870.53
687.42	24910.32
687.55	24549.88
687.69	24645.84
687.82	24318.17
687.96	24545.20
688.10	24280.72
688.23	24474.98
688.37	24669.25
688.50	24489.03
688.64	23920.28
688.78	23819.63
688.91	23562.17
689.05	23742.39
689.18	23704.95
689.32	23063.64
689.46	23351.52
689.59	23290.67
689.73	23623.03
689.86	23491.96
690.00	23608.98
690.13	23199.39
690.27	23115.13
690.41	22834.27
690.54	22824.90
690.68	22757.03
690.81	22522.98
690.95	22242.11
691.08	21947.20
691.22	22319.35
691.35	22047.85
691.49	22347.44
691.62	22216.36
691.76	21425.26
691.89	21745.92
692.03	21406.54
692.16	21502.50
692.30	21441.65
692.43	21427.60
692.57	21231.00
692.70	21032.05
692.84	20985.24
692.97	20814.38
693.11	20966.52
693.24	20645.87
693.38	20404.79
693.51	20624.80
693.65	20718.42
693.78	20332.23
693.92	20266.70
694.05	20559.27
694.19	20269.04
694.32	20341.60
694.45	20168.40
694.59	20318.19
694.72	20262.02
694.86	19576.24
694.99	19974.13
695.13	19604.33
695.26	19506.02
695.39	19103.45
695.53	19257.93
695.66	19475.60
695.80	19222.82
695.93	19281.33
696.07	19239.20
696.20	18726.63
696.33	18623.64
696.47	18464.49
696.60	18724.29
696.73	18640.03
696.87	18405.97
697.00	18579.17
697.14	18354.48
697.27	18274.90
697.40	18106.38
697.54	18230.43
697.67	17987.02
697.80	18099.36
697.94	18087.66
698.07	17579.76
698.21	17731.90
698.34	17839.56
698.47	17415.93
698.61	17219.32
698.74	17216.98
698.87	17509.55
699.01	17067.19
699.14	17163.15
699.27	17055.48
699.40	16875.26
699.54	16882.28
699.67	16662.27
699.80	16652.91
699.94	16863.56
700.07	16826.11
700.20	16425.88
700.34	16217.57
700.47	16240.98
700.60	16512.48
700.73	16306.51
700.87	15953.09
701.00	16072.46
701.13	15833.72
701.26	15590.31
701.40	16044.37
701.53	15529.45
701.66	15908.62
701.79	15805.64
701.93	15466.26
702.06	15147.95
702.19	15293.06
702.32	15438.17
702.46	15328.17
702.59	15073.05
702.72	15578.61
702.85	15169.01
702.99	14984.11
703.12	14867.08
703.25	14899.85
703.38	14513.66
703.51	14588.56
703.65	14743.03
703.78	14548.77
703.91	14129.81
704.04	14279.61
704.17	14209.39
704.31	14188.33
704.44	14052.58
704.57	14087.68
704.70	14101.73
704.83	13605.53
704.96	13937.89
705.10	13827.88
705.23	13692.13
>>>>>End Processed Spectral Data<<<<<
