SpectraSuite Data File
++++++++++++++++++++++++++++++++++++
Date: Fri Oct 25 11:33:26 EDT 2013
User: price-jones
Dark Spectrum Present: No
Reference Spectrum Present: No
Number of Sampled Component Spectra: 1
Spectrometers: USB2+H05261
Integration Time (usec): 100000 (USB2+H05261)
Spectra Averaged: 1 (USB2+H05261)
Boxcar Smoothing: 0 (USB2+H05261)
Correct for Electrical Dark: No (USB2+H05261)
Strobe/Lamp Enabled: No (USB2+H05261)
Correct for Detector Non-linearity: No (USB2+H05261)
Correct for Stray Light: No (USB2+H05261)
Number of Pixels in Processed Spectrum: 2048
>>>>>Begin Processed Spectral Data<<<<<
365.73	299.59
365.92	299.59
366.12	299.59
366.32	110.01
366.52	166.18
366.72	114.69
366.91	182.56
367.11	163.84
367.31	149.79
367.51	168.52
367.70	250.44
367.90	215.33
368.10	152.13
368.30	124.05
368.49	140.43
368.69	243.42
368.89	154.48
369.09	198.95
369.28	175.54
369.48	269.16
369.68	220.01
369.87	208.31
370.07	222.35
370.27	250.44
370.47	318.31
370.66	557.05
370.86	437.68
371.06	540.66
371.25	596.84
371.45	547.69
371.65	528.96
371.84	538.32
372.04	519.60
372.24	578.11
372.44	554.71
372.63	535.98
372.83	610.88
373.03	554.71
373.22	592.16
373.42	681.10
373.62	582.79
373.81	671.73
374.01	629.60
374.21	608.54
374.40	603.86
374.60	678.76
374.79	697.48
374.99	678.76
375.19	613.22
375.38	613.22
375.58	634.29
375.78	657.69
375.97	690.46
376.17	718.54
376.37	627.26
376.56	631.94
376.76	664.71
376.95	683.44
377.15	709.18
377.35	702.16
377.54	678.76
377.74	676.41
377.93	770.04
378.13	718.54
378.33	720.88
378.52	730.25
378.72	741.95
378.91	713.86
379.11	681.10
379.31	720.88
379.50	692.80
379.70	774.72
379.89	751.31
380.09	730.25
380.28	819.19
380.48	786.42
380.68	791.10
380.87	662.37
381.07	821.53
381.26	793.44
381.46	716.20
381.65	840.25
381.85	828.55
382.04	816.85
382.24	812.17
382.43	753.65
382.63	781.74
382.83	772.38
383.02	793.44
383.22	767.70
383.41	770.04
383.61	770.04
383.80	884.72
384.00	807.48
384.19	821.53
384.39	723.23
384.58	739.61
384.78	851.96
384.97	807.48
385.17	842.59
385.36	751.31
385.56	866.00
385.75	814.51
385.95	861.32
386.14	882.38
386.34	835.57
386.53	889.40
386.72	863.66
386.92	882.38
387.11	816.85
387.31	882.38
387.50	908.13
387.70	992.39
387.89	924.51
388.09	870.68
388.28	851.96
388.48	945.58
388.67	908.13
388.86	919.83
389.06	959.62
389.25	1025.15
389.45	994.73
389.64	952.60
389.84	950.26
390.03	997.07
390.22	964.30
390.42	959.62
390.61	966.64
390.81	945.58
391.00	950.26
391.19	1055.58
391.39	1053.24
391.58	976.00
391.78	987.71
391.97	1015.79
392.16	961.96
392.36	1022.81
392.55	1191.33
392.75	1095.37
392.94	1018.13
393.13	1029.84
393.33	1036.86
393.52	1083.67
393.71	1046.22
393.91	1123.46
394.10	1102.39
394.29	1114.10
394.49	1067.28
394.68	1050.90
394.88	1093.03
395.07	1142.18
395.26	1184.31
395.46	1200.69
395.65	1200.69
395.84	1207.72
396.04	1277.93
396.23	1128.14
396.42	1207.72
396.62	1226.44
396.81	1299.00
397.00	1219.42
397.19	1226.44
397.39	1097.71
397.58	1228.78
397.77	1245.16
397.97	1207.72
398.16	1299.00
398.35	1315.38
398.55	1191.33
398.74	1203.04
398.93	1256.87
399.12	1299.00
399.32	1345.81
399.51	1291.98
399.70	1409.00
399.90	1294.32
400.09	1411.34
400.28	1373.89
400.47	1359.85
400.67	1476.88
400.86	1369.21
401.05	1467.52
401.24	1437.09
401.44	1460.49
401.63	1458.15
401.82	1359.85
402.01	1509.65
402.21	1448.79
402.40	1495.60
402.59	1460.49
402.78	1540.07
402.97	1526.03
403.17	1544.75
403.36	1516.67
403.55	1575.18
403.74	1596.25
403.93	1605.61
404.13	1626.67
404.32	1638.38
404.51	1626.67
404.70	1647.74
404.89	1598.59
405.09	1685.19
405.28	1661.78
405.47	1636.03
405.66	1675.82
405.85	1631.35
406.05	1696.89
406.24	1675.82
406.43	1771.79
406.62	1881.79
406.81	1877.11
407.00	1755.40
407.20	1778.81
407.39	1891.15
407.58	1881.79
407.77	1797.53
407.96	1748.38
408.15	1795.19
408.34	1907.54
408.54	1949.67
408.73	1970.73
408.92	1954.35
409.11	1970.73
409.30	2033.93
409.49	1935.62
409.68	1912.22
409.87	1933.28
410.07	1966.05
410.26	1998.82
410.45	2022.22
410.64	2069.03
410.83	2033.93
411.02	2153.29
411.21	2249.25
411.40	2162.66
411.59	2249.25
411.78	2333.51
411.98	2169.68
412.17	2239.89
412.36	2289.04
412.55	2230.53
412.74	2277.34
412.93	2340.54
413.12	2370.96
413.31	2417.77
413.50	2399.05
413.69	2450.54
413.88	2600.34
414.07	2551.18
414.26	2523.10
414.45	2572.25
414.64	2495.01
414.83	2616.72
415.02	2593.31
415.22	2593.31
415.41	2640.12
415.60	2684.59
415.79	2612.04
415.98	2808.64
416.17	2672.89
416.36	2724.38
416.55	2670.55
416.74	2785.24
416.93	2857.79
417.12	2897.58
417.31	2829.71
417.50	2918.65
417.69	3019.29
417.88	3063.76
418.07	2815.66
418.26	2904.60
418.45	2960.78
418.64	3124.62
418.83	3028.65
419.02	3019.29
419.21	3126.96
419.39	3112.91
419.58	3138.66
419.77	3061.42
419.96	3173.77
420.15	3162.06
420.34	3045.04
420.53	3103.55
420.72	3222.92
420.91	3286.11
421.10	3253.34
421.29	3243.98
421.48	3251.00
421.67	3248.66
421.86	3386.76
422.05	3407.82
422.24	3377.39
422.43	3346.97
422.61	3478.04
422.80	3349.31
422.99	3300.16
423.18	3475.70
423.37	3433.57
423.56	3412.50
423.75	3473.36
423.94	3225.26
424.13	3178.45
424.32	3222.92
424.50	3487.40
424.69	3419.52
424.88	3578.68
425.07	3251.00
425.26	3508.46
425.45	3473.36
425.64	3382.07
425.83	3398.46
426.01	3571.66
426.20	3517.83
426.39	3473.36
426.58	3536.55
426.77	3555.27
426.96	3602.08
427.15	3574.00
427.33	3588.04
427.52	3569.32
427.71	3513.14
427.90	3482.72
428.09	3719.11
428.28	3768.26
428.46	3794.01
428.65	3583.36
428.84	3878.27
429.03	3845.50
429.22	3676.98
429.40	3686.34
429.59	3829.12
429.78	3604.42
429.97	3653.58
430.16	3904.01
430.34	3824.44
430.53	3824.44
430.72	3765.92
430.91	3810.39
431.10	3889.97
431.28	3927.42
431.47	3955.51
431.66	4093.60
431.85	3929.76
432.03	4098.28
432.22	4100.62
432.41	4095.94
432.60	4049.13
432.79	4086.58
432.97	4152.11
433.16	3997.64
433.35	4093.60
433.54	4224.67
433.72	4236.37
433.91	4290.20
434.10	4205.94
434.28	4177.86
434.47	4177.86
434.66	4358.08
434.85	4285.52
435.03	4229.35
435.22	4388.50
435.41	4528.94
435.59	4493.83
435.78	4461.06
435.97	4402.55
436.16	4374.46
436.34	4341.69
436.53	4540.64
436.72	4500.85
436.90	4297.22
437.09	4440.00
437.28	4454.04
437.46	4491.49
437.65	4571.07
437.84	4631.92
438.02	4601.49
438.21	4573.41
438.40	4662.35
438.58	4851.93
438.77	4875.34
438.96	4795.76
439.14	4795.76
439.33	5057.90
439.52	4957.25
439.70	4957.25
439.89	5011.09
440.08	5130.45
440.26	5203.01
440.45	5123.43
440.63	5125.77
440.82	5350.46
441.01	5294.29
441.19	5050.88
441.38	5277.91
441.57	5219.39
441.75	5313.02
441.94	5376.21
442.12	5418.34
442.31	5554.09
442.50	5628.99
442.68	5561.11
442.87	5521.32
443.05	5652.39
443.24	5507.28
443.43	5638.35
443.61	5694.52
443.80	5856.02
443.98	5397.28
444.17	5425.36
444.35	5654.73
444.54	5865.38
444.73	5568.13
444.91	5549.41
445.10	5720.27
445.28	5687.50
445.47	5598.56
445.65	5589.20
445.84	5703.89
446.02	5696.86
446.21	5722.61
446.39	5781.12
446.58	5746.02
446.77	5619.63
446.95	5636.01
447.14	5706.23
447.32	5944.96
447.51	5769.42
447.69	5680.48
447.88	5933.26
448.06	5977.73
448.25	5919.21
448.43	5844.32
448.62	5856.02
448.80	5743.67
448.99	5968.37
449.17	5895.81
449.36	5980.07
449.54	5923.90
449.73	6143.91
449.91	6270.30
450.10	6078.37
450.28	6118.16
450.46	6171.99
450.65	6148.59
450.83	6111.14
451.02	6209.44
451.20	6258.59
451.39	6310.08
451.57	6204.76
451.76	6256.25
451.94	6204.76
452.13	6279.66
452.31	6307.74
452.49	6141.57
452.68	6307.74
452.86	6356.90
453.05	6296.04
453.23	6392.00
453.42	6382.64
453.60	6361.58
453.78	6490.31
453.97	6576.91
454.15	6420.09
454.34	6525.41
454.52	6717.34
454.70	6656.48
454.89	6546.48
455.07	6567.54
455.26	6698.61
455.44	6675.21
455.62	6693.93
455.81	6839.05
455.99	6724.36
456.17	6827.34
456.36	6862.45
456.54	6738.40
456.73	6869.47
456.91	7028.63
457.09	7028.63
457.28	7218.21
457.46	7059.06
457.64	7037.99
457.83	7164.38
458.01	6895.22
458.19	7283.75
458.38	7250.98
458.56	7258.00
458.74	7110.55
458.93	7321.20
459.11	7227.57
459.29	7241.62
459.48	7335.24
459.66	7295.45
459.84	7496.74
460.03	7599.72
460.21	7559.93
460.39	7283.75
460.57	7590.36
460.76	7487.37
460.94	7571.63
461.12	7494.40
461.31	7728.45
461.49	7442.90
461.67	7543.55
461.85	7562.27
462.04	7543.55
462.22	8133.36
462.40	7775.26
462.59	7868.88
462.77	7889.95
462.95	7812.71
463.13	7939.10
463.32	7903.99
463.50	7861.86
463.68	7936.76
463.86	8332.31
464.05	8093.57
464.23	7885.26
464.41	8004.63
464.59	7878.24
464.78	8187.19
464.96	8163.79
465.14	7815.05
465.32	8243.37
465.50	8109.96
465.69	7943.78
465.87	8095.91
466.05	8079.53
466.23	8156.77
466.41	8187.19
466.60	8409.54
466.78	8212.94
466.96	8430.61
467.14	8276.13
467.32	8320.60
467.51	8667.00
467.69	8018.68
467.87	8084.21
468.05	8697.43
468.23	8341.67
468.41	8655.30
468.60	8465.72
468.78	8596.79
468.96	8531.25
469.14	8582.74
469.32	8662.32
469.50	8346.35
469.69	8657.64
469.87	8798.07
470.05	8826.16
470.23	8868.29
470.41	8786.37
470.59	8926.80
470.77	8842.54
470.95	8844.88
471.14	8901.06
471.32	8802.75
471.50	9385.55
471.68	9041.49
471.86	8936.17
472.04	9071.92
472.22	9233.41
472.40	9107.02
472.58	9530.66
472.77	9453.42
472.95	9469.81
473.13	9764.72
473.31	9455.76
473.49	9411.29
473.67	9490.87
473.85	9628.96
474.03	9902.81
474.21	9734.29
474.39	9820.89
474.57	9893.44
474.75	10019.83
474.93	10146.22
475.12	10043.24
475.30	10162.61
475.48	9944.94
475.66	9968.34
475.84	10190.69
476.02	10420.06
476.20	10115.80
476.38	10527.73
476.56	10574.54
476.74	10684.55
476.92	10462.19
477.10	10595.61
477.28	10796.89
477.46	10775.83
477.64	10843.70
477.82	10918.60
478.00	11119.89
478.18	11133.93
478.36	11248.61
478.54	11658.21
478.72	11482.67
478.90	11407.77
479.08	11737.79
479.26	11768.21
479.44	11852.47
479.62	11606.72
479.80	11763.53
479.98	11962.48
480.16	12542.93
480.34	12414.20
480.52	12332.28
480.70	12470.37
480.88	12266.75
481.06	12589.74
481.24	12451.65
481.41	12936.14
481.59	12812.09
481.77	13095.30
481.95	12947.84
482.13	13221.69
482.31	13165.51
482.49	13418.29
482.67	13584.47
482.85	13472.12
483.03	13570.43
483.21	13778.73
483.39	14120.45
483.57	13825.54
483.74	13914.48
483.92	14090.02
484.10	14108.75
484.28	14633.03
484.46	14839.00
484.64	14888.15
484.82	14738.35
485.00	14661.12
485.18	15077.73
485.35	15424.13
485.53	15222.84
485.71	15454.56
485.89	15716.70
486.07	15473.28
486.25	15288.38
486.43	15815.00
486.61	15812.66
486.78	15786.91
486.96	16046.71
487.14	16189.49
487.32	16472.69
487.50	16304.17
487.68	16498.44
487.85	16620.14
488.03	16648.23
488.21	17282.52
488.39	16805.05
488.57	17123.36
488.75	17092.93
488.92	17439.33
489.10	17671.04
489.28	17472.10
489.46	18017.44
489.64	17539.97
489.81	18462.15
489.99	18195.32
490.17	17926.16
490.35	18455.12
490.53	18869.40
490.70	18824.93
490.88	18368.52
491.06	18932.59
491.24	18853.02
491.41	19112.81
491.59	19353.89
491.77	19566.88
491.95	19463.90
492.13	19648.80
492.30	19590.28
492.48	19868.81
492.66	20088.82
492.84	19924.98
493.01	20376.70
493.19	20128.61
493.37	20582.67
493.54	20545.22
493.72	20905.66
493.90	20786.30
494.08	20933.75
494.25	21146.74
494.43	20924.39
494.61	21376.11
494.79	21713.15
494.96	21443.99
495.14	21783.37
495.32	22012.74
495.49	21542.29
495.67	21886.35
495.85	22171.89
496.02	22274.88
496.20	22422.33
496.38	22326.37
496.55	22717.24
496.73	23173.64
496.91	22850.65
497.09	22829.59
497.26	22862.35
497.44	23285.99
497.62	23187.69
497.79	23784.52
497.97	23620.69
498.14	23772.82
498.32	23580.90
498.50	23939.00
498.67	23894.53
498.85	24056.03
499.03	24287.74
499.20	24245.61
499.38	24521.79
499.56	24613.07
499.73	24835.42
499.91	24533.50
500.08	24957.13
500.26	24982.88
500.44	24844.79
500.61	24954.79
500.79	24812.02
500.97	25532.90
501.14	25603.12
501.32	25720.15
501.49	25638.23
501.67	25825.47
501.84	25649.93
502.02	25539.93
502.20	26015.05
502.37	26190.59
502.55	25846.54
502.72	26029.10
502.90	25986.97
503.07	26054.84
503.25	26462.10
503.43	26342.73
503.60	26581.46
503.78	26684.45
503.95	26778.07
504.13	26799.13
504.30	26766.37
504.48	26670.40
504.65	27323.41
504.83	27325.75
505.01	26998.08
505.18	27351.50
505.36	27648.75
505.53	27555.13
505.71	27543.42
505.88	27728.33
506.06	27541.08
506.23	27796.20
506.41	28212.82
506.58	27990.47
506.76	28030.26
506.93	28156.64
507.11	28409.42
507.28	28170.69
507.46	28617.73
507.63	28683.27
507.81	28767.52
507.98	28556.88
508.16	28723.05
508.33	28947.75
508.50	28844.76
508.68	28854.12
508.85	29244.99
509.03	29027.32
509.20	29067.11
509.38	29586.71
509.55	29509.47
509.73	29273.08
509.90	29626.50
510.08	29584.37
510.25	29715.44
510.42	29876.94
510.60	30157.80
510.77	30305.26
510.95	30181.21
511.12	29734.17
511.30	30082.91
511.47	30167.16
511.64	30501.86
511.82	30843.58
511.99	30630.59
512.17	30785.07
512.34	30597.82
512.51	30831.88
512.69	31079.97
512.86	31292.96
513.04	31276.58
513.21	31140.83
513.38	31211.04
513.56	31503.61
513.73	31307.01
513.90	31417.01
514.08	31002.74
514.25	31702.56
514.43	32060.66
514.60	31772.77
514.77	31786.82
514.95	32306.41
515.12	31747.03
515.29	31981.08
515.47	31622.98
515.64	32088.74
515.81	32149.60
515.99	32460.89
516.16	32746.44
516.33	32313.44
516.51	32830.69
516.68	32737.07
516.85	32957.08
517.03	32854.10
517.20	33017.94
517.37	33034.32
517.54	33371.36
517.72	33039.00
517.89	33247.31
518.06	33530.51
518.24	33193.48
518.41	33439.23
518.58	33591.37
518.75	33181.77
518.93	33970.54
519.10	33521.15
519.27	33722.44
519.45	33787.97
519.62	34024.37
519.79	33790.31
519.96	33544.56
520.14	34370.77
520.31	34146.08
520.48	34309.91
520.65	34579.07
520.83	35161.87
521.00	34450.35
521.17	34459.71
521.34	34656.31
521.52	34969.94
521.69	34775.68
521.86	35112.72
522.03	35042.50
522.20	35285.92
522.38	35241.45
522.55	35150.17
522.72	34883.34
522.89	35491.88
523.07	35498.91
523.24	35508.27
523.41	35683.81
523.58	35274.21
523.75	35613.59
523.92	35807.86
524.10	35992.76
524.27	35693.17
524.44	36301.71
524.61	36254.90
524.78	36016.16
524.96	36545.12
525.13	35704.87
525.30	36463.21
525.47	36191.70
525.64	36531.08
525.81	36671.51
525.98	36559.17
526.16	36723.01
526.33	36528.74
526.50	36577.89
526.67	36641.09
526.84	36928.97
527.01	37177.07
527.18	37198.13
527.36	37284.73
527.53	37287.07
527.70	37202.82
527.87	37944.76
528.04	37170.05
528.21	37074.09
528.38	37336.23
528.55	37656.88
528.72	37343.25
528.89	37581.98
529.07	37823.06
529.24	37443.89
529.41	37912.00
529.58	37504.74
529.75	37867.53
529.92	38043.07
530.09	37928.38
530.26	38110.94
530.43	37776.25
530.60	37736.46
530.77	37933.06
530.94	38202.22
531.11	38188.18
531.28	37928.38
531.46	38253.72
531.63	38574.37
531.80	38377.76
531.97	38607.14
532.14	38597.77
532.31	38401.17
532.48	38726.50
532.65	38600.12
532.82	38604.80
532.99	38651.61
533.16	38768.63
533.33	38794.38
533.50	39075.24
533.67	38864.60
533.84	38801.40
534.01	39412.28
534.18	38993.32
534.35	39402.92
534.52	39498.88
534.69	39655.70
534.86	39555.05
535.03	39875.71
535.20	40067.63
535.37	39672.08
535.54	39903.79
535.71	39503.56
535.88	39709.53
536.05	39938.90
536.22	40264.24
536.38	40215.08
536.55	39887.41
536.72	40013.80
536.89	39826.56
537.06	40130.83
537.23	40371.90
537.40	39643.99
537.57	40217.43
537.74	39952.94
537.91	40645.74
538.08	40315.73
538.25	40250.19
538.42	40741.71
538.59	40821.28
538.75	40512.33
538.92	40992.14
539.09	41074.06
539.26	40699.58
539.43	40760.43
539.60	40816.60
539.77	40797.88
539.94	41069.38
540.11	40966.40
540.28	41076.40
540.44	41060.02
540.61	41207.47
540.78	40886.82
540.95	41043.63
541.12	41177.04
541.29	40935.97
541.46	41418.12
541.62	41551.53
541.79	41801.97
541.96	41095.13
542.13	40893.84
542.30	41265.99
542.47	41790.27
542.63	41918.99
542.80	41673.24
542.97	42206.88
543.14	41904.95
543.31	41972.83
543.48	41947.08
543.64	42499.45
543.81	42515.83
543.98	42305.18
544.15	42309.86
544.32	42494.77
544.48	42721.80
544.65	42059.43
544.82	42539.24
544.99	42108.58
545.16	42485.40
545.32	42396.46
545.49	42932.45
545.66	43012.02
545.83	42904.36
546.00	43086.92
546.16	43365.45
546.33	42658.60
546.50	42820.10
546.67	43044.79
546.83	42749.88
547.00	42660.94
547.17	42295.82
547.34	42836.48
547.50	43253.10
547.67	43990.37
547.84	43262.46
548.00	43353.74
548.17	43650.99
548.34	43320.98
548.51	43213.31
548.67	43985.69
548.84	43524.60
549.01	43353.74
549.18	43346.72
549.34	43543.33
549.51	43622.90
549.68	43732.91
549.84	43812.49
550.01	43709.50
550.18	43791.42
550.34	43807.81
550.51	44016.11
550.68	43995.05
550.84	43756.32
551.01	43962.28
551.18	44060.58
551.34	43945.90
551.51	43999.73
551.68	43983.35
551.84	44156.55
552.01	44016.11
552.18	44435.07
552.34	43943.56
552.51	44498.26
552.68	44416.35
552.84	44409.32
553.01	44299.32
553.18	44203.36
553.34	44264.21
553.51	44481.88
553.67	44657.42
553.84	44519.33
554.01	44774.45
554.17	44545.08
554.34	44959.35
554.51	44362.51
554.67	45067.02
554.84	45085.74
555.00	44907.86
555.17	45043.61
555.33	45240.21
555.50	44839.98
555.67	45223.83
555.83	45008.50
556.00	45118.51
556.16	45502.35
556.33	45277.66
556.50	45324.47
556.66	45324.47
556.83	44947.65
556.99	44889.13
557.16	45518.74
557.32	45249.58
557.49	45478.95
557.65	45148.93
557.82	44928.92
557.98	45380.65
558.15	45249.58
558.32	45483.63
558.48	45535.12
558.65	45542.14
558.81	45570.23
558.98	45610.02
559.14	45476.61
559.31	45258.94
559.47	45462.57
559.64	45563.21
559.80	45429.80
559.97	45830.03
560.13	45698.96
560.30	45441.50
560.46	46021.95
560.63	46036.00
560.79	45610.02
560.96	46307.50
561.12	46408.14
561.29	45984.51
561.45	45972.80
561.61	45457.88
561.78	45970.46
561.94	45785.56
562.11	45937.69
562.27	45876.84
562.44	45488.31
562.60	46454.95
562.77	46136.64
562.93	45972.80
563.10	46349.63
563.26	46263.03
563.42	46543.89
563.59	46485.38
563.75	46366.01
563.92	45785.56
564.08	46309.84
564.24	46377.72
564.41	46054.72
564.57	46272.39
564.74	46270.05
564.90	46525.17
565.07	46263.03
565.23	46279.41
565.39	46600.07
565.56	46492.40
565.72	46653.90
565.88	46436.23
566.05	46597.73
566.21	46534.53
566.38	46270.05
566.54	46983.91
566.70	46646.88
566.87	46555.60
567.03	46562.62
567.19	46373.03
567.36	46684.33
567.52	46539.21
567.68	46920.72
567.85	47004.98
568.01	46960.51
568.17	46459.63
568.34	46677.30
568.50	46508.79
568.66	46333.24
568.83	46976.89
568.99	47117.32
569.15	46796.67
569.32	46375.37
569.48	46916.04
569.64	47126.69
569.81	47058.81
569.97	46827.10
570.13	47096.26
570.30	46579.00
570.46	47042.43
570.62	47271.80
570.78	46735.82
570.95	47173.50
571.11	47009.66
571.27	46686.67
571.43	46990.94
571.60	46962.85
571.76	46817.74
571.92	46955.83
572.09	46909.02
572.25	46974.55
572.41	46674.96
572.57	46852.84
572.74	47398.19
572.90	46902.00
573.06	46995.62
573.22	47278.82
573.38	47653.31
573.55	47206.26
573.71	47821.83
573.87	47356.06
574.03	47227.33
574.20	47196.90
574.36	47573.73
574.52	47159.45
574.68	47269.46
574.84	47351.38
575.01	47372.44
575.17	47304.57
575.33	47786.72
575.49	47311.59
575.65	47363.08
575.82	47089.24
575.98	46841.14
576.14	47136.05
576.30	47386.49
576.46	47440.32
576.62	47000.30
576.79	47143.07
576.95	47047.11
577.11	46955.83
577.27	47264.78
577.43	47147.75
577.59	47377.12
577.75	47100.94
577.92	47327.97
578.08	47767.99
578.24	47035.41
578.40	47391.17
578.56	47384.15
578.72	47388.83
578.88	47501.17
579.04	47285.84
579.21	47372.44
579.37	47496.49
579.53	47388.83
579.69	47428.62
579.85	47271.80
580.01	47674.37
580.17	47650.97
580.33	47533.94
580.49	47213.29
580.65	47243.71
580.82	47402.87
580.98	46986.25
581.14	47140.73
581.30	47370.10
581.46	47320.95
581.62	47353.72
581.78	47332.65
581.94	47824.17
582.10	47358.40
582.26	47510.53
582.42	47466.06
582.58	47318.61
582.74	47625.22
582.90	47576.07
583.06	47739.91
583.22	47437.98
583.38	47526.92
583.54	47489.47
583.70	47831.19
583.86	47547.98
584.02	47847.57
584.18	47995.03
584.34	47639.26
584.50	48215.04
584.66	47929.49
584.82	47688.42
584.98	48289.93
585.14	47880.34
585.30	47449.68
585.46	47833.53
585.62	47674.37
585.78	47718.84
585.94	47192.22
586.10	47405.21
586.26	47454.36
586.42	47484.79
586.58	47882.68
586.74	47604.16
586.90	47124.35
587.06	47505.85
587.22	47796.08
587.38	47468.40
587.54	47643.94
587.70	48126.10
587.86	47812.46
588.02	47346.70
588.18	47501.17
588.34	47683.73
588.49	47997.37
588.65	47739.91
588.81	47812.46
588.97	47812.46
589.13	48030.13
589.29	47868.64
589.45	48353.13
589.61	48032.47
589.77	48186.95
589.93	48016.09
590.08	48259.51
590.24	48198.65
590.40	48463.13
590.56	48451.43
590.72	48208.01
590.88	47688.42
591.04	48098.01
591.20	48186.95
591.35	48165.88
591.51	48629.31
591.67	48182.27
591.83	48385.89
591.99	48306.32
592.15	48243.12
592.31	47966.94
592.46	47702.46
592.62	48346.11
592.78	48392.92
592.94	48774.42
593.10	48282.91
593.26	48741.66
593.41	48318.02
593.57	48002.05
593.73	48367.17
593.89	48720.59
594.05	48367.17
594.20	48456.11
594.36	48516.96
594.52	48353.13
594.68	48367.17
594.84	48629.31
594.99	48734.63
595.15	48439.73
595.31	48498.24
595.47	48273.55
595.62	48388.24
595.78	48406.96
595.94	48112.05
596.10	48177.59
596.25	48545.05
596.41	48715.91
596.57	48175.25
596.73	48718.25
596.88	48566.12
597.04	48535.69
597.20	48516.96
597.36	48186.95
597.51	48275.89
597.67	48428.02
597.83	48498.24
597.99	48458.45
598.14	48472.49
598.30	48163.54
598.46	48076.94
598.61	48271.21
598.77	48364.83
598.93	48699.53
599.09	48325.04
599.24	48580.16
599.40	48465.47
599.56	48596.54
599.71	48701.87
599.87	48835.28
600.03	48751.02
600.18	48783.79
600.34	48428.02
600.50	48772.08
600.65	48521.65
600.81	49116.14
600.97	48580.16
601.12	48905.49
601.28	48568.46
601.44	48547.39
601.59	48598.88
601.75	48402.28
601.91	48985.07
602.06	48327.38
602.22	48774.42
602.37	48708.89
602.53	48413.98
602.69	49059.97
602.84	48493.56
603.00	48545.05
603.16	48718.25
603.31	48690.16
603.47	48531.01
603.62	48601.22
603.78	48622.29
603.94	48631.65
604.09	48584.84
604.25	48325.04
604.40	48182.27
604.56	48315.68
604.71	48854.00
604.87	48341.42
605.03	48648.03
605.18	48643.35
605.34	48617.61
605.49	48421.00
605.65	48491.22
605.80	48308.66
605.96	48233.76
606.12	48744.00
606.27	48720.59
606.43	48186.95
606.58	48875.07
606.74	48439.73
606.89	48421.00
607.05	48903.15
607.20	48540.37
607.36	48126.10
607.51	48275.89
607.67	48641.01
607.82	48360.15
607.98	47721.18
608.13	48336.74
608.29	48514.62
608.44	48685.48
608.60	48568.46
608.75	48383.55
608.91	48278.23
609.06	48453.77
609.22	48725.27
609.37	48034.81
609.53	48446.75
609.68	48594.20
609.84	48215.04
609.99	48247.80
610.15	48694.85
610.30	48348.45
610.46	48421.00
610.61	48203.33
610.76	48121.41
610.92	48268.87
611.07	48212.70
611.23	47910.77
611.38	48313.34
611.54	48303.98
611.69	48193.97
611.84	48278.23
612.00	47988.00
612.15	48126.10
612.31	48203.33
612.46	47751.61
612.62	47922.47
612.77	48032.47
612.92	48289.93
613.08	47501.17
613.23	48114.39
613.39	48107.37
613.54	47585.43
613.69	48437.39
613.85	47826.51
614.00	47927.15
614.15	48142.48
614.31	47966.94
614.46	48285.25
614.62	47559.69
614.77	47943.53
614.92	47889.70
615.08	47948.21
615.23	48009.07
615.38	48107.37
615.54	47676.71
615.69	48189.29
615.84	47449.68
616.00	48334.40
616.15	48002.05
616.30	48004.39
616.46	47861.61
616.61	47767.99
616.76	48083.97
616.92	47489.47
617.07	47681.39
617.22	47756.29
617.37	47430.96
617.53	47522.24
617.68	47468.40
617.83	47681.39
617.99	47613.52
618.14	47756.29
618.29	47117.32
618.45	47089.24
618.60	47356.06
618.75	46948.81
618.90	47482.45
619.06	47456.70
619.21	47430.96
619.36	47842.89
619.51	47571.39
619.67	47243.71
619.82	47629.90
619.97	47278.82
620.12	47012.00
620.28	47222.65
620.43	47325.63
620.58	47021.36
620.73	47206.26
620.89	47552.66
621.04	47695.44
621.19	46937.10
621.34	47292.86
621.49	46951.15
621.65	46714.75
621.80	47665.01
621.95	47246.05
622.10	46866.89
622.25	46990.94
622.41	47318.61
622.56	46981.57
622.71	47054.13
622.86	47157.11
623.01	46890.29
623.16	46930.08
623.32	47063.49
623.47	47217.97
623.62	46693.69
623.77	47000.30
623.92	46983.91
624.07	47152.43
624.23	46883.27
624.38	47058.81
624.53	46997.96
624.68	46689.01
624.83	46536.87
624.98	46698.37
625.13	46497.08
625.29	46560.28
625.44	46415.16
625.59	46787.31
625.74	46632.83
625.89	46440.91
626.04	46520.49
626.19	46548.57
626.34	46246.65
626.49	45979.82
626.65	46251.33
626.80	45818.33
626.95	46005.57
627.10	45876.84
627.25	46440.91
627.40	46749.86
627.55	46309.84
627.70	46415.16
627.85	46291.12
628.00	46148.34
628.15	46181.11
628.30	45521.08
628.45	45492.99
628.60	45511.72
628.76	46010.25
628.91	46087.49
629.06	45961.10
629.21	45741.09
629.36	46064.08
629.51	45830.03
629.66	46230.26
629.81	45914.29
629.96	45853.44
630.11	45855.78
630.26	45567.89
630.41	45750.45
630.56	45483.63
630.71	46010.25
630.86	45364.26
631.01	45427.46
631.16	45371.28
631.31	45228.51
631.46	45326.81
631.61	45436.82
631.76	46150.68
631.91	45457.88
632.06	45848.75
632.21	45233.19
632.36	45698.96
632.51	45364.26
632.66	45855.78
632.81	45256.60
632.96	45099.78
633.10	45167.66
633.25	45074.04
633.40	45500.01
633.55	45441.50
633.70	44982.76
633.85	45603.00
634.00	44959.35
634.15	45134.89
634.30	45111.49
634.45	45305.75
634.60	45172.34
634.75	45151.27
634.90	45052.97
635.05	45375.97
635.19	44966.37
635.34	45256.60
635.49	45106.80
635.64	44898.50
635.79	45172.34
635.94	44900.84
636.09	45265.96
636.24	44858.71
636.39	45076.38
636.53	45144.25
636.68	44673.81
636.83	44320.38
636.98	44542.74
637.13	44610.61
637.28	44437.41
637.43	44589.55
637.57	44729.98
637.72	44575.50
637.87	44261.87
638.02	44402.30
638.17	44669.12
638.32	44383.58
638.46	43753.97
638.61	44353.15
638.76	44121.44
638.91	44327.41
639.06	44402.30
639.20	43959.94
639.35	43995.05
639.50	44224.42
639.65	43959.94
639.80	44332.09
639.94	44465.50
640.09	44296.98
640.24	44098.03
640.39	43742.27
640.54	43824.19
640.68	44039.52
640.83	44488.90
640.98	43899.09
641.13	43927.17
641.27	44105.06
641.42	44163.57
641.57	43695.46
641.72	44004.41
641.86	43903.77
642.01	43805.47
642.16	43461.41
642.31	42953.51
642.45	43819.51
642.60	43611.20
642.75	43803.13
642.90	43571.41
643.04	43718.87
643.19	43697.80
643.34	43393.53
643.48	43775.04
643.63	43222.67
643.78	43143.09
643.93	43573.75
644.07	43728.23
644.22	43210.97
644.37	43660.35
644.51	43526.94
644.66	43545.67
644.81	43360.76
644.95	43524.60
645.10	43508.22
645.25	43159.48
645.39	42969.90
645.54	43241.40
645.69	42850.53
645.83	43068.20
645.98	43054.15
646.13	43065.86
646.27	42782.65
646.42	42679.67
646.57	43014.37
646.71	43615.88
646.86	43260.12
647.00	43072.88
647.15	43304.59
647.30	43096.28
647.44	42986.28
647.59	42485.40
647.74	42974.58
647.88	43253.10
648.03	42932.45
648.17	43086.92
648.32	42829.46
648.47	43089.26
648.61	42754.57
648.76	42497.11
648.90	42925.42
649.05	42593.07
649.20	42703.07
649.34	42710.10
649.49	42646.90
649.63	42504.13
649.78	42471.36
649.92	42815.42
650.07	43086.92
650.21	42595.41
650.36	42672.65
650.51	42635.20
650.65	42976.92
650.80	42895.00
650.94	42548.60
651.09	42220.92
651.23	41902.61
651.38	42171.77
651.52	42251.35
651.67	42534.56
651.81	42021.98
651.96	42061.77
652.10	41977.51
652.25	41645.15
652.39	41918.99
652.54	42185.82
652.68	41993.89
652.83	42024.32
652.97	42099.22
653.12	41888.57
653.26	41626.43
653.41	42337.95
653.55	41783.24
653.70	42045.38
653.84	42253.69
653.99	41734.09
654.13	42115.60
654.27	42064.11
654.42	42031.34
654.56	41951.76
654.71	41605.36
654.85	42094.53
655.00	41698.98
655.14	41942.40
655.29	41890.91
655.43	42106.24
655.57	41926.02
655.72	40942.99
655.86	41478.97
656.01	41275.35
656.15	41237.90
656.30	41408.76
656.44	41577.28
656.58	41621.75
656.73	41581.96
656.87	41177.04
657.01	40971.08
657.16	41560.89
657.30	41350.24
657.45	41151.30
657.59	41329.18
657.73	41013.21
657.88	41146.62
658.02	41198.11
658.16	41170.02
658.31	41088.10
658.45	41713.03
658.60	40919.59
658.74	40800.22
658.88	41179.39
659.03	40751.07
659.17	40753.41
659.31	40222.11
659.46	41160.66
659.60	41001.50
659.74	40467.86
659.89	40191.68
660.03	40032.52
660.17	40341.47
660.32	40306.37
660.46	40540.42
660.60	39969.33
660.74	40236.15
660.89	40636.38
661.03	40013.80
661.17	40222.11
661.32	39885.07
661.46	39718.89
661.60	40325.09
661.74	39576.12
661.89	39768.04
662.03	40142.53
662.17	39405.26
662.31	39648.68
662.46	39690.80
662.60	39756.34
662.74	39026.09
662.88	39676.76
663.03	39164.18
663.17	39662.72
663.31	39255.46
663.45	39196.95
663.60	39763.36
663.74	39749.32
663.88	39267.17
664.02	38836.51
664.17	39526.97
664.31	38799.06
664.45	38705.44
664.59	38897.36
664.73	38785.02
664.88	39222.70
665.02	38740.55
665.16	38560.33
665.30	38349.68
665.44	38768.63
665.59	38366.06
665.73	38312.23
665.87	37993.92
666.01	38447.98
666.15	38567.35
666.29	38134.35
666.44	38462.02
666.58	38405.85
666.72	38171.80
666.86	38192.86
667.00	38075.84
667.14	38155.41
667.28	37801.99
667.43	37942.42
667.57	37883.91
667.71	37986.89
667.85	38071.15
667.99	37691.99
668.13	37043.66
668.27	36985.15
668.41	37378.36
668.56	36898.55
668.70	37509.43
668.84	36858.76
668.98	36931.31
669.12	36921.95
669.26	36741.73
669.40	37226.22
669.54	37020.25
669.68	37181.75
669.82	36680.88
669.96	36453.84
670.10	36287.67
670.25	36701.94
670.39	36641.09
670.53	36561.51
670.67	36566.19
670.81	37034.30
670.95	36582.57
671.09	36062.97
671.23	36304.05
671.37	36297.03
671.51	35587.85
671.65	36051.27
671.79	36011.48
671.93	36093.40
672.07	36095.74
672.21	36032.55
672.35	35632.32
672.49	35952.97
672.63	35255.49
672.77	35400.60
672.91	35548.06
673.05	35524.65
673.19	34763.98
673.33	34775.68
673.47	35281.24
673.61	34609.50
673.75	34782.70
673.89	34780.36
674.03	34377.79
674.17	34015.01
674.31	34462.05
674.45	33809.04
674.59	34637.59
674.73	34440.98
674.87	34394.17
675.01	33839.47
675.15	34003.30
675.29	33694.35
675.43	33446.26
675.56	33806.70
675.70	33516.47
675.84	33804.36
675.98	32313.44
676.12	33708.40
676.26	33771.59
676.40	33464.98
676.54	33017.94
676.68	32919.63
676.82	32767.50
676.96	32870.48
677.10	33228.59
677.23	32804.95
677.37	33071.77
677.51	32418.76
677.65	32439.82
677.79	32357.91
677.93	32067.68
678.07	32521.74
678.21	31957.67
678.34	32142.58
678.48	31559.78
678.62	31683.83
678.76	31288.28
678.90	31468.50
679.04	31192.32
679.18	31442.76
679.31	30930.18
679.45	31250.83
679.59	31110.40
679.73	31363.18
679.87	30848.26
680.00	30745.28
680.14	30391.86
680.28	30843.58
680.42	30888.05
680.56	30206.95
680.70	30391.86
680.83	30153.12
680.97	30143.76
681.11	29928.43
681.25	29757.57
681.39	29685.01
681.52	29832.47
681.66	29259.04
681.80	29317.55
681.94	28971.15
682.07	29216.91
682.21	28957.11
682.35	29137.33
682.49	28978.17
682.62	29015.62
682.76	29479.05
682.90	29312.87
683.04	28737.10
683.17	28416.44
683.31	28304.10
683.45	28301.76
683.59	27630.02
683.72	27728.33
683.86	27950.68
684.00	27852.38
684.13	28311.12
684.27	27522.36
684.41	27711.94
684.55	27440.44
684.68	27208.73
684.82	27386.61
684.96	27281.28
685.09	27330.44
685.23	27309.37
685.37	27524.70
685.50	27414.69
685.64	26789.77
685.78	26831.90
685.91	26483.16
686.05	26340.39
686.19	26064.21
686.32	26214.00
686.46	26054.84
686.60	25876.96
686.73	25914.41
686.87	25638.23
687.01	26040.80
687.14	25996.33
687.28	26115.70
687.42	25628.87
687.55	25493.12
687.69	25289.49
687.82	24886.92
687.96	25001.60
688.10	25046.07
688.23	25027.35
688.37	24915.00
688.50	25287.15
688.64	25015.65
688.78	24907.98
688.91	24442.21
689.05	24561.58
689.18	24107.52
689.32	23679.20
689.46	23873.46
689.59	24276.04
689.73	24304.12
689.86	24285.40
690.00	24067.73
690.13	23737.71
690.27	23405.36
690.41	23686.22
690.54	23510.68
690.68	23168.96
690.81	23058.96
690.95	23037.89
691.08	22916.19
691.22	22792.14
691.35	22721.92
691.49	23047.26
691.62	22888.10
691.76	22438.72
691.89	22333.39
692.03	22108.70
692.16	21909.75
692.30	21858.26
692.43	21867.63
692.57	21736.56
692.70	22033.80
692.84	22073.59
692.97	21488.46
693.11	21734.21
693.24	21530.59
693.38	21568.04
693.51	20994.61
693.65	21270.79
693.78	20968.86
693.92	20870.56
694.05	20905.66
694.19	21102.27
694.32	20903.32
694.45	20608.42
694.59	20613.10
694.72	20985.24
694.86	20496.07
694.99	20166.06
695.13	20346.28
695.26	20156.69
695.39	19782.21
695.53	19873.49
695.66	19967.11
695.80	19889.87
695.93	19950.73
696.07	19747.10
696.20	19157.28
696.33	19426.45
696.47	19309.42
696.60	18909.19
696.73	19260.27
696.87	19054.30
697.00	19129.20
697.14	18864.72
697.27	18473.85
697.40	18869.40
697.54	18766.42
697.67	18590.88
697.80	18455.12
697.94	18321.71
698.07	18480.87
698.21	18361.50
698.34	18272.56
698.47	18127.45
698.61	17734.24
698.74	17954.25
698.87	17750.62
699.01	17755.30
699.14	17659.34
699.27	17525.93
699.40	17432.31
699.54	17296.56
699.67	17216.98
699.80	17336.35
699.94	17301.24
700.07	17355.07
700.20	17003.99
700.34	16854.20
700.47	16891.65
700.60	16856.54
700.73	16966.54
700.87	16599.08
701.00	16404.81
701.13	16460.99
701.26	16248.00
701.40	16465.67
701.53	16154.38
701.66	16271.40
701.79	16285.45
701.93	15723.72
702.06	15592.65
702.19	15627.76
702.32	15749.46
702.46	15599.67
702.59	15442.85
702.72	15807.98
702.85	15957.77
702.99	15552.86
703.12	15302.42
703.25	15169.01
703.38	14925.60
703.51	14984.11
703.65	15061.35
703.78	14803.89
703.91	14717.29
704.04	14649.41
704.17	14651.75
704.31	14321.74
704.44	14665.80
704.57	14558.13
704.70	14457.49
704.83	14237.48
704.96	14010.45
705.10	14064.28
705.23	14146.20
>>>>>End Processed Spectral Data<<<<<
