SpectraSuite Data File
++++++++++++++++++++++++++++++++++++
Date: Fri Oct 25 10:48:34 EDT 2013
User: price-jones
Dark Spectrum Present: No
Reference Spectrum Present: No
Number of Sampled Component Spectra: 1
Spectrometers: USB2+H05261
Integration Time (usec): 100000 (USB2+H05261)
Spectra Averaged: 1 (USB2+H05261)
Boxcar Smoothing: 0 (USB2+H05261)
Correct for Electrical Dark: No (USB2+H05261)
Strobe/Lamp Enabled: No (USB2+H05261)
Correct for Detector Non-linearity: No (USB2+H05261)
Correct for Stray Light: No (USB2+H05261)
Number of Pixels in Processed Spectrum: 2048
>>>>>Begin Processed Spectral Data<<<<<
365.73	154.48
365.92	154.48
366.12	154.48
366.32	39.79
366.52	0.00
366.72	18.72
366.91	35.11
367.11	21.06
367.31	81.92
367.51	60.85
367.70	67.88
367.90	9.36
368.10	30.43
368.30	53.83
368.49	95.96
368.69	44.47
368.89	74.90
369.09	110.01
369.28	35.11
369.48	105.32
369.68	98.30
369.87	124.05
370.07	67.88
370.27	84.26
370.47	208.31
370.66	379.17
370.86	489.17
371.06	472.79
371.25	479.81
371.45	449.38
371.65	496.19
371.84	465.77
372.04	514.92
372.24	461.09
372.44	484.49
372.63	496.19
372.83	510.24
373.03	573.43
373.22	559.39
373.42	543.00
373.62	568.75
373.81	596.84
374.01	585.13
374.21	594.50
374.40	578.11
374.60	601.52
374.79	641.31
374.99	615.56
375.19	557.05
375.38	636.63
375.58	655.35
375.78	613.22
375.97	674.07
376.17	751.31
376.37	657.69
376.56	610.88
376.76	561.73
376.95	641.31
377.15	706.84
377.35	699.82
377.54	660.03
377.74	699.82
377.93	767.70
378.13	727.91
378.33	711.52
378.52	695.14
378.72	683.44
378.91	765.36
379.11	671.73
379.31	573.43
379.50	631.94
379.70	725.57
379.89	718.54
380.09	716.20
380.28	744.29
380.48	758.33
380.68	709.18
380.87	772.38
381.07	777.06
381.26	758.33
381.46	739.61
381.65	772.38
381.85	716.20
382.04	746.63
382.24	746.63
382.43	751.31
382.63	711.52
382.83	777.06
383.02	730.25
383.22	763.01
383.41	765.36
383.61	809.83
383.80	884.72
384.00	777.06
384.19	816.85
384.39	866.00
384.58	805.14
384.78	868.34
384.97	936.21
385.17	905.79
385.36	816.85
385.56	809.83
385.75	866.00
385.95	812.17
386.14	910.47
386.34	809.83
386.53	891.74
386.72	882.38
386.92	933.87
387.11	945.58
387.31	854.30
387.50	929.19
387.70	919.83
387.89	985.37
388.09	905.79
388.28	938.55
388.48	926.85
388.67	987.71
388.86	997.07
389.06	968.98
389.25	1060.26
389.45	1013.45
389.64	1039.20
389.84	1074.31
390.03	1071.97
390.22	1090.69
390.42	1025.15
390.61	1039.20
390.81	1114.10
391.00	1057.92
391.19	1109.41
391.39	1139.84
391.58	1144.52
391.78	1083.67
391.97	1163.25
392.16	1074.31
392.36	1020.47
392.55	1114.10
392.75	1036.86
392.94	1064.94
393.13	1074.31
393.33	1118.78
393.52	1074.31
393.71	1165.59
393.91	1135.16
394.10	1163.25
394.29	1198.35
394.49	1245.16
394.68	1252.19
394.88	1310.70
395.07	1219.42
395.26	1270.91
395.46	1231.12
395.65	1306.02
395.84	1315.38
396.04	1268.57
396.23	1170.27
396.42	1249.85
396.62	1275.59
396.81	1193.67
397.00	1277.93
397.19	1371.55
397.39	1336.45
397.58	1425.39
397.77	1514.33
397.97	1434.75
398.16	1479.22
398.35	1495.60
398.55	1469.86
398.74	1511.99
398.93	1614.97
399.12	1619.65
399.32	1614.97
399.51	1643.06
399.70	1682.85
399.90	1666.46
400.09	1619.65
400.28	1675.82
400.47	1645.40
400.67	1720.29
400.86	1727.32
401.05	1788.17
401.24	1746.04
401.44	1778.81
401.63	1743.70
401.82	1834.98
402.01	1776.47
402.21	1804.55
402.40	1858.39
402.59	1804.55
402.78	1860.73
402.97	1755.40
403.17	1844.34
403.36	1975.41
403.55	1839.66
403.74	1942.64
403.93	2003.50
404.13	1963.71
404.32	1933.28
404.51	1818.60
404.70	2029.24
404.89	1994.14
405.09	2066.69
405.28	2078.40
405.47	2052.65
405.66	2019.88
405.85	2019.88
406.05	2085.42
406.24	1944.99
406.43	2087.76
406.62	2188.40
406.81	2176.70
407.00	2108.82
407.20	2083.08
407.39	2165.00
407.58	2275.00
407.77	2277.34
407.96	2207.13
408.15	2317.13
408.34	2359.26
408.54	2452.88
408.73	2277.34
408.92	2424.80
409.11	2359.26
409.30	2429.48
409.49	2324.15
409.68	2321.81
409.87	2321.81
410.07	2462.24
410.26	2471.61
410.45	2399.05
410.64	2558.21
410.83	2656.51
411.02	2546.50
411.21	2635.44
411.40	2572.25
411.59	2581.61
411.78	2647.15
411.98	2715.02
412.17	2761.83
412.36	2677.57
412.55	2780.56
412.74	2909.29
412.93	2796.94
413.12	2864.82
413.31	2953.76
413.50	2850.77
413.69	2977.16
413.88	3045.04
414.07	3019.29
414.26	3087.17
414.45	3131.64
414.64	3115.25
414.83	3105.89
415.02	3021.63
415.22	3169.09
415.41	3232.28
415.60	3150.36
415.79	3321.22
415.98	3281.43
416.17	3417.18
416.36	3365.69
416.55	3375.05
416.74	3311.86
416.93	3447.61
417.12	3356.33
417.31	3508.46
417.50	3405.48
417.69	3543.57
417.88	3616.13
418.07	3651.24
418.26	3487.40
418.45	3613.79
418.64	3925.08
418.83	3695.71
419.02	3669.96
419.21	3789.33
419.39	3613.79
419.58	3599.74
419.77	3599.74
419.96	3723.79
420.15	3875.93
420.34	3784.65
420.53	3904.01
420.72	4002.32
420.91	4081.89
421.10	3955.51
421.29	3955.51
421.48	3826.78
421.67	3948.48
421.86	3899.33
422.05	3943.80
422.24	3943.80
422.43	3962.53
422.61	3948.48
422.80	4049.13
422.99	3955.51
423.18	4156.79
423.37	4131.05
423.56	4079.55
423.75	4065.51
423.94	4021.04
424.13	3852.52
424.32	3845.50
424.50	4124.02
424.69	4133.39
424.88	4196.58
425.07	4091.26
425.26	4014.02
425.45	4037.42
425.64	4023.38
425.83	3922.74
426.01	4081.89
426.20	4093.60
426.39	4140.41
426.58	4170.83
426.77	4046.79
426.96	4257.43
427.15	4086.58
427.33	4329.99
427.52	4177.86
427.71	4196.58
427.90	4145.09
428.09	4306.59
428.28	4320.63
428.46	4241.05
428.65	4140.41
428.84	4407.23
429.03	4325.31
429.22	4205.94
429.40	4301.90
429.59	4327.65
429.78	4168.49
429.97	4112.32
430.16	4124.02
430.34	4222.33
430.53	4304.25
430.72	4264.46
430.91	4344.03
431.10	4496.17
431.28	4645.96
431.47	4741.93
431.66	4690.43
431.85	4685.75
432.03	4772.35
432.22	4924.49
432.41	4683.41
432.60	4816.82
432.79	4858.95
432.97	4971.30
433.16	4873.00
433.35	4901.08
433.54	4805.12
433.72	4844.91
433.91	4868.31
434.10	4854.27
434.28	4863.63
434.47	5036.83
434.66	5039.17
434.85	5076.62
435.03	5114.07
435.22	5195.99
435.41	5348.12
435.59	5132.79
435.78	5219.39
435.97	5310.68
436.16	5404.30
436.34	5476.85
436.53	5472.17
436.72	5404.30
436.90	5355.15
437.09	5373.87
437.28	5284.93
437.46	5287.27
437.65	5404.30
437.84	5390.25
438.02	5392.59
438.21	5493.24
438.40	5364.51
438.58	5724.95
438.77	5584.52
438.96	5591.54
439.14	5795.17
439.33	5781.12
439.52	5804.53
439.70	5998.79
439.89	5970.71
440.08	5923.90
440.26	5851.34
440.45	5841.98
440.63	6099.44
440.82	6200.08
441.01	6209.44
441.19	6033.90
441.38	6361.58
441.57	6232.85
441.75	6436.47
441.94	6494.99
442.12	6520.73
442.31	6745.42
442.50	6403.71
442.68	6370.94
442.87	6567.54
443.05	6658.82
443.24	6682.23
443.43	6628.40
443.61	6675.21
443.80	6862.45
443.98	6406.05
444.17	6530.09
444.35	6761.81
444.54	6911.60
444.73	6803.94
444.91	6726.70
445.10	6665.85
445.28	6722.02
445.47	6740.74
445.65	6672.87
445.84	6642.44
446.02	6817.98
446.21	6789.89
446.39	6752.45
446.58	6862.45
446.77	6991.18
446.95	6808.62
447.14	7119.91
447.32	7059.06
447.51	7016.93
447.69	6913.94
447.88	6916.28
448.06	7002.88
448.25	7033.31
448.43	6869.47
448.62	6920.96
448.80	7000.54
448.99	7115.23
449.17	7281.41
449.36	7110.55
449.54	7215.87
449.73	7281.41
449.91	7274.38
450.10	7384.39
450.28	7499.08
450.46	7475.67
450.65	7372.69
450.83	7529.50
451.02	7447.58
451.20	7620.78
451.39	7590.36
451.57	7557.59
451.76	7412.48
451.94	7461.63
452.13	7543.55
452.31	7524.82
452.49	7421.84
452.68	7419.50
452.86	7358.64
453.05	7470.99
453.23	7531.84
453.42	7403.11
453.60	7487.37
453.78	7712.07
453.97	7473.33
454.15	7726.11
454.34	7658.23
454.52	7840.79
454.70	7721.43
454.89	7817.39
455.07	7655.89
455.26	7801.01
455.44	7946.12
455.62	7969.52
455.81	8133.36
455.99	8056.12
456.17	7978.89
456.36	8114.64
456.54	8210.60
456.73	8189.53
456.91	8238.69
457.09	8477.42
457.28	8636.58
457.46	8140.38
457.64	8631.90
457.83	8517.21
458.01	8187.19
458.19	8528.91
458.38	8376.78
458.56	8648.28
458.74	8732.54
458.93	8442.31
459.11	8564.02
459.29	8709.13
459.48	8690.41
459.66	8622.53
459.84	8636.58
460.03	8762.97
460.21	8912.76
460.39	8692.75
460.57	9060.21
460.76	8844.88
460.94	8954.89
461.12	8865.95
461.31	9053.19
461.49	8987.66
461.67	9034.47
461.85	9109.36
462.04	8987.66
462.22	9596.20
462.40	9076.60
462.59	9128.09
462.77	9394.91
462.95	9287.25
463.13	9280.22
463.32	9380.87
463.50	9268.52
463.68	9261.50
463.86	9350.44
464.05	9202.99
464.23	9172.56
464.41	9448.74
464.59	9114.05
464.78	9600.88
464.96	9320.01
465.14	9376.19
465.32	9504.92
465.50	9511.94
465.69	9600.88
465.87	9558.75
466.05	9530.66
466.23	9359.80
466.41	9397.25
466.60	9696.84
466.78	9390.23
466.96	9619.60
467.14	9511.94
467.32	9760.03
467.51	9874.72
467.69	9502.58
467.87	9724.93
468.05	9614.92
468.23	9776.42
468.41	9774.08
468.60	9888.76
468.78	9958.98
468.96	9916.85
469.14	9944.94
469.32	10174.31
469.50	9921.53
469.69	10181.33
469.87	10059.62
470.05	10066.64
470.23	10221.12
470.41	10148.56
470.59	10420.06
470.77	10146.22
470.95	10155.58
471.14	10457.51
471.32	10415.38
471.50	10593.26
471.68	10595.61
471.86	10719.65
472.04	10782.85
472.22	11009.88
472.40	10586.24
472.58	10839.02
472.77	10995.84
472.95	10944.34
473.13	11311.81
473.31	10677.52
473.49	10934.98
473.67	10981.79
473.85	10836.68
474.03	11506.07
474.21	11683.95
474.39	11311.81
474.57	11325.85
474.75	11625.44
474.93	11503.73
475.12	11407.77
475.30	11705.02
475.48	11845.45
475.66	11761.19
475.84	11669.91
476.02	11810.34
476.20	11786.94
476.38	12119.29
476.56	12140.36
476.74	12280.79
476.92	12308.88
477.10	12329.94
477.28	12578.04
477.46	12461.01
477.64	12765.28
477.82	12762.94
478.00	13053.17
478.18	12748.90
478.36	13102.32
478.54	13322.33
478.72	12901.03
478.90	13247.43
479.08	13383.18
479.26	13685.11
479.44	13582.13
479.62	13593.83
479.80	13778.73
479.98	13996.40
480.16	13853.63
480.34	14005.77
480.52	14080.66
480.70	14178.97
480.88	14127.47
481.06	14347.48
481.24	14319.40
481.41	14651.75
481.59	15012.20
481.77	14960.70
481.95	14665.80
482.13	15229.87
482.31	15056.67
482.49	15461.58
482.67	15468.60
482.85	15487.32
483.03	15599.67
483.21	15815.00
483.39	16020.97
483.57	15946.07
483.74	16116.93
483.92	16095.86
484.10	16037.35
484.28	16669.30
484.46	16479.71
484.64	16734.83
484.82	16802.71
485.00	16706.74
485.18	16863.56
485.35	16734.83
485.53	16723.13
485.71	16774.62
485.89	16940.80
486.07	16912.71
486.25	17668.70
486.43	17170.17
486.61	17745.94
486.78	17783.39
486.96	17970.63
487.14	18207.03
487.32	18265.54
487.50	18628.32
487.68	18754.71
487.85	19000.47
488.03	19005.15
488.21	19225.16
488.39	19061.32
488.57	19330.48
488.75	19426.45
488.92	19646.46
489.10	20210.53
489.28	19927.32
489.46	20645.87
489.64	20517.14
489.81	20819.07
489.99	20767.57
490.17	20814.38
490.35	21032.05
490.53	21090.57
490.70	21322.28
490.88	21050.78
491.06	21532.93
491.24	21502.50
491.41	21429.94
491.59	21362.07
491.77	21425.26
491.95	21509.52
492.13	21848.90
492.30	22164.87
492.48	22647.02
492.66	22532.34
492.84	22434.03
493.01	22869.37
493.19	22845.97
493.37	23070.66
493.54	23236.84
493.72	23190.03
493.90	23452.17
494.08	23332.80
494.25	23892.19
494.43	23950.70
494.61	23985.81
494.79	23985.81
494.96	24343.91
495.14	24299.44
495.32	24205.82
495.49	24147.31
495.67	24680.95
495.85	24940.75
496.02	24940.75
496.20	25106.93
496.38	25111.61
496.55	25523.54
496.73	25621.84
496.91	25504.82
497.09	25851.22
497.26	26153.15
497.44	25792.70
497.62	25755.26
497.79	26356.77
497.97	26026.76
498.14	26209.32
498.32	26668.06
498.50	26864.67
498.67	26651.68
498.85	26719.56
499.03	27171.28
499.20	27199.37
499.38	26962.97
499.56	27264.90
499.73	27269.58
499.91	27449.80
500.08	27484.91
500.26	27056.59
500.44	27496.61
500.61	27819.61
500.79	27688.54
500.97	27482.57
501.14	27981.10
501.32	28032.60
501.49	27922.59
501.67	28044.30
501.84	28334.53
502.02	28610.71
502.20	28692.63
502.37	28730.08
502.55	28716.03
502.72	28924.34
502.90	28938.38
503.07	28896.25
503.25	28973.49
503.43	28786.25
503.60	28779.23
503.78	29240.31
503.95	29123.29
504.13	29422.87
504.30	29572.67
504.48	29645.23
504.65	29914.39
504.83	30169.51
505.01	30188.23
505.18	30256.11
505.36	30113.33
505.53	30288.87
505.71	30829.54
505.88	30946.56
506.06	30331.00
506.23	30384.83
506.41	30654.00
506.58	30625.91
506.76	30878.69
506.93	31068.27
507.11	30469.09
507.28	30824.86
507.46	30822.51
507.63	31108.06
507.81	31159.55
507.98	31189.98
508.16	31201.68
508.33	31545.74
508.50	31489.57
508.68	31594.89
508.85	32257.26
509.03	32170.66
509.20	32252.58
509.38	31988.10
509.55	32390.67
509.73	32119.17
509.90	32519.40
510.08	32287.69
510.25	32254.92
510.42	32634.09
510.60	32950.06
510.77	32617.71
510.95	32818.99
511.12	33006.23
511.30	32624.73
511.47	33464.98
511.64	33376.04
511.82	33106.88
511.99	33289.44
512.17	33219.22
512.34	33186.46
512.51	33373.70
512.69	33773.93
512.86	33766.91
513.04	33862.87
513.21	34024.37
513.38	33766.91
513.56	33830.10
513.73	33633.50
513.90	34029.05
514.08	34251.40
514.25	34389.49
514.43	34323.96
514.60	34497.16
514.77	34773.34
514.95	34981.65
515.12	33991.60
515.29	34700.78
515.47	35054.20
515.64	35466.14
515.81	34642.27
515.99	34859.94
516.16	34651.63
516.33	34691.42
516.51	34689.08
516.68	34270.12
516.85	34017.35
517.03	34782.70
517.20	34962.92
517.37	35290.60
517.54	35496.56
517.72	35648.70
517.89	35309.32
518.06	35035.48
518.24	35166.55
518.41	35068.25
518.58	35402.94
518.75	35534.01
518.93	36009.14
519.10	35632.32
519.27	36355.54
519.45	36163.62
519.62	36306.39
519.79	36591.94
519.96	36119.15
520.14	36924.29
520.31	36290.01
520.48	36465.55
520.65	36591.94
520.83	36636.41
521.00	36879.82
521.17	36718.32
521.34	37127.92
521.52	37003.87
521.69	37041.32
521.86	37429.85
522.03	37280.05
522.20	37305.80
522.38	37474.32
522.55	37701.35
522.72	37675.60
522.89	37514.11
523.07	37907.32
523.24	37270.69
523.41	37940.08
523.58	38148.39
523.75	38588.41
523.92	37947.11
524.10	38124.99
524.27	38408.19
524.44	38998.01
524.61	38398.83
524.78	38878.64
524.96	38689.06
525.13	38862.26
525.30	39225.04
525.47	38789.70
525.64	38211.59
525.81	38696.08
525.98	38775.66
526.16	38323.93
526.33	38337.98
526.50	38719.48
526.67	38113.28
526.84	38490.11
527.01	38305.21
527.18	38653.95
527.36	39145.46
527.53	39538.67
527.70	39995.07
527.87	39936.56
528.04	39798.47
528.21	39622.93
528.38	39950.60
528.55	40184.66
528.72	40470.20
528.89	40301.68
529.07	40418.71
529.24	40123.80
529.41	39873.37
529.58	39828.90
529.75	39995.07
529.92	40051.25
530.09	40006.78
530.26	40273.60
530.43	40268.92
530.60	39990.39
530.77	40271.26
530.94	40708.94
531.11	40584.89
531.28	40875.12
531.46	40886.82
531.63	41116.19
531.80	40708.94
531.97	40947.67
532.14	40580.21
532.31	40191.68
532.48	40807.24
532.65	41001.50
532.82	41020.23
532.99	40849.37
533.16	40605.95
533.33	41375.99
533.50	41378.33
533.67	41294.07
533.84	40608.29
534.01	41170.02
534.18	41216.83
534.35	41642.81
534.52	41165.34
534.69	41476.63
534.86	41661.54
535.03	41097.47
535.20	42040.70
535.37	42309.86
535.54	42141.35
535.71	41738.77
535.88	41902.61
536.05	42036.02
536.22	42188.16
536.38	41865.16
536.55	42120.28
536.72	41766.86
536.89	41830.05
537.06	42272.42
537.23	42742.86
537.40	42153.05
537.57	42096.88
537.74	42483.06
537.91	42583.71
538.08	42593.07
538.25	42316.89
538.42	42300.50
538.59	42745.20
538.75	42494.77
538.92	42522.85
539.09	42302.84
539.26	42253.69
539.43	42567.32
539.60	42504.13
539.77	42204.54
539.94	42499.45
540.11	42401.14
540.28	42637.54
540.44	42560.30
540.61	42749.88
540.78	42644.56
540.95	42887.98
541.12	42780.31
541.29	42464.34
541.46	42855.21
541.62	42897.34
541.79	43227.35
541.96	43084.58
542.13	43463.75
542.30	43445.02
542.47	43068.20
542.63	43122.03
542.80	43082.24
542.97	43878.02
543.14	43810.15
543.31	43613.54
543.48	43999.73
543.64	44399.96
543.81	44030.16
543.98	43999.73
544.15	44072.29
544.32	44109.74
544.48	44402.30
544.65	44114.42
544.82	43948.24
544.99	43894.41
545.16	43803.13
545.32	44350.81
545.49	44416.35
545.66	44524.01
545.83	44903.18
546.00	44509.97
546.16	44664.44
546.33	44058.24
546.50	44002.07
546.67	44268.89
546.83	43882.70
547.00	44313.36
547.17	44554.44
547.34	43910.79
547.50	44304.00
547.67	44629.34
547.84	44760.40
548.00	44772.11
548.17	45233.19
548.34	44704.23
548.51	44601.25
548.67	45001.48
548.84	45095.10
549.01	44697.21
549.18	44982.76
549.34	45027.23
549.51	45244.90
549.68	45240.21
549.84	45137.23
550.01	45460.23
550.18	44975.73
550.34	45406.39
550.51	45448.52
550.68	44715.93
550.84	44835.30
551.01	45151.27
551.18	45003.82
551.34	45659.17
551.51	45343.20
551.68	45528.10
551.84	45406.39
552.01	45514.06
552.18	45537.46
552.34	45605.34
552.51	45485.97
552.68	45347.88
552.84	45844.07
553.01	45675.55
553.18	45595.98
553.34	45181.70
553.51	45818.33
553.67	46183.45
553.84	45815.99
554.01	45858.12
554.17	46328.56
554.34	45972.80
554.51	45722.37
554.67	46225.58
554.84	45965.78
555.00	45378.31
555.17	45668.53
555.33	45834.71
555.50	45839.39
555.67	46068.76
555.83	45834.71
556.00	45832.37
556.16	46232.60
556.33	45759.81
556.50	46050.04
556.66	45872.16
556.83	45778.54
556.99	46089.83
557.16	46450.27
557.32	46129.62
557.49	46461.97
557.65	46319.20
557.82	45977.48
557.98	46061.74
558.15	46347.29
558.32	45918.97
558.48	46204.52
558.65	46005.57
558.81	46368.35
558.98	46204.52
559.14	46204.52
559.31	46450.27
559.47	46312.18
559.64	46351.97
559.80	46597.73
559.97	46679.64
560.13	46052.38
560.30	46719.43
560.46	46522.83
560.63	46796.67
560.79	46948.81
560.96	46703.05
561.12	46728.80
561.29	46277.07
561.45	46679.64
561.61	46555.60
561.78	46728.80
561.94	46459.63
562.11	46801.35
562.27	46618.79
562.44	46590.70
562.60	47028.38
562.77	47187.54
562.93	46808.37
563.10	47000.30
563.26	46508.79
563.42	46993.28
563.59	46293.46
563.75	46546.23
563.92	46913.70
564.08	46714.75
564.24	46871.57
564.41	47248.39
564.57	46670.28
564.74	46728.80
564.90	46712.41
565.07	46916.04
565.23	46611.77
565.39	46822.42
565.56	46845.82
565.72	46902.00
565.88	47079.88
566.05	46628.15
566.21	46644.54
566.38	46649.22
566.54	46834.12
566.70	47264.78
566.87	47421.59
567.03	47063.49
567.19	47459.04
567.36	47000.30
567.52	47185.20
567.68	47737.57
567.85	46471.34
568.01	46857.52
568.17	47096.26
568.34	47159.45
568.50	46756.88
568.66	47077.54
568.83	47227.33
568.99	46902.00
569.15	46916.04
569.32	46923.06
569.48	47004.98
569.64	47199.24
569.81	47189.88
569.97	46911.36
570.13	46932.42
570.30	46679.64
570.46	46848.16
570.62	46511.13
570.78	46672.62
570.95	46609.43
571.11	47117.32
571.27	46845.82
571.43	47295.21
571.60	47363.08
571.76	47112.64
571.92	47311.59
572.09	46803.69
572.25	47445.00
572.41	46960.51
572.57	47232.01
572.74	47707.14
572.90	47217.97
573.06	47320.95
573.22	47391.17
573.38	47208.61
573.55	47241.37
573.71	47210.95
573.87	47351.38
574.03	47152.43
574.20	47234.35
574.36	47236.69
574.52	47278.82
574.68	47093.92
574.84	47423.93
575.01	47257.76
575.17	47236.69
575.33	47316.27
575.49	47482.45
575.65	47224.99
575.82	47613.52
575.98	47311.59
576.14	47236.69
576.30	47388.83
576.46	47606.50
576.62	46766.24
576.79	47285.84
576.95	46969.87
577.11	46852.84
577.27	47772.67
577.43	47632.24
577.59	47044.77
577.75	47173.50
577.92	46813.05
578.08	46990.94
578.24	46665.60
578.40	47002.64
578.56	47356.06
578.72	46597.73
578.88	47330.31
579.04	47358.40
579.21	47260.10
579.37	47276.48
579.53	47199.24
579.69	47356.06
579.85	47306.91
580.01	47576.07
580.17	47227.33
580.33	47091.58
580.49	47201.58
580.65	47334.99
580.82	47756.29
580.98	47262.44
581.14	46784.97
581.30	47503.51
581.46	47292.86
581.62	47601.82
581.78	47435.64
581.94	47770.33
582.10	47461.38
582.26	47695.44
582.42	47126.69
582.58	47435.64
582.74	47159.45
582.90	47770.33
583.06	47627.56
583.22	47999.71
583.38	47641.60
583.54	47337.33
583.70	47213.29
583.86	47587.77
584.02	47014.34
584.18	47679.05
584.34	47131.37
584.50	47625.22
584.66	47267.12
584.82	46689.01
584.98	47627.56
585.14	46997.96
585.30	47196.90
585.46	47543.30
585.62	47051.79
585.78	47290.52
585.94	47033.07
586.10	46930.08
586.26	47243.71
586.42	47400.53
586.58	47508.19
586.74	47330.31
586.90	47459.04
587.06	47634.58
587.22	47545.64
587.38	46960.51
587.54	47360.74
587.70	47318.61
587.86	47056.47
588.02	47262.44
588.18	47330.31
588.34	47194.56
588.49	46419.84
588.65	46899.65
588.81	46909.02
588.97	47065.83
589.13	46576.66
589.29	47229.67
589.45	46986.25
589.61	47283.50
589.77	47765.65
589.93	47182.86
590.08	47901.40
590.24	47365.42
590.40	47510.53
590.56	47723.52
590.72	47552.66
590.88	47665.01
591.04	47686.07
591.20	47831.19
591.35	47901.40
591.51	48076.94
591.67	47494.15
591.83	47454.36
591.99	46897.31
592.15	47047.11
592.31	47519.90
592.46	47569.05
592.62	47494.15
592.78	47381.80
592.94	47604.16
593.10	47632.24
593.26	47395.85
593.41	47590.11
593.57	47655.65
593.73	47299.89
593.89	47426.28
594.05	47470.75
594.20	47304.57
594.36	47618.20
594.52	47358.40
594.68	47784.38
594.84	47433.30
594.99	47597.13
595.15	47189.88
595.31	47732.89
595.47	47625.22
595.62	47978.64
595.78	47477.77
595.94	47599.47
596.10	48023.11
596.25	47957.58
596.41	47571.39
596.57	47564.37
596.73	47555.00
596.88	47199.24
597.04	47370.10
597.20	47707.14
597.36	47374.78
597.51	47526.92
597.67	47599.47
597.83	47402.87
597.99	47608.84
598.14	47742.25
598.30	47487.13
598.46	47531.60
598.61	47379.46
598.77	47320.95
598.93	47473.09
599.09	47372.44
599.24	47540.96
599.40	47992.68
599.56	47672.03
599.71	47863.96
599.87	47763.31
600.03	47540.96
600.18	47667.35
600.34	47611.18
600.50	47302.23
600.65	47386.49
600.81	47650.97
600.97	47711.82
601.12	48100.35
601.28	48083.97
601.44	47466.06
601.59	47426.28
601.75	47339.68
601.91	47686.07
602.06	47274.14
602.22	47168.82
602.37	47262.44
602.53	47538.62
602.69	47807.78
602.84	47657.99
603.00	47592.45
603.16	47566.71
603.31	47365.42
603.47	47271.80
603.62	47363.08
603.78	47636.92
603.94	47648.63
604.09	47903.74
604.25	47882.68
604.40	47599.47
604.56	47723.52
604.71	48072.26
604.87	47709.48
605.03	47346.70
605.18	47033.07
605.34	47454.36
605.49	46974.55
605.65	47407.55
605.80	46988.60
605.96	47337.33
606.12	47501.17
606.27	47459.04
606.43	47105.62
606.58	47695.44
606.74	47311.59
606.89	47206.26
607.05	46960.51
607.20	47220.31
607.36	47278.82
607.51	47735.23
607.67	47030.72
607.82	47173.50
607.98	47295.21
608.13	47407.55
608.29	47077.54
608.44	47215.63
608.60	46967.53
608.75	47178.18
608.91	46820.08
609.06	46665.60
609.22	47475.43
609.37	46918.38
609.53	47084.56
609.68	46979.23
609.84	47068.17
609.99	46808.37
610.15	47110.30
610.30	46576.66
610.46	46791.99
610.61	46817.74
610.76	46944.12
610.92	47199.24
611.07	46887.95
611.23	46866.89
611.38	47061.15
611.54	46492.40
611.69	46433.89
611.84	46693.69
612.00	46515.81
612.15	46775.61
612.31	46401.12
612.46	46794.33
612.62	47145.41
612.77	46883.27
612.92	47040.09
613.08	46707.73
613.23	46637.51
613.39	46138.98
613.54	46073.45
613.69	46478.36
613.85	46541.55
614.00	46550.91
614.15	46604.75
614.31	46408.14
614.46	46621.13
614.62	46366.01
614.77	46309.84
614.92	46174.09
615.08	46300.48
615.23	46501.76
615.38	46160.05
615.54	45773.86
615.69	46003.23
615.84	46075.79
616.00	46211.54
616.15	45752.79
616.30	46087.49
616.46	45918.97
616.61	46040.68
616.76	46232.60
616.92	45813.65
617.07	45881.52
617.22	45661.51
617.37	45837.05
617.53	46146.00
617.68	46176.43
617.83	46244.30
617.99	45961.10
618.14	46064.08
618.29	45783.22
618.45	45914.29
618.60	45708.32
618.75	45247.24
618.90	45806.62
619.06	45638.11
619.21	45439.16
619.36	46033.66
619.51	45691.94
619.67	45574.91
619.82	46155.36
619.97	45647.47
620.12	45558.53
620.28	44755.72
620.43	45551.51
620.58	45481.29
620.73	45230.85
620.89	45277.66
621.04	45485.97
621.19	45294.05
621.34	45446.18
621.49	45144.25
621.65	45090.42
621.80	45647.47
621.95	45544.48
622.10	45003.82
622.25	44875.09
622.41	45319.79
622.56	44575.50
622.71	45050.63
622.86	45090.42
623.01	44816.58
623.16	45134.89
623.32	45071.70
623.47	45546.82
623.62	44872.75
623.77	45090.42
623.92	45144.25
624.07	44587.21
624.23	44828.28
624.38	44788.49
624.53	44470.18
624.68	44708.91
624.83	44875.09
624.98	44282.94
625.13	44456.14
625.29	44477.20
625.44	44432.73
625.59	44196.34
625.74	44226.76
625.89	43861.64
626.04	44215.06
626.19	44229.10
626.34	44360.17
626.49	44032.50
626.65	44591.89
626.80	44781.47
626.95	44226.76
627.10	43976.33
627.25	44053.56
627.40	44119.10
627.55	43606.52
627.70	43241.40
627.85	43702.48
628.00	44011.43
628.15	43959.94
628.30	43915.47
628.45	44418.69
628.60	44163.57
628.76	43768.02
628.91	44058.24
629.06	44205.70
629.21	43452.05
629.36	43512.90
629.51	43210.97
629.66	43463.75
629.81	43164.16
629.96	43208.63
630.11	43342.04
630.26	43878.02
630.41	43873.34
630.56	43468.43
630.71	43285.87
630.86	43285.87
631.01	43100.97
631.16	43524.60
631.31	42658.60
631.46	42749.88
631.61	43079.90
631.76	43267.14
631.91	43222.67
632.06	43194.59
632.21	43381.83
632.36	43152.46
632.51	43292.89
632.66	43164.16
632.81	43346.72
632.96	43466.09
633.10	42969.90
633.25	42834.14
633.40	43042.45
633.55	43194.59
633.70	43054.15
633.85	43061.18
634.00	42918.40
634.15	43372.47
634.30	42878.61
634.45	43028.41
634.60	43363.11
634.75	42946.49
634.90	42887.98
635.05	42927.77
635.19	42913.72
635.34	42946.49
635.49	42815.42
635.64	42745.20
635.79	42909.04
635.94	42110.92
636.09	42148.37
636.24	42784.99
636.39	42691.37
636.53	42305.18
636.68	42380.08
636.83	42464.34
636.98	42323.91
637.13	42256.03
637.28	42635.20
637.43	42714.78
637.57	42155.39
637.72	42323.91
637.87	42359.02
638.02	41551.53
638.17	42471.36
638.32	42160.07
638.46	42373.06
638.61	41579.62
638.76	41888.57
638.91	41837.08
639.06	41975.17
639.20	42234.97
639.35	41780.90
639.50	42256.03
639.65	42440.93
639.80	42029.00
639.94	41956.44
640.09	41993.89
640.24	41717.71
640.39	41984.53
640.54	41937.72
640.68	41500.04
640.83	41450.89
640.98	41249.60
641.13	41357.27
641.27	42211.56
641.42	41914.31
641.57	41586.64
641.72	41518.76
641.86	41394.71
642.01	41186.41
642.16	41350.24
642.31	40727.66
642.45	41649.83
642.60	40954.69
642.75	41125.55
642.90	41207.47
643.04	41701.32
643.19	41235.56
643.34	41308.11
643.48	41205.13
643.63	41289.39
643.78	41104.49
643.93	40737.02
644.07	41254.28
644.22	40821.28
644.37	40964.06
644.51	40479.57
644.66	40861.07
644.81	40952.35
644.95	40917.25
645.10	41371.31
645.25	41069.38
645.39	41088.10
645.54	40638.72
645.69	40858.73
645.83	40580.21
645.98	40694.89
646.13	40369.56
646.27	41013.21
646.42	40610.64
646.57	40755.75
646.71	40580.21
646.86	40416.37
647.00	40605.95
647.15	40659.79
647.30	40477.22
647.44	40521.69
647.59	40264.24
647.74	40254.87
647.88	40058.27
648.03	40046.57
648.17	40385.94
648.32	40105.08
648.47	39871.03
648.61	40098.06
648.76	40252.53
648.90	39962.31
649.05	40430.41
649.20	40168.27
649.34	40332.11
649.49	39955.29
649.63	40198.70
649.78	39859.32
649.92	39737.62
650.07	40289.98
650.21	39871.03
650.36	40053.59
650.51	39744.64
650.65	40156.57
650.80	39856.98
650.94	39887.41
651.09	39793.79
651.23	40203.38
651.38	40402.33
651.52	39526.97
651.67	39531.65
651.81	39824.22
651.96	39545.69
652.10	39838.26
652.25	39473.13
652.39	39005.03
652.54	39482.50
652.68	40018.48
652.83	39501.22
652.97	39899.11
653.12	39821.87
653.26	39784.43
653.41	39615.91
653.55	39154.82
653.70	39182.91
653.84	38988.64
653.99	39030.77
654.13	39089.29
654.27	39070.56
654.42	39185.25
654.56	39278.87
654.71	39119.71
654.85	39206.31
655.00	39054.18
655.14	39072.90
655.29	38831.83
655.43	38967.58
655.57	38845.87
655.72	38314.57
655.86	38316.91
656.01	38429.26
656.15	38195.20
656.30	38712.46
656.44	38490.11
656.58	37970.51
656.73	38527.56
656.87	38373.08
657.01	38518.20
657.16	38375.42
657.30	38139.03
657.45	38665.65
657.59	38080.52
657.73	38101.58
657.88	38342.66
658.02	38363.72
658.16	38403.51
658.31	38600.12
658.45	38567.35
658.60	38038.39
658.74	38319.25
658.88	38302.87
659.03	38141.37
659.17	37804.33
659.31	37949.45
659.46	37766.88
659.60	37972.85
659.74	38036.05
659.89	37504.74
660.03	37518.79
660.17	37837.10
660.32	37902.64
660.46	38007.96
660.60	37893.27
660.74	37642.84
660.89	37764.54
661.03	37170.05
661.17	37691.99
661.32	37102.17
661.46	37226.22
661.60	37516.45
661.74	37088.13
661.89	37200.47
662.03	37263.67
662.17	37212.18
662.31	37226.22
662.46	37137.28
662.60	36879.82
662.74	37165.37
662.88	36783.86
663.03	36854.08
663.17	37092.81
663.31	36392.99
663.45	37200.47
663.60	36470.23
663.74	36491.29
663.88	36304.05
664.02	36357.88
664.17	36430.44
664.31	36201.07
664.45	36128.51
664.59	36355.54
664.73	36163.62
664.88	36493.63
665.02	36065.31
665.16	36095.74
665.30	36182.34
665.44	35552.74
665.59	35438.05
665.73	35697.85
665.87	35601.89
666.01	35772.75
666.15	35615.93
666.29	35864.03
666.44	36070.00
666.58	35405.28
666.72	35454.44
666.86	35395.92
667.00	35416.99
667.14	35573.80
667.28	35688.49
667.43	35051.86
667.57	35461.46
667.71	34740.57
667.85	35152.51
667.99	35236.77
668.13	34644.61
668.27	34895.05
668.41	35157.19
668.56	34361.40
668.70	34813.13
668.84	34698.44
668.98	34871.64
669.12	35084.63
669.26	34759.30
669.40	34347.36
669.54	34143.74
669.68	34558.01
669.82	34199.91
669.96	34312.25
670.10	33944.79
670.25	34396.51
670.39	34541.63
670.53	33858.19
670.67	33591.37
670.81	33930.75
670.95	34010.32
671.09	34075.86
671.23	33539.88
671.37	34237.36
671.51	33521.15
671.65	33329.23
671.79	33170.07
671.93	33362.00
672.07	33596.05
672.21	33668.61
672.35	33036.66
672.49	33228.59
672.63	33270.72
672.77	33146.67
672.91	33254.33
673.05	33013.26
673.19	32992.19
673.33	32914.95
673.47	32706.65
673.61	32790.91
673.75	32336.84
673.89	31983.42
674.03	32074.70
674.17	32409.40
674.31	32100.45
674.45	32346.20
674.59	32215.13
674.73	32142.58
674.87	32098.11
675.01	32151.94
675.15	32430.46
675.29	31943.63
675.43	31768.09
675.56	31653.40
675.70	32191.73
675.84	31527.02
675.98	30616.55
676.12	31318.71
676.26	30815.49
676.40	30902.09
676.54	31131.47
676.68	30766.34
676.82	30960.61
676.96	30426.96
677.10	31033.16
677.23	30478.46
677.37	30213.98
677.51	30532.29
677.65	30274.83
677.79	30188.23
677.93	29862.90
678.07	29687.36
678.21	29752.89
678.34	29848.85
678.48	29394.79
678.62	29511.81
678.76	29502.45
678.90	29160.73
679.04	29682.67
679.18	29612.46
679.31	28980.51
679.45	29195.84
679.59	28666.88
679.73	28739.44
679.87	29167.76
680.00	29006.26
680.14	28634.11
680.28	28650.50
680.42	28496.02
680.56	28371.97
680.70	28439.85
680.83	28648.16
680.97	28161.33
681.11	28023.23
681.25	27714.28
681.39	28053.66
681.52	27557.47
681.66	27768.12
681.80	27763.43
681.94	27204.05
682.07	28060.68
682.21	27316.39
682.35	26967.65
682.49	27201.71
682.62	27304.69
682.76	27080.00
682.90	27264.90
683.04	26962.97
683.17	27253.20
683.31	26717.22
683.45	26771.05
683.59	26614.23
683.72	26593.17
683.86	26195.28
684.00	26471.46
684.13	26251.45
684.27	26448.05
684.41	25834.83
684.55	25956.54
684.68	25408.86
684.82	25238.00
684.96	25785.68
685.09	25926.11
685.23	25790.36
685.37	25254.38
685.50	25350.34
685.64	25177.14
685.78	25032.03
685.91	25069.48
686.05	24816.70
686.19	24603.71
686.32	25025.01
686.46	24540.52
686.60	24409.45
686.73	24144.97
686.87	23948.36
687.01	24058.37
687.14	23541.11
687.28	23571.54
687.42	23826.65
687.55	23873.46
687.69	23463.87
687.82	23585.58
687.96	23791.55
688.10	23225.14
688.23	23435.78
688.37	23033.21
688.50	22902.14
688.64	22909.16
688.78	22923.21
688.91	22899.80
689.05	23234.50
689.18	22728.94
689.32	22703.20
689.46	23264.92
689.59	22632.98
689.73	23051.94
689.86	22478.50
690.00	22398.93
690.13	22623.62
690.27	22595.53
690.41	22394.25
690.54	22024.44
690.68	22178.92
690.81	21757.62
690.95	21762.30
691.08	21720.17
691.22	21902.73
691.35	21790.39
691.49	21830.18
691.62	21984.65
691.76	21766.98
691.89	21678.04
692.03	21247.38
692.16	20982.90
692.30	21003.97
692.43	20856.51
692.57	20844.81
692.70	20821.41
692.84	20676.29
692.97	20573.31
693.11	20685.65
693.24	20168.40
693.38	20374.36
693.51	20372.02
693.65	20390.75
693.78	20383.73
693.92	20449.26
694.05	19990.52
694.19	20004.56
694.32	20056.05
694.45	19843.06
694.59	20013.92
694.72	19744.76
694.86	19386.66
694.99	19360.91
695.13	19470.92
695.26	19040.26
695.39	19300.06
695.53	19016.85
695.66	19372.61
695.80	18902.17
695.93	18696.20
696.07	18611.94
696.20	18930.25
696.33	18939.62
696.47	18853.02
696.60	18717.26
696.73	18480.87
696.87	18443.42
697.00	18590.88
697.14	18359.16
697.27	18288.95
697.40	18192.98
697.54	18230.43
697.67	18090.00
697.80	17935.53
697.94	17788.07
698.07	17893.40
698.21	17607.85
698.34	17642.96
698.47	17425.29
698.61	17326.99
698.74	17315.28
698.87	17013.35
699.01	17001.65
699.14	16828.45
699.27	17003.99
699.40	17233.36
699.54	16769.94
699.67	16704.40
699.80	16563.97
699.94	16786.32
700.07	16465.67
700.20	16664.61
700.34	16248.00
700.47	16341.62
700.60	16500.78
700.73	16533.54
700.87	16365.03
701.00	15976.50
701.13	16116.93
701.26	15733.08
701.40	16236.30
701.53	15484.98
701.66	15723.72
701.79	15719.04
701.93	15709.68
702.06	15061.35
702.19	15314.13
702.32	15391.36
702.46	15508.39
702.59	15185.40
702.72	15468.60
702.85	15119.86
702.99	15094.11
703.12	15316.47
703.25	15108.16
703.38	14743.03
703.51	14867.08
703.65	14834.32
703.78	14520.68
703.91	14710.27
704.04	14291.31
704.17	14384.93
704.31	14260.88
704.44	14279.61
704.57	14415.36
704.70	14190.67
704.83	14310.04
704.96	14008.11
705.10	13921.51
705.23	14057.26
>>>>>End Processed Spectral Data<<<<<
