SpectraSuite Data File
++++++++++++++++++++++++++++++++++++
Date: Fri Oct 25 11:33:22 EDT 2013
User: price-jones
Dark Spectrum Present: No
Reference Spectrum Present: No
Number of Sampled Component Spectra: 1
Spectrometers: USB2+H05261
Integration Time (usec): 100000 (USB2+H05261)
Spectra Averaged: 1 (USB2+H05261)
Boxcar Smoothing: 0 (USB2+H05261)
Correct for Electrical Dark: No (USB2+H05261)
Strobe/Lamp Enabled: No (USB2+H05261)
Correct for Detector Non-linearity: No (USB2+H05261)
Correct for Stray Light: No (USB2+H05261)
Number of Pixels in Processed Spectrum: 2048
>>>>>Begin Processed Spectral Data<<<<<
365.73	262.14
365.92	262.14
366.12	262.14
366.32	259.80
366.52	173.20
366.72	177.88
366.91	243.42
367.11	161.50
367.31	189.58
367.51	191.92
367.70	182.56
367.90	203.63
368.10	170.86
368.30	203.63
368.49	224.69
368.69	182.56
368.89	182.56
369.09	196.60
369.28	259.80
369.48	271.50
369.68	203.63
369.87	276.18
370.07	322.99
370.27	276.18
370.47	355.76
370.66	517.26
370.86	566.41
371.06	601.52
371.25	519.60
371.45	486.83
371.65	610.88
371.84	510.24
372.04	535.98
372.24	554.71
372.44	585.13
372.63	594.50
372.83	608.54
373.03	631.94
373.22	596.84
373.42	606.20
373.62	636.63
373.81	638.97
374.01	617.90
374.21	629.60
374.40	606.20
374.60	662.37
374.79	573.43
374.99	662.37
375.19	631.94
375.38	690.46
375.58	624.92
375.78	678.76
375.97	636.63
376.17	683.44
376.37	671.73
376.56	706.84
376.76	671.73
376.95	667.05
377.15	683.44
377.35	667.05
377.54	688.12
377.74	578.11
377.93	655.35
378.13	641.31
378.33	800.46
378.52	655.35
378.72	753.65
378.91	751.31
379.11	751.31
379.31	674.07
379.50	720.88
379.70	763.01
379.89	781.74
380.09	746.63
380.28	681.10
380.48	641.31
380.68	667.05
380.87	755.99
381.07	725.57
381.26	786.42
381.46	751.31
381.65	678.76
381.85	753.65
382.04	704.50
382.24	704.50
382.43	755.99
382.63	753.65
382.83	788.76
383.02	798.12
383.22	767.70
383.41	802.80
383.61	851.96
383.80	851.96
384.00	784.08
384.19	805.14
384.39	816.85
384.58	744.29
384.78	863.66
384.97	863.66
385.17	826.21
385.36	765.36
385.56	917.49
385.75	858.98
385.95	814.51
386.14	821.53
386.34	802.80
386.53	922.17
386.72	870.68
386.92	802.80
387.11	882.38
387.31	922.17
387.50	870.68
387.70	774.72
387.89	884.72
388.09	980.68
388.28	922.17
388.48	908.13
388.67	908.13
388.86	912.81
389.06	926.85
389.25	901.11
389.45	1020.47
389.64	933.87
389.84	959.62
390.03	973.66
390.22	945.58
390.42	994.73
390.61	922.17
390.81	1043.88
391.00	973.66
391.19	1064.94
391.39	978.34
391.58	1006.43
391.78	983.02
391.97	997.07
392.16	992.39
392.36	959.62
392.55	1121.12
392.75	1137.50
392.94	870.68
393.13	1144.52
393.33	966.64
393.52	1008.77
393.71	1123.46
393.91	1097.71
394.10	1053.24
394.29	1146.86
394.49	1118.78
394.68	1132.82
394.88	1097.71
395.07	1123.46
395.26	1210.06
395.46	1193.67
395.65	1203.04
395.84	1191.33
396.04	1284.95
396.23	1121.12
396.42	1221.76
396.62	1315.38
396.81	1156.22
397.00	1266.23
397.19	1214.74
397.39	1226.44
397.58	1334.11
397.77	1224.10
397.97	1341.13
398.16	1282.61
398.35	1252.19
398.55	1200.69
398.74	1320.06
398.93	1352.83
399.12	1348.15
399.32	1320.06
399.51	1327.08
399.70	1313.04
399.90	1320.06
400.09	1310.70
400.28	1411.34
400.47	1404.32
400.67	1420.71
400.86	1467.52
401.05	1469.86
401.24	1425.39
401.44	1406.66
401.63	1490.92
401.82	1469.86
402.01	1540.07
402.21	1497.94
402.40	1486.24
402.59	1448.79
402.78	1516.67
402.97	1629.01
403.17	1530.71
403.36	1554.12
403.55	1551.78
403.74	1664.12
403.93	1600.93
404.13	1717.95
404.32	1579.86
404.51	1535.39
404.70	1614.97
404.89	1689.87
405.09	1792.85
405.28	1724.97
405.47	1664.12
405.66	1746.04
405.85	1764.76
406.05	1755.40
406.24	1736.68
406.43	1778.81
406.62	1832.64
406.81	1825.62
407.00	1776.47
407.20	1764.76
407.39	1860.73
407.58	1778.81
407.77	1856.04
407.96	1888.81
408.15	1907.54
408.34	1905.20
408.54	1893.49
408.73	2003.50
408.92	1944.99
409.11	2040.95
409.30	1984.77
409.49	1919.24
409.68	2012.86
409.87	1996.48
410.07	2024.56
410.26	2031.58
410.45	1881.79
410.64	2073.71
410.83	2050.31
411.02	2080.74
411.21	2181.38
411.40	2150.95
411.59	2153.29
411.78	2120.53
411.98	2230.53
412.17	2333.51
412.36	2335.85
412.55	2345.22
412.74	2352.24
412.93	2363.94
413.12	2354.58
413.31	2471.61
413.50	2438.84
413.69	2394.37
413.88	2492.67
414.07	2455.22
414.26	2438.84
414.45	2546.50
414.64	2551.18
414.83	2670.55
415.02	2527.78
415.22	2813.32
415.41	2796.94
415.60	2712.68
415.79	2686.94
415.98	2892.90
416.17	2672.89
416.36	2857.79
416.55	2864.82
416.74	2857.79
416.93	2745.45
417.12	2871.84
417.31	2956.10
417.50	2860.13
417.69	2963.12
417.88	3038.02
418.07	2909.29
418.26	2869.50
418.45	2925.67
418.64	3042.70
418.83	3054.40
419.02	3019.29
419.21	3091.85
419.39	3148.02
419.58	3063.76
419.77	3026.31
419.96	3141.00
420.15	3213.56
420.34	3180.79
420.53	3178.45
420.72	3126.96
420.91	3180.79
421.10	3178.45
421.29	3260.37
421.48	3332.92
421.67	3377.39
421.86	3337.60
422.05	3220.58
422.24	3243.98
422.43	3192.49
422.61	3342.28
422.80	3370.37
422.99	3410.16
423.18	3501.44
423.37	3480.38
423.56	3421.86
423.75	3531.87
423.94	3405.48
424.13	3283.77
424.32	3346.97
424.50	3428.88
424.69	3456.97
424.88	3552.93
425.07	3393.78
425.26	3377.39
425.45	3349.31
425.64	3393.78
425.83	3361.01
426.01	3599.74
426.20	3557.61
426.39	3503.78
426.58	3405.48
426.77	3557.61
426.96	3576.34
427.15	3534.21
427.33	3559.95
427.52	3599.74
427.71	3653.58
427.90	3487.40
428.09	3625.49
428.28	3726.13
428.46	3655.92
428.65	3695.71
428.84	3796.35
429.03	3997.64
429.22	3698.05
429.40	3698.05
429.59	3777.62
429.78	3700.39
429.97	3749.54
430.16	3772.94
430.34	3878.27
430.53	3941.46
430.72	4021.04
430.91	3894.65
431.10	3854.86
431.28	3943.80
431.47	4175.52
431.66	3999.98
431.85	4138.07
432.03	4035.08
432.22	4182.54
432.41	4032.74
432.60	3967.21
432.79	4049.13
432.97	4149.77
433.16	4173.18
433.35	4135.73
433.54	4224.67
433.72	4262.12
433.91	4283.18
434.10	4227.01
434.28	4093.60
434.47	4264.46
434.66	4334.67
434.85	4304.25
435.03	4327.65
435.22	4348.72
435.41	4458.72
435.59	4423.61
435.78	4538.30
435.97	4414.25
436.16	4428.29
436.34	4442.34
436.53	4437.66
436.72	4603.83
436.90	4475.10
437.09	4535.96
437.28	4430.63
437.46	4564.04
437.65	4734.90
437.84	4491.49
438.02	4704.48
438.21	4695.11
438.40	4660.01
438.58	4669.37
438.77	4835.55
438.96	4683.41
439.14	4896.40
439.33	4842.57
439.52	4884.70
439.70	4812.14
439.89	5041.51
440.08	4980.66
440.26	4999.38
440.45	4964.28
440.63	5226.42
440.82	5186.63
441.01	5249.82
441.19	5235.78
441.38	5303.65
441.57	5364.51
441.75	5294.29
441.94	5394.93
442.12	5535.37
442.31	5518.98
442.50	5364.51
442.68	5397.28
442.87	5460.47
443.05	5455.79
443.24	5607.92
443.43	5605.58
443.61	5612.60
443.80	5657.07
443.98	5661.76
444.17	5224.08
444.35	5605.58
444.54	5715.59
444.73	5741.33
444.91	5708.57
445.10	5710.91
445.28	5537.71
445.47	5706.23
445.65	5572.82
445.84	5540.05
446.02	5722.61
446.21	5820.91
446.39	5722.61
446.58	5827.93
446.77	5746.02
446.95	5584.52
447.14	5633.67
447.32	5928.58
447.51	5687.50
447.69	5664.10
447.88	5764.74
448.06	5696.86
448.25	5664.10
448.43	5811.55
448.62	5867.72
448.80	5954.32
448.99	6010.50
449.17	5949.64
449.36	5900.49
449.54	5944.96
449.73	5954.32
449.91	6118.16
450.10	6106.46
450.28	6076.03
450.46	6204.76
450.65	6071.35
450.83	6289.02
451.02	6106.46
451.20	6150.93
451.39	6097.10
451.57	6099.44
451.76	6244.55
451.94	6387.32
452.13	6284.34
452.31	6204.76
452.49	6125.18
452.68	6368.60
452.86	6279.66
453.05	6368.60
453.23	6509.03
453.42	6438.81
453.60	6389.66
453.78	6399.02
453.97	6333.49
454.15	6480.94
454.34	6553.50
454.52	6724.36
454.70	6527.75
454.89	6576.91
455.07	6558.18
455.26	6715.00
455.44	6799.26
455.62	6607.33
455.81	6705.63
455.99	6761.81
456.17	6766.49
456.36	6850.75
456.54	7030.97
456.73	7028.63
456.91	7096.50
457.09	7045.01
457.28	7194.81
457.46	6993.52
457.64	7187.79
457.83	7042.67
458.01	7080.12
458.19	7140.97
458.38	7194.81
458.56	7253.32
458.74	7246.30
458.93	7138.63
459.11	7253.32
459.29	7297.79
459.48	7250.98
459.66	7410.14
459.84	7503.76
460.03	7445.24
460.21	7314.17
460.39	7407.80
460.57	7428.86
460.76	7421.84
460.94	7492.05
461.12	7583.34
461.31	7630.15
461.49	7515.46
461.67	7646.53
461.85	7681.64
462.04	7524.82
462.22	8231.66
462.40	7786.96
462.59	7843.14
462.77	7770.58
462.95	7981.23
463.13	7770.58
463.32	7878.24
463.50	8084.21
463.68	7730.79
463.86	7964.84
464.05	7789.30
464.23	7878.24
464.41	7880.58
464.59	7864.20
464.78	8086.55
464.96	7957.82
465.14	8025.70
465.32	8119.32
465.50	8224.64
465.69	8159.11
465.87	8077.19
466.05	8339.33
466.23	8131.02
466.41	8177.83
466.60	8432.95
466.78	8126.34
466.96	8138.04
467.14	8304.22
467.32	8231.66
467.51	8542.96
467.69	8229.32
467.87	8491.46
468.05	8489.12
468.23	8432.95
468.41	8388.48
468.60	8414.23
468.78	8606.15
468.96	8519.55
469.14	8683.39
469.32	8870.63
469.50	8512.53
469.69	8837.86
469.87	8840.20
470.05	8638.92
470.23	8645.94
470.41	8765.31
470.59	8924.46
470.77	8802.75
470.95	8809.78
471.14	9125.75
471.32	8975.95
471.50	8994.68
471.68	8973.61
471.86	8992.34
472.04	9004.04
472.22	9324.69
472.40	9165.54
472.58	9078.94
472.77	9128.09
472.95	9544.70
473.13	9664.07
473.31	9270.86
473.49	9432.36
473.67	9514.28
473.85	9605.56
474.03	9678.12
474.21	9647.69
474.39	9717.90
474.57	9783.44
474.75	9940.26
474.93	10047.92
475.12	10061.96
475.30	10036.22
475.48	10260.91
475.66	10258.57
475.84	10057.28
476.02	10270.27
476.20	10415.38
476.38	10523.05
476.56	10731.36
476.74	10506.66
476.92	10518.37
477.10	10626.03
477.28	10721.99
477.46	10707.95
477.64	10611.99
477.82	11096.48
478.00	11154.99
478.18	11435.86
478.36	11302.45
478.54	11213.51
478.72	11630.12
478.90	11421.81
479.08	11770.55
479.26	11779.92
479.44	11829.07
479.62	11681.61
479.80	11847.79
479.98	12030.35
480.16	12250.36
480.34	12142.70
480.52	12241.00
480.70	12133.34
480.88	12297.17
481.06	12318.24
481.24	12430.59
481.41	12706.77
481.59	13015.72
481.77	13015.72
481.95	12704.43
482.13	13214.66
482.31	13125.72
482.49	13334.03
482.67	13296.58
482.85	13572.77
483.03	13682.77
483.21	13682.77
483.39	13937.89
483.57	13837.25
483.74	14017.47
483.92	14122.79
484.10	14078.32
484.28	14415.36
484.46	14473.87
484.64	14766.44
484.82	14569.83
485.00	14761.76
485.18	14892.83
485.35	15061.35
485.53	15288.38
485.71	15435.83
485.89	15716.70
486.07	15620.74
486.25	15489.67
486.43	15709.68
486.61	15894.58
486.78	15939.05
486.96	15789.25
487.14	16318.22
487.32	16252.68
487.50	16374.39
487.68	16547.59
487.85	16718.45
488.03	16854.20
488.21	17109.32
488.39	16849.52
488.57	17202.94
488.75	17521.25
488.92	17476.78
489.10	17617.21
489.28	17451.03
489.46	17804.46
489.64	17996.38
489.81	17937.87
489.99	18328.74
490.17	18347.46
490.35	18686.84
490.53	18415.34
490.70	18792.16
490.88	19119.84
491.06	19002.81
491.24	18848.33
491.41	19274.31
491.59	19314.10
491.77	19487.30
491.95	19431.13
492.13	19726.04
492.30	20018.60
492.48	19772.85
492.66	19875.83
492.84	19929.66
493.01	20390.75
493.19	19939.02
493.37	20465.64
493.54	20505.43
493.72	20786.30
493.90	20680.97
494.08	20819.07
494.25	21167.80
494.43	20950.14
494.61	21561.02
494.79	21521.23
494.96	21549.31
495.14	21647.61
495.32	21806.77
495.49	21811.45
495.67	21820.81
495.85	22197.64
496.02	22366.16
496.20	22593.19
496.38	22544.04
496.55	22302.96
496.73	23026.19
496.91	22930.23
497.09	22813.20
497.26	23187.69
497.44	22958.31
497.62	23349.18
497.79	23662.82
497.97	23136.20
498.14	23599.62
498.32	23878.15
498.50	23740.05
498.67	24243.27
498.85	24123.90
499.03	24159.01
499.20	24058.37
499.38	24046.66
499.56	24477.32
499.73	24348.59
499.91	24575.62
500.08	25067.14
500.26	24797.98
500.44	24968.84
500.61	25118.63
500.79	24835.42
500.97	25369.07
501.14	25446.30
501.32	25738.87
501.49	25472.05
501.67	25518.86
501.84	25481.41
502.02	25642.91
502.20	25947.18
502.37	26043.14
502.55	25860.58
502.72	25792.70
502.90	26068.89
503.07	26237.41
503.25	25996.33
503.43	26487.84
503.60	26684.45
503.78	26717.22
503.95	26611.89
504.13	26607.21
504.30	27077.66
504.48	26895.10
504.65	27087.02
504.83	27173.62
505.01	27393.63
505.18	27061.27
505.36	27468.53
505.53	27714.28
505.71	27779.82
505.88	27704.92
506.06	27395.97
506.23	28084.09
506.41	27690.88
506.58	28334.53
506.76	28393.04
506.93	28400.06
507.11	28390.70
507.28	28470.28
507.46	28332.18
507.63	28659.86
507.81	28638.80
507.98	28070.04
508.16	28311.12
508.33	28858.81
508.50	28704.33
508.68	29392.45
508.85	29230.95
509.03	29120.95
509.20	29029.66
509.38	29462.66
509.55	29689.70
509.73	29331.59
509.90	29610.12
510.08	29762.25
510.25	29890.98
510.42	29832.47
510.60	29851.19
510.77	29818.42
510.95	30316.96
511.12	30134.40
511.30	29839.49
511.47	30199.93
511.64	30291.21
511.82	30639.95
511.99	30391.86
512.17	30586.12
512.34	30616.55
512.51	31028.48
512.69	30719.53
512.86	30937.20
513.04	31110.40
513.21	31409.99
513.38	31239.13
513.56	31475.52
513.73	31419.35
513.90	31377.22
514.08	31297.64
514.25	31564.46
514.43	31903.84
514.60	31798.52
514.77	31758.73
514.95	31903.84
515.12	32315.78
515.29	32126.19
515.47	32018.53
515.64	32222.16
515.81	32236.20
515.99	32311.10
516.16	32465.57
516.33	32161.30
516.51	32847.08
516.68	32493.66
516.85	32301.73
517.03	32687.92
517.20	32879.85
517.37	32416.42
517.54	32641.11
517.72	32842.40
517.89	33415.83
518.06	32903.25
518.24	33383.06
518.41	33130.28
518.58	33146.67
518.75	33273.06
518.93	33797.34
519.10	33682.65
519.27	33991.60
519.45	34309.91
519.62	34054.79
519.79	33736.48
519.96	33893.30
520.14	34295.87
520.31	34206.93
520.48	34352.04
520.65	34115.65
520.83	34700.78
521.00	34815.47
521.17	34518.22
521.34	34754.61
521.52	34782.70
521.69	34995.69
521.86	34986.33
522.03	35358.47
522.20	35138.46
522.38	35697.85
522.55	34871.64
522.72	34937.18
522.89	35096.33
523.07	35576.14
523.24	36018.50
523.41	35381.88
523.58	35192.30
523.75	35796.15
523.92	35374.86
524.10	35875.73
524.27	35494.22
524.44	35555.08
524.61	36037.23
524.78	36030.21
524.96	36701.94
525.13	36514.70
525.30	36421.08
525.47	36065.31
525.64	36407.03
525.81	36271.28
525.98	36524.06
526.16	36732.37
526.33	36133.19
526.50	36933.65
526.67	36428.10
526.84	36800.24
527.01	36772.16
527.18	36737.05
527.36	36704.28
527.53	37479.00
527.70	37507.08
527.87	37385.38
528.04	37141.96
528.21	37326.86
528.38	37191.11
528.55	37652.20
528.72	37600.71
528.89	37404.10
529.07	37158.34
529.24	37289.42
529.41	37729.44
529.58	37738.80
529.75	37319.84
529.92	37675.60
530.09	38089.88
530.26	37801.99
530.43	38026.68
530.60	37689.65
530.77	37490.70
530.94	38398.83
531.11	37907.32
531.28	37904.98
531.46	38848.21
531.63	38160.09
531.80	38569.69
531.97	38763.95
532.14	38691.40
532.31	38639.90
532.48	38574.37
532.65	39124.40
532.82	38553.30
532.99	38714.80
533.16	38773.31
533.33	39037.80
533.50	39033.11
533.67	38817.78
533.84	38703.10
534.01	39005.03
534.18	39091.63
534.35	39477.82
534.52	39508.24
534.69	39323.34
534.86	39679.10
535.03	39555.05
535.20	39732.93
535.37	39105.67
535.54	39552.71
535.71	39669.74
535.88	39849.96
536.05	39924.86
536.22	40025.50
536.38	39557.39
536.55	40081.67
536.72	40229.13
536.89	40212.74
537.06	40016.14
537.23	40425.73
537.40	39938.90
537.57	40018.48
537.74	40517.01
537.91	40409.35
538.08	40257.21
538.25	40025.50
538.42	40119.12
538.59	40870.43
538.75	40449.14
538.92	40774.47
539.09	40739.36
539.26	40575.53
539.43	40547.44
539.60	41031.93
539.77	40121.46
539.94	40999.16
540.11	41006.19
540.28	41537.49
540.44	41242.58
540.61	40893.84
540.78	40980.44
540.95	41420.46
541.12	40928.95
541.29	40905.54
541.46	41406.42
541.62	41600.68
541.79	41329.18
541.96	40942.99
542.13	40994.48
542.30	41331.52
542.47	41689.62
542.63	41827.71
542.80	41663.88
542.97	41944.74
543.14	42466.68
543.31	42150.71
543.48	41649.83
543.64	42567.32
543.81	42581.37
543.98	42326.25
544.15	42459.66
544.32	42981.60
544.48	43054.15
544.65	42256.03
544.82	42904.36
544.99	42354.33
545.16	42436.25
545.32	42483.06
545.49	42543.92
545.66	42717.12
545.83	43131.39
546.00	43072.88
546.16	43117.35
546.33	42899.68
546.50	42169.43
546.67	42887.98
546.83	42920.74
547.00	43239.06
547.17	43026.07
547.34	42939.47
547.50	42920.74
547.67	43524.60
547.84	43161.82
548.00	43412.26
548.17	43868.66
548.34	43147.78
548.51	43491.83
548.67	43288.21
548.84	43398.21
549.01	43601.84
549.18	43365.45
549.34	43910.79
549.51	43669.72
549.68	44147.18
549.84	43442.68
550.01	43779.72
550.18	43601.84
550.34	43906.11
550.51	44325.07
550.68	43938.88
550.84	43854.62
551.01	44205.70
551.18	44037.18
551.34	43941.22
551.51	44252.51
551.68	44687.85
551.84	44278.25
552.01	43618.22
552.18	44114.42
552.34	44009.09
552.51	43945.90
552.68	44016.11
552.84	44411.67
553.01	44570.82
553.18	44289.96
553.34	44601.25
553.51	44233.78
553.67	44339.11
553.84	44945.31
554.01	44577.84
554.17	45045.95
554.34	44919.56
554.51	44519.33
554.67	44671.46
554.84	44884.45
555.00	44556.78
555.17	45109.14
555.33	44949.99
555.50	44690.19
555.67	45350.22
555.83	44996.80
556.00	44863.39
556.16	45654.49
556.33	45361.92
556.50	44942.97
556.66	45209.79
556.83	44942.97
556.99	45549.17
557.16	45415.76
557.32	45347.88
557.49	45764.49
557.65	45223.83
557.82	45170.00
557.98	45504.70
558.15	45127.87
558.32	45404.05
558.48	45652.15
558.65	45563.21
558.81	45687.26
558.98	45743.43
559.14	45390.01
559.31	45277.66
559.47	45375.97
559.64	45462.57
559.80	45745.77
559.97	45909.61
560.13	45422.78
560.30	45588.95
560.46	45769.18
560.63	45579.59
560.79	45862.80
560.96	45490.65
561.12	45755.13
561.29	46157.70
561.45	46234.94
561.61	46031.32
561.78	45991.53
561.94	45752.79
562.11	45925.99
562.27	45827.69
562.44	45961.10
562.60	46082.81
562.77	46169.41
562.93	45698.96
563.10	46216.22
563.26	45897.91
563.42	46387.08
563.59	46401.12
563.75	46129.62
563.92	46553.26
564.08	46380.06
564.24	46527.51
564.41	46270.05
564.57	46646.88
564.74	46010.25
564.90	45951.74
565.07	46377.72
565.23	46232.60
565.39	46602.41
565.56	46550.91
565.72	46614.11
565.88	46777.95
566.05	46567.30
566.21	46560.28
566.38	46525.17
566.54	47007.32
566.70	46586.02
566.87	46499.42
567.03	46295.80
567.19	46590.70
567.36	46780.29
567.52	46417.50
567.68	46937.10
567.85	46492.40
568.01	46457.29
568.17	46796.67
568.34	46777.95
568.50	46658.58
568.66	46361.33
568.83	46649.22
568.99	46628.15
569.15	46651.56
569.32	46497.08
569.48	46691.35
569.64	47239.03
569.81	46923.06
569.97	46827.10
570.13	47224.99
570.30	46504.10
570.46	47129.03
570.62	46955.83
570.78	46920.72
570.95	47098.60
571.11	47070.51
571.27	46784.97
571.43	46614.11
571.60	46696.03
571.76	46707.73
571.92	46759.22
572.09	46983.91
572.25	46927.74
572.41	46677.30
572.57	47246.05
572.74	47227.33
572.90	46824.76
573.06	47133.71
573.22	47423.93
573.38	47313.93
573.55	47583.09
573.71	47433.30
573.87	47594.79
574.03	46857.52
574.20	47489.47
574.36	47131.37
574.52	47220.31
574.68	47700.12
574.84	47133.71
575.01	47175.84
575.17	47194.56
575.33	47414.57
575.49	46930.08
575.65	47234.35
575.82	47360.74
575.98	47110.30
576.14	47702.46
576.30	47358.40
576.46	47339.68
576.62	47363.08
576.79	47700.12
576.95	46719.43
577.11	46981.57
577.27	47349.04
577.43	47545.64
577.59	47042.43
577.75	47000.30
577.92	47334.99
578.08	47442.66
578.24	47185.20
578.40	47426.28
578.56	47351.38
578.72	47501.17
578.88	47576.07
579.04	47349.04
579.21	47437.98
579.37	47536.28
579.53	47716.50
579.69	47253.08
579.85	47325.63
580.01	47290.52
580.17	47271.80
580.33	47950.56
580.49	47643.94
580.65	47566.71
580.82	47643.94
580.98	47257.76
581.14	47311.59
581.30	47140.73
581.46	47283.50
581.62	47171.16
581.78	47168.82
581.94	47295.21
582.10	47384.15
582.26	47803.10
582.42	47267.12
582.58	47402.87
582.74	47189.88
582.90	47248.39
583.06	47440.32
583.22	47744.59
583.38	47445.00
583.54	47592.45
583.70	47775.02
583.86	47599.47
584.02	47203.92
584.18	48086.31
584.34	47739.91
584.50	47835.87
584.66	47618.20
584.82	47756.29
584.98	47887.36
585.14	48182.27
585.30	47409.89
585.46	47885.02
585.62	47812.46
585.78	47547.98
585.94	47222.65
586.10	47833.53
586.26	47552.66
586.42	47648.63
586.58	47599.47
586.74	47601.82
586.90	47555.00
587.06	47952.90
587.22	47814.80
587.38	47281.16
587.54	47828.85
587.70	47901.40
587.86	48046.52
588.02	47351.38
588.18	47409.89
588.34	47519.90
588.49	47990.34
588.65	48179.93
588.81	47775.02
588.97	48044.18
589.13	47320.95
589.29	48046.52
589.45	48275.89
589.61	47709.48
589.77	48095.67
589.93	47906.08
590.08	48343.77
590.24	48282.91
590.40	48678.46
590.56	48336.74
590.72	48046.52
590.88	47917.79
591.04	48123.75
591.20	48289.93
591.35	48215.04
591.51	48563.78
591.67	48568.46
591.83	48030.13
591.99	48037.16
592.15	47906.08
592.31	47686.07
592.46	47683.73
592.62	48069.92
592.78	48046.52
592.94	48657.40
593.10	48399.94
593.26	48264.19
593.41	48697.19
593.57	48123.75
593.73	48392.92
593.89	48451.43
594.05	48631.65
594.20	48243.12
594.36	48942.94
594.52	48404.62
594.68	48329.72
594.84	48243.12
594.99	48399.94
595.15	48315.68
595.31	48264.19
595.47	48320.36
595.62	48685.48
595.78	47978.64
595.94	48128.44
596.10	48421.00
596.25	48325.04
596.41	48556.75
596.57	48371.85
596.73	48722.93
596.88	48561.44
597.04	48315.68
597.20	48601.22
597.36	48200.99
597.51	48428.02
597.67	48521.65
597.83	48697.19
597.99	48486.54
598.14	48215.04
598.30	48645.69
598.46	48161.20
598.61	48882.09
598.77	48563.78
598.93	48720.59
599.09	48917.20
599.24	49169.97
599.40	48184.61
599.56	48615.27
599.71	48851.66
599.87	48844.64
600.03	48538.03
600.18	48966.35
600.34	48388.24
600.50	48802.51
600.65	48671.44
600.81	48727.61
600.97	48715.91
601.12	48865.70
601.28	48580.16
601.44	48376.53
601.59	48685.48
601.75	48526.33
601.91	48631.65
602.06	49003.80
602.22	48758.04
602.37	48809.53
602.53	48734.63
602.69	48500.58
602.84	48299.30
603.00	48240.78
603.16	48598.88
603.31	48449.09
603.47	49294.02
603.62	48271.21
603.78	48889.11
603.94	48416.32
604.09	48603.56
604.25	48425.68
604.40	48666.76
604.56	48584.84
604.71	48673.78
604.87	48542.71
605.03	48549.73
605.18	48442.07
605.34	48423.34
605.49	48350.79
605.65	48633.99
605.80	48009.07
605.96	48336.74
606.12	48449.09
606.27	48318.02
606.43	48261.85
606.58	48755.70
606.74	47997.37
606.89	48231.42
607.05	48610.59
607.20	48502.92
607.36	48547.39
607.51	48531.01
607.67	48280.57
607.82	48273.55
607.98	48320.36
608.13	48034.81
608.29	48259.51
608.44	48617.61
608.60	48327.38
608.75	48641.01
608.91	48531.01
609.06	48154.18
609.22	48722.93
609.37	48116.73
609.53	48617.61
609.68	48376.53
609.84	48189.29
609.99	47941.19
610.15	48339.08
610.30	48800.17
610.46	48385.89
610.61	47725.86
610.76	48413.98
610.92	47950.56
611.07	47805.44
611.23	48231.42
611.38	48067.58
611.54	48418.66
611.69	48362.49
611.84	47959.92
612.00	47826.51
612.15	47938.85
612.31	48285.25
612.46	47730.54
612.62	47992.68
612.77	48140.14
612.92	48257.17
613.08	47770.33
613.23	48069.92
613.39	47648.63
613.54	48095.67
613.69	48278.23
613.85	47739.91
614.00	47931.83
614.15	48006.73
614.31	47789.06
614.46	47924.81
614.62	47758.63
614.77	48079.28
614.92	47870.98
615.08	47964.60
615.23	47840.55
615.38	47812.46
615.54	48158.86
615.69	47697.78
615.84	47622.88
616.00	48048.86
616.15	47557.35
616.30	47751.61
616.46	47533.94
616.61	47667.35
616.76	47508.19
616.92	47437.98
617.07	47613.52
617.22	47531.60
617.37	46899.65
617.53	47718.84
617.68	47646.29
617.83	47601.82
617.99	47587.77
618.14	47732.89
618.29	47552.66
618.45	47201.58
618.60	47288.18
618.75	47423.93
618.90	47217.97
619.06	47023.70
619.21	47386.49
619.36	47349.04
619.51	47381.80
619.67	47145.41
619.82	47042.43
619.97	47611.18
620.12	47082.22
620.28	47168.82
620.43	47426.28
620.58	47283.50
620.73	47271.80
620.89	47529.26
621.04	47384.15
621.19	47311.59
621.34	46993.28
621.49	47257.76
621.65	47398.19
621.80	47393.51
621.95	47222.65
622.10	47297.55
622.25	47133.71
622.41	47054.13
622.56	46632.83
622.71	46944.12
622.86	47433.30
623.01	47433.30
623.16	46967.53
623.32	47196.90
623.47	47061.15
623.62	46740.50
623.77	46766.24
623.92	46909.02
624.07	47044.77
624.23	46616.45
624.38	47131.37
624.53	46375.37
624.68	46473.68
624.83	46696.03
624.98	46997.96
625.13	46129.62
625.29	46541.55
625.44	46555.60
625.59	46789.65
625.74	46281.75
625.89	45963.44
626.04	46990.94
626.19	46553.26
626.34	46571.98
626.49	46426.87
626.65	46284.09
626.80	46335.59
626.95	46497.08
627.10	45790.24
627.25	46321.54
627.40	46284.09
627.55	45738.75
627.70	46052.38
627.85	46784.97
628.00	46106.21
628.15	46445.59
628.30	46089.83
628.45	45523.42
628.60	45830.03
628.76	45787.90
628.91	45759.81
629.06	45593.64
629.21	45757.47
629.36	45820.67
629.51	45808.96
629.66	46241.96
629.81	45698.96
629.96	46099.19
630.11	45755.13
630.26	45368.94
630.41	45705.98
630.56	45525.76
630.71	45450.86
630.86	45794.92
631.01	45581.93
631.16	45312.77
631.31	45673.21
631.46	45474.27
631.61	45935.35
631.76	45701.30
631.91	45357.24
632.06	46080.47
632.21	45670.87
632.36	45724.71
632.51	45467.25
632.66	45359.58
632.81	45298.73
632.96	45542.14
633.10	45130.21
633.25	45090.42
633.40	45181.70
633.55	45457.88
633.70	45745.77
633.85	45010.84
634.00	44961.69
634.15	45076.38
634.30	44701.89
634.45	44919.56
634.60	45144.25
634.75	45387.67
634.90	45045.95
635.05	45324.47
635.19	45177.02
635.34	45429.80
635.49	45195.74
635.64	45162.98
635.79	45453.20
635.94	45265.96
636.09	45090.42
636.24	44811.90
636.39	44418.69
636.53	44940.63
636.68	44428.05
636.83	44212.72
636.98	44687.85
637.13	44362.51
637.28	44275.91
637.43	44301.66
637.57	44636.36
637.72	44428.05
637.87	44573.16
638.02	44900.84
638.17	44664.44
638.32	44540.39
638.46	43915.47
638.61	44495.92
638.76	44149.53
638.91	44596.57
639.06	44074.63
639.20	43908.45
639.35	44158.89
639.50	44025.48
639.65	44250.17
639.80	43936.54
639.94	44009.09
640.09	44299.32
640.24	44552.10
640.39	43906.11
640.54	44037.18
640.68	44154.21
640.83	44055.90
640.98	43917.81
641.13	43704.82
641.27	44339.11
641.42	44170.59
641.57	44175.27
641.72	44081.65
641.86	44215.06
642.01	44030.16
642.16	43711.84
642.31	43615.88
642.45	44282.94
642.60	43536.30
642.75	43604.18
642.90	44037.18
643.04	43976.33
643.19	43229.69
643.34	43828.87
643.48	43201.61
643.63	43342.04
643.78	43578.43
643.93	43817.17
644.07	43456.73
644.22	43901.43
644.37	43438.00
644.51	43625.25
644.66	43566.73
644.81	43601.84
644.95	43440.34
645.10	42623.50
645.25	42878.61
645.39	43386.51
645.54	43236.72
645.69	42733.50
645.83	43103.31
645.98	43075.22
646.13	43119.69
646.27	42827.12
646.42	42710.10
646.57	42848.19
646.71	43281.19
646.86	43356.08
647.00	42787.33
647.15	42906.70
647.30	43222.67
647.44	43274.16
647.59	42937.13
647.74	42712.44
647.88	42876.27
648.03	43227.35
648.17	43583.12
648.32	42969.90
648.47	43014.37
648.61	42562.64
648.76	42515.83
648.90	42731.16
649.05	42534.56
649.20	42658.60
649.34	42824.78
649.49	42586.05
649.63	42946.49
649.78	42850.53
649.92	43030.75
650.07	42911.38
650.21	43065.86
650.36	43061.18
650.51	42354.33
650.65	42810.74
650.80	42656.26
650.94	42859.89
651.09	42443.27
651.23	42099.22
651.38	42438.59
651.52	42209.22
651.67	42047.72
651.81	42349.65
651.96	42459.66
652.10	42220.92
652.25	41933.04
652.39	42050.06
652.54	42436.25
652.68	42150.71
652.83	41928.36
652.97	42167.09
653.12	41628.77
653.26	41921.34
653.41	41773.88
653.55	41853.46
653.70	42419.87
653.84	42031.34
653.99	42047.72
654.13	42024.32
654.27	41619.41
654.42	42160.07
654.56	41764.52
654.71	42209.22
654.85	41516.42
655.00	42017.30
655.14	41773.88
655.29	42071.13
655.43	42000.91
655.57	41373.65
655.72	41738.77
655.86	41518.76
656.01	41504.72
656.15	41340.88
656.30	41457.91
656.44	41343.22
656.58	41904.95
656.73	41453.23
656.87	41727.07
657.01	41116.19
657.16	41645.15
657.30	41273.01
657.45	41141.94
657.59	40973.42
657.73	40945.33
657.88	41069.38
658.02	41413.44
658.16	41296.41
658.31	40788.52
658.45	41455.57
658.60	40957.03
658.74	40933.63
658.88	40844.69
659.03	41322.16
659.17	40517.01
659.31	40655.11
659.46	40760.43
659.60	40730.00
659.74	40636.38
659.89	40718.30
660.03	40533.40
660.17	40320.41
660.32	40215.08
660.46	40306.37
660.60	39957.63
660.74	40472.54
660.89	40182.32
661.03	39983.37
661.17	40147.21
661.32	39360.79
661.46	40161.25
661.60	39742.30
661.74	39807.83
661.89	39643.99
662.03	40304.02
662.17	39667.40
662.31	39398.24
662.46	40041.88
662.60	39826.56
662.74	39374.83
662.88	39138.44
663.03	39229.72
663.17	39178.23
663.31	39189.93
663.45	39557.39
663.60	39445.05
663.74	39571.44
663.88	39037.80
664.02	38953.54
664.17	39374.83
664.31	38834.17
664.45	39353.77
664.59	39241.42
664.73	39196.95
664.88	38714.80
665.02	38618.84
665.16	38462.02
665.30	38703.10
665.44	38565.01
665.59	38567.35
665.73	38356.70
665.87	38300.53
666.01	37844.12
666.15	38803.74
666.29	37909.66
666.44	38410.53
666.58	38485.43
666.72	38087.54
666.86	38052.43
667.00	37993.92
667.14	37886.25
667.28	38150.73
667.43	37787.95
667.57	38040.73
667.71	37715.39
667.85	37741.14
667.99	37436.87
668.13	37738.80
668.27	37277.71
668.41	37371.33
668.56	37310.48
668.70	37113.87
668.84	36741.73
668.98	36851.73
669.12	37198.13
669.26	36950.04
669.40	37244.94
669.54	36884.50
669.68	36613.00
669.82	36945.36
669.96	36332.14
670.10	36142.55
670.25	36701.94
670.39	37020.25
670.53	37090.47
670.67	36748.75
670.81	36863.44
670.95	36245.54
671.09	36034.89
671.23	35728.28
671.37	36158.94
671.51	35941.27
671.65	35903.82
671.79	35976.37
671.93	35967.01
672.07	35718.92
672.21	35637.00
672.35	35260.17
672.49	35587.85
672.63	35653.38
672.77	35328.05
672.91	35601.89
673.05	35243.79
673.19	35175.91
673.33	35061.22
673.47	35021.44
673.61	34670.36
673.75	34448.00
673.89	34548.65
674.03	34607.16
674.17	34518.22
674.31	34412.90
674.45	33954.15
674.59	34426.94
674.73	34061.82
674.87	33556.26
675.01	33640.52
675.15	33638.18
675.29	33937.77
675.43	33570.30
675.56	34139.05
675.70	33663.93
675.84	33560.94
675.98	32580.26
676.12	33188.80
676.26	33586.69
676.40	32929.00
676.54	32687.92
676.68	33041.34
676.82	32580.26
676.96	33474.34
677.10	32517.06
677.23	32531.11
677.37	32601.32
677.51	32786.22
677.65	32446.85
677.79	32407.06
677.93	32573.24
678.07	31821.92
678.21	32194.07
678.34	31744.69
678.48	31693.19
678.62	31519.99
678.76	31428.71
678.90	31435.74
679.04	31555.10
679.18	31648.72
679.31	30981.67
679.45	30892.73
679.59	31215.72
679.73	30984.01
679.87	30719.53
680.00	30637.61
680.14	30899.75
680.28	30817.83
680.42	30253.76
680.56	30703.15
680.70	30057.16
680.83	30300.58
680.97	30225.68
681.11	30267.81
681.25	30120.35
681.39	29298.83
681.52	29689.70
681.66	29575.01
681.80	29312.87
681.94	29104.56
682.07	29242.65
682.21	29027.32
682.35	28975.83
682.49	29237.97
682.62	28444.53
682.76	28863.49
682.90	28968.81
683.04	28617.73
683.17	28666.88
683.31	28507.72
683.45	28217.50
683.59	27873.44
683.72	27772.80
683.86	28297.08
684.00	28240.90
684.13	27662.79
684.27	27543.42
684.41	27590.24
684.55	27520.02
684.68	27590.24
684.82	27016.80
684.96	27072.98
685.09	27601.94
685.23	26895.10
685.37	27133.83
685.50	27185.32
685.64	26984.04
685.78	26740.62
685.91	26565.08
686.05	26415.29
686.19	25972.92
686.32	26387.20
686.46	25914.41
686.60	25441.62
686.73	26038.46
686.87	25982.29
687.01	26120.38
687.14	25558.65
687.28	25603.12
687.42	25771.64
687.55	25289.49
687.69	25221.61
687.82	25228.63
687.96	24779.25
688.10	25252.04
688.23	25001.60
688.37	25219.27
688.50	25483.75
688.64	24886.92
688.78	24491.37
688.91	24521.79
689.05	24690.31
689.18	24229.23
689.32	23894.53
689.46	23943.68
689.59	24203.48
689.73	24140.29
689.86	24154.33
690.00	23435.78
690.13	23908.57
690.27	23920.28
690.41	23660.48
690.54	23103.43
690.68	23281.31
690.81	23096.41
690.95	22944.27
691.08	22876.40
691.22	22834.27
691.35	22750.01
691.49	23246.20
691.62	22986.40
691.76	22417.65
691.89	22181.26
692.03	21972.95
692.16	22258.49
692.30	22284.24
692.43	22272.54
692.57	21879.33
692.70	21783.37
692.84	21675.70
692.97	21570.38
693.11	21575.06
693.24	21245.04
693.38	21406.54
693.51	21181.85
693.65	21113.97
693.78	20938.43
693.92	20896.30
694.05	21032.05
694.19	20835.45
694.32	20886.94
694.45	21233.34
694.59	20620.12
694.72	21013.33
694.86	20240.95
694.99	20247.97
695.13	19915.62
695.26	19878.17
695.39	19866.47
695.53	19871.15
695.66	19981.15
695.80	19676.88
695.93	19789.23
696.07	19618.37
696.20	19264.95
696.33	19176.01
696.47	19147.92
696.60	19370.27
696.73	19171.33
696.87	19176.01
697.00	18948.98
697.14	18864.72
697.27	18862.38
697.40	19073.03
697.54	18843.65
697.67	18609.60
697.80	18541.72
697.94	18230.43
698.07	18324.05
698.21	18038.51
698.34	18143.83
698.47	17935.53
698.61	17579.76
698.74	17818.50
698.87	17909.78
699.01	17752.96
699.14	17640.62
699.27	17509.55
699.40	17645.30
699.54	17422.95
699.67	17582.10
699.80	17123.36
699.94	17383.16
700.07	16987.61
700.20	17198.26
700.34	16915.05
700.47	16713.77
700.60	17095.27
700.73	16823.77
700.87	16627.17
701.00	16737.17
701.13	16390.77
701.26	16343.96
701.40	16252.68
701.53	16049.05
701.66	16154.38
701.79	16224.59
701.93	15838.41
702.06	15594.99
702.19	15499.03
702.32	15822.02
702.46	15854.79
702.59	15674.57
702.72	15632.44
702.85	15435.83
702.99	15585.63
703.12	15316.47
703.25	15222.84
703.38	15096.46
703.51	15054.33
703.65	14890.49
703.78	14855.38
703.91	14771.12
704.04	14918.57
704.17	14579.20
704.31	14707.93
704.44	14560.47
704.57	14633.03
704.70	14279.61
704.83	14331.10
704.96	14115.77
705.10	14267.91
705.23	13905.12
>>>>>End Processed Spectral Data<<<<<
