SpectraSuite Data File
++++++++++++++++++++++++++++++++++++
Date: Fri Oct 25 10:44:02 EDT 2013
User: price-jones
Dark Spectrum Present: No
Reference Spectrum Present: No
Number of Sampled Component Spectra: 1
Spectrometers: USB2+H05261
Integration Time (usec): 100000 (USB2+H05261)
Spectra Averaged: 1 (USB2+H05261)
Boxcar Smoothing: 0 (USB2+H05261)
Correct for Electrical Dark: No (USB2+H05261)
Strobe/Lamp Enabled: No (USB2+H05261)
Correct for Detector Non-linearity: No (USB2+H05261)
Correct for Stray Light: No (USB2+H05261)
Number of Pixels in Processed Spectrum: 2048
>>>>>Begin Processed Spectral Data<<<<<
365.73	51.49
365.92	51.49
366.12	51.49
366.32	42.13
366.52	16.38
366.72	60.85
366.91	30.43
367.11	7.02
367.31	0.00
367.51	18.72
367.70	0.00
367.90	14.04
368.10	28.09
368.30	9.36
368.49	11.70
368.69	100.64
368.89	21.06
369.09	2.34
369.28	30.43
369.48	0.00
369.68	72.56
369.87	39.79
370.07	112.35
370.27	152.13
370.47	210.65
370.66	372.15
370.86	367.46
371.06	472.79
371.25	440.02
371.45	383.85
371.65	552.37
371.84	468.11
372.04	444.70
372.24	526.62
372.44	475.13
372.63	557.05
372.83	571.09
373.03	514.92
373.22	540.66
373.42	475.13
373.62	493.85
373.81	528.96
374.01	594.50
374.21	557.05
374.40	568.75
374.60	608.54
374.79	594.50
374.99	535.98
375.19	493.85
375.38	594.50
375.58	575.77
375.78	571.09
375.97	608.54
376.17	601.52
376.37	631.94
376.56	622.58
376.76	622.58
376.95	627.26
377.15	732.59
377.35	592.16
377.54	725.57
377.74	615.56
377.93	662.37
378.13	697.48
378.33	660.03
378.52	723.23
378.72	746.63
378.91	744.29
379.11	683.44
379.31	655.35
379.50	653.01
379.70	718.54
379.89	688.12
380.09	826.21
380.28	819.19
380.48	653.01
380.68	657.69
380.87	727.91
381.07	777.06
381.26	702.16
381.46	688.12
381.65	791.10
381.85	741.95
382.04	676.41
382.24	685.78
382.43	730.25
382.63	760.67
382.83	711.52
383.02	706.84
383.22	765.36
383.41	760.67
383.61	770.04
383.80	826.21
384.00	746.63
384.19	816.85
384.39	833.23
384.58	835.57
384.78	812.17
384.97	823.87
385.17	849.61
385.36	917.49
385.56	795.78
385.75	772.38
385.95	819.19
386.14	891.74
386.34	812.17
386.53	840.25
386.72	877.70
386.92	905.79
387.11	910.47
387.31	933.87
387.50	844.93
387.70	880.04
387.89	877.70
388.09	889.40
388.28	898.77
388.48	954.94
388.67	973.66
388.86	875.36
389.06	945.58
389.25	1046.22
389.45	1034.52
389.64	1039.20
389.84	1090.69
390.03	1013.45
390.22	990.05
390.42	959.62
390.61	978.34
390.81	1074.31
391.00	961.96
391.19	1090.69
391.39	1027.50
391.58	1135.16
391.78	1060.26
391.97	1053.24
392.16	1067.28
392.36	1086.01
392.55	964.30
392.75	1020.47
392.94	1055.58
393.13	992.39
393.33	1020.47
393.52	1039.20
393.71	1074.31
393.91	1142.18
394.10	1111.75
394.29	1172.61
394.49	1188.99
394.68	1198.35
394.88	1242.82
395.07	1280.27
395.26	1221.76
395.46	1324.74
395.65	1296.66
395.84	1348.15
396.04	1268.57
396.23	1233.46
396.42	1165.59
396.62	1167.93
396.81	1261.55
397.00	1245.16
397.19	1235.80
397.39	1282.61
397.58	1488.58
397.77	1474.54
397.97	1488.58
398.16	1526.03
398.35	1444.11
398.55	1547.09
398.74	1565.82
398.93	1706.25
399.12	1551.78
399.32	1624.33
399.51	1633.69
399.70	1673.48
399.90	1650.08
400.09	1603.27
400.28	1673.48
400.47	1778.81
400.67	1692.21
400.86	1750.72
401.05	1729.66
401.24	1781.15
401.44	1771.79
401.63	1839.66
401.82	1673.48
402.01	1860.73
402.21	1802.21
402.40	1778.81
402.59	1849.02
402.78	1837.32
402.97	1802.21
403.17	1823.28
403.36	1816.26
403.55	1909.88
403.74	1937.96
403.93	1870.09
404.13	1961.37
404.32	1804.55
404.51	1956.69
404.70	1916.90
404.89	2036.27
405.09	2024.56
405.28	2157.97
405.47	1996.48
405.66	2019.88
405.85	1970.73
406.05	2090.10
406.24	2045.63
406.43	2094.78
406.62	2139.25
406.81	2249.25
407.00	2202.44
407.20	2167.34
407.39	2066.69
407.58	2186.06
407.77	2106.48
407.96	2211.81
408.15	2303.09
408.34	2394.37
408.54	2317.13
408.73	2382.67
408.92	2366.28
409.11	2380.32
409.30	2466.92
409.49	2258.62
409.68	2321.81
409.87	2319.47
410.07	2415.43
410.26	2413.09
410.45	2368.62
410.64	2593.31
410.83	2548.84
411.02	2553.52
411.21	2597.99
411.40	2679.91
411.59	2738.43
411.78	2597.99
411.98	2738.43
412.17	2895.24
412.36	2787.58
412.55	2766.51
412.74	2752.47
412.93	2693.96
413.12	2789.92
413.31	3009.93
413.50	3021.63
413.69	2958.44
413.88	2979.50
414.07	2871.84
414.26	3148.02
414.45	3185.47
414.64	3000.57
414.83	3295.47
415.02	3180.79
415.22	3187.81
415.41	3220.58
415.60	3169.09
415.79	3246.32
415.98	3370.37
416.17	3351.65
416.36	3400.80
416.55	3393.78
416.74	3412.50
416.93	3239.30
417.12	3463.99
417.31	3346.97
417.50	3377.39
417.69	3562.30
417.88	3534.21
418.07	3559.95
418.26	3562.30
418.45	3529.53
418.64	3805.71
418.83	3716.77
419.02	3538.89
419.21	3719.11
419.39	3686.34
419.58	3693.37
419.77	3749.54
419.96	3733.15
420.15	3873.59
420.34	3864.22
420.53	3962.53
420.72	4016.36
420.91	3777.62
421.10	3957.85
421.29	3901.67
421.48	3967.21
421.67	4152.11
421.86	3866.56
422.05	4086.58
422.24	3929.76
422.43	3983.59
422.61	4004.66
422.80	3925.08
422.99	3946.14
423.18	4081.89
423.37	4074.87
423.56	4077.21
423.75	4156.79
423.94	4159.13
424.13	3775.28
424.32	3957.85
424.50	4105.30
424.69	4131.05
424.88	4269.14
425.07	4121.68
425.26	4067.85
425.45	4007.00
425.64	4117.00
425.83	3962.53
426.01	4325.31
426.20	4119.34
426.39	4271.48
426.58	3936.78
426.77	4070.19
426.96	4166.15
427.15	4091.26
427.33	4219.99
427.52	4100.62
427.71	4248.07
427.90	4276.16
428.09	4308.93
428.28	4365.10
428.46	4196.58
428.65	4273.82
428.84	4418.93
429.03	4355.74
429.22	4372.12
429.40	4212.96
429.59	4311.27
429.78	4124.02
429.97	4028.06
430.16	4002.32
430.34	4217.65
430.53	4278.50
430.72	4449.36
430.91	4409.57
431.10	4329.99
431.28	4727.88
431.47	4802.78
431.66	4767.67
431.85	4713.84
432.03	4716.18
432.22	4882.36
432.41	4873.00
432.60	4931.51
432.79	4905.76
432.97	5076.62
433.16	5069.60
433.35	4851.93
433.54	4807.46
433.72	4791.08
433.91	4821.50
434.10	4830.87
434.28	4985.34
434.47	5062.58
434.66	5132.79
434.85	4957.25
435.03	5294.29
435.22	5109.39
435.41	5245.14
435.59	5170.24
435.78	5310.68
435.97	5341.10
436.16	5474.51
436.34	5376.21
436.53	5247.48
436.72	5423.02
436.90	5406.64
437.09	5584.52
437.28	5046.20
437.46	5432.38
437.65	5366.85
437.84	5317.70
438.02	5261.52
438.21	5273.23
438.40	5280.25
438.58	5460.47
438.77	5518.98
438.96	5582.18
439.14	5844.32
439.33	5975.39
439.52	5795.17
439.70	5607.92
439.89	5919.21
440.08	5963.68
440.26	5944.96
440.45	5909.85
440.63	6134.54
440.82	6118.16
441.01	6150.93
441.19	6228.17
441.38	6274.98
441.57	6368.60
441.75	6293.70
441.94	6469.24
442.12	6375.62
442.31	6506.69
442.50	6499.67
442.68	6480.94
442.87	6480.94
443.05	6427.11
443.24	6827.34
443.43	6532.44
443.61	6733.72
443.80	6558.18
443.98	6642.44
444.17	6478.60
444.35	6796.92
444.54	6785.21
444.73	6843.73
444.91	6778.19
445.10	6619.04
445.28	6787.55
445.47	6607.33
445.65	6750.10
445.84	6619.04
446.02	7014.59
446.21	6944.37
446.39	6635.42
446.58	6913.94
446.77	6953.73
446.95	6946.71
447.14	7030.97
447.32	6942.03
447.51	6839.05
447.69	6700.95
447.88	6991.18
448.06	6846.07
448.25	6909.26
448.43	7108.21
448.62	6956.07
448.80	7033.31
448.99	7176.08
449.17	7192.47
449.36	7115.23
449.54	7248.64
449.73	7337.58
449.91	7344.60
450.10	7300.13
450.28	7552.91
450.46	7501.42
450.65	7330.56
450.83	7588.02
451.02	7302.47
451.20	7428.86
451.39	7578.65
451.57	7571.63
451.76	7463.97
451.94	7541.21
452.13	7545.89
452.31	7419.50
452.49	7236.94
452.68	7536.52
452.86	7454.61
453.05	7346.94
453.23	7529.50
453.42	7506.10
453.60	7485.03
453.78	7789.30
453.97	7470.99
454.15	7604.40
454.34	7618.44
454.52	7721.43
454.70	7915.69
454.89	7892.29
455.07	7815.05
455.26	8021.02
455.44	8028.04
455.62	8053.78
455.81	8088.89
455.99	8042.08
456.17	8287.84
456.36	8159.11
456.54	8217.62
456.73	8318.26
456.91	8386.14
457.09	8318.26
457.28	8601.47
457.46	8285.50
457.64	8634.24
457.83	8224.64
458.01	8322.94
458.19	8599.13
458.38	8533.59
458.56	8552.32
458.74	8416.57
458.93	8507.85
459.11	8510.19
459.29	8709.13
459.48	8765.31
459.66	8573.38
459.84	8652.96
460.03	8638.92
460.21	8697.43
460.39	8910.42
460.57	8692.75
460.76	8819.14
460.94	9008.72
461.12	8933.82
461.31	8849.57
461.49	9001.70
461.67	8936.17
461.85	9287.25
462.04	9104.68
462.22	9535.34
462.40	9146.81
462.59	9301.29
462.77	9132.77
462.95	9455.76
463.13	9350.44
463.32	9404.27
463.50	9298.95
463.68	9259.16
463.86	9404.27
464.05	9085.96
464.23	9252.14
464.41	9495.55
464.59	9317.67
464.78	9619.60
464.96	9327.03
465.14	9275.54
465.32	9575.13
465.50	9699.18
465.69	9643.01
465.87	9465.13
466.05	9659.39
466.23	9469.81
466.41	9788.12
466.60	9668.75
466.78	9364.48
466.96	9547.05
467.14	9654.71
467.32	9724.93
467.51	9806.84
467.69	9631.30
467.87	9741.31
468.05	9921.53
468.23	9661.73
468.41	9811.53
468.60	9856.00
468.78	9745.99
468.96	9745.99
469.14	10162.61
469.32	9989.41
469.50	9652.37
469.69	10071.33
469.87	10050.26
470.05	10019.83
470.23	10178.99
470.41	10090.05
470.59	10293.68
470.77	10162.61
470.95	10368.57
471.14	10544.11
471.32	10333.47
471.50	10665.82
471.68	10684.55
471.86	10871.79
472.04	10841.36
472.22	11005.20
472.40	10642.42
472.58	10738.38
472.77	10747.74
472.95	10904.56
473.13	11323.51
473.31	10668.16
473.49	10956.05
473.67	10979.45
473.85	11000.52
474.03	11288.40
474.21	11082.44
474.39	11454.58
474.57	11353.94
474.75	11620.76
474.93	11700.34
475.12	11606.72
475.30	11833.75
475.48	11496.71
475.66	11669.91
475.84	11646.51
476.02	11660.55
476.20	11728.42
476.38	12020.99
476.56	12292.49
476.74	12369.73
476.92	12245.68
477.10	12381.43
477.28	12552.29
477.46	12531.23
477.64	12589.74
477.82	12741.88
478.00	13004.02
478.18	12987.63
478.36	12912.74
478.54	12952.52
478.72	13336.37
478.90	13369.14
479.08	13385.52
479.26	13378.50
479.44	13605.53
479.62	13802.14
479.80	13764.69
479.98	13769.37
480.16	14237.48
480.34	14178.97
480.52	14434.08
480.70	14052.58
480.88	13958.96
481.06	14235.14
481.24	14644.73
481.41	14618.99
481.59	15016.88
481.77	15124.54
481.95	14846.02
482.13	14899.85
482.31	15000.49
482.49	15674.57
482.67	15257.95
482.85	15475.62
483.03	15351.57
483.21	15859.47
483.39	15936.71
483.57	15917.98
483.74	16145.02
483.92	15978.84
484.10	16039.69
484.28	16435.24
484.46	16491.41
484.64	16996.97
484.82	16540.57
485.00	16470.35
485.18	16882.28
485.35	16840.15
485.53	16746.53
485.71	16624.83
485.89	16966.54
486.07	16926.75
486.25	17308.26
486.43	17071.87
486.61	17970.63
486.78	17729.56
486.96	17919.14
487.14	18192.98
487.32	18616.62
487.50	18555.77
487.68	18640.03
487.85	18874.08
488.03	19131.54
488.21	19349.21
488.39	19339.85
488.57	19293.04
488.75	19405.38
488.92	19641.78
489.10	20201.16
489.28	20149.67
489.46	20299.47
489.64	20379.04
489.81	20805.02
489.99	20720.76
490.17	20957.16
490.35	20996.95
490.53	21067.16
490.70	21404.20
490.88	21266.11
491.06	21727.19
491.24	21612.51
491.41	21551.65
491.59	21715.49
491.77	21308.24
491.95	21635.91
492.13	22216.36
492.30	22211.68
492.48	22256.15
492.66	22326.37
492.84	22527.66
493.01	22696.17
493.19	22735.96
493.37	23068.32
493.54	22951.29
493.72	23140.88
493.90	23374.93
494.08	23534.09
494.25	23957.72
494.43	23871.12
494.61	24102.84
494.79	24226.89
494.96	24180.07
495.14	24004.53
495.32	24472.64
495.49	24374.34
495.67	24503.07
495.85	24802.66
496.02	24805.00
496.20	25642.91
496.38	25380.77
496.55	25345.66
496.73	25912.07
496.91	25797.38
497.09	25869.94
497.26	25951.86
497.44	25816.11
497.62	25872.28
497.79	25916.75
497.97	25942.50
498.14	26316.98
498.32	26377.84
498.50	26356.77
498.67	26892.76
498.85	26822.54
499.03	26822.54
499.20	27140.85
499.38	27068.30
499.56	27187.66
499.73	27014.46
499.91	27370.22
500.08	27316.39
500.26	26965.31
500.44	27402.99
500.61	27372.57
500.79	27159.58
500.97	27496.61
501.14	28184.73
501.32	27721.30
501.49	27742.37
501.67	28088.77
501.84	28404.74
502.02	28364.95
502.20	28435.17
502.37	28807.31
502.55	28524.11
502.72	28664.54
502.90	29060.09
503.07	28980.51
503.25	29017.96
503.43	28851.78
503.60	29001.58
503.78	29235.63
503.95	29027.32
504.13	29392.45
504.30	29364.36
504.48	29729.48
504.65	29933.11
504.83	30029.07
505.01	30366.11
505.18	30066.52
505.36	30637.61
505.53	30527.61
505.71	30953.58
505.88	30902.09
506.06	29942.47
506.23	30501.86
506.41	30141.42
506.58	30455.05
506.76	30817.83
506.93	31236.79
507.11	30946.56
507.28	30850.60
507.46	30342.70
507.63	30827.20
507.81	31019.12
507.98	31180.62
508.16	30923.16
508.33	31583.19
508.50	31510.63
508.68	31751.71
508.85	32327.48
509.03	31845.33
509.20	31728.30
509.38	31962.36
509.55	32240.88
509.73	31868.73
509.90	32203.43
510.08	32123.85
510.25	32313.44
510.42	32444.51
510.60	32917.29
510.77	32638.77
510.95	32861.12
511.12	32840.06
511.30	32802.61
511.47	33228.59
511.64	33340.93
511.82	33153.69
511.99	33174.75
512.17	33530.51
512.34	33317.53
512.51	33450.94
512.69	33663.93
512.86	33565.62
513.04	33834.78
513.21	34082.88
513.38	33371.36
513.56	33848.83
513.73	33722.44
513.90	33741.16
514.08	33574.98
514.25	34370.77
514.43	34129.69
514.60	34089.90
514.77	34316.93
514.95	34508.86
515.12	34174.16
515.29	34176.50
515.47	35110.38
515.64	34824.83
515.81	34595.46
515.99	34689.08
516.16	34621.20
516.33	34251.40
516.51	34583.76
516.68	33736.48
516.85	34288.85
517.03	34415.24
517.20	34625.89
517.37	35147.82
517.54	35419.33
517.72	34932.50
517.89	35101.01
518.06	34532.26
518.24	35002.71
518.41	35344.43
518.58	35742.32
518.75	35585.50
518.93	35711.89
519.10	35674.45
519.27	35821.90
519.45	36491.29
519.62	36095.74
519.79	36172.98
519.96	36437.46
520.14	36376.61
520.31	36226.81
520.48	36629.38
520.65	36467.89
520.83	37022.59
521.00	36968.76
521.17	37071.75
521.34	37043.66
521.52	37092.81
521.69	37141.96
521.86	37247.29
522.03	37186.43
522.20	37083.45
522.38	37275.37
522.55	37104.51
522.72	37425.17
522.89	37195.79
523.07	37696.67
523.24	37589.00
523.41	37759.86
523.58	38274.78
523.75	38101.58
523.92	38007.96
524.10	38466.70
524.27	38333.29
524.44	38361.38
524.61	38906.73
524.78	38412.87
524.96	38146.05
525.13	38478.41
525.30	38768.63
525.47	38738.21
525.64	38864.60
525.81	38579.05
525.98	38211.59
526.16	38244.35
526.33	38094.56
526.50	38536.92
526.67	37851.14
526.84	38293.50
527.01	38337.98
527.18	39033.11
527.36	39206.31
527.53	39222.70
527.70	39414.62
527.87	39201.63
528.04	38775.66
528.21	39414.62
528.38	39519.95
528.55	39969.33
528.72	39772.72
528.89	40046.57
529.07	39714.21
529.24	39569.10
529.41	39718.89
529.58	39555.05
529.75	39538.67
529.92	40048.91
530.09	40414.03
530.26	39896.77
530.43	40156.57
530.60	39641.65
530.77	40226.79
530.94	40254.87
531.11	40437.44
531.28	40404.67
531.46	40687.87
531.63	40645.74
531.80	40252.53
531.97	40498.29
532.14	40133.17
532.31	40191.68
532.48	40498.29
532.65	40856.39
532.82	40535.74
532.99	40680.85
533.16	40769.79
533.33	41027.25
533.50	40928.95
533.67	40561.48
533.84	40818.94
534.01	40392.97
534.18	40926.61
534.35	41579.62
534.52	41076.40
534.69	41572.60
534.86	41200.45
535.03	41284.71
535.20	41804.31
535.37	41577.28
535.54	42171.77
535.71	41677.92
535.88	41904.95
536.05	41053.00
536.22	41935.38
536.38	41830.05
536.55	41855.80
536.72	41525.78
536.89	41163.00
537.06	41876.86
537.23	42223.26
537.40	42167.09
537.57	41806.65
537.74	42106.24
537.91	42487.74
538.08	42017.30
538.25	41811.33
538.42	42246.67
538.59	42096.88
538.75	41940.06
538.92	42010.28
539.09	42492.43
539.26	42181.13
539.43	42267.73
539.60	42557.96
539.77	42445.62
539.94	42117.94
540.11	41942.40
540.28	42454.98
540.44	42263.05
540.61	42115.60
540.78	42344.97
540.95	42167.09
541.12	42326.25
541.29	42801.38
541.46	42590.73
541.62	42497.11
541.79	43187.56
541.96	42653.92
542.13	43023.73
542.30	42712.44
542.47	43143.09
542.63	43398.21
542.80	42897.34
542.97	43086.92
543.14	43398.21
543.31	43714.19
543.48	43650.99
543.64	44341.45
543.81	44311.02
543.98	43718.87
544.15	43732.91
544.32	43821.85
544.48	44137.82
544.65	44016.11
544.82	44013.77
544.99	43707.16
545.16	43543.33
545.32	44121.44
545.49	44287.62
545.66	44708.91
545.83	44655.08
546.00	44671.46
546.16	44205.70
546.33	44053.56
546.50	44182.29
546.67	44711.25
546.83	43985.69
547.00	44076.97
547.17	44133.14
547.34	43950.58
547.50	43840.57
547.67	44816.58
547.84	44388.26
548.00	44795.51
548.17	44680.83
548.34	44472.52
548.51	45027.23
548.67	44865.73
548.84	44542.74
549.01	44463.16
549.18	44608.27
549.34	44683.17
549.51	44980.42
549.68	44760.40
549.84	44942.97
550.01	45263.62
550.18	44973.39
550.34	45420.44
550.51	44800.19
550.68	44823.60
550.84	44521.67
551.01	45158.30
551.18	44968.71
551.34	45076.38
551.51	45034.25
551.68	45488.31
551.84	45291.71
552.01	45071.70
552.18	45460.23
552.34	44823.60
552.51	45043.61
552.68	44889.13
552.84	45717.68
553.01	45109.14
553.18	45553.85
553.34	44879.77
553.51	45170.00
553.67	45626.40
553.84	45312.77
554.01	45270.64
554.17	45406.39
554.34	45764.49
554.51	45787.90
554.67	46017.27
554.84	45713.00
555.00	45581.93
555.17	45457.88
555.33	45612.36
555.50	45586.61
555.67	45303.41
555.83	45720.02
556.00	45450.86
556.16	45947.06
556.33	45546.82
556.50	45422.78
556.66	45500.01
556.83	45382.99
556.99	46263.03
557.16	45855.78
557.32	46178.77
557.49	46230.26
557.65	45827.69
557.82	45879.18
557.98	46134.30
558.15	45837.05
558.32	46260.69
558.48	45867.48
558.65	46012.59
558.81	45750.45
558.98	46080.47
559.14	45509.38
559.31	45467.25
559.47	46007.91
559.64	46094.51
559.80	46068.76
559.97	46314.52
560.13	45741.09
560.30	46092.17
560.46	46223.24
560.63	46099.19
560.79	46307.50
560.96	46483.04
561.12	46550.91
561.29	46003.23
561.45	46164.73
561.61	46403.46
561.78	46024.29
561.94	46604.75
562.11	46005.57
562.27	46230.26
562.44	46059.40
562.60	46412.82
562.77	46337.93
562.93	46335.59
563.10	46534.53
563.26	45918.97
563.42	46752.20
563.59	46307.50
563.75	46131.96
563.92	46869.23
564.08	46244.30
564.24	46866.89
564.41	46623.47
564.57	46298.14
564.74	46059.40
564.90	46602.41
565.07	46546.23
565.23	46501.76
565.39	46370.69
565.56	46382.40
565.72	46190.47
565.88	46129.62
566.05	46770.93
566.21	46440.91
566.38	46635.17
566.54	46651.56
566.70	46979.23
566.87	47143.07
567.03	46817.74
567.19	47054.13
567.36	47140.73
567.52	46541.55
567.68	46808.37
567.85	46438.57
568.01	46873.91
568.17	46389.42
568.34	46768.58
568.50	46726.46
568.66	46845.82
568.83	47056.47
568.99	46358.99
569.15	46789.65
569.32	46646.88
569.48	46394.10
569.64	47154.77
569.81	46663.26
569.97	46925.40
570.13	46483.04
570.30	46394.10
570.46	46431.55
570.62	46010.25
570.78	46213.88
570.95	46199.83
571.11	46555.60
571.27	46658.58
571.43	46319.20
571.60	46789.65
571.76	46574.32
571.92	46810.71
572.09	46864.55
572.25	46461.97
572.41	46450.27
572.57	46717.09
572.74	47388.83
572.90	46653.90
573.06	46880.93
573.22	46429.21
573.38	47311.59
573.55	47089.24
573.71	46731.14
573.87	46864.55
574.03	46667.94
574.20	46651.56
574.36	47203.92
574.52	46677.30
574.68	47210.95
574.84	46546.23
575.01	46649.22
575.17	46899.65
575.33	46761.56
575.49	46525.17
575.65	47250.74
575.82	46902.00
575.98	46845.82
576.14	46728.80
576.30	47114.98
576.46	46806.03
576.62	46649.22
576.79	46864.55
576.95	46525.17
577.11	46979.23
577.27	47154.77
577.43	46909.02
577.59	46955.83
577.75	46532.19
577.92	46490.06
578.08	46230.26
578.24	46258.35
578.40	46642.20
578.56	46761.56
578.72	46911.36
578.88	46848.16
579.04	47161.79
579.21	46930.08
579.37	46791.99
579.53	46775.61
579.69	46754.54
579.85	46803.69
580.01	47208.61
580.17	47016.68
580.33	46761.56
580.49	46368.35
580.65	47033.07
580.82	47082.22
580.98	46883.27
581.14	46637.51
581.30	47091.58
581.46	46958.17
581.62	47192.22
581.78	46525.17
581.94	47210.95
582.10	46808.37
582.26	47262.44
582.42	46770.93
582.58	46712.41
582.74	47040.09
582.90	46749.86
583.06	46885.61
583.22	47264.78
583.38	47241.37
583.54	47107.96
583.70	47316.27
583.86	46906.68
584.02	46873.91
584.18	46782.63
584.34	46829.44
584.50	47117.32
584.66	46490.06
584.82	46817.74
584.98	47250.74
585.14	47538.62
585.30	47168.82
585.46	46876.25
585.62	46623.47
585.78	46822.42
585.94	46534.53
586.10	46834.12
586.26	46476.02
586.42	47086.90
586.58	47313.93
586.74	46787.31
586.90	46934.76
587.06	46747.52
587.22	47082.22
587.38	46796.67
587.54	46904.34
587.70	47295.21
587.86	46965.19
588.02	47178.18
588.18	47040.09
588.34	46841.14
588.49	46703.05
588.65	46333.24
588.81	46663.26
588.97	46761.56
589.13	46543.89
589.29	46902.00
589.45	46808.37
589.61	46717.09
589.77	46735.82
589.93	46890.29
590.08	47143.07
590.24	47243.71
590.40	47140.73
590.56	47435.64
590.72	47171.16
590.88	47365.42
591.04	46939.44
591.20	47470.75
591.35	47349.04
591.51	47393.51
591.67	47063.49
591.83	47089.24
591.99	47084.56
592.15	46972.21
592.31	46990.94
592.46	47480.11
592.62	47150.09
592.78	47082.22
592.94	47730.54
593.10	47030.72
593.26	47150.09
593.41	47246.05
593.57	46733.48
593.73	46995.62
593.89	46740.50
594.05	46988.60
594.20	47407.55
594.36	46883.27
594.52	47152.43
594.68	47384.15
594.84	46817.74
594.99	47009.66
595.15	46670.28
595.31	46827.10
595.47	47241.37
595.62	46974.55
595.78	47063.49
595.94	47791.40
596.10	47002.64
596.25	47035.41
596.41	47014.34
596.57	46974.55
596.73	47327.97
596.88	46784.97
597.04	47150.09
597.20	46866.89
597.36	47239.03
597.51	47702.46
597.67	46983.91
597.83	47400.53
597.99	47318.61
598.14	47213.29
598.30	46894.97
598.46	46883.27
598.61	47140.73
598.77	46834.12
598.93	47194.56
599.09	47313.93
599.24	47304.57
599.40	47227.33
599.56	47449.68
599.71	46831.78
599.87	47236.69
600.03	47110.30
600.18	46831.78
600.34	46944.12
600.50	46876.25
600.65	47075.19
600.81	46904.34
600.97	47381.80
601.12	47381.80
601.28	47187.54
601.44	47000.30
601.59	47023.70
601.75	46705.39
601.91	46965.19
602.06	46932.42
602.22	46995.62
602.37	46941.78
602.53	47180.52
602.69	46988.60
602.84	46843.48
603.00	46857.52
603.16	47295.21
603.31	47182.86
603.47	46946.47
603.62	47072.85
603.78	47227.33
603.94	47077.54
604.09	47058.81
604.25	47007.32
604.40	47166.48
604.56	46827.10
604.71	46740.50
604.87	46923.06
605.03	47248.39
605.18	46555.60
605.34	46789.65
605.49	46562.62
605.65	46969.87
605.80	46841.14
605.96	47079.88
606.12	47049.45
606.27	47222.65
606.43	46588.36
606.58	47267.12
606.74	46909.02
606.89	46749.86
607.05	47199.24
607.20	46993.28
607.36	46637.51
607.51	46855.18
607.67	46822.42
607.82	46850.50
607.98	46478.36
608.13	46363.67
608.29	46461.97
608.44	46564.96
608.60	46021.95
608.75	46394.10
608.91	46733.48
609.06	46593.04
609.22	46773.27
609.37	46143.66
609.53	46953.49
609.68	46424.53
609.84	46307.50
609.99	46824.76
610.15	46115.58
610.30	45731.73
610.46	45996.21
610.61	46122.60
610.76	46422.19
610.92	46300.48
611.07	46323.88
611.23	46337.93
611.38	46401.12
611.54	46181.11
611.69	46120.26
611.84	45925.99
612.00	45874.50
612.15	45879.18
612.31	46464.32
612.46	45918.97
612.62	46202.18
612.77	46382.40
612.92	46466.66
613.08	46113.23
613.23	45968.12
613.39	45708.32
613.54	45801.94
613.69	45792.58
613.85	45738.75
614.00	45773.86
614.15	45879.18
614.31	45848.75
614.46	46000.89
614.62	45794.92
614.77	45975.14
614.92	46036.00
615.08	45940.04
615.23	46150.68
615.38	45518.74
615.54	45846.41
615.69	45577.25
615.84	45691.94
616.00	45242.56
616.15	45549.17
616.30	45235.53
616.46	45528.10
616.61	45584.27
616.76	45401.71
616.92	45322.13
617.07	45331.50
617.22	45230.85
617.37	45174.68
617.53	45610.02
617.68	45710.66
617.83	45436.82
617.99	45694.28
618.14	45113.83
618.29	45120.85
618.45	44905.52
618.60	45148.93
618.75	44910.20
618.90	44905.52
619.06	45188.72
619.21	45392.35
619.36	45610.02
619.51	45462.57
619.67	45298.73
619.82	44975.73
619.97	45347.88
620.12	44804.88
620.28	44856.37
620.43	44989.78
620.58	44985.10
620.73	44807.22
620.89	44577.84
621.04	44854.03
621.19	45162.98
621.34	45104.46
621.49	44863.39
621.65	44725.30
621.80	44905.52
621.95	44582.52
622.10	44580.18
622.25	44626.99
622.41	44428.05
622.56	44460.82
622.71	44608.27
622.86	44608.27
623.01	44954.67
623.16	44577.84
623.32	44334.43
623.47	44257.19
623.62	44142.50
623.77	44397.62
623.92	44493.58
624.07	44240.81
624.23	44313.36
624.38	44236.12
624.53	44133.14
624.68	44385.92
624.83	44048.88
624.98	44247.83
625.13	43885.04
625.29	43863.98
625.44	43796.10
625.59	43777.38
625.74	43845.26
625.89	43365.45
626.04	43622.90
626.19	43550.35
626.34	43711.84
626.49	43906.11
626.65	43997.39
626.80	44285.28
626.95	43739.93
627.10	43606.52
627.25	43679.08
627.40	43304.59
627.55	43519.92
627.70	43044.79
627.85	43182.88
628.00	43082.24
628.15	43391.19
628.30	43555.03
628.45	43817.17
628.60	43665.03
628.76	43271.82
628.91	43337.36
629.06	43248.42
629.21	43262.46
629.36	43203.95
629.51	43140.75
629.66	43576.09
629.81	42707.76
629.96	42885.64
630.11	43077.56
630.26	42869.25
630.41	43550.35
630.56	42834.14
630.71	43180.54
630.86	42567.32
631.01	42714.78
631.16	42635.20
631.31	42312.20
631.46	42494.77
631.61	42665.63
631.76	42323.91
631.91	42623.50
632.06	42869.25
632.21	42553.28
632.36	42976.92
632.51	42560.30
632.66	42684.35
632.81	42239.65
632.96	42452.64
633.10	42120.28
633.25	42401.14
633.40	42457.32
633.55	42784.99
633.70	42691.37
633.85	42649.24
634.00	42595.41
634.15	42284.12
634.30	42272.42
634.45	42171.77
634.60	42373.06
634.75	42174.11
634.90	42136.66
635.05	42354.33
635.19	41874.52
635.34	42777.97
635.49	42293.48
635.64	41970.49
635.79	41717.71
635.94	41748.14
636.09	41867.50
636.24	42031.34
636.39	42202.20
636.53	42178.79
636.68	41537.49
636.83	41476.63
636.98	41684.94
637.13	41926.02
637.28	41816.01
637.43	42410.51
637.57	41464.93
637.72	41778.56
637.87	41521.10
638.02	41759.84
638.17	41858.14
638.32	41977.51
638.46	41324.50
638.61	41825.37
638.76	41228.54
638.91	41872.18
639.06	41448.55
639.20	41322.16
639.35	41663.88
639.50	41139.60
639.65	41535.15
639.80	41544.51
639.94	41083.42
640.09	41167.68
640.24	41230.88
640.39	40449.14
640.54	41036.61
640.68	40954.69
640.83	41284.71
640.98	40828.30
641.13	40861.07
641.27	41368.97
641.42	40708.94
641.57	40868.09
641.72	40938.31
641.86	41233.22
642.01	40996.82
642.16	41256.62
642.31	40598.93
642.45	40493.61
642.60	40201.04
642.75	40500.63
642.90	40851.71
643.04	41474.29
643.19	40622.34
643.34	40868.09
643.48	40861.07
643.63	40746.39
643.78	40149.55
643.93	40659.79
644.07	40474.88
644.22	40458.50
644.37	40470.20
644.51	40121.46
644.66	40201.04
644.81	40231.47
644.95	40659.79
645.10	40437.44
645.25	40016.14
645.39	40414.03
645.54	40498.29
645.69	39885.07
645.83	40243.17
645.98	40179.98
646.13	40465.52
646.27	40112.10
646.42	40339.13
646.57	39889.75
646.71	39576.12
646.86	40573.19
647.00	40217.43
647.15	40058.27
647.30	40423.39
647.44	39775.06
647.59	39941.24
647.74	39931.88
647.88	39772.72
648.03	39971.67
648.17	40149.55
648.32	39496.54
648.47	39636.97
648.61	39321.00
648.76	39758.68
648.90	39543.35
649.05	39601.86
649.20	39215.68
649.34	39969.33
649.49	39203.97
649.63	39295.25
649.78	39330.36
649.92	39519.95
650.07	39519.95
650.21	39379.51
650.36	39646.33
650.51	39541.01
650.65	40037.20
650.80	39995.07
650.94	39627.61
651.09	38965.24
651.23	39255.46
651.38	39543.35
651.52	38682.03
651.67	39342.06
651.81	38876.30
651.96	39023.75
652.10	38923.11
652.25	38866.94
652.39	39002.69
652.54	39028.43
652.68	39192.27
652.83	38782.68
652.97	39157.16
653.12	38749.91
653.26	38590.75
653.41	38522.88
653.55	38321.59
653.70	38513.52
653.84	38885.66
653.99	38885.66
654.13	38752.25
654.27	38279.46
654.42	37961.15
654.56	38698.42
654.71	38675.01
654.85	38422.23
655.00	38394.15
655.14	38256.06
655.29	37951.79
655.43	37947.11
655.57	37750.50
655.72	37598.37
655.86	37563.26
656.01	37792.63
656.15	37364.31
656.30	37673.26
656.44	38167.12
656.58	38218.61
656.73	38363.72
656.87	37881.57
657.01	37916.68
657.16	38157.75
657.30	37432.19
657.45	37677.94
657.59	37975.19
657.73	37525.81
657.88	38422.23
658.02	37881.57
658.16	37947.11
658.31	37984.55
658.45	37811.35
658.60	38022.00
658.74	37766.88
658.88	37717.73
659.03	37326.86
659.17	37811.35
659.31	37483.68
659.46	37125.58
659.60	37483.68
659.74	37654.54
659.89	37427.51
660.03	37282.39
660.17	37408.78
660.32	37254.31
660.46	37577.30
660.60	37038.98
660.74	36898.55
660.89	37223.88
661.03	37127.92
661.17	36837.69
661.32	36540.44
661.46	36996.85
661.60	36526.40
661.74	36802.58
661.89	36765.14
662.03	36636.41
662.17	36453.84
662.31	36851.73
662.46	36830.67
662.60	36697.26
662.74	36907.91
662.88	36304.05
663.03	36247.88
663.17	36350.86
663.31	36123.83
663.45	36098.08
663.60	36046.59
663.74	35917.86
663.88	35849.99
664.02	36072.34
664.17	35917.86
664.31	35868.71
664.45	35587.85
664.59	35805.52
664.73	35761.05
664.88	35501.25
665.02	35566.78
665.16	35426.35
665.30	35234.42
665.44	35314.00
665.59	35168.89
665.73	35618.27
665.87	35264.85
666.01	35498.91
666.15	35332.73
666.29	35629.98
666.44	35466.14
666.58	35049.52
666.72	34881.00
666.86	35271.87
667.00	35035.48
667.14	34462.05
667.28	34838.87
667.43	34665.67
667.57	34955.90
667.71	34660.99
667.85	34796.74
667.99	34305.23
668.13	34724.19
668.27	34412.90
668.41	34691.42
668.56	34274.80
668.70	34632.91
668.84	34370.77
668.98	34019.69
669.12	34183.52
669.26	33930.75
669.40	33790.31
669.54	33998.62
669.68	34239.70
669.82	33614.77
669.96	33668.61
670.10	33542.22
670.25	33415.83
670.39	33495.41
670.53	33628.82
670.67	33652.22
670.81	33420.51
670.95	33378.38
671.09	33259.01
671.23	33156.03
671.37	33291.78
671.51	32655.15
671.65	32868.14
671.79	32821.33
671.93	32821.33
672.07	33074.11
672.21	33017.94
672.35	32549.83
672.49	32687.92
672.63	32987.51
672.77	32678.56
672.91	32603.66
673.05	32627.07
673.19	32491.32
673.33	32100.45
673.47	31999.80
673.61	32032.57
673.75	31835.97
673.89	31424.03
674.03	32025.55
674.17	31676.81
674.31	31868.73
674.45	31704.90
674.59	31693.19
674.73	31519.99
674.87	31737.66
675.01	31770.43
675.15	31601.91
675.29	31400.63
675.43	31349.14
675.56	31299.98
675.70	31044.87
675.84	30923.16
675.98	30125.04
676.12	31199.34
676.26	30483.14
676.40	30710.17
676.54	30836.56
676.68	30527.61
676.82	30464.41
676.96	30139.08
677.10	30366.11
677.23	30242.06
677.37	30139.08
677.51	29921.41
677.65	30249.08
677.79	29617.14
677.93	29167.76
678.07	29649.91
678.21	29120.95
678.34	29261.38
678.48	29160.73
678.62	29369.04
678.76	28776.89
678.90	28374.31
679.04	28828.38
679.18	28914.98
679.31	28584.96
679.45	28503.04
679.59	28254.95
679.73	28575.60
679.87	28379.00
680.00	28346.23
680.14	28268.99
680.28	28486.66
680.42	28180.05
680.56	28231.54
680.70	28044.30
680.83	27861.74
680.97	27754.07
681.11	27793.86
681.25	27517.68
681.39	27520.02
681.52	27578.53
681.66	27658.11
681.80	27578.53
681.94	27323.41
682.07	27119.79
682.21	26752.32
682.35	26979.36
682.49	26883.39
682.62	26883.39
682.76	26377.84
682.90	26370.82
683.04	26583.80
683.17	26316.98
683.31	26148.46
683.45	26141.44
683.59	25542.27
683.72	26143.78
683.86	25818.45
684.00	25919.09
684.13	26204.64
684.27	25537.59
684.41	25404.17
684.55	25378.43
684.68	25465.03
684.82	25174.80
684.96	25254.38
685.09	25179.48
685.23	24854.15
685.37	25022.67
685.50	25092.88
685.64	25261.40
685.78	24851.81
685.91	24641.16
686.05	24538.18
686.19	24224.54
686.32	24327.53
686.46	23854.74
686.60	23906.23
686.73	23700.26
686.87	23480.25
687.01	23405.36
687.14	23351.52
687.28	23215.77
687.42	23477.91
687.55	23487.28
687.69	23475.57
687.82	23410.04
687.96	23316.42
688.10	23070.66
688.23	23178.33
688.37	22742.99
688.50	22771.07
688.64	22518.29
688.78	22810.86
688.91	22864.69
689.05	22663.41
689.18	22539.36
689.32	21848.90
689.46	22398.93
689.59	22192.96
689.73	22593.19
689.86	22305.31
690.00	21909.75
690.13	22136.79
690.27	21743.58
690.41	22038.48
690.54	21448.67
690.68	21666.34
690.81	21596.12
690.95	21582.08
691.08	21362.07
691.22	21631.23
691.35	21387.82
691.49	21565.70
691.62	21490.80
691.76	21219.30
691.89	21102.27
692.03	20854.17
692.16	20772.25
692.30	20798.00
692.43	20435.22
692.57	20292.44
692.70	20498.41
692.84	20376.70
692.97	20034.99
693.11	20210.53
693.24	20119.24
693.38	19864.13
693.51	19803.27
693.65	20020.94
693.78	19840.72
693.92	19924.98
694.05	19613.69
694.19	19672.20
694.32	19564.54
694.45	19452.19
694.59	19271.97
694.72	19232.18
694.86	19232.18
694.99	18881.10
695.13	19122.18
695.26	18897.49
695.39	19096.43
695.53	19126.86
695.66	18960.68
695.80	18972.38
695.93	18675.13
696.07	18476.19
696.20	18558.11
696.33	18389.59
696.47	18387.25
696.60	18043.19
696.73	18106.38
696.87	18136.81
697.00	17888.71
697.14	18190.64
697.27	17781.05
697.40	17774.03
697.54	17495.50
697.67	17469.76
697.80	17657.00
697.94	17003.99
698.07	17252.09
698.21	17296.56
698.34	17610.19
698.47	17221.66
698.61	16636.53
698.74	16732.49
698.87	17022.72
699.01	16606.10
699.14	16629.51
699.27	16718.45
699.40	16531.20
699.54	16507.80
699.67	16243.32
699.80	16479.71
699.94	16070.12
700.07	16339.28
700.20	16299.49
700.34	16079.48
700.47	16269.06
700.60	16276.09
700.73	16086.50
700.87	15894.58
701.00	15822.02
701.13	15611.37
701.26	15700.31
701.40	15438.17
701.53	15707.34
701.66	15580.95
701.79	15545.84
701.93	15147.95
702.06	15117.52
702.19	14902.19
702.32	15112.84
702.46	15166.67
702.59	15360.94
702.72	15033.26
702.85	14981.77
702.99	15016.88
703.12	15063.69
703.25	14670.48
703.38	14572.18
703.51	14565.15
703.65	14656.43
703.78	14340.46
703.91	14508.98
704.04	14406.00
704.17	14387.27
704.31	14260.88
704.44	14164.92
704.57	13958.96
704.70	13734.26
704.83	13767.03
704.96	13860.65
705.10	13614.90
705.23	13762.35
>>>>>End Processed Spectral Data<<<<<
