SpectraSuite Data File
++++++++++++++++++++++++++++++++++++
Date: Fri Oct 25 10:43:47 EDT 2013
User: price-jones
Dark Spectrum Present: No
Reference Spectrum Present: No
Number of Sampled Component Spectra: 1
Spectrometers: USB2+H05261
Integration Time (usec): 100000 (USB2+H05261)
Spectra Averaged: 1 (USB2+H05261)
Boxcar Smoothing: 0 (USB2+H05261)
Correct for Electrical Dark: No (USB2+H05261)
Strobe/Lamp Enabled: No (USB2+H05261)
Correct for Detector Non-linearity: No (USB2+H05261)
Correct for Stray Light: No (USB2+H05261)
Number of Pixels in Processed Spectrum: 2048
>>>>>Begin Processed Spectral Data<<<<<
365.73	91.28
365.92	91.28
366.12	91.28
366.32	0.00
366.52	28.09
366.72	16.38
366.91	0.00
367.11	32.77
367.31	0.00
367.51	56.17
367.70	2.34
367.90	51.49
368.10	14.04
368.30	0.00
368.49	14.04
368.69	84.26
368.89	28.09
369.09	70.22
369.28	72.56
369.48	93.62
369.68	74.90
369.87	74.90
370.07	121.71
370.27	198.95
370.47	212.99
370.66	346.40
370.86	402.57
371.06	521.94
371.25	489.17
371.45	400.23
371.65	512.58
371.84	437.68
372.04	482.15
372.24	479.81
372.44	521.94
372.63	573.43
372.83	580.45
373.03	505.56
373.22	456.40
373.42	503.22
373.62	589.82
373.81	521.94
374.01	528.96
374.21	566.41
374.40	533.64
374.60	601.52
374.79	526.62
374.99	589.82
375.19	575.77
375.38	578.11
375.58	608.54
375.78	653.01
375.97	603.86
376.17	676.41
376.37	557.05
376.56	512.58
376.76	596.84
376.95	554.71
377.15	671.73
377.35	615.56
377.54	664.71
377.74	641.31
377.93	596.84
378.13	627.26
378.33	699.82
378.52	697.48
378.72	674.07
378.91	543.00
379.11	660.03
379.31	688.12
379.50	599.18
379.70	699.82
379.89	655.35
380.09	716.20
380.28	676.41
380.48	657.69
380.68	638.97
380.87	627.26
381.07	816.85
381.26	671.73
381.46	697.48
381.65	772.38
381.85	662.37
382.04	709.18
382.24	713.86
382.43	704.50
382.63	727.91
382.83	685.78
383.02	795.78
383.22	807.48
383.41	755.99
383.61	688.12
383.80	760.67
384.00	727.91
384.19	720.88
384.39	805.14
384.58	774.72
384.78	723.23
384.97	753.65
385.17	720.88
385.36	781.74
385.56	784.08
385.75	875.36
385.95	807.48
386.14	781.74
386.34	746.63
386.53	837.91
386.72	842.59
386.92	763.01
387.11	858.98
387.31	973.66
387.50	894.08
387.70	854.30
387.89	889.40
388.09	805.14
388.28	858.98
388.48	777.06
388.67	873.02
388.86	922.17
389.06	952.60
389.25	952.60
389.45	987.71
389.64	973.66
389.84	903.45
390.03	875.36
390.22	1006.43
390.42	983.02
390.61	933.87
390.81	961.96
391.00	1034.52
391.19	976.00
391.39	1032.18
391.58	1043.88
391.78	1088.35
391.97	1067.28
392.16	954.94
392.36	1114.10
392.55	1020.47
392.75	1032.18
392.94	985.37
393.13	1011.11
393.33	997.07
393.52	1062.60
393.71	1086.01
393.91	1153.88
394.10	1064.94
394.29	1069.62
394.49	1191.33
394.68	1181.97
394.88	1224.10
395.07	1205.38
395.26	1235.80
395.46	1200.69
395.65	1263.89
395.84	1228.78
396.04	1277.93
396.23	1107.07
396.42	1121.12
396.62	1226.44
396.81	1128.14
397.00	1167.93
397.19	1259.21
397.39	1310.70
397.58	1327.08
397.77	1238.14
397.97	1455.81
398.16	1392.62
398.35	1554.12
398.55	1493.26
398.74	1369.21
398.93	1451.13
399.12	1441.77
399.32	1467.52
399.51	1600.93
399.70	1652.42
399.90	1439.43
400.09	1523.69
400.28	1633.69
400.47	1584.54
400.67	1682.85
400.86	1647.74
401.05	1687.53
401.24	1696.89
401.44	1652.42
401.63	1605.61
401.82	1619.65
402.01	1715.61
402.21	1788.17
402.40	1736.68
402.59	1589.22
402.78	1755.40
402.97	1689.87
403.17	1689.87
403.36	1764.76
403.55	1877.11
403.74	1802.21
403.93	1790.51
404.13	1809.23
404.32	1837.32
404.51	1811.57
404.70	1949.67
404.89	1877.11
405.09	2008.18
405.28	1930.94
405.47	1961.37
405.66	1879.45
405.85	1930.94
406.05	2010.52
406.24	2024.56
406.43	2080.74
406.62	2054.99
406.81	2223.51
407.00	2064.35
407.20	2050.31
407.39	2113.50
407.58	2132.23
407.77	2139.25
407.96	2293.72
408.15	2223.51
408.34	2155.63
408.54	2242.23
408.73	2272.66
408.92	2188.40
409.11	2305.43
409.30	2289.04
409.49	2258.62
409.68	2183.72
409.87	2401.39
410.07	2333.51
410.26	2298.41
410.45	2396.71
410.64	2401.39
410.83	2480.97
411.02	2487.99
411.21	2485.65
411.40	2527.78
411.59	2546.50
411.78	2663.53
411.98	2476.29
412.17	2663.53
412.36	2548.84
412.55	2693.96
412.74	2789.92
412.93	2843.75
413.12	2782.90
413.31	2803.96
413.50	2771.19
413.69	2963.12
413.88	2878.86
414.07	2895.24
414.26	2827.37
414.45	2906.95
414.64	2970.14
414.83	3063.76
415.02	2932.69
415.22	3009.93
415.41	2956.10
415.60	3112.91
415.79	3014.61
415.98	3185.47
416.17	3239.30
416.36	3112.91
416.55	3206.53
416.74	3286.11
416.93	3351.65
417.12	3332.92
417.31	3269.73
417.50	3356.33
417.69	3417.18
417.88	3386.76
418.07	3424.20
418.26	3459.31
418.45	3391.44
418.64	3571.66
418.83	3578.68
419.02	3375.05
419.21	3520.17
419.39	3478.04
419.58	3510.80
419.77	3559.95
419.96	3538.89
420.15	3609.11
420.34	3674.64
420.53	3623.15
420.72	3648.90
420.91	3698.05
421.10	3765.92
421.29	3808.05
421.48	3644.21
421.67	3904.01
421.86	3686.34
422.05	3808.05
422.24	3644.21
422.43	3850.18
422.61	3850.18
422.80	3925.08
422.99	3967.21
423.18	3941.46
423.37	4030.40
423.56	3901.67
423.75	3777.62
423.94	3871.25
424.13	3737.84
424.32	3702.73
424.50	3964.87
424.69	4093.60
424.88	3990.61
425.07	3854.86
425.26	3880.61
425.45	3990.61
425.64	3939.12
425.83	3873.59
426.01	3988.27
426.20	3831.46
426.39	4004.66
426.58	3894.65
426.77	3861.88
426.96	3957.85
427.15	4037.42
427.33	3992.95
427.52	4114.66
427.71	4084.23
427.90	4159.13
428.09	4198.92
428.28	4011.68
428.46	4131.05
428.65	4032.74
428.84	4121.68
429.03	4234.03
429.22	4018.70
429.40	4121.68
429.59	4119.34
429.78	3925.08
429.97	4009.34
430.16	3983.59
430.34	4065.51
430.53	4044.45
430.72	4175.52
430.91	4140.41
431.10	4304.25
431.28	4437.66
431.47	4477.44
431.66	4655.33
431.85	4507.87
432.03	4444.68
432.22	4610.86
432.41	4449.36
432.60	4699.80
432.79	4624.90
432.97	4683.41
433.16	4699.80
433.35	4554.68
433.54	4610.86
433.72	4648.30
433.91	4777.03
434.10	4802.78
434.28	4636.60
434.47	4744.27
434.66	4805.12
434.85	4770.01
435.03	4877.68
435.22	4964.28
435.41	5020.45
435.59	5053.22
435.78	5128.11
435.97	5116.41
436.16	5097.69
436.34	5172.58
436.53	5053.22
436.72	5256.84
436.90	4933.85
437.09	5130.45
437.28	5022.79
437.46	5156.20
437.65	5315.36
437.84	5132.79
438.02	5076.62
438.21	5172.58
438.40	5135.14
438.58	5247.48
438.77	5301.31
438.96	5420.68
439.14	5425.36
439.33	5657.07
439.52	5547.07
439.70	5472.17
439.89	5661.76
440.08	5724.95
440.26	5724.95
440.45	5647.71
440.63	5919.21
440.82	5926.24
441.01	5764.74
441.19	5902.83
441.38	5949.64
441.57	6162.63
441.75	5994.11
441.94	6186.04
442.12	6111.14
442.31	6303.06
442.50	6120.50
442.68	6263.27
442.87	6211.78
443.05	6312.42
443.24	6410.73
443.43	6434.13
443.61	6403.71
443.80	6459.88
443.98	6335.83
444.17	6251.57
444.35	6370.94
444.54	6560.52
444.73	6600.31
444.91	6424.77
445.10	6382.64
445.28	6342.85
445.47	6342.85
445.65	6406.05
445.84	6499.67
446.02	6588.61
446.21	6448.18
446.39	6436.47
446.58	6569.88
446.77	6349.87
446.95	6403.71
447.14	6637.76
447.32	6768.83
447.51	6628.40
447.69	6399.02
447.88	6537.12
448.06	6684.57
448.25	6668.19
448.43	6604.99
448.62	6621.38
448.80	6541.80
448.99	6619.04
449.17	6782.87
449.36	6581.59
449.54	6967.77
449.73	6925.65
449.91	7110.55
450.10	7016.93
450.28	7131.61
450.46	7222.89
450.65	7126.93
450.83	7133.95
451.02	7119.91
451.20	7077.78
451.39	7208.85
451.57	7386.73
451.76	7178.42
451.94	7040.33
452.13	7204.17
452.31	7052.03
452.49	7143.32
452.68	7211.19
452.86	7056.72
453.05	7056.72
453.23	7229.91
453.42	7201.83
453.60	7236.94
453.78	7400.77
453.97	7173.74
454.15	7410.14
454.34	7463.97
454.52	7328.22
454.70	7536.52
454.89	7520.14
455.07	7485.03
455.26	7637.17
455.44	7707.38
455.62	7672.28
455.81	7576.31
455.99	7679.30
456.17	7763.56
456.36	7676.96
456.54	7868.88
456.73	7932.08
456.91	7999.95
457.09	7939.10
457.28	8067.83
457.46	7962.50
457.64	7997.61
457.83	8016.33
458.01	7971.86
458.19	8102.93
458.38	8102.93
458.56	8170.81
458.74	8060.80
458.93	8379.12
459.11	8182.51
459.29	8175.49
459.48	8325.29
459.66	8152.09
459.84	8250.39
460.03	8439.97
460.21	8489.12
460.39	8451.67
460.57	8411.89
460.76	8439.97
460.94	8484.44
461.12	8390.82
461.31	8652.96
461.49	8414.23
461.67	8613.17
461.85	8769.99
462.04	8615.51
462.22	8966.59
462.40	8847.22
462.59	8765.31
462.77	8879.99
462.95	8854.25
463.13	8755.94
463.32	8723.18
463.50	8947.87
463.68	8971.27
463.86	9050.85
464.05	8767.65
464.23	8788.71
464.41	9160.86
464.59	8807.44
464.78	8943.19
464.96	8917.44
465.14	9057.87
465.32	9191.28
465.50	9130.43
465.69	9268.52
465.87	9067.24
466.05	9158.52
466.23	9029.79
466.41	9210.01
466.60	9233.41
466.78	9151.49
466.96	9240.44
467.14	9135.11
467.32	9341.08
467.51	9406.61
467.69	8980.64
467.87	9221.71
468.05	9324.69
468.23	9373.85
468.41	9298.95
468.60	9624.28
468.78	9579.81
468.96	9247.46
469.14	9397.25
469.32	9558.75
469.50	9399.59
469.69	9745.99
469.87	9792.80
470.05	9827.91
470.23	9806.84
470.41	9799.82
470.59	9844.29
470.77	9687.48
470.95	9631.30
471.14	9970.68
471.32	9792.80
471.50	10258.57
471.68	10101.75
471.86	10094.73
472.04	10354.53
472.22	10377.94
472.40	10125.16
472.58	10303.04
472.77	10497.30
472.95	10368.57
473.13	10843.70
473.31	10291.34
473.49	10406.02
473.67	10410.70
473.85	10450.49
474.03	10654.12
474.21	10991.16
474.39	10913.92
474.57	10892.85
474.75	11026.26
474.93	10993.50
475.12	10986.47
475.30	11183.08
475.48	11089.46
475.66	11171.38
475.84	11133.93
476.02	11398.41
476.20	11283.72
476.38	11695.66
476.56	11829.07
476.74	11824.39
476.92	11719.06
477.10	11751.83
477.28	11889.92
477.46	11819.71
477.64	12250.36
477.82	12002.27
478.00	12505.48
478.18	12313.56
478.36	12383.77
478.54	12561.66
478.72	12657.62
478.90	12575.70
479.08	12929.12
479.26	13137.43
479.44	12821.45
479.62	12875.29
479.80	13191.26
479.98	13273.18
480.16	13497.87
480.34	13364.46
480.52	13528.30
480.70	13383.18
480.88	13607.87
481.06	13673.41
481.24	13696.82
481.41	14047.90
481.59	14111.09
481.77	14059.60
481.95	14064.28
482.13	14422.38
482.31	14621.33
482.49	14824.95
482.67	14602.60
482.85	15157.31
483.03	14651.75
483.21	15035.60
483.39	15208.80
483.57	14972.41
483.74	15356.25
483.92	15529.45
484.10	15480.30
484.28	15662.86
484.46	15782.23
484.64	16383.75
484.82	15726.06
485.00	15906.28
485.18	15995.22
485.35	16439.92
485.53	15913.30
485.71	16072.46
485.89	16315.87
486.07	16259.70
486.25	16479.71
486.43	16608.44
486.61	17011.01
486.78	17034.42
486.96	17263.79
487.14	17507.21
487.32	17624.23
487.50	17542.32
487.68	17994.04
487.85	18335.76
488.03	18450.44
488.21	18352.14
488.39	18207.03
488.57	18038.51
488.75	18492.57
488.92	18773.44
489.10	19061.32
489.28	18984.09
489.46	19468.58
489.64	19688.59
489.81	19611.35
489.99	20133.29
490.17	19875.83
490.35	20173.08
490.53	20203.50
490.70	20198.82
490.88	20273.72
491.06	20730.12
491.24	20556.93
491.41	20533.52
491.59	20575.65
491.77	20545.22
491.95	21181.85
492.13	20952.48
492.30	21511.86
492.48	21411.22
492.66	21458.03
492.84	21500.16
493.01	21633.57
493.19	21579.74
493.37	21724.85
493.54	22244.45
493.72	22260.84
493.90	22597.87
494.08	22742.99
494.25	22775.75
494.43	23035.55
494.61	23197.05
494.79	22918.53
494.96	23262.58
495.14	23426.42
495.32	23281.31
495.49	23625.37
495.67	23625.37
495.85	23796.23
496.02	23873.46
496.20	24144.97
496.38	24053.69
496.55	24166.03
496.73	25076.50
496.91	24603.71
497.09	24900.96
497.26	25069.48
497.44	24807.34
497.62	24790.95
497.79	25036.71
497.97	24669.25
498.14	25226.29
498.32	25610.14
498.50	25366.73
498.67	25792.70
498.85	25671.00
499.03	26054.84
499.20	26244.43
499.38	25701.42
499.56	26129.74
499.73	26188.25
499.91	26169.53
500.08	26419.97
500.26	26068.89
500.44	26455.08
500.61	26405.92
500.79	26281.88
500.97	26300.60
501.14	27168.94
501.32	26654.02
501.49	26679.77
501.67	26939.57
501.84	27105.74
502.02	27236.81
502.20	27395.97
502.37	27674.49
502.55	27433.42
502.72	28079.41
502.90	27730.67
503.07	27761.09
503.25	27742.37
503.43	28093.45
503.60	28074.73
503.78	27805.56
503.95	27852.38
504.13	28158.99
504.30	28664.54
504.48	28386.02
504.65	28727.74
504.83	28577.94
505.01	28903.28
505.18	28697.31
505.36	29170.10
505.53	29237.97
505.71	29607.78
505.88	29228.61
506.06	29123.29
506.23	29362.02
506.41	29230.95
506.58	29528.20
506.76	29556.28
506.93	29575.01
507.11	30052.48
507.28	29874.60
507.46	29837.15
507.63	29923.75
507.81	29776.30
507.98	30096.95
508.16	29928.43
508.33	30003.33
508.50	30347.39
508.68	30796.77
508.85	30630.59
509.03	30529.95
509.20	30881.03
509.38	30927.84
509.55	31124.44
509.73	31309.35
509.90	31424.03
510.08	31096.36
510.25	31075.29
510.42	31599.57
510.60	31459.14
510.77	31470.84
510.95	31779.79
511.12	31693.19
511.30	31527.02
511.47	31653.40
511.64	32053.64
511.82	32170.66
511.99	32067.68
512.17	32229.18
512.34	31983.42
512.51	32383.65
512.69	32554.51
512.86	32566.21
513.04	32776.86
513.21	32264.28
513.38	32687.92
513.56	32514.72
513.73	32718.35
513.90	32858.78
514.08	32622.39
514.25	32882.19
514.43	32924.32
514.60	32788.56
514.77	32936.02
514.95	33097.52
515.12	33310.50
515.29	33263.69
515.47	33717.76
515.64	33907.34
515.81	33757.55
515.99	33406.47
516.16	33385.40
516.33	33256.67
516.51	33343.27
516.68	33420.51
516.85	32999.21
517.03	33483.70
517.20	33743.50
517.37	34064.16
517.54	34085.22
517.72	34082.88
517.89	33802.02
518.06	33654.56
518.24	33579.67
518.41	34106.29
518.58	34363.75
518.75	34321.62
518.93	34581.42
519.10	34895.05
519.27	35182.93
519.45	34862.28
519.62	34848.24
519.79	35051.86
519.96	34958.24
520.14	35569.12
520.31	35339.75
520.48	34944.20
520.65	35316.34
520.83	35711.89
521.00	35395.92
521.17	35669.76
521.34	35632.32
521.52	35819.56
521.69	35501.25
521.86	36079.36
522.03	35957.65
522.20	36123.83
522.38	35955.31
522.55	35845.30
522.72	35988.08
522.89	36297.03
523.07	36149.57
523.24	36119.15
523.41	36680.88
523.58	36451.50
523.75	36875.14
523.92	37097.49
524.10	36961.74
524.27	37205.16
524.44	37022.59
524.61	36652.79
524.78	36964.08
524.96	36802.58
525.13	37160.69
525.30	37659.22
525.47	37404.10
525.64	37340.91
525.81	37535.17
525.98	37148.98
526.16	36781.52
526.33	37062.38
526.50	36774.50
526.67	36753.43
526.84	36844.71
527.01	37481.34
527.18	37233.24
527.36	37668.58
527.53	38136.69
527.70	38567.35
527.87	38115.62
528.04	37869.87
528.21	37982.21
528.38	38071.15
528.55	38415.21
528.72	38061.79
528.89	38876.30
529.07	38658.63
529.24	38263.08
529.41	38408.19
529.58	38410.53
529.75	38600.12
529.92	38665.65
530.09	38637.56
530.26	38478.41
530.43	39023.75
530.60	38618.84
530.77	38911.41
530.94	39138.44
531.11	39091.63
531.28	39302.28
531.46	39012.05
531.63	38946.51
531.80	39342.06
531.97	38925.45
532.14	39122.05
532.31	38817.78
532.48	39309.30
532.65	39276.53
532.82	39028.43
532.99	39360.79
533.16	39625.27
533.33	39648.68
533.50	39899.11
533.67	39578.46
533.84	39704.85
534.01	39702.51
534.18	39751.66
534.35	40086.36
534.52	39859.32
534.69	40004.44
534.86	40472.54
535.03	39931.88
535.20	40416.37
535.37	40788.52
535.54	40594.25
535.71	40498.29
535.88	40449.14
536.05	40088.70
536.22	40905.54
536.38	40788.52
536.55	40439.78
536.72	40870.43
536.89	40100.40
537.06	40397.65
537.23	40718.30
537.40	40594.25
537.57	40825.96
537.74	40566.16
537.91	41298.75
538.08	40996.82
538.25	40896.18
538.42	40758.09
538.59	41193.43
538.75	40884.48
538.92	40987.46
539.09	41237.90
539.26	41165.34
539.43	41319.82
539.60	41373.65
539.77	40730.00
539.94	40912.56
540.11	40781.49
540.28	41144.28
540.44	41785.58
540.61	41649.83
540.78	40912.56
540.95	41350.24
541.12	41261.30
541.29	41170.02
541.46	41696.64
541.62	41771.54
541.79	41736.43
541.96	41153.64
542.13	41553.87
542.30	41340.88
542.47	41734.09
542.63	42071.13
542.80	41956.44
542.97	42340.29
543.14	42351.99
543.31	42206.88
543.48	42309.86
543.64	42550.94
543.81	42841.17
543.98	42452.64
544.15	42438.59
544.32	42939.47
544.48	42899.68
544.65	42497.11
544.82	43009.68
544.99	42417.53
545.16	42625.84
545.32	42520.51
545.49	43447.36
545.66	43264.80
545.83	42691.37
546.00	42644.56
546.16	42920.74
546.33	42913.72
546.50	42349.65
546.67	42990.96
546.83	42632.86
547.00	43344.38
547.17	43014.37
547.34	42988.62
547.50	42979.26
547.67	43508.22
547.84	43079.90
548.00	43276.51
548.17	43449.70
548.34	43468.43
548.51	43709.50
548.67	44172.93
548.84	43405.23
549.01	43180.54
549.18	43290.55
549.34	43786.74
549.51	43550.35
549.68	43674.40
549.84	43784.40
550.01	43658.01
550.18	43648.65
550.34	43629.93
550.51	43756.32
550.68	43641.63
550.84	43473.11
551.01	43548.01
551.18	43665.03
551.34	43430.98
551.51	44182.29
551.68	43990.37
551.84	43976.33
552.01	43899.09
552.18	44694.87
552.34	43782.06
552.51	43824.19
552.68	43880.36
552.84	44619.97
553.01	44313.36
553.18	44086.33
553.34	44488.90
553.51	43917.81
553.67	44458.48
553.84	44687.85
554.01	44701.89
554.17	44966.37
554.34	44390.60
554.51	44722.96
554.67	44296.98
554.84	44671.46
555.00	44142.50
555.17	44224.42
555.33	44488.90
555.50	44172.93
555.67	44350.81
555.83	44460.82
556.00	44472.52
556.16	44725.30
556.33	44439.75
556.50	44442.09
556.66	44949.99
556.83	44596.57
556.99	44498.26
557.16	44996.80
557.32	44591.89
557.49	45043.61
557.65	44498.26
557.82	44713.59
557.98	44774.45
558.15	44933.60
558.32	45226.17
558.48	44816.58
558.65	45177.02
558.81	44467.84
558.98	44547.42
559.14	44795.51
559.31	44879.77
559.47	44870.41
559.64	44893.82
559.80	45074.04
559.97	45022.54
560.13	45074.04
560.30	45202.77
560.46	45151.27
560.63	45216.81
560.79	45497.67
560.96	45261.28
561.12	45048.29
561.29	45303.41
561.45	45027.23
561.61	45530.44
561.78	45188.72
561.94	44542.74
562.11	44807.22
562.27	44940.63
562.44	45284.68
562.60	45256.60
562.77	45191.06
562.93	45043.61
563.10	45375.97
563.26	44985.10
563.42	45219.15
563.59	44914.88
563.75	45298.73
563.92	45684.92
564.08	45485.97
564.24	45469.59
564.41	45436.82
564.57	45298.73
564.74	45394.69
564.90	45111.49
565.07	45713.00
565.23	45390.01
565.39	45333.84
565.56	45420.44
565.72	44949.99
565.88	45907.27
566.05	45076.38
566.21	45610.02
566.38	45492.99
566.54	45558.53
566.70	46108.55
566.87	45603.00
567.03	45237.87
567.19	46197.49
567.36	45916.63
567.52	45476.61
567.68	45827.69
567.85	45890.88
568.01	45832.37
568.17	45343.20
568.34	45904.93
568.50	45848.75
568.66	45476.61
568.83	45530.44
568.99	45090.42
569.15	45713.00
569.32	45436.82
569.48	45118.51
569.64	45923.65
569.81	45893.22
569.97	45532.78
570.13	45551.51
570.30	45170.00
570.46	45570.23
570.62	45312.77
570.78	45134.89
570.95	45287.03
571.11	45352.56
571.27	45626.40
571.43	45415.76
571.60	45656.83
571.76	45584.27
571.92	45713.00
572.09	46094.51
572.25	45586.61
572.41	45731.73
572.57	45670.87
572.74	46094.51
572.90	46218.56
573.06	45827.69
573.22	45710.66
573.38	45635.77
573.55	45191.06
573.71	45935.35
573.87	45624.06
574.03	45577.25
574.20	45642.79
574.36	45401.71
574.52	45881.52
574.68	45928.33
574.84	46167.07
575.01	45160.64
575.17	45694.28
575.33	45673.21
575.49	45680.24
575.65	46199.83
575.82	45778.54
575.98	45797.26
576.14	45942.38
576.30	45832.37
576.46	45703.64
576.62	45888.54
576.79	45579.59
576.95	45820.67
577.11	45841.73
577.27	45825.35
577.43	45844.07
577.59	45755.13
577.75	45350.22
577.92	45500.01
578.08	45617.04
578.24	45277.66
578.40	45481.29
578.56	45504.70
578.72	45991.53
578.88	46045.36
579.04	46057.06
579.21	45799.60
579.37	45048.29
579.53	45991.53
579.69	45436.82
579.85	45879.18
580.01	45366.60
580.17	45958.76
580.33	46085.15
580.49	46052.38
580.65	45916.63
580.82	45970.46
580.98	45881.52
581.14	45720.02
581.30	46033.66
581.46	45855.78
581.62	46080.47
581.78	46277.07
581.94	46005.57
582.10	46103.87
582.26	46064.08
582.42	45724.71
582.58	46148.34
582.74	45778.54
582.90	46141.32
583.06	46040.68
583.22	46113.23
583.38	46188.13
583.54	45982.16
583.70	46213.88
583.86	46143.66
584.02	46019.61
584.18	46136.64
584.34	46113.23
584.50	45918.97
584.66	45785.56
584.82	45815.99
584.98	46232.60
585.14	45546.82
585.30	46141.32
585.46	45986.85
585.62	45820.67
585.78	45907.27
585.94	45708.32
586.10	45532.78
586.26	45598.32
586.42	46323.88
586.58	46314.52
586.74	45844.07
586.90	45544.48
587.06	45729.39
587.22	45869.82
587.38	45881.52
587.54	46045.36
587.70	45872.16
587.86	46192.81
588.02	46237.28
588.18	46728.80
588.34	45790.24
588.49	45399.37
588.65	45305.75
588.81	45450.86
588.97	45635.77
589.13	45392.35
589.29	45705.98
589.45	45808.96
589.61	45977.48
589.77	45982.16
589.93	46522.83
590.08	46146.00
590.24	46225.58
590.40	46506.44
590.56	46351.97
590.72	46085.15
590.88	46094.51
591.04	46337.93
591.20	46508.79
591.35	46412.82
591.51	46546.23
591.67	46122.60
591.83	46202.18
591.99	45855.78
592.15	45755.13
592.31	45944.72
592.46	46548.57
592.62	46003.23
592.78	46113.23
592.94	46354.31
593.10	46452.61
593.26	46340.27
593.41	46064.08
593.57	46007.91
593.73	46164.73
593.89	46174.09
594.05	46447.93
594.20	45911.95
594.36	46319.20
594.52	46127.28
594.68	46113.23
594.84	46096.85
594.99	46478.36
595.15	46068.76
595.31	46026.63
595.47	45968.12
595.62	45968.12
595.78	46363.67
595.94	46302.82
596.10	46314.52
596.25	46328.56
596.41	46078.13
596.57	46071.10
596.73	46394.10
596.88	45961.10
597.04	46251.33
597.20	46232.60
597.36	46288.77
597.51	46670.28
597.67	46050.04
597.83	46183.45
597.99	46536.87
598.14	46026.63
598.30	45844.07
598.46	46197.49
598.61	46195.15
598.77	46031.32
598.93	45895.56
599.09	46272.39
599.24	46649.22
599.40	46660.92
599.56	46136.64
599.71	46106.21
599.87	46300.48
600.03	45954.08
600.18	46197.49
600.34	45907.27
600.50	45958.76
600.65	45705.98
600.81	46129.62
600.97	46405.80
601.12	46176.43
601.28	46267.71
601.44	46047.70
601.59	46141.32
601.75	45607.68
601.91	45897.91
602.06	45958.76
602.22	46174.09
602.37	46066.42
602.53	46443.25
602.69	46443.25
602.84	46178.77
603.00	46099.19
603.16	46417.50
603.31	45975.14
603.47	46579.00
603.62	45923.65
603.78	46567.30
603.94	46092.17
604.09	46096.85
604.25	46480.70
604.40	45930.67
604.56	46089.83
604.71	46445.59
604.87	45794.92
605.03	45958.76
605.18	45673.21
605.34	45916.63
605.49	45799.60
605.65	46300.48
605.80	45942.38
605.96	46017.27
606.12	45567.89
606.27	46216.22
606.43	46052.38
606.58	45900.25
606.74	45900.25
606.89	45993.87
607.05	46010.25
607.20	45979.82
607.36	46099.19
607.51	46216.22
607.67	45818.33
607.82	45848.75
607.98	45621.72
608.13	45614.70
608.29	45633.42
608.44	45837.05
608.60	45567.89
608.75	45806.62
608.91	45867.48
609.06	45661.51
609.22	45914.29
609.37	45539.80
609.53	46000.89
609.68	45361.92
609.84	45593.64
609.99	45886.20
610.15	45385.33
610.30	45485.97
610.46	45289.37
610.61	45411.07
610.76	45460.23
610.92	46103.87
611.07	45460.23
611.23	45191.06
611.38	45235.53
611.54	45223.83
611.69	45291.71
611.84	45090.42
612.00	45401.71
612.15	45198.09
612.31	45535.12
612.46	45310.43
612.62	45703.64
612.77	45174.68
612.92	45642.79
613.08	45132.55
613.23	45212.13
613.39	44949.99
613.54	44872.75
613.69	44982.76
613.85	44729.98
614.00	45102.12
614.15	45090.42
614.31	45371.28
614.46	45434.48
614.62	44933.60
614.77	45223.83
614.92	44879.77
615.08	45022.54
615.23	44774.45
615.38	44479.54
615.54	44634.02
615.69	44552.10
615.84	44884.45
616.00	44987.44
616.15	44790.83
616.30	44655.08
616.46	44629.34
616.61	44751.04
616.76	44208.04
616.92	44446.77
617.07	44451.45
617.22	44271.23
617.37	44793.17
617.53	44954.67
617.68	45216.81
617.83	44676.15
617.99	44409.32
618.14	44486.56
618.29	44334.43
618.45	43995.05
618.60	44009.09
618.75	44299.32
618.90	44020.80
619.06	44582.52
619.21	44219.74
619.36	44140.16
619.51	44233.78
619.67	43924.83
619.82	44226.76
619.97	44458.48
620.12	43725.89
620.28	43789.08
620.43	43765.68
620.58	44353.15
620.73	44421.03
620.89	43871.00
621.04	43899.09
621.19	43901.43
621.34	44418.69
621.49	43714.19
621.65	43992.71
621.80	43753.97
621.95	44034.84
622.10	43679.08
622.25	43517.58
622.41	43969.30
622.56	43868.66
622.71	43583.12
622.86	44046.54
623.01	43562.05
623.16	43789.08
623.32	43948.24
623.47	43646.31
623.62	43840.57
623.77	43592.48
623.92	43784.40
624.07	43096.28
624.23	43070.54
624.38	43084.58
624.53	42813.08
624.68	43559.71
624.83	43381.83
624.98	43742.27
625.13	43154.80
625.29	43309.27
625.44	42918.40
625.59	42944.15
625.74	42824.78
625.89	42703.07
626.04	42824.78
626.19	43377.15
626.34	42843.51
626.49	42944.15
626.65	43023.73
626.80	43262.46
626.95	42981.60
627.10	42761.59
627.25	42834.14
627.40	42536.90
627.55	42344.97
627.70	42813.08
627.85	42279.44
628.00	42454.98
628.15	42906.70
628.30	42815.42
628.45	42728.82
628.60	42686.69
628.76	42600.09
628.91	42663.28
629.06	42143.69
629.21	42330.93
629.36	42480.72
629.51	42312.20
629.66	42445.62
629.81	42445.62
629.96	42363.70
630.11	42447.96
630.26	42326.25
630.41	42316.89
630.56	42043.04
630.71	42167.09
630.86	42092.19
631.01	42263.05
631.16	42131.98
631.31	42007.94
631.46	41486.00
631.61	42036.02
631.76	41663.88
631.91	42218.58
632.06	41963.46
632.21	42167.09
632.36	42174.11
632.51	41865.16
632.66	41977.51
632.81	41553.87
632.96	41958.78
633.10	41507.06
633.25	41757.50
633.40	41720.05
633.55	41876.86
633.70	42099.22
633.85	41958.78
634.00	41771.54
634.15	41823.03
634.30	41507.06
634.45	41167.68
634.60	41584.30
634.75	41820.69
634.90	41165.34
635.05	41713.03
635.19	41518.76
635.34	41516.42
635.49	41287.05
635.64	41214.49
635.79	41017.89
635.94	40671.49
636.09	41118.53
636.24	40718.30
636.39	41212.15
636.53	40708.94
636.68	41125.55
636.83	40830.65
636.98	41155.98
637.13	40760.43
637.28	41326.84
637.43	41537.49
637.57	41368.97
637.72	40982.78
637.87	40952.35
638.02	40959.38
638.17	41095.13
638.32	40765.11
638.46	40884.48
638.61	40711.28
638.76	41116.19
638.91	40718.30
639.06	40741.71
639.20	41188.75
639.35	40790.86
639.50	40816.60
639.65	40456.16
639.80	40505.31
639.94	40524.04
640.09	40809.58
640.24	40715.96
640.39	40112.10
640.54	40552.12
640.68	40423.39
640.83	40638.72
640.98	40140.19
641.13	39974.01
641.27	40577.87
641.42	40252.53
641.57	40238.49
641.72	40348.50
641.86	40109.76
642.01	39508.24
642.16	40161.25
642.31	39690.80
642.45	39997.41
642.60	39679.10
642.75	39915.50
642.90	40299.34
643.04	40116.78
643.19	39922.52
643.34	39648.68
643.48	39873.37
643.63	40385.94
643.78	39922.52
643.93	39868.69
644.07	39971.67
644.22	39505.90
644.37	39620.59
644.51	39517.60
644.66	39721.23
644.81	39878.05
644.95	40102.74
645.10	39679.10
645.25	39625.27
645.39	39938.90
645.54	39566.76
645.69	39335.04
645.83	39449.73
645.98	39180.57
646.13	39423.98
646.27	39653.36
646.42	39002.69
646.57	38803.74
646.71	39065.88
646.86	39033.11
647.00	39290.57
647.15	39384.19
647.30	39203.97
647.44	39302.28
647.59	38824.81
647.74	38700.76
647.88	39126.74
648.03	38998.01
648.17	39049.50
648.32	38869.28
648.47	38932.47
648.61	38990.98
648.76	39009.71
648.90	38869.28
649.05	39093.97
649.20	38663.31
649.34	38979.28
649.49	38780.34
649.63	38700.76
649.78	38754.59
649.92	38480.75
650.07	38761.61
650.21	38829.49
650.36	38724.16
650.51	38663.31
650.65	38937.15
650.80	39285.89
650.94	39108.01
651.09	38801.40
651.23	38096.90
651.38	38412.87
651.52	38103.92
651.67	38038.39
651.81	38220.95
651.96	38223.29
652.10	38665.65
652.25	38202.22
652.39	38665.65
652.54	38361.38
652.68	38110.94
652.83	38724.16
652.97	38747.57
653.12	38499.47
653.26	38085.20
653.41	38068.81
653.55	38101.58
653.70	38305.21
653.84	38052.43
653.99	38209.25
654.13	37874.55
654.27	37706.03
654.42	37626.45
654.56	38113.28
654.71	37921.36
654.85	37680.28
655.00	38080.52
655.14	37984.55
655.29	37481.34
655.43	37652.20
655.57	37024.93
655.72	37390.06
655.86	37085.79
656.01	37116.22
656.15	37029.62
656.30	37464.96
656.44	37303.46
656.58	37333.89
656.73	37462.61
656.87	37443.89
657.01	37251.97
657.16	37287.07
657.30	36615.34
657.45	37046.00
657.59	37200.47
657.73	36767.48
657.88	37488.36
658.02	37228.56
658.16	37628.79
658.31	37776.25
658.45	37167.71
658.60	36980.46
658.74	37354.95
658.88	36840.03
659.03	36671.51
659.17	36664.49
659.31	36584.91
659.46	36655.13
659.60	36737.05
659.74	36547.47
659.89	36638.75
660.03	36308.73
660.17	36858.76
660.32	36964.08
660.46	36760.45
660.60	36561.51
660.74	36180.00
660.89	36568.53
661.03	36023.19
661.17	36025.53
661.32	36353.20
661.46	36203.41
661.60	35971.69
661.74	36598.96
661.89	36072.34
662.03	35892.12
662.17	36051.27
662.31	36088.72
662.46	36453.84
662.60	36163.62
662.74	35978.72
662.88	35824.24
663.03	35480.18
663.17	35964.67
663.31	35014.41
663.45	35924.88
663.60	35906.16
663.74	35424.01
663.88	35208.68
664.02	35215.70
664.17	35335.07
664.31	35206.34
664.45	35372.52
664.59	35414.65
664.73	35264.85
664.88	35409.96
665.02	35166.55
665.16	34888.03
665.30	34618.86
665.44	34969.94
665.59	34223.31
665.73	34834.19
665.87	34522.90
666.01	34660.99
666.15	34841.21
666.29	34927.81
666.44	34974.63
666.58	34529.92
666.72	34565.03
666.86	34572.05
667.00	34417.58
667.14	34284.17
667.28	33937.77
667.43	34473.75
667.57	34424.60
667.71	33912.02
667.85	34384.81
667.99	33844.15
668.13	33745.84
668.27	33965.85
668.41	34270.12
668.56	33591.37
668.70	34054.79
668.84	33668.61
668.98	33109.22
669.12	33298.80
669.26	33319.87
669.40	33560.94
669.54	33450.94
669.68	33228.59
669.82	33020.28
669.96	32830.69
670.10	32809.63
670.25	32847.08
670.39	32638.77
670.53	32631.75
670.67	32814.31
670.81	32884.53
670.95	32690.26
671.09	32737.07
671.23	33034.32
671.37	32308.76
671.51	32460.89
671.65	32283.01
671.79	32428.12
671.93	32189.39
672.07	32133.21
672.21	32048.96
672.35	32587.28
672.49	32329.82
672.63	32116.83
672.77	32175.34
672.91	31983.42
673.05	32102.79
673.19	31763.41
673.33	31770.43
673.47	31592.55
673.61	31814.90
673.75	30958.27
673.89	31302.32
674.03	30899.75
674.17	31262.54
674.31	31412.33
674.45	31412.33
674.59	31124.44
674.73	31683.83
674.87	30855.28
675.01	30764.00
675.15	30958.27
675.29	31068.27
675.43	30958.27
675.56	30728.89
675.70	30464.41
675.84	30363.77
675.98	29242.65
676.12	30515.90
676.26	30483.14
676.40	30213.98
676.54	30082.91
676.68	30190.57
676.82	29645.23
676.96	30061.84
677.10	30080.56
677.23	29551.60
677.37	29596.07
677.51	29797.36
677.65	29305.85
677.79	29174.78
677.93	29191.16
678.07	28704.33
678.21	28596.67
678.34	28912.64
678.48	28554.54
678.62	28521.77
678.76	28320.48
678.90	28489.00
679.04	27992.81
679.18	28142.60
679.31	28240.90
679.45	27964.72
679.59	28168.35
679.73	27679.18
679.87	27821.95
680.00	28252.61
680.14	27615.98
680.28	27749.39
680.42	27555.13
680.56	27524.70
680.70	27908.55
680.83	27452.14
680.97	27234.47
681.11	27639.39
681.25	27431.08
681.39	27428.74
681.52	27398.31
681.66	27138.51
681.80	26785.09
681.94	26883.39
682.07	26295.92
682.21	26799.13
682.35	26602.53
682.49	26490.18
682.62	26354.43
682.76	26146.12
682.90	26111.02
683.04	26106.34
683.17	26185.91
683.31	25813.77
683.45	25621.84
683.59	25811.43
683.72	25656.95
683.86	25762.28
684.00	25954.20
684.13	25448.64
684.27	24994.58
684.41	25060.12
684.55	25378.43
684.68	25053.09
684.82	24917.34
684.96	25095.22
685.09	24732.44
685.23	24423.49
685.37	24788.61
685.50	24343.91
685.64	24421.15
685.78	24311.14
685.91	24261.99
686.05	24283.06
686.19	23880.49
686.32	23791.55
686.46	23225.14
686.60	23229.82
686.73	23108.11
686.87	22991.08
687.01	22885.76
687.14	22963.00
687.28	23084.70
687.42	23496.64
687.55	22965.34
687.69	23094.07
687.82	23293.01
687.96	22742.99
688.10	22707.88
688.23	22565.10
688.37	22541.70
688.50	22251.47
688.64	22462.12
688.78	22382.54
688.91	22132.11
689.05	22286.58
689.18	21998.70
689.32	21666.34
689.46	22017.42
689.59	22328.71
689.73	22309.99
689.86	22120.40
690.00	21825.50
690.13	21930.82
690.27	21481.44
690.41	21359.73
690.54	21123.33
690.68	21116.31
690.81	21291.85
690.95	21106.95
691.08	20919.71
691.22	20989.92
691.35	21193.55
691.49	20821.41
691.62	20870.56
691.76	20882.26
691.89	20669.27
692.03	20381.38
692.16	20369.68
692.30	20369.68
692.43	20570.97
692.57	19847.74
692.70	20037.33
692.84	19829.02
692.97	19805.61
693.11	19817.32
693.24	19882.85
693.38	19400.70
693.51	19534.11
693.65	19882.85
693.78	19660.50
693.92	19377.30
694.05	19159.63
694.19	19405.38
694.32	19042.60
694.45	19250.91
694.59	19129.20
694.72	18904.51
694.86	19054.30
694.99	18637.69
695.13	18757.05
695.26	18647.05
695.39	18735.99
695.53	18960.68
695.66	18637.69
695.80	18597.90
695.93	18572.15
696.07	18244.48
696.20	18361.50
696.33	18284.26
696.47	18228.09
696.60	18090.00
696.73	17855.95
696.87	17961.27
697.00	17570.40
697.14	17530.61
697.27	17373.80
697.40	17500.19
697.54	17334.01
697.67	17261.45
697.80	17242.73
697.94	16957.18
698.07	16800.37
698.21	16971.22
698.34	16851.86
698.47	17111.66
698.61	16512.48
698.74	16788.66
698.87	16755.90
699.01	16613.12
699.14	16348.64
699.27	16472.69
699.40	16322.90
699.54	16297.15
699.67	16318.22
699.80	16152.04
699.94	15915.64
700.07	16182.46
700.20	16123.95
700.34	15910.96
700.47	16264.38
700.60	15915.64
700.73	15651.16
700.87	15709.68
701.00	15442.85
701.13	15686.27
701.26	15499.03
701.40	15435.83
701.53	15332.85
701.66	15318.81
701.79	14913.89
701.93	15066.03
702.06	15000.49
702.19	14773.46
702.32	14864.74
702.46	14822.61
702.59	14855.38
702.72	14647.07
702.85	15080.07
702.99	14576.86
703.12	14586.22
703.25	14366.21
703.38	14347.48
703.51	14335.78
703.65	14300.67
703.78	14080.66
703.91	14298.33
704.04	14040.87
704.17	13937.89
704.31	13832.57
704.44	14185.99
704.57	13886.40
704.70	13488.51
704.83	13516.59
704.96	13664.05
705.10	13617.24
705.23	13528.30
>>>>>End Processed Spectral Data<<<<<
