SpectraSuite Data File
++++++++++++++++++++++++++++++++++++
Date: Fri Oct 25 10:43:53 EDT 2013
User: price-jones
Dark Spectrum Present: No
Reference Spectrum Present: No
Number of Sampled Component Spectra: 1
Spectrometers: USB2+H05261
Integration Time (usec): 100000 (USB2+H05261)
Spectra Averaged: 1 (USB2+H05261)
Boxcar Smoothing: 0 (USB2+H05261)
Correct for Electrical Dark: No (USB2+H05261)
Strobe/Lamp Enabled: No (USB2+H05261)
Correct for Detector Non-linearity: No (USB2+H05261)
Correct for Stray Light: No (USB2+H05261)
Number of Pixels in Processed Spectrum: 2048
>>>>>Begin Processed Spectral Data<<<<<
365.73	201.29
365.92	201.29
366.12	201.29
366.32	23.41
366.52	0.00
366.72	72.56
366.91	28.09
367.11	7.02
367.31	7.02
367.51	9.36
367.70	39.79
367.90	72.56
368.10	53.83
368.30	0.00
368.49	0.00
368.69	28.09
368.89	65.54
369.09	0.00
369.28	11.70
369.48	16.38
369.68	58.51
369.87	147.45
370.07	65.54
370.27	105.32
370.47	191.92
370.66	379.17
370.86	383.85
371.06	437.68
371.25	479.81
371.45	425.98
371.65	468.11
371.84	482.15
372.04	540.66
372.24	543.00
372.44	571.09
372.63	521.94
372.83	524.28
373.03	411.93
373.22	538.32
373.42	624.92
373.62	498.53
373.81	599.18
374.01	585.13
374.21	517.26
374.40	582.79
374.60	519.60
374.79	540.66
374.99	596.84
375.19	606.20
375.38	566.41
375.58	578.11
375.78	671.73
375.97	622.58
376.17	660.03
376.37	596.84
376.56	603.86
376.76	636.63
376.95	606.20
377.15	669.39
377.35	587.47
377.54	702.16
377.74	664.71
377.93	617.90
378.13	676.41
378.33	695.14
378.52	617.90
378.72	777.06
378.91	720.88
379.11	678.76
379.31	648.33
379.50	655.35
379.70	678.76
379.89	669.39
380.09	746.63
380.28	664.71
380.48	704.50
380.68	770.04
380.87	697.48
381.07	606.20
381.26	683.44
381.46	784.08
381.65	718.54
381.85	755.99
382.04	732.59
382.24	711.52
382.43	711.52
382.63	671.73
382.83	809.83
383.02	807.48
383.22	760.67
383.41	751.31
383.61	772.38
383.80	730.25
384.00	774.72
384.19	699.82
384.39	753.65
384.58	901.11
384.78	807.48
384.97	819.19
385.17	821.53
385.36	851.96
385.56	830.89
385.75	812.17
385.95	814.51
386.14	936.21
386.34	842.59
386.53	840.25
386.72	901.11
386.92	894.08
387.11	849.61
387.31	875.36
387.50	884.72
387.70	812.17
387.89	866.00
388.09	901.11
388.28	940.90
388.48	891.74
388.67	894.08
388.86	866.00
389.06	999.41
389.25	983.02
389.45	994.73
389.64	999.41
389.84	950.26
390.03	1064.94
390.22	1043.88
390.42	1083.67
390.61	1025.15
390.81	1057.92
391.00	1004.09
391.19	1184.31
391.39	1067.28
391.58	1088.35
391.78	1032.18
391.97	1018.13
392.16	1095.37
392.36	1015.79
392.55	1064.94
392.75	1027.50
392.94	943.24
393.13	980.68
393.33	1015.79
393.52	994.73
393.71	1118.78
393.91	1104.73
394.10	1200.69
394.29	1165.59
394.49	1184.31
394.68	1165.59
394.88	1193.67
395.07	1275.59
395.26	1263.89
395.46	1254.53
395.65	1338.79
395.84	1242.82
396.04	1221.76
396.23	1287.29
396.42	1235.80
396.62	1203.04
396.81	1210.06
397.00	1217.08
397.19	1327.08
397.39	1327.08
397.58	1334.11
397.77	1502.62
397.97	1362.19
398.16	1418.36
398.35	1483.90
398.55	1476.88
398.74	1519.01
398.93	1614.97
399.12	1474.54
399.32	1565.82
399.51	1547.09
399.70	1619.65
399.90	1701.57
400.09	1530.71
400.28	1621.99
400.47	1614.97
400.67	1736.68
400.86	1813.92
401.05	1820.94
401.24	1713.27
401.44	1732.00
401.63	1825.62
401.82	1792.85
402.01	1790.51
402.21	1767.10
402.40	1860.73
402.59	1741.36
402.78	1839.66
402.97	1872.43
403.17	1956.69
403.36	1933.28
403.55	1933.28
403.74	1921.58
403.93	1846.68
404.13	1902.86
404.32	1907.54
404.51	1916.90
404.70	2094.78
404.89	1935.62
405.09	2031.58
405.28	1914.56
405.47	2003.50
405.66	2101.80
405.85	2043.29
406.05	2071.37
406.24	2078.40
406.43	2057.33
406.62	2216.49
406.81	2253.94
407.00	2115.84
407.20	2136.91
407.39	2160.31
407.58	2223.51
407.77	2237.55
407.96	2275.00
408.15	2389.69
408.34	2363.94
408.54	2279.68
408.73	2387.35
408.92	2349.90
409.11	2368.62
409.30	2370.96
409.49	2333.51
409.68	2326.49
409.87	2342.88
410.07	2403.73
410.26	2513.74
410.45	2448.20
410.64	2525.44
410.83	2492.67
411.02	2502.03
411.21	2504.37
411.40	2642.46
411.59	2644.81
411.78	2654.17
411.98	2794.60
412.17	2773.53
412.36	2698.64
412.55	2787.58
412.74	2780.56
412.93	2827.37
413.12	2803.96
413.31	3052.06
413.50	2867.16
413.69	2991.20
413.88	3126.96
414.07	3080.14
414.26	3077.80
414.45	2977.16
414.64	3094.19
414.83	3108.23
415.02	3103.55
415.22	3148.02
415.41	3222.92
415.60	3262.71
415.79	3281.43
415.98	3410.16
416.17	3506.12
416.36	3276.75
416.55	3417.18
416.74	3449.95
416.93	3375.05
417.12	3386.76
417.31	3396.12
417.50	3435.91
417.69	3667.62
417.88	3513.14
418.07	3562.30
418.26	3520.17
418.45	3590.38
418.64	3672.30
418.83	3695.71
419.02	3737.84
419.21	3684.00
419.39	3564.64
419.58	3672.30
419.77	3782.31
419.96	3801.03
420.15	3873.59
420.34	3779.97
420.53	3880.61
420.72	4086.58
420.91	3913.38
421.10	3974.23
421.29	4025.72
421.48	3843.16
421.67	3971.89
421.86	3854.86
422.05	3934.44
422.24	3969.55
422.43	3852.52
422.61	3918.06
422.80	4053.81
422.99	4074.87
423.18	4119.34
423.37	4114.66
423.56	3967.21
423.75	4100.62
423.94	4156.79
424.13	3803.37
424.32	3920.40
424.50	4145.09
424.69	4149.77
424.88	4241.05
425.07	4142.75
425.26	3868.91
425.45	3985.93
425.64	4077.21
425.83	4053.81
426.01	4273.82
426.20	4016.36
426.39	4053.81
426.58	4105.30
426.77	4091.26
426.96	4081.89
427.15	4030.40
427.33	4245.73
427.52	4283.18
427.71	4201.26
427.90	4374.46
428.09	4348.72
428.28	4329.99
428.46	4196.58
428.65	4107.64
428.84	4318.29
429.03	4351.06
429.22	4315.95
429.40	4191.90
429.59	4168.49
429.78	4156.79
429.97	4121.68
430.16	4114.66
430.34	4168.49
430.53	4402.55
430.72	4191.90
430.91	4390.84
431.10	4425.95
431.28	4706.82
431.47	4774.69
431.66	4657.67
431.85	4814.48
432.03	4828.53
432.22	5011.09
432.41	4798.10
432.60	4851.93
432.79	4788.74
432.97	4880.02
433.16	4901.08
433.35	4725.54
433.54	4814.48
433.72	4765.33
433.91	4884.70
434.10	4720.86
434.28	4924.49
434.47	5001.72
434.66	5111.73
434.85	5095.35
435.03	5107.05
435.22	4992.36
435.41	5184.29
435.59	5334.08
435.78	5193.65
435.97	5163.22
436.16	5558.77
436.34	5341.10
436.53	5259.18
436.72	5483.88
436.90	5305.99
437.09	5394.93
437.28	5109.39
437.46	5287.27
437.65	5331.74
437.84	5254.50
438.02	5252.16
438.21	5315.36
438.40	5308.34
438.58	5490.90
438.77	5617.29
438.96	5530.69
439.14	5703.89
439.33	5802.19
439.52	5825.59
439.70	5652.39
439.89	5753.04
440.08	5966.03
440.26	5788.14
440.45	6050.28
440.63	6239.87
440.82	6265.61
441.01	6108.80
441.19	6293.70
441.38	6076.03
441.57	6293.70
441.75	6293.70
441.94	6478.60
442.12	6363.92
442.31	6574.56
442.50	6469.24
442.68	6331.15
442.87	6579.25
443.05	6626.06
443.24	6612.01
443.43	6647.12
443.61	6698.61
443.80	6895.22
443.98	6565.20
444.17	6380.30
444.35	6808.62
444.54	6862.45
444.73	6920.96
444.91	6705.63
445.10	6726.70
445.28	6700.95
445.47	6583.93
445.65	6750.10
445.84	6534.78
446.02	6628.40
446.21	6846.07
446.39	6787.55
446.58	6857.77
446.77	7002.88
446.95	6647.12
447.14	7007.56
447.32	6848.41
447.51	6906.92
447.69	6939.69
447.88	6939.69
448.06	6939.69
448.25	6913.94
448.43	6981.82
448.62	7021.61
448.80	6958.41
448.99	6967.77
449.17	7061.40
449.36	7019.27
449.54	7204.17
449.73	7272.04
449.91	7412.48
450.10	7599.72
450.28	7379.71
450.46	7524.82
450.65	7431.20
450.83	7396.09
451.02	7363.33
451.20	7604.40
451.39	7536.52
451.57	7365.67
451.76	7335.24
451.94	7435.88
452.13	7475.67
452.31	7342.26
452.49	7269.70
452.68	7332.90
452.86	7321.20
453.05	7440.56
453.23	7517.80
453.42	7634.83
453.60	7459.29
453.78	7768.24
453.97	7702.70
454.15	7702.70
454.34	7602.06
454.52	7721.43
454.70	7667.60
454.89	7470.99
455.07	7756.54
455.26	7941.44
455.44	7950.80
455.62	7929.74
455.81	7936.76
455.99	7985.91
456.17	8154.43
456.36	8138.04
456.54	8344.01
456.73	8395.50
456.91	8313.58
457.09	8257.41
457.28	8386.14
457.46	8360.39
457.64	8318.26
457.83	8210.60
458.01	8285.50
458.19	8390.82
458.38	8381.46
458.56	8507.85
458.74	8631.90
458.93	8383.80
459.11	8531.25
459.29	8400.18
459.48	8648.28
459.66	8615.51
459.84	8510.19
460.03	8840.20
460.21	8849.57
460.39	8648.28
460.57	8676.37
460.76	8730.20
460.94	8662.32
461.12	8875.31
461.31	8912.76
461.49	8870.63
461.67	8844.88
461.85	9275.54
462.04	9114.05
462.22	9081.28
462.40	9228.73
462.59	9032.13
462.77	9226.39
462.95	9256.82
463.13	9118.73
463.32	9081.28
463.50	9268.52
463.68	9291.93
463.86	9210.01
464.05	9228.73
464.23	9123.41
464.41	9387.89
464.59	9348.10
464.78	9364.48
464.96	9462.79
465.14	9261.50
465.32	9334.06
465.50	9570.45
465.69	9474.49
465.87	9703.86
466.05	9537.68
466.23	9469.81
466.41	9540.02
466.60	9612.58
466.78	9331.72
466.96	9336.40
467.14	9692.16
467.32	9366.82
467.51	9717.90
467.69	9551.73
467.87	9673.43
468.05	9877.06
468.23	9692.16
468.41	9479.17
468.60	9858.34
468.78	9912.17
468.96	9958.98
469.14	9987.07
469.32	10097.07
469.50	9748.33
469.69	10136.86
469.87	9928.55
470.05	10176.65
470.23	10204.74
470.41	10176.65
470.59	10429.43
470.77	10017.49
470.95	10237.50
471.14	10296.02
471.32	10178.99
471.50	10363.89
471.68	10600.29
471.86	10576.88
472.04	10792.21
472.22	10937.32
472.40	10672.84
472.58	10635.39
472.77	10595.61
472.95	10930.30
473.13	11159.67
473.31	10799.23
473.49	10855.40
473.67	11026.26
473.85	11073.07
474.03	11328.19
474.21	11239.25
474.39	11286.06
474.57	11328.19
474.75	11325.85
474.93	11417.13
475.12	11485.01
475.30	11396.07
475.48	11592.67
475.66	11712.04
475.84	11461.60
476.02	11571.61
476.20	11620.76
476.38	11728.42
476.56	12042.06
476.74	12208.23
476.92	12081.85
477.10	12044.40
477.28	12336.96
477.46	12273.77
477.64	12456.33
477.82	12961.89
478.00	13067.21
478.18	12793.37
478.36	12919.76
478.54	13118.70
478.72	13270.84
478.90	13280.20
479.08	13362.12
479.26	13401.91
479.44	13359.78
479.62	13666.39
479.80	13703.84
479.98	13673.41
480.16	14073.64
480.34	13975.34
480.52	14272.59
480.70	13898.10
480.88	14031.51
481.06	14066.62
481.24	14001.08
481.41	14377.91
481.59	14661.12
481.77	14693.88
481.95	15145.61
482.13	15070.71
482.31	14864.74
482.49	15250.93
482.67	15218.16
482.85	15328.17
483.03	15630.10
483.21	15763.51
483.39	15852.45
483.57	15894.58
483.74	15714.36
483.92	15817.34
484.10	15669.89
484.28	16341.62
484.46	16346.30
484.64	16610.78
484.82	16472.69
485.00	16697.38
485.18	16961.86
485.35	16919.73
485.53	16507.80
485.71	16535.88
485.89	16814.41
486.07	16908.03
486.25	17001.65
486.43	17392.52
486.61	17034.42
486.78	17635.94
486.96	17530.61
487.14	18431.72
487.32	18361.50
487.50	18363.84
487.68	18651.73
487.85	18932.59
488.03	19171.33
488.21	19098.77
488.39	19054.30
488.57	19066.00
488.75	19073.03
488.92	19271.97
489.10	19871.15
489.28	19833.70
489.46	20287.76
489.64	20372.02
489.81	20767.57
489.99	20814.38
490.17	20491.39
490.35	21001.63
490.53	20762.89
490.70	20961.84
490.88	21202.91
491.06	21256.75
491.24	21179.51
491.41	21102.27
491.59	21652.30
491.77	21130.36
491.95	21752.94
492.13	22106.36
492.30	22361.48
492.48	22272.54
492.66	22431.69
492.84	22178.92
493.01	22806.18
493.19	22541.70
493.37	22672.77
493.54	22902.14
493.72	23234.50
493.90	23035.55
494.08	23363.23
494.25	23646.43
494.43	23782.18
494.61	23880.49
494.79	24175.39
494.96	23796.23
495.14	24079.43
495.32	24409.45
495.49	24292.42
495.67	24208.16
495.85	24608.39
496.02	25036.71
496.20	24774.57
496.38	24973.52
496.55	25181.82
496.73	25645.25
496.91	25181.82
497.09	25832.49
497.26	25804.41
497.44	25532.90
497.62	26118.04
497.79	25935.48
497.97	25731.85
498.14	25893.35
498.32	26080.59
498.50	26342.73
498.67	26752.32
498.85	26480.82
499.03	26677.43
499.20	27007.44
499.38	27028.51
499.56	26958.29
499.73	27211.07
499.91	27288.31
500.08	27524.70
500.26	26995.74
500.44	26962.97
500.61	27250.86
500.79	27077.66
500.97	27522.36
501.14	27482.57
501.32	27878.12
501.49	27681.52
501.67	27967.06
501.84	27915.57
502.02	28554.54
502.20	28659.86
502.37	28514.75
502.55	28739.44
502.72	28432.83
502.90	28865.83
503.07	28673.90
503.25	28652.84
503.43	28725.39
503.60	28711.35
503.78	28671.56
503.95	29015.62
504.13	28760.50
504.30	29619.48
504.48	29352.66
504.65	29907.37
504.83	29745.87
505.01	29696.72
505.18	29860.55
505.36	29867.58
505.53	30153.12
505.71	30253.76
505.88	30464.41
506.06	30040.78
506.23	30756.98
506.41	30022.05
506.58	30693.79
506.76	30731.23
506.93	30799.11
507.11	30813.15
507.28	30787.41
507.46	30433.99
507.63	31019.12
507.81	31016.78
507.98	30855.28
508.16	30881.03
508.33	30991.03
508.50	31400.63
508.68	31807.88
508.85	31559.78
509.03	31690.85
509.20	31496.59
509.38	31775.11
509.55	32130.87
509.73	32203.43
509.90	32212.79
510.08	31931.93
510.25	32072.36
510.42	32254.92
510.60	32327.48
510.77	32636.43
510.95	32959.42
511.12	32643.45
511.30	33099.86
511.47	32730.05
511.64	32933.68
511.82	33249.65
511.99	32610.68
512.17	32914.95
512.34	33001.55
512.51	33544.56
512.69	33652.22
512.86	33453.28
513.04	33752.87
513.21	33497.75
513.38	33209.86
513.56	33425.19
513.73	33432.21
513.90	33954.15
514.08	33905.00
514.25	34206.93
514.43	33392.42
514.60	34125.01
514.77	34476.09
514.95	34019.69
515.12	34164.80
515.29	34190.55
515.47	35082.29
515.64	34747.59
515.81	34759.30
515.99	34913.77
516.16	34295.87
516.33	34291.19
516.51	34216.29
516.68	33652.22
516.85	33883.94
517.03	34010.32
517.20	34756.96
517.37	34909.09
517.54	35063.57
517.72	34948.88
517.89	34459.71
518.06	34639.93
518.24	34689.08
518.41	34660.99
518.58	35035.48
518.75	35309.32
518.93	35590.19
519.10	35393.58
519.27	35784.45
519.45	36020.84
519.62	36353.20
519.79	35864.03
519.96	35913.18
520.14	36126.17
520.31	35728.28
520.48	36322.77
520.65	36538.10
520.83	36851.73
521.00	36701.94
521.17	36397.67
521.34	36999.19
521.52	36781.52
521.69	37198.13
521.86	36699.60
522.03	37153.66
522.20	37453.25
522.38	37268.35
522.55	37193.45
522.72	37116.22
522.89	36921.95
523.07	37429.85
523.24	37340.91
523.41	37970.51
523.58	37661.56
523.75	38157.75
523.92	37813.70
524.10	37940.08
524.27	38202.22
524.44	37766.88
524.61	38127.33
524.78	38202.22
524.96	38244.35
525.13	38642.24
525.30	38635.22
525.47	38302.87
525.64	38583.73
525.81	38728.84
525.98	37970.51
526.16	37912.00
526.33	37928.38
526.50	38120.31
526.67	38071.15
526.84	38022.00
527.01	37855.82
527.18	38312.23
527.36	38469.04
527.53	38967.58
527.70	39051.84
527.87	38857.57
528.04	39028.43
528.21	39697.83
528.38	39400.58
528.55	39611.23
528.72	39562.08
528.89	39400.58
529.07	39758.68
529.24	39243.76
529.41	39782.09
529.58	39538.67
529.75	39271.85
529.92	39901.45
530.09	40011.46
530.26	39754.00
530.43	40540.42
530.60	40011.46
530.77	40149.55
530.94	40027.84
531.11	40306.37
531.28	40278.28
531.46	40421.05
531.63	40680.85
531.80	40044.23
531.97	40189.34
532.14	39929.54
532.31	40084.01
532.48	39948.26
532.65	39983.37
532.82	40425.73
532.99	40814.26
533.16	40353.18
533.33	40746.39
533.50	40851.71
533.67	40713.62
533.84	40666.81
534.01	40816.60
534.18	40484.25
534.35	41020.23
534.52	40917.25
534.69	41352.58
534.86	41179.39
535.03	41216.83
535.20	41558.55
535.37	41504.72
535.54	41808.99
535.71	41132.57
535.88	41425.14
536.05	41251.94
536.22	41783.24
536.38	41862.82
536.55	41532.81
536.72	41317.48
536.89	41085.76
537.06	41614.72
537.23	41469.61
537.40	41993.89
537.57	41701.32
537.74	41928.36
537.91	42190.50
538.08	41942.40
538.25	42064.11
538.42	42263.05
538.59	42342.63
538.75	41792.61
538.92	42218.58
539.09	42256.03
539.26	42277.10
539.43	42188.16
539.60	42216.24
539.77	42064.11
539.94	42171.77
540.11	41993.89
540.28	42244.33
540.44	42529.87
540.61	42454.98
540.78	42281.78
540.95	42251.35
541.12	41961.12
541.29	42220.92
541.46	42787.33
541.62	42611.79
541.79	43033.09
541.96	42288.80
542.13	42382.42
542.30	42560.30
542.47	42607.11
542.63	42616.47
542.80	42780.31
542.97	42937.13
543.14	43269.48
543.31	43140.75
543.48	43489.49
543.64	43716.53
543.81	44170.59
543.98	43859.30
544.15	43938.88
544.32	43210.97
544.48	44018.46
544.65	43643.97
544.82	43992.71
544.99	43461.41
545.16	43421.62
545.32	43456.73
545.49	44048.88
545.66	44158.89
545.83	43587.80
546.00	44128.46
546.16	44072.29
546.33	43992.71
546.50	43669.72
546.67	44243.15
546.83	43641.63
547.00	44151.87
547.17	44184.63
547.34	43873.34
547.50	43948.24
547.67	44282.94
547.84	43849.94
548.00	44683.17
548.17	44811.90
548.34	44320.38
548.51	44765.09
548.67	44697.21
548.84	44149.53
549.01	44105.06
549.18	44327.41
549.34	44685.51
549.51	44596.57
549.68	44830.62
549.84	44650.40
550.01	44774.45
550.18	44472.52
550.34	44587.21
550.51	44416.35
550.68	44692.53
550.84	44041.86
551.01	45085.74
551.18	44711.25
551.34	44580.18
551.51	44790.83
551.68	45352.56
551.84	45003.82
552.01	44912.54
552.18	44945.31
552.34	44832.96
552.51	44863.39
552.68	45067.02
552.84	44924.24
553.01	45254.26
553.18	45013.18
553.34	45202.77
553.51	44861.05
553.67	45111.49
553.84	45680.24
554.01	45518.74
554.17	45378.31
554.34	46007.91
554.51	45251.92
554.67	45837.05
554.84	46033.66
555.00	45387.67
555.17	45083.40
555.33	45544.48
555.50	45432.14
555.67	45694.28
555.83	45668.53
556.00	45558.53
556.16	45610.02
556.33	45258.94
556.50	45406.39
556.66	45867.48
556.83	45289.37
556.99	45722.37
557.16	45654.49
557.32	45846.41
557.49	45553.85
557.65	45776.20
557.82	45954.08
557.98	45888.54
558.15	45897.91
558.32	45963.44
558.48	45855.78
558.65	45834.71
558.81	45684.92
558.98	45844.07
559.14	45663.85
559.31	45397.03
559.47	46071.10
559.64	45991.53
559.80	45865.14
559.97	45813.65
560.13	45727.05
560.30	45949.40
560.46	46122.60
560.63	46005.57
560.79	46288.77
560.96	46106.21
561.12	46246.65
561.29	45773.86
561.45	45954.08
561.61	46302.82
561.78	46227.92
561.94	45947.06
562.11	46162.39
562.27	46263.03
562.44	46185.79
562.60	46190.47
562.77	46328.56
562.93	46466.66
563.10	46719.43
563.26	45940.04
563.42	46204.52
563.59	45741.09
563.75	46366.01
563.92	46698.37
564.08	46583.68
564.24	46384.74
564.41	46611.77
564.57	46195.15
564.74	46412.82
564.90	46522.83
565.07	46354.31
565.23	46354.31
565.39	46328.56
565.56	46447.93
565.72	46136.64
565.88	46150.68
566.05	45883.86
566.21	46443.25
566.38	46127.28
566.54	46639.86
566.70	46218.56
566.87	46820.08
567.03	46260.69
567.19	46719.43
567.36	46485.38
567.52	46363.67
567.68	46550.91
567.85	46401.12
568.01	46735.82
568.17	46717.09
568.34	46700.71
568.50	46326.22
568.66	46866.89
568.83	46555.60
568.99	46286.43
569.15	46677.30
569.32	46447.93
569.48	46206.86
569.64	46405.80
569.81	46691.35
569.97	46312.18
570.13	46600.07
570.30	46323.88
570.46	46284.09
570.62	46644.54
570.78	45827.69
570.95	46124.94
571.11	46469.00
571.27	46176.43
571.43	46291.12
571.60	46515.81
571.76	46686.67
571.92	46398.78
572.09	46883.27
572.25	46543.89
572.41	46501.76
572.57	46946.47
572.74	46857.52
572.90	46813.05
573.06	46932.42
573.22	46625.81
573.38	46752.20
573.55	46417.50
573.71	46878.59
573.87	47040.09
574.03	46424.53
574.20	46782.63
574.36	46719.43
574.52	46763.90
574.68	46761.56
574.84	46997.96
575.01	46745.18
575.17	47047.11
575.33	46312.18
575.49	46541.55
575.65	46885.61
575.82	46768.58
575.98	46679.64
576.14	46927.74
576.30	46597.73
576.46	46319.20
576.62	46586.02
576.79	46529.85
576.95	46403.46
577.11	46356.65
577.27	46724.11
577.43	46616.45
577.59	46136.64
577.75	46337.93
577.92	46281.75
578.08	46438.57
578.24	46213.88
578.40	46763.90
578.56	46415.16
578.72	46124.94
578.88	47019.02
579.04	46862.21
579.21	46780.29
579.37	46148.34
579.53	46452.61
579.69	46567.30
579.85	46527.51
580.01	46485.38
580.17	46651.56
580.33	46934.76
580.49	46646.88
580.65	46632.83
580.82	46852.84
580.98	46618.79
581.14	46380.06
581.30	47283.50
581.46	47004.98
581.62	46923.06
581.78	47019.02
581.94	47065.83
582.10	46710.07
582.26	46845.82
582.42	47126.69
582.58	46923.06
582.74	46632.83
582.90	47002.64
583.06	46920.72
583.22	46934.76
583.38	47201.58
583.54	47395.85
583.70	47185.20
583.86	47384.15
584.02	46820.08
584.18	46822.42
584.34	46789.65
584.50	46857.52
584.66	46480.70
584.82	46564.96
584.98	47129.03
585.14	47009.66
585.30	46639.86
585.46	46646.88
585.62	46064.08
585.78	46768.58
585.94	45972.80
586.10	46597.73
586.26	46834.12
586.42	46925.40
586.58	46909.02
586.74	46883.27
586.90	46403.46
587.06	46588.36
587.22	46801.35
587.38	46597.73
587.54	46855.18
587.70	47239.03
587.86	47047.11
588.02	47126.69
588.18	46873.91
588.34	46749.86
588.49	46115.58
588.65	45956.42
588.81	46185.79
588.97	46403.46
589.13	46131.96
589.29	46588.36
589.45	46436.23
589.61	46396.44
589.77	46611.77
589.93	47026.04
590.08	46600.07
590.24	47342.02
590.40	47068.17
590.56	47344.36
590.72	46848.16
590.88	46784.97
591.04	46813.05
591.20	47166.48
591.35	47157.11
591.51	47316.27
591.67	46604.75
591.83	46944.12
591.99	46630.49
592.15	46948.81
592.31	47147.75
592.46	47068.17
592.62	47470.75
592.78	47089.24
592.94	47334.99
593.10	46948.81
593.26	47311.59
593.41	46993.28
593.57	46803.69
593.73	46941.78
593.89	46979.23
594.05	47131.37
594.20	46906.68
594.36	46806.03
594.52	46878.59
594.68	46918.38
594.84	46859.87
594.99	47021.36
595.15	46916.04
595.31	47505.85
595.47	47180.52
595.62	47192.22
595.78	46932.42
595.94	46649.22
596.10	47002.64
596.25	47260.10
596.41	46536.87
596.57	46843.48
596.73	47224.99
596.88	46710.07
597.04	46995.62
597.20	47068.17
597.36	46953.49
597.51	47255.42
597.67	46948.81
597.83	46763.90
597.99	46946.47
598.14	46911.36
598.30	46719.43
598.46	47051.79
598.61	47234.35
598.77	46859.87
598.93	47033.07
599.09	47129.03
599.24	47297.55
599.40	47047.11
599.56	47320.95
599.71	46958.17
599.87	47452.02
600.03	46586.02
600.18	46866.89
600.34	46834.12
600.50	46932.42
600.65	46543.89
600.81	47143.07
600.97	47138.39
601.12	47150.09
601.28	46883.27
601.44	46754.54
601.59	46937.10
601.75	46869.23
601.91	46986.25
602.06	46815.40
602.22	46761.56
602.37	47201.58
602.53	47058.81
602.69	47145.41
602.84	46756.88
603.00	46670.28
603.16	46983.91
603.31	46789.65
603.47	47152.43
603.62	46337.93
603.78	46873.91
603.94	46656.24
604.09	46637.51
604.25	46672.62
604.40	46766.24
604.56	46822.42
604.71	47267.12
604.87	46939.44
605.03	46885.61
605.18	46862.21
605.34	46433.89
605.49	46438.57
605.65	46864.55
605.80	46747.52
605.96	46820.08
606.12	47014.34
606.27	47047.11
606.43	46815.40
606.58	46864.55
606.74	46681.98
606.89	46600.07
607.05	46892.63
607.20	46703.05
607.36	46990.94
607.51	47098.60
607.67	46508.79
607.82	46897.31
607.98	46520.49
608.13	46394.10
608.29	46567.30
608.44	46209.20
608.60	46380.06
608.75	46375.37
608.91	46571.98
609.06	46347.29
609.22	46522.83
609.37	46274.73
609.53	46918.38
609.68	46253.67
609.84	46604.75
609.99	45989.19
610.15	45862.80
610.30	46103.87
610.46	46302.82
610.61	46073.45
610.76	46361.33
610.92	46541.55
611.07	46567.30
611.23	46305.16
611.38	46625.81
611.54	45949.40
611.69	46220.90
611.84	46068.76
612.00	45886.20
612.15	45827.69
612.31	46312.18
612.46	46007.91
612.62	46157.70
612.77	46089.83
612.92	46253.67
613.08	46071.10
613.23	46237.28
613.39	45715.34
613.54	45125.53
613.69	45839.39
613.85	45720.02
614.00	45666.19
614.15	45925.99
614.31	45600.66
614.46	46246.65
614.62	46162.39
614.77	45853.44
614.92	45858.12
615.08	45303.41
615.23	45808.96
615.38	45483.63
615.54	45200.43
615.69	45647.47
615.84	45876.84
616.00	45708.32
616.15	45390.01
616.30	45998.55
616.46	45476.61
616.61	45443.84
616.76	45043.61
616.92	44978.07
617.07	45368.94
617.22	45319.79
617.37	45177.02
617.53	45708.32
617.68	45226.17
617.83	44931.26
617.99	45067.02
618.14	45446.18
618.29	44996.80
618.45	44671.46
618.60	44994.46
618.75	44514.65
618.90	45057.65
619.06	45296.39
619.21	45090.42
619.36	45322.13
619.51	45001.48
619.67	45022.54
619.82	45511.72
619.97	44729.98
620.12	45003.82
620.28	44416.35
620.43	44566.14
620.58	44615.29
620.73	44769.77
620.89	44821.26
621.04	44823.60
621.19	44842.32
621.34	44779.13
621.49	44612.95
621.65	44741.68
621.80	44835.30
621.95	44612.95
622.10	44486.56
622.25	44809.56
622.41	44622.31
622.56	44301.66
622.71	44430.39
622.86	44734.66
623.01	44130.80
623.16	44367.20
623.32	44271.23
623.47	44212.72
623.62	44364.85
623.77	44186.97
623.92	44081.65
624.07	44189.31
624.23	44147.18
624.38	44421.03
624.53	44037.18
624.68	44020.80
624.83	44142.50
624.98	44067.61
625.13	43700.14
625.29	43524.60
625.44	43789.08
625.59	43744.61
625.74	43395.87
625.89	43650.99
626.04	43833.55
626.19	43335.02
626.34	43746.95
626.49	43688.44
626.65	43662.69
626.80	43831.21
626.95	43480.13
627.10	43257.78
627.25	43337.36
627.40	43248.42
627.55	42911.38
627.70	42735.84
627.85	43136.07
628.00	43241.40
628.15	43426.30
628.30	43550.35
628.45	43445.02
628.60	43945.90
628.76	43580.78
628.91	43337.36
629.06	43012.02
629.21	43143.09
629.36	42621.16
629.51	43318.64
629.66	42937.13
629.81	42546.26
629.96	43065.86
630.11	42848.19
630.26	43227.35
630.41	43222.67
630.56	43079.90
630.71	42656.26
630.86	42543.92
631.01	42770.95
631.16	42656.26
631.31	42164.75
631.46	42232.63
631.61	42457.32
631.76	42529.87
631.91	42635.20
632.06	42326.25
632.21	42972.24
632.36	42728.82
632.51	42424.55
632.66	42363.70
632.81	42539.24
632.96	42387.10
633.10	42445.62
633.25	42501.79
633.40	42548.60
633.55	42616.47
633.70	42162.41
633.85	42038.36
634.00	42382.42
634.15	42485.40
634.30	42440.93
634.45	42192.84
634.60	42256.03
634.75	42326.25
634.90	41755.16
635.05	42284.12
635.19	41673.24
635.34	42506.47
635.49	41895.59
635.64	41801.97
635.79	41846.44
635.94	41860.48
636.09	41940.06
636.24	41635.79
636.39	41495.36
636.53	41755.16
636.68	41666.22
636.83	41722.39
636.98	41394.71
637.13	41099.81
637.28	41380.67
637.43	41890.91
637.57	41944.74
637.72	41680.26
637.87	41738.77
638.02	41354.93
638.17	41258.96
638.32	41626.43
638.46	41549.19
638.61	41488.34
638.76	41186.41
638.91	41792.61
639.06	41549.19
639.20	41675.58
639.35	41338.54
639.50	41521.10
639.65	41574.94
639.80	41216.83
639.94	40954.69
640.09	40865.75
640.24	41146.62
640.39	41013.21
640.54	40399.99
640.68	40924.27
640.83	40933.63
640.98	40601.27
641.13	40914.90
641.27	41120.87
641.42	40802.56
641.57	40959.38
641.72	40847.03
641.86	40678.51
642.01	40582.55
642.16	40561.48
642.31	40320.41
642.45	40540.42
642.60	40449.14
642.75	40493.61
642.90	40865.75
643.04	40575.53
643.19	40451.48
643.34	40669.15
643.48	40594.25
643.63	40479.57
643.78	40538.08
643.93	40793.20
644.07	40421.05
644.22	40224.45
644.37	40135.51
644.51	40205.72
644.66	40692.55
644.81	40025.50
644.95	40177.64
645.10	40006.78
645.25	40294.66
645.39	40381.26
645.54	40217.43
645.69	40030.18
645.83	40069.97
645.98	40016.14
646.13	40020.82
646.27	40060.61
646.42	39838.26
646.57	39828.90
646.71	39498.88
646.86	39957.63
647.00	40037.20
647.15	39927.20
647.30	39807.83
647.44	39321.00
647.59	39718.89
647.74	39351.43
647.88	39421.64
648.03	39580.80
648.17	39732.93
648.32	39536.33
648.47	39744.64
648.61	39241.42
648.76	39847.62
648.90	39374.83
649.05	39744.64
649.20	39281.21
649.34	39295.25
649.49	39192.27
649.63	39084.61
649.78	39393.56
649.92	39466.11
650.07	39896.77
650.21	39414.62
650.36	39215.68
650.51	39468.45
650.65	39966.99
650.80	39452.07
650.94	39515.26
651.09	39487.18
651.23	39075.24
651.38	39213.34
651.52	38490.11
651.67	38976.94
651.81	38899.70
651.96	39035.45
652.10	38426.92
652.25	39119.71
652.39	39175.89
652.54	38918.43
652.68	38859.91
652.83	38967.58
652.97	39276.53
653.12	38934.81
653.26	38532.24
653.41	38447.98
653.55	38447.98
653.70	38670.33
653.84	38293.50
653.99	38520.54
654.13	38066.47
654.27	38452.66
654.42	38464.36
654.56	38136.69
654.71	38836.51
654.85	38122.65
655.00	38192.86
655.14	38066.47
655.29	37919.02
655.43	38007.96
655.57	37912.00
655.72	37724.75
655.86	37537.51
656.01	37603.05
656.15	37146.64
656.30	37642.84
656.44	37949.45
656.58	37544.53
656.73	37926.04
656.87	37851.14
657.01	37773.91
657.16	37474.32
657.30	37202.82
657.45	37539.85
657.59	37752.84
657.73	37874.55
657.88	37860.51
658.02	37469.64
658.16	37743.48
658.31	38059.45
658.45	38101.58
658.60	37535.17
658.74	37762.20
658.88	37736.46
659.03	37282.39
659.17	37247.29
659.31	37301.12
659.46	37057.70
659.60	37361.97
659.74	37319.84
659.89	36652.79
660.03	37095.15
660.17	37619.43
660.32	37589.00
660.46	37055.36
660.60	37158.34
660.74	37177.07
660.89	36943.02
661.03	36542.78
661.17	36811.95
661.32	36851.73
661.46	36699.60
661.60	36390.65
661.74	36624.70
661.89	36060.63
662.03	36540.44
662.17	36533.42
662.31	35974.03
662.46	36715.98
662.60	37008.55
662.74	36315.75
662.88	36397.67
663.03	36268.94
663.17	36383.63
663.31	35931.90
663.45	36313.41
663.60	36170.64
663.74	35917.86
663.88	35915.52
664.02	35744.66
664.17	36304.05
664.31	35906.16
664.45	35861.69
664.59	35871.05
664.73	35466.14
664.88	35480.18
665.02	35196.98
665.16	35248.47
665.30	35182.93
665.44	35218.04
665.59	34988.67
665.73	35208.68
665.87	35007.39
666.01	35393.58
666.15	35047.18
666.29	34904.41
666.44	35129.10
666.58	35108.04
666.72	34962.92
666.86	34756.96
667.00	35030.80
667.14	34431.62
667.28	34576.73
667.43	34817.81
667.57	34836.53
667.71	34761.64
667.85	34562.69
667.99	34565.03
668.13	34621.20
668.27	34555.67
668.41	34616.52
668.56	34026.71
668.70	34258.42
668.84	33956.49
668.98	33907.34
669.12	33790.31
669.26	33993.94
669.40	33858.19
669.54	33738.82
669.68	34057.14
669.82	33502.43
669.96	33532.86
670.10	33628.82
670.25	33275.40
670.39	32971.13
670.53	33134.96
670.67	33233.27
670.81	33273.06
670.95	33397.10
671.09	33427.53
671.23	33195.82
671.37	32708.99
671.51	32954.74
671.65	32940.70
671.79	32503.02
671.93	32982.83
672.07	32804.95
672.21	33039.00
672.35	32772.18
672.49	32622.39
672.63	32868.14
672.77	32498.34
672.91	32620.05
673.05	32154.28
673.19	32236.20
673.33	31835.97
673.47	31756.39
673.61	32196.41
673.75	31967.04
673.89	31871.07
674.03	31885.12
674.17	32070.02
674.31	31714.26
674.45	31566.81
674.59	31711.92
674.73	31814.90
674.87	32002.14
675.01	31290.62
675.15	31257.85
675.29	31358.50
675.43	30869.33
675.56	31318.71
675.70	31330.41
675.84	30820.17
675.98	30221.00
676.12	30916.14
676.26	31164.23
676.40	30955.93
676.54	30724.21
676.68	30661.02
676.82	30415.26
676.96	30150.78
677.10	30087.59
677.23	30239.72
677.37	30106.31
677.51	30033.75
677.65	29633.52
677.79	29635.86
677.93	29535.22
678.07	28854.12
678.21	29069.45
678.34	29095.20
678.48	28856.46
678.62	28968.81
678.76	28835.40
678.90	29001.58
679.04	28762.84
679.18	29034.35
679.31	28439.85
679.45	28526.45
679.59	28130.90
679.73	28425.81
679.87	28301.76
680.00	28156.64
680.14	27913.23
680.28	28673.90
680.42	27960.04
680.56	28194.09
680.70	27798.54
680.83	28032.60
680.97	27566.83
681.11	27536.40
681.25	27292.99
681.39	27583.21
681.52	27367.88
681.66	27339.80
681.80	27325.75
681.94	27302.35
682.07	27042.55
682.21	27077.66
682.35	26684.45
682.49	27260.22
682.62	26487.84
682.76	26455.08
682.90	26536.99
683.04	26485.50
683.17	26134.42
683.31	25876.96
683.45	26167.19
683.59	26150.81
683.72	25867.60
683.86	25909.73
684.00	25963.56
684.13	25809.09
684.27	25291.83
684.41	25556.31
684.55	25153.74
684.68	25422.90
684.82	25249.70
684.96	25518.86
685.09	25085.86
685.23	25130.33
685.37	25106.93
685.50	25022.67
685.64	25062.46
685.78	24634.14
685.91	24601.37
686.05	24627.12
686.19	24102.84
686.32	24194.12
686.46	23917.93
686.60	23459.19
686.73	23709.63
686.87	23449.83
687.01	23227.48
687.14	23454.51
687.28	23300.03
687.42	23307.05
687.55	23410.04
687.69	23267.27
687.82	23140.88
687.96	23183.01
688.10	22904.48
688.23	22665.75
688.37	22588.51
688.50	22771.07
688.64	22792.14
688.78	22752.35
688.91	22190.62
689.05	22359.14
689.18	22380.20
689.32	22139.13
689.46	22246.79
689.59	22197.64
689.73	22478.50
689.86	21979.97
690.00	21715.49
690.13	21818.47
690.27	21633.57
690.41	21778.68
690.54	21376.11
690.68	21284.83
690.81	21802.09
690.95	21617.19
691.08	21273.13
691.22	21193.55
691.35	20954.82
691.49	21612.51
691.62	21446.33
691.76	20987.58
691.89	21130.36
692.03	20758.21
692.16	20872.90
692.30	20673.95
692.43	20369.68
692.57	20191.80
692.70	20336.91
692.84	20362.66
692.97	20074.77
693.11	20074.77
693.24	19796.25
693.38	19854.76
693.51	20163.72
693.65	19978.81
693.78	19985.83
693.92	19541.13
694.05	19836.04
694.19	19241.54
694.32	19386.66
694.45	19342.19
694.59	19496.66
694.72	19370.27
694.86	19112.81
694.99	18743.01
695.13	18984.09
695.26	18963.02
695.39	18925.57
695.53	18829.61
695.66	18740.67
695.80	18614.28
695.93	18703.22
696.07	18757.05
696.20	18649.39
696.33	18544.06
696.47	18338.10
696.60	18310.01
696.73	18022.12
696.87	18122.77
697.00	18094.68
697.14	17877.01
697.27	17820.84
697.40	17682.75
697.54	17446.35
697.67	17668.70
697.80	17343.37
697.94	17465.08
698.07	17270.81
698.21	17151.45
698.34	17301.24
698.47	17121.02
698.61	16950.16
698.74	17062.51
698.87	17036.76
699.01	16659.93
699.14	16444.60
699.27	16224.59
699.40	16648.23
699.54	16365.03
699.67	16238.64
699.80	16360.34
699.94	16098.20
700.07	16285.45
700.20	16093.52
700.34	16093.52
700.47	16074.80
700.60	16116.93
700.73	16133.31
700.87	15915.64
701.00	15772.87
701.13	15917.98
701.26	15384.34
701.40	15393.70
701.53	15372.64
701.66	15651.16
701.79	15269.66
701.93	15084.75
702.06	15169.01
702.19	14986.45
702.32	15178.37
702.46	14904.53
702.59	14991.13
702.72	14984.11
702.85	15070.71
702.99	14897.51
703.12	14693.88
703.25	14366.21
703.38	14569.83
703.51	14628.35
703.65	14572.18
703.78	14480.89
703.91	14057.26
704.04	13961.30
704.17	14279.61
704.31	14045.55
704.44	13968.32
704.57	13935.55
704.70	13830.23
704.83	13771.71
704.96	13916.83
705.10	13930.87
705.23	13736.60
>>>>>End Processed Spectral Data<<<<<
