SpectraSuite Data File
++++++++++++++++++++++++++++++++++++
Date: Fri Oct 25 10:44:00 EDT 2013
User: price-jones
Dark Spectrum Present: No
Reference Spectrum Present: No
Number of Sampled Component Spectra: 1
Spectrometers: USB2+H05261
Integration Time (usec): 100000 (USB2+H05261)
Spectra Averaged: 1 (USB2+H05261)
Boxcar Smoothing: 0 (USB2+H05261)
Correct for Electrical Dark: No (USB2+H05261)
Strobe/Lamp Enabled: No (USB2+H05261)
Correct for Detector Non-linearity: No (USB2+H05261)
Correct for Stray Light: No (USB2+H05261)
Number of Pixels in Processed Spectrum: 2048
>>>>>Begin Processed Spectral Data<<<<<
365.73	117.03
365.92	117.03
366.12	117.03
366.32	23.41
366.52	0.00
366.72	37.45
366.91	32.77
367.11	11.70
367.31	0.00
367.51	30.43
367.70	0.00
367.90	25.75
368.10	0.00
368.30	53.83
368.49	37.45
368.69	58.51
368.89	35.11
369.09	28.09
369.28	46.81
369.48	32.77
369.68	67.88
369.87	32.77
370.07	86.60
370.27	102.98
370.47	201.29
370.66	351.08
370.86	433.00
371.06	449.38
371.25	468.11
371.45	440.02
371.65	444.70
371.84	491.51
372.04	428.32
372.24	545.34
372.44	517.26
372.63	528.96
372.83	528.96
373.03	531.30
373.22	489.17
373.42	510.24
373.62	540.66
373.81	552.37
374.01	545.34
374.21	580.45
374.40	496.19
374.60	608.54
374.79	631.94
374.99	554.71
375.19	533.64
375.38	615.56
375.58	465.77
375.78	716.20
375.97	608.54
376.17	615.56
376.37	660.03
376.56	622.58
376.76	566.41
376.95	587.47
377.15	660.03
377.35	671.73
377.54	608.54
377.74	589.82
377.93	624.92
378.13	669.39
378.33	692.80
378.52	648.33
378.72	608.54
378.91	636.63
379.11	667.05
379.31	660.03
379.50	622.58
379.70	786.42
379.89	671.73
380.09	667.05
380.28	711.52
380.48	779.40
380.68	763.01
380.87	674.07
381.07	711.52
381.26	760.67
381.46	788.76
381.65	734.93
381.85	723.23
382.04	660.03
382.24	671.73
382.43	716.20
382.63	624.92
382.83	716.20
383.02	723.23
383.22	795.78
383.41	713.86
383.61	821.53
383.80	793.44
384.00	739.61
384.19	706.84
384.39	779.40
384.58	802.80
384.78	791.10
384.97	873.02
385.17	842.59
385.36	847.27
385.56	793.44
385.75	741.95
385.95	800.46
386.14	713.86
386.34	793.44
386.53	786.42
386.72	816.85
386.92	837.91
387.11	734.93
387.31	908.13
387.50	812.17
387.70	912.81
387.89	781.74
388.09	915.15
388.28	849.61
388.48	877.70
388.67	954.94
388.86	866.00
389.06	938.55
389.25	990.05
389.45	1069.62
389.64	952.60
389.84	1025.15
390.03	1025.15
390.22	1055.58
390.42	1046.22
390.61	1139.84
390.81	997.07
391.00	1011.11
391.19	1053.24
391.39	1081.33
391.58	1071.97
391.78	1181.97
391.97	1156.22
392.16	933.87
392.36	1050.90
392.55	1046.22
392.75	1020.47
392.94	1004.09
393.13	1011.11
393.33	924.51
393.52	1107.07
393.71	1074.31
393.91	1135.16
394.10	1128.14
394.29	1203.04
394.49	1144.52
394.68	1196.01
394.88	1235.80
395.07	1313.04
395.26	1217.08
395.46	1212.40
395.65	1238.14
395.84	1284.95
396.04	1282.61
396.23	1233.46
396.42	1139.84
396.62	1174.95
396.81	1294.32
397.00	1277.93
397.19	1317.72
397.39	1341.13
397.58	1409.00
397.77	1451.13
397.97	1483.90
398.16	1425.39
398.35	1455.81
398.55	1460.49
398.74	1490.92
398.93	1519.01
399.12	1528.37
399.32	1488.58
399.51	1476.88
399.70	1614.97
399.90	1591.56
400.09	1605.61
400.28	1640.72
400.47	1629.01
400.67	1593.90
400.86	1645.40
401.05	1727.32
401.24	1692.21
401.44	1757.74
401.63	1757.74
401.82	1830.30
402.01	1701.57
402.21	1823.28
402.40	1790.51
402.59	1746.04
402.78	1832.64
402.97	1706.25
403.17	1834.98
403.36	1858.39
403.55	1797.53
403.74	1748.38
403.93	1820.94
404.13	1940.30
404.32	1933.28
404.51	1966.05
404.70	1996.48
404.89	1977.75
405.09	2083.08
405.28	1902.86
405.47	1959.03
405.66	2005.84
405.85	2045.63
406.05	1984.77
406.24	2069.03
406.43	2019.88
406.62	2207.13
406.81	2303.09
407.00	2097.12
407.20	2062.01
407.39	2141.59
407.58	2237.55
407.77	2211.81
407.96	2307.77
408.15	2483.31
408.34	2267.98
408.54	2225.85
408.73	2338.20
408.92	2305.43
409.11	2487.99
409.30	2438.84
409.49	2286.70
409.68	2298.41
409.87	2272.66
410.07	2300.75
410.26	2333.51
410.45	2466.92
410.64	2373.30
410.83	2548.84
411.02	2434.16
411.21	2560.55
411.40	2668.21
411.59	2654.17
411.78	2633.10
411.98	2672.89
412.17	2773.53
412.36	2700.98
412.55	2682.25
412.74	2759.49
412.93	2773.53
413.12	2712.68
413.31	2995.89
413.50	2925.67
413.69	2857.79
413.88	2839.07
414.07	3021.63
414.26	2944.39
414.45	3073.12
414.64	2979.50
414.83	3075.46
415.02	3098.87
415.22	3157.38
415.41	3272.07
415.60	3325.90
415.79	3253.34
415.98	3358.67
416.17	3309.52
416.36	3295.47
416.55	3456.97
416.74	3330.58
416.93	3337.60
417.12	3452.29
417.31	3428.88
417.50	3494.42
417.69	3616.13
417.88	3445.27
418.07	3421.86
418.26	3449.95
418.45	3538.89
418.64	3735.50
418.83	3501.44
419.02	3662.94
419.21	3574.00
419.39	3684.00
419.58	3597.40
419.77	3613.79
419.96	3550.59
420.15	3751.88
420.34	3815.07
420.53	3763.58
420.72	3913.38
420.91	3892.31
421.10	3896.99
421.29	3918.06
421.48	3885.29
421.67	4018.70
421.86	3964.87
422.05	3857.20
422.24	3815.07
422.43	3936.78
422.61	4007.00
422.80	4091.26
422.99	3990.61
423.18	3985.93
423.37	4142.75
423.56	4074.87
423.75	4095.94
423.94	4058.49
424.13	3815.07
424.32	3815.07
424.50	4023.38
424.69	4100.62
424.88	4109.98
425.07	4074.87
425.26	3964.87
425.45	3955.51
425.64	3908.69
425.83	4037.42
426.01	4107.64
426.20	4201.26
426.39	4147.43
426.58	4100.62
426.77	4004.66
426.96	4077.21
427.15	3946.14
427.33	4154.45
427.52	4180.20
427.71	4322.97
427.90	4070.19
428.09	4315.95
428.28	4224.67
428.46	4250.41
428.65	4215.30
428.84	4367.44
429.03	4285.52
429.22	4140.41
429.40	4222.33
429.59	4140.41
429.78	4084.23
429.97	4016.36
430.16	4098.28
430.34	4161.47
430.53	4081.89
430.72	4311.27
430.91	4259.78
431.10	4510.21
431.28	4634.26
431.47	4723.20
431.66	4793.42
431.85	4582.77
432.03	4751.29
432.22	4732.56
432.41	4779.37
432.60	4816.82
432.79	4781.71
432.97	4966.62
433.16	4833.21
433.35	4720.86
433.54	4751.29
433.72	4791.08
433.91	4465.74
434.10	4880.02
434.28	4734.90
434.47	4889.38
434.66	4971.30
434.85	5057.90
435.03	5125.77
435.22	4884.70
435.41	5177.26
435.59	5184.29
435.78	5172.58
435.97	5277.91
436.16	5252.16
436.34	5109.39
436.53	5273.23
436.72	5298.97
436.90	5210.03
437.09	5331.74
437.28	5214.71
437.46	5195.99
437.65	5135.14
437.84	5261.52
438.02	5210.03
438.21	5355.15
438.40	5303.65
438.58	5411.32
438.77	5526.00
438.96	5542.39
439.14	5666.44
439.33	5643.03
439.52	5755.38
439.70	5694.52
439.89	5664.10
440.08	5650.05
440.26	5888.79
440.45	5760.06
440.63	5837.30
440.82	6080.71
441.01	5888.79
441.19	6237.53
441.38	6106.46
441.57	6097.10
441.75	6249.23
441.94	6579.25
442.12	6370.94
442.31	6569.88
442.50	6441.15
442.68	6406.05
442.87	6499.67
443.05	6443.49
443.24	6590.95
443.43	6754.79
443.61	6628.40
443.80	6750.10
443.98	6457.54
444.17	6324.13
444.35	6693.93
444.54	6715.00
444.73	6698.61
444.91	6691.59
445.10	6588.61
445.28	6661.16
445.47	6602.65
445.65	6518.39
445.84	6712.66
446.02	6750.10
446.21	6562.86
446.39	6724.36
446.58	6862.45
446.77	6801.60
446.95	6588.61
447.14	6768.83
447.32	6899.90
447.51	6874.15
447.69	6740.74
447.88	6876.49
448.06	6953.73
448.25	6953.73
448.43	6878.83
448.62	6850.75
448.80	6715.00
448.99	6988.84
449.17	7220.55
449.36	6815.64
449.54	7136.29
449.73	7227.57
449.91	7204.17
450.10	7419.50
450.28	7424.18
450.46	7653.55
450.65	7274.38
450.83	7344.60
451.02	7337.58
451.20	7358.64
451.39	7510.78
451.57	7356.30
451.76	7318.86
451.94	7358.64
452.13	7468.65
452.31	7342.26
452.49	7087.14
452.68	7335.24
452.86	7229.91
453.05	7499.08
453.23	7412.48
453.42	7510.78
453.60	7503.76
453.78	7747.17
453.97	7496.74
454.15	7503.76
454.34	7410.14
454.52	7707.38
454.70	7880.58
454.89	7613.76
455.07	7571.63
455.26	7838.45
455.44	7878.24
455.62	7894.63
455.81	7899.31
455.99	7815.05
456.17	7840.79
456.36	8004.63
456.54	7915.69
456.73	8257.41
456.91	8264.43
457.09	8322.94
457.28	8643.60
457.46	8189.53
457.64	8290.18
457.83	8271.45
458.01	8072.51
458.19	8299.54
458.38	8332.31
458.56	8365.07
458.74	8589.77
458.93	8374.44
459.11	8510.19
459.29	8510.19
459.48	8439.97
459.66	8475.08
459.84	8449.33
460.03	8720.84
460.21	8585.08
460.39	8624.87
460.57	8599.13
460.76	8779.35
460.94	8791.05
461.12	8793.39
461.31	8690.41
461.49	8915.10
461.67	8835.52
461.85	9114.05
462.04	8891.70
462.22	9334.06
462.40	9020.42
462.59	9151.49
462.77	9029.79
462.95	9172.56
463.13	9224.05
463.32	9163.20
463.50	9188.94
463.68	9263.84
463.86	9205.33
464.05	9135.11
464.23	9125.75
464.41	9104.68
464.59	9076.60
464.78	9275.54
464.96	9177.24
465.14	9240.44
465.32	9427.68
465.50	9628.96
465.69	9619.60
465.87	9413.63
466.05	9579.81
466.23	9427.68
466.41	9483.85
466.60	9430.02
466.78	9380.87
466.96	9427.68
467.14	9378.53
467.32	9483.85
467.51	9643.01
467.69	9474.49
467.87	9542.36
468.05	9853.66
468.23	9755.35
468.41	9650.03
468.60	9591.52
468.78	9771.74
468.96	9556.41
469.14	9811.53
469.32	10038.56
469.50	9870.04
469.69	9923.87
469.87	9954.30
470.05	9912.17
470.23	9870.04
470.41	10054.94
470.59	10178.99
470.77	10200.05
470.95	10244.52
471.14	10391.98
471.32	10281.97
471.50	10356.87
471.68	10415.38
471.86	10443.47
472.04	10455.17
472.22	10775.83
472.40	10509.01
472.58	10434.11
472.77	10572.20
472.95	10679.86
473.13	10995.84
473.31	10707.95
473.49	10801.57
473.67	10839.02
473.85	10815.62
474.03	11201.80
474.21	11080.10
474.39	11005.20
474.57	11267.34
474.75	11393.73
474.93	11482.67
475.12	11382.03
475.30	11412.45
475.48	11295.43
475.66	11494.37
475.84	11304.79
476.02	11529.48
476.20	11770.55
476.38	11873.54
476.56	12088.87
476.74	12037.38
476.92	12042.06
477.10	12233.98
477.28	12383.77
477.46	12339.30
477.64	12461.01
477.82	12636.55
478.00	12812.09
478.18	12755.92
478.36	12671.66
478.54	12877.63
478.72	12823.80
478.90	13146.79
479.08	13352.76
479.26	13378.50
479.44	13378.50
479.62	13205.30
479.80	13504.89
479.98	13551.70
480.16	13820.86
480.34	14038.53
480.52	14113.43
480.70	14052.58
480.88	13982.36
481.06	14148.54
481.24	14183.65
481.41	14363.87
481.59	14494.94
481.77	14654.09
481.95	14530.05
482.13	14890.49
482.31	14944.32
482.49	15414.77
482.67	15023.90
482.85	15080.07
483.03	15599.67
483.21	15751.81
483.39	15747.12
483.57	15889.90
483.74	15751.81
483.92	15901.60
484.10	15714.36
484.28	16262.04
484.46	16208.21
484.64	16645.89
484.82	16409.50
485.00	16430.56
485.18	16732.49
485.35	16886.97
485.53	16348.64
485.71	16498.44
485.89	16725.47
486.07	16725.47
486.25	16800.37
486.43	17153.79
486.61	17188.89
486.78	17635.94
486.96	17621.89
487.14	18047.87
487.32	18136.81
487.50	18204.69
487.68	18621.30
487.85	18501.93
488.03	18764.07
488.21	18904.51
488.39	18546.40
488.57	19091.75
488.75	18998.13
488.92	19396.02
489.10	19847.74
489.28	19646.46
489.46	20357.98
489.64	19871.15
489.81	20374.36
489.99	20772.25
490.17	20849.49
490.35	20758.21
490.53	20629.48
490.70	20978.22
490.88	20702.04
491.06	21270.79
491.24	20652.89
491.41	21186.53
491.59	21006.31
491.77	20992.26
491.95	21628.89
492.13	21848.90
492.30	22003.38
492.48	21977.63
492.66	22073.59
492.84	22150.83
493.01	22609.58
493.19	22508.93
493.37	22562.76
493.54	22396.59
493.72	22869.37
493.90	23178.33
494.08	23328.12
494.25	23688.56
494.43	23695.58
494.61	23711.97
494.79	23798.57
494.96	23648.77
495.14	23922.62
495.32	24215.18
495.49	23999.85
495.67	24194.12
495.85	24589.67
496.02	24805.00
496.20	24779.25
496.38	24690.31
496.55	25158.42
496.73	25401.83
496.91	25137.35
497.09	25577.37
497.26	25467.37
497.44	25219.27
497.62	25621.84
497.79	25991.65
497.97	25549.29
498.14	26125.06
498.32	26087.61
498.50	26148.46
498.67	26403.58
498.85	26483.16
499.03	27026.17
499.20	26607.21
499.38	26504.23
499.56	27037.87
499.73	26707.85
499.91	26745.30
500.08	27173.62
500.26	26249.11
500.44	27110.43
500.61	27030.85
500.79	27075.32
500.97	27218.09
501.14	27756.41
501.32	27428.74
501.49	27770.46
501.67	27737.69
501.84	27924.93
502.02	27475.55
502.20	27747.05
502.37	28336.87
502.55	28308.78
502.72	28297.08
502.90	28486.66
503.07	28250.27
503.25	28599.01
503.43	28526.45
503.60	28790.93
503.78	28437.51
503.95	28472.62
504.13	28982.85
504.30	29425.22
504.48	29181.80
504.65	29266.06
504.83	29586.71
505.01	29806.72
505.18	29600.76
505.36	29823.11
505.53	29977.58
505.71	30052.48
505.88	29736.51
506.06	29790.34
506.23	30122.69
506.41	29830.13
506.58	30211.64
506.76	30146.10
506.93	30677.40
507.11	30235.04
507.28	30349.73
507.46	30183.55
507.63	30480.80
507.81	30740.60
507.98	30593.14
508.16	31103.38
508.33	31175.94
508.50	31173.60
508.68	31337.43
508.85	31344.45
509.03	31812.56
509.20	31442.76
509.38	32004.49
509.55	31606.59
509.73	32084.06
509.90	31840.65
510.08	32165.98
510.25	32072.36
510.42	32060.66
510.60	32411.74
510.77	32320.46
510.95	32432.80
511.12	32608.34
511.30	32774.52
511.47	33195.82
511.64	33198.16
511.82	33069.43
511.99	32273.65
512.17	33024.96
512.34	32905.59
512.51	32996.87
512.69	33268.37
512.86	33144.33
513.04	33605.41
513.21	32985.17
513.38	33134.96
513.56	33469.66
513.73	33326.89
513.90	33563.28
514.08	33797.34
514.25	33830.10
514.43	34129.69
514.60	33771.59
514.77	33795.00
514.95	34192.89
515.12	34017.35
515.29	34017.35
515.47	34277.15
515.64	34604.82
515.81	33912.02
515.99	34394.17
516.16	34190.55
516.33	33907.34
516.51	34218.63
516.68	33947.13
516.85	33619.46
517.03	33879.25
517.20	34143.74
517.37	34628.23
517.54	34827.17
517.72	34951.22
517.89	34583.76
518.06	34909.09
518.24	34162.46
518.41	34686.74
518.58	35145.48
518.75	35440.39
518.93	35487.20
519.10	35431.03
519.27	35424.01
519.45	35662.74
519.62	35637.00
519.79	35681.47
519.96	35798.49
520.14	35845.30
520.31	35852.33
520.48	35988.08
520.65	35833.60
520.83	36369.58
521.00	36306.39
521.17	36484.27
521.34	36613.00
521.52	36795.56
521.69	36744.07
521.86	36685.56
522.03	36996.85
522.20	36903.23
522.38	37205.16
522.55	36893.86
522.72	37090.47
522.89	36774.50
523.07	37289.42
523.24	37116.22
523.41	37331.54
523.58	37284.73
523.75	37682.62
523.92	37666.24
524.10	37603.05
524.27	37813.70
524.44	37738.80
524.61	37591.34
524.78	37776.25
524.96	37961.15
525.13	38127.33
525.30	38361.38
525.47	38279.46
525.64	38089.88
525.81	37790.29
525.98	38007.96
526.16	37881.57
526.33	37640.50
526.50	37893.27
526.67	37921.36
526.84	37827.74
527.01	38206.90
527.18	38181.16
527.36	38485.43
527.53	38705.44
527.70	38995.67
527.87	38747.57
528.04	39014.39
528.21	39016.73
528.38	39042.48
528.55	39313.98
528.72	39339.72
528.89	39777.40
529.07	39175.89
529.24	39311.64
529.41	39346.75
529.58	38967.58
529.75	39473.13
529.92	39861.66
530.09	39735.27
530.26	39569.10
530.43	39166.52
530.60	39501.22
530.77	40055.93
530.94	40121.46
531.11	40294.66
531.28	39763.36
531.46	39957.63
531.63	40114.44
531.80	40093.38
531.97	39763.36
532.14	39992.73
532.31	39400.58
532.48	40168.27
532.65	40095.72
532.82	40297.00
532.99	40463.18
533.16	40254.87
533.33	40142.53
533.50	40793.20
533.67	40355.52
533.84	40605.95
534.01	40591.91
534.18	40568.51
534.35	41361.95
534.52	40575.53
534.69	41160.66
534.86	41027.25
535.03	40973.42
535.20	41448.55
535.37	41212.15
535.54	41235.56
535.71	41516.42
535.88	41478.97
536.05	41092.79
536.22	41371.31
536.38	41310.46
536.55	41408.76
536.72	41013.21
536.89	40657.45
537.06	41242.58
537.23	41432.16
537.40	41240.24
537.57	41511.74
537.74	41617.07
537.91	42017.30
538.08	41766.86
538.25	41806.65
538.42	41909.63
538.59	41780.90
538.75	41560.89
538.92	41993.89
539.09	42396.46
539.26	41792.61
539.43	41593.66
539.60	41972.83
539.77	41916.65
539.94	41869.84
540.11	41968.15
540.28	42447.96
540.44	41972.83
540.61	42014.96
540.78	41909.63
540.95	41921.34
541.12	41771.54
541.29	42258.37
541.46	42401.14
541.62	42129.64
541.79	42597.75
541.96	41413.44
542.13	42464.34
542.30	42312.20
542.47	42700.73
542.63	42284.12
542.80	42497.11
542.97	43313.95
543.14	43222.67
543.31	42768.61
543.48	43290.55
543.64	44289.96
543.81	43143.09
543.98	43351.40
544.15	43119.69
544.32	43562.05
544.48	44067.61
544.65	43274.16
544.82	43344.38
544.99	43225.01
545.16	43622.90
545.32	43239.06
545.49	43622.90
545.66	44170.59
545.83	43812.49
546.00	43966.96
546.16	43922.49
546.33	43693.12
546.50	43693.12
546.67	43730.57
546.83	43629.93
547.00	44083.99
547.17	43487.15
547.34	43545.67
547.50	43819.51
547.67	44044.20
547.84	43885.04
548.00	44458.48
548.17	44334.43
548.34	44081.65
548.51	44079.31
548.67	44346.13
548.84	44121.44
549.01	44191.65
549.18	44116.76
549.34	44509.97
549.51	44526.35
549.68	44245.49
549.84	44137.82
550.01	44488.90
550.18	44306.34
550.34	44512.31
550.51	44360.17
550.68	44282.94
550.84	44589.55
551.01	44870.41
551.18	45029.57
551.34	44301.66
551.51	44652.74
551.68	44823.60
551.84	44575.50
552.01	44456.14
552.18	44502.95
552.34	44706.57
552.51	44615.29
552.68	45029.57
552.84	45338.52
553.01	45078.72
553.18	45102.12
553.34	44683.17
553.51	45095.10
553.67	45022.54
553.84	45415.76
554.01	45429.80
554.17	45539.80
554.34	45207.45
554.51	45366.60
554.67	45551.51
554.84	45181.70
555.00	45069.36
555.17	44811.90
555.33	45492.99
555.50	45284.68
555.67	45450.86
555.83	45230.85
556.00	44999.14
556.16	45778.54
556.33	45336.18
556.50	45446.18
556.66	45584.27
556.83	44837.64
556.99	46012.59
557.16	45624.06
557.32	45354.90
557.49	45872.16
557.65	45310.43
557.82	45675.55
557.98	45961.10
558.15	45500.01
558.32	45757.47
558.48	45322.13
558.65	45432.14
558.81	45200.43
558.98	45242.56
559.14	45918.97
559.31	45888.54
559.47	45659.17
559.64	45902.59
559.80	45914.29
559.97	45815.99
560.13	45614.70
560.30	46010.25
560.46	45813.65
560.63	46115.58
560.79	46012.59
560.96	46405.80
561.12	45654.49
561.29	45911.95
561.45	45518.74
561.61	46103.87
561.78	45890.88
561.94	45944.72
562.11	45680.24
562.27	45764.49
562.44	45930.67
562.60	46075.79
562.77	45909.61
562.93	45837.05
563.10	46230.26
563.26	45799.60
563.42	46113.23
563.59	45911.95
563.75	45975.14
563.92	46167.07
564.08	46347.29
564.24	45947.06
564.41	46263.03
564.57	45940.04
564.74	46050.04
564.90	45823.01
565.07	46389.42
565.23	46323.88
565.39	46106.21
565.56	46183.45
565.72	45827.69
565.88	46134.30
566.05	46344.95
566.21	46237.28
566.38	46227.92
566.54	46138.98
566.70	46293.46
566.87	46506.44
567.03	46511.13
567.19	46394.10
567.36	46513.47
567.52	46323.88
567.68	46291.12
567.85	46658.58
568.01	46445.59
568.17	46199.83
568.34	46375.37
568.50	46363.67
568.66	46490.06
568.83	46471.34
568.99	46085.15
569.15	46401.12
569.32	46485.38
569.48	45977.48
569.64	46281.75
569.81	46375.37
569.97	46174.09
570.13	46597.73
570.30	46031.32
570.46	46012.59
570.62	45785.56
570.78	45897.91
570.95	46452.61
571.11	46454.95
571.27	46504.10
571.43	46174.09
571.60	46199.83
571.76	46586.02
571.92	46368.35
572.09	46555.60
572.25	46447.93
572.41	46403.46
572.57	46721.77
572.74	46752.20
572.90	46569.64
573.06	46588.36
573.22	46263.03
573.38	46286.43
573.55	46267.71
573.71	46593.04
573.87	46487.72
574.03	46614.11
574.20	46199.83
574.36	46344.95
574.52	46618.79
574.68	46358.99
574.84	46761.56
575.01	46639.86
575.17	46326.22
575.33	46396.44
575.49	46347.29
575.65	47002.64
575.82	46770.93
575.98	46209.20
576.14	46653.90
576.30	46817.74
576.46	46525.17
576.62	46445.59
576.79	46174.09
576.95	46501.76
577.11	46291.12
577.27	46838.80
577.43	46244.30
577.59	46387.08
577.75	46054.72
577.92	46101.53
578.08	46302.82
578.24	46347.29
578.40	46639.86
578.56	46579.00
578.72	46656.24
578.88	46862.21
579.04	46848.16
579.21	46216.22
579.37	46305.16
579.53	46770.93
579.69	46684.33
579.85	46171.75
580.01	46777.95
580.17	46607.09
580.33	46300.48
580.49	47026.04
580.65	46859.87
580.82	46412.82
580.98	46820.08
581.14	46188.13
581.30	46553.26
581.46	46471.34
581.62	46651.56
581.78	46597.73
581.94	46780.29
582.10	46848.16
582.26	46366.01
582.42	46501.76
582.58	46539.21
582.74	46567.30
582.90	46890.29
583.06	46597.73
583.22	46447.93
583.38	46995.62
583.54	46841.14
583.70	46953.49
583.86	46513.47
584.02	46476.02
584.18	46284.09
584.34	46890.29
584.50	46747.52
584.66	46742.84
584.82	46293.46
584.98	46766.24
585.14	46583.68
585.30	46443.25
585.46	46363.67
585.62	46787.31
585.78	46340.27
585.94	46256.01
586.10	46546.23
586.26	46160.05
586.42	46876.25
586.58	46815.40
586.74	46843.48
586.90	46178.77
587.06	46550.91
587.22	46525.17
587.38	46880.93
587.54	46710.07
587.70	46564.96
587.86	46864.55
588.02	46742.84
588.18	46803.69
588.34	46831.78
588.49	46307.50
588.65	46073.45
588.81	46167.07
588.97	46590.70
589.13	46099.19
589.29	46426.87
589.45	46506.44
589.61	46728.80
589.77	46831.78
589.93	46515.81
590.08	46548.57
590.24	46787.31
590.40	46906.68
590.56	46803.69
590.72	46850.50
590.88	46593.04
591.04	46899.65
591.20	46965.19
591.35	46843.48
591.51	47061.15
591.67	47117.32
591.83	46642.20
591.99	46667.94
592.15	46351.97
592.31	46913.70
592.46	46749.86
592.62	46464.32
592.78	46646.88
592.94	47133.71
593.10	46630.49
593.26	46843.48
593.41	46979.23
593.57	46831.78
593.73	46665.60
593.89	46834.12
594.05	46436.23
594.20	46766.24
594.36	47014.34
594.52	46609.43
594.68	46480.70
594.84	46363.67
594.99	46370.69
595.15	46663.26
595.31	47372.44
595.47	46717.09
595.62	46717.09
595.78	46911.36
595.94	47124.35
596.10	47175.84
596.25	47236.69
596.41	47035.41
596.57	46681.98
596.73	47077.54
596.88	46562.62
597.04	46768.58
597.20	47166.48
597.36	46579.00
597.51	47227.33
597.67	46803.69
597.83	46864.55
597.99	47192.22
598.14	46972.21
598.30	46813.05
598.46	47145.41
598.61	46927.74
598.77	46476.02
598.93	46621.13
599.09	47014.34
599.24	47061.15
599.40	46941.78
599.56	47007.32
599.71	46721.77
599.87	46902.00
600.03	46471.34
600.18	46899.65
600.34	46806.03
600.50	46548.57
600.65	46754.54
600.81	46976.89
600.97	47241.37
601.12	47292.86
601.28	47161.79
601.44	46534.53
601.59	46597.73
601.75	46576.66
601.91	46733.48
602.06	46368.35
602.22	46670.28
602.37	47159.45
602.53	46735.82
602.69	46660.92
602.84	46557.94
603.00	46546.23
603.16	47159.45
603.31	46691.35
603.47	46939.44
603.62	46494.74
603.78	46850.50
603.94	46866.89
604.09	47112.64
604.25	46890.29
604.40	46569.64
604.56	46857.52
604.71	46990.94
604.87	46461.97
605.03	46827.10
605.18	46466.66
605.34	46808.37
605.49	46241.96
605.65	46852.84
605.80	46841.14
605.96	46576.66
606.12	46761.56
606.27	46890.29
606.43	46763.90
606.58	47014.34
606.74	46714.75
606.89	46586.02
607.05	46700.71
607.20	46813.05
607.36	46934.76
607.51	46726.46
607.67	46347.29
607.82	46349.63
607.98	46356.65
608.13	46141.32
608.29	46550.91
608.44	46038.34
608.60	45996.21
608.75	46057.06
608.91	46628.15
609.06	46548.57
609.22	46728.80
609.37	46087.49
609.53	46246.65
609.68	46820.08
609.84	46003.23
609.99	46155.36
610.15	45764.49
610.30	45989.19
610.46	46185.79
610.61	45677.90
610.76	46342.61
610.92	45996.21
611.07	45989.19
611.23	45977.48
611.38	46473.68
611.54	45614.70
611.69	46071.10
611.84	46258.35
612.00	46052.38
612.15	45755.13
612.31	45862.80
612.46	45893.22
612.62	45743.43
612.77	45846.41
612.92	46267.71
613.08	45792.58
613.23	45511.72
613.39	45673.21
613.54	45476.61
613.69	45603.00
613.85	45399.37
614.00	45612.36
614.15	45951.74
614.31	45865.14
614.46	45621.72
614.62	45727.05
614.77	45794.92
614.92	45436.82
615.08	46005.57
615.23	45357.24
615.38	45326.81
615.54	45329.16
615.69	45411.07
615.84	45069.36
616.00	45794.92
616.15	45043.61
616.30	45207.45
616.46	45003.82
616.61	45207.45
616.76	45120.85
616.92	45193.40
617.07	45240.21
617.22	44732.32
617.37	44882.11
617.53	45439.16
617.68	45277.66
617.83	45184.04
617.99	45057.65
618.14	44935.95
618.29	45020.20
618.45	44858.71
618.60	44982.76
618.75	44732.32
618.90	44648.06
619.06	45411.07
619.21	44926.58
619.36	45237.87
619.51	44975.73
619.67	44793.17
619.82	44975.73
619.97	44683.17
620.12	44669.12
620.28	44699.55
620.43	44542.74
620.58	44982.76
620.73	44849.35
620.89	44849.35
621.04	44722.96
621.19	44910.20
621.34	44652.74
621.49	44556.78
621.65	44563.80
621.80	44938.29
621.95	44079.31
622.10	44231.44
622.25	44048.88
622.41	44334.43
622.56	44378.90
622.71	44397.62
622.86	44488.90
623.01	44203.36
623.16	44350.81
623.32	44161.23
623.47	44369.54
623.62	43667.37
623.77	44027.82
623.92	44198.68
624.07	44044.20
624.23	43892.07
624.38	43981.01
624.53	43421.62
624.68	44158.89
624.83	43849.94
624.98	43943.56
625.13	43381.83
625.29	44041.86
625.44	43679.08
625.59	43576.09
625.74	43222.67
625.89	43297.57
626.04	43138.41
626.19	43421.62
626.34	43475.45
626.49	43665.03
626.65	43653.33
626.80	43566.73
626.95	43484.81
627.10	43271.82
627.25	43615.88
627.40	43349.06
627.55	43206.29
627.70	43210.97
627.85	42974.58
628.00	43026.07
628.15	43210.97
628.30	42773.29
628.45	43540.99
628.60	43131.39
628.76	42927.77
628.91	43213.31
629.06	42831.80
629.21	42784.99
629.36	42389.44
629.51	42880.95
629.66	42487.74
629.81	42590.73
629.96	42593.07
630.11	42747.54
630.26	43161.82
630.41	43091.60
630.56	42775.63
630.71	42164.75
630.86	42689.03
631.01	42394.12
631.16	42621.16
631.31	42604.77
631.46	42010.28
631.61	42368.38
631.76	42241.99
631.91	42462.00
632.06	42660.94
632.21	42572.00
632.36	42131.98
632.51	42167.09
632.66	42227.95
632.81	41895.59
632.96	41993.89
633.10	42375.40
633.25	42218.58
633.40	42131.98
633.55	42581.37
633.70	42431.57
633.85	41895.59
634.00	42251.35
634.15	42094.53
634.30	42328.59
634.45	41713.03
634.60	41808.99
634.75	41909.63
634.90	41605.36
635.05	41698.98
635.19	41364.29
635.34	41991.55
635.49	42183.48
635.64	41509.40
635.79	42195.18
635.94	41851.12
636.09	41317.48
636.24	41638.13
636.39	41352.58
636.53	41493.02
636.68	41298.75
636.83	41294.07
636.98	41488.34
637.13	41251.94
637.28	41935.38
637.43	41619.41
637.57	41581.96
637.72	41359.61
637.87	41715.37
638.02	41434.50
638.17	41862.82
638.32	41219.17
638.46	41497.70
638.61	41312.80
638.76	41069.38
638.91	41497.70
639.06	41467.27
639.20	41118.53
639.35	41207.47
639.50	41345.56
639.65	41387.69
639.80	41352.58
639.94	40926.61
640.09	41163.00
640.24	40931.29
640.39	40865.75
640.54	40807.24
640.68	40814.26
640.83	40954.69
640.98	40734.68
641.13	41013.21
641.27	40828.30
641.42	40779.15
641.57	40776.81
641.72	40502.97
641.86	40570.85
642.01	40236.15
642.16	40203.38
642.31	40341.47
642.45	40737.02
642.60	39901.45
642.75	40449.14
642.90	40612.98
643.04	40474.88
643.19	40051.25
643.34	41050.66
643.48	40130.83
643.63	40147.21
643.78	39901.45
643.93	40348.50
644.07	40514.67
644.22	39887.41
644.37	39854.64
644.51	40219.77
644.66	40046.57
644.81	40116.78
644.95	40360.20
645.10	40360.20
645.25	40392.97
645.39	40128.48
645.54	40142.53
645.69	40430.41
645.83	40332.11
645.98	39859.32
646.13	40020.82
646.27	40044.23
646.42	39634.63
646.57	39461.43
646.71	39339.72
646.86	39814.85
647.00	39798.47
647.15	39913.16
647.30	39871.03
647.44	39175.89
647.59	39604.20
647.74	39328.02
647.88	39449.73
648.03	39321.00
648.17	39601.86
648.32	39225.04
648.47	39512.92
648.61	39239.08
648.76	39686.12
648.90	39391.22
649.05	39257.81
649.20	39749.32
649.34	39299.94
649.49	39346.75
649.63	38752.25
649.78	39384.19
649.92	39512.92
650.07	39573.78
650.21	39248.44
650.36	39503.56
650.51	39374.83
650.65	39304.62
650.80	39480.16
650.94	39739.96
651.09	39379.51
651.23	39246.10
651.38	38998.01
651.52	39033.11
651.67	38937.15
651.81	38595.43
651.96	38707.78
652.10	38698.42
652.25	38864.60
652.39	38955.88
652.54	38871.62
652.68	39028.43
652.83	38675.01
652.97	38600.12
653.12	39007.37
653.26	38838.85
653.41	38714.80
653.55	38202.22
653.70	38426.92
653.84	38492.45
653.99	38401.17
654.13	38511.17
654.27	38562.67
654.42	38106.26
654.56	38445.64
654.71	38574.37
654.85	38213.93
655.00	38337.98
655.14	38419.89
655.29	37811.35
655.43	37769.22
655.57	38064.13
655.72	37752.84
655.86	38010.30
656.01	37450.91
656.15	37420.48
656.30	37654.54
656.44	37464.96
656.58	37563.26
656.73	37619.43
656.87	38054.77
657.01	37895.61
657.16	37766.88
657.30	37434.53
657.45	37495.38
657.59	37816.04
657.73	37778.59
657.88	37567.94
658.02	38073.49
658.16	37893.27
658.31	37872.21
658.45	38010.30
658.60	37301.12
658.74	37593.68
658.88	37785.61
659.03	37331.54
659.17	37223.88
659.31	37310.48
659.46	37013.23
659.60	37200.47
659.74	37249.63
659.89	37186.43
660.03	37036.64
660.17	37235.58
660.32	36898.55
660.46	37294.10
660.60	36685.56
660.74	36980.46
660.89	37013.23
661.03	36776.84
661.17	36477.25
661.32	36390.65
661.46	36374.27
661.60	36828.33
661.74	36292.35
661.89	36769.82
662.03	36575.55
662.17	36418.74
662.31	36252.56
662.46	36706.62
662.60	35941.27
662.74	36720.66
662.88	36299.37
663.03	36257.24
663.17	36126.17
663.31	35747.00
663.45	36081.70
663.60	35700.19
663.74	36100.42
663.88	35906.16
664.02	35278.89
664.17	35660.40
664.31	35620.61
664.45	35386.56
664.59	35428.69
664.73	35587.85
664.88	35508.27
665.02	35428.69
665.16	35400.60
665.30	35124.42
665.44	35318.68
665.59	35077.61
665.73	35016.75
665.87	35112.72
666.01	35250.81
666.15	35204.00
666.29	35119.74
666.44	34838.87
666.58	34796.74
666.72	34782.70
666.86	34686.74
667.00	34792.06
667.14	34333.32
667.28	34429.28
667.43	34637.59
667.57	34389.49
667.71	34778.02
667.85	34785.04
667.99	34543.97
668.13	34714.83
668.27	34164.80
668.41	34817.81
668.56	33956.49
668.70	33944.79
668.84	34120.33
668.98	34026.71
669.12	33907.34
669.26	33652.22
669.40	33830.10
669.54	33436.89
669.68	33359.66
669.82	33436.89
669.96	33560.94
670.10	33071.77
670.25	33886.28
670.39	33123.26
670.53	32664.52
670.67	33275.40
670.81	33497.75
670.95	33254.33
671.09	33181.77
671.23	33291.78
671.37	32699.62
671.51	32905.59
671.65	32699.62
671.79	32821.33
671.93	32795.59
672.07	32823.67
672.21	32472.59
672.35	32369.61
672.49	32465.57
672.63	32924.32
672.77	32088.74
672.91	32554.51
673.05	32498.34
673.19	32453.87
673.33	32091.09
673.47	32077.04
673.61	31730.64
673.75	31519.99
673.89	31627.66
674.03	31508.29
674.17	31597.23
674.31	31477.86
674.45	31145.51
674.59	31592.55
674.73	31838.31
674.87	31508.29
675.01	31037.84
675.15	31250.83
675.29	31433.39
675.43	31037.84
675.56	30944.22
675.70	30611.87
675.84	31065.93
675.98	29757.57
676.12	30829.54
676.26	30452.71
676.40	30909.11
676.54	30906.77
676.68	30471.43
676.82	29869.92
676.96	30066.52
677.10	29797.36
677.23	29488.41
677.37	30120.35
677.51	30176.53
677.65	30218.66
677.79	29453.30
677.93	29947.15
678.07	29621.82
678.21	29057.75
678.34	29127.97
678.48	29362.02
678.62	28954.77
678.76	28919.66
678.90	28732.42
679.04	28945.41
679.18	28570.92
679.31	28577.94
679.45	28360.27
679.59	28254.95
679.73	28154.30
679.87	28245.58
680.00	28341.55
680.14	27936.63
680.28	28048.98
680.42	28086.43
680.56	27927.27
680.70	28034.94
680.83	27817.27
680.97	27454.48
681.11	27379.59
681.25	27417.04
681.39	27527.04
681.52	27505.98
681.66	27012.12
681.80	27431.08
681.94	27220.43
682.07	27110.43
682.21	26848.29
682.35	26848.29
682.49	26906.80
682.62	26979.36
682.76	26602.53
682.90	26691.47
683.04	26281.88
683.17	26272.51
683.31	25977.61
683.45	26211.66
683.59	25729.51
683.72	25706.10
683.86	25968.24
684.00	26012.71
684.13	25785.68
684.27	25673.34
684.41	25165.44
684.55	25240.34
684.68	25209.91
684.82	25577.37
684.96	25359.70
685.09	25111.61
685.23	24802.66
685.37	25373.75
685.50	24854.15
685.64	24924.36
685.78	24774.57
685.91	24446.90
686.05	24194.12
686.19	23943.68
686.32	24053.69
686.46	23503.66
686.60	23735.37
686.73	23513.02
686.87	23204.07
687.01	23255.56
687.14	23166.62
687.28	23143.22
687.42	23386.63
687.55	23194.71
687.69	23311.74
687.82	23262.58
687.96	22925.55
688.10	23211.09
688.23	22927.89
688.37	22665.75
688.50	22494.89
688.64	22698.52
688.78	22799.16
688.91	22501.91
689.05	22565.10
689.18	22225.73
689.32	22078.27
689.46	22382.54
689.59	22530.00
689.73	22298.28
689.86	22125.08
690.00	21898.05
690.13	22352.12
690.27	21724.85
690.41	22029.12
690.54	21481.44
690.68	21439.31
690.81	21357.39
690.95	21525.91
691.08	21326.96
691.22	21383.13
691.35	21043.76
691.49	21390.16
691.62	21394.84
691.76	20861.19
691.89	20975.88
692.03	20840.13
692.16	20877.58
692.30	20664.59
692.43	20365.00
692.57	20500.75
692.70	20304.15
692.84	20018.60
692.97	20203.50
693.11	20006.90
693.24	19700.29
693.38	19875.83
693.51	19569.22
693.65	20283.08
693.78	19807.95
693.92	19697.95
694.05	19646.46
694.19	19576.24
694.32	19466.24
694.45	19243.88
694.59	18871.74
694.72	18927.91
694.86	18939.62
694.99	18932.59
695.13	18974.72
695.26	18508.96
695.39	18768.76
695.53	18958.34
695.66	19037.92
695.80	18918.55
695.93	18515.98
696.07	18497.25
696.20	18359.16
696.33	18300.65
696.47	18490.23
696.60	18192.98
696.73	17991.70
696.87	18099.36
697.00	17722.54
697.14	17703.81
697.27	17858.29
697.40	17486.14
697.54	17532.95
697.67	17511.89
697.80	17256.77
697.94	17259.11
698.07	17301.24
698.21	17048.46
698.34	17214.64
698.47	16917.39
698.61	17006.33
698.74	16798.02
698.87	16908.03
699.01	16568.65
699.14	16484.39
699.27	16489.07
699.40	16512.48
699.54	16269.06
699.67	16248.00
699.80	16372.05
699.94	16145.02
700.07	16072.46
700.20	16187.14
700.34	15871.17
700.47	16327.58
700.60	16168.42
700.73	16058.42
700.87	15929.69
701.00	15815.00
701.13	15695.63
701.26	15337.53
701.40	15726.06
701.53	15367.96
701.66	15447.54
701.79	15293.06
701.93	15281.36
702.06	15035.60
702.19	14700.90
702.32	14916.23
702.46	15068.37
702.59	15023.90
702.72	14895.17
702.85	14675.16
702.99	14878.79
703.12	14523.02
703.25	14782.82
703.38	14305.35
703.51	14663.46
703.65	14438.76
703.78	14319.40
703.91	14073.64
704.04	14094.71
704.17	14274.93
704.31	14129.81
704.44	13905.12
704.57	14059.60
704.70	13706.18
704.83	13806.82
704.96	13748.31
705.10	13806.82
705.23	13687.45
>>>>>End Processed Spectral Data<<<<<
