SpectraSuite Data File
++++++++++++++++++++++++++++++++++++
Date: Fri Oct 25 10:47:05 EDT 2013
User: price-jones
Dark Spectrum Present: No
Reference Spectrum Present: No
Number of Sampled Component Spectra: 1
Spectrometers: USB2+H05261
Integration Time (usec): 100000 (USB2+H05261)
Spectra Averaged: 1 (USB2+H05261)
Boxcar Smoothing: 0 (USB2+H05261)
Correct for Electrical Dark: No (USB2+H05261)
Strobe/Lamp Enabled: No (USB2+H05261)
Correct for Detector Non-linearity: No (USB2+H05261)
Correct for Stray Light: No (USB2+H05261)
Number of Pixels in Processed Spectrum: 2048
>>>>>Begin Processed Spectral Data<<<<<
365.73	121.71
365.92	121.71
366.12	121.71
366.32	86.60
366.52	121.71
366.72	98.30
366.91	42.13
367.11	98.30
367.31	46.81
367.51	0.00
367.70	28.09
367.90	105.32
368.10	63.19
368.30	49.15
368.49	0.00
368.69	77.24
368.89	53.83
369.09	102.98
369.28	105.32
369.48	121.71
369.68	114.69
369.87	46.81
370.07	124.05
370.27	100.64
370.47	198.95
370.66	404.91
370.86	416.62
371.06	416.62
371.25	470.45
371.45	465.77
371.65	449.38
371.84	440.02
372.04	430.66
372.24	484.49
372.44	470.45
372.63	423.64
372.83	463.43
373.03	465.77
373.22	498.53
373.42	528.96
373.62	634.29
373.81	566.41
374.01	505.56
374.21	514.92
374.40	580.45
374.60	559.39
374.79	477.47
374.99	533.64
375.19	538.32
375.38	650.67
375.58	596.84
375.78	606.20
375.97	489.17
376.17	571.09
376.37	559.39
376.56	615.56
376.76	465.77
376.95	596.84
377.15	653.01
377.35	578.11
377.54	582.79
377.74	610.88
377.93	624.92
378.13	594.50
378.33	641.31
378.52	634.29
378.72	657.69
378.91	706.84
379.11	636.63
379.31	641.31
379.50	594.50
379.70	692.80
379.89	699.82
380.09	697.48
380.28	606.20
380.48	599.18
380.68	695.14
380.87	638.97
381.07	601.52
381.26	704.50
381.46	631.94
381.65	737.27
381.85	634.29
382.04	608.54
382.24	709.18
382.43	655.35
382.63	744.29
382.83	716.20
383.02	669.39
383.22	744.29
383.41	648.33
383.61	720.88
383.80	814.51
384.00	648.33
384.19	758.33
384.39	704.50
384.58	816.85
384.78	730.25
384.97	704.50
385.17	748.97
385.36	674.07
385.56	784.08
385.75	662.37
385.95	777.06
386.14	739.61
386.34	849.61
386.53	763.01
386.72	772.38
386.92	800.46
387.11	901.11
387.31	842.59
387.50	866.00
387.70	732.59
387.89	847.27
388.09	854.30
388.28	896.43
388.48	819.19
388.67	877.70
388.86	861.32
389.06	884.72
389.25	915.15
389.45	840.25
389.64	819.19
389.84	926.85
390.03	889.40
390.22	816.85
390.42	938.55
390.61	880.04
390.81	933.87
391.00	945.58
391.19	973.66
391.39	896.43
391.58	1057.92
391.78	1011.11
391.97	1001.75
392.16	1001.75
392.36	1001.75
392.55	990.05
392.75	983.02
392.94	992.39
393.13	957.28
393.33	968.98
393.52	999.41
393.71	1034.52
393.91	1111.75
394.10	1043.88
394.29	1027.50
394.49	1043.88
394.68	1060.26
394.88	1184.31
395.07	1083.67
395.26	1184.31
395.46	1179.63
395.65	1116.44
395.84	1146.86
396.04	1240.48
396.23	1186.65
396.42	1086.01
396.62	1210.06
396.81	1188.99
397.00	1149.20
397.19	1181.97
397.39	1224.10
397.58	1343.47
397.77	1247.51
397.97	1345.81
398.16	1205.38
398.35	1357.51
398.55	1320.06
398.74	1231.12
398.93	1369.21
399.12	1341.13
399.32	1366.87
399.51	1336.45
399.70	1392.62
399.90	1369.21
400.09	1453.47
400.28	1425.39
400.47	1345.81
400.67	1483.90
400.86	1448.79
401.05	1528.37
401.24	1406.66
401.44	1509.65
401.63	1460.49
401.82	1624.33
402.01	1483.90
402.21	1458.15
402.40	1572.84
402.59	1521.35
402.78	1568.16
402.97	1593.90
403.17	1610.29
403.36	1671.14
403.55	1650.08
403.74	1631.35
403.93	1612.63
404.13	1722.63
404.32	1607.95
404.51	1668.80
404.70	1708.59
404.89	1757.74
405.09	1722.63
405.28	1788.17
405.47	1769.44
405.66	1715.61
405.85	1661.78
406.05	1722.63
406.24	1797.53
406.43	1837.32
406.62	1739.02
406.81	1891.15
407.00	1776.47
407.20	1788.17
407.39	1877.11
407.58	1942.64
407.77	1952.01
407.96	1989.46
408.15	1921.58
408.34	1898.17
408.54	2033.93
408.73	2022.22
408.92	2069.03
409.11	2118.18
409.30	1996.48
409.49	1987.11
409.68	1977.75
409.87	2008.18
410.07	2120.53
410.26	2047.97
410.45	2195.42
410.64	2174.36
410.83	2169.68
411.02	2265.64
411.21	2251.60
411.40	2373.30
411.59	2331.17
411.78	2331.17
411.98	2296.07
412.17	2249.25
412.36	2352.24
412.55	2441.18
412.74	2424.80
412.93	2462.24
413.12	2476.29
413.31	2569.91
413.50	2476.29
413.69	2427.14
413.88	2647.15
414.07	2476.29
414.26	2558.21
414.45	2698.64
414.64	2511.39
414.83	2719.70
415.02	2614.38
415.22	2703.32
415.41	2658.85
415.60	2766.51
415.79	2986.52
415.98	2944.39
416.17	2853.11
416.36	2881.20
416.55	2935.03
416.74	2981.84
416.93	2988.86
417.12	2888.22
417.31	2899.92
417.50	2946.73
417.69	3052.06
417.88	3096.53
418.07	3227.60
418.26	3035.67
418.45	3136.32
418.64	3325.90
418.83	3045.04
419.02	3187.81
419.21	3220.58
419.39	3232.28
419.58	3096.53
419.77	3115.25
419.96	3274.41
420.15	3414.84
420.34	3314.20
420.53	3361.01
420.72	3403.14
420.91	3471.01
421.10	3445.27
421.29	3449.95
421.48	3508.46
421.67	3611.45
421.86	3243.98
422.05	3407.82
422.24	3454.63
422.43	3447.61
422.61	3417.18
422.80	3456.97
422.99	3555.27
423.18	3499.10
423.37	3527.19
423.56	3606.77
423.75	3515.48
423.94	3515.48
424.13	3236.96
424.32	3501.44
424.50	3658.26
424.69	3705.07
424.88	3641.87
425.07	3566.98
425.26	3508.46
425.45	3613.79
425.64	3545.91
425.83	3574.00
426.01	3691.02
426.20	3588.04
426.39	3637.19
426.58	3541.23
426.77	3662.94
426.96	3653.58
427.15	3597.40
427.33	3674.64
427.52	3676.98
427.71	3641.87
427.90	3737.84
428.09	3695.71
428.28	3854.86
428.46	3733.15
428.65	3714.43
428.84	3885.29
429.03	3971.89
429.22	3789.33
429.40	3775.28
429.59	3866.56
429.78	3716.77
429.97	3707.41
430.16	3796.35
430.34	3796.35
430.53	3868.91
430.72	3831.46
430.91	3992.95
431.10	3889.97
431.28	4028.06
431.47	4016.36
431.66	4100.62
431.85	4086.58
432.03	4198.92
432.22	4248.07
432.41	4243.39
432.60	4243.39
432.79	4182.54
432.97	4138.07
433.16	4245.73
433.35	4191.90
433.54	4337.01
433.72	4166.15
433.91	4329.99
434.10	4334.67
434.28	4484.47
434.47	4395.53
434.66	4435.32
434.85	4482.13
435.03	4430.63
435.22	4440.00
435.41	4664.69
435.59	4402.55
435.78	4547.66
435.97	4568.73
436.16	4557.02
436.34	4568.73
436.53	4730.22
436.72	4744.27
436.90	4594.47
437.09	4732.56
437.28	4517.23
437.46	4564.04
437.65	4678.73
437.84	4889.38
438.02	4650.64
438.21	4732.56
438.40	4702.14
438.58	4798.10
438.77	4732.56
438.96	4793.42
439.14	5050.88
439.33	5057.90
439.52	5022.79
439.70	5139.82
439.89	5282.59
440.08	5221.74
440.26	5163.22
440.45	5280.25
440.63	5343.44
440.82	5420.68
441.01	5275.57
441.19	5376.21
441.38	5451.11
441.57	5551.75
441.75	5537.71
441.94	5472.17
442.12	5542.39
442.31	5509.62
442.50	5600.90
442.68	5643.03
442.87	5722.61
443.05	5839.64
443.24	5795.17
443.43	5827.93
443.61	5762.40
443.80	6010.50
443.98	5802.19
444.17	5600.90
444.35	5863.04
444.54	6010.50
444.73	5781.12
444.91	5933.26
445.10	5975.39
445.28	5804.53
445.47	5645.37
445.65	5909.85
445.84	6066.67
446.02	5947.30
446.21	5823.25
446.39	5870.06
446.58	5937.94
446.77	6019.86
446.95	5893.47
447.14	6019.86
447.32	6024.54
447.51	6036.24
447.69	5921.56
447.88	5989.43
448.06	6085.39
448.25	6125.18
448.43	6015.18
448.62	5989.43
448.80	5994.11
448.99	6197.74
449.17	6228.17
449.36	6113.48
449.54	6347.53
449.73	6384.98
449.91	6483.28
450.10	6345.19
450.28	6452.86
450.46	6408.39
450.65	6438.81
450.83	6450.52
451.02	6389.66
451.20	6424.77
451.39	6494.99
451.57	6483.28
451.76	6462.22
451.94	6661.16
452.13	6661.16
452.31	6523.07
452.49	6363.92
452.68	6490.31
452.86	6450.52
453.05	6707.98
453.23	6693.93
453.42	6476.26
453.60	6537.12
453.78	6569.88
453.97	6722.02
454.15	6684.57
454.34	6537.12
454.52	6719.68
454.70	6651.80
454.89	6689.25
455.07	6860.11
455.26	7026.29
455.44	7042.67
455.62	6920.96
455.81	6930.33
455.99	7098.84
456.17	7012.24
456.36	7007.56
456.54	7211.19
456.73	7140.97
456.91	7370.35
457.09	7286.09
457.28	7452.27
457.46	7290.77
457.64	7330.56
457.83	7272.04
458.01	7243.96
458.19	7452.27
458.38	7492.05
458.56	7393.75
458.74	7445.24
458.93	7248.64
459.11	7393.75
459.29	7541.21
459.48	7534.18
459.66	7407.80
459.84	7548.23
460.03	7627.81
460.21	7492.05
460.39	7623.12
460.57	7632.49
460.76	7623.12
460.94	7639.51
461.12	7728.45
461.31	7707.38
461.49	7679.30
461.67	7548.23
461.85	7950.80
462.04	7927.39
462.22	8549.98
462.40	8065.49
462.59	7882.92
462.77	7985.91
462.95	8046.76
463.13	7999.95
463.32	8070.17
463.50	8112.30
463.68	8105.28
463.86	8035.06
464.05	8021.02
464.23	8105.28
464.41	8234.00
464.59	8152.09
464.78	8393.16
464.96	8477.42
465.14	8147.40
465.32	8451.67
465.50	8416.57
465.69	8381.46
465.87	8411.89
466.05	8304.22
466.23	8446.99
466.41	8351.03
466.60	8596.79
466.78	8308.90
466.96	8446.99
467.14	8468.06
467.32	8650.62
467.51	8613.17
467.69	8278.47
467.87	8524.23
468.05	8622.53
468.23	8444.65
468.41	8716.16
468.60	8561.68
468.78	8741.90
468.96	8615.51
469.14	8620.19
469.32	8781.69
469.50	8610.83
469.69	8863.61
469.87	8943.19
470.05	9025.11
470.23	9060.21
470.41	8929.14
470.59	9177.24
470.77	8819.14
470.95	9057.87
471.14	9233.41
471.32	9200.65
471.50	9270.86
471.68	9329.38
471.86	9338.74
472.04	9479.17
472.22	9430.02
472.40	9467.47
472.58	9366.82
472.77	9523.64
472.95	9509.60
473.13	9961.32
473.31	9530.66
473.49	9366.82
473.67	9806.84
473.85	9680.46
474.03	10019.83
474.21	10022.17
474.39	9877.06
474.57	9982.38
474.75	10193.03
474.93	10129.84
475.12	10235.16
475.30	10171.97
475.48	10164.95
475.66	10342.83
475.84	10230.48
476.02	10267.93
476.20	10321.76
476.38	10637.73
476.56	10822.64
476.74	10633.05
476.92	10635.39
477.10	10668.16
477.28	11007.54
477.46	10958.39
477.64	11169.04
477.82	11211.17
478.00	11618.42
478.18	11281.38
478.36	11164.36
478.54	11557.57
478.72	11517.78
478.90	11646.51
479.08	11630.12
479.26	11775.24
479.44	11840.77
479.62	11960.14
479.80	11983.54
479.98	12318.24
480.16	12414.20
480.34	12531.23
480.52	12409.52
480.70	12372.07
480.88	12308.88
481.06	12578.04
481.24	12528.89
481.41	13006.36
481.59	12992.31
481.77	13172.54
481.95	13322.33
482.13	13284.88
482.31	13240.41
482.49	13558.72
482.67	13675.75
482.85	13785.76
483.03	13722.56
483.21	13738.94
483.39	14293.65
483.57	14057.26
483.74	14068.96
483.92	14408.34
484.10	14216.41
484.28	14534.73
484.46	14827.29
484.64	15110.50
484.82	14719.63
485.00	15068.37
485.18	14911.55
485.35	15545.84
485.53	14773.46
485.71	15012.20
485.89	15541.16
486.07	15157.31
486.25	15564.56
486.43	15325.83
486.61	15892.24
486.78	15824.36
486.96	15875.85
487.14	16233.96
487.32	16191.83
487.50	16568.65
487.68	16622.48
487.85	16774.62
488.03	16840.15
488.21	16945.48
488.39	16950.16
488.57	17413.59
488.75	17486.14
488.92	17235.70
489.10	17844.24
489.28	17987.02
489.46	17846.58
489.64	17820.84
489.81	18242.14
489.99	18422.36
490.17	18417.68
490.35	18661.09
490.53	18656.41
490.70	19019.19
490.88	18628.32
491.06	18977.06
491.24	18991.11
491.41	19381.98
491.59	19470.92
491.77	19108.13
491.95	19538.79
492.13	19634.75
492.30	20009.24
492.48	19672.20
492.66	19924.98
492.84	20102.86
493.01	20683.31
493.19	20013.92
493.37	20510.11
493.54	20748.85
493.72	20879.92
493.90	20795.66
494.08	20863.54
494.25	21228.66
494.43	21310.58
494.61	21432.29
494.79	21596.12
494.96	21598.46
495.14	21465.05
495.32	21680.38
495.49	21858.26
495.67	21994.01
495.85	22307.65
496.02	22036.14
496.20	22398.93
496.38	22607.23
496.55	22417.65
496.73	23164.28
496.91	22719.58
497.09	22958.31
497.26	23005.13
497.44	23131.51
497.62	23356.21
497.79	23073.00
497.97	23735.37
498.14	23646.43
498.32	23597.28
498.50	23683.88
498.67	23821.97
498.85	23936.66
499.03	24386.04
499.20	24187.10
499.38	24142.63
499.56	24395.40
499.73	24208.16
499.91	24650.52
500.08	24800.32
500.26	24407.11
500.44	24844.79
500.61	24570.94
500.79	24786.27
500.97	24882.24
501.14	25432.26
501.32	24830.74
501.49	25291.83
501.67	24896.28
501.84	25846.54
502.02	25348.00
502.20	25993.99
502.37	25568.01
502.55	25603.12
502.72	25640.57
502.90	25949.52
503.07	26033.78
503.25	26405.92
503.43	26352.09
503.60	26326.35
503.78	26298.26
503.95	25881.64
504.13	26239.75
504.30	26831.90
504.48	26675.09
504.65	26501.89
504.83	26785.09
505.01	27065.96
505.18	26745.30
505.36	27510.66
505.53	27103.40
505.71	27285.97
505.88	27550.45
506.06	27227.45
506.23	27513.00
506.41	27370.22
506.58	27733.01
506.76	27763.43
506.93	27641.73
507.11	27688.54
507.28	27969.40
507.46	28107.49
507.63	28238.56
507.81	28100.47
507.98	28175.37
508.16	28254.95
508.33	28613.05
508.50	28350.91
508.68	28360.27
508.85	28943.06
509.03	28591.98
509.20	28627.09
509.38	28985.19
509.55	29095.20
509.73	29071.79
509.90	29109.24
510.08	29095.20
510.25	29139.67
510.42	29619.48
510.60	29771.61
510.77	29050.73
510.95	29759.91
511.12	29811.40
511.30	29813.74
511.47	30005.67
511.64	30082.91
511.82	29895.66
511.99	30347.39
512.17	30096.95
512.34	30146.10
512.51	30574.42
512.69	30644.63
512.86	30436.33
513.04	30665.70
513.21	30967.63
513.38	30565.06
513.56	30574.42
513.73	30609.53
513.90	30885.71
514.08	30859.96
514.25	30979.33
514.43	30916.14
514.60	31056.57
514.77	30913.80
514.95	31337.43
515.12	31393.61
515.29	31461.48
515.47	31545.74
515.64	32151.94
515.81	31606.59
515.99	31662.77
516.16	31976.40
516.33	31744.69
516.51	31842.99
516.68	31501.27
516.85	31356.16
517.03	31828.95
517.20	32072.36
517.37	32095.77
517.54	32327.48
517.72	32165.98
517.89	32596.64
518.06	32086.40
518.24	32072.36
518.41	32510.04
518.58	32568.55
518.75	32620.05
518.93	32734.73
519.10	32615.37
519.27	32844.74
519.45	32793.25
519.62	32828.35
519.79	33366.68
519.96	33226.24
520.14	34005.64
520.31	33263.69
520.48	33167.73
520.65	33546.90
520.83	33530.51
521.00	33928.41
521.17	33785.63
521.34	33483.70
521.52	33956.49
521.69	34047.77
521.86	34209.27
522.03	33869.89
522.20	34239.70
522.38	34361.40
522.55	34361.40
522.72	33951.81
522.89	34232.68
523.07	34630.57
523.24	34284.17
523.41	34796.74
523.58	34686.74
523.75	34700.78
523.92	34558.01
524.10	35009.73
524.27	35321.02
524.44	35360.81
524.61	35124.42
524.78	35166.55
524.96	35491.88
525.13	34728.87
525.30	35435.71
525.47	35531.67
525.64	35278.89
525.81	35456.78
525.98	35711.89
526.16	35477.84
526.33	35756.36
526.50	36009.14
526.67	35398.26
526.84	35749.34
527.01	35321.02
527.18	35775.09
527.36	35777.43
527.53	36058.29
527.70	36142.55
527.87	36280.64
528.04	36432.78
528.21	36510.02
528.38	36116.81
528.55	36591.94
528.72	36858.76
528.89	37017.91
529.07	36495.97
529.24	36013.82
529.41	36800.24
529.58	36503.00
529.75	36898.55
529.92	36535.76
530.09	37010.89
530.26	36978.12
530.43	36718.32
530.60	36404.69
530.77	36858.76
530.94	37291.76
531.11	36865.78
531.28	37130.26
531.46	37024.93
531.63	37493.04
531.80	37378.36
531.97	37219.20
532.14	37757.52
532.31	37057.70
532.48	37776.25
532.65	37727.10
532.82	37916.68
532.99	37626.45
533.16	37853.48
533.33	37413.46
533.50	37460.27
533.67	37741.14
533.84	37696.67
534.01	38164.78
534.18	37628.79
534.35	38359.04
534.52	38216.27
534.69	37844.12
534.86	38373.08
535.03	37811.35
535.20	38230.31
535.37	38738.21
535.54	38829.49
535.71	38298.19
535.88	38237.33
536.05	38199.88
536.22	38754.59
536.38	38497.13
536.55	38808.42
536.72	38672.67
536.89	38532.24
537.06	38986.30
537.23	38829.49
537.40	38656.29
537.57	38576.71
537.74	38698.42
537.91	39416.96
538.08	39283.55
538.25	38693.74
538.42	38651.61
538.59	39072.90
538.75	39721.23
538.92	39421.64
539.09	39541.01
539.26	39189.93
539.43	38658.63
539.60	39145.46
539.77	39330.36
539.94	39618.25
540.11	39222.70
540.28	39672.08
540.44	39042.48
540.61	39433.35
540.78	39622.93
540.95	39461.43
541.12	39363.13
541.29	39536.33
541.46	39332.70
541.62	40240.83
541.79	40233.81
541.96	39562.08
542.13	40051.25
542.30	39957.63
542.47	40409.35
542.63	39817.19
542.80	40027.84
542.97	40435.10
543.14	41006.19
543.31	40271.26
543.48	40643.40
543.64	41069.38
543.81	40524.04
543.98	40807.24
544.15	40992.14
544.32	40875.12
544.48	41088.10
544.65	40643.40
544.82	40545.10
544.99	40566.16
545.16	41111.51
545.32	40678.51
545.49	41123.21
545.66	41399.40
545.83	41179.39
546.00	41188.75
546.16	41165.34
546.33	41134.92
546.50	40414.03
546.67	41212.15
546.83	40685.53
547.00	41619.41
547.17	41083.42
547.34	41003.85
547.50	41558.55
547.67	41600.68
547.84	41670.90
548.00	41617.07
548.17	42143.69
548.34	41354.93
548.51	42064.11
548.67	41881.55
548.84	42007.94
549.01	41893.25
549.18	41380.67
549.34	42061.77
549.51	41926.02
549.68	42073.47
549.84	41703.67
550.01	42241.99
550.18	41823.03
550.34	41668.56
550.51	41951.76
550.68	41488.34
550.84	41371.31
551.01	42017.30
551.18	41888.57
551.34	42129.64
551.51	42319.23
551.68	42218.58
551.84	42440.93
552.01	42106.24
552.18	42443.27
552.34	42366.04
552.51	42487.74
552.68	43107.99
552.84	42396.46
553.01	42529.87
553.18	42473.70
553.34	42401.14
553.51	42335.61
553.67	42686.69
553.84	42848.19
554.01	42520.51
554.17	42773.29
554.34	42883.30
554.51	42836.48
554.67	42749.88
554.84	43133.73
555.00	42440.93
555.17	42745.20
555.33	43126.71
555.50	43040.11
555.67	42686.69
555.83	42787.33
556.00	43037.77
556.16	43374.81
556.33	43119.69
556.50	43351.40
556.66	43421.62
556.83	42876.27
556.99	43140.75
557.16	43683.76
557.32	43337.36
557.49	43349.06
557.65	43531.62
557.82	43028.41
557.98	42911.38
558.15	43126.71
558.32	43508.22
558.48	42873.93
558.65	43161.82
558.81	43309.27
558.98	43840.57
559.14	43377.15
559.31	43203.95
559.47	43756.32
559.64	43519.92
559.80	43606.52
559.97	43702.48
560.13	43718.87
560.30	43571.41
560.46	43873.34
560.63	43227.35
560.79	44009.09
560.96	43901.43
561.12	43735.25
561.29	43807.81
561.45	43590.14
561.61	43779.72
561.78	43496.52
561.94	43627.59
562.11	43615.88
562.27	43653.33
562.44	43716.53
562.60	44081.65
562.77	43817.17
562.93	44105.06
563.10	43906.11
563.26	43501.20
563.42	43931.86
563.59	43959.94
563.75	43868.66
563.92	43973.98
564.08	43791.42
564.24	44009.09
564.41	43999.73
564.57	43849.94
564.74	44170.59
564.90	44254.85
565.07	44254.85
565.23	43938.88
565.39	43812.49
565.56	44264.21
565.72	44034.84
565.88	43702.48
566.05	44229.10
566.21	43910.79
566.38	43927.17
566.54	43854.62
566.70	44388.26
566.87	44502.95
567.03	44437.41
567.19	44495.92
567.36	44058.24
567.52	44076.97
567.68	44304.00
567.85	43966.96
568.01	43861.64
568.17	44336.77
568.34	44547.42
568.50	44575.50
568.66	44308.68
568.83	44306.34
568.99	44601.25
569.15	44376.56
569.32	43966.96
569.48	44137.82
569.64	44793.17
569.81	44629.34
569.97	44692.53
570.13	44397.62
570.30	44039.52
570.46	43796.10
570.62	43725.89
570.78	44142.50
570.95	43690.78
571.11	44619.97
571.27	44261.87
571.43	44528.69
571.60	44619.97
571.76	44299.32
571.92	44619.97
572.09	44233.78
572.25	44402.30
572.41	44039.52
572.57	44381.24
572.74	45090.42
572.90	44430.39
573.06	44528.69
573.22	44261.87
573.38	44704.23
573.55	44208.04
573.71	44105.06
573.87	44877.43
574.03	44081.65
574.20	44809.56
574.36	44528.69
574.52	45074.04
574.68	44601.25
574.84	44505.29
575.01	44699.55
575.17	44451.45
575.33	44453.79
575.49	44308.68
575.65	44924.24
575.82	44343.79
575.98	44596.57
576.14	44718.28
576.30	44725.30
576.46	44463.16
576.62	44514.65
576.79	44783.81
576.95	44158.89
577.11	44439.75
577.27	44851.69
577.43	44744.02
577.59	44891.48
577.75	44844.66
577.92	44605.93
578.08	44498.26
578.24	44673.81
578.40	44580.18
578.56	45017.86
578.72	44835.30
578.88	44243.15
579.04	44753.38
579.21	44479.54
579.37	44643.38
579.53	44615.29
579.69	44404.64
579.85	44521.67
580.01	44762.75
580.17	44821.26
580.33	44509.97
580.49	45008.50
580.65	44484.22
580.82	44863.39
580.98	44797.85
581.14	44685.51
581.30	44898.50
581.46	44629.34
581.62	44837.64
581.78	44971.05
581.94	44938.29
582.10	45574.91
582.26	45155.96
582.42	44650.40
582.58	44779.13
582.74	44493.58
582.90	44964.03
583.06	44790.83
583.22	44711.25
583.38	45312.77
583.54	44741.68
583.70	44465.50
583.86	44634.02
584.02	44201.02
584.18	45287.03
584.34	44879.77
584.50	44556.78
584.66	44570.82
584.82	44444.43
584.98	44933.60
585.14	45071.70
585.30	44938.29
585.46	44643.38
585.62	44285.28
585.78	44898.50
585.94	44439.75
586.10	44631.68
586.26	44631.68
586.42	44566.14
586.58	44755.72
586.74	44554.44
586.90	44463.16
587.06	44676.15
587.22	45069.36
587.38	44811.90
587.54	45134.89
587.70	45160.64
587.86	44783.81
588.02	44910.20
588.18	44884.45
588.34	44666.78
588.49	44741.68
588.65	44374.22
588.81	44430.39
588.97	44964.03
589.13	44357.83
589.29	44594.23
589.45	44940.63
589.61	44554.44
589.77	44830.62
589.93	44687.85
590.08	45490.65
590.24	45586.61
590.40	45235.53
590.56	45200.43
590.72	45343.20
590.88	45069.36
591.04	44989.78
591.20	45193.40
591.35	45205.11
591.51	45425.12
591.67	45256.60
591.83	45155.96
591.99	44889.13
592.15	44882.11
592.31	45085.74
592.46	45125.53
592.62	45132.55
592.78	45050.63
592.94	45071.70
593.10	45270.64
593.26	45474.27
593.41	44907.86
593.57	44870.41
593.73	45059.99
593.89	44957.01
594.05	44947.65
594.20	44863.39
594.36	45516.40
594.52	45268.30
594.68	45329.16
594.84	44727.64
594.99	44978.07
595.15	44877.43
595.31	45256.60
595.47	45277.66
595.62	45310.43
595.78	45177.02
595.94	44889.13
596.10	45378.31
596.25	44994.46
596.41	45331.50
596.57	45050.63
596.73	45354.90
596.88	44769.77
597.04	45237.87
597.20	45109.14
597.36	45027.23
597.51	45420.44
597.67	44949.99
597.83	45338.52
597.99	45698.96
598.14	44971.05
598.30	44793.17
598.46	44737.00
598.61	45549.17
598.77	44982.76
598.93	45069.36
599.09	44982.76
599.24	45687.26
599.40	45221.49
599.56	45251.92
599.71	45263.62
599.87	45614.70
600.03	45052.97
600.18	45170.00
600.34	45319.79
600.50	45523.42
600.65	45464.91
600.81	45331.50
600.97	45331.50
601.12	45827.69
601.28	45755.13
601.44	44671.46
601.59	45134.89
601.75	44982.76
601.91	45254.26
602.06	45301.07
602.22	45298.73
602.37	44940.63
602.53	45434.48
602.69	45518.74
602.84	45022.54
603.00	44952.33
603.16	44931.26
603.31	45034.25
603.47	45141.91
603.62	44851.69
603.78	45193.40
603.94	45106.80
604.09	45516.40
604.25	45450.86
604.40	45118.51
604.56	45230.85
604.71	45605.34
604.87	44931.26
605.03	45387.67
605.18	45027.23
605.34	44842.32
605.49	44664.44
605.65	45244.90
605.80	45249.58
605.96	45036.59
606.12	45312.77
606.27	45305.75
606.43	44561.46
606.58	45485.97
606.74	44809.56
606.89	45064.67
607.05	45162.98
607.20	45059.99
607.36	45450.86
607.51	45408.73
607.67	45324.47
607.82	44849.35
607.98	45083.40
608.13	44615.29
608.29	44720.62
608.44	44673.81
608.60	44385.92
608.75	44655.08
608.91	44484.22
609.06	44418.69
609.22	45223.83
609.37	44435.07
609.53	44734.66
609.68	44870.41
609.84	44575.50
609.99	44744.02
610.15	44746.36
610.30	44556.78
610.46	44304.00
610.61	44133.14
610.76	44744.02
610.92	44580.18
611.07	44650.40
611.23	44252.51
611.38	44856.37
611.54	44580.18
611.69	44301.66
611.84	44149.53
612.00	44421.03
612.15	43981.01
612.31	44252.51
612.46	43927.17
612.62	44678.49
612.77	44467.84
612.92	44783.81
613.08	44203.36
613.23	44605.93
613.39	44231.44
613.54	43899.09
613.69	44261.87
613.85	44268.89
614.00	44612.95
614.15	44451.45
614.31	44254.85
614.46	44837.64
614.62	44009.09
614.77	43871.00
614.92	44163.57
615.08	43999.73
615.23	44016.11
615.38	43978.67
615.54	44018.46
615.69	44027.82
615.84	43627.59
616.00	43878.02
616.15	43800.79
616.30	44165.91
616.46	43580.78
616.61	43700.14
616.76	44271.23
616.92	43681.42
617.07	43718.87
617.22	43625.25
617.37	43512.90
617.53	44362.51
617.68	43749.29
617.83	43562.05
617.99	43913.13
618.14	43505.88
618.29	43786.74
618.45	43255.44
618.60	43515.24
618.75	43821.85
618.90	43227.35
619.06	43320.98
619.21	43735.25
619.36	43566.73
619.51	43182.88
619.67	43585.46
619.82	43531.62
619.97	43585.46
620.12	43583.12
620.28	42911.38
620.43	43103.31
620.58	43222.67
620.73	43316.29
620.89	43082.24
621.04	43379.49
621.19	43150.12
621.34	43269.48
621.49	43054.15
621.65	43119.69
621.80	43428.64
621.95	42988.62
622.10	42557.96
622.25	42958.19
622.41	42967.55
622.56	42649.24
622.71	43182.88
622.86	43185.22
623.01	43201.61
623.16	43164.16
623.32	42794.36
623.47	42951.17
623.62	42988.62
623.77	43028.41
623.92	42902.02
624.07	42497.11
624.23	42581.37
624.38	42878.61
624.53	42431.57
624.68	42562.64
624.83	42838.83
624.98	42483.06
625.13	42939.47
625.29	42649.24
625.44	42670.31
625.59	41989.21
625.74	42298.16
625.89	42291.14
626.04	42328.59
626.19	42581.37
626.34	42684.35
626.49	42443.27
626.65	42134.32
626.80	42850.53
626.95	42330.93
627.10	42295.82
627.25	42160.07
627.40	42249.01
627.55	41930.70
627.70	40999.16
627.85	41860.48
628.00	41411.10
628.15	42078.15
628.30	42045.38
628.45	42511.15
628.60	41801.97
628.76	41979.85
628.91	41682.60
629.06	42017.30
629.21	41893.25
629.36	42000.91
629.51	41806.65
629.66	41364.29
629.81	41778.56
629.96	41380.67
630.11	42466.68
630.26	41890.91
630.41	42019.64
630.56	41677.92
630.71	41743.45
630.86	41544.51
631.01	41317.48
631.16	41420.46
631.31	41408.76
631.46	41045.97
631.61	41287.05
631.76	41663.88
631.91	41373.65
632.06	41291.73
632.21	41558.55
632.36	41223.86
632.51	41202.79
632.66	41486.00
632.81	41031.93
632.96	41001.50
633.10	41006.19
633.25	41017.89
633.40	40854.05
633.55	41277.69
633.70	41294.07
633.85	41191.09
634.00	41476.63
634.15	40657.45
634.30	40634.04
634.45	41287.05
634.60	40847.03
634.75	40533.40
634.90	41226.20
635.05	40659.79
635.19	40830.65
635.34	40854.05
635.49	41078.74
635.64	40217.43
635.79	40591.91
635.94	40722.98
636.09	40786.18
636.24	40430.41
636.39	40514.67
636.53	40374.24
636.68	40325.09
636.83	40271.26
636.98	40868.09
637.13	40203.38
637.28	40250.19
637.43	40907.88
637.57	40652.76
637.72	40683.19
637.87	40196.36
638.02	40587.23
638.17	40020.82
638.32	40423.39
638.46	39849.96
638.61	39971.67
638.76	40013.80
638.91	39541.01
639.06	40076.99
639.20	40470.20
639.35	40245.51
639.50	39875.71
639.65	40168.27
639.80	40488.93
639.94	39791.45
640.09	40397.65
640.24	39639.31
640.39	39599.52
640.54	39655.70
640.68	40114.44
640.83	39814.85
640.98	39686.12
641.13	39896.77
641.27	40137.85
641.42	39679.10
641.57	39732.93
641.72	40182.32
641.86	39498.88
642.01	39826.56
642.16	39618.25
642.31	38998.01
642.45	39548.03
642.60	39016.73
642.75	38911.41
642.90	39250.78
643.04	39328.02
643.19	39124.40
643.34	39526.97
643.48	39538.67
643.63	39517.60
643.78	38995.67
643.93	39477.82
644.07	39054.18
644.22	39030.77
644.37	38932.47
644.51	38541.60
644.66	39456.75
644.81	39281.21
644.95	39297.59
645.10	39201.63
645.25	39122.05
645.39	39281.21
645.54	39239.08
645.69	38803.74
645.83	39035.45
645.98	38976.94
646.13	39208.65
646.27	38796.72
646.42	38979.28
646.57	38871.62
646.71	38693.74
646.86	38990.98
647.00	38852.89
647.15	39028.43
647.30	39140.78
647.44	39187.59
647.59	38885.66
647.74	38447.98
647.88	38827.15
648.03	38679.69
648.17	39035.45
648.32	38305.21
648.47	38405.85
648.61	38064.13
648.76	38637.56
648.90	38501.81
649.05	38780.34
649.20	38092.22
649.34	38618.84
649.49	38265.42
649.63	38073.49
649.78	38148.39
649.92	38466.70
650.07	38433.94
650.21	38059.45
650.36	38422.23
650.51	38267.76
650.65	38719.48
650.80	38862.26
650.94	38321.59
651.09	38366.06
651.23	38099.24
651.38	37687.31
651.52	38040.73
651.67	37928.38
651.81	38167.12
651.96	38146.05
652.10	37855.82
652.25	37706.03
652.39	37448.57
652.54	37921.36
652.68	37792.63
652.83	37888.59
652.97	38082.86
653.12	37846.46
653.26	37996.26
653.41	37813.70
653.55	37928.38
653.70	37832.42
653.84	38279.46
653.99	37448.57
654.13	37638.15
654.27	37745.82
654.42	37699.01
654.56	37546.87
654.71	37773.91
654.85	37869.87
655.00	37731.78
655.14	37125.58
655.29	36699.60
655.43	37160.69
655.57	37165.37
655.72	36994.51
655.86	36910.25
656.01	36804.92
656.15	37099.83
656.30	37104.51
656.44	36950.04
656.58	36980.46
656.73	36542.78
656.87	36968.76
657.01	36392.99
657.16	36875.14
657.30	36566.19
657.45	36048.93
657.59	36886.84
657.73	36517.04
657.88	37097.49
658.02	37191.11
658.16	36542.78
658.31	36643.43
658.45	36767.48
658.60	36627.04
658.74	36858.76
658.88	37071.75
659.03	36395.33
659.17	36154.26
659.31	35842.96
659.46	36306.39
659.60	36472.57
659.74	35950.63
659.89	35997.44
660.03	36208.09
660.17	36301.71
660.32	36051.27
660.46	36224.47
660.60	36158.94
660.74	36378.95
660.89	36053.61
661.03	35400.60
661.17	35950.63
661.32	35555.08
661.46	35407.62
661.60	35484.86
661.74	36030.21
661.89	36023.19
662.03	36070.00
662.17	35463.80
662.31	35236.77
662.46	35374.86
662.60	35835.94
662.74	35683.81
662.88	35529.33
663.03	35297.62
663.17	35328.05
663.31	35091.65
663.45	35571.46
663.60	35260.17
663.74	34569.71
663.88	34810.79
664.02	34749.93
664.17	35400.60
664.31	34752.27
664.45	34590.78
664.59	34876.32
664.73	35077.61
664.88	34649.29
665.02	34380.13
665.16	34548.65
665.30	34670.36
665.44	34569.71
665.59	34204.59
665.73	34190.55
665.87	33909.68
666.01	34415.24
666.15	34082.88
666.29	34160.12
666.44	34398.85
666.58	34225.65
666.72	34368.43
666.86	34328.64
667.00	34115.65
667.14	34110.97
667.28	34117.99
667.43	33371.36
667.57	33729.46
667.71	33472.00
667.85	33923.72
667.99	33251.99
668.13	33469.66
668.27	33771.59
668.41	33488.38
668.56	33549.24
668.70	33951.81
668.84	33099.86
668.98	33137.30
669.12	33362.00
669.26	33408.81
669.40	33139.65
669.54	33256.67
669.68	32999.21
669.82	32910.27
669.96	32629.41
670.10	32802.61
670.25	33043.68
670.39	32996.87
670.53	32781.54
670.67	32411.74
670.81	32943.04
670.95	32870.48
671.09	32931.34
671.23	32641.11
671.37	32704.31
671.51	32444.51
671.65	32350.88
671.79	32018.53
671.93	31948.31
672.07	32376.63
672.21	32456.21
672.35	32065.34
672.49	31868.73
672.63	32100.45
672.77	31545.74
672.91	31463.82
673.05	31452.12
673.19	31732.98
673.33	31311.69
673.47	31140.83
673.61	31304.67
673.75	30965.29
673.89	31599.57
674.03	31281.26
674.17	30712.51
674.31	30745.28
674.45	31124.44
674.59	31065.93
674.73	31105.72
674.87	30878.69
675.01	30785.07
675.15	30717.19
675.29	31028.48
675.43	30955.93
675.56	30401.22
675.70	30066.52
675.84	30286.53
675.98	29392.45
676.12	29867.58
676.26	29912.05
676.40	29797.36
676.54	29701.40
676.68	29792.68
676.82	29074.13
676.96	29652.25
677.10	29500.11
677.23	29614.80
677.37	29392.45
677.51	29612.46
677.65	29226.27
677.79	29022.64
677.93	28893.91
678.07	29017.96
678.21	28631.77
678.34	29048.39
678.48	28727.74
678.62	28671.56
678.76	28610.71
678.90	28364.95
679.04	28261.97
679.18	28266.65
679.31	27974.08
679.45	27887.48
679.59	27543.42
679.73	27594.92
679.87	27639.39
680.00	27634.71
680.14	27487.25
680.28	27349.16
680.42	27178.30
680.56	27473.21
680.70	27737.69
680.83	27201.71
680.97	27489.59
681.11	26892.76
681.25	27007.44
681.39	27178.30
681.52	27030.85
681.66	26913.82
681.80	27012.12
681.94	26576.78
682.07	26661.04
682.21	26384.86
682.35	26256.13
682.49	26726.58
682.62	26256.13
682.76	25977.61
682.90	25937.82
683.04	26003.35
683.17	25916.75
683.31	25708.44
683.45	26298.26
683.59	25663.97
683.72	25284.81
683.86	25092.88
684.00	25055.43
684.13	25310.55
684.27	25177.14
684.41	25041.39
684.55	25083.52
684.68	24931.39
684.82	24779.25
684.96	24676.27
685.09	24694.99
685.23	24606.05
685.37	24613.07
685.50	24762.87
685.64	24542.86
685.78	24252.63
685.91	24030.28
686.05	24210.50
686.19	23608.98
686.32	24224.54
686.46	23365.57
686.60	23812.61
686.73	23669.84
686.87	23089.38
687.01	23447.49
687.14	23337.48
687.28	23194.71
687.42	23007.47
687.55	23152.58
687.69	22808.52
687.82	22988.74
687.96	22932.57
688.10	22628.30
688.23	22750.01
688.37	22445.74
688.50	22195.30
688.64	22314.67
688.78	22429.35
688.91	22298.28
689.05	22338.07
689.18	22167.21
689.32	21649.96
689.46	21703.79
689.59	21788.05
689.73	22235.09
689.86	21940.18
690.00	21642.93
690.13	21755.28
690.27	21542.29
690.41	21443.99
690.54	21137.38
690.68	21097.59
690.81	21069.50
690.95	20872.90
691.08	20905.66
691.22	20713.74
691.35	20795.66
691.49	21111.63
691.62	20671.61
691.76	20779.28
691.89	20739.49
692.03	20676.29
692.16	20163.72
692.30	20336.91
692.43	20072.43
692.57	20147.33
692.70	19992.86
692.84	19939.02
692.97	19819.66
693.11	19517.73
693.24	19932.00
693.38	19646.46
693.51	19452.19
693.65	19789.23
693.78	19339.85
693.92	19192.39
694.05	19044.94
694.19	19267.29
694.32	19243.88
694.45	18764.07
694.59	18965.36
694.72	18712.58
694.86	18757.05
694.99	18766.42
695.13	18810.89
695.26	18560.45
695.39	18209.37
695.53	18483.21
695.66	18270.22
695.80	18324.05
695.93	18153.20
696.07	18097.02
696.20	18064.25
696.33	17694.45
696.47	17708.49
696.60	17940.21
696.73	18071.28
696.87	17970.63
697.00	17860.63
697.14	17755.30
697.27	17579.76
697.40	17591.47
697.54	17530.61
697.67	17387.84
697.80	17427.63
697.94	17312.94
698.07	17205.28
698.21	16947.82
698.34	16943.14
698.47	16896.33
698.61	16435.24
698.74	16624.83
698.87	16493.76
699.01	16585.04
699.14	16449.28
699.27	16758.24
699.40	16042.03
699.54	15985.86
699.67	16065.44
699.80	16081.82
699.94	15995.22
700.07	16004.58
700.20	15843.09
700.34	15873.51
700.47	16039.69
700.60	16067.78
700.73	15964.79
700.87	15798.62
701.00	15314.13
701.13	15513.07
701.26	15658.18
701.40	15672.23
701.53	15154.97
701.66	15232.21
701.79	15089.43
701.93	15161.99
702.06	15068.37
702.19	14717.29
702.32	15307.10
702.46	15012.20
702.59	14717.29
702.72	14349.82
702.85	14654.09
702.99	14618.99
703.12	14640.05
703.25	14534.73
703.38	14710.27
703.51	14232.80
703.65	14274.93
703.78	14108.75
703.91	14197.69
704.04	14111.09
704.17	13954.27
704.31	13968.32
704.44	13685.11
704.57	13692.13
704.70	13411.27
704.83	13572.77
704.96	13582.13
705.10	13565.74
705.23	13944.91
>>>>>End Processed Spectral Data<<<<<
