SpectraSuite Data File
++++++++++++++++++++++++++++++++++++
Date: Fri Oct 25 10:48:02 EDT 2013
User: price-jones
Dark Spectrum Present: No
Reference Spectrum Present: No
Number of Sampled Component Spectra: 1
Spectrometers: USB2+H05261
Integration Time (usec): 100000 (USB2+H05261)
Spectra Averaged: 1 (USB2+H05261)
Boxcar Smoothing: 0 (USB2+H05261)
Correct for Electrical Dark: No (USB2+H05261)
Strobe/Lamp Enabled: No (USB2+H05261)
Correct for Detector Non-linearity: No (USB2+H05261)
Correct for Stray Light: No (USB2+H05261)
Number of Pixels in Processed Spectrum: 2048
>>>>>Begin Processed Spectral Data<<<<<
365.73	149.79
365.92	149.79
366.12	149.79
366.32	107.66
366.52	39.79
366.72	60.85
366.91	39.79
367.11	102.98
367.31	100.64
367.51	60.85
367.70	56.17
367.90	63.19
368.10	100.64
368.30	88.94
368.49	119.37
368.69	81.92
368.89	37.45
369.09	105.32
369.28	28.09
369.48	60.85
369.68	124.05
369.87	95.96
370.07	138.09
370.27	128.73
370.47	154.48
370.66	297.25
370.86	475.13
371.06	433.00
371.25	397.89
371.45	400.23
371.65	454.06
371.84	465.77
372.04	463.43
372.24	510.24
372.44	475.13
372.63	461.09
372.83	477.47
373.03	519.60
373.22	566.41
373.42	540.66
373.62	535.98
373.81	547.69
374.01	482.15
374.21	543.00
374.40	601.52
374.60	603.86
374.79	533.64
374.99	596.84
375.19	599.18
375.38	592.16
375.58	559.39
375.78	641.31
375.97	599.18
376.17	561.73
376.37	517.26
376.56	538.32
376.76	585.13
376.95	547.69
377.15	624.92
377.35	645.99
377.54	585.13
377.74	596.84
377.93	606.20
378.13	596.84
378.33	596.84
378.52	636.63
378.72	620.24
378.91	580.45
379.11	582.79
379.31	594.50
379.50	634.29
379.70	624.92
379.89	575.77
380.09	596.84
380.28	643.65
380.48	643.65
380.68	645.99
380.87	669.39
381.07	641.31
381.26	709.18
381.46	594.50
381.65	727.91
381.85	718.54
382.04	709.18
382.24	699.82
382.43	697.48
382.63	624.92
382.83	727.91
383.02	662.37
383.22	688.12
383.41	725.57
383.61	720.88
383.80	713.86
384.00	669.39
384.19	713.86
384.39	760.67
384.58	648.33
384.78	763.01
384.97	741.95
385.17	795.78
385.36	739.61
385.56	788.76
385.75	723.23
385.95	716.20
386.14	709.18
386.34	763.01
386.53	828.55
386.72	765.36
386.92	823.87
387.11	788.76
387.31	779.40
387.50	814.51
387.70	833.23
387.89	847.27
388.09	830.89
388.28	800.46
388.48	805.14
388.67	931.53
388.86	945.58
389.06	840.25
389.25	868.34
389.45	786.42
389.64	926.85
389.84	889.40
390.03	844.93
390.22	952.60
390.42	835.57
390.61	851.96
390.81	880.04
391.00	926.85
391.19	1022.81
391.39	952.60
391.58	964.30
391.78	959.62
391.97	933.87
392.16	976.00
392.36	990.05
392.55	844.93
392.75	985.37
392.94	891.74
393.13	1004.09
393.33	990.05
393.52	994.73
393.71	1018.13
393.91	1018.13
394.10	976.00
394.29	1029.84
394.49	1062.60
394.68	1102.39
394.88	1139.84
395.07	1086.01
395.26	1088.35
395.46	1076.65
395.65	1095.37
395.84	1160.91
396.04	1090.69
396.23	1116.44
396.42	1074.31
396.62	1172.61
396.81	1046.22
397.00	1071.97
397.19	1130.48
397.39	1071.97
397.58	1200.69
397.77	1160.91
397.97	1221.76
398.16	1238.14
398.35	1350.49
398.55	1268.57
398.74	1313.04
398.93	1310.70
399.12	1390.28
399.32	1324.74
399.51	1338.79
399.70	1259.21
399.90	1336.45
400.09	1364.53
400.28	1441.77
400.47	1380.92
400.67	1406.66
400.86	1462.83
401.05	1476.88
401.24	1521.35
401.44	1411.34
401.63	1476.88
401.82	1455.81
402.01	1455.81
402.21	1523.69
402.40	1458.15
402.59	1530.71
402.78	1577.52
402.97	1582.20
403.17	1540.07
403.36	1556.46
403.55	1650.08
403.74	1551.78
403.93	1659.44
404.13	1654.76
404.32	1652.42
404.51	1551.78
404.70	1701.57
404.89	1743.70
405.09	1727.32
405.28	1722.63
405.47	1673.48
405.66	1607.95
405.85	1650.08
406.05	1732.00
406.24	1692.21
406.43	1722.63
406.62	1764.76
406.81	1853.70
407.00	1809.23
407.20	1771.79
407.39	1706.25
407.58	1799.87
407.77	1877.11
407.96	1916.90
408.15	1802.21
408.34	2033.93
408.54	1909.88
408.73	1867.75
408.92	1926.26
409.11	2083.08
409.30	2015.20
409.49	2022.22
409.68	1987.11
409.87	1996.48
410.07	2125.21
410.26	2155.63
410.45	2024.56
410.64	2146.27
410.83	2195.42
411.02	2153.29
411.21	2223.51
411.40	2181.38
411.59	2277.34
411.78	2134.57
411.98	2235.21
412.17	2359.26
412.36	2324.15
412.55	2284.36
412.74	2352.24
412.93	2303.09
413.12	2427.14
413.31	2420.11
413.50	2373.30
413.69	2413.09
413.88	2487.99
414.07	2553.52
414.26	2497.35
414.45	2457.56
414.64	2614.38
414.83	2649.49
415.02	2647.15
415.22	2640.12
415.41	2712.68
415.60	2822.69
415.79	2745.45
415.98	2885.88
416.17	2752.47
416.36	2738.43
416.55	2698.64
416.74	2839.07
416.93	2890.56
417.12	2930.35
417.31	2942.05
417.50	2970.14
417.69	2925.67
417.88	3040.36
418.07	3075.46
418.26	3082.49
418.45	3080.14
418.64	3091.85
418.83	3236.96
419.02	3122.27
419.21	3061.42
419.39	3108.23
419.58	3215.90
419.77	3124.62
419.96	3290.79
420.15	3290.79
420.34	3159.72
420.53	3300.16
420.72	3522.51
420.91	3330.58
421.10	3335.26
421.29	3260.37
421.48	3349.31
421.67	3456.97
421.86	3454.63
422.05	3375.05
422.24	3314.20
422.43	3456.97
422.61	3321.22
422.80	3468.67
422.99	3531.87
423.18	3475.70
423.37	3506.12
423.56	3447.61
423.75	3461.65
423.94	3496.76
424.13	3236.96
424.32	3356.33
424.50	3524.85
424.69	3618.47
424.88	3578.68
425.07	3368.03
425.26	3349.31
425.45	3361.01
425.64	3389.10
425.83	3377.39
426.01	3527.19
426.20	3545.91
426.39	3496.76
426.58	3473.36
426.77	3730.81
426.96	3501.44
427.15	3566.98
427.33	3669.96
427.52	3571.66
427.71	3623.15
427.90	3602.08
428.09	3700.39
428.28	3758.90
428.46	3702.73
428.65	3824.44
428.84	3794.01
429.03	3866.56
429.22	3721.45
429.40	3613.79
429.59	3843.16
429.78	3552.93
429.97	3616.13
430.16	3761.24
430.34	3723.79
430.53	3873.59
430.72	3782.31
430.91	3882.95
431.10	3875.93
431.28	3981.25
431.47	4088.92
431.66	4131.05
431.85	3990.61
432.03	4182.54
432.22	4329.99
432.41	4217.65
432.60	4227.01
432.79	4112.32
432.97	4187.22
433.16	3957.85
433.35	4152.11
433.54	4140.41
433.72	4152.11
433.91	4145.09
434.10	4093.60
434.28	4322.97
434.47	4348.72
434.66	4262.12
434.85	4360.42
435.03	4507.87
435.22	4337.01
435.41	4435.32
435.59	4468.08
435.78	4491.49
435.97	4414.25
436.16	4489.15
436.34	4582.77
436.53	4561.70
436.72	4622.56
436.90	4411.91
437.09	4540.64
437.28	4425.95
437.46	4678.73
437.65	4589.79
437.84	4599.15
438.02	4561.70
438.21	4568.73
438.40	4603.83
438.58	4873.00
438.77	4912.78
438.96	4727.88
439.14	4929.17
439.33	4992.36
439.52	4805.12
439.70	4961.94
439.89	4947.89
440.08	5018.11
440.26	5043.85
440.45	4997.04
440.63	5210.03
440.82	5355.15
441.01	5130.45
441.19	5151.52
441.38	5362.17
441.57	5341.10
441.75	5308.34
441.94	5537.71
442.12	5540.05
442.31	5603.24
442.50	5579.84
442.68	5474.51
442.87	5455.79
443.05	5570.48
443.24	5689.84
443.43	5699.20
443.61	5584.52
443.80	5771.76
443.98	5591.54
444.17	5434.72
444.35	5870.06
444.54	5844.32
444.73	5717.93
444.91	5781.12
445.10	5715.59
445.28	5671.12
445.47	5664.10
445.65	5605.58
445.84	5919.21
446.02	5853.68
446.21	5825.59
446.39	5753.04
446.58	6019.86
446.77	5727.29
446.95	5724.95
447.14	5947.30
447.32	5966.03
447.51	5717.93
447.69	5790.49
447.88	5767.08
448.06	5860.70
448.25	5942.62
448.43	5853.68
448.62	5909.85
448.80	5928.58
448.99	6111.14
449.17	6080.71
449.36	5898.15
449.54	6090.07
449.73	6160.29
449.91	6132.20
450.10	6188.38
450.28	6263.27
450.46	6197.74
450.65	6279.66
450.83	6324.13
451.02	6438.81
451.20	6455.20
451.39	6443.49
451.57	6506.69
451.76	6314.77
451.94	6258.59
452.13	6574.56
452.31	6406.05
452.49	6314.77
452.68	6291.36
452.86	6239.87
453.05	6408.39
453.23	6590.95
453.42	6366.26
453.60	6455.20
453.78	6572.22
453.97	6487.96
454.15	6579.25
454.34	6485.62
454.52	6546.48
454.70	6530.09
454.89	6691.59
455.07	6691.59
455.26	6813.30
455.44	6780.53
455.62	6773.51
455.81	6729.04
455.99	6843.73
456.17	6965.43
456.36	6715.00
456.54	7012.24
456.73	7019.27
456.91	7138.63
457.09	7122.25
457.28	7309.49
457.46	7014.59
457.64	7126.93
457.83	7220.55
458.01	6963.09
458.19	7524.82
458.38	7185.44
458.56	7412.48
458.74	7260.34
458.93	7262.68
459.11	7269.70
459.29	7442.90
459.48	7321.20
459.66	7368.01
459.84	7513.12
460.03	7620.78
460.21	7520.14
460.39	7445.24
460.57	7588.02
460.76	7634.83
460.94	7756.54
461.12	7630.15
461.31	7637.17
461.49	7555.25
461.67	7686.32
461.85	7866.54
462.04	7733.13
462.22	8234.00
462.40	7824.41
462.59	7824.41
462.77	7779.94
462.95	7786.96
463.13	7826.75
463.32	7964.84
463.50	8044.42
463.68	8109.96
463.86	7955.48
464.05	7840.79
464.23	7843.14
464.41	7995.27
464.59	7999.95
464.78	8245.71
464.96	7950.80
465.14	8114.64
465.32	8269.11
465.50	8112.30
465.69	8390.82
465.87	7997.61
466.05	8194.22
466.23	8189.53
466.41	8044.42
466.60	8524.23
466.78	8187.19
466.96	8336.99
467.14	8159.11
467.32	8418.91
467.51	8367.42
467.69	8245.71
467.87	8519.55
468.05	8542.96
468.23	8458.70
468.41	8446.99
468.60	8308.90
468.78	8414.23
468.96	8519.55
469.14	8587.43
469.32	8819.14
469.50	8498.49
469.69	8683.39
469.87	8676.37
470.05	8720.84
470.23	8720.84
470.41	8690.41
470.59	8952.55
470.77	8709.13
470.95	8879.99
471.14	9085.96
471.32	9018.08
471.50	9259.16
471.68	9095.32
471.86	9207.67
472.04	9228.73
472.22	9341.08
472.40	9184.26
472.58	9125.75
472.77	9341.08
472.95	9495.55
473.13	9659.39
473.31	9556.41
473.49	9530.66
473.67	9373.85
473.85	9535.34
474.03	9685.14
474.21	9853.66
474.39	9998.77
474.57	9830.25
474.75	9909.83
474.93	10160.27
475.12	9848.97
475.30	9944.94
475.48	9937.91
475.66	9996.43
475.84	10193.03
476.02	10335.81
476.20	10174.31
476.38	10476.24
476.56	10511.35
476.74	10532.41
476.92	10422.41
477.10	10663.48
477.28	10637.73
477.46	10693.91
477.64	10771.15
477.82	11059.03
478.00	11382.03
478.18	11009.88
478.36	11138.61
478.54	11515.44
478.72	11358.62
478.90	11393.73
479.08	11674.59
479.26	11918.01
479.44	12032.69
479.62	11779.92
479.80	11896.94
479.98	12114.61
480.16	12353.35
480.34	12004.61
480.52	12374.41
480.70	12329.94
480.88	12290.15
481.06	12475.06
481.24	12407.18
481.41	12655.28
481.59	12674.00
481.77	12975.93
481.95	12938.48
482.13	12800.39
482.31	13039.12
482.49	13411.27
482.67	13437.02
482.85	13659.37
483.03	13600.85
483.21	13699.16
483.39	13898.10
483.57	13958.96
483.74	14190.67
483.92	14211.73
484.10	13987.04
484.28	14349.82
484.46	14471.53
484.64	14988.79
484.82	14621.33
485.00	14654.09
485.18	15007.52
485.35	15138.58
485.53	14789.85
485.71	14703.25
485.89	15213.48
486.07	15199.44
486.25	15094.11
486.43	15304.76
486.61	15475.62
486.78	15946.07
486.96	15704.99
487.14	15955.43
487.32	15946.07
487.50	16325.24
487.68	16643.55
487.85	16559.29
488.03	16868.24
488.21	16924.41
488.39	16559.29
488.57	17144.42
488.75	16985.27
488.92	17259.11
489.10	17392.52
489.28	17579.76
489.46	17792.75
489.64	17612.53
489.81	18045.53
489.99	18101.70
490.17	18190.64
490.35	18485.55
490.53	18272.56
490.70	18537.04
490.88	18389.59
491.06	18860.04
491.24	18979.40
491.41	18981.74
491.59	19058.98
491.77	18906.85
491.95	19222.82
492.13	19747.10
492.30	19487.30
492.48	19676.88
492.66	19534.11
492.84	19503.68
493.01	19789.23
493.19	19868.81
493.37	19990.52
493.54	20428.20
493.72	20484.37
493.90	20638.84
494.08	20608.42
494.25	20987.58
494.43	21008.65
494.61	21158.44
494.79	21048.44
494.96	21308.24
495.14	21186.53
495.32	21539.95
495.49	21713.15
495.67	21825.50
495.85	21869.97
496.02	21750.60
496.20	21825.50
496.38	22354.46
496.55	22106.36
496.73	22953.63
496.91	22293.60
497.09	22663.41
497.26	22707.88
497.44	22604.89
497.62	22867.03
497.79	23035.55
497.97	22806.18
498.14	23335.14
498.32	23700.26
498.50	23433.44
498.67	23630.05
498.85	23747.08
499.03	23939.00
499.20	23894.53
499.38	23861.76
499.56	24231.57
499.73	23798.57
499.91	24308.80
500.08	24437.53
500.26	24219.86
500.44	24254.97
500.61	24116.88
500.79	24463.28
500.97	24559.24
501.14	24863.51
501.32	24514.77
501.49	25195.87
501.67	24992.24
501.84	25394.81
502.02	25310.55
502.20	25296.51
502.37	25628.87
502.55	25458.01
502.72	25640.57
502.90	25460.35
503.07	25610.14
503.25	25497.80
503.43	25724.83
503.60	25783.34
503.78	25982.29
503.95	25944.84
504.13	25928.45
504.30	26394.22
504.48	26176.55
504.65	26593.17
504.83	26511.25
505.01	26803.82
505.18	26822.54
505.36	26848.29
505.53	26965.31
505.71	27110.43
505.88	27143.19
506.06	26766.37
506.23	27236.81
506.41	27215.75
506.58	27377.25
506.76	27531.72
506.93	27501.29
507.11	27585.55
507.28	27541.08
507.46	27363.20
507.63	27735.35
507.81	27967.06
507.98	27894.50
508.16	28074.73
508.33	27868.76
508.50	28369.63
508.68	28383.68
508.85	28678.58
509.03	28386.02
509.20	28608.37
509.38	28833.06
509.55	28507.72
509.73	28589.64
509.90	28945.41
510.08	28659.86
510.25	29067.11
510.42	29310.53
510.60	29277.76
510.77	29142.01
510.95	29509.47
511.12	28994.56
511.30	29352.66
511.47	29776.30
511.64	29640.54
511.82	29507.13
511.99	29799.70
512.17	30059.50
512.34	29830.13
512.51	29972.90
512.69	30518.25
512.86	29748.21
513.04	30419.94
513.21	30127.38
513.38	30321.64
513.56	30363.77
513.73	30532.29
513.90	31131.47
514.08	30160.14
514.25	30937.20
514.43	31108.06
514.60	31068.27
514.77	31197.00
514.95	30848.26
515.12	31138.49
515.29	31346.79
515.47	31555.10
515.64	31512.97
515.81	31421.69
515.99	31442.76
516.16	31407.65
516.33	31440.42
516.51	31562.12
516.68	31110.40
516.85	31386.58
517.03	31807.88
517.20	31990.44
517.37	31604.25
517.54	31896.82
517.72	31807.88
517.89	32163.64
518.06	31796.18
518.24	32093.43
518.41	31798.52
518.58	32423.44
518.75	32037.25
518.93	32156.62
519.10	32322.80
519.27	32425.78
519.45	32760.48
519.62	32842.40
519.79	33127.94
519.96	32758.14
520.14	33198.16
520.31	32905.59
520.48	33404.13
520.65	33151.35
520.83	32961.76
521.00	33479.02
521.17	33612.43
521.34	33160.71
521.52	33642.86
521.69	33701.37
521.86	33734.14
522.03	33909.68
522.20	33811.38
522.38	33811.38
522.55	34197.57
522.72	34281.83
522.89	33991.60
523.07	34057.14
523.24	33757.55
523.41	34436.30
523.58	34164.80
523.75	34506.52
523.92	34462.05
524.10	34789.72
524.27	34572.05
524.44	34525.24
524.61	34955.90
524.78	34881.00
524.96	34892.71
525.13	35283.58
525.30	35414.65
525.47	35133.78
525.64	35232.08
525.81	35201.66
525.98	35023.78
526.16	35365.49
526.33	34855.26
526.50	35342.09
526.67	35421.67
526.84	35360.81
527.01	35641.68
527.18	35674.45
527.36	35992.76
527.53	35672.10
527.70	36105.10
527.87	36215.11
528.04	35833.60
528.21	36065.31
528.38	35683.81
528.55	36165.96
528.72	36144.89
528.89	36327.45
529.07	35793.81
529.24	36465.55
529.41	36463.21
529.58	36486.61
529.75	36463.21
529.92	36547.47
530.09	36425.76
530.26	36748.75
530.43	36666.83
530.60	36278.30
530.77	36837.69
530.94	36945.36
531.11	36517.04
531.28	36793.22
531.46	37116.22
531.63	37661.56
531.80	36655.13
531.97	36837.69
532.14	37041.32
532.31	36996.85
532.48	36844.71
532.65	37001.53
532.82	36849.39
532.99	38017.32
533.16	37209.84
533.33	37390.06
533.50	37776.25
533.67	37589.00
533.84	37614.75
534.01	37633.47
534.18	37570.28
534.35	37895.61
534.52	37551.56
534.69	37780.93
534.86	37752.84
535.03	37977.53
535.20	37867.53
535.37	38244.35
535.54	38047.75
535.71	38347.34
535.88	38057.11
536.05	38148.39
536.22	38066.47
536.38	37928.38
536.55	38368.40
536.72	38260.74
536.89	37783.27
537.06	38197.54
537.23	38511.17
537.40	38527.56
537.57	38745.23
537.74	38497.13
537.91	38990.98
538.08	38803.74
538.25	38330.95
538.42	38370.74
538.59	39033.11
538.75	38792.04
538.92	38752.25
539.09	38649.27
539.26	38745.23
539.43	39452.07
539.60	39152.48
539.77	38902.04
539.94	39225.04
540.11	38890.34
540.28	38646.93
540.44	39445.05
540.61	39028.43
540.78	38932.47
540.95	39253.12
541.12	39278.87
541.29	39541.01
541.46	39374.83
541.62	39578.46
541.79	39585.48
541.96	39459.09
542.13	39611.23
542.30	39908.47
542.47	39494.20
542.63	39929.54
542.80	40289.98
542.97	40065.29
543.14	40182.32
543.31	40264.24
543.48	40245.51
543.64	40666.81
543.81	40673.83
543.98	40652.76
544.15	40304.02
544.32	40835.33
544.48	40722.98
544.65	40542.76
544.82	40889.16
544.99	40156.57
545.16	40549.78
545.32	40545.10
545.49	40568.51
545.66	40371.90
545.83	40753.41
546.00	40921.93
546.16	40755.75
546.33	41146.62
546.50	40339.13
546.67	40933.63
546.83	40636.38
547.00	40563.82
547.17	40966.40
547.34	41109.17
547.50	41336.20
547.67	41366.63
547.84	41010.87
548.00	41343.22
548.17	41572.60
548.34	41244.92
548.51	41631.11
548.67	41619.41
548.84	41301.09
549.01	41106.83
549.18	41500.04
549.34	41652.17
549.51	41537.49
549.68	41535.15
549.84	41818.35
550.01	41907.29
550.18	41748.14
550.34	41600.68
550.51	41942.40
550.68	41549.19
550.84	41237.90
551.01	42021.98
551.18	41900.27
551.34	41729.41
551.51	41989.21
551.68	41951.76
551.84	42155.39
552.01	42050.06
552.18	42263.05
552.34	42026.66
552.51	42602.43
552.68	42239.65
552.84	42188.16
553.01	42586.05
553.18	42047.72
553.34	42293.48
553.51	42106.24
553.67	42246.67
553.84	42572.00
554.01	42351.99
554.17	42068.79
554.34	42389.44
554.51	42485.40
554.67	42684.35
554.84	42609.45
555.00	42216.24
555.17	42508.81
555.33	42593.07
555.50	42611.79
555.67	42738.18
555.83	42878.61
556.00	42567.32
556.16	43274.16
556.33	42974.58
556.50	42993.30
556.66	43337.36
556.83	42674.99
556.99	43061.18
557.16	43072.88
557.32	42852.87
557.49	43012.02
557.65	43051.81
557.82	42770.95
557.98	42960.53
558.15	42892.66
558.32	43269.48
558.48	42869.25
558.65	43306.93
558.81	42899.68
558.98	43583.12
559.14	43208.63
559.31	43217.99
559.47	42962.87
559.64	43320.98
559.80	43700.14
559.97	43615.88
560.13	43056.50
560.30	42913.72
560.46	43325.66
560.63	42794.36
560.79	43873.34
560.96	43435.66
561.12	43622.90
561.29	43447.36
561.45	43480.13
561.61	43351.40
561.78	43489.49
561.94	43606.52
562.11	43512.90
562.27	43192.25
562.44	43346.72
562.60	43800.79
562.77	43580.78
562.93	43526.94
563.10	43796.10
563.26	43686.10
563.42	44069.95
563.59	43578.43
563.75	43718.87
563.92	43791.42
564.08	43517.58
564.24	44076.97
564.41	43807.81
564.57	43854.62
564.74	43587.80
564.90	43749.29
565.07	43725.89
565.23	43599.50
565.39	43763.34
565.56	43669.72
565.72	43716.53
565.88	43611.20
566.05	43482.47
566.21	43606.52
566.38	43318.64
566.54	43821.85
566.70	44023.14
566.87	44254.85
567.03	43936.54
567.19	44334.43
567.36	43782.06
567.52	43852.28
567.68	44067.61
567.85	43826.53
568.01	44114.42
568.17	43976.33
568.34	44098.03
568.50	44329.75
568.66	43910.79
568.83	43751.63
568.99	43791.42
569.15	43810.15
569.32	43604.18
569.48	44198.68
569.64	44374.22
569.81	44406.98
569.97	43894.41
570.13	43957.60
570.30	44240.81
570.46	43847.60
570.62	43920.15
570.78	43824.19
570.95	43807.81
571.11	44376.56
571.27	44186.97
571.43	44184.63
571.60	44172.93
571.76	44126.12
571.92	44435.07
572.09	43997.39
572.25	43735.25
572.41	43901.43
572.57	44212.72
572.74	44779.13
572.90	44332.09
573.06	44299.32
573.22	44016.11
573.38	44348.47
573.55	44067.61
573.71	44514.65
573.87	44182.29
574.03	44107.40
574.20	44318.04
574.36	44299.32
574.52	44140.16
574.68	44360.17
574.84	44285.28
575.01	44446.77
575.17	44531.03
575.33	43988.03
575.49	44542.74
575.65	44727.64
575.82	44603.59
575.98	44657.42
576.14	44371.88
576.30	44154.21
576.46	44055.90
576.62	44217.40
576.79	44069.95
576.95	43739.93
577.11	44425.71
577.27	44004.41
577.43	44446.77
577.59	43885.04
577.75	44500.61
577.92	43660.35
578.08	43901.43
578.24	44271.23
578.40	43840.57
578.56	44327.41
578.72	44526.35
578.88	44383.58
579.04	44074.63
579.21	44378.90
579.37	43934.20
579.53	44301.66
579.69	44130.80
579.85	44390.60
580.01	44292.30
580.17	44516.99
580.33	44858.71
580.49	45024.89
580.65	44591.89
580.82	44947.65
580.98	44926.58
581.14	44058.24
581.30	45029.57
581.46	44809.56
581.62	44327.41
581.78	44722.96
581.94	44638.70
582.10	44336.77
582.26	44512.31
582.42	44268.89
582.58	44533.37
582.74	44006.75
582.90	44509.97
583.06	44952.33
583.22	44531.03
583.38	44753.38
583.54	44570.82
583.70	44622.31
583.86	44271.23
584.02	44198.68
584.18	44428.05
584.34	44179.95
584.50	44645.72
584.66	44460.82
584.82	44502.95
584.98	44811.90
585.14	44479.54
585.30	44404.64
585.46	44456.14
585.62	44619.97
585.78	44739.34
585.94	44453.79
586.10	44446.77
586.26	44378.90
586.42	44631.68
586.58	44388.26
586.74	44669.12
586.90	44498.26
587.06	44259.53
587.22	44722.96
587.38	44624.65
587.54	44959.35
587.70	44926.58
587.86	44465.50
588.02	44432.73
588.18	45116.17
588.34	44566.14
588.49	44626.99
588.65	44439.75
588.81	44399.96
588.97	44254.85
589.13	44598.91
589.29	44608.27
589.45	44715.93
589.61	44865.73
589.77	44847.00
589.93	44692.53
590.08	44776.79
590.24	45067.02
590.40	45186.38
590.56	45165.32
590.72	45085.74
590.88	44409.32
591.04	44615.29
591.20	44856.37
591.35	45055.31
591.51	45352.56
591.67	44744.02
591.83	45043.61
591.99	44573.16
592.15	44643.38
592.31	44999.14
592.46	44755.72
592.62	44760.40
592.78	44622.31
592.94	45263.62
593.10	44992.12
593.26	44905.52
593.41	44886.79
593.57	44486.56
593.73	44573.16
593.89	44940.63
594.05	44741.68
594.20	44800.19
594.36	45228.51
594.52	44673.81
594.68	44858.71
594.84	45123.19
594.99	45268.30
595.15	45237.87
595.31	45130.21
595.47	44767.43
595.62	45113.83
595.78	44793.17
595.94	45146.59
596.10	45387.67
596.25	44964.03
596.41	45518.74
596.57	44985.10
596.73	45034.25
596.88	44875.09
597.04	45172.34
597.20	45104.46
597.36	44928.92
597.51	45191.06
597.67	45287.03
597.83	44933.60
597.99	45198.09
598.14	45155.96
598.30	44952.33
598.46	44907.86
598.61	44847.00
598.77	44552.10
598.93	44973.39
599.09	45230.85
599.24	45237.87
599.40	45401.71
599.56	45184.04
599.71	44919.56
599.87	44989.78
600.03	45116.17
600.18	45247.24
600.34	44921.90
600.50	45312.77
600.65	44886.79
600.81	45642.79
600.97	45347.88
601.12	45265.96
601.28	45088.08
601.44	45083.40
601.59	45308.09
601.75	44587.21
601.91	44837.64
602.06	44779.13
602.22	44807.22
602.37	45303.41
602.53	45151.27
602.69	44882.11
602.84	45116.17
603.00	44886.79
603.16	44973.39
603.31	44875.09
603.47	45216.81
603.62	44612.95
603.78	44648.06
603.94	44914.88
604.09	45172.34
604.25	45272.98
604.40	44851.69
604.56	45003.82
604.71	44959.35
604.87	45153.62
605.03	44926.58
605.18	45102.12
605.34	44975.73
605.49	44992.12
605.65	44999.14
605.80	44830.62
605.96	45223.83
606.12	44931.26
606.27	44907.86
606.43	45251.92
606.58	44781.47
606.74	44774.45
606.89	44809.56
607.05	44945.31
607.20	44933.60
607.36	45146.59
607.51	45240.21
607.67	45139.57
607.82	45102.12
607.98	45078.72
608.13	45064.67
608.29	45067.02
608.44	44362.51
608.60	44446.77
608.75	44502.95
608.91	44409.32
609.06	44765.09
609.22	44659.76
609.37	44154.21
609.53	44650.40
609.68	44729.98
609.84	44531.03
609.99	44591.89
610.15	44453.79
610.30	44041.86
610.46	44158.89
610.61	44521.67
610.76	44329.75
610.92	44355.49
611.07	44299.32
611.23	44399.96
611.38	44266.55
611.54	44528.69
611.69	44446.77
611.84	44486.56
612.00	44634.02
612.15	43990.37
612.31	44748.70
612.46	44444.43
612.62	44491.24
612.77	44163.57
612.92	44559.12
613.08	43999.73
613.23	44446.77
613.39	44086.33
613.54	44079.31
613.69	44271.23
613.85	44128.46
614.00	44343.79
614.15	44449.11
614.31	44247.83
614.46	44318.04
614.62	43985.69
614.77	43892.07
614.92	43976.33
615.08	43735.25
615.23	43548.01
615.38	43672.06
615.54	43599.50
615.69	44067.61
615.84	43447.36
616.00	43828.87
616.15	44060.58
616.30	43999.73
616.46	43578.43
616.61	43248.42
616.76	43625.25
616.92	43711.84
617.07	43468.43
617.22	43386.51
617.37	43868.66
617.53	44107.40
617.68	43695.46
617.83	43618.22
617.99	43763.34
618.14	43779.72
618.29	43634.61
618.45	43414.60
618.60	43700.14
618.75	43545.67
618.90	43491.83
619.06	43475.45
619.21	43477.79
619.36	44048.88
619.51	43468.43
619.67	43054.15
619.82	43615.88
619.97	43515.24
620.12	43274.16
620.28	43309.27
620.43	43540.99
620.58	43421.62
620.73	43138.41
620.89	42806.06
621.04	43337.36
621.19	43147.78
621.34	42887.98
621.49	43131.39
621.65	43309.27
621.80	43070.54
621.95	42866.91
622.10	42717.12
622.25	42813.08
622.41	42960.53
622.56	42597.75
622.71	43028.41
622.86	42756.91
623.01	42520.51
623.16	43365.45
623.32	43248.42
623.47	42628.18
623.62	42747.54
623.77	42579.03
623.92	42717.12
624.07	42686.69
624.23	42590.73
624.38	42258.37
624.53	42480.72
624.68	43309.27
624.83	42639.88
624.98	42621.16
625.13	42689.03
625.29	42368.38
625.44	42534.56
625.59	42096.88
625.74	42241.99
625.89	42272.42
626.04	42036.02
626.19	42211.56
626.34	42401.14
626.49	41991.55
626.65	42073.47
626.80	42249.01
626.95	41851.12
627.10	42106.24
627.25	41881.55
627.40	41628.77
627.55	41806.65
627.70	41338.54
627.85	41628.77
628.00	41525.78
628.15	42157.73
628.30	41640.47
628.45	41813.67
628.60	41825.37
628.76	41911.97
628.91	41738.77
629.06	42052.41
629.21	41670.90
629.36	41478.97
629.51	41694.30
629.66	41621.75
629.81	41743.45
629.96	41647.49
630.11	42040.70
630.26	41799.63
630.41	42021.98
630.56	41265.99
630.71	41649.83
630.86	41375.99
631.01	41368.97
631.16	41064.70
631.31	40975.76
631.46	41034.27
631.61	41331.52
631.76	41151.30
631.91	41244.92
632.06	40987.46
632.21	41406.42
632.36	41532.81
632.51	41228.54
632.66	41588.98
632.81	40875.12
632.96	41230.88
633.10	40870.43
633.25	40898.52
633.40	41111.51
633.55	41090.44
633.70	40767.45
633.85	41193.43
634.00	41134.92
634.15	41153.64
634.30	40844.69
634.45	41022.57
634.60	41015.55
634.75	40849.37
634.90	40884.48
635.05	41010.87
635.19	40779.15
635.34	41125.55
635.49	40526.38
635.64	40821.28
635.79	40612.98
635.94	40715.96
636.09	40832.99
636.24	40308.71
636.39	40194.02
636.53	40297.00
636.68	40240.83
636.83	40205.72
636.98	40748.73
637.13	39934.22
637.28	40353.18
637.43	40666.81
637.57	40776.81
637.72	40800.22
637.87	40568.51
638.02	40168.27
638.17	39997.41
638.32	39999.76
638.46	40245.51
638.61	40091.04
638.76	39864.00
638.91	40245.51
639.06	39931.88
639.20	39842.94
639.35	39920.18
639.50	39660.38
639.65	40280.62
639.80	40266.58
639.94	39763.36
640.09	40025.50
640.24	39454.41
640.39	39665.06
640.54	39875.71
640.68	39587.82
640.83	39732.93
640.98	40084.01
641.13	39505.90
641.27	39981.03
641.42	39335.04
641.57	40030.18
641.72	39667.40
641.86	39529.31
642.01	39065.88
642.16	39377.17
642.31	38852.89
642.45	39779.74
642.60	38925.45
642.75	39232.06
642.90	39379.51
643.04	39374.83
643.19	39496.54
643.34	39426.32
643.48	39321.00
643.63	39325.68
643.78	39058.86
643.93	39236.74
644.07	39487.18
644.22	38972.26
644.37	38955.88
644.51	38817.78
644.66	38848.21
644.81	38927.79
644.95	39208.65
645.10	39033.11
645.25	39196.95
645.39	38848.21
645.54	38850.55
645.69	39019.07
645.83	38752.25
645.98	39274.19
646.13	38888.00
646.27	38920.77
646.42	38754.59
646.57	39152.48
646.71	38815.44
646.86	38824.81
647.00	38780.34
647.15	38532.24
647.30	38876.30
647.44	38796.72
647.59	38579.05
647.74	38274.78
647.88	38291.16
648.03	38689.06
648.17	38328.61
648.32	38511.17
648.47	38553.30
648.61	38756.93
648.76	38265.42
648.90	38319.25
649.05	38555.64
649.20	38455.00
649.34	38469.04
649.49	38171.80
649.63	38089.88
649.78	38204.56
649.92	38356.70
650.07	38574.37
650.21	38082.86
650.36	37998.60
650.51	38169.46
650.65	38232.65
650.80	38981.62
650.94	38632.88
651.09	38223.29
651.23	38153.07
651.38	37869.87
651.52	37926.04
651.67	37930.72
651.81	38096.90
651.96	37797.31
652.10	37593.68
652.25	37947.11
652.39	37820.72
652.54	37729.44
652.68	38120.31
652.83	37935.40
652.97	37895.61
653.12	37549.21
653.26	37972.85
653.41	37961.15
653.55	37605.39
653.70	37558.58
653.84	37771.57
653.99	37734.12
654.13	38043.07
654.27	37837.10
654.42	37687.31
654.56	37851.14
654.71	37542.19
654.85	37619.43
655.00	37326.86
655.14	37432.19
655.29	37223.88
655.43	37090.47
655.57	36500.65
655.72	36961.74
655.86	36854.08
656.01	37193.45
656.15	36868.12
656.30	36807.26
656.44	37120.90
656.58	37078.77
656.73	36605.98
656.87	37174.73
657.01	36975.78
657.16	36889.18
657.30	36804.92
657.45	36755.77
657.59	36400.01
657.73	36776.84
657.88	36648.11
658.02	36652.79
658.16	36472.57
658.31	36980.46
658.45	36807.26
658.60	36863.44
658.74	36671.51
658.88	36753.43
659.03	36315.75
659.17	36470.23
659.31	36582.57
659.46	36240.86
659.60	36243.20
659.74	36114.47
659.89	35943.61
660.03	36023.19
660.17	36231.49
660.32	36182.34
660.46	36315.75
660.60	36119.15
660.74	36444.48
660.89	36212.77
661.03	35297.62
661.17	35559.76
661.32	35466.14
661.46	35784.45
661.60	35480.18
661.74	35749.34
661.89	35770.41
662.03	35981.06
662.17	35510.61
662.31	35335.07
662.46	35777.43
662.60	35491.88
662.74	35686.15
662.88	35318.68
663.03	35587.85
663.17	35353.79
663.31	35360.81
663.45	35019.10
663.60	35218.04
663.74	35143.14
663.88	34574.39
664.02	34572.05
664.17	34979.31
664.31	34497.16
664.45	34478.43
664.59	35211.02
664.73	34384.81
664.88	34834.19
665.02	34572.05
665.16	34696.10
665.30	34742.91
665.44	34815.47
665.59	34211.61
665.73	34164.80
665.87	34089.90
666.01	34529.92
666.15	34038.41
666.29	34651.63
666.44	34377.79
666.58	34235.02
666.72	34202.25
666.86	34354.38
667.00	34157.78
667.14	33542.22
667.28	33802.02
667.43	33729.46
667.57	33907.34
667.71	33872.23
667.85	33823.08
667.99	33762.23
668.13	33766.91
668.27	33188.80
668.41	33771.59
668.56	32926.66
668.70	33230.93
668.84	33083.47
668.98	33399.44
669.12	33123.26
669.26	33486.04
669.40	33137.30
669.54	33214.54
669.68	33284.76
669.82	33017.94
669.96	32989.85
670.10	32418.76
670.25	32868.14
670.39	32465.57
670.53	32943.04
670.67	32762.82
670.81	32620.05
670.95	33074.11
671.09	32828.35
671.23	32598.98
671.37	32737.07
671.51	32449.19
671.65	32215.13
671.79	31931.93
671.93	32266.63
672.07	32126.19
672.21	32025.55
672.35	31688.51
672.49	32165.98
672.63	31779.79
672.77	31962.36
672.91	31674.47
673.05	31725.96
673.19	31599.57
673.33	31288.28
673.47	31417.01
673.61	31267.22
673.75	31178.28
673.89	30927.84
674.03	31089.34
674.17	30326.32
674.31	30932.52
674.45	30452.71
674.59	30796.77
674.73	30953.58
674.87	30794.43
675.01	30967.63
675.15	30967.63
675.29	30738.26
675.43	30733.57
675.56	30555.69
675.70	30373.13
675.84	30164.82
675.98	29411.17
676.12	30176.53
676.26	29905.02
676.40	29841.83
676.54	29813.74
676.68	29699.06
676.82	28957.11
676.96	29759.91
677.10	29263.72
677.23	29465.00
677.37	29392.45
677.51	28950.09
677.65	29015.62
677.79	28795.61
677.93	29425.22
678.07	28737.10
678.21	28704.33
678.34	28622.41
678.48	28657.52
678.62	28498.36
678.76	28411.76
678.90	28505.38
679.04	28322.82
679.18	28217.50
679.31	28215.16
679.45	27611.30
679.59	27498.95
679.73	27943.66
679.87	28046.64
680.00	28156.64
680.14	27480.23
680.28	27351.50
680.42	27566.83
680.56	27257.88
680.70	27117.45
680.83	27220.43
680.97	26939.57
681.11	26782.75
681.25	26991.06
681.39	26955.95
681.52	26852.97
681.66	26656.36
681.80	26871.69
681.94	26490.18
682.07	26546.36
682.21	26342.73
682.35	26251.45
682.49	26342.73
682.62	26443.37
682.76	26113.36
682.90	26101.65
683.04	25944.84
683.17	25951.86
683.31	25633.55
683.45	25832.49
683.59	25862.92
683.72	25319.92
683.86	25078.84
684.00	25170.12
684.13	25195.87
684.27	25425.24
684.41	25069.48
684.55	24940.75
684.68	24692.65
684.82	24987.56
684.96	24694.99
685.09	24919.68
685.23	24437.53
685.37	24505.41
685.50	24652.86
685.64	24095.82
685.78	24336.89
685.91	23953.04
686.05	24540.52
686.19	23613.66
686.32	23864.10
686.46	23541.11
686.60	23391.31
686.73	23709.63
686.87	23583.24
687.01	23461.53
687.14	23154.92
687.28	23229.82
687.42	23014.49
687.55	22864.69
687.69	23285.99
687.82	23026.19
687.96	23044.91
688.10	22850.65
688.23	22530.00
688.37	22419.99
688.50	22441.06
688.64	22097.00
688.78	22164.87
688.91	21788.05
689.05	22132.11
689.18	21965.93
689.32	21724.85
689.46	21951.88
689.59	22066.57
689.73	21795.07
689.86	21493.14
690.00	21869.97
690.13	21715.49
690.27	21453.35
690.41	21542.29
690.54	21446.33
690.68	21095.25
690.81	21036.74
690.95	20875.24
691.08	21029.71
691.22	20938.43
691.35	20854.17
691.49	21132.70
691.62	20936.09
691.76	20762.89
691.89	20893.96
692.03	20493.73
692.16	20322.87
692.30	20538.20
692.43	20046.69
692.57	19880.51
692.70	20231.59
692.84	20037.33
692.97	19826.68
693.11	19742.42
693.24	19646.46
693.38	19365.59
693.51	19508.37
693.65	19735.40
693.78	19405.38
693.92	19257.93
694.05	19185.37
694.19	19171.33
694.32	19199.41
694.45	19328.14
694.59	19028.56
694.72	18705.56
694.86	18906.85
694.99	18588.53
695.13	18490.23
695.26	18328.74
695.39	18347.46
695.53	18422.36
695.66	18581.51
695.80	18558.11
695.93	18010.42
696.07	17923.82
696.20	18132.13
696.33	18031.49
696.47	18314.69
696.60	17626.57
696.73	17666.36
696.87	17652.32
697.00	17558.70
697.14	17488.48
697.27	17748.28
697.40	17507.21
697.54	17219.32
697.67	17291.88
697.80	17413.59
697.94	17116.34
698.07	17090.59
698.21	17011.01
698.34	17099.95
698.47	16950.16
698.61	16327.58
698.74	16432.90
698.87	16683.34
699.01	16421.20
699.14	16538.23
699.27	16257.36
699.40	16507.80
699.54	16126.29
699.67	16217.57
699.80	16257.36
699.94	16081.82
700.07	16088.84
700.20	15761.17
700.34	15669.89
700.47	15740.10
700.60	15896.92
700.73	16067.78
700.87	15538.82
701.00	15382.00
701.13	15550.52
701.26	15431.15
701.40	15384.34
701.53	15199.44
701.66	15021.56
701.79	14878.79
701.93	14939.64
702.06	14892.83
702.19	14806.23
702.32	14960.70
702.46	14466.85
702.59	14916.23
702.72	14820.27
702.85	14883.47
702.99	14656.43
703.12	14675.16
703.25	14579.20
703.38	14345.14
703.51	14427.06
703.65	14391.95
703.78	14153.22
703.91	14279.61
704.04	14295.99
704.17	13825.54
704.31	14008.11
704.44	13727.24
704.57	13980.02
704.70	13750.65
704.83	13650.00
704.96	13734.26
705.10	13790.44
705.23	13958.96
>>>>>End Processed Spectral Data<<<<<
