SpectraSuite Data File
++++++++++++++++++++++++++++++++++++
Date: Fri Oct 25 11:34:42 EDT 2013
User: price-jones
Dark Spectrum Present: No
Reference Spectrum Present: No
Number of Sampled Component Spectra: 1
Spectrometers: USB2+H05261
Integration Time (usec): 100000 (USB2+H05261)
Spectra Averaged: 1 (USB2+H05261)
Boxcar Smoothing: 0 (USB2+H05261)
Correct for Electrical Dark: No (USB2+H05261)
Strobe/Lamp Enabled: No (USB2+H05261)
Correct for Detector Non-linearity: No (USB2+H05261)
Correct for Stray Light: No (USB2+H05261)
Number of Pixels in Processed Spectrum: 2048
>>>>>Begin Processed Spectral Data<<<<<
365.73	285.55
365.92	285.55
366.12	285.55
366.32	217.67
366.52	182.56
366.72	189.58
366.91	238.73
367.11	166.18
367.31	210.65
367.51	161.50
367.70	259.80
367.90	215.33
368.10	60.85
368.30	182.56
368.49	208.31
368.69	212.99
368.89	222.35
369.09	128.73
369.28	215.33
369.48	124.05
369.68	224.69
369.87	208.31
370.07	175.54
370.27	308.95
370.47	269.16
370.66	447.04
370.86	482.15
371.06	524.28
371.25	535.98
371.45	566.41
371.65	524.28
371.84	528.96
372.04	540.66
372.24	631.94
372.44	589.82
372.63	575.77
372.83	531.30
373.03	512.58
373.22	622.58
373.42	568.75
373.62	620.24
373.81	648.33
374.01	653.01
374.21	695.14
374.40	695.14
374.60	709.18
374.79	578.11
374.99	636.63
375.19	627.26
375.38	617.90
375.58	653.01
375.78	676.41
375.97	725.57
376.17	674.07
376.37	685.78
376.56	624.92
376.76	692.80
376.95	650.67
377.15	662.37
377.35	657.69
377.54	678.76
377.74	664.71
377.93	695.14
378.13	631.94
378.33	671.73
378.52	706.84
378.72	688.12
378.91	716.20
379.11	716.20
379.31	748.97
379.50	671.73
379.70	788.76
379.89	697.48
380.09	725.57
380.28	685.78
380.48	676.41
380.68	683.44
380.87	727.91
381.07	692.80
381.26	816.85
381.46	791.10
381.65	788.76
381.85	779.40
382.04	763.01
382.24	739.61
382.43	741.95
382.63	716.20
382.83	746.63
383.02	784.08
383.22	760.67
383.41	805.14
383.61	795.78
383.80	699.82
384.00	882.38
384.19	774.72
384.39	821.53
384.58	657.69
384.78	741.95
384.97	805.14
385.17	781.74
385.36	805.14
385.56	844.93
385.75	784.08
385.95	847.27
386.14	807.48
386.34	791.10
386.53	770.04
386.72	781.74
386.92	917.49
387.11	814.51
387.31	795.78
387.50	898.77
387.70	868.34
387.89	858.98
388.09	821.53
388.28	830.89
388.48	901.11
388.67	910.47
388.86	912.81
389.06	802.80
389.25	926.85
389.45	978.34
389.64	931.53
389.84	929.19
390.03	894.08
390.22	931.53
390.42	840.25
390.61	924.51
390.81	1022.81
391.00	966.64
391.19	950.26
391.39	968.98
391.58	924.51
391.78	910.47
391.97	964.30
392.16	936.21
392.36	1013.45
392.55	954.94
392.75	1008.77
392.94	1022.81
393.13	1020.47
393.33	1114.10
393.52	954.94
393.71	1130.48
393.91	1060.26
394.10	1025.15
394.29	1093.03
394.49	1022.81
394.68	1102.39
394.88	1097.71
395.07	1118.78
395.26	1137.50
395.46	1132.82
395.65	1090.69
395.84	1174.95
396.04	1217.08
396.23	1121.12
396.42	1114.10
396.62	1158.57
396.81	1247.51
397.00	1137.50
397.19	1139.84
397.39	1231.12
397.58	1252.19
397.77	1254.53
397.97	1165.59
398.16	1240.48
398.35	1184.31
398.55	1231.12
398.74	1193.67
398.93	1277.93
399.12	1214.74
399.32	1261.55
399.51	1172.61
399.70	1259.21
399.90	1310.70
400.09	1371.55
400.28	1362.19
400.47	1315.38
400.67	1310.70
400.86	1341.13
401.05	1364.53
401.24	1334.11
401.44	1455.81
401.63	1479.22
401.82	1399.64
402.01	1282.61
402.21	1380.92
402.40	1338.79
402.59	1434.75
402.78	1427.73
402.97	1352.83
403.17	1437.09
403.36	1434.75
403.55	1519.01
403.74	1458.15
403.93	1497.94
404.13	1547.09
404.32	1570.50
404.51	1528.37
404.70	1474.54
404.89	1650.08
405.09	1643.06
405.28	1605.61
405.47	1633.69
405.66	1610.29
405.85	1659.44
406.05	1650.08
406.24	1706.25
406.43	1734.34
406.62	1664.12
406.81	1729.66
407.00	1696.89
407.20	1633.69
407.39	1729.66
407.58	1720.29
407.77	1762.42
407.96	1881.79
408.15	1783.49
408.34	1771.79
408.54	1802.21
408.73	1818.60
408.92	1820.94
409.11	1781.15
409.30	1888.81
409.49	1909.88
409.68	1900.52
409.87	1865.41
410.07	1902.86
410.26	1956.69
410.45	1952.01
410.64	1952.01
410.83	2134.57
411.02	2054.99
411.21	2127.55
411.40	2022.22
411.59	2162.66
411.78	2099.46
411.98	2129.89
412.17	2076.06
412.36	2134.57
412.55	2139.25
412.74	2359.26
412.93	2279.68
413.12	2129.89
413.31	2279.68
413.50	2328.83
413.69	2256.28
413.88	2406.07
414.07	2202.44
414.26	2427.14
414.45	2459.90
414.64	2389.69
414.83	2616.72
415.02	2476.29
415.22	2499.69
415.41	2424.80
415.60	2361.60
415.79	2511.39
415.98	2600.34
416.17	2609.70
416.36	2626.08
416.55	2637.78
416.74	2696.30
416.93	2796.94
417.12	2633.10
417.31	2778.22
417.50	2724.38
417.69	2757.15
417.88	2768.85
418.07	2883.54
418.26	2806.30
418.45	2787.58
418.64	2836.73
418.83	2928.01
419.02	2848.43
419.21	2949.08
419.39	2909.29
419.58	2974.82
419.77	2977.16
419.96	3028.65
420.15	2949.08
420.34	2965.46
420.53	3026.31
420.72	3038.02
420.91	3047.38
421.10	3054.40
421.29	3096.53
421.48	3075.46
421.67	3117.59
421.86	3192.49
422.05	3098.87
422.24	3164.40
422.43	3141.00
422.61	3283.77
422.80	3197.17
422.99	3297.81
423.18	3321.22
423.37	3279.09
423.56	3227.60
423.75	3229.94
423.94	3133.98
424.13	3061.42
424.32	3087.17
424.50	3307.18
424.69	3344.63
424.88	3297.81
425.07	3232.28
425.26	3183.13
425.45	3239.30
425.64	3316.54
425.83	3138.66
426.01	3206.53
426.20	3290.79
426.39	3321.22
426.58	3321.22
426.77	3335.26
426.96	3337.60
427.15	3328.24
427.33	3323.56
427.52	3379.73
427.71	3421.86
427.90	3454.63
428.09	3412.50
428.28	3581.02
428.46	3559.95
428.65	3522.51
428.84	3468.67
429.03	3653.58
429.22	3431.23
429.40	3471.01
429.59	3665.28
429.78	3421.86
429.97	3461.65
430.16	3531.87
430.34	3611.45
430.53	3782.31
430.72	3658.26
430.91	3684.00
431.10	3630.17
431.28	3702.73
431.47	3801.03
431.66	3892.31
431.85	3747.20
432.03	3817.41
432.22	3929.76
432.41	3871.25
432.60	3871.25
432.79	3899.33
432.97	3941.46
433.16	3836.14
433.35	3934.44
433.54	3983.59
433.72	4072.53
433.91	4011.68
434.10	3782.31
434.28	4016.36
434.47	4035.08
434.66	4063.17
434.85	4095.94
435.03	3913.38
435.22	4067.85
435.41	4140.41
435.59	4079.55
435.78	4102.96
435.97	4252.75
436.16	4175.52
436.34	4194.24
436.53	4292.54
436.72	4273.82
436.90	4077.21
437.09	4273.82
437.28	4168.49
437.46	4322.97
437.65	4463.40
437.84	4360.42
438.02	4355.74
438.21	4432.97
438.40	4381.48
438.58	4528.94
438.77	4568.73
438.96	4547.66
439.14	4643.62
439.33	4655.33
439.52	4620.22
439.70	4732.56
439.89	4716.18
440.08	4716.18
440.26	4781.71
440.45	4777.03
440.63	4840.23
440.82	4898.74
441.01	4849.59
441.19	4943.21
441.38	4945.55
441.57	5095.35
441.75	5006.41
441.94	5149.18
442.12	5114.07
442.31	5053.22
442.50	5069.60
442.68	5107.05
442.87	5102.37
443.05	5062.58
443.24	5184.29
443.43	5256.84
443.61	5334.08
443.80	5446.43
443.98	5128.11
444.17	5076.62
444.35	5144.50
444.54	5406.64
444.73	5137.48
444.91	5195.99
445.10	5420.68
445.28	5413.66
445.47	5385.57
445.65	5233.44
445.84	5341.10
446.02	5467.49
446.21	5416.00
446.39	5305.99
446.58	5481.53
446.77	5523.66
446.95	5167.90
447.14	5432.38
447.32	5533.03
447.51	5441.75
447.69	5551.75
447.88	5334.08
448.06	5427.70
448.25	5521.32
448.43	5460.47
448.62	5504.94
448.80	5526.00
448.99	5738.99
449.17	5689.84
449.36	5584.52
449.54	5547.07
449.73	5802.19
449.91	5968.37
450.10	5778.78
450.28	5902.83
450.46	5893.47
450.65	5720.27
450.83	5792.83
451.02	5806.87
451.20	5942.62
451.39	5792.83
451.57	5834.96
451.76	5731.97
451.94	5982.41
452.13	6029.22
452.31	5895.81
452.49	5767.08
452.68	5872.40
452.86	5813.89
453.05	6113.48
453.23	6033.90
453.42	6106.46
453.60	6026.88
453.78	5956.66
453.97	6019.86
454.15	6047.94
454.34	5982.41
454.52	6183.70
454.70	6207.10
454.89	6197.74
455.07	6352.21
455.26	6305.40
455.44	6319.45
455.62	6256.25
455.81	6200.08
455.99	6235.19
456.17	6377.96
456.36	6363.92
456.54	6494.99
456.73	6626.06
456.91	6560.52
457.09	6494.99
457.28	6576.91
457.46	6583.93
457.64	6715.00
457.83	6827.34
458.01	6572.22
458.19	6750.10
458.38	6649.46
458.56	6717.34
458.74	6848.41
458.93	6864.79
459.11	6853.09
459.29	6846.07
459.48	6853.09
459.66	6654.14
459.84	6998.20
460.03	6965.43
460.21	6953.73
460.39	7126.93
460.57	6892.88
460.76	7009.90
460.94	7150.34
461.12	6988.84
461.31	6986.50
461.49	6960.75
461.67	7009.90
461.85	6993.52
462.04	7126.93
462.22	7342.26
462.40	7456.95
462.59	7349.28
462.77	7302.47
462.95	7527.16
463.13	7316.51
463.32	7307.15
463.50	7492.05
463.68	7449.93
463.86	7386.73
464.05	7494.40
464.23	7400.77
464.41	7522.48
464.59	7433.54
464.78	7552.91
464.96	7482.69
465.14	7513.12
465.32	7669.94
465.50	7892.29
465.69	7625.47
465.87	7522.48
466.05	7620.78
466.23	7826.75
466.41	7698.02
466.60	7782.28
466.78	7740.15
466.96	7763.56
467.14	7620.78
467.32	7838.45
467.51	8028.04
467.69	7613.76
467.87	7889.95
468.05	8114.64
468.23	7967.18
468.41	7822.07
468.60	8035.06
468.78	8271.45
468.96	7992.93
469.14	8088.89
469.32	8224.64
469.50	7850.16
469.69	8180.17
469.87	8432.95
470.05	8269.11
470.23	8142.72
470.41	8067.83
470.59	8219.96
470.77	8320.60
470.95	8414.23
471.14	8407.20
471.32	8315.92
471.50	8573.38
471.68	8542.96
471.86	8571.04
472.04	8589.77
472.22	8777.01
472.40	8510.19
472.58	8681.05
472.77	8608.49
472.95	8980.64
473.13	9411.29
473.31	8746.58
473.49	8685.73
473.67	8793.39
473.85	8947.87
474.03	9142.13
474.21	9212.35
474.39	9238.09
474.57	9181.92
474.75	9404.27
474.93	9383.21
475.12	9355.12
475.30	9415.98
475.48	9378.53
475.66	9570.45
475.84	9329.38
476.02	9617.26
476.20	9685.14
476.38	9678.12
476.56	9987.07
476.74	9989.41
476.92	9797.48
477.10	9856.00
477.28	10129.84
477.46	10120.48
477.64	10298.36
477.82	10246.87
478.00	10738.38
478.18	10307.72
478.36	10548.79
478.54	10642.42
478.72	10726.68
478.90	10916.26
479.08	10977.11
479.26	10824.98
479.44	10953.71
479.62	11077.76
479.80	11279.04
479.98	11185.42
480.16	11679.27
480.34	11407.77
480.52	11592.67
480.70	11499.05
480.88	11520.12
481.06	11449.90
481.24	11861.84
481.41	12037.38
481.59	11756.51
481.77	12222.28
481.95	12166.10
482.13	12100.57
482.31	12128.66
482.49	12411.86
482.67	12666.98
482.85	12959.55
483.03	12725.49
483.21	12833.16
483.39	12996.99
483.57	12774.64
483.74	13221.69
483.92	13202.96
484.10	13156.15
484.28	13530.64
484.46	13280.20
484.64	13617.24
484.82	13521.27
485.00	13706.18
485.18	13760.01
485.35	14108.75
485.53	14136.84
485.71	14214.07
485.89	14438.76
486.07	14415.36
486.25	14375.57
486.43	14707.93
486.61	14871.76
486.78	15112.84
486.96	15129.22
487.14	15089.43
487.32	15428.81
487.50	15363.28
487.68	15286.04
487.85	15367.96
488.03	16018.63
488.21	15917.98
488.39	16243.32
488.57	16086.50
488.75	16229.27
488.92	16259.70
489.10	16325.24
489.28	16620.14
489.46	17013.35
489.64	16673.98
489.81	17111.66
489.99	17015.69
490.17	17205.28
490.35	17296.56
490.53	17312.94
490.70	17701.47
490.88	17769.35
491.06	18118.09
491.24	18015.10
491.41	17926.16
491.59	18104.04
491.77	17947.23
491.95	18279.58
492.13	18443.42
492.30	18609.60
492.48	18373.21
492.66	18471.51
492.84	18757.05
493.01	19084.73
493.19	19042.60
493.37	19112.81
493.54	19531.77
493.72	19405.38
493.90	19552.84
494.08	19894.55
494.25	19681.56
494.43	19625.39
494.61	19941.36
494.79	20147.33
494.96	20191.80
495.14	20325.21
495.32	20538.20
495.49	20451.60
495.67	20535.86
495.85	20765.23
496.02	20706.72
496.20	20978.22
496.38	21130.36
496.55	20851.83
496.73	21514.20
496.91	21113.97
497.09	21434.63
497.26	21884.01
497.44	21635.91
497.62	21596.12
497.79	22029.12
497.97	21544.63
498.14	21895.71
498.32	22312.33
498.50	22141.47
498.67	22558.08
498.85	22382.54
499.03	22349.78
499.20	22642.34
499.38	22792.14
499.56	22785.12
499.73	22815.54
499.91	22806.18
500.08	23126.83
500.26	23021.51
500.44	23290.67
500.61	23236.84
500.79	23321.10
500.97	23211.09
501.14	23807.93
501.32	24058.37
501.49	23601.96
501.67	24072.41
501.84	23758.78
502.02	23924.96
502.20	24318.17
502.37	23960.06
502.55	24329.87
502.72	24507.75
502.90	24582.65
503.07	24482.00
503.25	24587.33
503.43	24364.98
503.60	24713.72
503.78	25020.33
503.95	24842.45
504.13	25055.43
504.30	25223.95
504.48	24910.32
504.65	25469.71
504.83	25532.90
505.01	25820.79
505.18	25106.93
505.36	25696.74
505.53	25666.31
505.71	25830.15
505.88	25909.73
506.06	25678.02
506.23	26005.69
506.41	25930.80
506.58	26431.67
506.76	26015.05
506.93	26478.48
507.11	26476.14
507.28	26368.48
507.46	26300.60
507.63	26946.59
507.81	26792.11
507.98	26576.78
508.16	26773.39
508.33	26614.23
508.50	27218.09
508.68	27154.90
508.85	27168.94
509.03	27342.14
509.20	27190.00
509.38	27751.73
509.55	27084.68
509.73	27571.51
509.90	27962.38
510.08	27765.78
510.25	27852.38
510.42	27599.60
510.60	27803.22
510.77	27576.19
510.95	28320.48
511.12	28135.58
511.30	28268.99
511.47	28023.23
511.64	28388.36
511.82	28266.65
511.99	28369.63
512.17	28484.32
512.34	28748.80
512.51	29177.12
512.69	28879.87
512.86	29109.24
513.04	29560.97
513.21	29184.14
513.38	29104.56
513.56	29259.04
513.73	29139.67
513.90	29287.12
514.08	29352.66
514.25	29488.41
514.43	29912.05
514.60	29706.08
514.77	29776.30
514.95	30092.27
515.12	29816.08
515.29	29907.37
515.47	29790.34
515.64	30504.20
515.81	29979.92
515.99	30223.34
516.16	30321.64
516.33	30508.88
516.51	30122.69
516.68	30733.57
516.85	30396.54
517.03	30595.48
517.20	30930.18
517.37	31138.49
517.54	31182.96
517.72	30981.67
517.89	30794.43
518.06	30902.09
518.24	31580.85
518.41	30972.31
518.58	30979.33
518.75	30831.88
518.93	31325.73
519.10	31290.62
519.27	31077.63
519.45	31433.39
519.62	31704.90
519.79	31377.22
519.96	31452.12
520.14	31920.23
520.31	31784.48
520.48	31929.59
520.65	32252.58
520.83	32198.75
521.00	32252.58
521.17	31882.78
521.34	32088.74
521.52	32521.74
521.69	32697.28
521.86	32664.52
522.03	32662.18
522.20	32985.17
522.38	32879.85
522.55	33181.77
522.72	32650.47
522.89	33041.34
523.07	33020.28
523.24	32992.19
523.41	33174.75
523.58	33167.73
523.75	33181.77
523.92	33207.52
524.10	33727.12
524.27	33392.42
524.44	33596.05
524.61	33549.24
524.78	33415.83
524.96	33968.19
525.13	33708.40
525.30	33841.81
525.47	34174.16
525.64	34054.79
525.81	34295.87
525.98	34108.63
526.16	34162.46
526.33	34398.85
526.50	34263.10
526.67	34443.32
526.84	34148.42
527.01	34338.00
527.18	34457.37
527.36	34780.36
527.53	34597.80
527.70	34581.42
527.87	35232.08
528.04	34953.56
528.21	35082.29
528.38	34864.62
528.55	34838.87
528.72	35180.59
528.89	35002.71
529.07	35384.22
529.24	35014.41
529.41	35264.85
529.58	34897.39
529.75	35309.32
529.92	35398.26
530.09	35351.45
530.26	35349.11
530.43	35529.33
530.60	34923.13
530.77	35669.76
530.94	35491.88
531.11	35548.06
531.28	35941.27
531.46	35545.72
531.63	35608.91
531.80	35651.04
531.97	36062.97
532.14	36023.19
532.31	36034.89
532.48	36425.76
532.65	35969.35
532.82	36109.78
532.99	36367.24
533.16	36339.16
533.33	36271.28
533.50	36290.01
533.67	36013.82
533.84	35690.83
534.01	36573.21
534.18	36877.48
534.35	36910.25
534.52	36833.01
534.69	37027.28
534.86	37036.64
535.03	36863.44
535.20	37186.43
535.37	37322.18
535.54	37120.90
535.71	37317.50
535.88	37249.63
536.05	37296.44
536.22	37563.26
536.38	37464.96
536.55	37551.56
536.72	37490.70
536.89	37347.93
537.06	36699.60
537.23	37598.37
537.40	37076.43
537.57	37029.62
537.74	37378.36
537.91	37825.40
538.08	37624.11
538.25	37354.95
538.42	38153.07
538.59	37895.61
538.75	37612.41
538.92	38073.49
539.09	38485.43
539.26	38157.75
539.43	37729.44
539.60	38120.31
539.77	37874.55
539.94	38714.80
540.11	38548.62
540.28	38218.61
540.44	38387.13
540.61	37968.17
540.78	38328.61
540.95	38717.14
541.12	38380.10
541.29	38127.33
541.46	38382.45
541.62	38632.88
541.79	38609.48
541.96	38270.10
542.13	38703.10
542.30	38972.26
542.47	39122.05
542.63	39328.02
542.80	39225.04
542.97	38925.45
543.14	39599.52
543.31	39161.84
543.48	39409.94
543.64	39910.82
543.81	39442.71
543.98	39248.44
544.15	39646.33
544.32	39510.58
544.48	40084.01
544.65	39920.18
544.82	40004.44
544.99	39643.99
545.16	39952.94
545.32	39887.41
545.49	40100.40
545.66	40521.69
545.83	39793.79
546.00	39992.73
546.16	39793.79
546.33	40044.23
546.50	39674.42
546.67	39917.84
546.83	39761.02
547.00	40329.77
547.17	40179.98
547.34	40254.87
547.50	40542.76
547.67	40865.75
547.84	40102.74
548.00	40383.60
548.17	40978.10
548.34	40687.87
548.51	41022.57
548.67	40797.88
548.84	40935.97
549.01	40816.60
549.18	40643.40
549.34	40622.34
549.51	41275.35
549.68	41095.13
549.84	40697.24
550.01	41067.04
550.18	40872.78
550.34	40868.09
550.51	41167.68
550.68	41254.28
550.84	40542.76
551.01	41134.92
551.18	41195.77
551.34	40957.03
551.51	41317.48
551.68	41109.17
551.84	41216.83
552.01	41303.43
552.18	41446.21
552.34	41130.23
552.51	41127.89
552.68	41532.81
552.84	41769.20
553.01	41617.07
553.18	41343.22
553.34	41876.86
553.51	41401.74
553.67	41462.59
553.84	41794.95
554.01	41603.02
554.17	41493.02
554.34	42204.54
554.51	42160.07
554.67	41888.57
554.84	42029.00
555.00	41614.72
555.17	42110.92
555.33	42232.63
555.50	42082.83
555.67	42195.18
555.83	42188.16
556.00	42307.52
556.16	42714.78
556.33	42429.23
556.50	42326.25
556.66	42450.30
556.83	42440.93
556.99	42082.83
557.16	42462.00
557.32	42513.49
557.49	42642.22
557.65	42637.54
557.82	42153.05
557.98	43005.00
558.15	41996.23
558.32	42408.17
558.48	42923.08
558.65	42354.33
558.81	42682.01
558.98	42389.44
559.14	42557.96
559.31	42880.95
559.47	42480.72
559.64	42911.38
559.80	42658.60
559.97	42948.83
560.13	42782.65
560.30	42572.00
560.46	42815.42
560.63	42995.64
560.79	43227.35
560.96	43147.78
561.12	43236.72
561.29	43199.27
561.45	43335.02
561.61	43054.15
561.78	43227.35
561.94	42787.33
562.11	43342.04
562.27	42838.83
562.44	43185.22
562.60	42939.47
562.77	43232.04
562.93	43316.29
563.10	43536.30
563.26	43075.22
563.42	43901.43
563.59	43239.06
563.75	43779.72
563.92	43536.30
564.08	43779.72
564.24	43650.99
564.41	43728.23
564.57	43330.34
564.74	43531.62
564.90	43700.14
565.07	43412.26
565.23	43503.54
565.39	43639.29
565.56	43583.12
565.72	43358.42
565.88	43292.89
566.05	43819.51
566.21	43208.63
566.38	43456.73
566.54	43688.44
566.70	43730.57
566.87	43494.18
567.03	43587.80
567.19	43973.98
567.36	43613.54
567.52	43934.20
567.68	43847.60
567.85	43885.04
568.01	44149.53
568.17	43571.41
568.34	43849.94
568.50	43800.79
568.66	43264.80
568.83	44088.67
568.99	43761.00
569.15	43945.90
569.32	43863.98
569.48	44247.83
569.64	44083.99
569.81	44072.29
569.97	44226.76
570.13	44252.51
570.30	43667.37
570.46	44538.05
570.62	44140.16
570.78	44191.65
570.95	44053.56
571.11	44163.57
571.27	44161.23
571.43	44002.07
571.60	43941.22
571.76	43714.19
571.92	43896.75
572.09	43856.96
572.25	44268.89
572.41	43849.94
572.57	44069.95
572.74	44313.36
572.90	44107.40
573.06	44114.42
573.22	44498.26
573.38	44378.90
573.55	44156.55
573.71	44404.64
573.87	44465.50
574.03	43969.30
574.20	44308.68
574.36	44264.21
574.52	44460.82
574.68	44006.75
574.84	44549.76
575.01	44374.22
575.17	44467.84
575.33	44619.97
575.49	44203.36
575.65	44479.54
575.82	44479.54
575.98	43995.05
576.14	44355.49
576.30	44823.60
576.46	44650.40
576.62	44481.88
576.79	44266.55
576.95	44552.10
577.11	44123.78
577.27	44648.06
577.43	44507.63
577.59	44650.40
577.75	44322.72
577.92	44683.17
578.08	44634.02
578.24	44615.29
578.40	44631.68
578.56	44720.62
578.72	44533.37
578.88	44367.20
579.04	44519.33
579.21	44528.69
579.37	44615.29
579.53	44818.92
579.69	44219.74
579.85	44556.78
580.01	44465.50
580.17	44327.41
580.33	44634.02
580.49	44390.60
580.65	44591.89
580.82	44226.76
580.98	44608.27
581.14	43917.81
581.30	44804.88
581.46	44165.91
581.62	44648.06
581.78	44252.51
581.94	44385.92
582.10	44573.16
582.26	44533.37
582.42	44311.02
582.58	44589.55
582.74	44598.91
582.90	44779.13
583.06	44760.40
583.22	44755.72
583.38	44872.75
583.54	44484.22
583.70	44748.70
583.86	45059.99
584.02	44430.39
584.18	44985.10
584.34	44804.88
584.50	45130.21
584.66	44863.39
584.82	44465.50
584.98	44884.45
585.14	44528.69
585.30	44362.51
585.46	44500.61
585.62	44687.85
585.78	44685.51
585.94	44519.33
586.10	44219.74
586.26	44807.22
586.42	44641.04
586.58	44832.96
586.74	44786.15
586.90	44449.11
587.06	44790.83
587.22	44823.60
587.38	44652.74
587.54	45221.49
587.70	45017.86
587.86	45111.49
588.02	44858.71
588.18	44713.59
588.34	44889.13
588.49	44755.72
588.65	44868.07
588.81	45305.75
588.97	44671.46
589.13	44959.35
589.29	44861.05
589.45	45312.77
589.61	45036.59
589.77	44596.57
589.93	45418.10
590.08	45219.15
590.24	45134.89
590.40	45380.65
590.56	45453.20
590.72	45546.82
590.88	44781.47
591.04	44877.43
591.20	45361.92
591.35	45085.74
591.51	45694.28
591.67	45085.74
591.83	45551.51
591.99	45123.19
592.15	45052.97
592.31	44935.95
592.46	45289.37
592.62	45387.67
592.78	45397.03
592.94	45642.79
593.10	45429.80
593.26	45972.80
593.41	45427.46
593.57	45574.91
593.73	45207.45
593.89	45717.68
594.05	45867.48
594.20	45631.08
594.36	45595.98
594.52	45476.61
594.68	45364.26
594.84	45574.91
594.99	45954.08
595.15	45425.12
595.31	45736.41
595.47	45296.39
595.62	45565.55
595.78	45514.06
595.94	45425.12
596.10	45780.88
596.25	46197.49
596.41	45296.39
596.57	45748.11
596.73	45989.19
596.88	45713.00
597.04	45593.64
597.20	45455.54
597.36	45471.93
597.51	45954.08
597.67	45329.16
597.83	45277.66
597.99	45535.12
598.14	45364.26
598.30	45390.01
598.46	45652.15
598.61	45743.43
598.77	45607.68
598.93	45642.79
599.09	45904.93
599.24	46073.45
599.40	45846.41
599.56	45797.26
599.71	46494.74
599.87	45928.33
600.03	46162.39
600.18	46202.18
600.34	45378.31
600.50	45572.57
600.65	45574.91
600.81	46103.87
600.97	45982.16
601.12	46197.49
601.28	46033.66
601.44	45815.99
601.59	45593.64
601.75	45261.28
601.91	45940.04
602.06	45998.55
602.22	46270.05
602.37	45581.93
602.53	45846.41
602.69	45874.50
602.84	45710.66
603.00	45764.49
603.16	45647.47
603.31	45577.25
603.47	46534.53
603.62	45762.15
603.78	46167.07
603.94	45879.18
604.09	45766.84
604.25	45280.00
604.40	45652.15
604.56	45797.26
604.71	45890.88
604.87	45567.89
605.03	45720.02
605.18	45670.87
605.34	45977.48
605.49	45443.84
605.65	46038.34
605.80	45219.15
605.96	45198.09
606.12	45523.42
606.27	45975.14
606.43	45045.95
606.58	45717.68
606.74	45214.47
606.89	45497.67
607.05	46012.59
607.20	45790.24
607.36	45591.30
607.51	45397.03
607.67	45677.90
607.82	45584.27
607.98	45455.54
608.13	45338.52
608.29	45635.77
608.44	45872.16
608.60	45340.86
608.75	45329.16
608.91	45567.89
609.06	45490.65
609.22	45153.62
609.37	45272.98
609.53	45713.00
609.68	45390.01
609.84	45347.88
609.99	45055.31
610.15	44968.71
610.30	45450.86
610.46	45090.42
610.61	45397.03
610.76	45600.66
610.92	45172.34
611.07	44938.29
611.23	45008.50
611.38	45375.97
611.54	45010.84
611.69	45401.71
611.84	45509.38
612.00	44926.58
612.15	45158.30
612.31	45525.76
612.46	44706.57
612.62	45155.96
612.77	45127.87
612.92	45270.64
613.08	45008.50
613.23	45294.05
613.39	45125.53
613.54	44942.97
613.69	44898.50
613.85	44856.37
614.00	44966.37
614.15	44772.11
614.31	44535.71
614.46	44774.45
614.62	44573.16
614.77	44849.35
614.92	45083.40
615.08	44947.65
615.23	44697.21
615.38	45064.67
615.54	44774.45
615.69	45258.94
615.84	44886.79
616.00	44879.77
616.15	44575.50
616.30	45251.92
616.46	44847.00
616.61	44355.49
616.76	44856.37
616.92	44886.79
617.07	45038.93
617.22	44311.02
617.37	44404.64
617.53	44865.73
617.68	44989.78
617.83	44378.90
617.99	44964.03
618.14	45256.60
618.29	44589.55
618.45	44615.29
618.60	44406.98
618.75	44126.12
618.90	44432.73
619.06	44233.78
619.21	44982.76
619.36	44711.25
619.51	44313.36
619.67	44205.70
619.82	44292.30
619.97	44451.45
620.12	44215.06
620.28	44037.18
620.43	44683.17
620.58	44463.16
620.73	44140.16
620.89	44296.98
621.04	44229.10
621.19	44531.03
621.34	44435.07
621.49	44355.49
621.65	43952.92
621.80	44715.93
621.95	43983.35
622.10	44268.89
622.25	44334.43
622.41	43707.16
622.56	43866.32
622.71	44147.18
622.86	43833.55
623.01	43988.03
623.16	44315.70
623.32	43873.34
623.47	43786.74
623.62	43496.52
623.77	44119.10
623.92	43931.86
624.07	44250.17
624.23	43943.56
624.38	43915.47
624.53	43819.51
624.68	43800.79
624.83	43658.01
624.98	43863.98
625.13	43264.80
625.29	43728.23
625.44	43594.82
625.59	43323.32
625.74	43442.68
625.89	43063.52
626.04	43271.82
626.19	43770.36
626.34	43555.03
626.49	43536.30
626.65	43276.51
626.80	43531.62
626.95	42955.85
627.10	43283.53
627.25	43311.61
627.40	43562.05
627.55	43257.78
627.70	43531.62
627.85	43199.27
628.00	43278.85
628.15	43358.42
628.30	42836.48
628.45	42930.11
628.60	42391.78
628.76	42887.98
628.91	43124.37
629.06	42398.80
629.21	42469.02
629.36	42508.81
629.51	42838.83
629.66	43269.48
629.81	42838.83
629.96	42866.91
630.11	42735.84
630.26	42784.99
630.41	43061.18
630.56	42532.22
630.71	42607.11
630.86	42960.53
631.01	42532.22
631.16	42298.16
631.31	42195.18
631.46	42567.32
631.61	42873.93
631.76	42803.72
631.91	42738.18
632.06	42646.90
632.21	42700.73
632.36	42487.74
632.51	41762.18
632.66	42141.35
632.81	42141.35
632.96	42452.64
633.10	42644.56
633.25	42333.27
633.40	42368.38
633.55	42534.56
633.70	42260.71
633.85	42082.83
634.00	42204.54
634.15	42412.85
634.30	42197.52
634.45	42295.82
634.60	41907.29
634.75	41984.53
634.90	42129.64
635.05	42054.75
635.19	42052.41
635.34	42251.35
635.49	41801.97
635.64	41612.38
635.79	41816.01
635.94	42211.56
636.09	42389.44
636.24	41853.46
636.39	41647.49
636.53	41546.85
636.68	41666.22
636.83	41846.44
636.98	41647.49
637.13	41427.48
637.28	41528.13
637.43	41806.65
637.57	42089.85
637.72	41383.01
637.87	41563.23
638.02	41762.18
638.17	41614.72
638.32	41839.42
638.46	41067.04
638.61	41734.09
638.76	41188.75
638.91	41631.11
639.06	41455.57
639.20	41031.93
639.35	41045.97
639.50	41261.30
639.65	41528.13
639.80	41120.87
639.94	41427.48
640.09	41296.41
640.24	41308.11
640.39	41177.04
640.54	40350.84
640.68	41319.82
640.83	41270.67
640.98	41305.77
641.13	41219.17
641.27	41230.88
641.42	40840.01
641.57	40601.27
641.72	40697.24
641.86	40395.31
642.01	40397.65
642.16	40781.49
642.31	40591.91
642.45	40959.38
642.60	40498.29
642.75	40706.60
642.90	40957.03
643.04	40561.48
643.19	40535.74
643.34	40673.83
643.48	40037.20
643.63	40407.01
643.78	40362.54
643.93	40919.59
644.07	40760.43
644.22	40634.04
644.37	40617.66
644.51	40533.40
644.66	40535.74
644.81	40430.41
644.95	40587.23
645.10	40247.85
645.25	40165.93
645.39	40079.33
645.54	40598.93
645.69	40051.25
645.83	40315.73
645.98	40425.73
646.13	40147.21
646.27	39683.78
646.42	39903.79
646.57	39819.53
646.71	40196.36
646.86	40105.08
647.00	40243.17
647.15	40247.85
647.30	40023.16
647.44	40233.81
647.59	39875.71
647.74	40065.29
647.88	40318.07
648.03	40327.43
648.17	40165.93
648.32	40477.22
648.47	40287.64
648.61	39501.22
648.76	39917.84
648.90	39770.38
649.05	39889.75
649.20	39711.87
649.34	40170.61
649.49	39864.00
649.63	39871.03
649.78	39828.90
649.92	39894.43
650.07	40109.76
650.21	39679.10
650.36	39882.73
650.51	39604.20
650.65	39880.39
650.80	39784.43
650.94	39775.06
651.09	39594.84
651.23	39187.59
651.38	39498.88
651.52	39271.85
651.67	39557.39
651.81	39299.94
651.96	39622.93
652.10	39297.59
652.25	38932.47
652.39	39096.31
652.54	39218.02
652.68	39232.06
652.83	39438.03
652.97	39445.05
653.12	39311.64
653.26	39405.26
653.41	39065.88
653.55	39075.24
653.70	39475.48
653.84	39175.89
653.99	39349.09
654.13	39023.75
654.27	38756.93
654.42	39271.85
654.56	38529.90
654.71	39049.50
654.85	38897.36
655.00	39416.96
655.14	38742.89
655.29	39412.28
655.43	39342.06
655.57	38567.35
655.72	38794.38
655.86	38462.02
656.01	38497.13
656.15	38092.22
656.30	38576.71
656.44	38946.51
656.58	38431.60
656.73	38377.76
656.87	38106.26
657.01	38487.77
657.16	38923.11
657.30	38368.40
657.45	38190.52
657.59	38014.98
657.73	38057.11
657.88	38242.01
658.02	38403.51
658.16	38712.46
658.31	38075.84
658.45	38398.83
658.60	37743.48
658.74	38326.27
658.88	38567.35
659.03	37972.85
659.17	37921.36
659.31	37928.38
659.46	38206.90
659.60	38080.52
659.74	37951.79
659.89	37471.98
660.03	37102.17
660.17	37912.00
660.32	37497.72
660.46	37432.19
660.60	37275.37
660.74	37853.48
660.89	37708.37
661.03	37106.85
661.17	37057.70
661.32	37404.10
661.46	37443.89
661.60	37024.93
661.74	37254.31
661.89	36999.19
662.03	36854.08
662.17	37001.53
662.31	37127.92
662.46	37102.17
662.60	36900.89
662.74	36634.06
662.88	36575.55
663.03	36091.06
663.17	36561.51
663.31	36540.44
663.45	36835.35
663.60	37261.33
663.74	36465.55
663.88	36582.57
664.02	35770.41
664.17	36601.30
664.31	35861.69
664.45	36067.66
664.59	35754.02
664.73	36353.20
664.88	36123.83
665.02	35924.88
665.16	35997.44
665.30	36467.89
665.44	35814.88
665.59	35421.67
665.73	35747.00
665.87	35255.49
666.01	35660.40
666.15	35744.66
666.29	35445.07
666.44	35487.20
666.58	35211.02
666.72	35475.50
666.86	35297.62
667.00	35388.90
667.14	34972.28
667.28	34885.68
667.43	34892.71
667.57	35346.77
667.71	35229.74
667.85	35529.33
667.99	35077.61
668.13	35040.16
668.27	34700.78
668.41	34277.15
668.56	34227.99
668.70	34141.39
668.84	34663.33
668.98	34560.35
669.12	34560.35
669.26	34480.77
669.40	34036.07
669.54	34462.05
669.68	34050.11
669.82	34085.22
669.96	34298.21
670.10	33720.10
670.25	33764.57
670.39	33949.47
670.53	34300.55
670.67	33914.36
670.81	33780.95
670.95	33790.31
671.09	33806.70
671.23	33890.96
671.37	33912.02
671.51	33338.59
671.65	33439.23
671.79	33259.01
671.93	33619.46
672.07	33415.83
672.21	33006.23
672.35	32804.95
672.49	32898.57
672.63	32959.42
672.77	32926.66
672.91	32751.12
673.05	32704.31
673.19	32758.14
673.33	32779.20
673.47	32254.92
673.61	32219.81
673.75	32332.16
673.89	32240.88
674.03	32170.66
674.17	32039.59
674.31	31754.05
674.45	32093.43
674.59	31821.92
674.73	31917.89
674.87	31431.05
675.01	31674.47
675.15	31281.26
675.29	31267.22
675.43	31510.63
675.56	31477.86
675.70	31028.48
675.84	30892.73
675.98	30103.97
676.12	31197.00
676.26	31087.00
676.40	30960.61
676.54	30445.69
676.68	30464.41
676.82	29926.09
676.96	30213.98
677.10	30724.21
677.23	30045.46
677.37	30394.20
677.51	30450.37
677.65	29986.94
677.79	29890.98
677.93	30150.78
678.07	30291.21
678.21	29633.52
678.34	29666.29
678.48	29249.67
678.62	29167.76
678.76	28996.90
678.90	29411.17
679.04	29457.98
679.18	29240.31
679.31	29003.92
679.45	28971.15
679.59	28730.08
679.73	29010.94
679.87	28629.43
680.00	28332.18
680.14	28140.26
680.28	28271.33
680.42	28615.39
680.56	28011.53
680.70	28091.11
680.83	28041.96
680.97	27988.13
681.11	27892.16
681.25	28128.56
681.39	27328.10
681.52	27707.26
681.66	27290.65
681.80	27026.17
681.94	26953.61
682.07	26789.77
682.21	26897.44
682.35	26941.91
682.49	26909.14
682.62	26909.14
682.76	26981.70
682.90	26125.06
683.04	26419.97
683.17	26581.46
683.31	26204.64
683.45	26211.66
683.59	26096.97
683.72	25944.84
683.86	25825.47
684.00	25708.44
684.13	26010.37
684.27	25631.21
684.41	25579.71
684.55	25750.57
684.68	25439.28
684.82	25277.79
684.96	25167.78
685.09	25254.38
685.23	24634.14
685.37	25289.49
685.50	25450.99
685.64	25055.43
685.78	24844.79
685.91	24702.01
686.05	24339.23
686.19	24013.90
686.32	24278.38
686.46	24161.35
686.60	23761.12
686.73	23686.22
686.87	23676.86
687.01	23941.34
687.14	23756.44
687.28	23789.20
687.42	23693.24
687.55	23302.37
687.69	23548.13
687.82	23171.30
687.96	23154.92
688.10	23358.55
688.23	23335.14
688.37	23377.27
688.50	23154.92
688.64	22909.16
688.78	22691.49
688.91	22565.10
689.05	22885.76
689.18	22204.66
689.32	22401.27
689.46	22347.44
689.59	22249.13
689.73	22462.12
689.86	22553.40
690.00	22012.74
690.13	22024.44
690.27	21827.84
690.41	22141.47
690.54	21441.65
690.68	21553.99
690.81	21214.62
690.95	21376.11
691.08	21254.40
691.22	21315.26
691.35	20875.24
691.49	21254.40
691.62	21060.14
691.76	20725.44
691.89	20655.23
692.03	20552.24
692.16	20615.44
692.30	20484.37
692.43	20475.01
692.57	20194.14
692.70	20306.49
692.84	20196.48
692.97	19864.13
693.11	19910.94
693.24	19857.10
693.38	19609.01
693.51	19257.93
693.65	19627.73
693.78	19473.26
693.92	19332.82
694.05	19262.61
694.19	19168.99
694.32	19133.88
694.45	19185.37
694.59	19709.65
694.72	19342.19
694.86	18693.86
694.99	18963.02
695.13	18640.03
695.26	18665.77
695.39	18359.16
695.53	18356.82
695.66	18274.90
695.80	18230.43
695.93	18394.27
696.07	18181.28
696.20	17689.77
696.33	17919.14
696.47	17977.65
696.60	17617.21
696.73	17825.52
696.87	17877.01
697.00	17806.80
697.14	17579.76
697.27	17291.88
697.40	17245.07
697.54	17137.40
697.67	17163.15
697.80	17205.28
697.94	17130.38
698.07	16961.86
698.21	16746.53
698.34	16819.09
698.47	16425.88
698.61	16460.99
698.74	16425.88
698.87	16533.54
699.01	15943.73
699.14	16245.66
699.27	16255.02
699.40	16348.64
699.54	16107.57
699.67	15899.26
699.80	15850.11
699.94	15882.88
700.07	15974.16
700.20	15892.24
700.34	15852.45
700.47	15772.87
700.60	15721.38
700.73	15620.74
700.87	15571.58
701.00	15346.89
701.13	15115.18
701.26	15152.63
701.40	15169.01
701.53	15185.40
701.66	14785.16
701.79	15101.14
701.93	14876.44
702.06	14794.53
702.19	14623.67
702.32	14368.55
702.46	14647.07
702.59	14773.46
702.72	14464.51
702.85	14462.17
702.99	14328.76
703.12	14113.43
703.25	14097.05
703.38	13973.00
703.51	13961.30
703.65	14003.43
703.78	13757.67
703.91	13432.33
704.04	13757.67
704.17	13301.26
704.31	13497.87
704.44	13657.03
704.57	13369.14
704.70	13296.58
704.83	13156.15
704.96	13184.24
705.10	13032.10
705.23	13032.10
>>>>>End Processed Spectral Data<<<<<
