SpectraSuite Data File
++++++++++++++++++++++++++++++++++++
Date: Fri Oct 25 10:43:39 EDT 2013
User: price-jones
Dark Spectrum Present: No
Reference Spectrum Present: No
Number of Sampled Component Spectra: 1
Spectrometers: USB2+H05261
Integration Time (usec): 100000 (USB2+H05261)
Spectra Averaged: 1 (USB2+H05261)
Boxcar Smoothing: 0 (USB2+H05261)
Correct for Electrical Dark: No (USB2+H05261)
Strobe/Lamp Enabled: No (USB2+H05261)
Correct for Detector Non-linearity: No (USB2+H05261)
Correct for Stray Light: No (USB2+H05261)
Number of Pixels in Processed Spectrum: 2048
>>>>>Begin Processed Spectral Data<<<<<
365.73	126.39
365.92	126.39
366.12	126.39
366.32	7.02
366.52	0.00
366.72	37.45
366.91	0.00
367.11	28.09
367.31	72.56
367.51	0.00
367.70	21.06
367.90	56.17
368.10	0.00
368.30	37.45
368.49	7.02
368.69	25.75
368.89	49.15
369.09	25.75
369.28	102.98
369.48	110.01
369.68	95.96
369.87	98.30
370.07	63.19
370.27	117.03
370.47	166.18
370.66	374.49
370.86	402.57
371.06	425.98
371.25	514.92
371.45	458.74
371.65	510.24
371.84	451.72
372.04	456.40
372.24	514.92
372.44	498.53
372.63	554.71
372.83	489.17
373.03	547.69
373.22	482.15
373.42	554.71
373.62	582.79
373.81	564.07
374.01	594.50
374.21	601.52
374.40	526.62
374.60	617.90
374.79	573.43
374.99	580.45
375.19	554.71
375.38	594.50
375.58	631.94
375.78	638.97
375.97	592.16
376.17	692.80
376.37	564.07
376.56	603.86
376.76	592.16
376.95	540.66
377.15	641.31
377.35	594.50
377.54	627.26
377.74	704.50
377.93	676.41
378.13	643.65
378.33	624.92
378.52	622.58
378.72	683.44
378.91	657.69
379.11	678.76
379.31	669.39
379.50	568.75
379.70	655.35
379.89	636.63
380.09	718.54
380.28	674.07
380.48	674.07
380.68	664.71
380.87	730.25
381.07	748.97
381.26	657.69
381.46	678.76
381.65	725.57
381.85	674.07
382.04	603.86
382.24	681.10
382.43	641.31
382.63	709.18
382.83	648.33
383.02	802.80
383.22	732.59
383.41	784.08
383.61	807.48
383.80	788.76
384.00	730.25
384.19	713.86
384.39	919.83
384.58	746.63
384.78	826.21
384.97	844.93
385.17	826.21
385.36	788.76
385.56	807.48
385.75	786.42
385.95	758.33
386.14	898.77
386.34	821.53
386.53	842.59
386.72	891.74
386.92	898.77
387.11	931.53
387.31	891.74
387.50	901.11
387.70	894.08
387.89	950.26
388.09	720.88
388.28	863.66
388.48	877.70
388.67	938.55
388.86	966.64
389.06	966.64
389.25	992.39
389.45	968.98
389.64	957.28
389.84	912.81
390.03	1048.56
390.22	957.28
390.42	1067.28
390.61	1004.09
390.81	901.11
391.00	1121.12
391.19	1086.01
391.39	1086.01
391.58	1104.73
391.78	1015.79
391.97	1064.94
392.16	1123.46
392.36	1088.35
392.55	1041.54
392.75	1069.62
392.94	1025.15
393.13	1022.81
393.33	908.13
393.52	964.30
393.71	1022.81
393.91	1146.86
394.10	1076.65
394.29	1135.16
394.49	1174.95
394.68	1266.23
394.88	1224.10
395.07	1228.78
395.26	1184.31
395.46	1231.12
395.65	1231.12
395.84	1172.61
396.04	1268.57
396.23	1240.48
396.42	1210.06
396.62	1181.97
396.81	1242.82
397.00	1247.51
397.19	1315.38
397.39	1341.13
397.58	1394.96
397.77	1432.41
397.97	1500.28
398.16	1352.83
398.35	1425.39
398.55	1521.35
398.74	1493.26
398.93	1500.28
399.12	1488.58
399.32	1427.73
399.51	1554.12
399.70	1577.52
399.90	1488.58
400.09	1600.93
400.28	1638.38
400.47	1739.02
400.67	1734.34
400.86	1645.40
401.05	1619.65
401.24	1734.34
401.44	1769.44
401.63	1741.36
401.82	1736.68
402.01	1633.69
402.21	1806.89
402.40	1823.28
402.59	1771.79
402.78	1816.26
402.97	1769.44
403.17	1930.94
403.36	1853.70
403.55	1930.94
403.74	1842.00
403.93	1933.28
404.13	1949.67
404.32	1825.62
404.51	1909.88
404.70	1949.67
404.89	1834.98
405.09	2026.90
405.28	1966.05
405.47	1994.14
405.66	1961.37
405.85	2024.56
406.05	1989.46
406.24	2054.99
406.43	2015.20
406.62	2120.53
406.81	2169.68
407.00	2015.20
407.20	2078.40
407.39	1977.75
407.58	2223.51
407.77	2129.89
407.96	2251.60
408.15	2246.91
408.34	2284.36
408.54	2246.91
408.73	2209.47
408.92	2298.41
409.11	2380.32
409.30	2289.04
409.49	2204.78
409.68	2282.02
409.87	2335.85
410.07	2368.62
410.26	2401.39
410.45	2403.73
410.64	2567.57
410.83	2445.86
411.02	2490.33
411.21	2644.81
411.40	2621.40
411.59	2677.57
411.78	2626.08
411.98	2658.85
412.17	2640.12
412.36	2661.19
412.55	2726.72
412.74	2848.43
412.93	2677.57
413.12	2806.30
413.31	2878.86
413.50	2974.82
413.69	2911.63
413.88	3007.59
414.07	3009.93
414.26	2951.42
414.45	3047.38
414.64	3045.04
414.83	3052.06
415.02	3049.72
415.22	3143.34
415.41	3101.21
415.60	3075.46
415.79	3197.17
415.98	3262.71
416.17	3361.01
416.36	3314.20
416.55	3337.60
416.74	3379.73
416.93	3304.84
417.12	3265.05
417.31	3349.31
417.50	3435.91
417.69	3438.25
417.88	3543.57
418.07	3302.50
418.26	3433.57
418.45	3597.40
418.64	3538.89
418.83	3538.89
419.02	3606.77
419.21	3723.79
419.39	3719.11
419.58	3555.27
419.77	3632.51
419.96	3609.11
420.15	3726.13
420.34	3716.77
420.53	3803.37
420.72	3836.14
420.91	3861.88
421.10	3852.52
421.29	3911.04
421.48	3625.49
421.67	4051.47
421.86	3936.78
422.05	3810.39
422.24	3843.16
422.43	3843.16
422.61	4051.47
422.80	3861.88
422.99	3845.50
423.18	4049.13
423.37	3985.93
423.56	3925.08
423.75	3971.89
423.94	3946.14
424.13	3772.94
424.32	3777.62
424.50	3953.16
424.69	4095.94
424.88	4025.72
425.07	3932.10
425.26	3936.78
425.45	3932.10
425.64	3913.38
425.83	3988.27
426.01	3999.98
426.20	4095.94
426.39	4053.81
426.58	3913.38
426.77	3918.06
426.96	4049.13
427.15	3974.23
427.33	4196.58
427.52	4170.83
427.71	4194.24
427.90	4170.83
428.09	4138.07
428.28	4133.39
428.46	4231.69
428.65	4086.58
428.84	4262.12
429.03	4306.59
429.22	4100.62
429.40	4252.75
429.59	4145.09
429.78	4032.74
429.97	3941.46
430.16	4065.51
430.34	4117.00
430.53	4269.14
430.72	4273.82
430.91	4257.43
431.10	4337.01
431.28	4512.55
431.47	4631.92
431.66	4718.52
431.85	4512.55
432.03	4730.22
432.22	4727.88
432.41	4622.56
432.60	4704.48
432.79	4774.69
432.97	4840.23
433.16	4716.18
433.35	4587.45
433.54	4861.29
433.72	4819.16
433.91	4809.80
434.10	4826.18
434.28	4931.51
434.47	4898.74
434.66	5067.26
434.85	4903.42
435.03	4954.91
435.22	5027.47
435.41	5195.99
435.59	5135.14
435.78	5240.46
435.97	5085.98
436.16	5193.65
436.34	5160.88
436.53	5055.56
436.72	5200.67
436.90	5238.12
437.09	5111.73
437.28	5160.88
437.46	5195.99
437.65	5149.18
437.84	5207.69
438.02	5284.93
438.21	5287.27
438.40	5149.18
438.58	5369.19
438.77	5453.45
438.96	5486.22
439.14	5479.19
439.33	5757.72
439.52	5750.70
439.70	5699.20
439.89	5877.09
440.08	5872.40
440.26	5879.43
440.45	5750.70
440.63	5884.11
440.82	6106.46
441.01	6024.54
441.19	6024.54
441.38	6342.85
441.57	6115.82
441.75	6242.21
441.94	6300.72
442.12	6326.47
442.31	6267.95
442.50	6373.28
442.68	6380.30
442.87	6504.35
443.05	6298.38
443.24	6490.31
443.43	6399.02
443.61	6539.46
443.80	6537.12
443.98	6539.46
444.17	6211.78
444.35	6595.63
444.54	6794.58
444.73	6530.09
444.91	6509.03
445.10	6572.22
445.28	6516.05
445.47	6436.47
445.65	6389.66
445.84	6642.44
446.02	6698.61
446.21	6717.34
446.39	6597.97
446.58	6789.89
446.77	6829.68
446.95	6558.18
447.14	6651.80
447.32	6736.06
447.51	6731.38
447.69	6541.80
447.88	6757.13
448.06	6890.54
448.25	6864.79
448.43	6944.37
448.62	6829.68
448.80	6836.70
448.99	6867.13
449.17	6920.96
449.36	6850.75
449.54	7159.70
449.73	7353.96
449.91	7269.70
450.10	7213.53
450.28	7349.28
450.46	7276.73
450.65	7318.86
450.83	7241.62
451.02	7267.36
451.20	7325.88
451.39	7265.02
451.57	7393.75
451.76	7103.53
451.94	7372.69
452.13	7194.81
452.31	7248.64
452.49	7087.14
452.68	7178.42
452.86	7232.26
453.05	7332.90
453.23	7541.21
453.42	7171.40
453.60	7585.68
453.78	7529.50
453.97	7494.40
454.15	7438.22
454.34	7527.16
454.52	7695.68
454.70	7461.63
454.89	7761.22
455.07	7688.66
455.26	7588.02
455.44	7786.96
455.62	7829.09
455.81	7871.22
455.99	7735.47
456.17	8063.15
456.36	8011.65
456.54	8077.19
456.73	8231.66
456.91	8255.07
457.09	8292.52
457.28	8222.30
457.46	8067.83
457.64	8334.65
457.83	8184.85
458.01	8100.59
458.19	8156.77
458.38	8217.62
458.56	8313.58
458.74	8315.92
458.93	8489.12
459.11	8367.42
459.29	8446.99
459.48	8444.65
459.66	8430.61
459.84	8280.82
460.03	8676.37
460.21	8568.70
460.39	8449.33
460.57	8528.91
460.76	8500.83
460.94	8753.60
461.12	8662.32
461.31	8678.71
461.49	8624.87
461.67	8727.86
461.85	9015.74
462.04	8814.46
462.22	9280.22
462.40	9067.24
462.59	8896.38
462.77	8842.54
462.95	8994.68
463.13	8840.20
463.32	8861.27
463.50	9062.55
463.68	8877.65
463.86	9172.56
464.05	8915.10
464.23	8973.61
464.41	9064.89
464.59	9118.73
464.78	9327.03
464.96	9202.99
465.14	9107.02
465.32	9125.75
465.50	9263.84
465.69	9256.82
465.87	9334.06
466.05	9100.00
466.23	9212.35
466.41	9254.48
466.60	9425.34
466.78	9090.64
466.96	9329.38
467.14	9453.42
467.32	9390.23
467.51	9565.77
467.69	9238.09
467.87	9490.87
468.05	9753.01
468.23	9743.65
468.41	9530.66
468.60	9577.47
468.78	9713.22
468.96	9420.66
469.14	9757.69
469.32	9729.61
469.50	9724.93
469.69	9741.31
469.87	10012.81
470.05	9888.76
470.23	10036.22
470.41	9738.97
470.59	10104.09
470.77	9919.19
470.95	10188.35
471.14	10300.70
471.32	10146.22
471.50	10406.02
471.68	10485.60
471.86	10668.16
472.04	10420.06
472.22	10487.94
472.40	10193.03
472.58	10431.77
472.77	10595.61
472.95	10553.48
473.13	11037.97
473.31	10611.99
473.49	10796.89
473.67	10661.14
473.85	10843.70
474.03	10951.37
474.21	11087.12
474.39	11286.06
474.57	11133.93
474.75	11194.78
474.93	11243.93
475.12	11225.21
475.30	11225.21
475.48	11480.33
475.66	11283.72
475.84	11398.41
476.02	11386.71
476.20	11496.71
476.38	11630.12
476.56	11957.80
476.74	11964.82
476.92	11894.60
477.10	12093.55
477.28	12308.88
477.46	12290.15
477.64	12334.62
477.82	12514.84
478.00	12608.47
478.18	12847.20
478.36	12709.11
478.54	12627.19
478.72	12772.30
478.90	12788.69
479.08	13301.26
479.26	13387.86
479.44	13186.58
479.62	13249.77
479.80	13518.93
479.98	13427.65
480.16	13968.32
480.34	13666.39
480.52	13870.01
480.70	14160.24
480.88	13818.52
481.06	14155.56
481.24	14054.92
481.41	14281.95
481.59	14396.64
481.77	14445.79
481.95	14710.27
482.13	14717.29
482.31	14925.60
482.49	15218.16
482.67	14946.66
482.85	15150.29
483.03	15412.43
483.21	15227.53
483.39	15438.17
483.57	15489.67
483.74	15822.02
483.92	16086.50
484.10	15681.59
484.28	15857.13
484.46	16243.32
484.64	16294.81
484.82	16159.06
485.00	16203.53
485.18	16650.57
485.35	16669.30
485.53	16615.46
485.71	16215.23
485.89	16762.92
486.07	16730.15
486.25	16826.11
486.43	17090.59
486.61	17111.66
486.78	17399.54
486.96	17575.08
487.14	18080.64
487.32	17900.42
487.50	18010.42
487.68	18274.90
487.85	18401.29
488.03	18611.94
488.21	18644.71
488.39	18567.47
488.57	18799.18
488.75	18956.00
488.92	19454.53
489.10	19494.32
489.28	19325.80
489.46	19709.65
489.64	19843.06
489.81	20250.32
489.99	20032.65
490.17	20084.14
490.35	20610.76
490.53	20357.98
490.70	20727.78
490.88	20807.36
491.06	21191.21
491.24	20837.79
491.41	20790.98
491.59	20849.49
491.77	20975.88
491.95	21240.36
492.13	21500.16
492.30	21771.66
492.48	21734.21
492.66	21956.57
492.84	21799.75
493.01	22127.42
493.19	22494.89
493.37	22455.10
493.54	22595.53
493.72	22754.69
493.90	22789.80
494.08	23260.24
494.25	23431.10
494.43	23506.00
494.61	23707.29
494.79	24112.20
494.96	23634.73
495.14	23735.37
495.32	24100.50
495.49	23695.58
495.67	24154.33
495.85	24229.23
496.02	24332.21
496.20	24484.34
496.38	24521.79
496.55	25036.71
496.73	25291.83
496.91	25050.75
497.09	25336.30
497.26	25266.08
497.44	25383.11
497.62	25090.54
497.79	25722.49
497.97	25191.19
498.14	25928.45
498.32	25879.30
498.50	25713.13
498.67	26342.73
498.85	26258.47
499.03	26162.51
499.20	26504.23
499.38	26707.85
499.56	26464.44
499.73	26881.05
499.91	26782.75
500.08	26696.15
500.26	26864.67
500.44	26824.88
500.61	26682.11
500.79	26932.54
500.97	26848.29
501.14	26977.01
501.32	27414.69
501.49	27503.64
501.67	27367.88
501.84	27730.67
502.02	27576.19
502.20	27962.38
502.37	28086.43
502.55	28161.33
502.72	28519.43
502.90	27929.61
503.07	28299.42
503.25	28158.99
503.43	28341.55
503.60	28257.29
503.78	28421.13
503.95	28627.09
504.13	28697.31
504.30	28800.29
504.48	28800.29
504.65	29092.86
504.83	28842.42
505.01	29254.36
505.18	29305.85
505.36	29560.97
505.53	29675.65
505.71	30038.44
505.88	29813.74
506.06	29785.66
506.23	30279.51
506.41	30132.06
506.58	30143.76
506.76	29986.94
506.93	30082.91
507.11	30621.23
507.28	30164.82
507.46	30061.84
507.63	30155.46
507.81	30639.95
507.98	30845.92
508.16	30574.42
508.33	30806.13
508.50	31051.89
508.68	30649.32
508.85	31026.14
509.03	31332.75
509.20	31295.30
509.38	31407.65
509.55	31758.73
509.73	31557.44
509.90	31751.71
510.08	31349.14
510.25	31531.70
510.42	31805.54
510.60	31948.31
510.77	32086.40
510.95	32067.68
511.12	32334.50
511.30	32697.28
511.47	32870.48
511.64	32685.58
511.82	32275.99
511.99	32802.61
512.17	32308.76
512.34	32652.81
512.51	32711.33
512.69	33020.28
512.86	33221.56
513.04	33008.58
513.21	33202.84
513.38	32861.12
513.56	32903.25
513.73	33010.92
513.90	33605.41
514.08	33223.90
514.25	33589.03
514.43	33177.09
514.60	33333.91
514.77	33273.06
514.95	33888.62
515.12	33493.07
515.29	33560.94
515.47	34106.29
515.64	34202.25
515.81	34085.22
515.99	34153.10
516.16	33874.57
516.33	33565.62
516.51	33949.47
516.68	33525.83
516.85	33310.50
517.03	34092.24
517.20	34176.50
517.37	34272.46
517.54	34881.00
517.72	34600.14
517.89	34164.80
518.06	34199.91
518.24	33909.68
518.41	34429.28
518.58	35005.05
518.75	34705.46
518.93	34930.16
519.10	34845.90
519.27	35243.79
519.45	35194.64
519.62	35487.20
519.79	35234.42
519.96	35386.56
520.14	35384.22
520.31	35505.93
520.48	35798.49
520.65	35686.15
520.83	35978.72
521.00	36367.24
521.17	35831.26
521.34	36467.89
521.52	36414.05
521.69	36510.02
521.86	36774.50
522.03	36617.68
522.20	36699.60
522.38	36889.18
522.55	36552.15
522.72	36561.51
522.89	36961.74
523.07	36833.01
523.24	36648.11
523.41	37151.32
523.58	37092.81
523.75	37713.05
523.92	37099.83
524.10	37333.89
524.27	37453.25
524.44	37574.96
524.61	37684.97
524.78	37661.56
524.96	37867.53
525.13	37865.19
525.30	38305.21
525.47	37968.17
525.64	38237.33
525.81	37914.34
525.98	38045.41
526.16	37684.97
526.33	37509.43
526.50	37710.71
526.67	37593.68
526.84	37432.19
527.01	37722.41
527.18	38014.98
527.36	38579.05
527.53	38651.61
527.70	38728.84
527.87	38658.63
528.04	38227.97
528.21	38754.59
528.38	38761.61
528.55	39051.84
528.72	39037.80
528.89	39335.04
529.07	39208.65
529.24	38890.34
529.41	38902.04
529.58	38944.17
529.75	38916.09
529.92	39119.71
530.09	39594.84
530.26	39866.34
530.43	39716.55
530.60	39599.52
530.77	39311.64
530.94	39721.23
531.11	39541.01
531.28	39559.73
531.46	39901.45
531.63	40016.14
531.80	39732.93
531.97	39826.56
532.14	39227.38
532.31	39526.97
532.48	39393.56
532.65	39782.09
532.82	40058.27
532.99	40018.48
533.16	39941.24
533.33	40549.78
533.50	40371.90
533.67	40105.08
533.84	40072.31
534.01	40025.50
534.18	40699.58
534.35	40491.27
534.52	40629.36
534.69	40479.57
534.86	41401.74
535.03	40957.03
535.20	41118.53
535.37	41038.95
535.54	41399.40
535.71	41038.95
535.88	41160.66
536.05	40957.03
536.22	41329.18
536.38	41191.09
536.55	40910.22
536.72	40807.24
536.89	40985.12
537.06	41029.59
537.23	41436.84
537.40	41085.76
537.57	41535.15
537.74	41413.44
537.91	41343.22
538.08	41401.74
538.25	40933.63
538.42	41343.22
538.59	41497.70
538.75	41378.33
538.92	41350.24
539.09	41654.51
539.26	41741.11
539.43	41469.61
539.60	41923.68
539.77	41322.16
539.94	41443.87
540.11	41387.69
540.28	41731.75
540.44	41656.85
540.61	41698.98
540.78	41724.73
540.95	41848.78
541.12	41989.21
541.29	41776.22
541.46	42354.33
541.62	42265.39
541.79	42265.39
541.96	41638.13
542.13	41954.10
542.30	42003.25
542.47	42525.19
542.63	42010.28
542.80	42272.42
542.97	42646.90
543.14	42527.53
543.31	43173.52
543.48	42614.13
543.64	42801.38
543.81	43524.60
543.98	43320.98
544.15	43295.23
544.32	43023.73
544.48	43557.37
544.65	42895.00
544.82	43262.46
544.99	42920.74
545.16	43250.76
545.32	43400.55
545.49	43386.51
545.66	43435.66
545.83	43091.60
546.00	43646.31
546.16	43491.83
546.33	43363.11
546.50	43342.04
546.67	43842.92
546.83	43196.93
547.00	43852.28
547.17	43299.91
547.34	43353.74
547.50	43342.04
547.67	43580.78
547.84	43606.52
548.00	43761.00
548.17	44414.01
548.34	44004.41
548.51	44395.28
548.67	44170.59
548.84	44219.74
549.01	43962.28
549.18	44296.98
549.34	44013.77
549.51	44002.07
549.68	44311.02
549.84	43943.56
550.01	44528.69
550.18	44224.42
550.34	44470.18
550.51	43908.45
550.68	44184.63
550.84	43840.57
551.01	44399.96
551.18	44175.27
551.34	44399.96
551.51	44336.77
551.68	44535.71
551.84	44580.18
552.01	44505.29
552.18	44163.57
552.34	44439.75
552.51	44346.13
552.68	44657.42
552.84	44563.80
553.01	44645.72
553.18	44776.79
553.34	44861.05
553.51	44488.90
553.67	45020.20
553.84	45284.68
554.01	44905.52
554.17	45020.20
554.34	44741.68
554.51	44425.71
554.67	44800.19
554.84	44863.39
555.00	44903.18
555.17	44900.84
555.33	44882.11
555.50	45038.93
555.67	45254.26
555.83	44949.99
556.00	45425.12
556.16	45497.67
556.33	45071.70
556.50	45029.57
556.66	45457.88
556.83	45235.53
556.99	44748.70
557.16	45130.21
557.32	45277.66
557.49	45214.47
557.65	44912.54
557.82	45345.54
557.98	45434.48
558.15	45027.23
558.32	45673.21
558.48	44875.09
558.65	45200.43
558.81	44999.14
558.98	45113.83
559.14	45457.88
559.31	45378.31
559.47	45652.15
559.64	45752.79
559.80	45476.61
559.97	45059.99
560.13	44989.78
560.30	45628.74
560.46	45804.28
560.63	45542.14
560.79	45886.20
560.96	45722.37
561.12	45357.24
561.29	45251.92
561.45	45453.20
561.61	45502.35
561.78	45755.13
561.94	45509.38
562.11	45464.91
562.27	45478.95
562.44	45890.88
562.60	45516.40
562.77	45502.35
562.93	45914.29
563.10	46141.32
563.26	45654.49
563.42	46209.20
563.59	45757.47
563.75	45823.01
563.92	45937.69
564.08	45986.85
564.24	46010.25
564.41	46246.65
564.57	46073.45
564.74	45862.80
564.90	45783.22
565.07	45705.98
565.23	46012.59
565.39	45911.95
565.56	45764.49
565.72	45558.53
565.88	45401.71
566.05	45989.19
566.21	45701.30
566.38	45869.82
566.54	45815.99
566.70	45956.42
566.87	46031.32
567.03	46138.98
567.19	46340.27
567.36	46199.83
567.52	45907.27
567.68	46136.64
567.85	45900.25
568.01	45853.44
568.17	46239.62
568.34	46031.32
568.50	45874.50
568.66	46003.23
568.83	46312.18
568.99	45862.80
569.15	45769.18
569.32	45663.85
569.48	45628.74
569.64	46429.21
569.81	46431.55
569.97	45954.08
570.13	45832.37
570.30	45940.04
570.46	45532.78
570.62	45923.65
570.78	45944.72
570.95	46120.26
571.11	46286.43
571.27	45937.69
571.43	45937.69
571.60	46363.67
571.76	45935.35
571.92	46131.96
572.09	46391.76
572.25	46335.59
572.41	46047.70
572.57	46131.96
572.74	46782.63
572.90	46300.48
573.06	46321.54
573.22	46518.15
573.38	46277.07
573.55	45764.49
573.71	46349.63
573.87	46522.83
574.03	46031.32
574.20	46192.81
574.36	45989.19
574.52	46110.89
574.68	46630.49
574.84	46082.81
575.01	46028.98
575.17	46258.35
575.33	45687.26
575.49	46127.28
575.65	45921.31
575.82	45808.96
575.98	45897.91
576.14	46543.89
576.30	46476.02
576.46	46511.13
576.62	46036.00
576.79	46059.40
576.95	46033.66
577.11	46199.83
577.27	45954.08
577.43	46124.94
577.59	46188.13
577.75	46344.95
577.92	45972.80
578.08	45954.08
578.24	45813.65
578.40	46312.18
578.56	45933.01
578.72	46101.53
578.88	46178.77
579.04	46815.40
579.21	45801.94
579.37	46546.23
579.53	46190.47
579.69	45958.76
579.85	46050.04
580.01	46447.93
580.17	46108.55
580.33	46457.29
580.49	46373.03
580.65	46209.20
580.82	46227.92
580.98	46223.24
581.14	46143.66
581.30	46766.24
581.46	46342.61
581.62	46478.36
581.78	45998.55
581.94	46747.52
582.10	45977.48
582.26	46621.13
582.42	46478.36
582.58	46323.88
582.74	46227.92
582.90	46436.23
583.06	46806.03
583.22	46398.78
583.38	46508.79
583.54	46480.70
583.70	46274.73
583.86	46817.74
584.02	46288.77
584.18	46604.75
584.34	46003.23
584.50	46361.33
584.66	46225.58
584.82	46195.15
584.98	46520.49
585.14	46499.42
585.30	46000.89
585.46	46443.25
585.62	46241.96
585.78	46525.17
585.94	45965.78
586.10	46440.91
586.26	45839.39
586.42	46951.15
586.58	46698.37
586.74	46436.23
586.90	46291.12
587.06	46412.82
587.22	46384.74
587.38	46234.94
587.54	46864.55
587.70	46766.24
587.86	46284.09
588.02	46534.53
588.18	46279.41
588.34	46071.10
588.49	45586.61
588.65	46007.91
588.81	45914.29
588.97	45834.71
589.13	46281.75
589.29	45869.82
589.45	45958.76
589.61	46003.23
589.77	46419.84
589.93	46473.68
590.08	46513.47
590.24	46684.33
590.40	46567.30
590.56	46913.70
590.72	46326.22
590.88	46246.65
591.04	46836.46
591.20	46714.75
591.35	46375.37
591.51	46876.25
591.67	46129.62
591.83	46515.81
591.99	45944.72
592.15	46389.42
592.31	46560.28
592.46	46796.67
592.62	46092.17
592.78	46632.83
592.94	46677.30
593.10	46492.40
593.26	46775.61
593.41	46747.52
593.57	46518.15
593.73	46248.99
593.89	46550.91
594.05	46759.22
594.20	46506.44
594.36	46433.89
594.52	46117.92
594.68	46349.63
594.84	46237.28
594.99	46611.77
595.15	46642.20
595.31	46490.06
595.47	46614.11
595.62	46447.93
595.78	46541.55
595.94	46932.42
596.10	46906.68
596.25	46745.18
596.41	46562.62
596.57	45984.51
596.73	46440.91
596.88	46204.52
597.04	46693.69
597.20	46499.42
597.36	46770.93
597.51	46600.07
597.67	46443.25
597.83	46775.61
597.99	46698.37
598.14	46485.38
598.30	46658.58
598.46	46710.07
598.61	46829.44
598.77	46377.72
598.93	46754.54
599.09	46431.55
599.24	47012.00
599.40	46820.08
599.56	46761.56
599.71	46174.09
599.87	46759.22
600.03	46410.48
600.18	46513.47
600.34	46686.67
600.50	46293.46
600.65	46305.16
600.81	46377.72
600.97	46410.48
601.12	46637.51
601.28	46518.15
601.44	46396.44
601.59	46237.28
601.75	46326.22
601.91	46213.88
602.06	45888.54
602.22	46745.18
602.37	46473.68
602.53	46258.35
602.69	46740.50
602.84	46916.04
603.00	46618.79
603.16	46426.87
603.31	46323.88
603.47	46387.08
603.62	46220.90
603.78	46436.23
603.94	46457.29
604.09	46710.07
604.25	46431.55
604.40	46281.75
604.56	45961.10
604.71	46761.56
604.87	46349.63
605.03	46405.80
605.18	46504.10
605.34	46504.10
605.49	45961.10
605.65	46487.72
605.80	46153.02
605.96	46026.63
606.12	46466.66
606.27	46330.90
606.43	46167.07
606.58	46436.23
606.74	46354.31
606.89	46286.43
607.05	46211.54
607.20	46471.34
607.36	46724.11
607.51	46693.69
607.67	45996.21
607.82	45900.25
607.98	45855.78
608.13	46330.90
608.29	45879.18
608.44	46131.96
608.60	45837.05
608.75	46178.77
608.91	46197.49
609.06	46078.13
609.22	46108.55
609.37	45804.28
609.53	46389.42
609.68	45806.62
609.84	45916.63
609.99	46003.23
610.15	45532.78
610.30	45881.52
610.46	45734.07
610.61	45729.39
610.76	45792.58
610.92	45977.48
611.07	46192.81
611.23	45806.62
611.38	46155.36
611.54	45734.07
611.69	45853.44
611.84	45205.11
612.00	45490.65
612.15	45504.70
612.31	46134.30
612.46	45680.24
612.62	46052.38
612.77	45439.16
612.92	45844.07
613.08	45390.01
613.23	45488.31
613.39	45450.86
613.54	44851.69
613.69	45074.04
613.85	44891.48
614.00	45708.32
614.15	45521.08
614.31	45993.87
614.46	45933.01
614.62	44999.14
614.77	45645.13
614.92	45230.85
615.08	45177.02
615.23	45385.33
615.38	45411.07
615.54	44769.77
615.69	45361.92
615.84	45179.36
616.00	45221.49
616.15	45212.13
616.30	45132.55
616.46	44823.60
616.61	44732.32
616.76	44987.44
616.92	44580.18
617.07	44662.10
617.22	44814.24
617.37	44451.45
617.53	45022.54
617.68	44989.78
617.83	45132.55
617.99	44392.94
618.14	44811.90
618.29	44683.17
618.45	44673.81
618.60	44622.31
618.75	44479.54
618.90	44355.49
619.06	44231.44
619.21	44488.90
619.36	44854.03
619.51	44732.32
619.67	44243.15
619.82	44563.80
619.97	44739.34
620.12	44196.34
620.28	44545.08
620.43	44479.54
620.58	44416.35
620.73	44378.90
620.89	44175.27
621.04	44472.52
621.19	44603.59
621.34	44540.39
621.49	44009.09
621.65	44126.12
621.80	44519.33
621.95	43957.60
622.10	44493.58
622.25	43700.14
622.41	44009.09
622.56	44105.06
622.71	43929.51
622.86	44507.63
623.01	43959.94
623.16	44315.70
623.32	43847.60
623.47	43583.12
623.62	44357.83
623.77	43625.25
623.92	43728.23
624.07	43468.43
624.23	43594.82
624.38	43742.27
624.53	43838.23
624.68	43482.47
624.83	43995.05
624.98	43683.76
625.13	43386.51
625.29	43143.09
625.44	43789.08
625.59	43173.52
625.74	43494.18
625.89	43222.67
626.04	43482.47
626.19	43302.25
626.34	43337.36
626.49	43337.36
626.65	42775.63
626.80	43430.98
626.95	42909.04
627.10	42892.66
627.25	42981.60
627.40	43267.14
627.55	42887.98
627.70	42831.80
627.85	43140.75
628.00	42719.46
628.15	43026.07
628.30	43206.29
628.45	43168.84
628.60	43040.11
628.76	42581.37
628.91	42852.87
629.06	42632.86
629.21	42916.06
629.36	42192.84
629.51	42391.78
629.66	42351.99
629.81	42476.04
629.96	42401.14
630.11	42560.30
630.26	43054.15
630.41	42712.44
630.56	42478.38
630.71	42674.99
630.86	42073.47
631.01	42391.78
631.16	42473.70
631.31	42323.91
631.46	42202.20
631.61	42586.05
631.76	42164.75
631.91	42787.33
632.06	42646.90
632.21	42117.94
632.36	42192.84
632.51	41827.71
632.66	42450.30
632.81	41762.18
632.96	42036.02
633.10	41661.54
633.25	42340.29
633.40	42185.82
633.55	42117.94
633.70	42017.30
633.85	42167.09
634.00	41996.23
634.15	42045.38
634.30	41785.58
634.45	41708.35
634.60	41525.78
634.75	41696.64
634.90	41706.01
635.05	41893.25
635.19	41483.66
635.34	41942.40
635.49	41523.44
635.64	41680.26
635.79	41425.14
635.94	41345.56
636.09	41757.50
636.24	41163.00
636.39	40870.43
636.53	41413.44
636.68	41109.17
636.83	41263.64
636.98	41490.68
637.13	40659.79
637.28	42190.50
637.43	41731.75
637.57	41296.41
637.72	41092.79
637.87	41918.99
638.02	41163.00
638.17	41174.70
638.32	41090.44
638.46	40921.93
638.61	41212.15
638.76	40975.76
638.91	41137.26
639.06	41034.27
639.20	41254.28
639.35	41165.34
639.50	40795.54
639.65	41097.47
639.80	40727.66
639.94	40741.71
640.09	40741.71
640.24	40608.29
640.39	40538.08
640.54	40549.78
640.68	40659.79
640.83	40547.44
640.98	40559.14
641.13	40385.94
641.27	40741.71
641.42	39941.24
641.57	40507.65
641.72	40793.20
641.86	40367.22
642.01	39988.05
642.16	40664.47
642.31	40170.61
642.45	40652.76
642.60	40060.61
642.75	40273.60
642.90	39775.06
643.04	40371.90
643.19	40198.70
643.34	40137.85
643.48	40161.25
643.63	40463.18
643.78	40294.66
643.93	40102.74
644.07	40184.66
644.22	39786.77
644.37	39917.84
644.51	40025.50
644.66	39833.58
644.81	40112.10
644.95	39889.75
645.10	40025.50
645.25	40168.27
645.39	40304.02
645.54	39463.77
645.69	39651.02
645.83	39512.92
645.98	39515.26
646.13	39730.59
646.27	39711.87
646.42	39194.61
646.57	39456.75
646.71	39552.71
646.86	39842.94
647.00	39398.24
647.15	39489.52
647.30	39318.66
647.44	39435.69
647.59	39562.08
647.74	38888.00
647.88	39037.80
648.03	39407.60
648.17	39529.31
648.32	39337.38
648.47	39143.12
648.61	38656.29
648.76	39100.99
648.90	38981.62
649.05	38923.11
649.20	39089.29
649.34	39304.62
649.49	38410.53
649.63	38906.73
649.78	39150.14
649.92	38815.44
650.07	39501.22
650.21	39208.65
650.36	39302.28
650.51	39007.37
650.65	39386.54
650.80	39344.41
650.94	39021.41
651.09	39028.43
651.23	38600.12
651.38	38873.96
651.52	38405.85
651.67	38487.77
651.81	38487.77
651.96	38646.93
652.10	39035.45
652.25	38660.97
652.39	38972.26
652.54	38588.41
652.68	38609.48
652.83	38609.48
652.97	38707.78
653.12	38323.93
653.26	38422.23
653.41	38162.43
653.55	38396.49
653.70	38326.27
653.84	38352.02
653.99	38239.67
654.13	38101.58
654.27	38314.57
654.42	38291.16
654.56	38192.86
654.71	38342.66
654.85	37816.04
655.00	38405.85
655.14	38066.47
655.29	37450.91
655.43	37806.67
655.57	37338.57
655.72	37385.38
655.86	37631.13
656.01	37673.26
656.15	36978.12
656.30	37574.96
656.44	37289.42
656.58	37886.25
656.73	37270.69
656.87	37287.07
657.01	37202.82
657.16	37268.35
657.30	36926.63
657.45	37256.65
657.59	37589.00
657.73	37347.93
657.88	37591.34
658.02	37436.87
658.16	37418.14
658.31	37579.64
658.45	37539.85
658.60	37326.86
658.74	37614.75
658.88	37064.72
659.03	37057.70
659.17	37383.04
659.31	37055.36
659.46	36952.38
659.60	37057.70
659.74	37097.49
659.89	36540.44
660.03	36783.86
660.17	37256.65
660.32	36584.91
660.46	37024.93
660.60	36683.22
660.74	36594.28
660.89	36669.17
661.03	36224.47
661.17	36605.98
661.32	36533.42
661.46	36282.98
661.60	36268.94
661.74	35974.03
661.89	36336.82
662.03	36423.42
662.17	36304.05
662.31	36114.47
662.46	36837.69
662.60	36840.03
662.74	36229.15
662.88	36322.77
663.03	36053.61
663.17	36329.80
663.31	35838.28
663.45	35878.07
663.60	35826.58
663.74	35482.52
663.88	35564.44
664.02	35304.64
664.17	35899.14
664.31	35679.13
664.45	35594.87
664.59	35257.83
664.73	35292.94
664.88	35178.25
665.02	35189.95
665.16	34885.68
665.30	35035.48
665.44	34785.04
665.59	34794.40
665.73	34696.10
665.87	34600.14
666.01	35065.91
666.15	34946.54
666.29	34663.33
666.44	34682.06
666.58	34548.65
666.72	34639.93
666.86	34632.91
667.00	34623.54
667.14	34309.91
667.28	34326.30
667.43	34831.85
667.57	34473.75
667.71	34323.96
667.85	34412.90
667.99	34415.24
668.13	34356.72
668.27	34061.82
668.41	34195.23
668.56	34125.01
668.70	33996.28
668.84	33574.98
668.98	33404.13
669.12	33235.61
669.26	33773.93
669.40	33748.18
669.54	33350.29
669.68	33467.32
669.82	33043.68
669.96	32985.17
670.10	32910.27
670.25	33579.67
670.39	32975.81
670.53	33027.30
670.67	32856.44
670.81	33289.44
670.95	32870.48
671.09	32858.78
671.23	33017.94
671.37	32575.58
671.51	32573.24
671.65	32437.48
671.79	32400.04
671.93	32362.59
672.07	32250.24
672.21	32271.31
672.35	32491.32
672.49	32510.04
672.63	32194.07
672.77	31910.86
672.91	31765.75
673.05	32121.51
673.19	31878.10
673.33	31779.79
673.47	31718.94
673.61	31580.85
673.75	31585.53
673.89	31229.77
674.03	31644.04
674.17	31309.35
674.31	31285.94
674.45	31665.11
674.59	31325.73
674.73	31461.48
674.87	31718.94
675.01	31159.55
675.15	31110.40
675.29	30796.77
675.43	30852.94
675.56	31260.20
675.70	30529.95
675.84	30565.06
675.98	29879.28
676.12	30511.22
676.26	30469.09
676.40	30506.54
676.54	30490.16
676.68	30541.65
676.82	29656.93
676.96	30171.85
677.10	30092.27
677.23	29930.77
677.37	30031.41
677.51	29626.50
677.65	29563.31
677.79	29060.09
677.93	29259.04
678.07	29123.29
678.21	29034.35
678.34	29282.44
678.48	28732.42
678.62	28996.90
678.76	28322.82
678.90	28601.35
679.04	28219.84
679.18	28334.53
679.31	28168.35
679.45	28173.03
679.59	28191.75
679.73	28273.67
679.87	28144.94
680.00	28266.65
680.14	28161.33
680.28	28032.60
680.42	27604.28
680.56	27754.07
680.70	27262.56
680.83	27381.93
680.97	27260.22
681.11	27491.93
681.25	27365.54
681.39	27484.91
681.52	27110.43
681.66	26995.74
681.80	27307.03
681.94	27091.70
682.07	26616.57
682.21	26307.62
682.35	26810.84
682.49	26710.19
682.62	26536.99
682.76	26176.55
682.90	26473.80
683.04	26143.78
683.17	25996.33
683.31	26005.69
683.45	25975.27
683.59	25848.88
683.72	25788.02
683.86	25762.28
684.00	25912.07
684.13	25263.74
684.27	25057.78
684.41	25139.69
684.55	25156.08
684.68	25249.70
684.82	25401.83
684.96	24737.12
685.09	24800.32
685.23	24643.50
685.37	24816.70
685.50	24648.18
685.64	24807.34
685.78	24350.93
685.91	24257.31
686.05	24407.11
686.19	24322.85
686.32	24109.86
686.46	23606.64
686.60	23140.88
686.73	23335.14
686.87	23061.30
687.01	23414.72
687.14	23145.56
687.28	23129.17
687.42	23243.86
687.55	22874.06
687.69	23065.98
687.82	22923.21
687.96	23007.47
688.10	22487.87
688.23	22707.88
688.37	22794.48
688.50	22782.77
688.64	22602.55
688.78	22558.08
688.91	22419.99
689.05	22307.65
689.18	22298.28
689.32	21600.80
689.46	22300.62
689.59	22298.28
689.73	22239.77
689.86	21994.01
690.00	21837.20
690.13	21977.63
690.27	21371.43
690.41	21415.90
690.54	21256.75
690.68	21097.59
690.81	21249.72
690.95	21209.93
691.08	21497.82
691.22	21343.35
691.35	20809.70
691.49	21172.49
691.62	20910.35
691.76	21179.51
691.89	20798.00
692.03	20861.19
692.16	20830.77
692.30	20247.97
692.43	20163.72
692.57	20421.17
692.70	20168.40
692.84	19953.07
692.97	19814.98
693.11	19868.81
693.24	20016.26
693.38	19583.26
693.51	19836.04
693.65	19625.39
693.78	19520.07
693.92	19541.13
694.05	19370.27
694.19	19653.48
694.32	19599.65
694.45	19398.36
694.59	19236.86
694.72	19037.92
694.86	18909.19
694.99	18951.32
695.13	18766.42
695.26	19220.48
695.39	18633.00
695.53	18721.95
695.66	18635.35
695.80	18317.03
695.93	18307.67
696.07	18340.44
696.20	18312.35
696.33	18160.22
696.47	18436.40
696.60	18143.83
696.73	17867.65
696.87	18012.76
697.00	17493.16
697.14	17811.48
697.27	17717.86
697.40	17593.81
697.54	17479.12
697.67	17348.05
697.80	17181.87
697.94	17202.94
698.07	16975.91
698.21	17050.80
698.34	17308.26
698.47	17247.41
698.61	16676.32
698.74	16730.15
698.87	16788.66
699.01	16634.19
699.14	16376.73
699.27	16383.75
699.40	16449.28
699.54	16177.78
699.67	16147.36
699.80	16051.39
699.94	16184.80
700.07	16053.73
700.20	15981.18
700.34	16119.27
700.47	15927.35
700.60	16056.08
700.73	16039.69
700.87	15747.12
701.00	15602.01
701.13	15747.12
701.26	15433.49
701.40	15440.51
701.53	15124.54
701.66	15405.41
701.79	15211.14
701.93	15016.88
702.06	15021.56
702.19	14902.19
702.32	15035.60
702.46	14700.90
702.59	14918.57
702.72	15063.69
702.85	14820.27
702.99	14541.75
703.12	14684.52
703.25	14567.49
703.38	14572.18
703.51	14581.54
703.65	14319.40
703.78	14471.53
703.91	13914.48
704.04	14171.94
704.17	14256.20
704.31	13804.48
704.44	13877.04
704.57	13825.54
704.70	13930.87
704.83	13654.69
704.96	13703.84
705.10	13490.85
705.23	13507.23
>>>>>End Processed Spectral Data<<<<<
