SpectraSuite Data File
++++++++++++++++++++++++++++++++++++
Date: Fri Oct 25 11:34:21 EDT 2013
User: price-jones
Dark Spectrum Present: No
Reference Spectrum Present: No
Number of Sampled Component Spectra: 1
Spectrometers: USB2+H05261
Integration Time (usec): 100000 (USB2+H05261)
Spectra Averaged: 1 (USB2+H05261)
Boxcar Smoothing: 0 (USB2+H05261)
Correct for Electrical Dark: No (USB2+H05261)
Strobe/Lamp Enabled: No (USB2+H05261)
Correct for Detector Non-linearity: No (USB2+H05261)
Correct for Stray Light: No (USB2+H05261)
Number of Pixels in Processed Spectrum: 2048
>>>>>Begin Processed Spectral Data<<<<<
365.73	276.18
365.92	276.18
366.12	276.18
366.32	241.08
366.52	212.99
366.72	217.67
366.91	198.95
367.11	177.88
367.31	166.18
367.51	152.13
367.70	191.92
367.90	107.66
368.10	269.16
368.30	196.60
368.49	159.16
368.69	215.33
368.89	191.92
369.09	205.97
369.28	220.01
369.48	245.76
369.68	234.05
369.87	276.18
370.07	220.01
370.27	280.86
370.47	337.04
370.66	491.51
370.86	491.51
371.06	519.60
371.25	559.39
371.45	547.69
371.65	578.11
371.84	561.73
372.04	535.98
372.24	578.11
372.44	528.96
372.63	617.90
372.83	601.52
373.03	650.67
373.22	540.66
373.42	578.11
373.62	669.39
373.81	681.10
374.01	706.84
374.21	589.82
374.40	627.26
374.60	704.50
374.79	636.63
374.99	657.69
375.19	608.54
375.38	664.71
375.58	683.44
375.78	627.26
375.97	690.46
376.17	697.48
376.37	641.31
376.56	699.82
376.76	617.90
376.95	660.03
377.15	662.37
377.35	622.58
377.54	751.31
377.74	734.93
377.93	634.29
378.13	657.69
378.33	748.97
378.52	662.37
378.72	791.10
378.91	711.52
379.11	669.39
379.31	711.52
379.50	737.27
379.70	699.82
379.89	629.60
380.09	692.80
380.28	674.07
380.48	791.10
380.68	748.97
380.87	741.95
381.07	690.46
381.26	779.40
381.46	821.53
381.65	814.51
381.85	669.39
382.04	800.46
382.24	840.25
382.43	711.52
382.63	807.48
382.83	772.38
383.02	774.72
383.22	847.27
383.41	798.12
383.61	807.48
383.80	791.10
384.00	774.72
384.19	727.91
384.39	753.65
384.58	746.63
384.78	784.08
384.97	763.01
385.17	807.48
385.36	830.89
385.56	772.38
385.75	772.38
385.95	746.63
386.14	894.08
386.34	837.91
386.53	786.42
386.72	875.36
386.92	854.30
387.11	903.45
387.31	849.61
387.50	826.21
387.70	821.53
387.89	922.17
388.09	870.68
388.28	821.53
388.48	844.93
388.67	877.70
388.86	919.83
389.06	933.87
389.25	940.90
389.45	882.38
389.64	807.48
389.84	912.81
390.03	926.85
390.22	823.87
390.42	936.21
390.61	910.47
390.81	938.55
391.00	990.05
391.19	985.37
391.39	952.60
391.58	966.64
391.78	978.34
391.97	990.05
392.16	926.85
392.36	983.02
392.55	1029.84
392.75	959.62
392.94	978.34
393.13	957.28
393.33	1109.41
393.52	933.87
393.71	968.98
393.91	1039.20
394.10	1057.92
394.29	1149.20
394.49	1022.81
394.68	1139.84
394.88	1107.07
395.07	1179.63
395.26	1078.99
395.46	1081.33
395.65	1177.29
395.84	1125.80
396.04	1193.67
396.23	1114.10
396.42	1196.01
396.62	1245.16
396.81	1198.35
397.00	1165.59
397.19	1104.73
397.39	1296.66
397.58	1238.14
397.77	1219.42
397.97	1240.48
398.16	1214.74
398.35	1299.00
398.55	1252.19
398.74	1252.19
398.93	1240.48
399.12	1221.76
399.32	1240.48
399.51	1256.87
399.70	1359.85
399.90	1233.46
400.09	1357.51
400.28	1359.85
400.47	1369.21
400.67	1453.47
400.86	1397.30
401.05	1409.00
401.24	1383.26
401.44	1352.83
401.63	1387.94
401.82	1432.41
402.01	1409.00
402.21	1420.71
402.40	1495.60
402.59	1462.83
402.78	1451.13
402.97	1420.71
403.17	1528.37
403.36	1441.77
403.55	1488.58
403.74	1514.33
403.93	1586.88
404.13	1584.54
404.32	1537.73
404.51	1605.61
404.70	1544.75
404.89	1593.90
405.09	1792.85
405.28	1680.50
405.47	1668.80
405.66	1593.90
405.85	1666.46
406.05	1657.10
406.24	1685.19
406.43	1689.87
406.62	1736.68
406.81	1724.97
407.00	1692.21
407.20	1724.97
407.39	1830.30
407.58	1769.44
407.77	1823.28
407.96	1832.64
408.15	1893.49
408.34	1823.28
408.54	1898.17
408.73	1825.62
408.92	1827.96
409.11	1907.54
409.30	1877.11
409.49	1813.92
409.68	1898.17
409.87	1933.28
410.07	1933.28
410.26	1940.30
410.45	1905.20
410.64	2050.31
410.83	1989.46
411.02	1991.80
411.21	2085.42
411.40	1984.77
411.59	2167.34
411.78	2169.68
411.98	2190.74
412.17	2139.25
412.36	2122.87
412.55	2204.78
412.74	2225.85
412.93	2284.36
413.12	2265.64
413.31	2354.58
413.50	2359.26
413.69	2303.09
413.88	2392.03
414.07	2296.07
414.26	2394.37
414.45	2471.61
414.64	2434.16
414.83	2413.09
415.02	2483.31
415.22	2635.44
415.41	2605.02
415.60	2623.74
415.79	2560.55
415.98	2597.99
416.17	2621.40
416.36	2663.53
416.55	2654.17
416.74	2644.81
416.93	2794.60
417.12	2808.64
417.31	2813.32
417.50	2794.60
417.69	2935.03
417.88	2808.64
418.07	2822.69
418.26	2839.07
418.45	2909.29
418.64	3016.95
418.83	2951.42
419.02	3014.61
419.21	2953.76
419.39	3063.76
419.58	2916.31
419.77	2965.46
419.96	3089.51
420.15	3056.74
420.34	3138.66
420.53	2937.37
420.72	3143.34
420.91	3105.89
421.10	3258.03
421.29	3232.28
421.48	3232.28
421.67	3222.92
421.86	3269.73
422.05	3300.16
422.24	3265.05
422.43	3393.78
422.61	3241.64
422.80	3335.26
422.99	3176.11
423.18	3290.79
423.37	3389.10
423.56	3290.79
423.75	3307.18
423.94	3262.71
424.13	3138.66
424.32	3171.43
424.50	3246.32
424.69	3351.65
424.88	3433.57
425.07	3358.67
425.26	3302.50
425.45	3379.73
425.64	3375.05
425.83	3407.82
426.01	3332.92
426.20	3396.12
426.39	3332.92
426.58	3391.44
426.77	3356.33
426.96	3442.93
427.15	3398.46
427.33	3613.79
427.52	3370.37
427.71	3503.78
427.90	3496.76
428.09	3529.53
428.28	3513.14
428.46	3630.17
428.65	3552.93
428.84	3691.02
429.03	3829.12
429.22	3562.30
429.40	3637.19
429.59	3695.71
429.78	3606.77
429.97	3471.01
430.16	3698.05
430.34	3726.13
430.53	3887.63
430.72	3672.30
430.91	3676.98
431.10	3817.41
431.28	3719.11
431.47	3906.35
431.66	3735.50
431.85	3831.46
432.03	3833.80
432.22	4072.53
432.41	3948.48
432.60	3948.48
432.79	3915.72
432.97	3971.89
433.16	3761.24
433.35	4072.53
433.54	4109.98
433.72	4124.02
433.91	4173.18
434.10	4046.79
434.28	4037.42
434.47	4189.56
434.66	4259.78
434.85	4201.26
435.03	4229.35
435.22	4182.54
435.41	4376.80
435.59	4383.82
435.78	4299.56
435.97	4283.18
436.16	4273.82
436.34	4243.39
436.53	4262.12
436.72	4407.23
436.90	4278.50
437.09	4374.46
437.28	4365.10
437.46	4393.19
437.65	4451.70
437.84	4496.17
438.02	4407.23
438.21	4498.51
438.40	4606.17
438.58	4638.94
438.77	4706.82
438.96	4652.98
439.14	4767.67
439.33	4737.24
439.52	4870.65
439.70	4786.40
439.89	4863.63
440.08	4884.70
440.26	4770.01
440.45	4821.50
440.63	4873.00
440.82	4861.29
441.01	4924.49
441.19	5104.71
441.38	5050.88
441.57	5046.20
441.75	4983.00
441.94	5203.01
442.12	5247.48
442.31	5184.29
442.50	5334.08
442.68	5186.63
442.87	5205.35
443.05	5380.89
443.24	5331.74
443.43	5261.52
443.61	5338.76
443.80	5518.98
443.98	5317.70
444.17	5085.98
444.35	5291.95
444.54	5427.70
444.73	5488.56
444.91	5392.59
445.10	5455.79
445.28	5408.98
445.47	5547.07
445.65	5556.43
445.84	5523.66
446.02	5647.71
446.21	5645.37
446.39	5352.81
446.58	5598.56
446.77	5661.76
446.95	5528.35
447.14	5474.51
447.32	5799.85
447.51	5579.84
447.69	5462.81
447.88	5565.79
448.06	5621.97
448.25	5699.20
448.43	5565.79
448.62	5671.12
448.80	5565.79
448.99	5729.63
449.17	5577.50
449.36	5661.76
449.54	5710.91
449.73	6031.56
449.91	6059.65
450.10	5818.57
450.28	6001.13
450.46	5909.85
450.65	5839.64
450.83	6038.58
451.02	6176.67
451.20	5930.92
451.39	5893.47
451.57	6010.50
451.76	6054.97
451.94	6043.26
452.13	6031.56
452.31	6150.93
452.49	6078.37
452.68	6164.97
452.86	6314.77
453.05	6286.68
453.23	6258.59
453.42	6106.46
453.60	5951.98
453.78	6342.85
453.97	6256.25
454.15	6125.18
454.34	6069.01
454.52	6382.64
454.70	6384.98
454.89	6277.32
455.07	6434.13
455.26	6480.94
455.44	6450.52
455.62	6406.05
455.81	6665.85
455.99	6616.69
456.17	6464.56
456.36	6593.29
456.54	6602.65
456.73	6539.46
456.91	6745.42
457.09	6839.05
457.28	6850.75
457.46	6888.20
457.64	6902.24
457.83	6761.81
458.01	6630.74
458.19	6916.28
458.38	6904.58
458.56	6932.67
458.74	6939.69
458.93	6834.36
459.11	6942.03
459.29	6918.62
459.48	7117.57
459.66	6930.33
459.84	7108.21
460.03	7185.44
460.21	7047.35
460.39	7089.48
460.57	7272.04
460.76	7236.94
460.94	7260.34
461.12	7173.74
461.31	7344.60
461.49	7314.17
461.67	7197.15
461.85	7398.43
462.04	7489.71
462.22	7723.77
462.40	7386.73
462.59	7403.11
462.77	7529.50
462.95	7590.36
463.13	7590.36
463.32	7559.93
463.50	7578.65
463.68	7456.95
463.86	7866.54
464.05	7623.12
464.23	7548.23
464.41	7758.88
464.59	7623.12
464.78	8021.02
464.96	7927.39
465.14	7515.46
465.32	7737.81
465.50	7859.52
465.69	7911.01
465.87	7887.61
466.05	7861.86
466.23	7962.50
466.41	7906.33
466.60	8032.72
466.78	7988.25
466.96	7808.03
467.14	8002.29
467.32	7887.61
467.51	8170.81
467.69	7903.99
467.87	8013.99
468.05	8126.34
468.23	7875.90
468.41	7999.95
468.60	8262.09
468.78	8201.24
468.96	8067.83
469.14	8360.39
469.32	8456.36
469.50	8269.11
469.69	8430.61
469.87	8407.20
470.05	8456.36
470.23	8575.72
470.41	8702.11
470.59	8580.40
470.77	8685.73
470.95	8414.23
471.14	8671.68
471.32	8526.57
471.50	8692.75
471.68	8706.79
471.86	8755.94
472.04	8877.65
472.22	9231.07
472.40	8753.60
472.58	8830.84
472.77	8879.99
472.95	9092.98
473.13	9254.48
473.31	8994.68
473.49	9109.36
473.67	9160.86
473.85	9219.37
474.03	9233.41
474.21	9329.38
474.39	9509.60
474.57	9378.53
474.75	9565.77
474.93	9678.12
475.12	9343.42
475.30	9535.34
475.48	9682.80
475.66	9841.95
475.84	9727.27
476.02	9778.76
476.20	9853.66
476.38	10026.86
476.56	10335.81
476.74	10293.68
476.92	10164.95
477.10	9944.94
477.28	10345.17
477.46	10464.54
477.64	10293.68
477.82	10558.16
478.00	10628.37
478.18	10771.15
478.36	10724.33
478.54	11169.04
478.72	10981.79
478.90	11267.34
479.08	11234.57
479.26	11253.30
479.44	11232.23
479.62	11492.03
479.80	11517.78
479.98	11468.62
480.16	11758.85
480.34	11726.08
480.52	11765.87
480.70	11843.11
480.88	11695.66
481.06	11754.17
481.24	12042.06
481.41	12418.88
481.59	12334.62
481.77	12610.81
481.95	12402.50
482.13	12538.25
482.31	12451.65
482.49	13130.41
482.67	12872.95
482.85	12842.52
483.03	13083.59
483.21	13153.81
483.39	13523.62
483.57	13446.38
483.74	13275.52
483.92	13458.08
484.10	13472.12
484.28	13930.87
484.46	13942.57
484.64	14317.06
484.82	13870.01
485.00	13982.36
485.18	14298.33
485.35	14693.88
485.53	14546.43
485.71	14703.25
485.89	14841.34
486.07	14820.27
486.25	14888.15
486.43	14703.25
486.61	15152.63
486.78	15150.29
486.96	15234.55
487.14	15756.49
487.32	15578.61
487.50	15822.02
487.68	15936.71
487.85	16130.97
488.03	16266.72
488.21	16280.77
488.39	16428.22
488.57	16407.16
488.75	16559.29
488.92	16854.20
489.10	16744.19
489.28	16814.41
489.46	17027.40
489.64	17212.30
489.81	17277.83
489.99	17350.39
490.17	17551.68
490.35	17802.11
490.53	17923.82
490.70	18038.51
490.88	18111.07
491.06	18394.27
491.24	18242.14
491.41	18279.58
491.59	18340.44
491.77	18497.25
491.95	18487.89
492.13	18874.08
492.30	18881.10
492.48	18974.72
492.66	19421.77
492.84	19239.20
493.01	19573.90
493.19	19452.19
493.37	19983.49
493.54	19623.05
493.72	19833.70
493.90	19880.51
494.08	20130.95
494.25	20004.56
494.43	19948.39
494.61	20528.84
494.79	20596.71
494.96	20531.18
495.14	20444.58
495.32	21085.89
495.49	21020.35
495.67	20926.73
495.85	21193.55
496.02	21432.29
496.20	21600.80
496.38	21467.39
496.55	21453.35
496.73	22169.55
496.91	21891.03
497.09	22015.08
497.26	22202.32
497.44	22260.84
497.62	22279.56
497.79	22635.32
497.97	22518.29
498.14	22750.01
498.32	22944.27
498.50	22721.92
498.67	22977.04
498.85	23147.90
499.03	23281.31
499.20	23204.07
499.38	23566.85
499.56	23470.89
499.73	23529.41
499.91	23845.38
500.08	23847.72
500.26	23756.44
500.44	23934.32
500.61	23854.74
500.79	23758.78
500.97	23850.06
501.14	24482.00
501.32	24603.71
501.49	24285.40
501.67	24322.85
501.84	24915.00
502.02	24512.43
502.20	24383.70
502.37	24797.98
502.55	24449.24
502.72	24999.26
502.90	25170.12
503.07	25139.69
503.25	25081.18
503.43	25223.95
503.60	25415.88
503.78	25612.48
503.95	25198.21
504.13	25926.11
504.30	25530.56
504.48	25783.34
504.65	25830.15
504.83	26040.80
505.01	26349.75
505.18	25862.92
505.36	26401.24
505.53	26441.03
505.71	26443.37
505.88	26487.84
506.06	26405.92
506.23	26321.66
506.41	26249.11
506.58	26689.13
506.76	26614.23
506.93	27026.17
507.11	26874.03
507.28	27019.14
507.46	27520.02
507.63	27358.52
507.81	27520.02
507.98	27126.81
508.16	27410.01
508.33	27377.25
508.50	27627.68
508.68	27693.22
508.85	28074.73
509.03	27997.49
509.20	27946.00
509.38	28329.84
509.55	28423.47
509.73	28318.14
509.90	28407.08
510.08	28283.03
510.25	28409.42
510.42	28847.10
510.60	28720.71
510.77	29036.69
510.95	29102.22
511.12	28844.76
511.30	29029.66
511.47	29235.63
511.64	28968.81
511.82	29544.58
511.99	29383.09
512.17	29371.38
512.34	29301.17
512.51	29832.47
512.69	29685.01
512.86	29685.01
513.04	29804.38
513.21	30026.73
513.38	30146.10
513.56	30375.47
513.73	30157.80
513.90	30073.54
514.08	29750.55
514.25	30284.19
514.43	30153.12
514.60	30668.04
514.77	30455.05
514.95	30529.95
515.12	30527.61
515.29	30389.52
515.47	31089.34
515.64	30759.32
515.81	31049.55
515.99	31105.72
516.16	31407.65
516.33	31035.50
516.51	31187.64
516.68	31213.38
516.85	30984.01
517.03	31435.74
517.20	31536.38
517.37	31505.95
517.54	31555.10
517.72	31779.79
517.89	31693.19
518.06	31924.91
518.24	31850.01
518.41	31515.31
518.58	31772.77
518.75	31779.79
518.93	32381.31
519.10	32123.85
519.27	31974.06
519.45	32683.24
519.62	32189.39
519.79	32453.87
519.96	32823.67
520.14	32608.34
520.31	32477.27
520.48	32584.94
520.65	32898.57
520.83	33219.22
521.00	32891.55
521.17	32877.51
521.34	33287.10
521.52	33095.18
521.69	33043.68
521.86	33708.40
522.03	33706.05
522.20	33743.50
522.38	34272.46
522.55	33539.88
522.72	33743.50
522.89	34040.75
523.07	34487.79
523.24	33830.10
523.41	34298.21
523.58	33865.21
523.75	33991.60
523.92	34141.39
524.10	33869.89
524.27	34466.73
524.44	34410.56
524.61	34663.33
524.78	34567.37
524.96	34845.90
525.13	34307.57
525.30	34684.40
525.47	34642.27
525.64	34618.86
525.81	35009.73
525.98	35290.60
526.16	35152.51
526.33	34897.39
526.50	35218.04
526.67	35512.95
526.84	35269.53
527.01	35194.64
527.18	35566.78
527.36	35386.56
527.53	35484.86
527.70	35672.10
527.87	35725.94
528.04	35854.67
528.21	35754.02
528.38	35667.42
528.55	36023.19
528.72	35896.80
528.89	36037.23
529.07	35803.17
529.24	35693.17
529.41	35782.11
529.58	36346.18
529.75	36222.13
529.92	36151.91
530.09	36093.40
530.26	36278.30
530.43	36587.25
530.60	36329.80
530.77	36369.58
530.94	36655.13
531.11	36566.19
531.28	36432.78
531.46	36360.22
531.63	37099.83
531.80	37027.28
531.97	36694.92
532.14	37404.10
532.31	37043.66
532.48	36975.78
532.65	37275.37
532.82	37113.87
532.99	37031.96
533.16	37008.55
533.33	37397.08
533.50	37902.64
533.67	37310.48
533.84	37366.65
534.01	37413.46
534.18	37071.75
534.35	37757.52
534.52	38075.84
534.69	38234.99
534.86	37883.91
535.03	37823.06
535.20	37715.39
535.37	38352.02
535.54	38244.35
535.71	38096.90
535.88	38560.33
536.05	38059.45
536.22	38052.43
536.38	38466.70
536.55	38206.90
536.72	38410.53
536.89	38513.52
537.06	38143.71
537.23	38920.77
537.40	38445.64
537.57	38368.40
537.74	38623.52
537.91	38745.23
538.08	38473.73
538.25	38632.88
538.42	38649.27
538.59	38948.85
538.75	38789.70
538.92	38817.78
539.09	39012.05
539.26	39393.56
539.43	39196.95
539.60	39218.02
539.77	39110.35
539.94	39459.09
540.11	38630.54
540.28	39395.90
540.44	39772.72
540.61	39496.54
540.78	38923.11
540.95	39239.08
541.12	39461.43
541.29	39344.41
541.46	39402.92
541.62	39732.93
541.79	40011.46
541.96	39604.20
542.13	39636.97
542.30	39742.30
542.47	39875.71
542.63	39594.84
542.80	40133.17
542.97	40299.34
543.14	40664.47
543.31	40217.43
543.48	40217.43
543.64	40722.98
543.81	40423.39
543.98	40236.15
544.15	40547.44
544.32	40325.09
544.48	41174.70
544.65	40987.46
544.82	40903.20
544.99	40664.47
545.16	40910.22
545.32	41130.23
545.49	41235.56
545.66	41202.79
545.83	40811.92
546.00	40938.31
546.16	41006.19
546.33	41167.68
546.50	41008.53
546.67	41546.85
546.83	40807.24
547.00	41053.00
547.17	41085.76
547.34	41303.43
547.50	41415.78
547.67	41703.67
547.84	41165.34
548.00	41729.41
548.17	41860.48
548.34	41689.62
548.51	41942.40
548.67	41958.78
548.84	41565.57
549.01	41949.42
549.18	41698.98
549.34	42054.75
549.51	41759.84
549.68	42120.28
549.84	42050.06
550.01	41855.80
550.18	41516.42
550.34	42169.43
550.51	42071.13
550.68	41975.17
550.84	41862.82
551.01	42492.43
551.18	42244.33
551.34	42487.74
551.51	42515.83
551.68	42532.22
551.84	42384.76
552.01	42251.35
552.18	42419.87
552.34	42209.22
552.51	42291.14
552.68	42377.74
552.84	42438.59
553.01	42733.50
553.18	42462.00
553.34	42726.48
553.51	42227.95
553.67	42651.58
553.84	42532.22
554.01	42487.74
554.17	42660.94
554.34	42904.36
554.51	43047.13
554.67	43072.88
554.84	43166.50
555.00	42972.24
555.17	43260.12
555.33	42969.90
555.50	42958.19
555.67	42916.06
555.83	43548.01
556.00	43311.61
556.16	43531.62
556.33	43557.37
556.50	43311.61
556.66	43278.85
556.83	42869.25
556.99	43917.81
557.16	43761.00
557.32	43791.42
557.49	43536.30
557.65	43328.00
557.82	43543.33
557.98	43583.12
558.15	43496.52
558.32	43620.56
558.48	43679.08
558.65	43971.64
558.81	43728.23
558.98	43377.15
559.14	43700.14
559.31	43985.69
559.47	43981.01
559.64	43482.47
559.80	43524.60
559.97	43988.03
560.13	43793.76
560.30	43887.39
560.46	44737.00
560.63	44168.25
560.79	43995.05
560.96	44243.15
561.12	43952.92
561.29	44257.19
561.45	44154.21
561.61	44147.18
561.78	43573.75
561.94	44247.83
562.11	44051.22
562.27	44238.47
562.44	43955.26
562.60	44587.21
562.77	43807.81
562.93	44257.19
563.10	44678.49
563.26	43971.64
563.42	44921.90
563.59	44519.33
563.75	44414.01
563.92	43959.94
564.08	44404.64
564.24	44732.32
564.41	44559.12
564.57	44439.75
564.74	44552.10
564.90	44516.99
565.07	44313.36
565.23	44680.83
565.39	44804.88
565.56	44388.26
565.72	44666.78
565.88	45153.62
566.05	44823.60
566.21	44582.52
566.38	44921.90
566.54	44655.08
566.70	44615.29
566.87	44561.46
567.03	44374.22
567.19	45045.95
567.36	44830.62
567.52	44851.69
567.68	44886.79
567.85	45132.55
568.01	44732.32
568.17	44706.57
568.34	44821.26
568.50	44966.37
568.66	44795.51
568.83	44921.90
568.99	44648.06
569.15	44957.01
569.32	45003.82
569.48	44917.22
569.64	45390.01
569.81	45141.91
569.97	45640.45
570.13	45106.80
570.30	44678.49
570.46	45153.62
570.62	45041.27
570.78	44973.39
570.95	45067.02
571.11	45404.05
571.27	45322.13
571.43	44821.26
571.60	45193.40
571.76	45317.45
571.92	45027.23
572.09	45263.62
572.25	45081.06
572.41	45081.06
572.57	45382.99
572.74	45457.88
572.90	44985.10
573.06	45158.30
573.22	45177.02
573.38	45773.86
573.55	45291.71
573.71	45588.95
573.87	45207.45
574.03	45069.36
574.20	45404.05
574.36	45202.77
574.52	45537.46
574.68	45200.43
574.84	45521.08
575.01	45668.53
575.17	45476.61
575.33	45179.36
575.49	45336.18
575.65	45752.79
575.82	45661.51
575.98	45184.04
576.14	45947.06
576.30	45958.76
576.46	45588.95
576.62	45532.78
576.79	45088.08
576.95	44748.70
577.11	45542.14
577.27	45345.54
577.43	45235.53
577.59	45490.65
577.75	45247.24
577.92	45303.41
578.08	45612.36
578.24	45474.27
578.40	45453.20
578.56	45933.01
578.72	45673.21
578.88	45427.46
579.04	45790.24
579.21	45495.33
579.37	45457.88
579.53	45303.41
579.69	45319.79
579.85	45298.73
580.01	45263.62
580.17	45354.90
580.33	45743.43
580.49	45792.58
580.65	45811.31
580.82	45904.93
580.98	45556.19
581.14	45427.46
581.30	45633.42
581.46	45818.33
581.62	45624.06
581.78	45492.99
581.94	45696.62
582.10	45935.35
582.26	45680.24
582.42	45815.99
582.58	45553.85
582.74	46036.00
582.90	45729.39
583.06	45944.72
583.22	45565.55
583.38	45532.78
583.54	46019.61
583.70	45874.50
583.86	46146.00
584.02	45729.39
584.18	45963.44
584.34	45872.16
584.50	46298.14
584.66	46148.34
584.82	46064.08
584.98	46043.02
585.14	45879.18
585.30	45858.12
585.46	45993.87
585.62	45834.71
585.78	45464.91
585.94	45668.53
586.10	45862.80
586.26	45991.53
586.42	45329.16
586.58	46204.52
586.74	45808.96
586.90	45666.19
587.06	46326.22
587.22	46141.32
587.38	45521.08
587.54	45949.40
587.70	46068.76
587.86	45991.53
588.02	45893.22
588.18	45787.90
588.34	46103.87
588.49	45799.60
588.65	45649.81
588.81	45947.06
588.97	46136.64
589.13	45595.98
589.29	45918.97
589.45	46232.60
589.61	46344.95
589.77	46127.28
589.93	46057.06
590.08	46380.06
590.24	46518.15
590.40	46445.59
590.56	46129.62
590.72	46120.26
590.88	46038.34
591.04	46246.65
591.20	46532.19
591.35	46096.85
591.51	46773.27
591.67	46674.96
591.83	46733.48
591.99	46061.74
592.15	46438.57
592.31	45851.09
592.46	46270.05
592.62	45837.05
592.78	46536.87
592.94	46543.89
593.10	46536.87
593.26	46784.97
593.41	46660.92
593.57	46567.30
593.73	46787.31
593.89	46923.06
594.05	47051.79
594.20	46850.50
594.36	46454.95
594.52	46834.12
594.68	46314.52
594.84	46129.62
594.99	46611.77
595.15	46424.53
595.31	46600.07
595.47	46499.42
595.62	46759.22
595.78	46525.17
595.94	46532.19
596.10	46567.30
596.25	46536.87
596.41	46658.58
596.57	46403.46
596.73	46637.51
596.88	46838.80
597.04	46588.36
597.20	46698.37
597.36	46387.08
597.51	46504.10
597.67	46431.55
597.83	46520.49
597.99	46770.93
598.14	46284.09
598.30	46653.90
598.46	46520.49
598.61	46925.40
598.77	46698.37
598.93	47098.60
599.09	46642.20
599.24	46869.23
599.40	46866.89
599.56	46576.66
599.71	46951.15
599.87	47086.90
600.03	47145.41
600.18	46883.27
600.34	46909.02
600.50	46679.64
600.65	46485.38
600.81	47122.01
600.97	46864.55
601.12	47002.64
601.28	46504.10
601.44	46539.21
601.59	46843.48
601.75	46541.55
601.91	47033.07
602.06	47203.92
602.22	47063.49
602.37	46803.69
602.53	46679.64
602.69	47042.43
602.84	46405.80
603.00	46579.00
603.16	47220.31
603.31	47154.77
603.47	46927.74
603.62	46492.40
603.78	47185.20
603.94	46925.40
604.09	47243.71
604.25	46663.26
604.40	46417.50
604.56	46560.28
604.71	46780.29
604.87	46777.95
605.03	46438.57
605.18	46541.55
605.34	46986.25
605.49	46698.37
605.65	46543.89
605.80	46803.69
605.96	46602.41
606.12	46691.35
606.27	46794.33
606.43	46314.52
606.58	47065.83
606.74	46525.17
606.89	46681.98
607.05	46644.54
607.20	46642.20
607.36	46518.15
607.51	46623.47
607.67	46302.82
607.82	46405.80
607.98	46153.02
608.13	46632.83
608.29	46307.50
608.44	46677.30
608.60	46855.18
608.75	46373.03
608.91	46487.72
609.06	46216.22
609.22	46525.17
609.37	46316.86
609.53	45984.51
609.68	46890.29
609.84	46469.00
609.99	46241.96
610.15	46693.69
610.30	46700.71
610.46	46237.28
610.61	46534.53
610.76	46618.79
610.92	45902.59
611.07	46466.66
611.23	46272.39
611.38	46288.77
611.54	46787.31
611.69	46899.65
611.84	46265.37
612.00	46068.76
612.15	46057.06
612.31	45958.76
612.46	46012.59
612.62	46204.52
612.77	45982.16
612.92	46487.72
613.08	46518.15
613.23	46160.05
613.39	46138.98
613.54	46061.74
613.69	46117.92
613.85	46134.30
614.00	46162.39
614.15	46483.04
614.31	46045.36
614.46	46223.24
614.62	46167.07
614.77	46380.06
614.92	45921.31
615.08	45975.14
615.23	46096.85
615.38	46419.84
615.54	46412.82
615.69	45813.65
615.84	45844.07
616.00	45935.35
616.15	45626.40
616.30	46267.71
616.46	46150.68
616.61	45514.06
616.76	46021.95
616.92	46000.89
617.07	45701.30
617.22	45734.07
617.37	45713.00
617.53	45830.03
617.68	45876.84
617.83	45457.88
617.99	45996.21
618.14	45656.83
618.29	45670.87
618.45	45579.59
618.60	45485.97
618.75	45181.70
618.90	45375.97
619.06	45088.08
619.21	45734.07
619.36	45301.07
619.51	45338.52
619.67	45329.16
619.82	45560.87
619.97	45567.89
620.12	45565.55
620.28	45235.53
620.43	45361.92
620.58	45588.95
620.73	45399.37
620.89	45649.81
621.04	45518.74
621.19	44804.88
621.34	45254.26
621.49	45146.59
621.65	45127.87
621.80	45303.41
621.95	45024.89
622.10	45254.26
622.25	45251.92
622.41	45052.97
622.56	45151.27
622.71	44804.88
622.86	44900.84
623.01	44987.44
623.16	44830.62
623.32	44804.88
623.47	45038.93
623.62	45240.21
623.77	44765.09
623.92	45123.19
624.07	44975.73
624.23	45563.21
624.38	44973.39
624.53	44818.92
624.68	44598.91
624.83	45127.87
624.98	44872.75
625.13	44383.58
625.29	44177.61
625.44	44652.74
625.59	44617.63
625.74	44765.09
625.89	44694.87
626.04	44287.62
626.19	44460.82
626.34	44201.02
626.49	44348.47
626.65	43941.22
626.80	44753.38
626.95	44257.19
627.10	44327.41
627.25	44659.76
627.40	44601.25
627.55	44320.38
627.70	44177.61
627.85	44479.54
628.00	44545.08
628.15	43945.90
628.30	43927.17
628.45	43606.52
628.60	43562.05
628.76	43920.15
628.91	44074.63
629.06	43791.42
629.21	43880.36
629.36	43746.95
629.51	43868.66
629.66	44140.16
629.81	44383.58
629.96	43838.23
630.11	43913.13
630.26	43545.67
630.41	43812.49
630.56	43543.33
630.71	43957.60
630.86	43784.40
631.01	43428.64
631.16	43728.23
631.31	43384.17
631.46	43604.18
631.61	44289.96
631.76	43875.68
631.91	43775.04
632.06	44123.78
632.21	43650.99
632.36	44542.74
632.51	43349.06
632.66	43751.63
632.81	43548.01
632.96	43569.07
633.10	43461.41
633.25	43320.98
633.40	43466.09
633.55	43606.52
633.70	43650.99
633.85	43206.29
634.00	42983.94
634.15	42845.85
634.30	43344.38
634.45	42892.66
634.60	43154.80
634.75	43260.12
634.90	43030.75
635.05	43255.44
635.19	43180.54
635.34	42850.53
635.49	43201.61
635.64	43229.69
635.79	43267.14
635.94	43061.18
636.09	43136.07
636.24	42824.78
636.39	43217.99
636.53	42806.06
636.68	42614.13
636.83	42745.20
636.98	42574.34
637.13	42490.09
637.28	42450.30
637.43	42560.30
637.57	42391.78
637.72	42387.10
637.87	42574.34
638.02	42543.92
638.17	42408.17
638.32	42422.21
638.46	42354.33
638.61	42602.43
638.76	42068.79
638.91	42672.65
639.06	42501.79
639.20	42157.73
639.35	42263.05
639.50	41977.51
639.65	42401.14
639.80	42057.09
639.94	42749.88
640.09	42602.43
640.24	42225.60
640.39	42054.75
640.54	42209.22
640.68	42150.71
640.83	42581.37
640.98	42169.43
641.13	42110.92
641.27	42433.91
641.42	42045.38
641.57	41811.33
641.72	42010.28
641.86	41949.42
642.01	41596.00
642.16	41738.77
642.31	41247.26
642.45	42274.76
642.60	41572.60
642.75	41731.75
642.90	41940.06
643.04	42026.66
643.19	41710.69
643.34	41324.50
643.48	41806.65
643.63	41827.71
643.78	41490.68
643.93	41750.48
644.07	41846.44
644.22	41886.23
644.37	41581.96
644.51	42021.98
644.66	41888.57
644.81	41361.95
644.95	41778.56
645.10	41790.27
645.25	41165.34
645.39	41055.34
645.54	41617.07
645.69	41277.69
645.83	40751.07
645.98	41020.23
646.13	40896.18
646.27	40896.18
646.42	41193.43
646.57	41301.09
646.71	41041.29
646.86	41053.00
647.00	41336.20
647.15	41184.07
647.30	40905.54
647.44	41109.17
647.59	41106.83
647.74	41205.13
647.88	41118.53
648.03	40842.35
648.17	41567.91
648.32	40882.14
648.47	41109.17
648.61	41006.19
648.76	40638.72
648.90	40587.23
649.05	40987.46
649.20	40786.18
649.34	40458.50
649.49	41153.64
649.63	41099.81
649.78	40631.70
649.92	40760.43
650.07	41481.31
650.21	41106.83
650.36	40914.90
650.51	40388.28
650.65	40769.79
650.80	40692.55
650.94	40673.83
651.09	40884.48
651.23	40051.25
651.38	40381.26
651.52	39901.45
651.67	40306.37
651.81	40790.86
651.96	40343.81
652.10	40233.81
652.25	40287.64
652.39	40107.42
652.54	40566.16
652.68	40182.32
652.83	40280.62
652.97	40112.10
653.12	40095.72
653.26	40027.84
653.41	39966.99
653.55	40140.19
653.70	40491.27
653.84	40334.45
653.99	40133.17
654.13	40217.43
654.27	39992.73
654.42	40306.37
654.56	39810.17
654.71	39871.03
654.85	39964.65
655.00	40051.25
655.14	40175.30
655.29	40596.59
655.43	39955.29
655.57	39793.79
655.72	39192.27
655.86	39908.47
656.01	39679.10
656.15	39487.18
656.30	39318.66
656.44	39566.76
656.58	39512.92
656.73	39821.87
656.87	39550.37
657.01	39166.52
657.16	39061.20
657.30	39328.02
657.45	39246.10
657.59	39005.03
657.73	39007.37
657.88	39679.10
658.02	39543.35
658.16	39646.33
658.31	39473.13
658.45	39164.18
658.60	39091.63
658.74	39281.21
658.88	39201.63
659.03	39374.83
659.17	38539.26
659.31	38691.40
659.46	38616.50
659.60	38625.86
659.74	38948.85
659.89	38110.94
660.03	38216.27
660.17	39033.11
660.32	38356.70
660.46	38403.51
660.60	38506.49
660.74	38609.48
660.89	38497.13
661.03	38644.59
661.17	37865.19
661.32	38298.19
661.46	38466.70
661.60	38078.18
661.74	38398.83
661.89	38178.82
662.03	38120.31
662.17	37710.71
662.31	37717.73
662.46	38164.78
662.60	38164.78
662.74	37514.11
662.88	37462.61
663.03	37411.12
663.17	37567.94
663.31	37258.99
663.45	37516.45
663.60	37617.09
663.74	37570.28
663.88	37605.39
664.02	36989.83
664.17	37619.43
664.31	36706.62
664.45	36837.69
664.59	37022.59
664.73	36783.86
664.88	37050.68
665.02	36694.92
665.16	37038.98
665.30	37240.26
665.44	36964.08
665.59	36753.43
665.73	36474.91
665.87	36290.01
666.01	36528.74
666.15	36158.94
666.29	36016.16
666.44	36608.32
666.58	36500.65
666.72	36320.43
666.86	36084.04
667.00	36341.50
667.14	36287.67
667.28	36280.64
667.43	36058.29
667.57	36498.31
667.71	35885.09
667.85	36266.60
667.99	36086.38
668.13	36023.19
668.27	35288.26
668.41	35344.43
668.56	35552.74
668.70	35339.75
668.84	35262.51
668.98	35398.26
669.12	35164.21
669.26	35339.75
669.40	35505.93
669.54	35454.44
669.68	35433.37
669.82	35007.39
669.96	35112.72
670.10	34572.05
670.25	34820.15
670.39	34569.71
670.53	34684.40
670.67	34852.92
670.81	34923.13
670.95	34368.43
671.09	34536.94
671.23	34752.27
671.37	34635.25
671.51	34302.89
671.65	34506.52
671.79	34022.03
671.93	34218.63
672.07	33977.56
672.21	34052.45
672.35	34045.43
672.49	33628.82
672.63	34071.18
672.77	34000.96
672.91	33486.04
673.05	33883.94
673.19	33322.21
673.33	33567.96
673.47	32994.53
673.61	33455.62
673.75	32952.40
673.89	33289.44
674.03	32725.37
674.17	32716.01
674.31	32884.53
674.45	32542.81
674.59	32617.71
674.73	32456.21
674.87	32423.44
675.01	32133.21
675.15	31786.82
675.29	31681.49
675.43	32547.49
675.56	32402.38
675.70	31725.96
675.84	32070.02
675.98	31026.14
676.12	32067.68
676.26	31931.93
676.40	31697.88
676.54	31421.69
676.68	31426.37
676.82	30897.41
676.96	31068.27
677.10	31608.93
677.23	31079.97
677.37	31182.96
677.51	31042.53
677.65	31192.32
677.79	30628.25
677.93	30728.89
678.07	30515.90
678.21	30560.37
678.34	29867.58
678.48	30319.30
678.62	30080.56
678.76	30232.70
678.90	30015.03
679.04	30265.47
679.18	30157.80
679.31	30033.75
679.45	29638.20
679.59	29469.69
679.73	29713.10
679.87	29523.52
680.00	29205.20
680.14	29350.32
680.28	29006.26
680.42	28931.36
680.56	28816.68
680.70	28751.14
680.83	28690.29
680.97	28699.65
681.11	29034.35
681.25	28437.51
681.39	28208.14
681.52	28657.52
681.66	28327.50
681.80	27765.78
681.94	27571.51
682.07	27779.82
682.21	27660.45
682.35	27590.24
682.49	27498.95
682.62	27470.87
682.76	27674.49
682.90	27370.22
683.04	27248.52
683.17	27527.04
683.31	26946.59
683.45	26878.71
683.59	26871.69
683.72	26588.49
683.86	26506.57
684.00	26773.39
684.13	26267.83
684.27	26335.71
684.41	26443.37
684.55	26167.19
684.68	26033.78
684.82	26263.15
684.96	25853.56
685.09	25827.81
685.23	25947.18
685.37	26103.99
685.50	25773.98
685.64	25523.54
685.78	25511.84
685.91	25476.73
686.05	24830.74
686.19	24547.54
686.32	24629.46
686.46	24507.75
686.60	24648.18
686.73	24659.88
686.87	24526.47
687.01	24779.25
687.14	24664.57
687.28	24369.66
687.42	24308.80
687.55	24182.42
687.69	24257.31
687.82	23838.36
687.96	23751.76
688.10	24013.90
688.23	23857.08
688.37	23967.09
688.50	23737.71
688.64	23639.41
688.78	23545.79
688.91	23264.92
689.05	23431.10
689.18	23110.45
689.32	22974.70
689.46	22471.48
689.59	22719.58
689.73	23065.98
689.86	22918.53
690.00	22867.03
690.13	22977.04
690.27	22242.11
690.41	22363.82
690.54	22480.85
690.68	22183.60
690.81	22068.91
690.95	22127.42
691.08	21933.16
691.22	21685.06
691.35	21886.35
691.49	22190.62
691.62	21509.52
691.76	21099.93
691.89	21074.18
692.03	21048.44
692.16	20910.35
692.30	21085.89
692.43	21160.78
692.57	20912.69
692.70	20833.11
692.84	20423.51
692.97	20407.13
693.11	20680.97
693.24	20556.93
693.38	20072.43
693.51	20208.19
693.65	20119.24
693.78	19747.10
693.92	19999.88
694.05	19929.66
694.19	19573.90
694.32	19658.16
694.45	20231.59
694.59	19943.70
694.72	19871.15
694.86	19896.89
694.99	19452.19
695.13	19243.88
695.26	19007.49
695.39	18944.30
695.53	18780.46
695.66	19087.07
695.80	18888.12
695.93	18967.70
696.07	18661.09
696.20	18375.55
696.33	18185.96
696.47	18167.24
696.60	18335.76
696.73	18338.10
696.87	18277.24
697.00	18258.52
697.14	17830.20
697.27	17771.69
697.40	17778.71
697.54	17743.60
697.67	17729.56
697.80	17392.52
697.94	17734.24
698.07	17341.03
698.21	17392.52
698.34	17528.27
698.47	17359.75
698.61	16753.55
698.74	16830.79
698.87	16816.75
699.01	16655.25
699.14	16847.18
699.27	16601.42
699.40	16690.36
699.54	16610.78
699.67	16617.80
699.80	16353.32
699.94	16491.41
700.07	16430.56
700.20	16137.99
700.34	16210.55
700.47	16126.29
700.60	16255.02
700.73	16283.11
700.87	15798.62
701.00	15864.15
701.13	15520.09
701.26	15555.20
701.40	15737.76
701.53	15538.82
701.66	15311.78
701.79	15396.04
701.93	15105.82
702.06	14986.45
702.19	15005.17
702.32	15222.84
702.46	15204.12
702.59	15157.31
702.72	14988.79
702.85	15077.73
702.99	14661.12
703.12	14712.61
703.25	14335.78
703.38	14284.29
703.51	14244.50
703.65	14333.44
703.78	14303.01
703.91	13963.64
704.04	14150.88
704.17	13968.32
704.31	13942.57
704.44	13745.97
704.57	13652.34
704.70	13813.84
704.83	13657.03
704.96	13554.04
705.10	13596.17
705.23	13563.40
>>>>>End Processed Spectral Data<<<<<
