SpectraSuite Data File
++++++++++++++++++++++++++++++++++++
Date: Fri Oct 25 11:33:33 EDT 2013
User: price-jones
Dark Spectrum Present: No
Reference Spectrum Present: No
Number of Sampled Component Spectra: 1
Spectrometers: USB2+H05261
Integration Time (usec): 100000 (USB2+H05261)
Spectra Averaged: 1 (USB2+H05261)
Boxcar Smoothing: 0 (USB2+H05261)
Correct for Electrical Dark: No (USB2+H05261)
Strobe/Lamp Enabled: No (USB2+H05261)
Correct for Detector Non-linearity: No (USB2+H05261)
Correct for Stray Light: No (USB2+H05261)
Number of Pixels in Processed Spectrum: 2048
>>>>>Begin Processed Spectral Data<<<<<
365.73	220.01
365.92	220.01
366.12	220.01
366.32	229.37
366.52	154.48
366.72	217.67
366.91	189.58
367.11	128.73
367.31	208.31
367.51	189.58
367.70	201.29
367.90	276.18
368.10	161.50
368.30	140.43
368.49	184.90
368.69	194.26
368.89	194.26
369.09	196.60
369.28	266.82
369.48	229.37
369.68	273.84
369.87	243.42
370.07	269.16
370.27	283.20
370.47	292.57
370.66	381.51
370.86	505.56
371.06	526.62
371.25	638.97
371.45	557.05
371.65	521.94
371.84	545.34
372.04	500.87
372.24	564.07
372.44	575.77
372.63	592.16
372.83	587.47
373.03	674.07
373.22	620.24
373.42	622.58
373.62	566.41
373.81	596.84
374.01	606.20
374.21	650.67
374.40	688.12
374.60	617.90
374.79	653.01
374.99	613.22
375.19	718.54
375.38	699.82
375.58	643.65
375.78	676.41
375.97	608.54
376.17	725.57
376.37	695.14
376.56	741.95
376.76	697.48
376.95	678.76
377.15	650.67
377.35	744.29
377.54	711.52
377.74	655.35
377.93	671.73
378.13	716.20
378.33	608.54
378.52	737.27
378.72	744.29
378.91	704.50
379.11	678.76
379.31	713.86
379.50	727.91
379.70	734.93
379.89	716.20
380.09	755.99
380.28	779.40
380.48	781.74
380.68	688.12
380.87	669.39
381.07	739.61
381.26	723.23
381.46	772.38
381.65	814.51
381.85	723.23
382.04	802.80
382.24	786.42
382.43	732.59
382.63	732.59
382.83	704.50
383.02	784.08
383.22	784.08
383.41	800.46
383.61	833.23
383.80	875.36
384.00	779.40
384.19	833.23
384.39	830.89
384.58	812.17
384.78	816.85
384.97	793.44
385.17	844.93
385.36	887.06
385.56	826.21
385.75	786.42
385.95	903.45
386.14	837.91
386.34	798.12
386.53	791.10
386.72	858.98
386.92	905.79
387.11	877.70
387.31	938.55
387.50	833.23
387.70	849.61
387.89	910.47
388.09	840.25
388.28	849.61
388.48	901.11
388.67	908.13
388.86	994.73
389.06	926.85
389.25	983.02
389.45	1006.43
389.64	929.19
389.84	1015.79
390.03	945.58
390.22	908.13
390.42	957.28
390.61	1050.90
390.81	978.34
391.00	929.19
391.19	945.58
391.39	964.30
391.58	971.32
391.78	926.85
391.97	987.71
392.16	1055.58
392.36	1116.44
392.55	1050.90
392.75	1179.63
392.94	1118.78
393.13	1039.20
393.33	1057.92
393.52	1060.26
393.71	1170.27
393.91	1104.73
394.10	1104.73
394.29	1095.37
394.49	1107.07
394.68	1160.91
394.88	1078.99
395.07	1071.97
395.26	1214.74
395.46	1114.10
395.65	1193.67
395.84	1123.46
396.04	1203.04
396.23	1226.44
396.42	1217.08
396.62	1191.33
396.81	1186.65
397.00	1158.57
397.19	1214.74
397.39	1153.88
397.58	1249.85
397.77	1181.97
397.97	1217.08
398.16	1240.48
398.35	1280.27
398.55	1299.00
398.74	1212.40
398.93	1242.82
399.12	1303.68
399.32	1238.14
399.51	1327.08
399.70	1413.68
399.90	1343.47
400.09	1350.49
400.28	1418.36
400.47	1362.19
400.67	1401.98
400.86	1355.17
401.05	1359.85
401.24	1509.65
401.44	1350.49
401.63	1383.26
401.82	1448.79
402.01	1413.68
402.21	1519.01
402.40	1488.58
402.59	1502.62
402.78	1511.99
402.97	1528.37
403.17	1537.73
403.36	1589.22
403.55	1486.24
403.74	1582.20
403.93	1598.59
404.13	1732.00
404.32	1563.48
404.51	1664.12
404.70	1650.08
404.89	1692.21
405.09	1666.46
405.28	1636.03
405.47	1652.42
405.66	1659.44
405.85	1809.23
406.05	1661.78
406.24	1661.78
406.43	1732.00
406.62	1799.87
406.81	1933.28
407.00	1739.02
407.20	1750.72
407.39	1811.57
407.58	1863.07
407.77	1851.36
407.96	1898.17
408.15	1954.35
408.34	1907.54
408.54	1849.02
408.73	1966.05
408.92	1884.13
409.11	1952.01
409.30	1998.82
409.49	1935.62
409.68	2015.20
409.87	1998.82
410.07	2017.54
410.26	2038.61
410.45	1909.88
410.64	2054.99
410.83	2134.57
411.02	2087.76
411.21	2160.31
411.40	2186.06
411.59	2186.06
411.78	2204.78
411.98	2258.62
412.17	2293.72
412.36	2235.21
412.55	2223.51
412.74	2328.83
412.93	2382.67
413.12	2410.75
413.31	2459.90
413.50	2401.39
413.69	2354.58
413.88	2466.92
414.07	2417.77
414.26	2504.37
414.45	2602.68
414.64	2483.31
414.83	2509.05
415.02	2595.65
415.22	2597.99
415.41	2686.94
415.60	2679.91
415.79	2712.68
415.98	2794.60
416.17	2722.04
416.36	2722.04
416.55	2740.77
416.74	2855.45
416.93	2857.79
417.12	2827.37
417.31	2740.77
417.50	2775.88
417.69	3035.67
417.88	2967.80
418.07	2932.69
418.26	2970.14
418.45	2979.50
418.64	3110.57
418.83	3016.95
419.02	2862.48
419.21	3087.17
419.39	3038.02
419.58	3077.80
419.77	3066.10
419.96	3180.79
420.15	3192.49
420.34	3108.23
420.53	3176.11
420.72	3180.79
420.91	3183.13
421.10	3339.94
421.29	3389.10
421.48	3232.28
421.67	3194.83
421.86	3318.88
422.05	3279.09
422.24	3335.26
422.43	3335.26
422.61	3316.54
422.80	3384.41
422.99	3370.37
423.18	3393.78
423.37	3471.01
423.56	3459.31
423.75	3339.94
423.94	3225.26
424.13	3171.43
424.32	3185.47
424.50	3368.03
424.69	3644.21
424.88	3571.66
425.07	3243.98
425.26	3400.80
425.45	3370.37
425.64	3424.20
425.83	3314.20
426.01	3485.06
426.20	3445.27
426.39	3414.84
426.58	3349.31
426.77	3426.54
426.96	3524.85
427.15	3496.76
427.33	3529.53
427.52	3588.04
427.71	3506.12
427.90	3637.19
428.09	3693.37
428.28	3784.65
428.46	3632.51
428.65	3625.49
428.84	3726.13
429.03	3742.52
429.22	3754.22
429.40	3786.99
429.59	3695.71
429.78	3702.73
429.97	3574.00
430.16	3735.50
430.34	3740.18
430.53	3765.92
430.72	3922.74
430.91	3826.78
431.10	3824.44
431.28	3943.80
431.47	3864.22
431.66	3985.93
431.85	3932.10
432.03	4039.76
432.22	4124.02
432.41	4102.96
432.60	3915.72
432.79	4002.32
432.97	3899.33
433.16	4035.08
433.35	4037.42
433.54	4163.81
433.72	4191.90
433.91	4060.83
434.10	4007.00
434.28	4128.70
434.47	4294.88
434.66	4344.03
434.85	4280.84
435.03	4456.38
435.22	4135.73
435.41	4456.38
435.59	4327.65
435.78	4442.34
435.97	4531.28
436.16	4381.48
436.34	4386.16
436.53	4510.21
436.72	4575.75
436.90	4344.03
437.09	4575.75
437.28	4482.13
437.46	4571.07
437.65	4657.67
437.84	4744.27
438.02	4582.77
438.21	4603.83
438.40	4652.98
438.58	4896.40
438.77	4702.14
438.96	4819.16
439.14	4828.53
439.33	4887.04
439.52	4922.15
439.70	5001.72
439.89	4858.95
440.08	5116.41
440.26	5043.85
440.45	4990.02
440.63	5076.62
440.82	5146.84
441.01	5013.43
441.19	5238.12
441.38	5228.76
441.57	5214.71
441.75	5275.57
441.94	5476.85
442.12	5399.62
442.31	5544.73
442.50	5607.92
442.68	5357.49
442.87	5413.66
443.05	5399.62
443.24	5619.63
443.43	5500.26
443.61	5614.95
443.80	5636.01
443.98	5549.41
444.17	5348.12
444.35	5455.79
444.54	5731.97
444.73	5612.60
444.91	5430.04
445.10	5645.37
445.28	5675.80
445.47	5612.60
445.65	5647.71
445.84	5650.05
446.02	5734.31
446.21	5727.29
446.39	5699.20
446.58	5790.49
446.77	5717.93
446.95	5551.75
447.14	5678.14
447.32	5757.72
447.51	5746.02
447.69	5738.99
447.88	5755.38
448.06	5748.36
448.25	5888.79
448.43	5729.63
448.62	5738.99
448.80	5694.52
448.99	5849.00
449.17	5832.62
449.36	5774.10
449.54	5973.05
449.73	5970.71
449.91	6050.28
450.10	5912.19
450.28	6155.61
450.46	6087.73
450.65	5982.41
450.83	6218.80
451.02	6024.54
451.20	6274.98
451.39	6342.85
451.57	6132.20
451.76	6026.88
451.94	6267.95
452.13	6291.36
452.31	6333.49
452.49	6171.99
452.68	6202.42
452.86	6064.33
453.05	6267.95
453.23	6408.39
453.42	6317.11
453.60	6221.14
453.78	6368.60
453.97	6455.20
454.15	6331.15
454.34	6438.81
454.52	6443.49
454.70	6562.86
454.89	6616.69
455.07	6576.91
455.26	6761.81
455.44	6588.61
455.62	6740.74
455.81	6487.96
455.99	6523.07
456.17	6642.44
456.36	6679.89
456.54	6871.81
456.73	6773.51
456.91	7033.31
457.09	6998.20
457.28	7105.87
457.46	6984.16
457.64	7056.72
457.83	7054.37
458.01	6906.92
458.19	7288.43
458.38	7009.90
458.56	7250.98
458.74	7227.57
458.93	7239.28
459.11	7379.71
459.29	7218.21
459.48	7332.90
459.66	7227.57
459.84	7295.45
460.03	7527.16
460.21	7377.37
460.39	7510.78
460.57	7447.58
460.76	7386.73
460.94	7478.01
461.12	7440.56
461.31	7557.59
461.49	7468.65
461.67	7620.78
461.85	7541.21
462.04	7536.52
462.22	7974.21
462.40	7758.88
462.59	7552.91
462.77	7712.07
462.95	7569.29
463.13	7634.83
463.32	7721.43
463.50	7782.28
463.68	8013.99
463.86	7981.23
464.05	7915.69
464.23	7801.01
464.41	7925.05
464.59	7801.01
464.78	8142.72
464.96	8035.06
465.14	7819.73
465.32	7990.59
465.50	8226.98
465.69	8100.59
465.87	8131.02
466.05	7936.76
466.23	8112.30
466.41	7974.21
466.60	8376.78
466.78	8107.62
466.96	8369.76
467.14	8231.66
467.32	8107.62
467.51	8285.50
467.69	8039.74
467.87	8369.76
468.05	8491.46
468.23	8351.03
468.41	8222.30
468.60	8498.49
468.78	8545.30
468.96	8428.27
469.14	8557.00
469.32	8580.40
469.50	8592.11
469.69	8734.88
469.87	8571.04
470.05	8688.07
470.23	8723.18
470.41	8769.99
470.59	8851.91
470.77	8781.69
470.95	8952.55
471.14	8940.85
471.32	8631.90
471.50	9064.89
471.68	8931.48
471.86	9074.26
472.04	9116.39
472.22	9343.42
472.40	9151.49
472.58	9200.65
472.77	9329.38
472.95	9411.29
473.13	9483.85
473.31	9378.53
473.49	9472.15
473.67	9329.38
473.85	9448.74
474.03	9727.27
474.21	9757.69
474.39	9825.57
474.57	9771.74
474.75	9914.51
474.93	9776.42
475.12	10078.35
475.30	10052.60
475.48	9912.17
475.66	10068.98
475.84	10087.71
476.02	10174.31
476.20	10200.05
476.38	10478.58
476.56	10693.91
476.74	10321.76
476.92	10516.03
477.10	10494.96
477.28	10721.99
477.46	10768.80
477.64	10623.69
477.82	10841.36
478.00	11272.02
478.18	11190.10
478.36	11201.80
478.54	11269.68
478.72	11321.17
478.90	11438.20
479.08	11669.91
479.26	11761.19
479.44	11859.49
479.62	11564.59
479.80	11805.66
479.98	11929.71
480.16	12217.60
480.34	11995.25
480.52	12154.40
480.70	12283.13
480.88	12191.85
481.06	12383.77
481.24	12461.01
481.41	12294.83
481.59	12716.13
481.77	12711.45
481.95	12732.51
482.13	13015.72
482.31	12886.99
482.49	13179.56
482.67	13172.54
482.85	13502.55
483.03	13652.34
483.21	13521.27
483.39	13785.76
483.57	13650.00
483.74	13926.19
483.92	13841.93
484.10	14071.30
484.28	14080.66
484.46	14415.36
484.64	14696.22
484.82	14202.37
485.00	14810.91
485.18	14810.91
485.35	15056.67
485.53	14977.09
485.71	14846.02
485.89	15508.39
486.07	15286.04
486.25	15627.76
486.43	15672.23
486.61	15810.32
486.78	15990.54
486.96	16112.25
487.14	16037.35
487.32	16283.11
487.50	16704.40
487.68	16358.00
487.85	16812.07
488.03	16681.00
488.21	17029.74
488.39	16940.80
488.57	16961.86
488.75	17238.05
488.92	17600.83
489.10	17465.08
489.28	17635.94
489.46	17884.03
489.64	17713.17
489.81	18293.63
489.99	17991.70
490.17	17972.97
490.35	18579.17
490.53	18616.62
490.70	18654.07
490.88	18635.35
491.06	18721.95
491.24	18988.77
491.41	19051.96
491.59	19094.09
491.77	19456.87
491.95	19323.46
492.13	19522.41
492.30	19611.35
492.48	19836.04
492.66	19566.88
492.84	19651.14
493.01	20512.46
493.19	20098.18
493.37	20266.70
493.54	20531.18
493.72	20828.43
493.90	20428.20
494.08	20652.89
494.25	20781.62
494.43	20961.84
494.61	20947.79
494.79	21481.44
494.96	21074.18
495.14	21329.30
495.32	21792.73
495.49	21956.57
495.67	21860.60
495.85	22010.40
496.02	22401.27
496.20	22429.35
496.38	22244.45
496.55	22342.75
496.73	22883.42
496.91	22817.88
497.09	22806.18
497.26	22927.89
497.44	22946.61
497.62	23115.13
497.79	23129.17
497.97	23290.67
498.14	23789.20
498.32	23894.53
498.50	23513.02
498.67	23901.55
498.85	24004.53
499.03	23934.32
499.20	24159.01
499.38	24102.84
499.56	24627.12
499.73	24182.42
499.91	24648.18
500.08	24929.05
500.26	24306.46
500.44	24776.91
500.61	24837.76
500.79	24545.20
500.97	24673.93
501.14	25333.96
501.32	25205.23
501.49	25266.08
501.67	25266.08
501.84	25652.27
502.02	25525.88
502.20	25254.38
502.37	25942.50
502.55	25813.77
502.72	25551.63
502.90	26281.88
503.07	26029.10
503.25	26195.28
503.43	25888.67
503.60	26539.33
503.78	26368.48
503.95	26286.56
504.13	26623.59
504.30	26902.12
504.48	26761.69
504.65	26733.60
504.83	27278.94
505.01	27192.34
505.18	27056.59
505.36	27447.46
505.53	27030.85
505.71	27480.23
505.88	27566.83
506.06	27182.98
506.23	27913.23
506.41	27513.00
506.58	27896.85
506.76	27920.25
506.93	28254.95
507.11	27955.36
507.28	28105.15
507.46	28481.98
507.63	28182.39
507.81	28416.44
507.98	28137.92
508.16	28290.06
508.33	28687.95
508.50	28823.70
508.68	28819.02
508.85	29039.03
509.03	28819.02
509.20	28893.91
509.38	29008.60
509.55	29039.03
509.73	29303.51
509.90	29525.86
510.08	29565.65
510.25	29441.60
510.42	29532.88
510.60	30005.67
510.77	29958.86
510.95	30148.44
511.12	29860.55
511.30	30143.76
511.47	29848.85
511.64	29804.38
511.82	30218.66
511.99	30405.90
512.17	30391.86
512.34	30429.30
512.51	30375.47
512.69	30923.16
512.86	30904.43
513.04	31026.14
513.21	30993.37
513.38	31204.02
513.56	31246.15
513.73	31161.89
513.90	31089.34
514.08	31124.44
514.25	31639.36
514.43	31707.24
514.60	31672.13
514.77	31683.83
514.95	31901.50
515.12	31456.80
515.29	31639.36
515.47	31868.73
515.64	32060.66
515.81	31983.42
515.99	32343.86
516.16	32320.46
516.33	32584.94
516.51	32245.56
516.68	31903.84
516.85	32781.54
517.03	32809.63
517.20	32524.08
517.37	32484.30
517.54	32865.80
517.72	33165.39
517.89	32840.06
518.06	32879.85
518.24	33354.97
518.41	32694.94
518.58	32716.01
518.75	33134.96
518.93	33127.94
519.10	33544.56
519.27	33455.62
519.45	33504.77
519.62	33703.71
519.79	33942.45
519.96	33860.53
520.14	33876.91
520.31	33560.94
520.48	34043.09
520.65	33879.25
520.83	34242.04
521.00	34281.83
521.17	34471.41
521.34	34686.74
521.52	34150.76
521.69	34691.42
521.86	34595.46
522.03	34735.89
522.20	34838.87
522.38	35180.59
522.55	34913.77
522.72	35292.94
522.89	35363.15
523.07	35168.89
523.24	34735.89
523.41	35208.68
523.58	35255.49
523.75	35615.93
523.92	35552.74
524.10	35290.60
524.27	35501.25
524.44	35779.77
524.61	35667.42
524.78	35519.97
524.96	35882.75
525.13	36100.42
525.30	36060.63
525.47	36367.24
525.64	36254.90
525.81	36517.04
525.98	36278.30
526.16	35901.48
526.33	36074.68
526.50	36903.23
526.67	36360.22
526.84	36825.99
527.01	36252.56
527.18	36727.69
527.36	36973.44
527.53	36823.65
527.70	37029.62
527.87	36809.61
528.04	36989.83
528.21	36943.02
528.38	36945.36
528.55	37432.19
528.72	37294.10
528.89	37633.47
529.07	37244.94
529.24	36931.31
529.41	37612.41
529.58	37722.41
529.75	37275.37
529.92	37486.02
530.09	38068.81
530.26	37689.65
530.43	37586.66
530.60	37790.29
530.77	37511.77
530.94	37890.93
531.11	37799.65
531.28	37958.81
531.46	38490.11
531.63	38354.36
531.80	38134.35
531.97	38204.56
532.14	38157.75
532.31	38410.53
532.48	38562.67
532.65	39033.11
532.82	38333.29
532.99	39037.80
533.16	38976.94
533.33	38754.59
533.50	38787.36
533.67	38895.02
533.84	38361.38
534.01	38983.96
534.18	38986.30
534.35	38841.19
534.52	39339.72
534.69	39063.54
534.86	39658.04
535.03	38829.49
535.20	39285.89
535.37	39732.93
535.54	39550.37
535.71	39400.58
535.88	40058.27
536.05	39255.46
536.22	39683.78
536.38	39693.15
536.55	39763.36
536.72	39702.51
536.89	39922.52
537.06	39826.56
537.23	40149.55
537.40	39725.91
537.57	39711.87
537.74	40016.14
537.91	40149.55
538.08	39885.07
538.25	40053.59
538.42	40044.23
538.59	40437.44
538.75	40196.36
538.92	40182.32
539.09	40163.59
539.26	40348.50
539.43	40261.90
539.60	40369.56
539.77	40584.89
539.94	40762.77
540.11	40624.68
540.28	40989.80
540.44	40711.28
540.61	40685.53
540.78	40835.33
540.95	40828.30
541.12	40872.78
541.29	41184.07
541.46	41074.06
541.62	40865.75
541.79	41097.47
541.96	40741.71
542.13	40554.46
542.30	41041.29
542.47	40741.71
542.63	41553.87
542.80	41743.45
542.97	41848.78
543.14	41663.88
543.31	41813.67
543.48	41907.29
543.64	42092.19
543.81	42178.79
543.98	42017.30
544.15	42094.53
544.32	42251.35
544.48	42431.57
544.65	42462.00
544.82	42415.19
544.99	42167.09
545.16	42541.58
545.32	42227.95
545.49	42696.05
545.66	42417.53
545.83	42590.73
546.00	42639.88
546.16	42595.41
546.33	42302.84
546.50	42321.57
546.67	42923.08
546.83	42190.50
547.00	42848.19
547.17	42586.05
547.34	42761.59
547.50	43248.42
547.67	43115.01
547.84	42747.54
548.00	43213.31
548.17	43503.54
548.34	43023.73
548.51	43339.70
548.67	43192.25
548.84	43026.07
549.01	43030.75
549.18	43552.69
549.34	43414.60
549.51	43426.30
549.68	43456.73
549.84	43634.61
550.01	44020.80
550.18	43320.98
550.34	43339.70
550.51	43555.03
550.68	43569.07
550.84	43353.74
551.01	43601.84
551.18	43749.29
551.34	43449.70
551.51	43906.11
551.68	43430.98
551.84	43643.97
552.01	43700.14
552.18	44002.07
552.34	43761.00
552.51	44072.29
552.68	43803.13
552.84	43737.59
553.01	44381.24
553.18	43608.86
553.34	44491.24
553.51	44215.06
553.67	43842.92
553.84	44301.66
554.01	44114.42
554.17	44156.55
554.34	44360.17
554.51	44741.68
554.67	44793.17
554.84	44261.87
555.00	44992.12
555.17	44378.90
555.33	44645.72
555.50	44657.42
555.67	44505.29
555.83	44814.24
556.00	44985.10
556.16	45160.64
556.33	45024.89
556.50	44748.70
556.66	44844.66
556.83	44634.02
556.99	45003.82
557.16	45111.49
557.32	45116.17
557.49	44931.26
557.65	44931.26
557.82	45188.72
557.98	45221.49
558.15	44996.80
558.32	45474.27
558.48	44807.22
558.65	45371.28
558.81	44975.73
558.98	45113.83
559.14	44676.15
559.31	45193.40
559.47	44818.92
559.64	45228.51
559.80	45116.17
559.97	44964.03
560.13	45193.40
560.30	45663.85
560.46	46096.85
560.63	45771.52
560.79	45406.39
560.96	45441.50
561.12	46153.02
561.29	45598.32
561.45	45689.60
561.61	45502.35
561.78	45549.17
561.94	45911.95
562.11	45900.25
562.27	45673.21
562.44	45797.26
562.60	45785.56
562.77	45881.52
562.93	45759.81
563.10	45834.71
563.26	45937.69
563.42	46513.47
563.59	45862.80
563.75	45696.62
563.92	46101.53
564.08	46080.47
564.24	46155.36
564.41	45928.33
564.57	46047.70
564.74	46281.75
564.90	46461.97
565.07	45907.27
565.23	45682.58
565.39	45846.41
565.56	46094.51
565.72	46012.59
565.88	46183.45
566.05	46174.09
566.21	46220.90
566.38	46234.94
566.54	46422.19
566.70	46239.62
566.87	46286.43
567.03	46319.20
567.19	46955.83
567.36	46183.45
567.52	46218.56
567.68	46670.28
567.85	46162.39
568.01	46583.68
568.17	46080.47
568.34	46923.06
568.50	46894.97
568.66	46394.10
568.83	46436.23
568.99	46522.83
569.15	46288.77
569.32	46658.58
569.48	46609.43
569.64	46803.69
569.81	46873.91
569.97	46665.60
570.13	46588.36
570.30	46859.87
570.46	46754.54
570.62	47021.36
570.78	46454.95
570.95	46445.59
571.11	46583.68
571.27	46433.89
571.43	46644.54
571.60	46691.35
571.76	46480.70
571.92	46518.15
572.09	46972.21
572.25	46808.37
572.41	46614.11
572.57	47229.67
572.74	47388.83
572.90	46562.62
573.06	46791.99
573.22	46782.63
573.38	47110.30
573.55	46864.55
573.71	47224.99
573.87	46698.37
574.03	46969.87
574.20	47189.88
574.36	47035.41
574.52	47234.35
574.68	47232.01
574.84	47096.26
575.01	47065.83
575.17	47257.76
575.33	47164.14
575.49	46705.39
575.65	47454.36
575.82	46918.38
575.98	47012.00
576.14	47133.71
576.30	47374.78
576.46	47168.82
576.62	47037.75
576.79	46967.53
576.95	46466.66
577.11	46586.02
577.27	47065.83
577.43	46883.27
577.59	47192.22
577.75	46974.55
577.92	46981.57
578.08	47136.05
578.24	47297.55
578.40	47552.66
578.56	47379.46
578.72	47449.68
578.88	47234.35
579.04	46993.28
579.21	46841.14
579.37	47082.22
579.53	47107.96
579.69	47068.17
579.85	47035.41
580.01	47117.32
580.17	46946.47
580.33	47370.10
580.49	47426.28
580.65	47182.86
580.82	47243.71
580.98	47051.79
581.14	46932.42
581.30	47374.78
581.46	46986.25
581.62	47004.98
581.78	47201.58
581.94	47557.35
582.10	47131.37
582.26	47555.00
582.42	47306.91
582.58	47510.53
582.74	47480.11
582.90	47531.60
583.06	47393.51
583.22	47166.48
583.38	47377.12
583.54	47400.53
583.70	47360.74
583.86	47489.47
584.02	47124.35
584.18	47445.00
584.34	47428.62
584.50	47578.41
584.66	47426.28
584.82	47627.56
584.98	47845.23
585.14	47517.56
585.30	46962.85
585.46	47842.89
585.62	47140.73
585.78	47704.80
585.94	46581.34
586.10	47213.29
586.26	47416.91
586.42	47323.29
586.58	47398.19
586.74	47320.95
586.90	47299.89
587.06	47194.56
587.22	47229.67
587.38	47210.95
587.54	47452.02
587.70	47580.75
587.86	47594.79
588.02	47625.22
588.18	47503.51
588.34	47412.23
588.49	47709.48
588.65	47185.20
588.81	47679.05
588.97	47395.85
589.13	47587.77
589.29	47409.89
589.45	47587.77
589.61	47515.22
589.77	47873.32
589.93	47655.65
590.08	47763.31
590.24	47545.64
590.40	47784.38
590.56	47915.45
590.72	47655.65
590.88	47494.15
591.04	47498.83
591.20	47821.83
591.35	47688.42
591.51	48458.45
591.67	48161.20
591.83	48406.96
591.99	47941.19
592.15	47639.26
592.31	48112.05
592.46	47814.80
592.62	47988.00
592.78	47625.22
592.94	48243.12
593.10	48252.48
593.26	48615.27
593.41	47894.38
593.57	48193.97
593.73	48002.05
593.89	48329.72
594.05	48250.14
594.20	48156.52
594.36	47913.11
594.52	48498.24
594.68	47859.27
594.84	48025.45
594.99	48203.33
595.15	47798.42
595.31	47920.13
595.47	48196.31
595.62	47908.43
595.78	48095.67
595.94	48058.22
596.10	48191.63
596.25	48598.88
596.41	48006.73
596.57	47767.99
596.73	48278.23
596.88	47894.38
597.04	48034.81
597.20	48545.05
597.36	48484.20
597.51	48364.83
597.67	48254.82
597.83	48362.49
597.99	48062.90
598.14	48184.61
598.30	48467.81
598.46	48200.99
598.61	48385.89
598.77	48002.05
598.93	48065.24
599.09	48088.65
599.24	48608.25
599.40	48259.51
599.56	47945.87
599.71	48699.53
599.87	48605.91
600.03	48802.51
600.18	48308.66
600.34	48502.92
600.50	48058.22
600.65	48264.19
600.81	48769.74
600.97	48163.54
601.12	48320.36
601.28	48545.05
601.44	48236.10
601.59	48292.27
601.75	48430.36
601.91	48449.09
602.06	48633.99
602.22	48411.64
602.37	47959.92
602.53	48385.89
602.69	48781.45
602.84	48072.26
603.00	47913.11
603.16	48142.48
603.31	48416.32
603.47	48540.37
603.62	48505.26
603.78	48430.36
603.94	48217.38
604.09	48264.19
604.25	48278.23
604.40	48669.10
604.56	48659.74
604.71	48736.98
604.87	48175.25
605.03	48261.85
605.18	48126.10
605.34	48540.37
605.49	48259.51
605.65	48332.06
605.80	48156.52
605.96	48308.66
606.12	48013.75
606.27	48292.27
606.43	47976.30
606.58	48509.94
606.74	48509.94
606.89	48177.59
607.05	48273.55
607.20	48177.59
607.36	48112.05
607.51	48170.57
607.67	47957.58
607.82	48030.13
607.98	48294.61
608.13	48105.03
608.29	48196.31
608.44	48390.58
608.60	47936.51
608.75	48186.95
608.91	47985.66
609.06	48032.47
609.22	48357.81
609.37	48060.56
609.53	48299.30
609.68	48088.65
609.84	48053.54
609.99	48226.74
610.15	48156.52
610.30	48362.49
610.46	47650.97
610.61	47880.34
610.76	48301.64
610.92	47454.36
611.07	47950.56
611.23	47583.09
611.38	47882.68
611.54	48116.73
611.69	48198.65
611.84	48016.09
612.00	47594.79
612.15	47573.73
612.31	47765.65
612.46	47634.58
612.62	47587.77
612.77	47985.66
612.92	47824.17
613.08	47599.47
613.23	47856.93
613.39	47435.64
613.54	47325.63
613.69	47861.61
613.85	47868.64
614.00	48161.20
614.15	47728.20
614.31	47484.79
614.46	47608.84
614.62	47426.28
614.77	47430.96
614.92	47232.01
615.08	47463.72
615.23	47433.30
615.38	48121.41
615.54	47330.31
615.69	47718.84
615.84	47222.65
616.00	47540.96
616.15	47538.62
616.30	47704.80
616.46	47627.56
616.61	47519.90
616.76	48069.92
616.92	47175.84
617.07	47791.40
617.22	47515.22
617.37	46787.31
617.53	47440.32
617.68	47566.71
617.83	47494.15
617.99	47491.81
618.14	47770.33
618.29	46953.49
618.45	47119.66
618.60	47192.22
618.75	47068.17
618.90	46927.74
619.06	47253.08
619.21	46873.91
619.36	47243.71
619.51	47065.83
619.67	47056.47
619.82	47182.86
619.97	47311.59
620.12	47292.86
620.28	46684.33
620.43	47004.98
620.58	47304.57
620.73	46876.25
620.89	47374.78
621.04	47068.17
621.19	46707.73
621.34	46728.80
621.49	46604.75
621.65	46880.93
621.80	47220.31
621.95	46770.93
622.10	47065.83
622.25	46354.31
622.41	46398.78
622.56	46712.41
622.71	47056.47
622.86	46934.76
623.01	46714.75
623.16	46501.76
623.32	46494.74
623.47	46600.07
623.62	46679.64
623.77	46497.08
623.92	46796.67
624.07	46698.37
624.23	46810.71
624.38	46705.39
624.53	46529.85
624.68	46050.04
624.83	46309.84
624.98	46548.57
625.13	46040.68
625.29	46382.40
625.44	46443.25
625.59	46176.43
625.74	46141.32
625.89	46607.09
626.04	45886.20
626.19	46714.75
626.34	45823.01
626.49	46181.11
626.65	45839.39
626.80	46239.62
626.95	45762.15
627.10	45666.19
627.25	45977.48
627.40	45818.33
627.55	45968.12
627.70	45972.80
627.85	46141.32
628.00	46080.47
628.15	45720.02
628.30	45200.43
628.45	45563.21
628.60	45588.95
628.76	45523.42
628.91	45595.98
629.06	45654.49
629.21	45511.72
629.36	45586.61
629.51	45825.35
629.66	46181.11
629.81	45764.49
629.96	45806.62
630.11	45605.34
630.26	45411.07
630.41	45694.28
630.56	45429.80
630.71	45340.86
630.86	45603.00
631.01	45237.87
631.16	45235.53
631.31	45560.87
631.46	45088.08
631.61	45097.44
631.76	45434.48
631.91	45155.96
632.06	45787.90
632.21	45586.61
632.36	45556.19
632.51	45141.91
632.66	45184.04
632.81	45453.20
632.96	45177.02
633.10	45048.29
633.25	45048.29
633.40	45331.50
633.55	45607.68
633.70	45031.91
633.85	44872.75
634.00	44957.01
634.15	44610.61
634.30	45069.36
634.45	44725.30
634.60	44828.28
634.75	44835.30
634.90	44699.55
635.05	44748.70
635.19	45095.10
635.34	44832.96
635.49	44598.91
635.64	44547.42
635.79	44779.13
635.94	45071.70
636.09	44797.85
636.24	44847.00
636.39	45043.61
636.53	45177.02
636.68	44406.98
636.83	44404.64
636.98	44425.71
637.13	44264.21
637.28	44240.81
637.43	44107.40
637.57	44203.36
637.72	43908.45
637.87	44053.56
638.02	44280.60
638.17	43901.43
638.32	44318.04
638.46	43929.51
638.61	43620.56
638.76	44032.50
638.91	43899.09
639.06	43878.02
639.20	43943.56
639.35	43878.02
639.50	43639.29
639.65	43955.26
639.80	43990.37
639.94	44325.07
640.09	44219.74
640.24	43814.83
640.39	43985.69
640.54	43421.62
640.68	44135.48
640.83	43931.86
640.98	43964.62
641.13	43388.85
641.27	43629.93
641.42	43508.22
641.57	43636.95
641.72	43409.92
641.86	43583.12
642.01	43199.27
642.16	43487.15
642.31	43414.60
642.45	43704.82
642.60	43009.68
642.75	43215.65
642.90	43571.41
643.04	43419.28
643.19	43470.77
643.34	43232.04
643.48	43056.50
643.63	42747.54
643.78	43377.15
643.93	43658.01
644.07	43351.40
644.22	43208.63
644.37	42855.21
644.51	43271.82
644.66	42887.98
644.81	43054.15
644.95	43217.99
645.10	43241.40
645.25	42698.39
645.39	43271.82
645.54	42752.23
645.69	42309.86
645.83	42754.57
645.98	42569.66
646.13	43283.53
646.27	42813.08
646.42	42616.47
646.57	42548.60
646.71	43281.19
646.86	42920.74
647.00	42642.22
647.15	42777.97
647.30	42621.16
647.44	42604.77
647.59	42700.73
647.74	42487.74
647.88	43082.24
648.03	43323.32
648.17	42773.29
648.32	42848.19
648.47	43140.75
648.61	42464.34
648.76	42810.74
648.90	42667.97
649.05	42761.59
649.20	42417.53
649.34	42649.24
649.49	42522.85
649.63	42202.20
649.78	42356.67
649.92	42799.04
650.07	43206.29
650.21	42281.78
650.36	42796.70
650.51	42134.32
650.65	42574.34
650.80	42593.07
650.94	42263.05
651.09	41879.21
651.23	41911.97
651.38	41406.42
651.52	41713.03
651.67	41647.49
651.81	41979.85
651.96	41514.08
652.10	41762.18
652.25	42101.56
652.39	41893.25
652.54	41865.16
652.68	41895.59
652.83	41612.38
652.97	42050.06
653.12	41984.53
653.26	41603.02
653.41	41708.35
653.55	41591.32
653.70	42312.20
653.84	42082.83
653.99	41785.58
654.13	41603.02
654.27	41375.99
654.42	42272.42
654.56	41282.37
654.71	41769.20
654.85	41900.27
655.00	41366.63
655.14	41392.37
655.29	41514.08
655.43	41848.78
655.57	41532.81
655.72	41078.74
655.86	41399.40
656.01	41378.33
656.15	41195.77
656.30	41053.00
656.44	41179.39
656.58	41223.86
656.73	41148.96
656.87	40884.48
657.01	40882.14
657.16	41401.74
657.30	40870.43
657.45	40802.56
657.59	41003.85
657.73	40748.73
657.88	41244.92
658.02	41120.87
658.16	41315.14
658.31	40842.35
658.45	40779.15
658.60	40685.53
658.74	40680.85
658.88	41123.21
659.03	40587.23
659.17	40732.34
659.31	40463.18
659.46	40531.06
659.60	40734.68
659.74	40098.06
659.89	40023.16
660.03	40266.58
660.17	39948.26
660.32	39952.94
660.46	40046.57
660.60	39613.57
660.74	40144.87
660.89	40018.48
661.03	39777.40
661.17	39667.40
661.32	39995.07
661.46	39775.06
661.60	39651.02
661.74	39440.37
661.89	39618.25
662.03	39896.77
662.17	39592.50
662.31	39625.27
662.46	39405.26
662.60	39601.86
662.74	38993.32
662.88	39426.32
663.03	38834.17
663.17	39030.77
663.31	38820.13
663.45	39222.70
663.60	39267.17
663.74	39330.36
663.88	39175.89
664.02	38871.62
664.17	39297.59
664.31	38597.77
664.45	38602.46
664.59	38775.66
664.73	38625.86
664.88	38541.60
665.02	38447.98
665.16	38473.73
665.30	38424.57
665.44	38618.84
665.59	38113.28
665.73	38017.32
665.87	37958.81
666.01	38405.85
666.15	38256.06
666.29	37727.10
666.44	38139.03
666.58	38014.98
666.72	37291.76
666.86	37940.08
667.00	37614.75
667.14	37291.76
667.28	37198.13
667.43	37544.53
667.57	37886.25
667.71	37392.40
667.85	37841.78
667.99	37722.41
668.13	37621.77
668.27	36825.99
668.41	36931.31
668.56	36804.92
668.70	37347.93
668.84	36622.36
668.98	36945.36
669.12	36830.67
669.26	36613.00
669.40	36650.45
669.54	37408.78
669.68	36746.41
669.82	36414.05
669.96	36236.17
670.10	35941.27
670.25	36226.81
670.39	36332.14
670.53	36500.65
670.67	36556.83
670.81	36519.38
670.95	36474.91
671.09	36315.75
671.23	35756.36
671.37	35835.94
671.51	35620.61
671.65	35583.16
671.79	35548.06
671.93	35700.19
672.07	35526.99
672.21	35826.58
672.35	35026.12
672.49	35321.02
672.63	35578.48
672.77	35063.57
672.91	35122.08
673.05	34738.23
673.19	34981.65
673.33	34932.50
673.47	34810.79
673.61	34525.24
673.75	34490.13
673.89	34314.59
674.03	34361.40
674.17	34015.01
674.31	34733.55
674.45	34071.18
674.59	34040.75
674.73	34363.75
674.87	34010.32
675.01	33748.18
675.15	33558.60
675.29	33677.97
675.43	33855.85
675.56	33776.27
675.70	33457.96
675.84	33132.62
675.98	32254.92
676.12	33579.67
676.26	33497.75
676.40	32989.85
676.54	32903.25
676.68	32842.40
676.82	32346.20
676.96	33057.73
677.10	32879.85
677.23	32418.76
677.37	32760.48
677.51	32285.35
677.65	32318.12
677.79	31899.16
677.93	32334.50
678.07	32397.70
678.21	31555.10
678.34	31255.51
678.48	31559.78
678.62	31171.25
678.76	31049.55
678.90	31555.10
679.04	31290.62
679.18	31864.05
679.31	30979.33
679.45	30944.22
679.59	30700.81
679.73	30714.85
679.87	30424.62
680.00	30909.11
680.14	30572.08
680.28	30703.15
680.42	30333.34
680.56	30047.80
680.70	30120.35
680.83	30115.67
680.97	29799.70
681.11	29495.43
681.25	29537.56
681.39	29647.57
681.52	29542.24
681.66	29181.80
681.80	28968.81
681.94	28638.80
682.07	28732.42
682.21	28952.43
682.35	28774.55
682.49	28804.97
682.62	28615.39
682.76	28795.61
682.90	28643.48
683.04	28673.90
683.17	28247.93
683.31	28034.94
683.45	28013.87
683.59	27630.02
683.72	27751.73
683.86	27929.61
684.00	27613.64
684.13	27545.76
684.27	27236.81
684.41	27644.07
684.55	27077.66
684.68	27117.45
684.82	26991.06
684.96	26658.70
685.09	27349.16
685.23	27257.88
685.37	27072.98
685.50	27498.95
685.64	26518.27
685.78	26775.73
685.91	26352.09
686.05	26431.67
686.19	25563.33
686.32	26143.78
686.46	25617.16
686.60	25558.65
686.73	25727.17
686.87	25406.52
687.01	25584.40
687.14	25572.69
687.28	25490.77
687.42	25135.01
687.55	24978.20
687.69	25420.56
687.82	25205.23
687.96	25263.74
688.10	25355.02
688.23	25233.32
688.37	25015.65
688.50	24783.93
688.64	24786.27
688.78	24545.20
688.91	24318.17
689.05	24343.91
689.18	23910.91
689.32	23435.78
689.46	23599.62
689.59	23566.85
689.73	24147.31
689.86	23931.98
690.00	24027.94
690.13	23791.55
690.27	23330.46
690.41	23747.08
690.54	22963.00
690.68	23410.04
690.81	23028.53
690.95	23075.34
691.08	22747.67
691.22	22869.37
691.35	22611.92
691.49	22995.76
691.62	22349.78
691.76	22658.73
691.89	22169.55
692.03	22192.96
692.16	21769.32
692.30	21886.35
692.43	21799.75
692.57	21759.96
692.70	21762.30
692.84	21687.40
692.97	21233.34
693.11	21369.09
693.24	21481.44
693.38	21139.72
693.51	21163.12
693.65	21200.57
693.78	20709.06
693.92	20861.19
694.05	20793.32
694.19	20547.56
694.32	20886.94
694.45	20657.57
694.59	20688.00
694.72	20489.05
694.86	20212.87
694.99	20161.37
695.13	19936.68
695.26	19894.55
695.39	19826.68
695.53	19915.62
695.66	19836.04
695.80	19515.39
695.93	19800.93
696.07	19452.19
696.20	19283.67
696.33	18754.71
696.47	18972.38
696.60	19131.54
696.73	19197.07
696.87	19201.76
697.00	19103.45
697.14	18698.54
697.27	18658.75
697.40	18654.07
697.54	18237.45
697.67	18389.59
697.80	18558.11
697.94	18398.95
698.07	18153.20
698.21	18136.81
698.34	17972.97
698.47	17996.38
698.61	17500.19
698.74	17539.97
698.87	17591.47
699.01	17575.08
699.14	17444.01
699.27	17446.35
699.40	17476.78
699.54	17628.92
699.67	17025.06
699.80	17247.41
699.94	16950.16
700.07	17053.14
700.20	16891.65
700.34	16697.38
700.47	16915.05
700.60	17083.57
700.73	16746.53
700.87	16545.25
701.00	16404.81
701.13	16051.39
701.26	16435.24
701.40	16035.01
701.53	15810.32
701.66	15981.18
701.79	16109.91
701.93	15648.82
702.06	15480.30
702.19	15630.10
702.32	15653.50
702.46	15864.15
702.59	15571.58
702.72	15602.01
702.85	15496.69
702.99	15105.82
703.12	15262.63
703.25	14899.85
703.38	15021.56
703.51	14892.83
703.65	14918.57
703.78	14817.93
703.91	14661.12
704.04	14464.51
704.17	14618.99
704.31	14476.21
704.44	14455.15
704.57	14174.28
704.70	14377.91
704.83	13982.36
704.96	13851.29
705.10	13930.87
705.23	13928.53
>>>>>End Processed Spectral Data<<<<<
