SpectraSuite Data File
++++++++++++++++++++++++++++++++++++
Date: Fri Oct 25 11:34:36 EDT 2013
User: price-jones
Dark Spectrum Present: No
Reference Spectrum Present: No
Number of Sampled Component Spectra: 1
Spectrometers: USB2+H05261
Integration Time (usec): 100000 (USB2+H05261)
Spectra Averaged: 1 (USB2+H05261)
Boxcar Smoothing: 0 (USB2+H05261)
Correct for Electrical Dark: No (USB2+H05261)
Strobe/Lamp Enabled: No (USB2+H05261)
Correct for Detector Non-linearity: No (USB2+H05261)
Correct for Stray Light: No (USB2+H05261)
Number of Pixels in Processed Spectrum: 2048
>>>>>Begin Processed Spectral Data<<<<<
365.73	294.91
365.92	294.91
366.12	294.91
366.32	201.29
366.52	191.92
366.72	168.52
366.91	203.63
367.11	205.97
367.31	154.48
367.51	170.86
367.70	180.22
367.90	119.37
368.10	133.41
368.30	222.35
368.49	250.44
368.69	191.92
368.89	224.69
369.09	112.35
369.28	149.79
369.48	175.54
369.68	196.60
369.87	280.86
370.07	248.10
370.27	264.48
370.47	360.44
370.66	472.79
370.86	472.79
371.06	519.60
371.25	531.30
371.45	533.64
371.65	510.24
371.84	496.19
372.04	540.66
372.24	498.53
372.44	470.45
372.63	535.98
372.83	606.20
373.03	617.90
373.22	512.58
373.42	596.84
373.62	585.13
373.81	636.63
374.01	629.60
374.21	706.84
374.40	554.71
374.60	657.69
374.79	582.79
374.99	720.88
375.19	620.24
375.38	678.76
375.58	741.95
375.78	648.33
375.97	681.10
376.17	636.63
376.37	589.82
376.56	655.35
376.76	704.50
376.95	585.13
377.15	620.24
377.35	660.03
377.54	709.18
377.74	685.78
377.93	657.69
378.13	634.29
378.33	631.94
378.52	706.84
378.72	716.20
378.91	716.20
379.11	681.10
379.31	725.57
379.50	655.35
379.70	734.93
379.89	826.21
380.09	772.38
380.28	723.23
380.48	772.38
380.68	678.76
380.87	744.29
381.07	678.76
381.26	819.19
381.46	821.53
381.65	711.52
381.85	748.97
382.04	788.76
382.24	732.59
382.43	685.78
382.63	711.52
382.83	739.61
383.02	695.14
383.22	784.08
383.41	765.36
383.61	821.53
383.80	814.51
384.00	779.40
384.19	800.46
384.39	833.23
384.58	807.48
384.78	858.98
384.97	791.10
385.17	777.06
385.36	793.44
385.56	814.51
385.75	858.98
385.95	826.21
386.14	821.53
386.34	833.23
386.53	873.02
386.72	847.27
386.92	812.17
387.11	828.55
387.31	828.55
387.50	891.74
387.70	856.64
387.89	896.43
388.09	821.53
388.28	908.13
388.48	823.87
388.67	964.30
388.86	887.06
389.06	912.81
389.25	898.77
389.45	915.15
389.64	901.11
389.84	884.72
390.03	976.00
390.22	903.45
390.42	917.49
390.61	978.34
390.81	957.28
391.00	973.66
391.19	1041.54
391.39	863.66
391.58	915.15
391.78	898.77
391.97	1057.92
392.16	1027.50
392.36	1018.13
392.55	1041.54
392.75	1006.43
392.94	978.34
393.13	1034.52
393.33	1029.84
393.52	1050.90
393.71	1041.54
393.91	1011.11
394.10	1025.15
394.29	894.08
394.49	1043.88
394.68	1067.28
394.88	1121.12
395.07	1090.69
395.26	1121.12
395.46	1111.75
395.65	1095.37
395.84	1125.80
396.04	1217.08
396.23	1158.57
396.42	1093.03
396.62	1139.84
396.81	1170.27
397.00	1181.97
397.19	1060.26
397.39	1083.67
397.58	1228.78
397.77	1198.35
397.97	1226.44
398.16	1217.08
398.35	1200.69
398.55	1184.31
398.74	1256.87
398.93	1235.80
399.12	1247.51
399.32	1193.67
399.51	1235.80
399.70	1338.79
399.90	1313.04
400.09	1359.85
400.28	1338.79
400.47	1439.43
400.67	1401.98
400.86	1366.87
401.05	1331.76
401.24	1317.72
401.44	1371.55
401.63	1413.68
401.82	1390.28
402.01	1355.17
402.21	1483.90
402.40	1483.90
402.59	1476.88
402.78	1416.02
402.97	1490.92
403.17	1462.83
403.36	1530.71
403.55	1467.52
403.74	1612.63
403.93	1521.35
404.13	1526.03
404.32	1488.58
404.51	1476.88
404.70	1551.78
404.89	1549.43
405.09	1519.01
405.28	1621.99
405.47	1614.97
405.66	1640.72
405.85	1570.50
406.05	1647.74
406.24	1650.08
406.43	1743.70
406.62	1781.15
406.81	1757.74
407.00	1722.63
407.20	1650.08
407.39	1722.63
407.58	1795.19
407.77	1715.61
407.96	1781.15
408.15	1781.15
408.34	1844.34
408.54	1795.19
408.73	1804.55
408.92	1717.95
409.11	1900.52
409.30	1804.55
409.49	1849.02
409.68	1930.94
409.87	1923.92
410.07	1926.26
410.26	1994.14
410.45	1956.69
410.64	1863.07
410.83	2010.52
411.02	1994.14
411.21	2005.84
411.40	2062.01
411.59	2108.82
411.78	2129.89
411.98	2129.89
412.17	2190.74
412.36	2160.31
412.55	2146.27
412.74	2305.43
412.93	2267.98
413.12	2223.51
413.31	2359.26
413.50	2209.47
413.69	2239.89
413.88	2338.20
414.07	2352.24
414.26	2452.88
414.45	2413.09
414.64	2354.58
414.83	2394.37
415.02	2377.98
415.22	2579.27
415.41	2434.16
415.60	2593.31
415.79	2581.61
415.98	2544.16
416.17	2600.34
416.36	2619.06
416.55	2607.36
416.74	2675.23
416.93	2731.41
417.12	2696.30
417.31	2703.32
417.50	2686.94
417.69	2782.90
417.88	2698.64
418.07	2822.69
418.26	2843.75
418.45	2832.05
418.64	2909.29
418.83	2876.52
419.02	2881.20
419.21	2841.41
419.39	2953.76
419.58	2895.24
419.77	2904.60
419.96	3110.57
420.15	3042.70
420.34	3094.19
420.53	3035.67
420.72	3124.62
420.91	2979.50
421.10	3038.02
421.29	3119.93
421.48	3084.83
421.67	3222.92
421.86	3176.11
422.05	3133.98
422.24	3110.57
422.43	3225.26
422.61	3208.87
422.80	3166.74
422.99	3152.70
423.18	3213.56
423.37	3288.45
423.56	3138.66
423.75	3131.64
423.94	3110.57
424.13	3063.76
424.32	3040.36
424.50	3138.66
424.69	3274.41
424.88	3332.92
425.07	3227.60
425.26	3302.50
425.45	3346.97
425.64	3262.71
425.83	3272.07
426.01	3241.64
426.20	3269.73
426.39	3356.33
426.58	3353.99
426.77	3321.22
426.96	3531.87
427.15	3375.05
427.33	3400.80
427.52	3243.98
427.71	3447.61
427.90	3260.37
428.09	3400.80
428.28	3456.97
428.46	3599.74
428.65	3543.57
428.84	3634.85
429.03	3700.39
429.22	3468.67
429.40	3571.66
429.59	3637.19
429.78	3541.23
429.97	3550.59
430.16	3639.53
430.34	3534.21
430.53	3630.17
430.72	3765.92
430.91	3674.64
431.10	3758.90
431.28	3786.99
431.47	3929.76
431.66	3847.84
431.85	3866.56
432.03	3801.03
432.22	3836.14
432.41	3836.14
432.60	3896.99
432.79	3915.72
432.97	3971.89
433.16	3925.08
433.35	3892.31
433.54	3985.93
433.72	3988.27
433.91	4037.42
434.10	3995.29
434.28	3850.18
434.47	3964.87
434.66	4133.39
434.85	4156.79
435.03	4224.67
435.22	4159.13
435.41	4238.71
435.59	4224.67
435.78	4222.33
435.97	4266.80
436.16	4222.33
436.34	4126.36
436.53	4109.98
436.72	4217.65
436.90	4219.99
437.09	4337.01
437.28	4175.52
437.46	4212.96
437.65	4311.27
437.84	4259.78
438.02	4479.79
438.21	4479.79
438.40	4266.80
438.58	4465.74
438.77	4723.20
438.96	4477.44
439.14	4627.24
439.33	4709.16
439.52	4671.71
439.70	4638.94
439.89	4901.08
440.08	4851.93
440.26	4638.94
440.45	4657.67
440.63	4744.27
440.82	4938.53
441.01	5027.47
441.19	4919.81
441.38	4980.66
441.57	5011.09
441.75	5006.41
441.94	5263.86
442.12	5149.18
442.31	5289.61
442.50	5177.26
442.68	5284.93
442.87	5111.73
443.05	5151.52
443.24	5235.78
443.43	5298.97
443.61	5287.27
443.80	5502.60
443.98	5305.99
444.17	5153.86
444.35	5369.19
444.54	5432.38
444.73	5203.01
444.91	5476.85
445.10	5226.42
445.28	5432.38
445.47	5390.25
445.65	5394.93
445.84	5486.22
446.02	5687.50
446.21	5394.93
446.39	5380.89
446.58	5364.51
446.77	5373.87
446.95	5205.35
447.14	5385.57
447.32	5479.19
447.51	5479.19
447.69	5479.19
447.88	5554.09
448.06	5476.85
448.25	5628.99
448.43	5446.43
448.62	5596.22
448.80	5598.56
448.99	5434.72
449.17	5577.50
449.36	5621.97
449.54	5717.93
449.73	5879.43
449.91	5753.04
450.10	5816.23
450.28	5809.21
450.46	5743.67
450.65	5832.62
450.83	5816.23
451.02	5790.49
451.20	5846.66
451.39	5928.58
451.57	5923.90
451.76	5891.13
451.94	5937.94
452.13	5909.85
452.31	6033.90
452.49	6122.84
452.68	5870.06
452.86	6010.50
453.05	6043.26
453.23	6080.71
453.42	6085.39
453.60	6080.71
453.78	6263.27
453.97	5891.13
454.15	5888.79
454.34	6099.44
454.52	6305.40
454.70	6274.98
454.89	6223.48
455.07	6094.76
455.26	6441.15
455.44	6431.79
455.62	6340.51
455.81	6368.60
455.99	6502.01
456.17	6300.72
456.36	6487.96
456.54	6377.96
456.73	6562.86
456.91	6726.70
457.09	6726.70
457.28	6703.29
457.46	6668.19
457.64	6839.05
457.83	6717.34
458.01	6588.61
458.19	6792.23
458.38	6839.05
458.56	6745.42
458.74	6651.80
458.93	6937.35
459.11	6925.65
459.29	6846.07
459.48	6974.80
459.66	6920.96
459.84	7005.22
460.03	7059.06
460.21	7007.56
460.39	7171.40
460.57	7112.89
460.76	7030.97
460.94	7192.47
461.12	7028.63
461.31	7103.53
461.49	6951.39
461.67	7049.69
461.85	7265.02
462.04	7105.87
462.22	7552.91
462.40	7562.27
462.59	7389.07
462.77	7454.61
462.95	7513.12
463.13	7555.25
463.32	7604.40
463.50	7363.33
463.68	7459.29
463.86	7700.36
464.05	7412.48
464.23	7442.90
464.41	7651.21
464.59	7377.37
464.78	7590.36
464.96	7569.29
465.14	7592.70
465.32	7655.89
465.50	7658.23
465.69	7683.98
465.87	7674.62
466.05	7705.04
466.23	7889.95
466.41	7843.14
466.60	7859.52
466.78	7634.83
466.96	7691.00
467.14	7889.95
467.32	7747.17
467.51	7995.27
467.69	7531.84
467.87	7751.85
468.05	7936.76
468.23	7726.11
468.41	7836.11
468.60	8039.74
468.78	8145.06
468.96	8198.90
469.14	8170.81
469.32	8290.18
469.50	7941.44
469.69	8301.88
469.87	8269.11
470.05	8245.71
470.23	8404.86
470.41	8381.46
470.59	8430.61
470.77	8306.56
470.95	8315.92
471.14	8573.38
471.32	8383.80
471.50	8505.51
471.68	8587.43
471.86	8519.55
472.04	8650.62
472.22	8774.67
472.40	8641.26
472.58	8613.17
472.77	8910.42
472.95	8828.50
473.13	9130.43
473.31	8837.86
473.49	9062.55
473.67	8877.65
473.85	9015.74
474.03	8964.25
474.21	9277.88
474.39	9315.33
474.57	9479.17
474.75	9423.00
474.93	9540.02
475.12	9479.17
475.30	9458.10
475.48	9331.72
475.66	9568.11
475.84	9446.40
476.02	9760.03
476.20	9404.27
476.38	9769.40
476.56	10260.91
476.74	9827.91
476.92	9944.94
477.10	10150.90
477.28	10139.20
477.46	10038.56
477.64	10340.49
477.82	10253.89
478.00	10490.28
478.18	10504.32
478.36	10789.87
478.54	10658.80
478.72	10553.48
478.90	10944.34
479.08	11019.24
479.26	11119.89
479.44	11021.58
479.62	11162.01
479.80	11192.44
479.98	11403.09
480.16	11749.49
480.34	11541.18
480.52	11597.35
480.70	11492.03
480.88	11372.66
481.06	11712.04
481.24	11566.93
481.41	12049.08
481.59	11997.59
481.77	12210.57
481.95	12367.39
482.13	12329.94
482.31	12067.80
482.49	12395.48
482.67	12755.92
482.85	12919.76
483.03	12849.54
483.21	12844.86
483.39	13249.77
483.57	13020.40
483.74	13018.06
483.92	13291.90
484.10	13319.99
484.28	13404.25
484.46	13848.95
484.64	13809.16
484.82	13621.92
485.00	13783.41
485.18	14141.52
485.35	14356.85
485.53	14150.88
485.71	14363.87
485.89	14710.27
486.07	14544.09
486.25	14618.99
486.43	14574.52
486.61	14803.89
486.78	14644.73
486.96	14885.81
487.14	15049.64
487.32	15157.31
487.50	15618.39
487.68	15342.21
487.85	15590.31
488.03	16035.01
488.21	16215.23
488.39	16058.42
488.57	16280.77
488.75	16161.40
488.92	16491.41
489.10	16297.15
489.28	16568.65
489.46	16643.55
489.64	16697.38
489.81	17287.20
489.99	17249.75
490.17	17254.43
490.35	17469.76
490.53	17415.93
490.70	17488.48
490.88	17612.53
491.06	17984.68
491.24	17755.30
491.41	17900.42
491.59	18082.98
491.77	18090.00
491.95	18450.44
492.13	18370.86
492.30	18735.99
492.48	18593.22
492.66	18810.89
492.84	19119.84
493.01	19051.96
493.19	18881.10
493.37	19550.49
493.54	19063.66
493.72	19304.74
493.90	19480.28
494.08	19831.36
494.25	19559.86
494.43	19831.36
494.61	20393.09
494.79	20568.63
494.96	20077.12
495.14	20336.91
495.32	20472.67
495.49	20552.24
495.67	20769.91
495.85	20957.16
496.02	21090.57
496.20	20931.41
496.38	21188.87
496.55	21331.64
496.73	21549.31
496.91	21458.03
497.09	21458.03
497.26	21582.08
497.44	21696.77
497.62	21867.63
497.79	21935.50
497.97	21949.54
498.14	22384.88
498.32	22256.15
498.50	22111.04
498.67	22497.23
498.85	22480.85
499.03	22661.07
499.20	22759.37
499.38	22883.42
499.56	22838.95
499.73	23145.56
499.91	23211.09
500.08	23510.68
500.26	23393.65
500.44	23608.98
500.61	23543.45
500.79	23108.11
500.97	23616.01
501.14	23594.94
501.32	23826.65
501.49	23543.45
501.67	23782.18
501.84	24397.74
502.02	24135.60
502.20	24011.56
502.37	24313.48
502.55	24341.57
502.72	24734.78
502.90	24346.25
503.07	24603.71
503.25	24512.43
503.43	24854.15
503.60	24776.91
503.78	24879.89
503.95	24922.02
504.13	24966.49
504.30	25048.41
504.48	25429.92
504.65	25329.28
504.83	25294.17
505.01	25687.38
505.18	25434.60
505.36	25769.30
505.53	25701.42
505.71	25949.52
505.88	26160.17
506.06	25748.23
506.23	25979.95
506.41	26185.91
506.58	26426.99
506.76	26267.83
506.93	26726.58
507.11	26438.69
507.28	26625.93
507.46	26522.95
507.63	26635.30
507.81	27023.83
507.98	26485.50
508.16	26834.24
508.33	27250.86
508.50	26719.56
508.68	27168.94
508.85	27428.74
509.03	27278.94
509.20	27484.91
509.38	27555.13
509.55	27562.15
509.73	27386.61
509.90	27475.55
510.08	27852.38
510.25	28140.26
510.42	27861.74
510.60	28327.50
510.77	28240.90
510.95	28446.87
511.12	27861.74
511.30	28196.43
511.47	28629.43
511.64	28701.99
511.82	28929.02
511.99	28304.10
512.17	29001.58
512.34	28547.51
512.51	28975.83
512.69	29366.70
512.86	29076.48
513.04	29223.93
513.21	29261.38
513.38	29071.79
513.56	29415.85
513.73	29586.71
513.90	29310.53
514.08	29802.04
514.25	29841.83
514.43	29806.72
514.60	29874.60
514.77	29619.48
514.95	29902.68
515.12	29972.90
515.29	29474.37
515.47	30579.10
515.64	30483.14
515.81	30005.67
515.99	30698.47
516.16	30450.37
516.33	30590.80
516.51	30525.27
516.68	30576.76
516.85	30820.17
517.03	30712.51
517.20	30909.11
517.37	30817.83
517.54	30923.16
517.72	31314.03
517.89	30995.71
518.06	31267.22
518.24	31255.51
518.41	31096.36
518.58	31229.77
518.75	31491.91
518.93	31571.49
519.10	31398.29
519.27	31782.13
519.45	31908.52
519.62	31887.46
519.79	31686.17
519.96	31924.91
520.14	32009.17
520.31	31807.88
520.48	32266.63
520.65	32315.78
520.83	32304.07
521.00	32463.23
521.17	32353.23
521.34	32388.33
521.52	32598.98
521.69	32744.09
521.86	32430.46
522.03	32807.29
522.20	33165.39
522.38	33371.36
522.55	33071.77
522.72	33237.95
522.89	32968.79
523.07	33656.90
523.24	33589.03
523.41	33387.74
523.58	33125.60
523.75	33776.27
523.92	33399.44
524.10	33631.16
524.27	33818.40
524.44	33596.05
524.61	34071.18
524.78	33944.79
524.96	34462.05
525.13	34033.73
525.30	34279.49
525.47	34181.18
525.64	33968.19
525.81	34298.21
525.98	34265.44
526.16	34445.66
526.33	34045.43
526.50	34726.53
526.67	34127.35
526.84	34440.98
527.01	34417.58
527.18	34632.91
527.36	34864.62
527.53	34972.28
527.70	35278.89
527.87	35304.64
528.04	34719.51
528.21	35164.21
528.38	35164.21
528.55	35185.27
528.72	35009.73
528.89	35145.48
529.07	34902.07
529.24	34930.16
529.41	35873.39
529.58	35421.67
529.75	35613.59
529.92	35175.91
530.09	35503.59
530.26	35536.35
530.43	35962.33
530.60	35356.13
530.77	35501.25
530.94	35639.34
531.11	35885.09
531.28	36002.12
531.46	36168.30
531.63	35840.62
531.80	35929.56
531.97	35929.56
532.14	36067.66
532.31	36100.42
532.48	36877.48
532.65	36837.69
532.82	36788.54
532.99	36624.70
533.16	36016.16
533.33	36430.44
533.50	36723.01
533.67	36842.37
533.84	36919.61
534.01	36587.25
534.18	36673.85
534.35	36999.19
534.52	36938.33
534.69	37589.00
534.86	37041.32
535.03	36919.61
535.20	37350.27
535.37	37390.06
535.54	37488.36
535.71	36858.76
535.88	37900.29
536.05	37181.75
536.22	37343.25
536.38	37113.87
536.55	37350.27
536.72	37317.50
536.89	37464.96
537.06	37457.93
537.23	38012.64
537.40	37432.19
537.57	37598.37
537.74	37471.98
537.91	38583.73
538.08	38087.54
538.25	37652.20
538.42	38026.68
538.59	38639.90
538.75	38031.36
538.92	38719.48
539.09	38375.42
539.26	38424.57
539.43	38246.69
539.60	38256.06
539.77	38487.77
539.94	38787.36
540.11	38480.75
540.28	38686.71
540.44	38007.96
540.61	38548.62
540.78	38880.98
540.95	38937.15
541.12	38560.33
541.29	38616.50
541.46	38892.68
541.62	38600.12
541.79	38955.88
541.96	38616.50
542.13	38721.82
542.30	39159.50
542.47	39248.44
542.63	39140.78
542.80	39166.52
542.97	39421.64
543.14	39707.19
543.31	39192.27
543.48	39372.49
543.64	39988.05
543.81	39707.19
543.98	40301.68
544.15	39655.70
544.32	39538.67
544.48	40549.78
544.65	40013.80
544.82	39899.11
544.99	39536.33
545.16	40065.29
545.32	40034.86
545.49	40184.66
545.66	40605.95
545.83	40322.75
546.00	40343.81
546.16	40032.52
546.33	40076.99
546.50	40446.80
546.67	40348.50
546.83	40140.19
547.00	40327.43
547.17	40617.66
547.34	40060.61
547.50	40605.95
547.67	40828.30
547.84	40568.51
548.00	40704.26
548.17	41069.38
548.34	41092.79
548.51	41024.91
548.67	41092.79
548.84	40582.55
549.01	40788.52
549.18	40676.17
549.34	41319.82
549.51	41406.42
549.68	41167.68
549.84	41163.00
550.01	41333.86
550.18	40739.36
550.34	41411.10
550.51	41581.96
550.68	41333.86
550.84	41123.21
551.01	41591.32
551.18	41251.94
551.34	41715.37
551.51	41741.11
551.68	41502.38
551.84	41181.73
552.01	41411.10
552.18	41769.20
552.34	41656.85
552.51	41614.72
552.68	41177.04
552.84	41085.76
553.01	41837.08
553.18	41867.50
553.34	41762.18
553.51	41727.07
553.67	41682.60
553.84	42321.57
554.01	41909.63
554.17	42038.36
554.34	42183.48
554.51	42281.78
554.67	42438.59
554.84	42124.96
555.00	42277.10
555.17	42043.04
555.33	42508.81
555.50	42178.79
555.67	42408.17
555.83	41991.55
556.00	42071.13
556.16	42724.14
556.33	42368.38
556.50	42529.87
556.66	42478.38
556.83	42686.69
556.99	42642.22
557.16	42972.24
557.32	42923.08
557.49	43002.66
557.65	42199.86
557.82	42447.96
557.98	43115.01
558.15	43274.16
558.32	42752.23
558.48	42768.61
558.65	42768.61
558.81	42946.49
558.98	42815.42
559.14	42777.97
559.31	42700.73
559.47	42934.79
559.64	43330.34
559.80	43374.81
559.97	42869.25
560.13	43035.43
560.30	43089.26
560.46	43133.73
560.63	43210.97
560.79	43016.71
560.96	43697.80
561.12	43264.80
561.29	43398.21
561.45	43655.67
561.61	42990.96
561.78	43159.48
561.94	43225.01
562.11	43545.67
562.27	43157.14
562.44	43625.25
562.60	43866.32
562.77	43945.90
562.93	43587.80
563.10	43768.02
563.26	43264.80
563.42	44179.95
563.59	43522.26
563.75	43732.91
563.92	43363.11
564.08	43669.72
564.24	43917.81
564.41	43372.47
564.57	43817.17
564.74	43674.40
564.90	43395.87
565.07	43344.38
565.23	43796.10
565.39	43707.16
565.56	43650.99
565.72	44154.21
565.88	43964.62
566.05	43711.84
566.21	44079.31
566.38	43985.69
566.54	44016.11
566.70	43648.65
566.87	43859.30
567.03	43683.76
567.19	43938.88
567.36	43770.36
567.52	44079.31
567.68	44280.60
567.85	44325.07
568.01	44020.80
568.17	43796.10
568.34	43873.34
568.50	43826.53
568.66	44046.54
568.83	44301.66
568.99	44069.95
569.15	44095.69
569.32	43952.92
569.48	43985.69
569.64	44456.14
569.81	43957.60
569.97	43852.28
570.13	44456.14
570.30	43950.58
570.46	44369.54
570.62	44285.28
570.78	43929.51
570.95	44315.70
571.11	44423.37
571.27	44062.93
571.43	44390.60
571.60	44451.45
571.76	44137.82
571.92	44133.14
572.09	44051.22
572.25	44011.43
572.41	44046.54
572.57	44268.89
572.74	44046.54
572.90	44048.88
573.06	44442.09
573.22	44385.92
573.38	44767.43
573.55	44687.85
573.71	44809.56
573.87	44580.18
574.03	44491.24
574.20	44907.86
574.36	44617.63
574.52	44467.84
574.68	44868.07
574.84	45200.43
575.01	44774.45
575.17	44774.45
575.33	44685.51
575.49	44233.78
575.65	44776.79
575.82	44671.46
575.98	44622.31
576.14	44739.34
576.30	44910.20
576.46	44765.09
576.62	44715.93
576.79	44839.98
576.95	44341.45
577.11	44142.50
577.27	44512.31
577.43	44678.49
577.59	44954.67
577.75	44512.31
577.92	44615.29
578.08	44596.57
578.24	44811.90
578.40	44758.06
578.56	44809.56
578.72	44928.92
578.88	44697.21
579.04	44872.75
579.21	44521.67
579.37	44868.07
579.53	44676.15
579.69	44306.34
579.85	44776.79
580.01	44460.82
580.17	44722.96
580.33	45052.97
580.49	45001.48
580.65	44589.55
580.82	45155.96
580.98	45095.10
581.14	44488.90
581.30	44921.90
581.46	44369.54
581.62	44692.53
581.78	44615.29
581.94	44954.67
582.10	44669.12
582.26	45261.28
582.42	44961.69
582.58	44753.38
582.74	45177.02
582.90	44804.88
583.06	45256.60
583.22	44641.04
583.38	44957.01
583.54	45057.65
583.70	45029.57
583.86	44776.79
584.02	45057.65
584.18	45490.65
584.34	45141.91
584.50	45294.05
584.66	45507.04
584.82	45045.95
584.98	45406.39
585.14	45198.09
585.30	44884.45
585.46	44907.86
585.62	44516.99
585.78	45003.82
585.94	44516.99
586.10	44737.00
586.26	45045.95
586.42	44938.29
586.58	44982.76
586.74	44793.17
586.90	44802.53
587.06	44701.89
587.22	44821.26
587.38	45263.62
587.54	45301.07
587.70	45277.66
587.86	44758.06
588.02	44957.01
588.18	45366.60
588.34	45064.67
588.49	45191.06
588.65	44968.71
588.81	45090.42
588.97	44987.44
589.13	44722.96
589.29	44744.02
589.45	45492.99
589.61	44935.95
589.77	45324.47
589.93	44921.90
590.08	45078.72
590.24	45394.69
590.40	45872.16
590.56	46003.23
590.72	45392.35
590.88	45628.74
591.04	45237.87
591.20	45397.03
591.35	45329.16
591.51	45619.38
591.67	45628.74
591.83	46040.68
591.99	45778.54
592.15	45153.62
592.31	45680.24
592.46	45352.56
592.62	45394.69
592.78	45640.45
592.94	45567.89
593.10	45865.14
593.26	45806.62
593.41	45750.45
593.57	45785.56
593.73	45748.11
593.89	45778.54
594.05	46351.97
594.20	45897.91
594.36	45663.85
594.52	45921.31
594.68	45940.04
594.84	45336.18
594.99	45221.49
595.15	45673.21
595.31	45755.13
595.47	45734.07
595.62	45710.66
595.78	45944.72
595.94	45874.50
596.10	46012.59
596.25	45600.66
596.41	45865.14
596.57	45621.72
596.73	45708.32
596.88	45911.95
597.04	45500.01
597.20	45453.20
597.36	45902.59
597.51	46218.56
597.67	45490.65
597.83	45970.46
597.99	45535.12
598.14	46096.85
598.30	45808.96
598.46	45509.38
598.61	45694.28
598.77	46045.36
598.93	45790.24
599.09	46560.28
599.24	45813.65
599.40	46036.00
599.56	45584.27
599.71	46223.24
599.87	46206.86
600.03	46206.86
600.18	45792.58
600.34	45907.27
600.50	46138.98
600.65	45694.28
600.81	46120.26
600.97	46300.48
601.12	46148.34
601.28	46129.62
601.44	45869.82
601.59	45872.16
601.75	45883.86
601.91	46143.66
602.06	45808.96
602.22	46253.67
602.37	45897.91
602.53	45989.19
602.69	46138.98
602.84	45446.18
603.00	45551.51
603.16	46113.23
603.31	45717.68
603.47	46050.04
603.62	46071.10
603.78	46597.73
603.94	46108.55
604.09	46092.17
604.25	45855.78
604.40	46202.18
604.56	46099.19
604.71	46258.35
604.87	45961.10
605.03	45633.42
605.18	45935.35
605.34	45972.80
605.49	45876.84
605.65	45963.44
605.80	45572.57
605.96	45872.16
606.12	45642.79
606.27	45979.82
606.43	45338.52
606.58	46375.37
606.74	45642.79
606.89	45928.33
607.05	46136.64
607.20	46099.19
607.36	46127.28
607.51	45535.12
607.67	45668.53
607.82	45504.70
607.98	45645.13
608.13	45975.14
608.29	45668.53
608.44	45698.96
608.60	45696.62
608.75	45860.46
608.91	45518.74
609.06	45617.04
609.22	45418.10
609.37	45162.98
609.53	45848.75
609.68	45696.62
609.84	45490.65
609.99	45684.92
610.15	45687.26
610.30	45654.49
610.46	45549.17
610.61	45631.08
610.76	45968.12
610.92	45125.53
611.07	45034.25
611.23	45500.01
611.38	45366.60
611.54	45600.66
611.69	45691.94
611.84	45413.41
612.00	45453.20
612.15	45523.42
612.31	45577.25
612.46	45209.79
612.62	45336.18
612.77	44877.43
612.92	45563.21
613.08	45223.83
613.23	45495.33
613.39	44966.37
613.54	45057.65
613.69	45172.34
613.85	45301.07
614.00	45340.86
614.15	45687.26
614.31	44512.31
614.46	45308.09
614.62	45244.90
614.77	45003.82
614.92	45296.39
615.08	45675.55
615.23	45104.46
615.38	45687.26
615.54	45020.20
615.69	45394.69
615.84	44839.98
616.00	45441.50
616.15	45518.74
616.30	45043.61
616.46	45022.54
616.61	44957.01
616.76	45464.91
616.92	44751.04
617.07	44996.80
617.22	44500.61
617.37	44641.04
617.53	44870.41
617.68	44893.82
617.83	45219.15
617.99	44849.35
618.14	45090.42
618.29	44788.49
618.45	44641.04
618.60	44631.68
618.75	44463.16
618.90	45111.49
619.06	44830.62
619.21	44779.13
619.36	44783.81
619.51	44547.42
619.67	44259.53
619.82	44524.01
619.97	44942.97
620.12	44390.60
620.28	44528.69
620.43	44940.63
620.58	44465.50
620.73	45116.17
620.89	45170.00
621.04	44224.42
621.19	44540.39
621.34	44526.35
621.49	43981.01
621.65	44203.36
621.80	44521.67
621.95	44226.76
622.10	44477.20
622.25	44451.45
622.41	44741.68
622.56	44411.67
622.71	44076.97
622.86	44449.11
623.01	44399.96
623.16	43845.26
623.32	44519.33
623.47	44484.22
623.62	43976.33
623.77	44119.10
623.92	44114.42
624.07	44395.28
624.23	43995.05
624.38	44140.16
624.53	43672.06
624.68	43765.68
624.83	43966.96
624.98	44074.63
625.13	43405.23
625.29	43746.95
625.44	44226.76
625.59	44179.95
625.74	43793.76
625.89	43863.98
626.04	44299.32
626.19	43824.19
626.34	43679.08
626.49	43594.82
626.65	43063.52
626.80	43428.64
626.95	43222.67
627.10	42728.82
627.25	44044.20
627.40	43459.07
627.55	43765.68
627.70	43225.01
627.85	43426.30
628.00	43681.42
628.15	43484.81
628.30	42974.58
628.45	43049.47
628.60	42810.74
628.76	43339.70
628.91	42906.70
629.06	42705.41
629.21	42726.48
629.36	43189.91
629.51	43040.11
629.66	43278.85
629.81	43253.10
629.96	42979.26
630.11	43042.45
630.26	42726.48
630.41	43037.77
630.56	43075.22
630.71	43239.06
630.86	42848.19
631.01	42469.02
631.16	43016.71
631.31	42490.09
631.46	42911.38
631.61	42948.83
631.76	43363.11
631.91	43063.52
632.06	42946.49
632.21	42756.91
632.36	42916.06
632.51	42361.36
632.66	42621.16
632.81	42747.54
632.96	42745.20
633.10	42377.74
633.25	42366.04
633.40	42703.07
633.55	42735.84
633.70	42550.94
633.85	42492.43
634.00	42492.43
634.15	42649.24
634.30	42211.56
634.45	42321.57
634.60	42333.27
634.75	42408.17
634.90	42124.96
635.05	42639.88
635.19	42087.51
635.34	42136.66
635.49	42251.35
635.64	42209.22
635.79	42314.55
635.94	42426.89
636.09	42206.88
636.24	41993.89
636.39	42293.48
636.53	42148.37
636.68	41518.76
636.83	41846.44
636.98	41640.47
637.13	41776.22
637.28	41596.00
637.43	41764.52
637.57	41844.10
637.72	41429.82
637.87	41986.87
638.02	42197.52
638.17	41926.02
638.32	41787.92
638.46	41579.62
638.61	41956.44
638.76	41610.04
638.91	41734.09
639.06	41642.81
639.20	41617.07
639.35	41706.01
639.50	41340.88
639.65	41972.83
639.80	41670.90
639.94	42108.58
640.09	41635.79
640.24	41324.50
640.39	41366.63
640.54	40975.76
640.68	41247.26
640.83	41572.60
640.98	41553.87
641.13	40837.67
641.27	41862.82
641.42	41179.39
641.57	40879.80
641.72	41354.93
641.86	40685.53
642.01	40985.12
642.16	40980.44
642.31	40767.45
642.45	41144.28
642.60	40650.42
642.75	40959.38
642.90	41556.21
643.04	40982.78
643.19	41170.02
643.34	40627.02
643.48	40737.02
643.63	40779.15
643.78	41069.38
643.93	40767.45
644.07	41001.50
644.22	41095.13
644.37	40641.06
644.51	41338.54
644.66	40872.78
644.81	40711.28
644.95	40992.14
645.10	40699.58
645.25	40453.82
645.39	40002.10
645.54	40467.86
645.69	40271.26
645.83	40357.86
645.98	40308.71
646.13	40664.47
646.27	40121.46
646.42	40257.21
646.57	40460.84
646.71	40708.94
646.86	40875.12
647.00	40390.62
647.15	40416.37
647.30	40268.92
647.44	40376.58
647.59	40205.72
647.74	40055.93
647.88	40304.02
648.03	40282.96
648.17	40718.30
648.32	40170.61
648.47	40311.05
648.61	39885.07
648.76	40280.62
648.90	39597.18
649.05	39730.59
649.20	40135.51
649.34	40011.46
649.49	40437.44
649.63	39878.05
649.78	40041.88
649.92	40198.70
650.07	40187.00
650.21	40168.27
650.36	40545.10
650.51	40456.16
650.65	39976.35
650.80	40088.70
650.94	40009.12
651.09	39922.52
651.23	39435.69
651.38	39407.60
651.52	38923.11
651.67	39608.89
651.81	39431.01
651.96	39627.61
652.10	38871.62
652.25	39484.84
652.39	39606.55
652.54	39435.69
652.68	39402.92
652.83	39629.95
652.97	39248.44
653.12	39360.79
653.26	39037.80
653.41	39089.29
653.55	38916.09
653.70	39061.20
653.84	38974.60
653.99	39262.49
654.13	39199.29
654.27	39201.63
654.42	39058.86
654.56	38600.12
654.71	39168.87
654.85	39199.29
655.00	39206.31
655.14	39098.65
655.29	39526.97
655.43	39206.31
655.57	38639.90
655.72	38813.10
655.86	38939.49
656.01	38459.68
656.15	39007.37
656.30	38717.14
656.44	39103.33
656.58	38965.24
656.73	38946.51
656.87	38522.88
657.01	38101.58
657.16	38579.05
657.30	38848.21
657.45	38602.46
657.59	38209.25
657.73	38337.98
657.88	38469.04
658.02	39040.14
658.16	38796.72
658.31	38246.69
658.45	38417.55
658.60	38216.27
658.74	38471.39
658.88	38520.54
659.03	38295.85
659.17	37710.71
659.31	37970.51
659.46	37724.75
659.60	38546.28
659.74	37977.53
659.89	37790.29
660.03	37413.46
660.17	38153.07
660.32	37958.81
660.46	37392.40
660.60	37581.98
660.74	37659.22
660.89	37902.64
661.03	37064.72
661.17	37537.51
661.32	37408.78
661.46	37792.63
661.60	37099.83
661.74	37280.05
661.89	36868.12
662.03	37270.69
662.17	36854.08
662.31	36807.26
662.46	36973.44
662.60	36718.32
662.74	36620.02
662.88	36952.38
663.03	36449.16
663.17	36807.26
663.31	36746.41
663.45	36641.09
663.60	37240.26
663.74	37172.39
663.88	36905.57
664.02	36603.64
664.17	37130.26
664.31	36428.10
664.45	36292.35
664.59	36299.37
664.73	36432.78
664.88	36514.70
665.02	35913.18
665.16	35959.99
665.30	36177.66
665.44	36266.60
665.59	36205.75
665.73	36004.46
665.87	35683.81
666.01	35887.43
666.15	35892.12
666.29	35480.18
666.44	35929.56
666.58	35747.00
666.72	35253.15
666.86	35412.31
667.00	35477.84
667.14	35695.51
667.28	35761.05
667.43	35564.44
667.57	35526.99
667.71	35590.19
667.85	35384.22
667.99	35690.83
668.13	35082.29
668.27	34925.47
668.41	35098.67
668.56	34520.56
668.70	34176.50
668.84	34675.04
668.98	34581.42
669.12	34632.91
669.26	34595.46
669.40	34763.98
669.54	34656.31
669.68	34590.78
669.82	34328.64
669.96	34047.77
670.10	33750.52
670.25	33731.80
670.39	33771.59
670.53	34527.58
670.67	33834.78
670.81	34408.22
670.95	33968.19
671.09	33841.81
671.23	33696.69
671.37	33574.98
671.51	33610.09
671.65	33787.97
671.79	33537.54
671.93	33600.73
672.07	34080.54
672.21	33226.24
672.35	33069.43
672.49	33226.24
672.63	33172.41
672.77	32807.29
672.91	32952.40
673.05	32872.82
673.19	33003.89
673.33	32987.51
673.47	32720.69
673.61	32636.43
673.75	32278.33
673.89	32470.25
674.03	31981.08
674.17	32325.14
674.31	31941.29
674.45	31967.04
674.59	32275.99
674.73	31658.09
674.87	32063.00
675.01	31658.09
675.15	31740.00
675.29	31271.90
675.43	31566.81
675.56	32086.40
675.70	31365.52
675.84	31714.26
675.98	30719.53
676.12	31386.58
676.26	31531.70
676.40	30913.80
676.54	30951.24
676.68	30909.11
676.82	30607.19
676.96	30639.95
677.10	30675.06
677.23	30733.57
677.37	30473.78
677.51	30595.48
677.65	30380.15
677.79	30026.73
677.93	30068.86
678.07	30389.52
678.21	29696.72
678.34	29626.50
678.48	29268.40
678.62	29748.21
678.76	29663.95
678.90	29256.70
679.04	29628.84
679.18	29593.73
679.31	28662.20
679.45	29067.11
679.59	28561.56
679.73	29125.63
679.87	28507.72
680.00	28510.07
680.14	28800.29
680.28	28603.69
680.42	28479.64
680.56	28203.46
680.70	28320.48
680.83	27718.96
680.97	27807.90
681.11	27742.37
681.25	27866.42
681.39	27814.93
681.52	27655.77
681.66	27606.62
681.80	27442.78
681.94	27419.38
682.07	27204.05
682.21	27157.24
682.35	27363.20
682.49	26677.43
682.62	26862.33
682.76	27185.32
682.90	27175.96
683.04	26902.12
683.17	26361.45
683.31	26497.20
683.45	26223.36
683.59	26029.10
683.72	26047.82
683.86	26331.03
684.00	25816.11
684.13	25785.68
684.27	25781.00
684.41	25666.31
684.55	25413.54
684.68	25509.50
684.82	25333.96
684.96	25579.71
685.09	25369.07
685.23	25298.85
685.37	25495.46
685.50	25317.57
685.64	25010.96
685.78	25301.19
685.91	25144.38
686.05	24514.77
686.19	24496.05
686.32	24006.87
686.46	24018.58
686.60	24109.86
686.73	24348.59
686.87	24154.33
687.01	24414.13
687.14	24182.42
687.28	24175.39
687.42	23639.41
687.55	23466.21
687.69	23995.17
687.82	23707.29
687.96	23571.54
688.10	23571.54
688.23	23396.00
688.37	23232.16
688.50	23417.06
688.64	23019.17
688.78	22738.30
688.91	22827.24
689.05	22986.40
689.18	22775.75
689.32	21970.61
689.46	22478.50
689.59	22340.41
689.73	22398.93
689.86	22511.27
690.00	22338.07
690.13	22377.86
690.27	21788.05
690.41	22003.38
690.54	21816.13
690.68	21862.94
690.81	21729.53
690.95	21451.01
691.08	21331.64
691.22	21460.37
691.35	21458.03
691.49	21413.56
691.62	21172.49
691.76	20720.76
691.89	20917.37
692.03	20652.89
692.16	20648.21
692.30	20638.84
692.43	20601.40
692.57	20393.09
692.70	20297.13
692.84	20217.55
692.97	19969.45
693.11	20130.95
693.24	19798.59
693.38	19543.47
693.51	19730.72
693.65	19442.83
693.78	19683.91
693.92	19566.88
694.05	19491.98
694.19	19489.64
694.32	19410.06
694.45	19564.54
694.59	19662.84
694.72	19520.07
694.86	19372.61
694.99	18780.46
695.13	18597.90
695.26	18785.14
695.39	18609.60
695.53	18752.37
695.66	18630.66
695.80	18427.04
695.93	18188.30
696.07	18202.35
696.20	17909.78
696.33	17792.75
696.47	17759.98
696.60	17724.88
696.73	17582.10
696.87	17907.44
697.00	17582.10
697.14	17621.89
697.27	17554.02
697.40	17640.62
697.54	17458.06
697.67	17558.70
697.80	17301.24
697.94	17048.46
698.07	16828.45
698.21	17282.52
698.34	17013.35
698.47	16957.18
698.61	16395.45
698.74	16554.61
698.87	16397.79
699.01	16299.49
699.14	16425.88
699.27	16278.43
699.40	16346.30
699.54	16100.55
699.67	16091.18
699.80	16107.57
699.94	15995.22
700.07	16257.36
700.20	16030.33
700.34	15803.30
700.47	15962.45
700.60	15981.18
700.73	15555.20
700.87	15541.16
701.00	15269.66
701.13	14923.26
701.26	15073.05
701.40	15054.33
701.53	14806.23
701.66	15157.31
701.79	15037.94
701.93	14824.95
702.06	14855.38
702.19	14576.86
702.32	14864.74
702.46	14644.73
702.59	14558.13
702.72	14717.29
702.85	14508.98
702.99	14286.63
703.12	14288.97
703.25	14146.20
703.38	14122.79
703.51	13930.87
703.65	14080.66
703.78	13980.02
703.91	13919.17
704.04	13692.13
704.17	13579.79
704.31	13680.43
704.44	13511.91
704.57	13528.30
704.70	13542.34
704.83	13507.23
704.96	13188.92
705.10	13153.81
705.23	13149.13
>>>>>End Processed Spectral Data<<<<<
