SpectraSuite Data File
++++++++++++++++++++++++++++++++++++
Date: Fri Oct 25 11:34:23 EDT 2013
User: price-jones
Dark Spectrum Present: No
Reference Spectrum Present: No
Number of Sampled Component Spectra: 1
Spectrometers: USB2+H05261
Integration Time (usec): 100000 (USB2+H05261)
Spectra Averaged: 1 (USB2+H05261)
Boxcar Smoothing: 0 (USB2+H05261)
Correct for Electrical Dark: No (USB2+H05261)
Strobe/Lamp Enabled: No (USB2+H05261)
Correct for Detector Non-linearity: No (USB2+H05261)
Correct for Stray Light: No (USB2+H05261)
Number of Pixels in Processed Spectrum: 2048
>>>>>Begin Processed Spectral Data<<<<<
365.73	283.20
365.92	283.20
366.12	283.20
366.32	198.95
366.52	224.69
366.72	133.41
366.91	152.13
367.11	205.97
367.31	220.01
367.51	184.90
367.70	147.45
367.90	135.75
368.10	227.03
368.30	117.03
368.49	266.82
368.69	245.76
368.89	238.73
369.09	170.86
369.28	212.99
369.48	187.24
369.68	241.08
369.87	198.95
370.07	290.23
370.27	337.04
370.47	306.61
370.66	397.89
370.86	540.66
371.06	535.98
371.25	580.45
371.45	557.05
371.65	596.84
371.84	564.07
372.04	538.32
372.24	547.69
372.44	543.00
372.63	571.09
372.83	458.74
373.03	660.03
373.22	582.79
373.42	599.18
373.62	620.24
373.81	629.60
374.01	587.47
374.21	727.91
374.40	561.73
374.60	667.05
374.79	660.03
374.99	664.71
375.19	727.91
375.38	653.01
375.58	608.54
375.78	627.26
375.97	676.41
376.17	674.07
376.37	624.92
376.56	692.80
376.76	774.72
376.95	603.86
377.15	653.01
377.35	697.48
377.54	709.18
377.74	634.29
377.93	653.01
378.13	746.63
378.33	755.99
378.52	685.78
378.72	727.91
378.91	690.46
379.11	723.23
379.31	711.52
379.50	844.93
379.70	751.31
379.89	746.63
380.09	664.71
380.28	688.12
380.48	732.59
380.68	706.84
380.87	720.88
381.07	746.63
381.26	765.36
381.46	851.96
381.65	765.36
381.85	746.63
382.04	716.20
382.24	760.67
382.43	791.10
382.63	800.46
382.83	732.59
383.02	767.70
383.22	791.10
383.41	779.40
383.61	723.23
383.80	840.25
384.00	847.27
384.19	788.76
384.39	812.17
384.58	844.93
384.78	828.55
384.97	844.93
385.17	837.91
385.36	917.49
385.56	863.66
385.75	905.79
385.95	814.51
386.14	821.53
386.34	851.96
386.53	767.70
386.72	894.08
386.92	866.00
387.11	870.68
387.31	905.79
387.50	851.96
387.70	917.49
387.89	908.13
388.09	905.79
388.28	950.26
388.48	873.02
388.67	929.19
388.86	910.47
389.06	917.49
389.25	966.64
389.45	980.68
389.64	901.11
389.84	992.39
390.03	976.00
390.22	1011.11
390.42	940.90
390.61	938.55
390.81	894.08
391.00	905.79
391.19	985.37
391.39	873.02
391.58	1039.20
391.78	929.19
391.97	1011.11
392.16	1043.88
392.36	1008.77
392.55	1041.54
392.75	1013.45
392.94	966.64
393.13	1060.26
393.33	1025.15
393.52	1090.69
393.71	1151.54
393.91	1067.28
394.10	1128.14
394.29	1027.50
394.49	1104.73
394.68	1029.84
394.88	1137.50
395.07	1193.67
395.26	1153.88
395.46	1114.10
395.65	1086.01
395.84	1217.08
396.04	1263.89
396.23	1137.50
396.42	1123.46
396.62	1139.84
396.81	1156.22
397.00	1144.52
397.19	1196.01
397.39	1207.72
397.58	1153.88
397.77	1170.27
397.97	1196.01
398.16	1231.12
398.35	1130.48
398.55	1217.08
398.74	1308.36
398.93	1334.11
399.12	1191.33
399.32	1247.51
399.51	1275.59
399.70	1324.74
399.90	1355.17
400.09	1334.11
400.28	1336.45
400.47	1348.15
400.67	1373.89
400.86	1357.51
401.05	1420.71
401.24	1315.38
401.44	1444.11
401.63	1362.19
401.82	1416.02
402.01	1432.41
402.21	1355.17
402.40	1458.15
402.59	1432.41
402.78	1451.13
402.97	1502.62
403.17	1462.83
403.36	1495.60
403.55	1486.24
403.74	1568.16
403.93	1523.69
404.13	1661.78
404.32	1544.75
404.51	1528.37
404.70	1619.65
404.89	1638.38
405.09	1652.42
405.28	1584.54
405.47	1722.63
405.66	1640.72
405.85	1633.69
406.05	1654.76
406.24	1673.48
406.43	1708.59
406.62	1720.29
406.81	1689.87
407.00	1650.08
407.20	1743.70
407.39	1767.10
407.58	1863.07
407.77	1650.08
407.96	1902.86
408.15	1820.94
408.34	1795.19
408.54	1851.36
408.73	1834.98
408.92	1830.30
409.11	1914.56
409.30	1834.98
409.49	1797.53
409.68	1921.58
409.87	1935.62
410.07	2054.99
410.26	1954.35
410.45	2015.20
410.64	2026.90
410.83	2085.42
411.02	1966.05
411.21	2001.16
411.40	2029.24
411.59	2125.21
411.78	2157.97
411.98	2284.36
412.17	2143.93
412.36	2253.94
412.55	2179.04
412.74	2218.83
412.93	2225.85
413.12	2310.11
413.31	2368.62
413.50	2237.55
413.69	2258.62
413.88	2363.94
414.07	2473.95
414.26	2380.32
414.45	2345.22
414.64	2457.56
414.83	2541.82
415.02	2593.31
415.22	2576.93
415.41	2478.63
415.60	2630.76
415.79	2651.83
415.98	2658.85
416.17	2703.32
416.36	2661.19
416.55	2853.11
416.74	2670.55
416.93	2691.62
417.12	2644.81
417.31	2745.45
417.50	2700.98
417.69	2918.65
417.88	2956.10
418.07	2918.65
418.26	2761.83
418.45	2918.65
418.64	3028.65
418.83	2920.99
419.02	3005.25
419.21	2998.23
419.39	3061.42
419.58	2974.82
419.77	2888.22
419.96	3056.74
420.15	3014.61
420.34	3063.76
420.53	3126.96
420.72	3110.57
420.91	3145.68
421.10	3052.06
421.29	3040.36
421.48	3077.80
421.67	3169.09
421.86	3171.43
422.05	3145.68
422.24	3082.49
422.43	3309.52
422.61	3225.26
422.80	3375.05
422.99	3295.47
423.18	3283.77
423.37	3368.03
423.56	3297.81
423.75	3253.34
423.94	3180.79
424.13	2993.55
424.32	3286.11
424.50	3311.86
424.69	3290.79
424.88	3363.35
425.07	3286.11
425.26	3236.96
425.45	3377.39
425.64	3218.24
425.83	3279.09
426.01	3349.31
426.20	3297.81
426.39	3389.10
426.58	3377.39
426.77	3316.54
426.96	3440.59
427.15	3536.55
427.33	3438.25
427.52	3349.31
427.71	3501.44
427.90	3440.59
428.09	3574.00
428.28	3520.17
428.46	3646.55
428.65	3599.74
428.84	3730.81
429.03	3676.98
429.22	3517.83
429.40	3686.34
429.59	3653.58
429.78	3616.13
429.97	3468.67
430.16	3674.64
430.34	3686.34
430.53	3768.26
430.72	3660.60
430.91	3754.22
431.10	3744.86
431.28	3754.22
431.47	3927.42
431.66	3988.27
431.85	3770.60
432.03	3875.93
432.22	4049.13
432.41	3871.25
432.60	4142.75
432.79	3815.07
432.97	3950.82
433.16	3950.82
433.35	3908.69
433.54	4030.40
433.72	4067.85
433.91	4011.68
434.10	3978.91
434.28	3955.51
434.47	4060.83
434.66	4121.68
434.85	4072.53
435.03	4128.70
435.22	4058.49
435.41	4372.12
435.59	4383.82
435.78	4304.25
435.97	4292.54
436.16	4257.43
436.34	4198.92
436.53	4245.73
436.72	4395.53
436.90	4117.00
437.09	4329.99
437.28	4278.50
437.46	4465.74
437.65	4430.63
437.84	4517.23
438.02	4409.57
438.21	4507.87
438.40	4418.93
438.58	4610.86
438.77	4578.09
438.96	4638.94
439.14	4578.09
439.33	4716.18
439.52	4767.67
439.70	4690.43
439.89	4688.09
440.08	4849.59
440.26	4851.93
440.45	4814.48
440.63	4922.15
440.82	4968.96
441.01	4926.83
441.19	5149.18
441.38	5053.22
441.57	5172.58
441.75	5214.71
441.94	5195.99
442.12	5032.15
442.31	5123.43
442.50	5238.12
442.68	5296.63
442.87	5261.52
443.05	5240.46
443.24	5444.09
443.43	5245.14
443.61	5331.74
443.80	5521.32
443.98	5425.36
444.17	5200.67
444.35	5385.57
444.54	5500.26
444.73	5408.98
444.91	5434.72
445.10	5420.68
445.28	5479.19
445.47	5308.34
445.65	5366.85
445.84	5490.90
446.02	5575.16
446.21	5568.13
446.39	5369.19
446.58	5565.79
446.77	5598.56
446.95	5397.28
447.14	5486.22
447.32	5544.73
447.51	5631.33
447.69	5610.26
447.88	5413.66
448.06	5469.83
448.25	5568.13
448.43	5584.52
448.62	5586.86
448.80	5640.69
448.99	5633.67
449.17	5795.17
449.36	5547.07
449.54	5923.90
449.73	5727.29
449.91	5769.42
450.10	5879.43
450.28	5912.19
450.46	5865.38
450.65	5860.70
450.83	5942.62
451.02	5886.45
451.20	6153.27
451.39	6019.86
451.57	5980.07
451.76	6012.84
451.94	6017.52
452.13	6061.99
452.31	6057.31
452.49	6085.39
452.68	6090.07
452.86	5977.73
453.05	6094.76
453.23	6207.10
453.42	6160.29
453.60	6190.72
453.78	6246.89
453.97	6108.80
454.15	6305.40
454.34	6099.44
454.52	6214.12
454.70	6363.92
454.89	6108.80
455.07	6471.58
455.26	6476.26
455.44	6525.41
455.62	6492.65
455.81	6427.11
455.99	6539.46
456.17	6452.86
456.36	6642.44
456.54	6696.27
456.73	6546.48
456.91	6808.62
457.09	6946.71
457.28	6885.86
457.46	6726.70
457.64	6942.03
457.83	6829.68
458.01	6715.00
458.19	7047.35
458.38	6792.23
458.56	6977.14
458.74	6855.43
458.93	6986.50
459.11	6932.67
459.29	6817.98
459.48	6817.98
459.66	7255.66
459.84	7040.33
460.03	7016.93
460.21	7101.19
460.39	7073.10
460.57	7250.98
460.76	7302.47
460.94	7101.19
461.12	7290.77
461.31	7103.53
461.49	7375.03
461.67	7318.86
461.85	7494.40
462.04	7421.84
462.22	7770.58
462.40	7599.72
462.59	7534.18
462.77	7459.29
462.95	7475.67
463.13	7585.68
463.32	7581.00
463.50	7595.04
463.68	7524.82
463.86	7803.35
464.05	7620.78
464.23	7559.93
464.41	7623.12
464.59	7564.61
464.78	7824.41
464.96	7749.51
465.14	7660.57
465.32	7866.54
465.50	8035.06
465.69	7932.08
465.87	7864.20
466.05	7854.84
466.23	7857.18
466.41	7978.89
466.60	8013.99
466.78	7861.86
466.96	7981.23
467.14	7854.84
467.32	7906.33
467.51	8032.72
467.69	7817.39
467.87	7836.11
468.05	7985.91
468.23	8006.97
468.41	8161.45
468.60	8224.64
468.78	8255.07
468.96	8112.30
469.14	8341.67
469.32	8290.18
469.50	8299.54
469.69	8444.65
469.87	8313.58
470.05	8414.23
470.23	8468.06
470.41	8397.84
470.59	8505.51
470.77	8470.40
470.95	8456.36
471.14	8664.66
471.32	8355.71
471.50	8636.58
471.68	8905.74
471.86	8798.07
472.04	8994.68
472.22	8999.36
472.40	8704.45
472.58	8798.07
472.77	8994.68
472.95	9020.42
473.13	9399.59
473.31	9015.74
473.49	9057.87
473.67	9004.04
473.85	9193.62
474.03	9137.45
474.21	9350.44
474.39	9334.06
474.57	9427.68
474.75	9467.47
474.93	9631.30
475.12	9582.15
475.30	9696.84
475.48	9638.33
475.66	9668.75
475.84	9818.55
476.02	9678.12
476.20	9731.95
476.38	10054.94
476.56	10274.95
476.74	10148.56
476.92	10204.74
477.10	10338.15
477.28	10319.42
477.46	10099.41
477.64	10260.91
477.82	10235.16
478.00	10888.17
478.18	10635.39
478.36	10956.05
478.54	10883.49
478.72	11009.88
478.90	11136.27
479.08	11187.76
479.26	11164.36
479.44	11379.68
479.62	11159.67
479.80	11400.75
479.98	11850.13
480.16	11698.00
480.34	11583.31
480.52	11810.34
480.70	12088.87
480.88	11695.66
481.06	11843.11
481.24	11875.88
481.41	12063.12
481.59	12524.21
481.77	12386.12
481.95	12278.45
482.13	12624.85
482.31	12828.48
482.49	12870.61
482.67	12769.96
482.85	12908.05
483.03	13121.04
483.21	13160.83
483.39	13294.24
483.57	13095.30
483.74	13322.33
483.92	13373.82
484.10	13413.61
484.28	13846.61
484.46	14075.98
484.64	14033.85
484.82	13769.37
485.00	14127.47
485.18	14249.18
485.35	14558.13
485.53	14506.64
485.71	14614.30
485.89	14977.09
486.07	14822.61
486.25	14728.99
486.43	14904.53
486.61	15192.42
486.78	15183.06
486.96	15325.83
487.14	15676.91
487.32	15723.72
487.50	15674.57
487.68	15983.52
487.85	16102.89
488.03	16182.46
488.21	16325.24
488.39	16681.00
488.57	16636.53
488.75	16491.41
488.92	16601.42
489.10	16805.05
489.28	17125.70
489.46	16905.69
489.64	17284.86
489.81	17738.92
489.99	17441.67
490.17	17254.43
490.35	17748.28
490.53	17706.15
490.70	18104.04
490.88	17881.69
491.06	18263.20
491.24	18441.08
491.41	18333.42
491.59	18616.62
491.77	18574.49
491.95	18443.42
492.13	18518.32
492.30	19009.83
492.48	19026.21
492.66	19136.22
492.84	18841.31
493.01	19391.34
493.19	19178.35
493.37	19433.47
493.54	19599.65
493.72	20006.90
493.90	19995.20
494.08	19915.62
494.25	20116.90
494.43	19833.70
494.61	20357.98
494.79	20886.94
494.96	20507.77
495.14	20695.02
495.32	20709.06
495.49	20779.28
495.67	21092.91
495.85	21326.96
496.02	21376.11
496.20	21558.67
496.38	21788.05
496.55	21563.36
496.73	21802.09
496.91	21888.69
497.09	21795.07
497.26	21975.29
497.44	21846.56
497.62	22398.93
497.79	22635.32
497.97	22670.43
498.14	22492.55
498.32	22733.62
498.50	23058.96
498.67	22890.44
498.85	22803.84
499.03	23154.92
499.20	23173.64
499.38	23178.33
499.56	23585.58
499.73	23686.22
499.91	23585.58
500.08	23770.48
500.26	23859.42
500.44	24198.80
500.61	23744.73
500.79	23618.35
500.97	24140.29
501.14	24304.12
501.32	24166.03
501.49	24297.10
501.67	24292.42
501.84	24648.18
502.02	24643.50
502.20	24669.25
502.37	24856.49
502.55	24629.46
502.72	24797.98
502.90	24592.01
503.07	25013.31
503.25	25174.80
503.43	24971.18
503.60	25230.98
503.78	25408.86
503.95	25209.91
504.13	25781.00
504.30	25350.34
504.48	25521.20
504.65	25769.30
504.83	26356.77
505.01	25998.67
505.18	25921.43
505.36	26085.27
505.53	26216.34
505.71	26504.23
505.88	26567.42
506.06	26050.16
506.23	26609.55
506.41	26532.31
506.58	26693.81
506.76	26827.22
506.93	26874.03
507.11	26705.51
507.28	27040.21
507.46	26981.70
507.63	27232.13
507.81	27557.47
507.98	27014.46
508.16	27344.48
508.33	27480.23
508.50	27728.33
508.68	27349.16
508.85	27903.87
509.03	27899.19
509.20	27864.08
509.38	28020.89
509.55	28084.09
509.73	28013.87
509.90	28215.16
510.08	28304.10
510.25	27985.79
510.42	28538.15
510.60	28699.65
510.77	28638.80
510.95	28931.36
511.12	28411.76
511.30	28774.55
511.47	29088.18
511.64	28975.83
511.82	29237.97
511.99	29242.65
512.17	29198.18
512.34	29202.86
512.51	29369.04
512.69	29577.35
512.86	29631.18
513.04	29900.34
513.21	29635.86
513.38	29954.18
513.56	30197.59
513.73	29745.87
513.90	30302.92
514.08	29844.17
514.25	30181.21
514.43	30604.84
514.60	30267.81
514.77	30244.40
514.95	30621.23
515.12	30398.88
515.29	30286.53
515.47	30953.58
515.64	30740.60
515.81	30883.37
515.99	30855.28
516.16	31318.71
516.33	30780.39
516.51	31349.14
516.68	31133.81
516.85	31152.53
517.03	31365.52
517.20	31754.05
517.37	31241.47
517.54	31601.91
517.72	31592.55
517.89	31505.95
518.06	31931.93
518.24	31505.95
518.41	31847.67
518.58	32189.39
518.75	32165.98
518.93	32165.98
519.10	31737.66
519.27	32107.47
519.45	32198.75
519.62	32779.20
519.79	32701.96
519.96	32510.04
520.14	32865.80
520.31	32376.63
520.48	32615.37
520.65	32662.18
520.83	33078.79
521.00	33193.48
521.17	32634.09
521.34	33064.75
521.52	33479.02
521.69	33261.35
521.86	33413.49
522.03	33305.82
522.20	33319.87
522.38	33766.91
522.55	33567.96
522.72	33617.11
522.89	33858.19
523.07	33956.49
523.24	34223.31
523.41	34064.16
523.58	33802.02
523.75	34562.69
523.92	34129.69
524.10	34120.33
524.27	34141.39
524.44	33963.51
524.61	34323.96
524.78	34562.69
524.96	34600.14
525.13	34714.83
525.30	34630.57
525.47	34955.90
525.64	34684.40
525.81	34717.17
525.98	35075.27
526.16	35129.10
526.33	35126.76
526.50	35426.35
526.67	35054.20
526.84	35538.69
527.01	35122.08
527.18	35030.80
527.36	35047.18
527.53	35529.33
527.70	35838.28
527.87	35967.01
528.04	35482.52
528.21	35721.26
528.38	35906.16
528.55	35622.95
528.72	35531.67
528.89	35641.68
529.07	35718.92
529.24	35718.92
529.41	36444.48
529.58	35976.37
529.75	35871.05
529.92	36105.10
530.09	36182.34
530.26	36306.39
530.43	36526.40
530.60	36013.82
530.77	35957.65
530.94	36348.52
531.11	36535.76
531.28	36381.29
531.46	36336.82
531.63	37193.45
531.80	36837.69
531.97	36549.81
532.14	36889.18
532.31	36723.01
532.48	37418.14
532.65	37315.16
532.82	37186.43
532.99	37069.40
533.16	37336.23
533.33	37275.37
533.50	37156.00
533.67	37074.09
533.84	37205.16
534.01	37565.60
534.18	37394.74
534.35	38031.36
534.52	37628.79
534.69	37766.88
534.86	37759.86
535.03	37640.50
535.20	37806.67
535.37	37713.05
535.54	38010.30
535.71	38066.47
535.88	38429.26
536.05	38115.62
536.22	38099.24
536.38	37963.49
536.55	37853.48
536.72	37940.08
536.89	37794.97
537.06	38375.42
537.23	38888.00
537.40	38433.94
537.57	38249.03
537.74	37949.45
537.91	38752.25
538.08	38745.23
538.25	38572.03
538.42	38581.39
538.59	39321.00
538.75	38831.83
538.92	38803.74
539.09	39068.22
539.26	38644.59
539.43	38930.13
539.60	39164.18
539.77	38635.22
539.94	39173.55
540.11	39178.23
540.28	39098.65
540.44	38876.30
540.61	39007.37
540.78	39400.58
540.95	39365.47
541.12	39194.61
541.29	39510.58
541.46	39196.95
541.62	40051.25
541.79	39981.03
541.96	39086.95
542.13	39409.94
542.30	39744.64
542.47	39711.87
542.63	39819.53
542.80	40212.74
542.97	39779.74
543.14	40055.93
543.31	40102.74
543.48	40320.41
543.64	40500.63
543.81	40601.27
543.98	40484.25
544.15	40383.60
544.32	40472.54
544.48	40959.38
544.65	40362.54
544.82	41130.23
544.99	40533.40
545.16	40414.03
545.32	40765.11
545.49	40800.22
545.66	41368.97
545.83	41088.10
546.00	40966.40
546.16	41027.25
546.33	40814.26
546.50	40683.19
546.67	40573.19
546.83	40769.79
547.00	41024.91
547.17	40877.46
547.34	41270.67
547.50	41539.83
547.67	41383.01
547.84	41881.55
548.00	41446.21
548.17	42071.13
548.34	41883.89
548.51	41708.35
548.67	41724.73
548.84	41947.08
549.01	41926.02
549.18	41663.88
549.34	41979.85
549.51	42108.58
549.68	42160.07
549.84	41982.19
550.01	41872.18
550.18	41897.93
550.34	41883.89
550.51	41825.37
550.68	42110.92
550.84	42213.90
551.01	42761.59
551.18	42141.35
551.34	41493.02
551.51	42476.04
551.68	41708.35
551.84	42256.03
552.01	42476.04
552.18	42143.69
552.34	42066.45
552.51	42291.14
552.68	42429.23
552.84	42307.52
553.01	42763.93
553.18	42618.81
553.34	42412.85
553.51	42731.16
553.67	42761.59
553.84	42595.41
554.01	42927.77
554.17	42644.56
554.34	42988.62
554.51	43028.41
554.67	42951.17
554.84	43157.14
555.00	43196.93
555.17	42560.30
555.33	43084.58
555.50	42871.59
555.67	42990.96
555.83	43143.09
556.00	43182.88
556.16	43793.76
556.33	43234.38
556.50	43393.53
556.66	43016.71
556.83	42899.68
556.99	43643.97
557.16	43391.19
557.32	43412.26
557.49	43320.98
557.65	43047.13
557.82	43505.88
557.98	43824.19
558.15	43590.14
558.32	43241.40
558.48	43845.26
558.65	43323.32
558.81	43901.43
558.98	43288.21
559.14	43674.40
559.31	43559.71
559.47	43419.28
559.64	43981.01
559.80	43533.96
559.97	43828.87
560.13	44069.95
560.30	43466.09
560.46	43938.88
560.63	44353.15
560.79	43896.75
560.96	43833.55
561.12	43948.24
561.29	44385.92
561.45	44233.78
561.61	43447.36
561.78	44156.55
561.94	44409.32
562.11	44039.52
562.27	44205.70
562.44	44051.22
562.60	44421.03
562.77	44027.82
562.93	44128.46
563.10	44531.03
563.26	44201.02
563.42	44610.61
563.59	43824.19
563.75	44013.77
563.92	44477.20
564.08	44004.41
564.24	44130.80
564.41	44472.52
564.57	44376.56
564.74	44603.59
564.90	44568.48
565.07	44575.50
565.23	44119.10
565.39	44179.95
565.56	44968.71
565.72	44694.87
565.88	44399.96
566.05	44570.82
566.21	44308.68
566.38	44535.71
566.54	44811.90
566.70	44788.49
566.87	44680.83
567.03	44781.47
567.19	45017.86
567.36	44266.55
567.52	44669.12
567.68	45071.70
567.85	44910.20
568.01	44758.06
568.17	44961.69
568.34	44790.83
568.50	45184.04
568.66	44561.46
568.83	44446.77
568.99	45102.12
569.15	44683.17
569.32	44746.36
569.48	44982.76
569.64	45120.85
569.81	44772.11
569.97	44910.20
570.13	45076.38
570.30	44905.52
570.46	45390.01
570.62	45324.47
570.78	44961.69
570.95	44921.90
571.11	45256.60
571.27	45254.26
571.43	44835.30
571.60	44912.54
571.76	45022.54
571.92	45460.23
572.09	44842.32
572.25	44900.84
572.41	44968.71
572.57	44739.34
572.74	45492.99
572.90	44914.88
573.06	44931.26
573.22	45329.16
573.38	45055.31
573.55	45432.14
573.71	45495.33
573.87	45340.86
574.03	45137.23
574.20	45359.58
574.36	45345.54
574.52	45216.81
574.68	45249.58
574.84	45687.26
575.01	45902.59
575.17	45478.95
575.33	45375.97
575.49	45127.87
575.65	45165.32
575.82	45666.19
575.98	45509.38
576.14	45544.48
576.30	45830.03
576.46	45195.74
576.62	44893.82
576.79	45556.19
576.95	45020.20
577.11	44996.80
577.27	45467.25
577.43	45315.11
577.59	45677.90
577.75	45441.50
577.92	44842.32
578.08	45495.33
578.24	45436.82
578.40	45523.42
578.56	45921.31
578.72	45619.38
578.88	45556.19
579.04	45382.99
579.21	45490.65
579.37	45607.68
579.53	45708.32
579.69	45509.38
579.85	45645.13
580.01	45394.69
580.17	45153.62
580.33	45406.39
580.49	45144.25
580.65	45509.38
580.82	45565.55
580.98	45610.02
581.14	45387.67
581.30	45429.80
581.46	45368.94
581.62	45331.50
581.78	45160.64
581.94	45820.67
582.10	45738.75
582.26	46218.56
582.42	46003.23
582.58	45661.51
582.74	45584.27
582.90	45773.86
583.06	45652.15
583.22	45722.37
583.38	46061.74
583.54	45593.64
583.70	45574.91
583.86	45844.07
584.02	45724.71
584.18	46239.62
584.34	45897.91
584.50	46092.17
584.66	45715.34
584.82	45558.53
584.98	45832.37
585.14	46230.26
585.30	45680.24
585.46	45708.32
585.62	45776.20
585.78	45916.63
585.94	44971.05
586.10	45860.46
586.26	45640.45
586.42	45647.47
586.58	46012.59
586.74	45687.26
586.90	45230.85
587.06	46036.00
587.22	46127.28
587.38	45631.08
587.54	46258.35
587.70	46309.84
587.86	45991.53
588.02	45736.41
588.18	45668.53
588.34	45970.46
588.49	45516.40
588.65	45731.73
588.81	45626.40
588.97	46038.34
589.13	45965.78
589.29	45766.84
589.45	46068.76
589.61	46202.18
589.77	45888.54
589.93	45956.42
590.08	46024.29
590.24	45914.29
590.40	46492.40
590.56	46426.87
590.72	46211.54
590.88	45923.65
591.04	46150.68
591.20	46218.56
591.35	46270.05
591.51	46557.94
591.67	46239.62
591.83	46473.68
591.99	46342.61
592.15	45888.54
592.31	46244.30
592.46	46452.61
592.62	45944.72
592.78	46473.68
592.94	46763.90
593.10	46319.20
593.26	46370.69
593.41	46342.61
593.57	46342.61
593.73	46010.25
593.89	46588.36
594.05	46567.30
594.20	46234.94
594.36	46698.37
594.52	46457.29
594.68	46569.64
594.84	46461.97
594.99	46897.31
595.15	46522.83
595.31	46403.46
595.47	46646.88
595.62	46894.97
595.78	46471.34
595.94	46913.70
596.10	46307.50
596.25	46569.64
596.41	46677.30
596.57	46660.92
596.73	46813.05
596.88	46602.41
597.04	46337.93
597.20	46752.20
597.36	46625.81
597.51	46361.33
597.67	46389.42
597.83	46417.50
597.99	46263.03
598.14	45991.53
598.30	46686.67
598.46	46494.74
598.61	46887.95
598.77	46246.65
598.93	46595.38
599.09	46625.81
599.24	46494.74
599.40	46328.56
599.56	46635.17
599.71	47124.35
599.87	47068.17
600.03	47082.22
600.18	46583.68
600.34	46293.46
600.50	46277.07
600.65	46476.02
600.81	47016.68
600.97	46871.57
601.12	46822.42
601.28	46532.19
601.44	46635.17
601.59	46700.71
601.75	46321.54
601.91	47065.83
602.06	46614.11
602.22	46667.94
602.37	46595.38
602.53	46667.94
602.69	46972.21
602.84	46368.35
603.00	46597.73
603.16	46483.04
603.31	46698.37
603.47	46906.68
603.62	46707.73
603.78	46717.09
603.94	46536.87
604.09	46866.89
604.25	46330.90
604.40	46667.94
604.56	46777.95
604.71	46625.81
604.87	46440.91
605.03	46859.87
605.18	46679.64
605.34	46218.56
605.49	46525.17
605.65	46677.30
605.80	46401.12
605.96	46234.94
606.12	46497.08
606.27	46684.33
606.43	46646.88
606.58	46665.60
606.74	46717.09
606.89	46485.38
607.05	46773.27
607.20	46930.08
607.36	46480.70
607.51	46291.12
607.67	46323.88
607.82	46527.51
607.98	46422.19
608.13	46401.12
608.29	46424.53
608.44	46546.23
608.60	45890.88
608.75	46450.27
608.91	46429.21
609.06	46366.01
609.22	46738.16
609.37	46087.49
609.53	46754.54
609.68	46330.90
609.84	46487.72
609.99	46419.84
610.15	46454.95
610.30	46447.93
610.46	46014.93
610.61	46197.49
610.76	46368.35
610.92	45722.37
611.07	46040.68
611.23	45778.54
611.38	46080.47
611.54	46476.02
611.69	46454.95
611.84	46298.14
612.00	46185.79
612.15	45853.44
612.31	46164.73
612.46	45694.28
612.62	46017.27
612.77	45991.53
612.92	46377.72
613.08	46176.43
613.23	46117.92
613.39	46108.55
613.54	45570.23
613.69	46138.98
613.85	45670.87
614.00	46106.21
614.15	45972.80
614.31	45457.88
614.46	45647.47
614.62	45846.41
614.77	45844.07
614.92	45886.20
615.08	45825.35
615.23	45893.22
615.38	45708.32
615.54	46031.32
615.69	45860.46
615.84	45839.39
616.00	45837.05
616.15	45848.75
616.30	45801.94
616.46	45893.22
616.61	46101.53
616.76	45813.65
616.92	45649.81
617.07	45474.27
617.22	45851.09
617.37	45581.93
617.53	45359.58
617.68	45228.51
617.83	45258.94
617.99	46061.74
618.14	45935.35
618.29	45284.68
618.45	45270.64
618.60	45338.52
618.75	45144.25
618.90	45076.38
619.06	45425.12
619.21	45741.09
619.36	45560.87
619.51	45352.56
619.67	45146.59
619.82	45628.74
619.97	45420.44
620.12	45368.94
620.28	45371.28
620.43	45375.97
620.58	45542.14
620.73	45219.15
620.89	45490.65
621.04	45530.44
621.19	45256.60
621.34	45256.60
621.49	45081.06
621.65	45720.02
621.80	45434.48
621.95	45127.87
622.10	45509.38
622.25	44980.42
622.41	44907.86
622.56	44985.10
622.71	45111.49
622.86	44608.27
623.01	45277.66
623.16	44847.00
623.32	44751.04
623.47	45036.59
623.62	44444.43
623.77	44552.10
623.92	45460.23
624.07	44851.69
624.23	44914.88
624.38	44711.25
624.53	44414.01
624.68	44706.57
624.83	44832.96
624.98	44842.32
625.13	44240.81
625.29	44430.39
625.44	44552.10
625.59	44636.36
625.74	44631.68
625.89	44416.35
626.04	44046.54
626.19	44257.19
626.34	44285.28
626.49	44149.53
626.65	44142.50
626.80	44722.96
626.95	43889.73
627.10	43885.04
627.25	44584.86
627.40	44301.66
627.55	44257.19
627.70	43936.54
627.85	44275.91
628.00	43871.00
628.15	44350.81
628.30	43529.28
628.45	44170.59
628.60	44144.84
628.76	43945.90
628.91	43838.23
629.06	43948.24
629.21	43887.39
629.36	43718.87
629.51	43636.95
629.66	44196.34
629.81	43768.02
629.96	43957.60
630.11	43730.57
630.26	43758.66
630.41	43690.78
630.56	43255.44
630.71	43503.54
630.86	43550.35
631.01	43304.59
631.16	43672.06
631.31	43257.78
631.46	43494.18
631.61	43824.19
631.76	43744.61
631.91	43793.76
632.06	43620.56
632.21	43491.83
632.36	43508.22
632.51	43079.90
632.66	43225.01
632.81	43407.58
632.96	43229.69
633.10	43288.21
633.25	43320.98
633.40	43548.01
633.55	43875.68
633.70	43632.27
633.85	43182.88
634.00	43035.43
634.15	42988.62
634.30	43309.27
634.45	42934.79
634.60	42864.57
634.75	43054.15
634.90	43243.74
635.05	43091.60
635.19	43026.07
635.34	43012.02
635.49	43260.12
635.64	43374.81
635.79	43267.14
635.94	42946.49
636.09	42939.47
636.24	43023.73
636.39	43555.03
636.53	43007.34
636.68	42632.86
636.83	42766.27
636.98	42925.42
637.13	42440.93
637.28	42447.96
637.43	42962.87
637.57	42373.06
637.72	42260.71
637.87	42384.76
638.02	42307.52
638.17	42546.26
638.32	42586.05
638.46	42036.02
638.61	42347.31
638.76	41907.29
638.91	42394.12
639.06	42265.39
639.20	42265.39
639.35	42129.64
639.50	41584.30
639.65	42403.49
639.80	42148.37
639.94	42050.06
640.09	42183.48
640.24	42211.56
640.39	41750.48
640.54	42209.22
640.68	41954.10
640.83	42466.68
640.98	41832.39
641.13	41808.99
641.27	42110.92
641.42	42141.35
641.57	41801.97
641.72	42185.82
641.86	41808.99
642.01	41766.86
642.16	41436.84
642.31	41221.52
642.45	41521.10
642.60	41647.49
642.75	41827.71
642.90	41727.07
643.04	41963.46
643.19	41640.47
643.34	41081.08
643.48	41221.52
643.63	41691.96
643.78	41481.31
643.93	41923.68
644.07	41570.25
644.22	41125.55
644.37	41397.06
644.51	41399.40
644.66	41528.13
644.81	41170.02
644.95	41406.42
645.10	40985.12
645.25	40971.08
645.39	41296.41
645.54	41036.61
645.69	40879.80
645.83	41352.58
645.98	40891.50
646.13	40910.22
646.27	41371.31
646.42	40912.56
646.57	41163.00
646.71	41394.71
646.86	41352.58
647.00	41404.08
647.15	41031.93
647.30	40935.97
647.44	41017.89
647.59	41057.68
647.74	40547.44
647.88	40758.09
648.03	41326.84
648.17	42071.13
648.32	41146.62
648.47	41359.61
648.61	40924.27
648.76	40704.26
648.90	40699.58
649.05	40533.40
649.20	40669.15
649.34	40374.24
649.49	40886.82
649.63	40730.00
649.78	40671.49
649.92	40439.78
650.07	40994.48
650.21	40765.11
650.36	41219.17
650.51	40587.23
650.65	40650.42
650.80	41050.66
650.94	40739.36
651.09	40414.03
651.23	40142.53
651.38	39798.47
651.52	39917.84
651.67	40421.05
651.81	40334.45
651.96	40299.34
652.10	40187.00
652.25	40182.32
652.39	40350.84
652.54	40156.57
652.68	40076.99
652.83	40243.17
652.97	40222.11
653.12	40044.23
653.26	39840.60
653.41	39484.84
653.55	40275.94
653.70	39803.15
653.84	40336.79
653.99	39976.35
654.13	39716.55
654.27	39707.19
654.42	39899.11
654.56	39344.41
654.71	39693.15
654.85	39723.57
655.00	40062.95
655.14	39892.09
655.29	40194.02
655.43	40346.15
655.57	39723.57
655.72	39297.59
655.86	39416.96
656.01	39257.81
656.15	39075.24
656.30	39573.78
656.44	39578.46
656.58	39550.37
656.73	39571.44
656.87	38920.77
657.01	39257.81
657.16	39519.95
657.30	39779.74
657.45	39442.71
657.59	39487.18
657.73	39180.57
657.88	39117.37
658.02	39445.05
658.16	39409.94
658.31	39288.23
658.45	38981.62
658.60	38845.87
658.74	39199.29
658.88	39007.37
659.03	38703.10
659.17	38876.30
659.31	38440.96
659.46	38609.48
659.60	38808.42
659.74	38361.38
659.89	38677.35
660.03	38335.63
660.17	38424.57
660.32	38167.12
660.46	38607.14
660.60	38078.18
660.74	38747.57
660.89	38621.18
661.03	38094.56
661.17	38185.84
661.32	37935.40
661.46	38101.58
661.60	38171.80
661.74	38080.52
661.89	37771.57
662.03	38382.45
662.17	37741.14
662.31	37745.82
662.46	37818.38
662.60	37806.67
662.74	38143.71
662.88	37500.06
663.03	37476.66
663.17	37230.90
663.31	37432.19
663.45	37364.31
663.60	37610.07
663.74	37673.26
663.88	37691.99
664.02	36870.46
664.17	37340.91
664.31	37090.47
664.45	36889.18
664.59	37020.25
664.73	36748.75
664.88	37240.26
665.02	36840.03
665.16	36910.25
665.30	36959.40
665.44	36957.06
665.59	36587.25
665.73	36378.95
665.87	36477.25
666.01	36584.91
666.15	36451.50
666.29	36395.33
666.44	36568.53
666.58	36212.77
666.72	36222.13
666.86	36400.01
667.00	36531.08
667.14	36105.10
667.28	35934.24
667.43	36027.87
667.57	36149.57
667.71	36114.47
667.85	36268.94
667.99	36154.26
668.13	35817.22
668.27	35496.56
668.41	35477.84
668.56	34948.88
668.70	35496.56
668.84	35440.39
668.98	34904.41
669.12	35501.25
669.26	35648.70
669.40	35576.14
669.54	35220.38
669.68	35065.91
669.82	35033.14
669.96	34691.42
670.10	34412.90
670.25	34462.05
670.39	34597.80
670.53	34630.57
670.67	34426.94
670.81	34642.27
670.95	34731.21
671.09	34347.36
671.23	34574.39
671.37	34401.19
671.51	34199.91
671.65	33991.60
671.79	34230.33
671.93	34092.24
672.07	34623.54
672.21	33741.16
672.35	33965.85
672.49	33895.64
672.63	33638.18
672.77	33422.85
672.91	33436.89
673.05	33776.27
673.19	33088.15
673.33	33132.62
673.47	33301.14
673.61	33024.96
673.75	33064.75
673.89	32849.42
674.03	32884.53
674.17	33008.58
674.31	32664.52
674.45	32624.73
674.59	32797.93
674.73	32493.66
674.87	32187.05
675.01	32268.97
675.15	31845.33
675.29	32006.83
675.43	32084.06
675.56	32444.51
675.70	32023.21
675.84	31622.98
675.98	30866.98
676.12	31599.57
676.26	31756.39
676.40	31728.30
676.54	31440.42
676.68	31480.21
676.82	30817.83
676.96	31185.30
677.10	31391.26
677.23	31051.89
677.37	31257.85
677.51	31005.08
677.65	30904.43
677.79	30838.90
677.93	30792.09
678.07	30551.01
678.21	30150.78
678.34	29762.25
678.48	29764.59
678.62	30167.16
678.76	29865.24
678.90	29855.87
679.04	30221.00
679.18	30251.42
679.31	29996.31
679.45	29418.19
679.59	29324.57
679.73	29378.40
679.87	29057.75
680.00	29408.83
680.14	29429.90
680.28	29064.77
680.42	28868.17
680.56	28975.83
680.70	28938.38
680.83	28704.33
680.97	28472.62
681.11	28608.37
681.25	28107.49
681.39	28229.20
681.52	28350.91
681.66	27814.93
681.80	27641.73
681.94	27456.82
682.07	27742.37
682.21	27608.96
682.35	27611.30
682.49	27597.26
682.62	27407.67
682.76	27445.12
682.90	27335.12
683.04	27164.26
683.17	27332.78
683.31	27026.17
683.45	26944.25
683.59	26738.28
683.72	26539.33
683.86	26235.06
684.00	26548.70
684.13	26441.03
684.27	25912.07
684.41	26214.00
684.55	26401.24
684.68	26125.06
684.82	25619.50
684.96	25844.20
685.09	25652.27
685.23	26017.40
685.37	26380.18
685.50	26026.76
685.64	25575.03
685.78	25273.10
685.91	25247.36
686.05	25055.43
686.19	24603.71
686.32	24725.42
686.46	24432.85
686.60	24498.39
686.73	24809.68
686.87	24482.00
687.01	24950.11
687.14	24369.66
687.28	24318.17
687.42	24521.79
687.55	23962.40
687.69	24285.40
687.82	23857.08
687.96	24095.82
688.10	24133.26
688.23	23906.23
688.37	23915.59
688.50	23997.51
688.64	23672.18
688.78	23426.42
688.91	23393.65
689.05	23351.52
689.18	23056.62
689.32	22331.05
689.46	22644.68
689.59	22656.39
689.73	22883.42
689.86	22974.70
690.00	22670.43
690.13	22927.89
690.27	22565.10
690.41	22663.41
690.54	22064.23
690.68	21720.17
690.81	22080.61
690.95	21942.52
691.08	21912.10
691.22	21362.07
691.35	21671.02
691.49	21928.48
691.62	21811.45
691.76	21231.00
691.89	21200.57
692.03	20851.83
692.16	21092.91
692.30	20830.77
692.43	20620.12
692.57	20535.86
692.70	20709.06
692.84	20439.90
692.97	20379.04
693.11	20343.94
693.24	20365.00
693.38	19988.18
693.51	20154.35
693.65	20039.67
693.78	19859.45
693.92	19887.53
694.05	19648.80
694.19	19889.87
694.32	19662.84
694.45	20034.99
694.59	19793.91
694.72	19824.34
694.86	19480.28
694.99	18885.78
695.13	19136.22
695.26	18970.04
695.39	18855.36
695.53	19103.45
695.66	18857.70
695.80	18838.97
695.93	18672.79
696.07	18625.98
696.20	18125.11
696.33	18237.45
696.47	18218.73
696.60	18061.91
696.73	18050.21
696.87	18347.46
697.00	18045.53
697.14	17848.93
697.27	17736.58
697.40	17717.86
697.54	17778.71
697.67	17514.23
697.80	17762.33
697.94	17720.20
698.07	17439.33
698.21	17570.40
698.34	17406.56
698.47	16912.71
698.61	16741.85
698.74	16760.58
698.87	16996.97
699.01	16704.40
699.14	16758.24
699.27	16498.44
699.40	16510.14
699.54	16053.73
699.67	16465.67
699.80	16489.07
699.94	16035.01
700.07	16390.77
700.20	16264.38
700.34	15831.38
700.47	15967.13
700.60	16084.16
700.73	16011.60
700.87	15852.45
701.00	15784.57
701.13	15555.20
701.26	15513.07
701.40	15590.31
701.53	15342.21
701.66	15360.94
701.79	15119.86
701.93	14970.07
702.06	14864.74
702.19	15255.61
702.32	14972.41
702.46	14902.19
702.59	15059.01
702.72	15147.95
702.85	15035.60
702.99	14537.07
703.12	14324.08
703.25	14478.55
703.38	14464.51
703.51	14190.67
703.65	13956.61
703.78	14083.00
703.91	13895.76
704.04	13928.53
704.17	13750.65
704.31	13722.56
704.44	13914.48
704.57	13935.55
704.70	13605.53
704.83	13692.13
704.96	13544.68
705.10	13366.80
705.23	13476.80
>>>>>End Processed Spectral Data<<<<<
