SpectraSuite Data File
++++++++++++++++++++++++++++++++++++
Date: Fri Oct 25 10:46:54 EDT 2013
User: price-jones
Dark Spectrum Present: No
Reference Spectrum Present: No
Number of Sampled Component Spectra: 1
Spectrometers: USB2+H05261
Integration Time (usec): 100000 (USB2+H05261)
Spectra Averaged: 1 (USB2+H05261)
Boxcar Smoothing: 0 (USB2+H05261)
Correct for Electrical Dark: No (USB2+H05261)
Strobe/Lamp Enabled: No (USB2+H05261)
Correct for Detector Non-linearity: No (USB2+H05261)
Correct for Stray Light: No (USB2+H05261)
Number of Pixels in Processed Spectrum: 2048
>>>>>Begin Processed Spectral Data<<<<<
365.73	170.86
365.92	170.86
366.12	170.86
366.32	105.32
366.52	58.51
366.72	65.54
366.91	7.02
367.11	0.00
367.31	81.92
367.51	0.00
367.70	53.83
367.90	102.98
368.10	88.94
368.30	32.77
368.49	28.09
368.69	23.41
368.89	51.49
369.09	86.60
369.28	74.90
369.48	133.41
369.68	72.56
369.87	138.09
370.07	102.98
370.27	147.45
370.47	154.48
370.66	440.02
370.86	411.93
371.06	465.77
371.25	461.09
371.45	425.98
371.65	449.38
371.84	482.15
372.04	500.87
372.24	538.32
372.44	594.50
372.63	496.19
372.83	599.18
373.03	519.60
373.22	547.69
373.42	557.05
373.62	571.09
373.81	566.41
374.01	531.30
374.21	531.30
374.40	554.71
374.60	578.11
374.79	620.24
374.99	594.50
375.19	573.43
375.38	566.41
375.58	521.94
375.78	561.73
375.97	603.86
376.17	688.12
376.37	702.16
376.56	606.20
376.76	620.24
376.95	645.99
377.15	713.86
377.35	718.54
377.54	629.60
377.74	671.73
377.93	655.35
378.13	636.63
378.33	620.24
378.52	678.76
378.72	620.24
378.91	664.71
379.11	613.22
379.31	645.99
379.50	688.12
379.70	674.07
379.89	634.29
380.09	664.71
380.28	755.99
380.48	753.65
380.68	734.93
380.87	664.71
381.07	697.48
381.26	807.48
381.46	713.86
381.65	741.95
381.85	741.95
382.04	702.16
382.24	744.29
382.43	669.39
382.63	760.67
382.83	713.86
383.02	774.72
383.22	767.70
383.41	669.39
383.61	755.99
383.80	828.55
384.00	758.33
384.19	734.93
384.39	732.59
384.58	828.55
384.78	812.17
384.97	861.32
385.17	835.57
385.36	814.51
385.56	833.23
385.75	917.49
385.95	798.12
386.14	875.36
386.34	830.89
386.53	847.27
386.72	828.55
386.92	882.38
387.11	849.61
387.31	887.06
387.50	870.68
387.70	858.98
387.89	875.36
388.09	828.55
388.28	891.74
388.48	844.93
388.67	983.02
388.86	954.94
389.06	980.68
389.25	1004.09
389.45	903.45
389.64	945.58
389.84	919.83
390.03	964.30
390.22	1057.92
390.42	1121.12
390.61	980.68
390.81	1064.94
391.00	1041.54
391.19	964.30
391.39	1039.20
391.58	1104.73
391.78	985.37
391.97	1086.01
392.16	1001.75
392.36	1048.56
392.55	1001.75
392.75	1090.69
392.94	1011.11
393.13	971.32
393.33	1015.79
393.52	1039.20
393.71	1060.26
393.91	1053.24
394.10	1083.67
394.29	1160.91
394.49	1294.32
394.68	1210.06
394.88	1203.04
395.07	1294.32
395.26	1247.51
395.46	1156.22
395.65	1196.01
395.84	1156.22
396.04	1142.18
396.23	1163.25
396.42	1198.35
396.62	1198.35
396.81	1266.23
397.00	1214.74
397.19	1228.78
397.39	1235.80
397.58	1348.15
397.77	1275.59
397.97	1526.03
398.16	1401.98
398.35	1514.33
398.55	1423.05
398.74	1446.45
398.93	1509.65
399.12	1549.43
399.32	1497.94
399.51	1490.92
399.70	1577.52
399.90	1516.67
400.09	1530.71
400.28	1673.48
400.47	1612.63
400.67	1710.93
400.86	1549.43
401.05	1603.27
401.24	1556.46
401.44	1572.84
401.63	1682.85
401.82	1657.10
402.01	1572.84
402.21	1729.66
402.40	1631.35
402.59	1799.87
402.78	1664.12
402.97	1750.72
403.17	1710.93
403.36	1818.60
403.55	1776.47
403.74	1771.79
403.93	1830.30
404.13	1739.02
404.32	1739.02
404.51	1778.81
404.70	1753.06
404.89	1790.51
405.09	1940.30
405.28	1884.13
405.47	1830.30
405.66	1863.07
405.85	2031.58
406.05	1795.19
406.24	1980.09
406.43	2040.95
406.62	2010.52
406.81	2073.71
407.00	1888.81
407.20	1937.96
407.39	2073.71
407.58	2043.29
407.77	2139.25
407.96	2092.44
408.15	2129.89
408.34	2188.40
408.54	2256.28
408.73	2195.42
408.92	2289.04
409.11	2225.85
409.30	2244.57
409.49	2183.72
409.68	2228.19
409.87	2328.83
410.07	2370.96
410.26	2298.41
410.45	2413.09
410.64	2438.84
410.83	2434.16
411.02	2445.86
411.21	2534.80
411.40	2562.89
411.59	2600.34
411.78	2637.78
411.98	2476.29
412.17	2560.55
412.36	2644.81
412.55	2682.25
412.74	2595.65
412.93	2799.28
413.12	2560.55
413.31	2733.75
413.50	2796.94
413.69	2822.69
413.88	2864.82
414.07	2878.86
414.26	2970.14
414.45	2878.86
414.64	3033.33
414.83	3009.93
415.02	2925.67
415.22	3129.30
415.41	3087.17
415.60	3063.76
415.79	2993.55
415.98	3119.93
416.17	3073.12
416.36	3077.80
416.55	3234.62
416.74	3220.58
416.93	3236.96
417.12	3229.94
417.31	3199.51
417.50	3295.47
417.69	3417.18
417.88	3421.86
418.07	3353.99
418.26	3248.66
418.45	3342.28
418.64	3503.78
418.83	3550.59
419.02	3463.99
419.21	3569.32
419.39	3456.97
419.58	3421.86
419.77	3456.97
419.96	3611.45
420.15	3674.64
420.34	3634.85
420.53	3712.09
420.72	3744.86
420.91	3801.03
421.10	3810.39
421.29	3730.81
421.48	3733.15
421.67	3901.67
421.86	3744.86
422.05	3763.58
422.24	3693.37
422.43	3716.77
422.61	3756.56
422.80	3714.43
422.99	3819.75
423.18	3943.80
423.37	3934.44
423.56	3880.61
423.75	3922.74
423.94	3948.48
424.13	3662.94
424.32	3761.24
424.50	3845.50
424.69	4004.66
424.88	3885.29
425.07	3777.62
425.26	3981.25
425.45	3744.86
425.64	3845.50
425.83	3997.64
426.01	4018.70
426.20	3934.44
426.39	3971.89
426.58	3922.74
426.77	3887.63
426.96	3981.25
427.15	3941.46
427.33	3918.06
427.52	3913.38
427.71	3988.27
427.90	4077.21
428.09	4051.47
428.28	3981.25
428.46	4018.70
428.65	4091.26
428.84	4227.01
429.03	4205.94
429.22	3995.29
429.40	4014.02
429.59	4191.90
429.78	3929.76
429.97	3871.25
430.16	4014.02
430.34	3988.27
430.53	4322.97
430.72	4149.77
430.91	4266.80
431.10	4166.15
431.28	4411.91
431.47	4526.60
431.66	4617.88
431.85	4414.25
432.03	4404.89
432.22	4676.39
432.41	4540.64
432.60	4692.77
432.79	4622.56
432.97	4617.88
433.16	4568.73
433.35	4599.15
433.54	4608.51
433.72	4704.48
433.91	4566.39
434.10	4688.09
434.28	4758.31
434.47	4727.88
434.66	4800.44
434.85	4823.84
435.03	4795.76
435.22	4837.89
435.41	5046.20
435.59	4856.61
435.78	5008.75
435.97	5083.64
436.16	4983.00
436.34	4922.15
436.53	5132.79
436.72	5146.84
436.90	5036.83
437.09	4875.34
437.28	5135.14
437.46	5032.15
437.65	5130.45
437.84	5109.39
438.02	5083.64
438.21	5055.56
438.40	5022.79
438.58	5130.45
438.77	5289.61
438.96	5427.70
439.14	5439.40
439.33	5645.37
439.52	5509.62
439.70	5493.24
439.89	5526.00
440.08	5535.37
440.26	5607.92
440.45	5652.39
440.63	5692.18
440.82	5727.29
441.01	5860.70
441.19	5954.32
441.38	5884.11
441.57	5881.77
441.75	6012.84
441.94	6022.20
442.12	6139.23
442.31	6207.10
442.50	6289.02
442.68	6214.12
442.87	6263.27
443.05	6139.23
443.24	6132.20
443.43	6216.46
443.61	6333.49
443.80	6438.81
443.98	6228.17
444.17	6179.01
444.35	6356.90
444.54	6590.95
444.73	6441.15
444.91	6274.98
445.10	6537.12
445.28	6312.42
445.47	6251.57
445.65	6230.51
445.84	6422.43
446.02	6415.41
446.21	6504.35
446.39	6345.19
446.58	6384.98
446.77	6637.76
446.95	6483.28
447.14	6731.38
447.32	6494.99
447.51	6569.88
447.69	6565.20
447.88	6719.68
448.06	6637.76
448.25	6546.48
448.43	6532.44
448.62	6590.95
448.80	6555.84
448.99	6712.66
449.17	6722.02
449.36	6647.12
449.54	6857.77
449.73	6867.13
449.91	7016.93
450.10	7082.46
450.28	7073.10
450.46	7119.91
450.65	6862.45
450.83	7157.36
451.02	6761.81
451.20	7045.01
451.39	7026.29
451.57	7124.59
451.76	7026.29
451.94	7157.36
452.13	7215.87
452.31	7059.06
452.49	7012.24
452.68	7304.81
452.86	6974.80
453.05	7117.57
453.23	7295.45
453.42	7091.82
453.60	7215.87
453.78	7288.43
453.97	7262.68
454.15	7255.66
454.34	7417.16
454.52	7241.62
454.70	7311.83
454.89	7485.03
455.07	7454.61
455.26	7349.28
455.44	7562.27
455.62	7552.91
455.81	7559.93
455.99	7693.34
456.17	7702.70
456.36	7585.68
456.54	7756.54
456.73	7868.88
456.91	8086.55
457.09	7955.48
457.28	8161.45
457.46	7960.16
457.64	8060.80
457.83	8021.02
458.01	7791.64
458.19	8046.76
458.38	7925.05
458.56	8177.83
458.74	8109.96
458.93	8107.62
459.11	8142.72
459.29	8285.50
459.48	8322.94
459.66	8023.36
459.84	8194.22
460.03	8409.54
460.21	8308.90
460.39	8285.50
460.57	8446.99
460.76	8336.99
460.94	8470.40
461.12	8470.40
461.31	8208.26
461.49	8329.97
461.67	8493.80
461.85	8674.03
462.04	8496.14
462.22	9039.15
462.40	8730.20
462.59	8674.03
462.77	8652.96
462.95	8800.41
463.13	8800.41
463.32	8784.03
463.50	8905.74
463.68	8748.92
463.86	8781.69
464.05	8685.73
464.23	8709.13
464.41	8919.78
464.59	8650.62
464.78	9064.89
464.96	8865.95
465.14	8926.80
465.32	9050.85
465.50	9179.58
465.69	9174.90
465.87	9034.47
466.05	9048.51
466.23	8910.42
466.41	9022.77
466.60	9394.91
466.78	8863.61
466.96	8985.32
467.14	9116.39
467.32	9287.25
467.51	9305.97
467.69	9067.24
467.87	9170.22
468.05	9369.16
468.23	9191.28
468.41	9034.47
468.60	9376.19
468.78	9411.29
468.96	9373.85
469.14	9586.83
469.32	9528.32
469.50	9511.94
469.69	9390.23
469.87	9750.67
470.05	9760.03
470.23	9830.25
470.41	9554.07
470.59	9715.56
470.77	9554.07
470.95	9877.06
471.14	9851.31
471.32	9788.12
471.50	10092.39
471.68	10019.83
471.86	10319.42
472.04	10314.74
472.22	10391.98
472.40	10108.77
472.58	10207.08
472.77	10136.86
472.95	10307.72
473.13	10724.33
473.31	10340.49
473.49	10370.91
473.67	10319.42
473.85	10523.05
474.03	10927.96
474.21	10951.37
474.39	10724.33
474.57	10822.64
474.75	10984.13
474.93	10988.82
475.12	11075.42
475.30	11124.57
475.48	10885.83
475.66	10932.64
475.84	11119.89
476.02	11150.31
476.20	11281.38
476.38	11396.07
476.56	11698.00
476.74	11410.11
476.92	11733.11
477.10	11639.48
477.28	11906.31
477.46	11639.48
477.64	11913.33
477.82	12053.76
478.00	12255.04
478.18	12236.32
478.36	12367.39
478.54	12306.54
478.72	12362.71
478.90	12610.81
479.08	12800.39
479.26	12802.73
479.44	12779.32
479.62	13067.21
479.80	13144.45
479.98	13179.56
480.16	13551.70
480.34	13385.52
480.52	13619.58
480.70	13607.87
480.88	13689.79
481.06	13764.69
481.24	13420.63
481.41	13926.19
481.59	14279.61
481.77	14111.09
481.95	14230.46
482.13	14279.61
482.31	14148.54
482.49	14764.10
482.67	14520.68
482.85	14677.50
483.03	14663.46
483.21	15257.95
483.39	15183.06
483.57	14993.47
483.74	15133.90
483.92	15197.10
484.10	15225.18
484.28	15630.10
484.46	15817.34
484.64	16154.38
484.82	15721.38
485.00	16018.63
485.18	16273.74
485.35	16231.62
485.53	16035.01
485.71	15735.42
485.89	16271.40
486.07	16168.42
486.25	16552.27
486.43	16416.52
486.61	16835.47
486.78	16975.91
486.96	17034.42
487.14	17369.12
487.32	17584.44
487.50	17647.64
487.68	17694.45
487.85	17977.65
488.03	18202.35
488.21	18317.03
488.39	18221.07
488.57	18225.75
488.75	18508.96
488.92	18726.63
489.10	19276.65
489.28	19264.95
489.46	19468.58
489.64	19466.24
489.81	19644.12
489.99	19655.82
490.17	19896.89
490.35	20189.46
490.53	19786.89
490.70	20297.13
490.88	20297.13
491.06	20627.14
491.24	20390.75
491.41	20437.56
491.59	20713.74
491.77	20465.64
491.95	21092.91
492.13	21057.80
492.30	21282.49
492.48	21717.83
492.66	21542.29
492.84	21469.73
493.01	21680.38
493.19	21891.03
493.37	21874.65
493.54	21734.21
493.72	22352.12
493.90	22347.44
494.08	22492.55
494.25	22668.09
494.43	22717.24
494.61	23061.30
494.79	23173.64
494.96	23178.33
495.14	22883.42
495.32	23325.78
495.49	23498.98
495.67	23616.01
495.85	23733.03
496.02	24065.39
496.20	23985.81
496.38	24182.42
496.55	24198.80
496.73	24924.36
496.91	24463.28
497.09	24634.14
497.26	24795.64
497.44	24842.45
497.62	24790.95
497.79	25074.16
497.97	24812.02
498.14	25184.16
498.32	25333.96
498.50	25640.57
498.67	25813.77
498.85	25530.56
499.03	25853.56
499.20	25848.88
499.38	26015.05
499.56	25991.65
499.73	26171.87
499.91	26118.04
500.08	26623.59
500.26	26113.36
500.44	26405.92
500.61	26471.46
500.79	26202.30
500.97	26536.99
501.14	26668.06
501.32	26810.84
501.49	26815.52
501.67	26581.46
501.84	27250.86
502.02	27208.73
502.20	27108.08
502.37	27307.03
502.55	27398.31
502.72	27789.18
502.90	27529.38
503.07	27950.68
503.25	28147.28
503.43	27644.07
503.60	27896.85
503.78	28114.52
503.95	28133.24
504.13	28009.19
504.30	28465.60
504.48	28276.01
504.65	28730.08
504.83	28685.61
505.01	28807.31
505.18	28624.75
505.36	29017.96
505.53	29099.88
505.71	29495.43
505.88	29134.99
506.06	28989.88
506.23	29130.31
506.41	29237.97
506.58	29483.73
506.76	29240.31
506.93	29376.06
507.11	29539.90
507.28	29696.72
507.46	29839.49
507.63	29977.58
507.81	29741.19
507.98	29776.30
508.16	30284.19
508.33	30188.23
508.50	30583.78
508.68	30178.87
508.85	31056.57
509.03	30635.27
509.20	30874.01
509.38	31054.23
509.55	31175.94
509.73	31236.79
509.90	31112.74
510.08	30494.84
510.25	31007.42
510.42	31182.96
510.60	31484.89
510.77	31438.08
510.95	31634.68
511.12	31700.22
511.30	31941.29
511.47	32027.89
511.64	32130.87
511.82	32210.45
511.99	31901.50
512.17	31894.48
512.34	31967.04
512.51	31976.40
512.69	32297.05
512.86	32706.65
513.04	32673.88
513.21	32587.28
513.38	32371.95
513.56	32390.67
513.73	32481.95
513.90	32851.76
514.08	32793.25
514.25	33102.20
514.43	33287.10
514.60	32900.91
514.77	32833.04
514.95	33039.00
515.12	33165.39
515.29	33326.89
515.47	33879.25
515.64	33937.77
515.81	33376.04
515.99	33628.82
516.16	33640.52
516.33	33474.34
516.51	33500.09
516.68	32952.40
516.85	33186.46
517.03	33549.24
517.20	33490.73
517.37	34054.79
517.54	34272.46
517.72	34066.50
517.89	33830.10
518.06	34227.99
518.24	34237.36
518.41	34082.88
518.58	34532.26
518.75	34022.03
518.93	34558.01
519.10	35044.84
519.27	34789.72
519.45	34895.05
519.62	34625.89
519.79	35070.59
519.96	35262.51
520.14	35339.75
520.31	35257.83
520.48	35302.30
520.65	35192.30
520.83	35644.02
521.00	35608.91
521.17	35424.01
521.34	35585.50
521.52	35931.90
521.69	36051.27
521.86	36133.19
522.03	36250.22
522.20	36095.74
522.38	36254.90
522.55	36238.51
522.72	36224.47
522.89	36116.81
523.07	36292.35
523.24	35887.43
523.41	36465.55
523.58	36596.62
523.75	37043.66
523.92	37223.88
524.10	37184.09
524.27	36912.59
524.44	36833.01
524.61	37209.84
524.78	37308.14
524.96	37399.42
525.13	37170.05
525.30	37361.97
525.47	37591.34
525.64	37703.69
525.81	37450.91
525.98	37383.04
526.16	37074.09
526.33	37296.44
526.50	37460.27
526.67	37514.11
526.84	37535.17
527.01	37406.44
527.18	37949.45
527.36	37652.20
527.53	37958.81
527.70	38330.95
527.87	38033.71
528.04	37766.88
528.21	38597.77
528.38	38017.32
528.55	38478.41
528.72	38799.06
528.89	38548.62
529.07	38199.88
529.24	38382.45
529.41	38808.42
529.58	38267.76
529.75	38541.60
529.92	38799.06
530.09	38761.61
530.26	38763.95
530.43	39037.80
530.60	38815.44
530.77	39124.40
530.94	39419.30
531.11	38890.34
531.28	39189.93
531.46	39140.78
531.63	39330.36
531.80	39484.84
531.97	39225.04
532.14	39321.00
532.31	39002.69
532.48	39379.51
532.65	39653.36
532.82	39592.50
532.99	39959.97
533.16	39363.13
533.33	39725.91
533.50	39957.63
533.67	39817.19
533.84	39735.27
534.01	39524.63
534.18	39924.86
534.35	40678.51
534.52	40051.25
534.69	40662.13
534.86	40697.24
535.03	39964.65
535.20	40727.66
535.37	40765.11
535.54	40524.04
535.71	40402.33
535.88	40456.16
536.05	40311.05
536.22	40594.25
536.38	40458.50
536.55	40704.26
536.72	40594.25
536.89	40638.72
537.06	40669.15
537.23	40748.73
537.40	40730.00
537.57	40811.92
537.74	41041.29
537.91	41251.94
538.08	41256.62
538.25	40891.50
538.42	40931.29
538.59	41106.83
538.75	40896.18
538.92	40802.56
539.09	41439.18
539.26	41378.33
539.43	41446.21
539.60	41104.49
539.77	40975.76
539.94	41298.75
540.11	41275.35
540.28	41401.74
540.44	41408.76
540.61	41574.94
540.78	41317.48
540.95	41160.66
541.12	41453.23
541.29	41949.42
541.46	41455.57
541.62	41947.08
541.79	42036.02
541.96	41820.69
542.13	41780.90
542.30	42040.70
542.47	41832.39
542.63	41780.90
542.80	42328.59
542.97	42569.66
543.14	42621.16
543.31	42703.07
543.48	42429.23
543.64	42754.57
543.81	42513.49
543.98	42899.68
544.15	42344.97
544.32	42955.85
544.48	43051.81
544.65	42997.98
544.82	42834.14
544.99	42375.40
545.16	42937.13
545.32	42780.31
545.49	42948.83
545.66	42892.66
545.83	42944.15
546.00	42848.19
546.16	43196.93
546.33	42625.84
546.50	42693.71
546.67	43187.56
546.83	42712.44
547.00	43276.51
547.17	43217.99
547.34	43217.99
547.50	43372.47
547.67	43758.66
547.84	43339.70
548.00	43695.46
548.17	43643.97
548.34	43405.23
548.51	43704.82
548.67	43878.02
548.84	43992.71
549.01	43540.99
549.18	43351.40
549.34	43775.04
549.51	43091.60
549.68	44100.37
549.84	43639.29
550.01	43941.22
550.18	43615.88
550.34	43845.26
550.51	43997.39
550.68	43885.04
550.84	43611.20
551.01	43826.53
551.18	44233.78
551.34	44044.20
551.51	44219.74
551.68	44729.98
551.84	44362.51
552.01	43941.22
552.18	44151.87
552.34	44509.97
552.51	44528.69
552.68	44287.62
552.84	44142.50
553.01	44573.16
553.18	44435.07
553.34	44231.44
553.51	44210.38
553.67	44198.68
553.84	44680.83
554.01	44313.36
554.17	44758.06
554.34	45062.33
554.51	44458.48
554.67	44755.72
554.84	44486.56
555.00	44142.50
555.17	44545.08
555.33	44741.68
555.50	44802.53
555.67	45010.84
555.83	45064.67
556.00	44472.52
556.16	45270.64
556.33	44877.43
556.50	44727.64
556.66	44987.44
556.83	44975.73
556.99	45390.01
557.16	45111.49
557.32	45226.17
557.49	44631.68
557.65	44711.25
557.82	44514.65
557.98	44945.31
558.15	44760.40
558.32	44877.43
558.48	45059.99
558.65	45144.25
558.81	45113.83
558.98	45036.59
559.14	45244.90
559.31	45022.54
559.47	45549.17
559.64	45390.01
559.80	45249.58
559.97	45544.48
560.13	45474.27
560.30	45064.67
560.46	45600.66
560.63	45478.95
560.79	45567.89
560.96	45963.44
561.12	45387.67
561.29	45584.27
561.45	45251.92
561.61	45422.78
561.78	45282.34
561.94	45546.82
562.11	45067.02
562.27	45312.77
562.44	45258.94
562.60	45851.09
562.77	45539.80
562.93	45537.46
563.10	45876.84
563.26	45303.41
563.42	45528.10
563.59	45432.14
563.75	45846.41
563.92	45998.55
564.08	45691.94
564.24	46005.57
564.41	45563.21
564.57	45724.71
564.74	45521.08
564.90	45736.41
565.07	46181.11
565.23	45724.71
565.39	45415.76
565.56	45958.76
565.72	45074.04
565.88	45256.60
566.05	45368.94
566.21	46131.96
566.38	45663.85
566.54	45762.15
566.70	46171.75
566.87	46024.29
567.03	45769.18
567.19	46190.47
567.36	45998.55
567.52	45682.58
567.68	46251.33
567.85	45895.56
568.01	45762.15
568.17	45949.40
568.34	45989.19
568.50	45848.75
568.66	45698.96
568.83	46244.30
568.99	45504.70
569.15	45921.31
569.32	46115.58
569.48	45305.75
569.64	45984.51
569.81	45673.21
569.97	45794.92
570.13	45766.84
570.30	45619.38
570.46	45958.76
570.62	45787.90
570.78	45408.73
570.95	45488.31
571.11	45942.38
571.27	45326.81
571.43	45970.46
571.60	46277.07
571.76	46092.17
571.92	46052.38
572.09	45968.12
572.25	45954.08
572.41	45853.44
572.57	46335.59
572.74	46370.69
572.90	46024.29
573.06	46384.74
573.22	46108.55
573.38	46571.98
573.55	45806.62
573.71	46520.49
573.87	45839.39
574.03	45815.99
574.20	45991.53
574.36	46267.71
574.52	46363.67
574.68	46258.35
574.84	46321.54
575.01	46157.70
575.17	46031.32
575.33	46300.48
575.49	46003.23
575.65	46094.51
575.82	46667.94
575.98	45757.47
576.14	46305.16
576.30	46157.70
576.46	46237.28
576.62	46162.39
576.79	46518.15
576.95	45986.85
577.11	46223.24
577.27	46057.06
577.43	45972.80
577.59	46040.68
577.75	46244.30
577.92	45961.10
578.08	45811.31
578.24	45729.39
578.40	46131.96
578.56	46108.55
578.72	46300.48
578.88	46398.78
579.04	46209.20
579.21	45617.04
579.37	46103.87
579.53	46096.85
579.69	46050.04
579.85	46335.59
580.01	46562.62
580.17	46237.28
580.33	46380.06
580.49	46408.14
580.65	46520.49
580.82	46347.29
580.98	45998.55
581.14	46272.39
581.30	46405.80
581.46	46314.52
581.62	45909.61
581.78	46408.14
581.94	46660.92
582.10	46705.39
582.26	46220.90
582.42	46288.77
582.58	46349.63
582.74	46319.20
582.90	46045.36
583.06	46583.68
583.22	46548.57
583.38	46948.81
583.54	46176.43
583.70	46248.99
583.86	46508.79
584.02	46157.70
584.18	46340.27
584.34	46361.33
584.50	45933.01
584.66	46134.30
584.82	46412.82
584.98	46501.76
585.14	46368.35
585.30	46211.54
585.46	45790.24
585.62	46153.02
585.78	46476.02
585.94	46349.63
586.10	46174.09
586.26	46103.87
586.42	46878.59
586.58	46564.96
586.74	46670.28
586.90	46000.89
587.06	46284.09
587.22	46698.37
587.38	46188.13
587.54	46358.99
587.70	46518.15
587.86	46071.10
588.02	46335.59
588.18	46452.61
588.34	46160.05
588.49	46036.00
588.65	45811.31
588.81	45900.25
588.97	46096.85
589.13	46368.35
589.29	46014.93
589.45	45996.21
589.61	46033.66
589.77	46988.60
589.93	46471.34
590.08	46328.56
590.24	46239.62
590.40	46358.99
590.56	46590.70
590.72	46274.73
590.88	46113.23
591.04	46419.84
591.20	47054.13
591.35	46747.52
591.51	46696.03
591.67	46674.96
591.83	46167.07
591.99	46307.50
592.15	46204.52
592.31	46279.41
592.46	46314.52
592.62	46141.32
592.78	47077.54
592.94	46731.14
593.10	46227.92
593.26	46529.85
593.41	46614.11
593.57	46394.10
593.73	46639.86
593.89	46550.91
594.05	46012.59
594.20	46506.44
594.36	46681.98
594.52	46305.16
594.68	46319.20
594.84	46628.15
594.99	46887.95
595.15	46525.17
595.31	46483.04
595.47	46700.71
595.62	46923.06
595.78	46534.53
595.94	46728.80
596.10	46756.88
596.25	46892.63
596.41	46483.04
596.57	46583.68
596.73	46976.89
596.88	46410.48
597.04	46651.56
597.20	46436.23
597.36	46532.19
597.51	47119.66
597.67	46646.88
597.83	46990.94
597.99	46763.90
598.14	46319.20
598.30	46890.29
598.46	46550.91
598.61	46693.69
598.77	46265.37
598.93	46513.47
599.09	46831.78
599.24	47065.83
599.40	46791.99
599.56	46719.43
599.71	46904.34
599.87	47030.72
600.03	46740.50
600.18	46754.54
600.34	46239.62
600.50	46761.56
600.65	46660.92
600.81	46791.99
600.97	47264.78
601.12	46724.11
601.28	46564.96
601.44	46930.08
601.59	46773.27
601.75	46314.52
601.91	46511.13
602.06	46328.56
602.22	46366.01
602.37	46667.94
602.53	46595.38
602.69	46850.50
602.84	46501.76
603.00	46670.28
603.16	46653.90
603.31	46480.70
603.47	46391.76
603.62	46358.99
603.78	46513.47
603.94	46810.71
604.09	46710.07
604.25	47023.70
604.40	46960.51
604.56	46307.50
604.71	47009.66
604.87	46520.49
605.03	46600.07
605.18	46574.32
605.34	46728.80
605.49	46564.96
605.65	46525.17
605.80	46843.48
605.96	46485.38
606.12	46614.11
606.27	46663.26
606.43	46277.07
606.58	46256.01
606.74	46155.36
606.89	46557.94
607.05	46841.14
607.20	46710.07
607.36	46314.52
607.51	46398.78
607.67	46134.30
607.82	46131.96
607.98	46894.97
608.13	45935.35
608.29	46391.76
608.44	46148.34
608.60	45720.02
608.75	45792.58
608.91	45837.05
609.06	45464.91
609.22	46230.26
609.37	45600.66
609.53	45968.12
609.68	46281.75
609.84	45862.80
609.99	46122.60
610.15	45689.60
610.30	45579.59
610.46	45998.55
610.61	46068.76
610.76	46155.36
610.92	45759.81
611.07	45794.92
611.23	46141.32
611.38	46115.58
611.54	45577.25
611.69	45593.64
611.84	45626.40
612.00	45471.93
612.15	45357.24
612.31	45570.23
612.46	45860.46
612.62	45603.00
612.77	45928.33
612.92	45947.06
613.08	45661.51
613.23	45523.42
613.39	45322.13
613.54	45024.89
613.69	45790.24
613.85	45357.24
614.00	45741.09
614.15	45471.93
614.31	45504.70
614.46	45642.79
614.62	45624.06
614.77	45603.00
614.92	45642.79
615.08	45886.20
615.23	45155.96
615.38	45420.44
615.54	45144.25
615.69	45485.97
615.84	44959.35
616.00	45649.81
616.15	45408.73
616.30	45392.35
616.46	44940.63
616.61	45116.17
616.76	45324.47
616.92	44935.95
617.07	44940.63
617.22	44617.63
617.37	44744.02
617.53	45071.70
617.68	44982.76
617.83	45104.46
617.99	44847.00
618.14	45352.56
618.29	44844.66
618.45	44680.83
618.60	45055.31
618.75	45067.02
618.90	44313.36
619.06	45074.04
619.21	44669.12
619.36	44980.42
619.51	44678.49
619.67	44685.51
619.82	44980.42
619.97	45102.12
620.12	44580.18
620.28	44470.18
620.43	44634.02
620.58	44720.62
620.73	44535.71
620.89	44191.65
621.04	44760.40
621.19	44395.28
621.34	44472.52
621.49	44428.05
621.65	44313.36
621.80	44428.05
621.95	44238.47
622.10	44329.75
622.25	43957.60
622.41	44203.36
622.56	43988.03
622.71	44486.56
622.86	44264.21
623.01	44472.52
623.16	44282.94
623.32	44189.31
623.47	44170.59
623.62	44329.75
623.77	43957.60
623.92	44046.54
624.07	43695.46
624.23	43711.84
624.38	43920.15
624.53	43679.08
624.68	44205.70
624.83	44233.78
624.98	43728.23
625.13	43569.07
625.29	43658.01
625.44	44142.50
625.59	43393.53
625.74	42965.21
625.89	43461.41
626.04	42925.42
626.19	43800.79
626.34	43398.21
626.49	43702.48
626.65	43777.38
626.80	43728.23
626.95	43358.42
627.10	42923.08
627.25	43297.57
627.40	43026.07
627.55	43150.12
627.70	43044.79
627.85	42740.52
628.00	42775.63
628.15	43051.81
628.30	43227.35
628.45	43129.05
628.60	43225.01
628.76	43423.96
628.91	43028.41
629.06	42831.80
629.21	42986.28
629.36	42824.78
629.51	42646.90
629.66	42433.91
629.81	42632.86
629.96	42937.13
630.11	42794.36
630.26	43189.91
630.41	42616.47
630.56	43012.02
630.71	42438.59
630.86	43150.12
631.01	42588.39
631.16	42532.22
631.31	42714.78
631.46	42309.86
631.61	42588.39
631.76	42965.21
631.91	43033.09
632.06	42370.72
632.21	42529.87
632.36	42745.20
632.51	41832.39
632.66	42637.54
632.81	42000.91
632.96	42485.40
633.10	42146.03
633.25	42616.47
633.40	42237.31
633.55	42295.82
633.70	42274.76
633.85	42059.43
634.00	42822.44
634.15	42541.58
634.30	41764.52
634.45	42213.90
634.60	42024.32
634.75	41799.63
634.90	42005.59
635.05	41787.92
635.19	41867.50
635.34	41895.59
635.49	42258.37
635.64	41926.02
635.79	41965.81
635.94	41411.10
636.09	41689.62
636.24	41556.21
636.39	41593.66
636.53	41359.61
636.68	41127.89
636.83	41158.32
636.98	41354.93
637.13	40772.13
637.28	41703.67
637.43	41841.76
637.57	41706.01
637.72	41947.08
637.87	41329.18
638.02	41223.86
638.17	41804.31
638.32	41336.20
638.46	41429.82
638.61	41256.62
638.76	40652.76
638.91	41551.53
639.06	41294.07
639.20	41354.93
639.35	41684.94
639.50	41282.37
639.65	41310.46
639.80	41420.46
639.94	41170.02
640.09	40821.28
640.24	41132.57
640.39	41053.00
640.54	41177.04
640.68	41146.62
640.83	40980.44
640.98	40856.39
641.13	40680.85
641.27	41361.95
641.42	41167.68
641.57	41254.28
641.72	41111.51
641.86	40257.21
642.01	40446.80
642.16	40818.94
642.31	40275.94
642.45	40685.53
642.60	40378.92
642.75	40521.69
642.90	40348.50
643.04	40605.95
643.19	40439.78
643.34	40301.68
643.48	40196.36
643.63	40465.52
643.78	40531.06
643.93	40779.15
644.07	40463.18
644.22	40355.52
644.37	40144.87
644.51	40481.91
644.66	39936.56
644.81	40477.22
644.95	40357.86
645.10	40018.48
645.25	40144.87
645.39	40573.19
645.54	40282.96
645.69	39601.86
645.83	39915.50
645.98	40147.21
646.13	39711.87
646.27	39634.63
646.42	39742.30
646.57	39782.09
646.71	39779.74
646.86	39941.24
647.00	40318.07
647.15	39981.03
647.30	40009.12
647.44	39768.04
647.59	39789.11
647.74	39735.27
647.88	39447.39
648.03	39653.36
648.17	39431.01
648.32	39173.55
648.47	39360.79
648.61	39255.46
648.76	39847.62
648.90	39531.65
649.05	39952.94
649.20	39798.47
649.34	39964.65
649.49	39559.73
649.63	39276.53
649.78	39477.82
649.92	39377.17
650.07	39819.53
650.21	39426.32
650.36	39108.01
650.51	39159.50
650.65	39276.53
650.80	39400.58
650.94	39519.95
651.09	39229.72
651.23	39037.80
651.38	38761.61
651.52	39239.08
651.67	39255.46
651.81	38913.75
651.96	39023.75
652.10	39021.41
652.25	38864.60
652.39	38518.20
652.54	38998.01
652.68	39145.46
652.83	38838.85
652.97	38976.94
653.12	38522.88
653.26	38607.14
653.41	39044.82
653.55	38174.14
653.70	38724.16
653.84	39044.82
653.99	38555.64
654.13	38508.83
654.27	38515.86
654.42	38499.47
654.56	38019.66
654.71	38560.33
654.85	38611.82
655.00	38185.84
655.14	38047.75
655.29	38206.90
655.43	38483.09
655.57	37890.93
655.72	38094.56
655.86	37659.22
656.01	37811.35
656.15	37762.20
656.30	37809.01
656.44	37874.55
656.58	37743.48
656.73	37750.50
656.87	37933.06
657.01	37979.87
657.16	37605.39
657.30	37125.58
657.45	37448.57
657.59	37816.04
657.73	37553.90
657.88	37481.34
658.02	37347.93
658.16	37605.39
658.31	37752.84
658.45	37675.60
658.60	37797.31
658.74	37415.80
658.88	37464.96
659.03	37399.42
659.17	37268.35
659.31	37376.01
659.46	37188.77
659.60	37287.07
659.74	37366.65
659.89	36943.02
660.03	36872.80
660.17	37003.87
660.32	36847.05
660.46	36954.72
660.60	36950.04
660.74	37177.07
660.89	37071.75
661.03	36861.10
661.17	36741.73
661.32	36528.74
661.46	36535.76
661.60	36556.83
661.74	36680.88
661.89	36547.47
662.03	36563.85
662.17	36463.21
662.31	36142.55
662.46	36577.89
662.60	36720.66
662.74	36423.42
662.88	36404.69
663.03	36273.62
663.17	36130.85
663.31	35957.65
663.45	35957.65
663.60	36182.34
663.74	36128.51
663.88	35915.52
664.02	35887.43
664.17	35669.76
664.31	35669.76
664.45	35952.97
664.59	35592.53
664.73	35367.84
664.88	36187.02
665.02	35145.48
665.16	35337.41
665.30	35519.97
665.44	35381.88
665.59	35173.57
665.73	35515.29
665.87	35199.32
666.01	35213.36
666.15	35360.81
666.29	34937.18
666.44	35161.87
666.58	34927.81
666.72	34948.88
666.86	35534.01
667.00	35613.59
667.14	34604.82
667.28	34391.83
667.43	34464.39
667.57	34768.66
667.71	34838.87
667.85	34490.13
667.99	34558.01
668.13	34955.90
668.27	34246.72
668.41	34417.58
668.56	33951.81
668.70	34604.82
668.84	33823.08
668.98	34033.73
669.12	33916.70
669.26	34466.73
669.40	34117.99
669.54	33998.62
669.68	34057.14
669.82	34188.21
669.96	33666.27
670.10	33879.25
670.25	33710.74
670.39	33638.18
670.53	33792.65
670.67	33172.41
670.81	33460.30
670.95	33591.37
671.09	33322.21
671.23	33556.26
671.37	33268.37
671.51	32996.87
671.65	32673.88
671.79	32587.28
671.93	32662.18
672.07	33113.90
672.21	32716.01
672.35	32788.56
672.49	32423.44
672.63	32720.69
672.77	32589.62
672.91	32598.98
673.05	32423.44
673.19	31899.16
673.33	31997.46
673.47	32500.68
673.61	32107.47
673.75	31842.99
673.89	31480.21
674.03	31470.84
674.17	31569.15
674.31	31594.89
674.45	31599.57
674.59	31634.68
674.73	31644.04
674.87	31274.24
675.01	31723.62
675.15	31419.35
675.29	31477.86
675.43	31381.90
675.56	31079.97
675.70	31438.08
675.84	31215.72
675.98	30244.40
676.12	30965.29
676.26	30668.04
676.40	30728.89
676.54	30419.94
676.68	30295.89
676.82	29928.43
676.96	30026.73
677.10	29907.37
677.23	29846.51
677.37	29851.19
677.51	29893.32
677.65	30106.31
677.79	29298.83
677.93	29818.42
678.07	29507.13
678.21	29401.81
678.34	29383.09
678.48	29493.09
678.62	29490.75
678.76	29212.23
678.90	29156.05
679.04	29092.86
679.18	28903.28
679.31	28481.98
679.45	28552.20
679.59	28472.62
679.73	28247.93
679.87	28535.81
680.00	28332.18
680.14	28098.13
680.28	28081.75
680.42	28339.21
680.56	28222.18
680.70	28119.20
680.83	27597.26
680.97	27688.54
681.11	27611.30
681.25	27538.74
681.39	27569.17
681.52	27702.58
681.66	27269.58
681.80	27459.16
681.94	27211.07
682.07	27328.10
682.21	27395.97
682.35	26780.41
682.49	26998.08
682.62	26749.98
682.76	26909.14
682.90	26794.45
683.04	26712.53
683.17	26590.83
683.31	26515.93
683.45	26506.57
683.59	26630.62
683.72	25937.82
683.86	25963.56
684.00	25680.36
684.13	25902.71
684.27	26054.84
684.41	25553.97
684.55	25406.52
684.68	25221.61
684.82	25118.63
684.96	25523.54
685.09	25214.59
685.23	25095.22
685.37	25394.81
685.50	24865.85
685.64	24900.96
685.78	25125.65
685.91	24940.75
686.05	24514.77
686.19	24414.13
686.32	24203.48
686.46	23943.68
686.60	23964.75
686.73	24032.62
686.87	23688.56
687.01	23843.04
687.14	23587.92
687.28	23356.21
687.42	23529.41
687.55	23545.79
687.69	23573.88
687.82	23356.21
687.96	23438.12
688.10	23445.15
688.23	23000.44
688.37	23014.49
688.50	22483.19
688.64	22986.40
688.78	22691.49
688.91	22700.86
689.05	23023.85
689.18	22689.15
689.32	22401.27
689.46	22450.42
689.59	22377.86
689.73	22249.13
689.86	22214.02
690.00	22057.21
690.13	22059.55
690.27	21935.50
690.41	21858.26
690.54	21376.11
690.68	21221.64
690.81	21422.92
690.95	21439.31
691.08	21338.66
691.22	21343.35
691.35	21514.20
691.49	21474.42
691.62	21298.88
691.76	21209.93
691.89	21294.19
692.03	21001.63
692.16	20608.42
692.30	20622.46
692.43	20704.38
692.57	20556.93
692.70	20596.71
692.84	20130.95
692.97	20037.33
693.11	20121.59
693.24	20432.88
693.38	20460.96
693.51	20290.10
693.65	20196.48
693.78	19669.86
693.92	19871.15
694.05	19707.31
694.19	20194.14
694.32	19742.42
694.45	19529.43
694.59	19330.48
694.72	19159.63
694.86	19108.13
694.99	19229.84
695.13	19089.41
695.26	19496.66
695.39	18796.84
695.53	19056.64
695.66	18787.48
695.80	18672.79
695.93	18647.05
696.07	18314.69
696.20	18209.37
696.33	18586.19
696.47	18445.76
696.60	18111.07
696.73	18258.52
696.87	18005.74
697.00	18237.45
697.14	17816.16
697.27	17554.02
697.40	18059.57
697.54	17958.93
697.67	17736.58
697.80	17722.54
697.94	17605.51
698.07	17554.02
698.21	17558.70
698.34	17605.51
698.47	17378.48
698.61	16952.50
698.74	16889.31
698.87	16940.80
699.01	16809.73
699.14	16863.56
699.27	16971.22
699.40	16812.07
699.54	16493.76
699.67	16329.92
699.80	16203.53
699.94	16482.05
700.07	16161.40
700.20	16039.69
700.34	16105.23
700.47	16205.87
700.60	16348.64
700.73	16601.42
700.87	15934.37
701.00	15737.76
701.13	15807.98
701.26	16030.33
701.40	15674.57
701.53	15618.39
701.66	15363.28
701.79	15501.37
701.93	15447.54
702.06	14991.13
702.19	15161.99
702.32	15489.67
702.46	15040.28
702.59	15124.54
702.72	14965.39
702.85	15316.47
702.99	15005.17
703.12	14803.89
703.25	14618.99
703.38	14949.00
703.51	14799.21
703.65	14611.96
703.78	14513.66
703.91	14377.91
704.04	14558.13
704.17	14279.61
704.31	14422.38
704.44	13877.04
704.57	14101.73
704.70	14036.19
704.83	13816.18
704.96	14008.11
705.10	13830.23
705.23	13996.40
>>>>>End Processed Spectral Data<<<<<
