SpectraSuite Data File
++++++++++++++++++++++++++++++++++++
Date: Fri Oct 25 11:34:26 EDT 2013
User: price-jones
Dark Spectrum Present: No
Reference Spectrum Present: No
Number of Sampled Component Spectra: 1
Spectrometers: USB2+H05261
Integration Time (usec): 100000 (USB2+H05261)
Spectra Averaged: 1 (USB2+H05261)
Boxcar Smoothing: 0 (USB2+H05261)
Correct for Electrical Dark: No (USB2+H05261)
Strobe/Lamp Enabled: No (USB2+H05261)
Correct for Detector Non-linearity: No (USB2+H05261)
Correct for Stray Light: No (USB2+H05261)
Number of Pixels in Processed Spectrum: 2048
>>>>>Begin Processed Spectral Data<<<<<
365.73	292.57
365.92	292.57
366.12	292.57
366.32	166.18
366.52	243.42
366.72	189.58
366.91	149.79
367.11	152.13
367.31	191.92
367.51	170.86
367.70	198.95
367.90	196.60
368.10	210.65
368.30	234.05
368.49	154.48
368.69	245.76
368.89	177.88
369.09	191.92
369.28	205.97
369.48	168.52
369.68	217.67
369.87	205.97
370.07	259.80
370.27	259.80
370.47	285.55
370.66	472.79
370.86	500.87
371.06	498.53
371.25	617.90
371.45	526.62
371.65	575.77
371.84	510.24
372.04	475.13
372.24	589.82
372.44	531.30
372.63	606.20
372.83	573.43
373.03	627.26
373.22	571.09
373.42	559.39
373.62	596.84
373.81	575.77
374.01	615.56
374.21	610.88
374.40	624.92
374.60	699.82
374.79	643.65
374.99	678.76
375.19	676.41
375.38	683.44
375.58	589.82
375.78	720.88
375.97	641.31
376.17	716.20
376.37	720.88
376.56	648.33
376.76	648.33
376.95	601.52
377.15	678.76
377.35	655.35
377.54	681.10
377.74	667.05
377.93	727.91
378.13	662.37
378.33	730.25
378.52	713.86
378.72	730.25
378.91	744.29
379.11	737.27
379.31	643.65
379.50	697.48
379.70	788.76
379.89	709.18
380.09	702.16
380.28	702.16
380.48	704.50
380.68	751.31
380.87	688.12
381.07	702.16
381.26	763.01
381.46	798.12
381.65	746.63
381.85	770.04
382.04	779.40
382.24	788.76
382.43	819.19
382.63	758.33
382.83	716.20
383.02	816.85
383.22	767.70
383.41	795.78
383.61	755.99
383.80	861.32
384.00	697.48
384.19	777.06
384.39	828.55
384.58	851.96
384.78	870.68
384.97	774.72
385.17	755.99
385.36	807.48
385.56	746.63
385.75	812.17
385.95	844.93
386.14	781.74
386.34	877.70
386.53	858.98
386.72	748.97
386.92	821.53
387.11	896.43
387.31	856.64
387.50	727.91
387.70	861.32
387.89	943.24
388.09	854.30
388.28	802.80
388.48	849.61
388.67	889.40
388.86	866.00
389.06	887.06
389.25	880.04
389.45	901.11
389.64	891.74
389.84	987.71
390.03	966.64
390.22	910.47
390.42	922.17
390.61	945.58
390.81	968.98
391.00	947.92
391.19	978.34
391.39	966.64
391.58	987.71
391.78	959.62
391.97	990.05
392.16	957.28
392.36	964.30
392.55	1097.71
392.75	1027.50
392.94	1032.18
393.13	966.64
393.33	987.71
393.52	1078.99
393.71	1041.54
393.91	1025.15
394.10	1036.86
394.29	1032.18
394.49	1086.01
394.68	1076.65
394.88	1114.10
395.07	1158.57
395.26	1069.62
395.46	1107.07
395.65	1139.84
395.84	1170.27
396.04	1219.42
396.23	1130.48
396.42	1179.63
396.62	1191.33
396.81	1277.93
397.00	1067.28
397.19	1193.67
397.39	1200.69
397.58	1146.86
397.77	1214.74
397.97	1249.85
398.16	1277.93
398.35	1228.78
398.55	1249.85
398.74	1376.24
398.93	1266.23
399.12	1261.55
399.32	1193.67
399.51	1282.61
399.70	1268.57
399.90	1324.74
400.09	1306.02
400.28	1343.47
400.47	1366.87
400.67	1329.42
400.86	1245.16
401.05	1441.77
401.24	1409.00
401.44	1434.75
401.63	1392.62
401.82	1437.09
402.01	1357.51
402.21	1474.54
402.40	1345.81
402.59	1563.48
402.78	1474.54
402.97	1516.67
403.17	1547.09
403.36	1458.15
403.55	1549.43
403.74	1474.54
403.93	1570.50
404.13	1561.14
404.32	1465.18
404.51	1584.54
404.70	1563.48
404.89	1514.33
405.09	1596.25
405.28	1591.56
405.47	1668.80
405.66	1568.16
405.85	1633.69
406.05	1533.05
406.24	1692.21
406.43	1664.12
406.62	1799.87
406.81	1743.70
407.00	1689.87
407.20	1703.91
407.39	1701.57
407.58	1820.94
407.77	1771.79
407.96	1764.76
408.15	1729.66
408.34	1811.57
408.54	1839.66
408.73	1874.77
408.92	1823.28
409.11	1923.92
409.30	1944.99
409.49	1975.41
409.68	1832.64
409.87	1902.86
410.07	1865.41
410.26	1973.07
410.45	1977.75
410.64	2125.21
410.83	2038.61
411.02	2052.65
411.21	2129.89
411.40	2066.69
411.59	2064.35
411.78	2165.00
411.98	2214.15
412.17	2232.87
412.36	2216.49
412.55	2258.62
412.74	2279.68
412.93	2176.70
413.12	2239.89
413.31	2370.96
413.50	2298.41
413.69	2382.67
413.88	2410.75
414.07	2394.37
414.26	2300.75
414.45	2314.79
414.64	2340.54
414.83	2530.12
415.02	2541.82
415.22	2609.70
415.41	2441.18
415.60	2562.89
415.79	2654.17
415.98	2565.23
416.17	2595.65
416.36	2541.82
416.55	2633.10
416.74	2668.21
416.93	2761.83
417.12	2686.94
417.31	2654.17
417.50	2869.50
417.69	2871.84
417.88	2743.11
418.07	2780.56
418.26	2855.45
418.45	2920.99
418.64	2986.52
418.83	2981.84
419.02	2902.26
419.21	2911.63
419.39	2958.44
419.58	2897.58
419.77	3002.91
419.96	2993.55
420.15	3129.30
420.34	3021.63
420.53	3026.31
420.72	3251.00
420.91	3119.93
421.10	3141.00
421.29	3150.36
421.48	3248.66
421.67	3211.22
421.86	3215.90
422.05	3133.98
422.24	3150.36
422.43	3173.77
422.61	3269.73
422.80	3236.96
422.99	3269.73
423.18	3309.52
423.37	3337.60
423.56	3274.41
423.75	3318.88
423.94	3323.56
424.13	3014.61
424.32	3091.85
424.50	3272.07
424.69	3300.16
424.88	3342.28
425.07	3342.28
425.26	3208.87
425.45	3300.16
425.64	3384.41
425.83	3300.16
426.01	3311.86
426.20	3363.35
426.39	3356.33
426.58	3452.29
426.77	3449.95
426.96	3344.63
427.15	3482.72
427.33	3482.72
427.52	3398.46
427.71	3496.76
427.90	3501.44
428.09	3520.17
428.28	3515.48
428.46	3475.70
428.65	3595.06
428.84	3559.95
429.03	3686.34
429.22	3578.68
429.40	3574.00
429.59	3651.24
429.78	3597.40
429.97	3569.32
430.16	3726.13
430.34	3583.36
430.53	3817.41
430.72	3784.65
430.91	3747.20
431.10	3779.97
431.28	3929.76
431.47	3833.80
431.66	3803.37
431.85	3840.82
432.03	4007.00
432.22	3967.21
432.41	4025.72
432.60	3911.04
432.79	3969.55
432.97	3932.10
433.16	4039.76
433.35	3936.78
433.54	3981.25
433.72	4170.83
433.91	4025.72
434.10	3946.14
434.28	4107.64
434.47	4219.99
434.66	4046.79
434.85	4102.96
435.03	4201.26
435.22	4173.18
435.41	4259.78
435.59	4163.81
435.78	4210.62
435.97	4051.47
436.16	4210.62
436.34	4231.69
436.53	4344.03
436.72	4514.89
436.90	4222.33
437.09	4400.21
437.28	4273.82
437.46	4285.52
437.65	4383.82
437.84	4418.93
438.02	4470.42
438.21	4507.87
438.40	4393.19
438.58	4662.35
438.77	4629.58
438.96	4596.81
439.14	4716.18
439.33	4676.39
439.52	4760.65
439.70	4854.27
439.89	4645.96
440.08	4662.35
440.26	4854.27
440.45	4915.12
440.63	4851.93
440.82	5102.37
441.01	4954.91
441.19	4947.89
441.38	5078.96
441.57	5081.30
441.75	5121.09
441.94	5261.52
442.12	5231.10
442.31	5177.26
442.50	5210.03
442.68	5142.16
442.87	5165.56
443.05	5221.74
443.24	5453.45
443.43	5390.25
443.61	5207.69
443.80	5416.00
443.98	5165.56
444.17	5074.28
444.35	5226.42
444.54	5408.98
444.73	5373.87
444.91	5404.30
445.10	5413.66
445.28	5593.88
445.47	5423.02
445.65	5488.56
445.84	5401.96
446.02	5666.44
446.21	5591.54
446.39	5441.75
446.58	5497.92
446.77	5451.11
446.95	5448.77
447.14	5486.22
447.32	5533.03
447.51	5472.17
447.69	5521.32
447.88	5430.04
448.06	5458.13
448.25	5542.39
448.43	5596.22
448.62	5617.29
448.80	5556.43
448.99	5593.88
449.17	5603.24
449.36	5643.03
449.54	5827.93
449.73	5933.26
449.91	5811.55
450.10	5764.74
450.28	5980.07
450.46	5783.46
450.65	5989.43
450.83	5912.19
451.02	5851.34
451.20	6050.28
451.39	5853.68
451.57	5963.68
451.76	5877.09
451.94	6092.41
452.13	5954.32
452.31	5942.62
452.49	6024.54
452.68	6181.35
452.86	6164.97
453.05	6092.41
453.23	6141.57
453.42	6129.86
453.60	6134.54
453.78	6162.63
453.97	6143.91
454.15	6200.08
454.34	6225.82
454.52	6370.94
454.70	6317.11
454.89	6361.58
455.07	6420.09
455.26	6108.80
455.44	6380.30
455.62	6593.29
455.81	6410.73
455.99	6558.18
456.17	6516.05
456.36	6530.09
456.54	6754.79
456.73	6626.06
456.91	6705.63
457.09	6612.01
457.28	6764.15
457.46	6553.50
457.64	6752.45
457.83	6822.66
458.01	6729.04
458.19	6981.82
458.38	6668.19
458.56	6892.88
458.74	6895.22
458.93	6895.22
459.11	6935.01
459.29	7021.61
459.48	6913.94
459.66	7087.14
459.84	7002.88
460.03	7077.78
460.21	7215.87
460.39	7241.62
460.57	7225.23
460.76	7201.83
460.94	7255.66
461.12	7229.91
461.31	7304.81
461.49	7318.86
461.67	7035.65
461.85	7391.41
462.04	7269.70
462.22	7681.64
462.40	7447.58
462.59	7461.63
462.77	7365.67
462.95	7449.93
463.13	7478.01
463.32	7559.93
463.50	7576.31
463.68	7616.10
463.86	7653.55
464.05	7583.34
464.23	7473.33
464.41	7655.89
464.59	7541.21
464.78	7988.25
464.96	7672.28
465.14	7534.18
465.32	7826.75
465.50	7878.24
465.69	7714.41
465.87	7662.91
466.05	7747.17
466.23	7992.93
466.41	7775.26
466.60	7992.93
466.78	7772.92
466.96	7894.63
467.14	7988.25
467.32	8030.38
467.51	8018.68
467.69	7892.29
467.87	7943.78
468.05	8135.70
468.23	8025.70
468.41	7953.14
468.60	8028.04
468.78	8196.56
468.96	8116.98
469.14	8222.30
469.32	8280.82
469.50	8191.88
469.69	8238.69
469.87	8332.31
470.05	8355.71
470.23	8531.25
470.41	8367.42
470.59	8442.31
470.77	8308.90
470.95	8341.67
471.14	8746.58
471.32	8636.58
471.50	8739.56
471.68	8667.00
471.86	8636.58
472.04	8842.54
472.22	8842.54
472.40	8580.40
472.58	8861.27
472.77	8975.95
472.95	9034.47
473.13	9432.36
473.31	9163.20
473.49	9207.67
473.67	9146.81
473.85	9231.07
474.03	9320.01
474.21	9448.74
474.39	9401.93
474.57	9399.59
474.75	9441.72
474.93	9441.72
475.12	9593.86
475.30	9661.73
475.48	9568.11
475.66	9694.50
475.84	9619.60
476.02	9848.97
476.20	9893.44
476.38	9940.26
476.56	10045.58
476.74	10125.16
476.92	10118.14
477.10	9919.19
477.28	10218.78
477.46	10384.96
477.64	10361.55
477.82	10815.62
478.00	10607.31
478.18	10487.94
478.36	10754.76
478.54	10796.89
478.72	10874.13
478.90	11012.22
479.08	10981.79
479.26	11274.36
479.44	11316.49
479.62	11426.50
479.80	11342.24
479.98	11609.06
480.16	11648.85
480.34	11360.96
480.52	11887.58
480.70	11875.88
480.88	11749.49
481.06	11864.18
481.24	12049.08
481.41	12285.47
481.59	12063.12
481.77	12355.69
481.95	12404.84
482.13	12477.40
482.31	12479.74
482.49	12795.71
482.67	12704.43
482.85	12999.34
483.03	12996.99
483.21	13001.68
483.39	13233.39
483.57	13200.62
483.74	13284.88
483.92	13418.29
484.10	13378.50
484.28	13771.71
484.46	13668.73
484.64	14003.43
484.82	13951.93
485.00	14143.86
485.18	14171.94
485.35	14263.22
485.53	14324.08
485.71	14373.23
485.89	14583.88
486.07	14710.27
486.25	14714.95
486.43	14953.68
486.61	14970.07
486.78	15192.42
486.96	15218.16
487.14	15503.71
487.32	15552.86
487.50	15562.22
487.68	15887.56
487.85	15803.30
488.03	16133.31
488.21	16201.19
488.39	16493.76
488.57	16383.75
488.75	16229.27
488.92	16587.38
489.10	16671.64
489.28	16762.92
489.46	17053.14
489.64	17020.38
489.81	17228.68
489.99	17198.26
490.17	17415.93
490.35	17399.54
490.53	17631.26
490.70	17846.58
490.88	18026.81
491.06	17947.23
491.24	17989.36
491.41	18256.18
491.59	18298.31
491.77	18195.32
491.95	18497.25
492.13	18459.81
492.30	18700.88
492.48	19075.37
492.66	19049.62
492.84	18878.76
493.01	19524.75
493.19	19424.11
493.37	19541.13
493.54	19740.08
493.72	19988.18
493.90	19939.02
494.08	19719.01
494.25	20500.75
494.43	20177.76
494.61	20540.54
494.79	20294.79
494.96	20369.68
495.14	20652.89
495.32	20802.68
495.49	20798.00
495.67	20882.26
495.85	20917.37
496.02	20821.41
496.20	21256.75
496.38	21085.89
496.55	21216.96
496.73	21624.21
496.91	21664.00
497.09	21668.68
497.26	21771.66
497.44	21759.96
497.62	22036.14
497.79	22410.63
497.97	22153.17
498.14	22642.34
498.32	22553.40
498.50	22792.14
498.67	22796.82
498.85	22532.34
499.03	23199.39
499.20	23068.32
499.38	23468.55
499.56	23316.42
499.73	23178.33
499.91	23428.76
500.08	23349.18
500.26	23892.19
500.44	23632.39
500.61	23791.55
500.79	23515.36
500.97	23960.06
501.14	24411.79
501.32	24540.52
501.49	24133.26
501.67	24231.57
501.84	24517.11
502.02	24704.35
502.20	24404.77
502.37	24826.06
502.55	24613.07
502.72	24819.04
502.90	24945.43
503.07	24673.93
503.25	25120.97
503.43	25277.79
503.60	25333.96
503.78	25577.37
503.95	25322.26
504.13	24980.54
504.30	25539.93
504.48	25408.86
504.65	25874.62
504.83	25596.10
505.01	26129.74
505.18	25701.42
505.36	26089.95
505.53	26176.55
505.71	25954.20
505.88	26087.61
506.06	26490.18
506.23	26445.71
506.41	26214.00
506.58	26450.39
506.76	26518.27
506.93	26665.72
507.11	26836.58
507.28	26799.13
507.46	27220.43
507.63	26834.24
507.81	27080.00
507.98	26754.66
508.16	27271.92
508.33	27590.24
508.50	27496.61
508.68	27524.70
508.85	27552.79
509.03	27536.40
509.20	27889.82
509.38	28023.23
509.55	27969.40
509.73	28034.94
509.90	28507.72
510.08	27976.42
510.25	28170.69
510.42	28290.06
510.60	28751.14
510.77	28891.57
510.95	29010.94
511.12	28917.32
511.30	28577.94
511.47	28680.92
511.64	28856.46
511.82	29411.17
511.99	28912.64
512.17	28882.21
512.34	29149.03
512.51	29425.22
512.69	29418.19
512.86	29635.86
513.04	29687.36
513.21	30209.29
513.38	29886.30
513.56	29996.31
513.73	30167.16
513.90	30052.48
514.08	29848.85
514.25	30415.26
514.43	29996.31
514.60	30108.65
514.77	29954.18
514.95	30312.28
515.12	30335.68
515.29	30588.46
515.47	31040.18
515.64	30696.13
515.81	30686.76
515.99	30801.45
516.16	30855.28
516.33	31049.55
516.51	31271.90
516.68	30749.96
516.85	30965.29
517.03	31517.65
517.20	31068.27
517.37	31096.36
517.54	31433.39
517.72	31730.64
517.89	31817.24
518.06	31859.37
518.24	31702.56
518.41	31639.36
518.58	31447.44
518.75	31765.75
518.93	31924.91
519.10	31927.25
519.27	32020.87
519.45	31866.39
519.62	31915.54
519.79	32470.25
519.96	31688.51
520.14	32318.12
520.31	32432.80
520.48	32687.92
520.65	32620.05
520.83	32971.13
521.00	32774.52
521.17	32985.17
521.34	32758.14
521.52	32685.58
521.69	33153.69
521.86	33273.06
522.03	33125.60
522.20	33654.56
522.38	33371.36
522.55	33762.23
522.72	33600.73
522.89	33687.33
523.07	34012.66
523.24	33757.55
523.41	33715.42
523.58	33310.50
523.75	34122.67
523.92	34064.16
524.10	34085.22
524.27	33897.98
524.44	33998.62
524.61	34375.45
524.78	34040.75
524.96	34536.94
525.13	34370.77
525.30	34967.60
525.47	34944.20
525.64	34513.54
525.81	35323.36
525.98	34529.92
526.16	34539.29
526.33	34885.68
526.50	34740.57
526.67	34672.70
526.84	34866.96
527.01	35290.60
527.18	34759.30
527.36	35234.42
527.53	35201.66
527.70	35388.90
527.87	35594.87
528.04	35442.73
528.21	35431.03
528.38	35344.43
528.55	36294.69
528.72	35608.91
528.89	35702.53
529.07	35866.37
529.24	35690.83
529.41	36016.16
529.58	35995.10
529.75	35934.24
529.92	36023.19
530.09	35901.48
530.26	35793.81
530.43	36264.26
530.60	35915.52
530.77	35763.39
530.94	36271.28
531.11	36238.51
531.28	36463.21
531.46	36524.06
531.63	36463.21
531.80	36751.09
531.97	36910.25
532.14	36889.18
532.31	36254.90
532.48	37146.64
532.65	37074.09
532.82	36746.41
532.99	37109.19
533.16	37020.25
533.33	37228.56
533.50	36872.80
533.67	36847.05
533.84	37359.63
534.01	37104.51
534.18	37303.46
534.35	37684.97
534.52	37378.36
534.69	38195.20
534.86	37413.46
535.03	37904.98
535.20	37818.38
535.37	37844.12
535.54	38122.65
535.71	37617.09
535.88	38080.52
536.05	37750.50
536.22	38225.63
536.38	38230.31
536.55	37961.15
536.72	38022.00
536.89	37717.73
537.06	37787.95
537.23	38277.12
537.40	38164.78
537.57	37951.79
537.74	38061.79
537.91	38780.34
538.08	38553.30
538.25	38396.49
538.42	38440.96
538.59	39021.41
538.75	38337.98
538.92	38972.26
539.09	39292.91
539.26	38773.31
539.43	38904.38
539.60	38883.32
539.77	38923.11
539.94	39194.61
540.11	38761.61
540.28	39285.89
540.44	39185.25
540.61	39227.38
540.78	38539.26
540.95	39267.17
541.12	38829.49
541.29	39409.94
541.46	39304.62
541.62	39260.15
541.79	39480.16
541.96	39185.25
542.13	39019.07
542.30	39178.23
542.47	39742.30
542.63	39344.41
542.80	40020.82
542.97	40254.87
543.14	39917.84
543.31	39931.88
543.48	40009.12
543.64	40512.33
543.81	40620.00
543.98	40458.50
544.15	40250.19
544.32	40222.11
544.48	41123.21
544.65	40697.24
544.82	40601.27
544.99	40825.96
545.16	40882.14
545.32	40245.51
545.49	40582.55
545.66	40914.90
545.83	40912.56
546.00	40620.00
546.16	40938.31
546.33	40942.99
546.50	40577.87
546.67	41385.35
546.83	40622.34
547.00	40751.07
547.17	40575.53
547.34	40463.18
547.50	41127.89
547.67	41654.51
547.84	41193.43
548.00	41532.81
548.17	41963.46
548.34	41146.62
548.51	41717.71
548.67	41579.62
548.84	41457.91
549.01	41027.25
549.18	41727.07
549.34	41691.96
549.51	41963.46
549.68	42061.77
549.84	41752.82
550.01	41560.89
550.18	41895.59
550.34	42080.49
550.51	42005.59
550.68	42094.53
550.84	41340.88
551.01	41907.29
551.18	41680.26
551.34	41628.77
551.51	42007.94
551.68	42073.47
551.84	41858.14
552.01	41799.63
552.18	42237.31
552.34	41928.36
552.51	42520.51
552.68	42298.16
552.84	42270.08
553.01	42499.45
553.18	42628.18
553.34	42209.22
553.51	42234.97
553.67	42574.34
553.84	42792.01
554.01	42705.41
554.17	42515.83
554.34	42693.71
554.51	42932.45
554.67	43131.39
554.84	42607.11
555.00	42398.80
555.17	42609.45
555.33	43054.15
555.50	42665.63
555.67	42944.15
555.83	42443.27
556.00	42766.27
556.16	43594.82
556.33	42806.06
556.50	43175.86
556.66	42958.19
556.83	42838.83
556.99	43545.67
557.16	43166.50
557.32	43208.63
557.49	43489.49
557.65	42866.91
557.82	42981.60
557.98	43639.29
558.15	43255.44
558.32	43475.45
558.48	43351.40
558.65	43786.74
558.81	43402.89
558.98	43323.32
559.14	42960.53
559.31	43117.35
559.47	43213.31
559.64	44072.29
559.80	43388.85
559.97	43725.89
560.13	43559.71
560.30	43753.97
560.46	44091.01
560.63	43639.29
560.79	43803.13
560.96	44219.74
561.12	43674.40
561.29	43955.26
561.45	44004.41
561.61	43730.57
561.78	43887.39
561.94	43716.53
562.11	44023.14
562.27	43812.49
562.44	43899.09
562.60	44182.29
562.77	43826.53
562.93	43557.37
563.10	44069.95
563.26	43988.03
563.42	44304.00
563.59	43658.01
563.75	43950.58
563.92	44224.42
564.08	44009.09
564.24	44603.59
564.41	44198.68
564.57	44060.58
564.74	44182.29
564.90	43999.73
565.07	44243.15
565.23	44491.24
565.39	44533.37
565.56	44278.25
565.72	44212.72
565.88	44474.86
566.05	44098.03
566.21	44332.09
566.38	44184.63
566.54	44285.28
566.70	44683.17
566.87	44765.09
567.03	44666.78
567.19	44502.95
567.36	44598.91
567.52	44516.99
567.68	44863.39
567.85	44891.48
568.01	44268.89
568.17	44631.68
568.34	45165.32
568.50	44793.17
568.66	44617.63
568.83	44828.28
568.99	44559.12
569.15	44547.42
569.32	44306.34
569.48	44580.18
569.64	44577.84
569.81	45062.33
569.97	44774.45
570.13	45048.29
570.30	44484.22
570.46	44769.77
570.62	44879.77
570.78	44746.36
570.95	45155.96
571.11	45085.74
571.27	44795.51
571.43	44493.58
571.60	45090.42
571.76	44388.26
571.92	45205.11
572.09	44610.61
572.25	45013.18
572.41	44488.90
572.57	44662.10
572.74	45001.48
572.90	44807.22
573.06	44978.07
573.22	45263.62
573.38	45497.67
573.55	44882.11
573.71	45565.55
573.87	44737.00
574.03	44989.78
574.20	45305.75
574.36	45350.22
574.52	45303.41
574.68	44900.84
574.84	45177.02
575.01	45067.02
575.17	45001.48
575.33	45104.46
575.49	44959.35
575.65	45263.62
575.82	45090.42
575.98	45125.53
576.14	45483.63
576.30	45525.76
576.46	45081.06
576.62	45123.19
576.79	45392.35
576.95	45074.04
577.11	45256.60
577.27	45347.88
577.43	45179.36
577.59	45490.65
577.75	44926.58
577.92	45368.94
578.08	45593.64
578.24	45223.83
578.40	45488.31
578.56	45230.85
578.72	45284.68
578.88	45305.75
579.04	45518.74
579.21	45345.54
579.37	45558.53
579.53	45298.73
579.69	45233.19
579.85	45179.36
580.01	45301.07
580.17	45223.83
580.33	45750.45
580.49	45303.41
580.65	45303.41
580.82	45237.87
580.98	44973.39
581.14	45083.40
581.30	45556.19
581.46	44985.10
581.62	45607.68
581.78	45137.23
581.94	45432.14
582.10	45366.60
582.26	45333.84
582.42	45453.20
582.58	45272.98
582.74	45495.33
582.90	45570.23
583.06	45577.25
583.22	45551.51
583.38	45361.92
583.54	45762.15
583.70	45256.60
583.86	45794.92
584.02	45743.43
584.18	45773.86
584.34	45390.01
584.50	45666.19
584.66	45794.92
584.82	45879.18
584.98	45715.34
585.14	45940.04
585.30	45663.85
585.46	45663.85
585.62	45198.09
585.78	45593.64
585.94	45235.53
586.10	45078.72
586.26	45003.82
586.42	45055.31
586.58	45741.09
586.74	45865.14
586.90	45359.58
587.06	45626.40
587.22	45715.34
587.38	45291.71
587.54	45841.73
587.70	45837.05
587.86	45930.67
588.02	45778.54
588.18	45464.91
588.34	45652.15
588.49	45834.71
588.65	45181.70
588.81	45652.15
588.97	45347.88
589.13	45769.18
589.29	45495.33
589.45	45923.65
589.61	45731.73
589.77	46014.93
589.93	45911.95
590.08	46211.54
590.24	45986.85
590.40	46433.89
590.56	46335.59
590.72	45888.54
590.88	46120.26
591.04	45823.01
591.20	46106.21
591.35	46061.74
591.51	46433.89
591.67	46363.67
591.83	46405.80
591.99	46014.93
592.15	45757.47
592.31	46192.81
592.46	46131.96
592.62	45839.39
592.78	46176.43
592.94	46344.95
593.10	46263.03
593.26	46527.51
593.41	46373.03
593.57	46209.20
593.73	46281.75
593.89	46597.73
594.05	46916.04
594.20	46171.75
594.36	46560.28
594.52	46248.99
594.68	46234.94
594.84	46169.41
594.99	46319.20
595.15	46106.21
595.31	46349.63
595.47	46218.56
595.62	46384.74
595.78	46241.96
595.94	46019.61
596.10	46436.23
596.25	46651.56
596.41	46623.47
596.57	46473.68
596.73	46616.45
596.88	46443.25
597.04	46169.41
597.20	46363.67
597.36	46045.36
597.51	46419.84
597.67	46096.85
597.83	46115.58
597.99	46663.26
598.14	46300.48
598.30	46576.66
598.46	46384.74
598.61	46897.31
598.77	46569.64
598.93	46426.87
599.09	46525.17
599.24	46604.75
599.40	46230.26
599.56	46497.08
599.71	46452.61
599.87	46930.08
600.03	47056.47
600.18	46366.01
600.34	46358.99
600.50	46405.80
600.65	46541.55
600.81	46340.27
600.97	46897.31
601.12	46328.56
601.28	46597.73
601.44	46270.05
601.59	46248.99
601.75	46646.88
601.91	46520.49
602.06	46536.87
602.22	46897.31
602.37	46239.62
602.53	46597.73
602.69	46616.45
602.84	46190.47
603.00	46515.81
603.16	46373.03
603.31	46096.85
603.47	46508.79
603.62	46534.53
603.78	46642.20
603.94	46302.82
604.09	46237.28
604.25	46312.18
604.40	46419.84
604.56	46454.95
604.71	46948.81
604.87	46129.62
605.03	46600.07
605.18	46394.10
605.34	46391.76
605.49	45989.19
605.65	46195.15
605.80	46328.56
605.96	46291.12
606.12	46197.49
606.27	46618.79
606.43	46066.42
606.58	46342.61
606.74	46143.66
606.89	46227.92
607.05	46192.81
607.20	46436.23
607.36	46504.10
607.51	46377.72
607.67	46188.13
607.82	46625.81
607.98	46677.30
608.13	46410.48
608.29	46087.49
608.44	46595.38
608.60	46199.83
608.75	46160.05
608.91	46007.91
609.06	45806.62
609.22	46279.41
609.37	45785.56
609.53	46267.71
609.68	46471.34
609.84	46169.41
609.99	46366.01
610.15	46085.15
610.30	46028.98
610.46	45794.92
610.61	45993.87
610.76	46043.02
610.92	45659.17
611.07	45907.27
611.23	45930.67
611.38	46253.67
611.54	46052.38
611.69	45832.37
611.84	45986.85
612.00	45965.78
612.15	45720.02
612.31	46244.30
612.46	45680.24
612.62	45406.39
612.77	46096.85
612.92	46300.48
613.08	46021.95
613.23	46073.45
613.39	45764.49
613.54	45436.82
613.69	46000.89
613.85	45811.31
614.00	45858.12
614.15	46021.95
614.31	45525.76
614.46	45883.86
614.62	45085.74
614.77	45675.55
614.92	45570.23
615.08	45750.45
615.23	45893.22
615.38	45844.07
615.54	45633.42
615.69	45876.84
615.84	45717.68
616.00	45851.09
616.15	45492.99
616.30	45893.22
616.46	45694.28
616.61	45724.71
616.76	45911.95
616.92	45415.76
617.07	45256.60
617.22	45261.28
617.37	45069.36
617.53	45221.49
617.68	45553.85
617.83	45338.52
617.99	45986.85
618.14	45544.48
618.29	45401.71
618.45	44919.56
618.60	45024.89
618.75	45181.70
618.90	45188.72
619.06	44987.44
619.21	45102.12
619.36	45090.42
619.51	45003.82
619.67	44804.88
619.82	45380.65
619.97	45275.32
620.12	45291.71
620.28	44816.58
620.43	45855.78
620.58	44917.22
620.73	44851.69
620.89	45141.91
621.04	45385.33
621.19	44924.24
621.34	45074.04
621.49	44821.26
621.65	44699.55
621.80	44786.15
621.95	45401.71
622.10	44650.40
622.25	44788.49
622.41	44643.38
622.56	44861.05
622.71	44797.85
622.86	44727.64
623.01	44582.52
623.16	44790.83
623.32	44760.40
623.47	44631.68
623.62	44612.95
623.77	44811.90
623.92	44657.42
624.07	44809.56
624.23	44898.50
624.38	44444.43
624.53	44809.56
624.68	44498.26
624.83	44343.79
624.98	44556.78
625.13	43943.56
625.29	44360.17
625.44	44706.57
625.59	44285.28
625.74	44371.88
625.89	44151.87
626.04	43856.96
626.19	43934.20
626.34	44254.85
626.49	44112.08
626.65	44032.50
626.80	43871.00
626.95	44027.82
627.10	43835.89
627.25	44287.62
627.40	43915.47
627.55	44088.67
627.70	44102.71
627.85	44591.89
628.00	43817.17
628.15	44252.51
628.30	43751.63
628.45	43562.05
628.60	43548.01
628.76	44116.76
628.91	43573.75
629.06	43335.02
629.21	43688.44
629.36	43618.22
629.51	43835.89
629.66	43812.49
629.81	43540.99
629.96	44025.48
630.11	43241.40
630.26	43629.93
630.41	43700.14
630.56	43105.65
630.71	43611.20
630.86	43328.00
631.01	43491.83
631.16	43512.90
631.31	43377.15
631.46	43309.27
631.61	43449.70
631.76	43707.16
631.91	43264.80
632.06	43569.07
632.21	43716.53
632.36	43615.88
632.51	43536.30
632.66	43782.06
632.81	43232.04
632.96	42972.24
633.10	43103.31
633.25	43210.97
633.40	43414.60
633.55	43096.28
633.70	43154.80
633.85	42784.99
634.00	42988.62
634.15	42557.96
634.30	42679.67
634.45	42373.06
634.60	42965.21
634.75	43241.40
634.90	42990.96
635.05	42724.14
635.19	42969.90
635.34	42782.65
635.49	42609.45
635.64	42899.68
635.79	43225.01
635.94	42632.86
636.09	42653.92
636.24	42763.93
636.39	42515.83
636.53	42394.12
636.68	41935.38
636.83	42366.04
636.98	42216.24
637.13	42230.29
637.28	42106.24
637.43	42696.05
637.57	42010.28
637.72	42249.01
637.87	42199.86
638.02	42272.42
638.17	42181.13
638.32	42422.21
638.46	41890.91
638.61	42106.24
638.76	41804.31
638.91	42099.22
639.06	41640.47
639.20	41645.15
639.35	41750.48
639.50	41820.69
639.65	42115.60
639.80	41954.10
639.94	42286.46
640.09	41979.85
640.24	42059.43
640.39	42188.16
640.54	41261.30
640.68	41642.81
640.83	42029.00
640.98	41811.33
641.13	41322.16
641.27	42073.47
641.42	41738.77
641.57	41951.76
641.72	41675.58
641.86	42040.70
642.01	41296.41
642.16	41663.88
642.31	41062.36
642.45	41792.61
642.60	41116.19
642.75	41357.27
642.90	41586.64
643.04	41586.64
643.19	41167.68
643.34	40840.01
643.48	41251.94
643.63	40868.09
643.78	41209.81
643.93	41820.69
644.07	41696.64
644.22	41713.03
644.37	41319.82
644.51	41155.98
644.66	41139.60
644.81	41132.57
644.95	40907.88
645.10	40952.35
645.25	41060.02
645.39	40886.82
645.54	41041.29
645.69	40371.90
645.83	40517.01
645.98	41038.95
646.13	40917.25
646.27	41256.62
646.42	40722.98
646.57	40645.74
646.71	41551.53
646.86	41116.19
647.00	41221.52
647.15	40959.38
647.30	40847.03
647.44	40844.69
647.59	40797.88
647.74	40428.07
647.88	40769.79
648.03	40900.86
648.17	41193.43
648.32	41186.41
648.47	41031.93
648.61	40336.79
648.76	40325.09
648.90	40093.38
649.05	40825.96
649.20	40456.16
649.34	40495.95
649.49	40374.24
649.63	40755.75
649.78	40835.33
649.92	40098.06
650.07	41071.72
650.21	40432.75
650.36	40598.93
650.51	40357.86
650.65	40584.89
650.80	40554.46
650.94	40320.41
651.09	40308.71
651.23	40046.57
651.38	40032.52
651.52	39796.13
651.67	40093.38
651.81	39810.17
651.96	39817.19
652.10	39672.08
652.25	39875.71
652.39	40273.60
652.54	40287.64
652.68	39768.04
652.83	39793.79
652.97	39763.36
653.12	39868.69
653.26	39882.73
653.41	40013.80
653.55	39969.33
653.70	39927.20
653.84	39969.33
653.99	39592.50
654.13	40135.51
654.27	39491.86
654.42	39864.00
654.56	39714.21
654.71	39438.03
654.85	39641.65
655.00	39927.20
655.14	39730.59
655.29	40069.97
655.43	39508.24
655.57	39882.73
655.72	39772.72
655.86	39218.02
656.01	39391.22
656.15	38906.73
656.30	39344.41
656.44	39625.27
656.58	39391.22
656.73	39550.37
656.87	38864.60
657.01	38916.09
657.16	39152.48
657.30	39503.56
657.45	39442.71
657.59	38827.15
657.73	38918.43
657.88	38939.49
658.02	38923.11
658.16	39203.97
658.31	39131.42
658.45	39110.35
658.60	38775.66
658.74	38817.78
658.88	38972.26
659.03	38616.50
659.17	38663.31
659.31	38457.34
659.46	37975.19
659.60	38574.37
659.74	38401.17
659.89	37886.25
660.03	38110.94
660.17	38658.63
660.32	38216.27
660.46	38457.34
660.60	38094.56
660.74	38312.23
660.89	38529.90
661.03	37986.89
661.17	37759.86
661.32	37926.04
661.46	38232.65
661.60	37846.46
661.74	37635.81
661.89	37944.76
662.03	38014.98
662.17	37780.93
662.31	37607.73
662.46	37593.68
662.60	37549.21
662.74	36896.20
662.88	37432.19
663.03	37406.44
663.17	37537.51
663.31	36718.32
663.45	37027.28
663.60	37626.45
663.74	37390.06
663.88	37415.80
664.02	36636.41
664.17	37158.34
664.31	36891.52
664.45	36776.84
664.59	37209.84
664.73	36985.15
664.88	36849.39
665.02	36451.50
665.16	36797.90
665.30	36807.26
665.44	36961.74
665.59	36465.55
665.73	35819.56
665.87	35892.12
666.01	36517.04
666.15	36397.67
666.29	36142.55
666.44	36552.15
666.58	36561.51
666.72	35971.69
666.86	36346.18
667.00	35786.79
667.14	35999.78
667.28	35751.68
667.43	35728.28
667.57	35990.42
667.71	35899.14
667.85	35805.52
667.99	35810.20
668.13	35459.12
668.27	35180.59
668.41	35452.09
668.56	35421.67
668.70	34792.06
668.84	35056.54
668.98	35225.06
669.12	35161.87
669.26	35288.26
669.40	35494.22
669.54	35192.30
669.68	34717.17
669.82	34693.76
669.96	34703.12
670.10	34532.26
670.25	34279.49
670.39	34176.50
670.53	34857.60
670.67	34712.49
670.81	34340.34
670.95	34668.02
671.09	34473.75
671.23	34466.73
671.37	34354.38
671.51	33860.53
671.65	33638.18
671.79	33837.12
671.93	33928.41
672.07	34178.84
672.21	33989.26
672.35	33453.28
672.49	34235.02
672.63	33787.97
672.77	33453.28
672.91	33724.78
673.05	33287.10
673.19	33146.67
673.33	33163.05
673.47	33024.96
673.61	32575.58
673.75	32769.84
673.89	32769.84
674.03	32680.90
674.17	32278.33
674.31	32388.33
674.45	32690.26
674.59	32636.43
674.73	32407.06
674.87	32091.09
675.01	32086.40
675.15	32226.84
675.29	32285.35
675.43	31840.65
675.56	31721.28
675.70	32182.37
675.84	31618.30
675.98	30703.15
676.12	31611.28
676.26	31924.91
676.40	31449.78
676.54	31189.98
676.68	31353.82
676.82	30717.19
676.96	30969.97
677.10	31197.00
677.23	31363.18
677.37	30955.93
677.51	30719.53
677.65	30277.17
677.79	30515.90
677.93	30607.19
678.07	30621.23
678.21	30181.21
678.34	30171.85
678.48	29717.78
678.62	29497.77
678.76	29956.52
678.90	29972.90
679.04	29963.54
679.18	29926.09
679.31	29584.37
679.45	29340.96
679.59	29380.74
679.73	29687.36
679.87	29167.76
680.00	29301.17
680.14	29289.46
680.28	28781.57
680.42	28542.83
680.56	28608.37
680.70	28617.73
680.83	28105.15
680.97	28294.74
681.11	28884.55
681.25	27901.53
681.39	28070.04
681.52	28203.46
681.66	27676.83
681.80	27662.79
681.94	27709.60
682.07	27529.38
682.21	27367.88
682.35	27391.29
682.49	27510.66
682.62	27447.46
682.76	27374.91
682.90	27363.20
683.04	26944.25
683.17	26969.99
683.31	26824.88
683.45	26852.97
683.59	26480.82
683.72	26869.35
683.86	26319.32
684.00	26258.47
684.13	26230.38
684.27	25909.73
684.41	25951.86
684.55	25958.88
684.68	26066.55
684.82	25406.52
684.96	25766.96
685.09	25607.80
685.23	25572.69
685.37	25972.92
685.50	25633.55
685.64	25340.98
685.78	25212.25
685.91	24868.19
686.05	24830.74
686.19	24556.90
686.32	24575.62
686.46	24559.24
686.60	23807.93
686.73	24147.31
686.87	24362.64
687.01	24353.27
687.14	24577.97
687.28	24367.32
687.42	24294.76
687.55	23957.72
687.69	23941.34
687.82	23702.61
687.96	23456.85
688.10	23917.93
688.23	24107.52
688.37	23669.84
688.50	23758.78
688.64	23349.18
688.78	23604.30
688.91	23021.51
689.05	23098.75
689.18	22890.44
689.32	22656.39
689.46	22726.60
689.59	22827.24
689.73	22946.61
689.86	22913.84
690.00	22661.07
690.13	22494.89
690.27	22302.96
690.41	22185.94
690.54	21919.12
690.68	21916.78
690.81	22043.17
690.95	21879.33
691.08	21500.16
691.22	21656.98
691.35	21308.24
691.49	21446.33
691.62	21373.77
691.76	21067.16
691.89	21046.10
692.03	20823.75
692.16	20631.82
692.30	20915.03
692.43	20987.58
692.57	20589.69
692.70	20531.18
692.84	20521.82
692.97	20486.71
693.11	20404.79
693.24	20334.57
693.38	20058.39
693.51	19850.08
693.65	19995.20
693.78	19889.87
693.92	19613.69
694.05	19810.29
694.19	19826.68
694.32	19845.40
694.45	19651.14
694.59	19681.56
694.72	19681.56
694.86	19379.64
694.99	19321.12
695.13	18820.25
695.26	19168.99
695.39	18682.16
695.53	18857.70
695.66	18792.16
695.80	18569.81
695.93	18487.89
696.07	18815.57
696.20	18291.29
696.33	18075.96
696.47	18471.51
696.60	18026.81
696.73	18183.62
696.87	18216.39
697.00	18237.45
697.14	18113.41
697.27	17926.16
697.40	17668.70
697.54	17537.63
697.67	17385.50
697.80	17458.06
697.94	17795.09
698.07	17090.59
698.21	17022.72
698.34	17277.83
698.47	16924.41
698.61	16631.85
698.74	16547.59
698.87	16886.97
699.01	16425.88
699.14	16479.71
699.27	16699.72
699.40	16599.08
699.54	16287.79
699.67	16486.73
699.80	16304.17
699.94	16231.62
700.07	16456.31
700.20	16325.24
700.34	15803.30
700.47	16070.12
700.60	15917.98
700.73	16109.91
700.87	15597.33
701.00	15580.95
701.13	15541.16
701.26	15274.34
701.40	15353.91
701.53	15197.10
701.66	15190.08
701.79	15157.31
701.93	15051.99
702.06	15049.64
702.19	14824.95
702.32	15044.96
702.46	15070.71
702.59	14946.66
702.72	14820.27
702.85	14733.67
702.99	14471.53
703.12	14366.21
703.25	14375.57
703.38	14228.12
703.51	14265.57
703.65	14078.32
703.78	13956.61
703.91	13935.55
704.04	14019.81
704.17	14059.60
704.31	13703.84
704.44	13694.47
704.57	13895.76
704.70	13689.79
704.83	13631.28
704.96	13195.94
705.10	13109.34
705.23	13338.71
>>>>>End Processed Spectral Data<<<<<
