SpectraSuite Data File
++++++++++++++++++++++++++++++++++++
Date: Fri Oct 25 10:44:22 EDT 2013
User: price-jones
Dark Spectrum Present: No
Reference Spectrum Present: No
Number of Sampled Component Spectra: 1
Spectrometers: USB2+H05261
Integration Time (usec): 100000 (USB2+H05261)
Spectra Averaged: 1 (USB2+H05261)
Boxcar Smoothing: 0 (USB2+H05261)
Correct for Electrical Dark: No (USB2+H05261)
Strobe/Lamp Enabled: No (USB2+H05261)
Correct for Detector Non-linearity: No (USB2+H05261)
Correct for Stray Light: No (USB2+H05261)
Number of Pixels in Processed Spectrum: 2048
>>>>>Begin Processed Spectral Data<<<<<
365.73	65.54
365.92	65.54
366.12	65.54
366.32	39.79
366.52	51.49
366.72	84.26
366.91	72.56
367.11	63.19
367.31	23.41
367.51	56.17
367.70	51.49
367.90	9.36
368.10	14.04
368.30	35.11
368.49	28.09
368.69	9.36
368.89	35.11
369.09	95.96
369.28	32.77
369.48	93.62
369.68	74.90
369.87	100.64
370.07	88.94
370.27	142.77
370.47	189.58
370.66	379.17
370.86	493.85
371.06	477.47
371.25	458.74
371.45	496.19
371.65	433.00
371.84	442.36
372.04	521.94
372.24	433.00
372.44	430.66
372.63	500.87
372.83	519.60
373.03	585.13
373.22	566.41
373.42	596.84
373.62	482.15
373.81	425.98
374.01	599.18
374.21	599.18
374.40	594.50
374.60	545.34
374.79	594.50
374.99	634.29
375.19	669.39
375.38	608.54
375.58	624.92
375.78	533.64
375.97	650.67
376.17	552.37
376.37	662.37
376.56	676.41
376.76	615.56
376.95	601.52
377.15	617.90
377.35	592.16
377.54	685.78
377.74	774.72
377.93	688.12
378.13	737.27
378.33	704.50
378.52	594.50
378.72	662.37
378.91	685.78
379.11	671.73
379.31	706.84
379.50	709.18
379.70	692.80
379.89	744.29
380.09	739.61
380.28	678.76
380.48	718.54
380.68	744.29
380.87	683.44
381.07	683.44
381.26	697.48
381.46	697.48
381.65	772.38
381.85	779.40
382.04	767.70
382.24	662.37
382.43	730.25
382.63	690.46
382.83	758.33
383.02	730.25
383.22	737.27
383.41	718.54
383.61	770.04
383.80	760.67
384.00	767.70
384.19	870.68
384.39	795.78
384.58	828.55
384.78	816.85
384.97	856.64
385.17	791.10
385.36	784.08
385.56	793.44
385.75	833.23
385.95	795.78
386.14	896.43
386.34	926.85
386.53	812.17
386.72	896.43
386.92	976.00
387.11	952.60
387.31	868.34
387.50	912.81
387.70	931.53
387.89	952.60
388.09	959.62
388.28	882.38
388.48	851.96
388.67	957.28
388.86	959.62
389.06	924.51
389.25	973.66
389.45	924.51
389.64	1004.09
389.84	978.34
390.03	1015.79
390.22	1086.01
390.42	1013.45
390.61	952.60
390.81	1104.73
391.00	1046.22
391.19	1074.31
391.39	1107.07
391.58	1104.73
391.78	1109.41
391.97	1036.86
392.16	1057.92
392.36	1123.46
392.55	1104.73
392.75	1088.35
392.94	1076.65
393.13	1018.13
393.33	1062.60
393.52	994.73
393.71	1214.74
393.91	1100.05
394.10	1170.27
394.29	1277.93
394.49	1210.06
394.68	1247.51
394.88	1245.16
395.07	1207.72
395.26	1252.19
395.46	1259.21
395.65	1284.95
395.84	1252.19
396.04	1254.53
396.23	1151.54
396.42	1170.27
396.62	1193.67
396.81	1322.40
397.00	1240.48
397.19	1275.59
397.39	1284.95
397.58	1486.24
397.77	1425.39
397.97	1481.56
398.16	1448.79
398.35	1467.52
398.55	1533.05
398.74	1521.35
398.93	1584.54
399.12	1577.52
399.32	1593.90
399.51	1540.07
399.70	1664.12
399.90	1591.56
400.09	1636.03
400.28	1685.19
400.47	1706.25
400.67	1746.04
400.86	1816.26
401.05	1799.87
401.24	1703.91
401.44	1647.74
401.63	1844.34
401.82	1767.10
402.01	1732.00
402.21	1724.97
402.40	1802.21
402.59	1748.38
402.78	1863.07
402.97	1804.55
403.17	1823.28
403.36	1764.76
403.55	1879.45
403.74	1975.41
403.93	1973.07
404.13	1970.73
404.32	1881.79
404.51	1991.80
404.70	2024.56
404.89	2001.16
405.09	2193.08
405.28	2097.12
405.47	1975.41
405.66	2071.37
405.85	2073.71
406.05	2005.84
406.24	2136.91
406.43	1996.48
406.62	2223.51
406.81	2179.04
407.00	2190.74
407.20	2204.78
407.39	2122.87
407.58	2305.43
407.77	2289.04
407.96	2232.87
408.15	2314.79
408.34	2431.82
408.54	2354.58
408.73	2256.28
408.92	2406.07
409.11	2310.11
409.30	2429.48
409.49	2464.58
409.68	2523.10
409.87	2244.57
410.07	2382.67
410.26	2478.63
410.45	2483.31
410.64	2593.31
410.83	2597.99
411.02	2663.53
411.21	2623.74
411.40	2670.55
411.59	2764.17
411.78	2766.51
411.98	2747.79
412.17	2836.73
412.36	2733.75
412.55	2764.17
412.74	2836.73
412.93	2864.82
413.12	2846.09
413.31	3124.62
413.50	2881.20
413.69	2965.46
413.88	2958.44
414.07	3110.57
414.26	3145.68
414.45	2995.89
414.64	3136.32
414.83	3164.40
415.02	3162.06
415.22	3148.02
415.41	3353.99
415.60	3351.65
415.79	3288.45
415.98	3396.12
416.17	3330.58
416.36	3375.05
416.55	3361.01
416.74	3304.84
416.93	3478.04
417.12	3447.61
417.31	3375.05
417.50	3297.81
417.69	3634.85
417.88	3627.83
418.07	3576.34
418.26	3534.21
418.45	3485.06
418.64	3653.58
418.83	3609.11
419.02	3662.94
419.21	3637.19
419.39	3684.00
419.58	3749.54
419.77	3665.28
419.96	3686.34
420.15	3744.86
420.34	3744.86
420.53	4007.00
420.72	3866.56
420.91	3845.50
421.10	4032.74
421.29	4079.55
421.48	3906.35
421.67	4004.66
421.86	4074.87
422.05	4025.72
422.24	4007.00
422.43	3861.88
422.61	3896.99
422.80	4056.15
422.99	4091.26
423.18	4070.19
423.37	4140.41
423.56	4086.58
423.75	4009.34
423.94	3971.89
424.13	3840.82
424.32	3894.65
424.50	4180.20
424.69	4070.19
424.88	4227.01
425.07	4025.72
425.26	4042.11
425.45	4016.36
425.64	4060.83
425.83	4112.32
426.01	4173.18
426.20	4269.14
426.39	4109.98
426.58	4283.18
426.77	4051.47
426.96	4152.11
427.15	4100.62
427.33	4271.48
427.52	4332.33
427.71	4227.01
427.90	4215.30
428.09	4379.14
428.28	4386.16
428.46	4376.80
428.65	4358.08
428.84	4217.65
429.03	4376.80
429.22	4182.54
429.40	4280.84
429.59	4437.66
429.78	4138.07
429.97	4018.70
430.16	4173.18
430.34	4098.28
430.53	4271.48
430.72	4297.22
430.91	4250.41
431.10	4489.15
431.28	4603.83
431.47	4975.98
431.66	4863.63
431.85	4655.33
432.03	4844.91
432.22	4671.71
432.41	4720.86
432.60	4690.43
432.79	4826.18
432.97	5046.20
433.16	4856.61
433.35	4702.14
433.54	4713.84
433.72	4837.89
433.91	4755.97
434.10	4765.33
434.28	4908.10
434.47	4980.66
434.66	5027.47
434.85	5137.48
435.03	5195.99
435.22	5041.51
435.41	5217.05
435.59	5235.78
435.78	5261.52
435.97	5273.23
436.16	5294.29
436.34	5355.15
436.53	5247.48
436.72	5320.04
436.90	5296.63
437.09	5348.12
437.28	5151.52
437.46	5390.25
437.65	5249.82
437.84	5343.44
438.02	5296.63
438.21	5472.17
438.40	5369.19
438.58	5455.79
438.77	5572.82
438.96	5570.48
439.14	5731.97
439.33	5591.54
439.52	5717.93
439.70	5881.77
439.89	5781.12
440.08	5933.26
440.26	5919.21
440.45	5987.09
440.63	6099.44
440.82	6087.73
441.01	6300.72
441.19	6171.99
441.38	6204.76
441.57	6314.77
441.75	6408.39
441.94	6513.71
442.12	6438.81
442.31	6604.99
442.50	6483.28
442.68	6424.77
442.87	6494.99
443.05	6675.21
443.24	6693.93
443.43	6691.59
443.61	6881.18
443.80	6789.89
443.98	6738.40
444.17	6436.47
444.35	6743.08
444.54	6942.03
444.73	6759.47
444.91	6654.14
445.10	6759.47
445.28	6700.95
445.47	6628.40
445.65	6513.71
445.84	6733.72
446.02	6764.15
446.21	6860.11
446.39	6740.74
446.58	6808.62
446.77	6874.15
446.95	6726.70
447.14	6843.73
447.32	7068.42
447.51	6944.37
447.69	6853.09
447.88	7002.88
448.06	6953.73
448.25	6958.41
448.43	7087.14
448.62	6930.33
448.80	6951.39
448.99	7166.72
449.17	7150.34
449.36	7028.63
449.54	7377.37
449.73	7323.54
449.91	7379.71
450.10	7339.92
450.28	7604.40
450.46	7517.80
450.65	7515.46
450.83	7473.33
451.02	7461.63
451.20	7555.25
451.39	7417.16
451.57	7536.52
451.76	7501.42
451.94	7386.73
452.13	7592.70
452.31	7424.18
452.49	7286.09
452.68	7541.21
452.86	7178.42
453.05	7492.05
453.23	7314.17
453.42	7351.62
453.60	7566.95
453.78	7765.90
453.97	7550.57
454.15	7693.34
454.34	7485.03
454.52	7796.32
454.70	7946.12
454.89	7667.60
455.07	7613.76
455.26	7962.50
455.44	7974.21
455.62	7983.57
455.81	7784.62
455.99	7967.18
456.17	8241.03
456.36	8114.64
456.54	8224.64
456.73	8159.11
456.91	8379.12
457.09	8360.39
457.28	8393.16
457.46	8334.65
457.64	8713.81
457.83	8313.58
458.01	8322.94
458.19	8280.82
458.38	8510.19
458.56	8407.20
458.74	8533.59
458.93	8245.71
459.11	8676.37
459.29	8627.21
459.48	8575.72
459.66	8688.07
459.84	8854.25
460.03	8702.11
460.21	8709.13
460.39	8882.33
460.57	8891.70
460.76	8830.84
460.94	9062.55
461.12	9055.53
461.31	9088.30
461.49	8784.03
461.67	8982.98
461.85	8929.14
462.04	8997.02
462.22	9226.39
462.40	9275.54
462.59	9165.54
462.77	9130.43
462.95	9345.76
463.13	9256.82
463.32	9352.78
463.50	9338.74
463.68	9315.33
463.86	9303.63
464.05	9233.41
464.23	9078.94
464.41	9404.27
464.59	9226.39
464.78	9483.85
464.96	9350.44
465.14	9228.73
465.32	9373.85
465.50	9575.13
465.69	9638.33
465.87	9596.20
466.05	9558.75
466.23	9565.77
466.41	9521.30
466.60	9671.09
466.78	9472.15
466.96	9549.39
467.14	9633.64
467.32	9717.90
467.51	9841.95
467.69	9432.36
467.87	9736.63
468.05	9870.04
468.23	9823.23
468.41	9598.54
468.60	9607.90
468.78	9694.50
468.96	9820.89
469.14	10001.11
469.32	10232.82
469.50	9809.19
469.69	10204.74
469.87	10125.16
470.05	10174.31
470.23	10228.14
470.41	10373.25
470.59	10139.20
470.77	10335.81
470.95	10281.97
471.14	10525.39
471.32	10391.98
471.50	10569.86
471.68	10754.76
471.86	10686.89
472.04	10623.69
472.22	10925.62
472.40	10665.82
472.58	10824.98
472.77	10839.02
472.95	10913.92
473.13	11143.29
473.31	10808.59
473.49	10841.36
473.67	11098.82
473.85	11140.95
474.03	11403.09
474.21	11466.28
474.39	11234.57
474.57	11339.90
474.75	11573.95
474.93	11606.72
475.12	11304.79
475.30	11719.06
475.48	11646.51
475.66	11751.83
475.84	11651.19
476.02	11747.15
476.20	11906.31
476.38	12018.65
476.56	12191.85
476.74	12138.02
476.92	12212.92
477.10	12088.87
477.28	12601.44
477.46	12720.81
477.64	12587.40
477.82	12980.61
478.00	12868.27
478.18	12910.40
478.36	12837.84
478.54	13109.34
478.72	13132.75
478.90	13369.14
479.08	13268.50
479.26	13561.06
479.44	13699.16
479.62	13830.23
479.80	13958.96
479.98	13870.01
480.16	14127.47
480.34	14047.90
480.52	14274.93
480.70	14188.33
480.88	13919.17
481.06	14485.58
481.24	14277.27
481.41	14539.41
481.59	14630.69
481.77	14885.81
481.95	14965.39
482.13	15063.69
482.31	15061.35
482.49	15421.79
482.67	15316.47
482.85	15482.64
483.03	15548.18
483.21	15669.89
483.39	16100.55
483.57	15695.63
483.74	16020.97
483.92	15960.11
484.10	15983.52
484.28	16414.18
484.46	16486.73
484.64	16978.25
484.82	16901.01
485.00	16798.02
485.18	17097.61
485.35	16884.62
485.53	16732.49
485.71	16575.67
485.89	16879.94
486.07	16826.11
486.25	16919.73
486.43	17469.76
486.61	17626.57
486.78	17759.98
486.96	17949.57
487.14	18164.90
487.32	18420.02
487.50	18384.91
487.68	18827.27
487.85	18956.00
488.03	19063.66
488.21	18927.91
488.39	19208.78
488.57	18881.10
488.75	19190.05
488.92	19679.22
489.10	20095.84
489.28	19850.08
489.46	20489.05
489.64	20702.04
489.81	20828.43
489.99	20720.76
490.17	21083.55
490.35	20783.96
490.53	20938.43
490.70	20999.29
490.88	21310.58
491.06	21855.92
491.24	21364.41
491.41	21563.36
491.59	21553.99
491.77	21493.14
491.95	21647.61
492.13	22064.23
492.30	22560.42
492.48	22260.84
492.66	22551.06
492.84	22464.46
493.01	22768.73
493.19	22740.64
493.37	22923.21
493.54	22733.62
493.72	22904.48
493.90	23278.97
494.08	23332.80
494.25	23709.63
494.43	24261.99
494.61	24067.73
494.79	23854.74
494.96	23789.20
495.14	24507.75
495.32	24273.70
495.49	24222.20
495.67	24851.81
495.85	24718.40
496.02	24931.39
496.20	25170.12
496.38	25214.59
496.55	24870.53
496.73	25773.98
496.91	25560.99
497.09	25834.83
497.26	25813.77
497.44	25617.16
497.62	26026.76
497.79	26190.59
497.97	25755.26
498.14	25933.14
498.32	26497.20
498.50	26316.98
498.67	27190.00
498.85	26841.26
499.03	27330.44
499.20	26773.39
499.38	27330.44
499.56	27028.51
499.73	27388.95
499.91	27021.48
500.08	27505.98
500.26	27119.79
500.44	27545.76
500.61	27501.29
500.79	27754.07
500.97	27803.22
501.14	27992.81
501.32	28261.97
501.49	28084.09
501.67	27758.75
501.84	28074.73
502.02	28037.28
502.20	28428.15
502.37	28584.96
502.55	28463.25
502.72	28788.59
502.90	28779.23
503.07	28760.50
503.25	29029.66
503.43	28940.72
503.60	28996.90
503.78	29252.02
503.95	29034.35
504.13	29163.08
504.30	29287.12
504.48	29345.64
504.65	29500.11
504.83	30061.84
505.01	29736.51
505.18	29788.00
505.36	30394.20
505.53	29858.21
505.71	30614.21
505.88	30185.89
506.06	30368.45
506.23	30377.81
506.41	30410.58
506.58	30663.36
506.76	30263.13
506.93	30738.26
507.11	30923.16
507.28	30895.07
507.46	30602.50
507.63	30738.26
507.81	31044.87
507.98	30944.22
508.16	30953.58
508.33	31344.45
508.50	31297.64
508.68	31899.16
508.85	32119.17
509.03	32182.37
509.20	31871.07
509.38	32435.14
509.55	31941.29
509.73	31690.85
509.90	32266.63
510.08	32554.51
510.25	32116.83
510.42	32432.80
510.60	33085.81
510.77	32694.94
510.95	32929.00
511.12	32519.40
511.30	33008.58
511.47	33230.93
511.64	33263.69
511.82	33338.59
511.99	33160.71
512.17	33343.27
512.34	32879.85
512.51	33500.09
512.69	33291.78
512.86	33825.42
513.04	34012.66
513.21	33497.75
513.38	33640.52
513.56	33736.48
513.73	33848.83
513.90	33998.62
514.08	33897.98
514.25	33841.81
514.43	33895.64
514.60	33837.12
514.77	34202.25
514.95	34007.98
515.12	34426.94
515.29	34759.30
515.47	34911.43
515.64	34787.38
515.81	34712.49
515.99	34773.34
516.16	34602.48
516.33	34235.02
516.51	34529.92
516.68	34167.14
516.85	33624.14
517.03	34583.76
517.20	34909.09
517.37	35297.62
517.54	34986.33
517.72	35030.80
517.89	34323.96
518.06	34745.25
518.24	35215.70
518.41	35229.74
518.58	35353.79
518.75	35393.58
518.93	35714.23
519.10	35438.05
519.27	36198.73
519.45	36025.53
519.62	36027.87
519.79	36390.65
519.96	36016.16
520.14	36350.86
520.31	36224.47
520.48	36580.23
520.65	36699.60
520.83	36912.59
521.00	37010.89
521.17	37013.23
521.34	37092.81
521.52	37212.18
521.69	37043.66
521.86	37057.70
522.03	36992.17
522.20	37429.85
522.38	36889.18
522.55	37326.86
522.72	37359.63
522.89	37071.75
523.07	37439.21
523.24	37383.04
523.41	37982.21
523.58	37598.37
523.75	38096.90
523.92	38115.62
524.10	38171.80
524.27	38326.27
524.44	37708.37
524.61	38483.09
524.78	38518.20
524.96	37991.58
525.13	38941.83
525.30	38918.43
525.47	38911.41
525.64	38609.48
525.81	39084.61
525.98	38515.86
526.16	38719.48
526.33	37949.45
526.50	38560.33
526.67	38181.16
526.84	38452.66
527.01	38471.39
527.18	38836.51
527.36	39463.77
527.53	39402.92
527.70	39395.90
527.87	39171.21
528.04	39189.93
528.21	39082.27
528.38	38967.58
528.55	39828.90
528.72	39620.59
528.89	39971.67
529.07	39861.66
529.24	39342.06
529.41	39868.69
529.58	39618.25
529.75	39950.60
529.92	39835.92
530.09	40240.83
530.26	39957.63
530.43	40353.18
530.60	40252.53
530.77	40114.44
530.94	40624.68
531.11	40587.23
531.28	40453.82
531.46	40643.40
531.63	40238.49
531.80	40484.25
531.97	40662.13
532.14	40870.43
532.31	39997.41
532.48	40273.60
532.65	40580.21
532.82	40467.86
532.99	40800.22
533.16	40942.99
533.33	40825.96
533.50	40985.12
533.67	41205.13
533.84	40999.16
534.01	40776.81
534.18	41298.75
534.35	41366.63
534.52	41425.14
534.69	41151.30
534.86	41305.77
535.03	41457.91
535.20	41500.04
535.37	41769.20
535.54	41387.69
535.71	41600.68
535.88	41724.73
536.05	41839.42
536.22	41631.11
536.38	41558.55
536.55	41273.01
536.72	41837.08
536.89	41556.21
537.06	41738.77
537.23	41785.58
537.40	41928.36
537.57	42305.18
537.74	42029.00
537.91	42590.73
538.08	42183.48
538.25	42033.68
538.42	42356.67
538.59	42660.94
538.75	42171.77
538.92	42101.56
539.09	42459.66
539.26	42174.11
539.43	42225.60
539.60	42452.64
539.77	42157.73
539.94	42265.39
540.11	41968.15
540.28	42817.76
540.44	42693.71
540.61	42281.78
540.78	42464.34
540.95	42258.37
541.12	42679.67
541.29	42560.30
541.46	42887.98
541.62	42667.97
541.79	43182.88
541.96	42710.10
542.13	42932.45
542.30	42815.42
542.47	42831.80
542.63	43096.28
542.80	43430.98
542.97	43540.99
543.14	43650.99
543.31	43379.49
543.48	43838.23
543.64	43782.06
543.81	43676.74
543.98	44247.83
544.15	43988.03
544.32	43966.96
544.48	44271.23
544.65	43859.30
544.82	43943.56
544.99	43386.51
545.16	43966.96
545.32	43761.00
545.49	43910.79
545.66	44343.79
545.83	44318.04
546.00	44587.21
546.16	44189.31
546.33	44051.22
546.50	43655.67
546.67	44175.27
546.83	43615.88
547.00	44481.88
547.17	43950.58
547.34	43882.70
547.50	44428.05
547.67	44512.31
547.84	44308.68
548.00	44456.14
548.17	44524.01
548.34	44584.86
548.51	45043.61
548.67	44346.13
548.84	44542.74
549.01	44676.15
549.18	44575.50
549.34	44795.51
549.51	44879.77
549.68	44893.82
549.84	44809.56
550.01	45207.45
550.18	44896.16
550.34	44889.13
550.51	44886.79
550.68	44704.23
550.84	44783.81
551.01	45453.20
551.18	45205.11
551.34	44940.63
551.51	45460.23
551.68	45230.85
551.84	44865.73
552.01	45041.27
552.18	44968.71
552.34	44767.43
552.51	45256.60
552.68	44732.32
552.84	45214.47
553.01	45853.44
553.18	45284.68
553.34	45195.74
553.51	45207.45
553.67	45116.17
553.84	45406.39
554.01	45294.05
554.17	45717.68
554.34	45888.54
554.51	45813.65
554.67	45717.68
554.84	45703.64
555.00	45645.13
555.17	45439.16
555.33	45741.09
555.50	45397.03
555.67	45212.13
555.83	45881.52
556.00	46103.87
556.16	45942.38
556.33	45682.58
556.50	45858.12
556.66	45848.75
556.83	46040.68
556.99	45858.12
557.16	45986.85
557.32	45762.15
557.49	45867.48
557.65	46038.34
557.82	45897.91
557.98	46061.74
558.15	45947.06
558.32	45888.54
558.48	45640.45
558.65	46239.62
558.81	45703.64
558.98	45881.52
559.14	45773.86
559.31	46017.27
559.47	46101.53
559.64	46312.18
559.80	46241.96
559.97	46141.32
560.13	46178.77
560.30	45785.56
560.46	45965.78
560.63	46019.61
560.79	46377.72
560.96	46824.76
561.12	46429.21
561.29	46267.71
561.45	45907.27
561.61	46436.23
561.78	46099.19
561.94	46501.76
562.11	46564.96
562.27	46588.36
562.44	46422.19
562.60	46593.04
562.77	46902.00
562.93	46354.31
563.10	46841.14
563.26	46148.34
563.42	46550.91
563.59	46466.66
563.75	46241.96
563.92	46670.28
564.08	46483.04
564.24	46703.05
564.41	46607.09
564.57	46319.20
564.74	46384.74
564.90	45984.51
565.07	46686.67
565.23	46724.11
565.39	46471.34
565.56	46522.83
565.72	46237.28
565.88	46389.42
566.05	46459.63
566.21	46401.12
566.38	46527.51
566.54	46525.17
566.70	46885.61
566.87	46916.04
567.03	47047.11
567.19	47007.32
567.36	46911.36
567.52	46586.02
567.68	46761.56
567.85	46656.24
568.01	46679.64
568.17	46443.25
568.34	46979.23
568.50	46560.28
568.66	46443.25
568.83	46761.56
568.99	46569.64
569.15	46548.57
569.32	46775.61
569.48	46370.69
569.64	46653.90
569.81	47042.43
569.97	46700.71
570.13	46513.47
570.30	46665.60
570.46	46632.83
570.62	46597.73
570.78	46494.74
570.95	46387.08
571.11	46831.78
571.27	46478.36
571.43	46295.80
571.60	46873.91
571.76	46972.21
571.92	46642.20
572.09	46597.73
572.25	47122.01
572.41	46438.57
572.57	47159.45
572.74	46869.23
572.90	46581.34
573.06	46887.95
573.22	46899.65
573.38	47019.02
573.55	46721.77
573.71	46997.96
573.87	47037.75
574.03	46904.34
574.20	46703.05
574.36	46904.34
574.52	47180.52
574.68	47000.30
574.84	46602.41
575.01	46607.09
575.17	46979.23
575.33	46335.59
575.49	46698.37
575.65	46967.53
575.82	46742.84
575.98	46642.20
576.14	47114.98
576.30	46658.58
576.46	46522.83
576.62	46967.53
576.79	47072.85
576.95	46733.48
577.11	46813.05
577.27	46799.01
577.43	46848.16
577.59	46869.23
577.75	46862.21
577.92	46794.33
578.08	46948.81
578.24	46370.69
578.40	46717.09
578.56	46754.54
578.72	47021.36
578.88	47072.85
579.04	47606.50
579.21	46873.91
579.37	47077.54
579.53	47007.32
579.69	46934.76
579.85	46642.20
580.01	47061.15
580.17	46555.60
580.33	47365.42
580.49	47058.81
580.65	47063.49
580.82	47065.83
580.98	46747.52
581.14	47150.09
581.30	47028.38
581.46	46918.38
581.62	47318.61
581.78	46958.17
581.94	47536.28
582.10	46721.77
582.26	47079.88
582.42	46951.15
582.58	47246.05
582.74	47103.28
582.90	47229.67
583.06	46997.96
583.22	47281.16
583.38	47112.64
583.54	47526.92
583.70	46993.28
583.86	47402.87
584.02	47217.97
584.18	46609.43
584.34	46946.47
584.50	46887.95
584.66	46740.50
584.82	46635.17
584.98	47262.44
585.14	47019.02
585.30	46885.61
585.46	47159.45
585.62	47072.85
585.78	46934.76
585.94	46621.13
586.10	46745.18
586.26	46852.84
586.42	47239.03
586.58	47173.50
586.74	47084.56
586.90	46972.21
587.06	46813.05
587.22	47178.18
587.38	46967.53
587.54	47353.72
587.70	47283.50
587.86	46747.52
588.02	46852.84
588.18	47215.63
588.34	47016.68
588.49	46223.24
588.65	46066.42
588.81	46476.02
588.97	46508.79
589.13	46146.00
589.29	46281.75
589.45	46887.95
589.61	46616.45
589.77	46745.18
589.93	46696.03
590.08	47021.36
590.24	46972.21
590.40	47224.99
590.56	46768.58
590.72	47569.05
590.88	47133.71
591.04	47374.78
591.20	47374.78
591.35	46937.10
591.51	47669.69
591.67	47199.24
591.83	46974.55
591.99	46974.55
592.15	47014.34
592.31	47297.55
592.46	47239.03
592.62	47119.66
592.78	47171.16
592.94	47550.32
593.10	46997.96
593.26	47161.79
593.41	46810.71
593.57	47098.60
593.73	46993.28
593.89	47381.80
594.05	47070.51
594.20	47093.92
594.36	47339.68
594.52	47063.49
594.68	46803.69
594.84	47100.94
594.99	47510.53
595.15	47110.30
595.31	47409.89
595.47	46883.27
595.62	46850.50
595.78	47173.50
595.94	47562.03
596.10	47264.78
596.25	47351.38
596.41	47232.01
596.57	47243.71
596.73	47309.25
596.88	47222.65
597.04	47267.12
597.20	47583.09
597.36	47377.12
597.51	47592.45
597.67	47760.97
597.83	47510.53
597.99	47496.49
598.14	47384.15
598.30	47143.07
598.46	47152.43
598.61	47253.08
598.77	47217.97
598.93	46965.19
599.09	47021.36
599.24	47620.54
599.40	47257.76
599.56	47688.42
599.71	46894.97
599.87	47414.57
600.03	47283.50
600.18	47168.82
600.34	47194.56
600.50	47250.74
600.65	47166.48
600.81	47114.98
600.97	47594.79
601.12	47758.63
601.28	47227.33
601.44	47157.11
601.59	47320.95
601.75	46899.65
601.91	46782.63
602.06	46925.40
602.22	47042.43
602.37	47037.75
602.53	47210.95
602.69	47386.49
602.84	47058.81
603.00	46923.06
603.16	47309.25
603.31	47150.09
603.47	46990.94
603.62	47047.11
603.78	46684.33
603.94	46801.35
604.09	47391.17
604.25	47227.33
604.40	47257.76
604.56	47304.57
604.71	47550.32
604.87	47419.25
605.03	47318.61
605.18	46232.60
605.34	47334.99
605.49	46742.84
605.65	46824.76
605.80	47147.75
605.96	47248.39
606.12	46791.99
606.27	47531.60
606.43	47016.68
606.58	47150.09
606.74	47384.15
606.89	46902.00
607.05	47187.54
607.20	46770.93
607.36	46852.84
607.51	46948.81
607.67	47096.26
607.82	46927.74
607.98	46897.31
608.13	46464.32
608.29	46621.13
608.44	46674.96
608.60	46251.33
608.75	46492.40
608.91	46431.55
609.06	46274.73
609.22	46911.36
609.37	46328.56
609.53	46309.84
609.68	46497.08
609.84	46373.03
609.99	46817.74
610.15	46330.90
610.30	46260.69
610.46	46110.89
610.61	46227.92
610.76	46370.69
610.92	46155.36
611.07	46871.57
611.23	46560.28
611.38	46195.15
611.54	46384.74
611.69	46033.66
611.84	45933.01
612.00	46171.75
612.15	46124.94
612.31	46277.07
612.46	45961.10
612.62	46504.10
612.77	46476.02
612.92	46782.63
613.08	46202.18
613.23	46265.37
613.39	45858.12
613.54	45916.63
613.69	46291.12
613.85	46155.36
614.00	46089.83
614.15	46253.67
614.31	46525.17
614.46	46171.75
614.62	46529.85
614.77	45708.32
614.92	45834.71
615.08	45553.85
615.23	45553.85
615.38	45951.74
615.54	45235.53
615.69	45422.78
615.84	45364.26
616.00	45560.87
616.15	45308.09
616.30	45705.98
616.46	45378.31
616.61	45549.17
616.76	45375.97
616.92	45132.55
617.07	45303.41
617.22	45134.89
617.37	45588.95
617.53	45773.86
617.68	45642.79
617.83	45776.20
617.99	45647.47
618.14	45357.24
618.29	45511.72
618.45	45289.37
618.60	45022.54
618.75	45310.43
618.90	45200.43
619.06	45773.86
619.21	45287.03
619.36	46043.02
619.51	45296.39
619.67	45436.82
619.82	45343.20
619.97	45467.25
620.12	45092.76
620.28	44839.98
620.43	44982.76
620.58	45127.87
620.73	45303.41
620.89	45085.74
621.04	44732.32
621.19	44636.36
621.34	45052.97
621.49	44299.32
621.65	44367.20
621.80	44919.56
621.95	44605.93
622.10	44753.38
622.25	44568.48
622.41	44634.02
622.56	44102.71
622.71	44910.20
622.86	44559.12
623.01	44589.55
623.16	44652.74
623.32	44402.30
623.47	44460.82
623.62	44573.16
623.77	44566.14
623.92	44376.56
624.07	44423.37
624.23	44439.75
624.38	44172.93
624.53	44046.54
624.68	44231.44
624.83	44435.07
624.98	43878.02
625.13	43873.34
625.29	44432.73
625.44	43800.79
625.59	43744.61
625.74	43765.68
625.89	43786.74
626.04	43784.40
626.19	44006.75
626.34	44133.14
626.49	44226.76
626.65	44161.23
626.80	44198.68
626.95	44095.69
627.10	44018.46
627.25	43335.02
627.40	43313.95
627.55	43035.43
627.70	43196.93
627.85	42925.42
628.00	43072.88
628.15	43358.42
628.30	43023.73
628.45	43461.41
628.60	43728.23
628.76	43597.16
628.91	43934.20
629.06	43433.32
629.21	43257.78
629.36	43384.17
629.51	43264.80
629.66	42941.81
629.81	42796.70
629.96	43548.01
630.11	42988.62
630.26	43559.71
630.41	43430.98
630.56	42855.21
630.71	42829.46
630.86	42850.53
631.01	42777.97
631.16	42988.62
631.31	42941.81
631.46	42930.11
631.61	42927.77
631.76	42651.58
631.91	43166.50
632.06	43002.66
632.21	42653.92
632.36	42829.46
632.51	42653.92
632.66	42660.94
632.81	42314.55
632.96	42038.36
633.10	42429.23
633.25	42595.41
633.40	42810.74
633.55	42850.53
633.70	42651.58
633.85	42780.31
634.00	42195.18
634.15	42831.80
634.30	42422.21
634.45	42253.69
634.60	42295.82
634.75	42129.64
634.90	42674.99
635.05	42162.41
635.19	42183.48
635.34	42178.79
635.49	42153.05
635.64	42136.66
635.79	41872.18
635.94	41787.92
636.09	41991.55
636.24	41855.80
636.39	41640.47
636.53	41874.52
636.68	42178.79
636.83	41736.43
636.98	42117.94
637.13	41900.27
637.28	42082.83
637.43	41944.74
637.57	42012.62
637.72	42085.17
637.87	41429.82
638.02	42066.45
638.17	42082.83
638.32	41567.91
638.46	41879.21
638.61	41649.83
638.76	41656.85
638.91	41462.59
639.06	41677.92
639.20	41617.07
639.35	42038.36
639.50	41001.50
639.65	41614.72
639.80	41624.09
639.94	41549.19
640.09	41432.16
640.24	41151.30
640.39	40978.10
640.54	40594.25
640.68	41078.74
640.83	41481.31
640.98	41193.43
641.13	40917.25
641.27	41514.08
641.42	40914.90
641.57	41144.28
641.72	41067.04
641.86	40304.02
642.01	40444.46
642.16	41053.00
642.31	40407.01
642.45	40524.04
642.60	40914.90
642.75	40566.16
642.90	40765.11
643.04	40678.51
643.19	40243.17
643.34	40711.28
643.48	40289.98
643.63	40605.95
643.78	40519.35
643.93	40362.54
644.07	40734.68
644.22	40369.56
644.37	40378.92
644.51	40107.42
644.66	40715.96
644.81	40910.22
644.95	40505.31
645.10	40683.19
645.25	40453.82
645.39	40268.92
645.54	40762.77
645.69	40289.98
645.83	40519.35
645.98	40048.91
646.13	39983.37
646.27	40322.75
646.42	40112.10
646.57	40226.79
646.71	40081.67
646.86	40556.80
647.00	40182.32
647.15	40280.62
647.30	39831.24
647.44	39924.86
647.59	40109.76
647.74	40013.80
647.88	39751.66
648.03	39871.03
648.17	40081.67
648.32	39601.86
648.47	39936.56
648.61	39587.82
648.76	39964.65
648.90	39861.66
649.05	39887.41
649.20	39660.38
649.34	39931.88
649.49	39093.97
649.63	39033.11
649.78	38843.53
649.92	39035.45
650.07	39931.88
650.21	39117.37
650.36	39828.90
650.51	39585.48
650.65	40128.48
650.80	40236.15
650.94	39508.24
651.09	39604.20
651.23	38724.16
651.38	39168.87
651.52	39241.42
651.67	39201.63
651.81	38993.32
651.96	38855.23
652.10	38857.57
652.25	39091.63
652.39	39035.45
652.54	39035.45
652.68	39098.65
652.83	39199.29
652.97	39386.54
653.12	39035.45
653.26	38763.95
653.41	38455.00
653.55	38298.19
653.70	38822.47
653.84	39065.88
653.99	38382.45
654.13	38281.80
654.27	38447.98
654.42	38766.29
654.56	38557.99
654.71	38665.65
654.85	38679.69
655.00	38565.01
655.14	38438.62
655.29	38501.81
655.43	38256.06
655.57	37881.57
655.72	37446.23
655.86	37930.72
656.01	37794.97
656.15	37488.36
656.30	37780.93
656.44	37771.57
656.58	38225.63
656.73	37703.69
656.87	37771.57
657.01	37872.21
657.16	38211.59
657.30	37858.17
657.45	37900.29
657.59	38132.01
657.73	37792.63
657.88	38160.09
658.02	38403.51
658.16	38244.35
658.31	38155.41
658.45	38139.03
658.60	38471.39
658.74	37610.07
658.88	37670.92
659.03	37453.25
659.17	37378.36
659.31	37970.51
659.46	37486.02
659.60	37521.13
659.74	37677.94
659.89	37125.58
660.03	37261.33
660.17	37338.57
660.32	36957.06
660.46	37691.99
660.60	37425.17
660.74	37448.57
660.89	37315.16
661.03	37284.73
661.17	37181.75
661.32	36802.58
661.46	36690.24
661.60	36985.15
661.74	37165.37
661.89	36919.61
662.03	36875.14
662.17	36718.32
662.31	36329.80
662.46	36952.38
662.60	36701.94
662.74	36442.14
662.88	36395.33
663.03	35873.39
663.17	36121.49
663.31	35894.46
663.45	36100.42
663.60	36484.27
663.74	35955.31
663.88	36116.81
664.02	36217.45
664.17	36212.77
664.31	35845.30
664.45	35981.06
664.59	35704.87
664.73	35728.28
664.88	35641.68
665.02	35426.35
665.16	35512.95
665.30	35887.43
665.44	35494.22
665.59	35171.23
665.73	35283.58
665.87	35534.01
666.01	35576.14
666.15	35220.38
666.29	35648.70
666.44	35386.56
666.58	35185.27
666.72	35316.34
666.86	34724.19
667.00	34930.16
667.14	34920.79
667.28	35180.59
667.43	34696.10
667.57	35091.65
667.71	34485.45
667.85	34560.35
667.99	34946.54
668.13	34494.82
668.27	34717.17
668.41	34574.39
668.56	34609.50
668.70	34560.35
668.84	34375.45
668.98	34178.84
669.12	33954.15
669.26	33787.97
669.40	33570.30
669.54	33401.79
669.68	33872.23
669.82	33626.48
669.96	33914.36
670.10	33432.21
670.25	33577.33
670.39	33605.41
670.53	33507.11
670.67	32982.83
670.81	33841.81
670.95	33589.03
671.09	33488.38
671.23	33158.37
671.37	33240.29
671.51	33247.31
671.65	32837.72
671.79	32950.06
671.93	32760.48
672.07	32992.19
672.21	32919.63
672.35	33048.36
672.49	33102.20
672.63	33191.14
672.77	32760.48
672.91	32844.74
673.05	32631.75
673.19	32086.40
673.33	32177.68
673.47	32119.17
673.61	32018.53
673.75	31779.79
673.89	31936.61
674.03	32044.27
674.17	31534.04
674.31	31519.99
674.45	31517.65
674.59	32053.64
674.73	31562.12
674.87	31531.70
675.01	31608.93
675.15	31365.52
675.29	31377.22
675.43	31152.53
675.56	31077.63
675.70	31388.92
675.84	31021.46
675.98	30209.29
676.12	31063.59
676.26	30719.53
676.40	31030.82
676.54	30696.13
676.68	30703.15
676.82	30094.61
676.96	30707.83
677.10	30590.80
677.23	30529.95
677.37	30237.38
677.51	30352.07
677.65	29841.83
677.79	29495.43
677.93	29893.32
678.07	29621.82
678.21	29240.31
678.34	29252.02
678.48	29331.59
678.62	29085.84
678.76	29022.64
678.90	28826.04
679.04	28973.49
679.18	29277.76
679.31	28627.09
679.45	28570.92
679.59	28573.26
679.73	28449.21
679.87	28514.75
680.00	28500.70
680.14	28142.60
680.28	28210.48
680.42	28184.73
680.56	28301.76
680.70	28037.28
680.83	28086.43
680.97	27950.68
681.11	28063.02
681.25	27594.92
681.39	28025.57
681.52	27718.96
681.66	27447.46
681.80	27573.85
681.94	27297.67
682.07	27042.55
682.21	27089.36
682.35	27016.80
682.49	26969.99
682.62	27323.41
682.76	26726.58
682.90	26621.25
683.04	26508.91
683.17	26560.40
683.31	26352.09
683.45	26106.34
683.59	26281.88
683.72	26015.05
683.86	25708.44
684.00	26024.42
684.13	25846.54
684.27	25905.05
684.41	25759.94
684.55	25296.51
684.68	25450.99
684.82	25652.27
684.96	25429.92
685.09	25516.52
685.23	25017.99
685.37	25333.96
685.50	24690.31
685.64	25057.78
685.78	24905.64
685.91	24676.27
686.05	24540.52
686.19	24505.41
686.32	24114.54
686.46	24060.71
686.60	23740.05
686.73	23943.68
686.87	23475.57
687.01	23470.89
687.14	23438.12
687.28	23215.77
687.42	23021.51
687.55	23339.82
687.69	23421.74
687.82	23417.06
687.96	23625.37
688.10	23316.42
688.23	22955.97
688.37	22714.90
688.50	22869.37
688.64	22546.38
688.78	22824.90
688.91	22534.68
689.05	22705.54
689.18	22384.88
689.32	22274.88
689.46	22331.05
689.59	22614.26
689.73	22155.51
689.86	22410.63
690.00	22010.40
690.13	22230.41
690.27	21769.32
690.41	22031.46
690.54	21722.51
690.68	21383.13
690.81	21582.08
690.95	21341.00
691.08	21633.57
691.22	21518.89
691.35	20980.56
691.49	21572.72
691.62	21212.28
691.76	21039.08
691.89	20900.98
692.03	20849.49
692.16	20912.69
692.30	20943.11
692.43	20348.62
692.57	20601.40
692.70	20442.24
692.84	20585.01
692.97	20147.33
693.11	20498.41
693.24	20266.70
693.38	19969.45
693.51	19971.79
693.65	20046.69
693.78	19924.98
693.92	19761.14
694.05	19793.91
694.19	19822.00
694.32	19824.34
694.45	19384.32
694.59	19257.93
694.72	19454.53
694.86	19314.10
694.99	19213.46
695.13	19183.03
695.26	19000.47
695.39	19005.15
695.53	19030.90
695.66	18932.59
695.80	18757.05
695.93	18551.09
696.07	18647.05
696.20	18518.32
696.33	18520.66
696.47	18420.02
696.60	18611.94
696.73	18073.62
696.87	18040.85
697.00	17949.57
697.14	17912.12
697.27	18029.15
697.40	18024.47
697.54	17769.35
697.67	17460.40
697.80	17635.94
697.94	17516.57
698.07	17366.78
698.21	17261.45
698.34	17376.14
698.47	16980.59
698.61	16893.99
698.74	16861.22
698.87	16863.56
699.01	16599.08
699.14	16552.27
699.27	16411.84
699.40	16732.49
699.54	16301.83
699.67	16503.12
699.80	16404.81
699.94	16283.11
700.07	16290.13
700.20	16156.72
700.34	16123.95
700.47	16196.51
700.60	16353.32
700.73	16156.72
700.87	16145.02
701.00	15606.69
701.13	15543.50
701.26	15777.55
701.40	15407.75
701.53	15580.95
701.66	15564.56
701.79	15300.08
701.93	15239.23
702.06	15473.28
702.19	15119.86
702.32	15159.65
702.46	14878.79
702.59	14932.62
702.72	14822.61
702.85	14970.07
702.99	15005.17
703.12	14843.68
703.25	14768.78
703.38	14778.14
703.51	14445.79
703.65	14581.54
703.78	14551.11
703.91	14394.29
704.04	14469.19
704.17	14333.44
704.31	14396.64
704.44	14127.47
704.57	13977.68
704.70	13827.88
704.83	14080.66
704.96	14214.07
705.10	13921.51
705.23	13886.40
>>>>>End Processed Spectral Data<<<<<
