SpectraSuite Data File
++++++++++++++++++++++++++++++++++++
Date: Fri Oct 25 11:33:55 EDT 2013
User: price-jones
Dark Spectrum Present: No
Reference Spectrum Present: No
Number of Sampled Component Spectra: 1
Spectrometers: USB2+H05261
Integration Time (usec): 100000 (USB2+H05261)
Spectra Averaged: 1 (USB2+H05261)
Boxcar Smoothing: 0 (USB2+H05261)
Correct for Electrical Dark: No (USB2+H05261)
Strobe/Lamp Enabled: No (USB2+H05261)
Correct for Detector Non-linearity: No (USB2+H05261)
Correct for Stray Light: No (USB2+H05261)
Number of Pixels in Processed Spectrum: 2048
>>>>>Begin Processed Spectral Data<<<<<
365.73	327.68
365.92	327.68
366.12	327.68
366.32	231.71
366.52	201.29
366.72	224.69
366.91	177.88
367.11	262.14
367.31	149.79
367.51	126.39
367.70	163.84
367.90	142.77
368.10	149.79
368.30	166.18
368.49	198.95
368.69	257.46
368.89	210.65
369.09	252.78
369.28	227.03
369.48	227.03
369.68	220.01
369.87	191.92
370.07	259.80
370.27	341.72
370.47	355.76
370.66	416.62
370.86	507.90
371.06	514.92
371.25	592.16
371.45	505.56
371.65	524.28
371.84	561.73
372.04	503.22
372.24	601.52
372.44	671.73
372.63	601.52
372.83	587.47
373.03	601.52
373.22	638.97
373.42	568.75
373.62	617.90
373.81	580.45
374.01	608.54
374.21	643.65
374.40	587.47
374.60	730.25
374.79	685.78
374.99	655.35
375.19	662.37
375.38	732.59
375.58	674.07
375.78	720.88
375.97	723.23
376.17	678.76
376.37	643.65
376.56	676.41
376.76	678.76
376.95	706.84
377.15	704.50
377.35	704.50
377.54	683.44
377.74	718.54
377.93	622.58
378.13	718.54
378.33	692.80
378.52	655.35
378.72	617.90
378.91	718.54
379.11	699.82
379.31	662.37
379.50	662.37
379.70	711.52
379.89	751.31
380.09	660.03
380.28	709.18
380.48	713.86
380.68	716.20
380.87	713.86
381.07	720.88
381.26	793.44
381.46	767.70
381.65	784.08
381.85	809.83
382.04	819.19
382.24	727.91
382.43	774.72
382.63	723.23
382.83	723.23
383.02	772.38
383.22	861.32
383.41	798.12
383.61	753.65
383.80	786.42
384.00	847.27
384.19	847.27
384.39	842.59
384.58	748.97
384.78	856.64
384.97	830.89
385.17	849.61
385.36	826.21
385.56	821.53
385.75	805.14
385.95	901.11
386.14	812.17
386.34	826.21
386.53	903.45
386.72	823.87
386.92	917.49
387.11	880.04
387.31	854.30
387.50	835.57
387.70	889.40
387.89	898.77
388.09	833.23
388.28	854.30
388.48	866.00
388.67	959.62
388.86	959.62
389.06	1029.84
389.25	980.68
389.45	999.41
389.64	898.77
389.84	908.13
390.03	997.07
390.22	929.19
390.42	898.77
390.61	1043.88
390.81	980.68
391.00	917.49
391.19	973.66
391.39	1053.24
391.58	1025.15
391.78	1015.79
391.97	968.98
392.16	1011.11
392.36	1104.73
392.55	1067.28
392.75	1104.73
392.94	1043.88
393.13	1043.88
393.33	1064.94
393.52	1067.28
393.71	1013.45
393.91	1069.62
394.10	1090.69
394.29	1116.44
394.49	1064.94
394.68	1116.44
394.88	1100.05
395.07	1135.16
395.26	1093.03
395.46	1088.35
395.65	1186.65
395.84	1088.35
396.04	1221.76
396.23	1181.97
396.42	1188.99
396.62	1102.39
396.81	1210.06
397.00	1184.31
397.19	1179.63
397.39	1144.52
397.58	1137.50
397.77	1231.12
397.97	1338.79
398.16	1289.64
398.35	1291.98
398.55	1212.40
398.74	1231.12
398.93	1371.55
399.12	1261.55
399.32	1294.32
399.51	1228.78
399.70	1376.24
399.90	1336.45
400.09	1336.45
400.28	1383.26
400.47	1383.26
400.67	1394.96
400.86	1453.47
401.05	1320.06
401.24	1324.74
401.44	1366.87
401.63	1490.92
401.82	1493.26
402.01	1481.56
402.21	1476.88
402.40	1451.13
402.59	1437.09
402.78	1439.43
402.97	1444.11
403.17	1497.94
403.36	1451.13
403.55	1584.54
403.74	1600.93
403.93	1579.86
404.13	1523.69
404.32	1589.22
404.51	1617.31
404.70	1603.27
404.89	1544.75
405.09	1619.65
405.28	1717.95
405.47	1607.95
405.66	1696.89
405.85	1715.61
406.05	1692.21
406.24	1713.27
406.43	1631.35
406.62	1755.40
406.81	1762.42
407.00	1769.44
407.20	1785.83
407.39	1678.16
407.58	1863.07
407.77	1792.85
407.96	1881.79
408.15	1884.13
408.34	1825.62
408.54	1900.52
408.73	1886.47
408.92	2008.18
409.11	1907.54
409.30	1884.13
409.49	1982.43
409.68	2078.40
409.87	1921.58
410.07	2097.12
410.26	2036.27
410.45	2087.76
410.64	2066.69
410.83	2099.46
411.02	2115.84
411.21	2129.89
411.40	2062.01
411.59	2153.29
411.78	2235.21
411.98	2167.34
412.17	2277.34
412.36	2228.19
412.55	2263.30
412.74	2214.15
412.93	2305.43
413.12	2324.15
413.31	2363.94
413.50	2300.75
413.69	2403.73
413.88	2452.88
414.07	2459.90
414.26	2525.44
414.45	2607.36
414.64	2476.29
414.83	2502.03
415.02	2546.50
415.22	2693.96
415.41	2733.75
415.60	2766.51
415.79	2619.06
415.98	2583.95
416.17	2794.60
416.36	2722.04
416.55	2656.51
416.74	2726.72
416.93	2616.72
417.12	2794.60
417.31	2839.07
417.50	2857.79
417.69	2892.90
417.88	3035.67
418.07	2857.79
418.26	3012.27
418.45	2965.46
418.64	3009.93
418.83	3190.15
419.02	3014.61
419.21	3066.10
419.39	3112.91
419.58	3157.38
419.77	3096.53
419.96	3070.78
420.15	3171.43
420.34	3204.19
420.53	3019.29
420.72	3136.32
420.91	3206.53
421.10	3255.69
421.29	3220.58
421.48	3108.23
421.67	3281.43
421.86	3283.77
422.05	3311.86
422.24	3208.87
422.43	3337.60
422.61	3386.76
422.80	3290.79
422.99	3417.18
423.18	3445.27
423.37	3445.27
423.56	3407.82
423.75	3213.56
423.94	3356.33
424.13	3314.20
424.32	3157.38
424.50	3396.12
424.69	3473.36
424.88	3438.25
425.07	3342.28
425.26	3314.20
425.45	3562.30
425.64	3234.62
425.83	3468.67
426.01	3609.11
426.20	3438.25
426.39	3349.31
426.58	3461.65
426.77	3410.16
426.96	3522.51
427.15	3550.59
427.33	3625.49
427.52	3513.14
427.71	3524.85
427.90	3620.81
428.09	3684.00
428.28	3543.57
428.46	3639.53
428.65	3644.21
428.84	3707.41
429.03	3651.24
429.22	3735.50
429.40	3756.56
429.59	3658.26
429.78	3691.02
429.97	3627.83
430.16	3719.11
430.34	3854.86
430.53	3826.78
430.72	3873.59
430.91	3957.85
431.10	3829.12
431.28	3885.29
431.47	3936.78
431.66	4002.32
431.85	3871.25
432.03	3950.82
432.22	3962.53
432.41	3896.99
432.60	3925.08
432.79	4044.45
432.97	3988.27
433.16	4037.42
433.35	4138.07
433.54	4203.60
433.72	4175.52
433.91	4154.45
434.10	4250.41
434.28	4086.58
434.47	4264.46
434.66	4168.49
434.85	4271.48
435.03	4276.16
435.22	4428.29
435.41	4395.53
435.59	4393.19
435.78	4344.03
435.97	4369.78
436.16	4353.40
436.34	4374.46
436.53	4470.42
436.72	4458.72
436.90	4535.96
437.09	4475.10
437.28	4437.66
437.46	4491.49
437.65	4447.02
437.84	4573.41
438.02	4526.60
438.21	4645.96
438.40	4496.17
438.58	4582.77
438.77	4807.46
438.96	4847.25
439.14	4770.01
439.33	4777.03
439.52	4805.12
439.70	4917.47
439.89	4924.49
440.08	5008.75
440.26	4964.28
440.45	4912.78
440.63	4931.51
440.82	5055.56
441.01	5041.51
441.19	5114.07
441.38	5210.03
441.57	5104.71
441.75	5369.19
441.94	5394.93
442.12	5320.04
442.31	5416.00
442.50	5432.38
442.68	5465.15
442.87	5355.15
443.05	5490.90
443.24	5575.16
443.43	5500.26
443.61	5507.28
443.80	5685.16
443.98	5535.37
444.17	5313.02
444.35	5500.26
444.54	5586.86
444.73	5694.52
444.91	5612.60
445.10	5586.86
445.28	5680.48
445.47	5612.60
445.65	5657.07
445.84	5743.67
446.02	5809.21
446.21	5671.12
446.39	5631.33
446.58	5720.27
446.77	5757.72
446.95	5668.78
447.14	5575.16
447.32	5846.66
447.51	5645.37
447.69	5769.42
447.88	5612.60
448.06	5900.49
448.25	5706.23
448.43	5654.73
448.62	5628.99
448.80	5926.24
448.99	5813.89
449.17	5940.28
449.36	5886.45
449.54	5987.09
449.73	5940.28
449.91	6104.12
450.10	5935.60
450.28	6122.84
450.46	6076.03
450.65	6076.03
450.83	6113.48
451.02	6024.54
451.20	6181.35
451.39	6129.86
451.57	6118.16
451.76	6080.71
451.94	6162.63
452.13	6174.33
452.31	6279.66
452.49	6134.54
452.68	6216.46
452.86	6141.57
453.05	6422.43
453.23	6408.39
453.42	6305.40
453.60	6202.42
453.78	6431.79
453.97	6279.66
454.15	6342.85
454.34	6377.96
454.52	6478.60
454.70	6392.00
454.89	6356.90
455.07	6593.29
455.26	6499.67
455.44	6595.63
455.62	6520.73
455.81	6581.59
455.99	6958.41
456.17	6771.17
456.36	6670.53
456.54	6862.45
456.73	6963.09
456.91	7052.03
457.09	6949.05
457.28	7061.40
457.46	6916.28
457.64	7082.46
457.83	7009.90
458.01	6897.56
458.19	7103.53
458.38	7096.50
458.56	7045.01
458.74	7180.76
458.93	7307.15
459.11	7112.89
459.29	7082.46
459.48	7094.16
459.66	7138.63
459.84	7335.24
460.03	7325.88
460.21	7417.16
460.39	7300.13
460.57	7281.41
460.76	7391.41
460.94	7510.78
461.12	7550.57
461.31	7599.72
461.49	7452.27
461.67	7536.52
461.85	7611.42
462.04	7597.38
462.22	7948.46
462.40	7691.00
462.59	7672.28
462.77	7688.66
462.95	7756.54
463.13	7829.09
463.32	7705.04
463.50	7754.19
463.68	7920.37
463.86	8013.99
464.05	7990.59
464.23	7943.78
464.41	7854.84
464.59	7639.51
464.78	7892.29
464.96	7901.65
465.14	7658.23
465.32	8023.36
465.50	7985.91
465.69	8198.90
465.87	8124.00
466.05	8072.51
466.23	8177.83
466.41	8159.11
466.60	8194.22
466.78	8161.45
466.96	8124.00
467.14	8250.39
467.32	8180.17
467.51	8376.78
467.69	8079.53
467.87	8344.01
468.05	8262.09
468.23	8318.26
468.41	8224.64
468.60	8248.05
468.78	8479.76
468.96	8428.27
469.14	8568.70
469.32	8514.87
469.50	8388.48
469.69	8631.90
469.87	8657.64
470.05	8767.65
470.23	8781.69
470.41	8681.05
470.59	8884.67
470.77	8777.01
470.95	8945.53
471.14	9188.94
471.32	8545.30
471.50	9202.99
471.68	8973.61
471.86	9032.13
472.04	9181.92
472.22	9352.78
472.40	8938.51
472.58	9006.38
472.77	9177.24
472.95	9448.74
473.13	9458.10
473.31	9577.47
473.49	9275.54
473.67	9502.58
473.85	9673.43
474.03	9715.56
474.21	9387.89
474.39	9816.21
474.57	9750.67
474.75	9884.08
474.93	9666.41
475.12	9666.41
475.30	9975.36
475.48	10005.79
475.66	10223.46
475.84	10160.27
476.02	10235.16
476.20	10169.63
476.38	10157.92
476.56	10366.23
476.74	10445.81
476.92	10321.76
477.10	10401.34
477.28	10565.18
477.46	10537.09
477.64	10862.43
477.82	10832.00
478.00	11269.68
478.18	11103.50
478.36	11028.60
478.54	11393.73
478.72	11152.65
478.90	11428.84
479.08	11529.48
479.26	11522.46
479.44	11639.48
479.62	11648.85
479.80	11763.53
479.98	12018.65
480.16	12161.42
480.34	11976.52
480.52	12285.47
480.70	12257.39
480.88	11962.48
481.06	12229.30
481.24	12074.82
481.41	12564.00
481.59	12659.96
481.77	12802.73
481.95	12919.76
482.13	12744.22
482.31	12835.50
482.49	13123.38
482.67	13064.87
482.85	13305.95
483.03	13610.22
483.21	13483.83
483.39	13848.95
483.57	13495.53
483.74	13657.03
483.92	13661.71
484.10	13736.60
484.28	14305.35
484.46	14485.58
484.64	14698.56
484.82	14398.98
485.00	14389.61
485.18	14750.06
485.35	15101.14
485.53	14888.15
485.71	14974.75
485.89	15176.03
486.07	15157.31
486.25	15379.66
486.43	15520.09
486.61	15704.99
486.78	15915.64
486.96	15700.31
487.14	16006.92
487.32	15946.07
487.50	16025.65
487.68	16070.12
487.85	16238.64
488.03	16636.53
488.21	16840.15
488.39	16987.61
488.57	16706.74
488.75	16959.52
488.92	17551.68
489.10	17158.47
489.28	17329.33
489.46	17687.43
489.64	17647.64
489.81	17666.36
489.99	18015.10
490.17	17877.01
490.35	18185.96
490.53	18773.44
490.70	18984.09
490.88	18396.61
491.06	18417.68
491.24	18918.55
491.41	19077.71
491.59	19208.78
491.77	19147.92
491.95	19531.77
492.13	19412.40
492.30	19363.25
492.48	19634.75
492.66	19499.00
492.84	20034.99
493.01	20046.69
493.19	20060.73
493.37	20257.34
493.54	20049.03
493.72	20475.01
493.90	20542.88
494.08	20521.82
494.25	20816.72
494.43	20699.70
494.61	21193.55
494.79	21055.46
494.96	20940.77
495.14	21106.95
495.32	21507.18
495.49	21329.30
495.67	21610.17
495.85	21741.24
496.02	21886.35
496.20	21963.59
496.38	22321.69
496.55	22265.52
496.73	22562.76
496.91	22487.87
497.09	22597.87
497.26	22682.13
497.44	22939.59
497.62	22761.71
497.79	23417.06
497.97	22934.91
498.14	23587.92
498.32	23384.29
498.50	23454.51
498.67	23828.99
498.85	23747.08
499.03	23608.98
499.20	23817.29
499.38	23957.72
499.56	24144.97
499.73	24219.86
499.91	24439.87
500.08	24472.64
500.26	24304.12
500.44	24297.10
500.61	24854.15
500.79	24706.70
500.97	24945.43
501.14	24996.92
501.32	24978.20
501.49	25036.71
501.67	24711.38
501.84	25146.72
502.02	25193.53
502.20	25565.67
502.37	25766.96
502.55	25394.81
502.72	25790.36
502.90	26015.05
503.07	25663.97
503.25	25867.60
503.43	26087.61
503.60	25977.61
503.78	26202.30
503.95	26132.08
504.13	26630.62
504.30	26611.89
504.48	26546.36
504.65	26834.24
504.83	26792.11
505.01	26838.92
505.18	26955.95
505.36	27056.59
505.53	27110.43
505.71	27557.47
505.88	27438.10
506.06	27250.86
506.23	27220.43
506.41	27047.23
506.58	27435.76
506.76	27304.69
506.93	27505.98
507.11	27704.92
507.28	27828.97
507.46	27880.46
507.63	28154.30
507.81	28507.72
507.98	28056.00
508.16	28318.14
508.33	28456.23
508.50	28676.24
508.68	28671.56
508.85	28643.48
509.03	28765.18
509.20	28694.97
509.38	29462.66
509.55	28978.17
509.73	29312.87
509.90	28889.23
510.08	29277.76
510.25	29378.40
510.42	29310.53
510.60	29549.26
510.77	29776.30
510.95	30181.21
511.12	29586.71
511.30	29907.37
511.47	29851.19
511.64	29996.31
511.82	30008.01
511.99	29841.83
512.17	30230.36
512.34	29783.32
512.51	30508.88
512.69	30630.59
512.86	30902.09
513.04	30834.22
513.21	30726.55
513.38	31182.96
513.56	30820.17
513.73	30661.02
513.90	30920.82
514.08	30761.66
514.25	31136.15
514.43	31182.96
514.60	31213.38
514.77	31512.97
514.95	31185.30
515.12	31501.27
515.29	31639.36
515.47	31990.44
515.64	31461.48
515.81	31496.59
515.99	32023.21
516.16	31812.56
516.33	32332.16
516.51	31906.18
516.68	31957.67
516.85	32430.46
517.03	32662.18
517.20	32730.05
517.37	32903.25
517.54	32716.01
517.72	32318.12
517.89	32507.70
518.06	32528.77
518.24	32732.39
518.41	32676.22
518.58	32809.63
518.75	32776.86
518.93	33376.04
519.10	33010.92
519.27	33385.40
519.45	33048.36
519.62	33127.94
519.79	33624.14
519.96	33532.86
520.14	33593.71
520.31	33455.62
520.48	33897.98
520.65	33851.17
520.83	34183.52
521.00	34389.49
521.17	33795.00
521.34	33883.94
521.52	34391.83
521.69	34314.59
521.86	34560.35
522.03	34373.11
522.20	34827.17
522.38	34904.41
522.55	35061.22
522.72	34499.50
522.89	34834.19
523.07	35388.90
523.24	35009.73
523.41	34862.28
523.58	34962.92
523.75	35040.16
523.92	34850.58
524.10	35049.52
524.27	35349.11
524.44	35206.34
524.61	35805.52
524.78	35398.26
524.96	35674.45
525.13	35875.73
525.30	36208.09
525.47	36318.09
525.64	36180.00
525.81	36027.87
525.98	36161.28
526.16	36439.80
526.33	35981.06
526.50	36233.83
526.67	36107.44
526.84	36187.02
527.01	36556.83
527.18	36514.70
527.36	36755.77
527.53	36456.18
527.70	36851.73
527.87	36486.61
528.04	36825.99
528.21	36732.37
528.38	36966.42
528.55	36985.15
528.72	36861.10
528.89	37055.36
529.07	37170.05
529.24	37163.03
529.41	37312.82
529.58	37275.37
529.75	37013.23
529.92	37572.62
530.09	37490.70
530.26	37596.03
530.43	37303.46
530.60	37621.77
530.77	37043.66
530.94	37696.67
531.11	37759.86
531.28	37713.05
531.46	37954.13
531.63	37724.75
531.80	38052.43
531.97	38038.39
532.14	37993.92
532.31	38052.43
532.48	38232.65
532.65	38270.10
532.82	37895.61
532.99	38012.64
533.16	38106.26
533.33	38380.10
533.50	38714.80
533.67	38501.81
533.84	38384.79
534.01	38412.87
534.18	38440.96
534.35	38836.51
534.52	38616.50
534.69	39002.69
534.86	39337.38
535.03	38691.40
535.20	39007.37
535.37	39311.64
535.54	39360.79
535.71	39194.61
535.88	39124.40
536.05	38955.88
536.22	39690.80
536.38	39030.77
536.55	39285.89
536.72	39641.65
536.89	39412.28
537.06	39175.89
537.23	39873.37
537.40	39395.90
537.57	39498.88
537.74	39704.85
537.91	40493.61
538.08	40016.14
538.25	39569.10
538.42	40179.98
538.59	40175.30
538.75	40027.84
538.92	40243.17
539.09	40034.86
539.26	40217.43
539.43	39985.71
539.60	40423.39
539.77	40229.13
539.94	40280.62
540.11	40662.13
540.28	40130.83
540.44	40191.68
540.61	40168.27
540.78	40577.87
540.95	40460.84
541.12	40561.48
541.29	40664.47
541.46	40629.36
541.62	40811.92
541.79	40989.80
541.96	41067.04
542.13	40304.02
542.30	41008.53
542.47	40863.41
542.63	41139.60
542.80	41165.34
542.97	41633.45
543.14	41776.22
543.31	41088.10
543.48	41350.24
543.64	41778.56
543.81	41867.50
543.98	41940.06
544.15	41698.98
544.32	41970.49
544.48	42405.83
544.65	41949.42
544.82	41846.44
544.99	41818.35
545.16	41839.42
545.32	42043.04
545.49	42127.30
545.66	42452.64
545.83	42410.51
546.00	42572.00
546.16	42134.32
546.33	42211.56
546.50	42330.93
546.67	41869.84
546.83	42417.53
547.00	42424.55
547.17	42209.22
547.34	42518.17
547.50	42939.47
547.67	43021.39
547.84	42422.21
548.00	42899.68
548.17	43051.81
548.34	42831.80
548.51	42899.68
548.67	42969.90
548.84	42838.83
549.01	43115.01
549.18	42777.97
549.34	43138.41
549.51	43400.55
549.68	43267.14
549.84	42696.05
550.01	43508.22
550.18	42817.76
550.34	43344.38
550.51	43042.45
550.68	43805.47
550.84	43063.52
551.01	43597.16
551.18	43028.41
551.34	43196.93
551.51	43690.78
551.68	43299.91
551.84	43412.26
552.01	43299.91
552.18	43524.60
552.34	43456.73
552.51	44044.20
552.68	43686.10
552.84	43533.96
553.01	44067.61
553.18	43311.61
553.34	43817.17
553.51	43377.15
553.67	43887.39
553.84	44264.21
554.01	43871.00
554.17	43810.15
554.34	44285.28
554.51	43833.55
554.67	44451.45
554.84	44493.58
555.00	44360.17
555.17	44048.88
555.33	44114.42
555.50	44273.57
555.67	44315.70
555.83	44105.06
556.00	44371.88
556.16	44608.27
556.33	44502.95
556.50	44619.97
556.66	44273.57
556.83	44098.03
556.99	44725.30
557.16	44645.72
557.32	44636.36
557.49	44580.18
557.65	44659.76
557.82	45120.85
557.98	44921.90
558.15	44882.11
558.32	44774.45
558.48	44870.41
558.65	44940.63
558.81	44814.24
558.98	44694.87
559.14	44985.10
559.31	44774.45
559.47	44795.51
559.64	45151.27
559.80	45411.07
559.97	45064.67
560.13	44278.25
560.30	44975.73
560.46	44727.64
560.63	45713.00
560.79	45275.32
560.96	45794.92
561.12	45333.84
561.29	45261.28
561.45	45808.96
561.61	45162.98
561.78	45296.39
561.94	45289.37
562.11	45640.45
562.27	45125.53
562.44	45195.74
562.60	45745.77
562.77	45595.98
562.93	45478.95
563.10	45565.55
563.26	45015.52
563.42	45448.52
563.59	45675.55
563.75	45406.39
563.92	45944.72
564.08	45315.11
564.24	45734.07
564.41	45703.64
564.57	45947.06
564.74	45752.79
564.90	45900.25
565.07	45677.90
565.23	45811.31
565.39	45773.86
565.56	45811.31
565.72	45626.40
565.88	46054.72
566.05	45647.47
566.21	45675.55
566.38	45811.31
566.54	46092.17
566.70	45715.34
566.87	45914.29
567.03	45975.14
567.19	45883.86
567.36	45778.54
567.52	45647.47
567.68	46256.01
567.85	46220.90
568.01	46300.48
568.17	46216.22
568.34	46342.61
568.50	46054.72
568.66	45713.00
568.83	45970.46
568.99	46162.39
569.15	46450.27
569.32	46050.04
569.48	46377.72
569.64	46773.27
569.81	46185.79
569.97	46227.92
570.13	46344.95
570.30	46277.07
570.46	46293.46
570.62	46607.09
570.78	46010.25
570.95	46223.24
571.11	46312.18
571.27	46239.62
571.43	45820.67
571.60	46174.09
571.76	46028.98
571.92	46281.75
572.09	46571.98
572.25	46241.96
572.41	46003.23
572.57	46604.75
572.74	46880.93
572.90	46483.04
573.06	46415.16
573.22	46911.36
573.38	46894.97
573.55	46473.68
573.71	47014.34
573.87	46417.50
574.03	46368.35
574.20	46745.18
574.36	46490.06
574.52	46651.56
574.68	46169.41
574.84	46639.86
575.01	46815.40
575.17	46866.89
575.33	46965.19
575.49	46529.85
575.65	46958.17
575.82	46574.32
575.98	46614.11
576.14	46791.99
576.30	46806.03
576.46	46281.75
576.62	46693.69
576.79	46887.95
576.95	46548.57
577.11	46429.21
577.27	46663.26
577.43	46564.96
577.59	46457.29
577.75	46653.90
577.92	46464.32
578.08	46761.56
578.24	46932.42
578.40	47150.09
578.56	46813.05
578.72	46761.56
578.88	46703.05
579.04	47056.47
579.21	46611.77
579.37	46845.82
579.53	46672.62
579.69	46958.17
579.85	46600.07
580.01	47107.96
580.17	46539.21
580.33	47012.00
580.49	46946.47
580.65	46822.42
580.82	46604.75
580.98	46443.25
581.14	46216.22
581.30	46672.62
581.46	46780.29
581.62	46808.37
581.78	46714.75
581.94	47014.34
582.10	46450.27
582.26	47079.88
582.42	47320.95
582.58	46887.95
582.74	46651.56
582.90	46747.52
583.06	47590.11
583.22	46574.32
583.38	47105.62
583.54	47239.03
583.70	47215.63
583.86	47004.98
584.02	46904.34
584.18	47267.12
584.34	46897.31
584.50	47468.40
584.66	47171.16
584.82	46883.27
584.98	47332.65
585.14	47217.97
585.30	47058.81
585.46	47215.63
585.62	46733.48
585.78	47082.22
585.94	46775.61
586.10	47274.14
586.26	47089.24
586.42	46597.73
586.58	47239.03
586.74	47019.02
586.90	46855.18
587.06	46869.23
587.22	47255.42
587.38	46930.08
587.54	47782.04
587.70	47353.72
587.86	47161.79
588.02	47295.21
588.18	46827.10
588.34	46885.61
588.49	46997.96
588.65	47004.98
588.81	47332.65
588.97	47304.57
589.13	46988.60
589.29	46574.32
589.45	47278.82
589.61	47608.84
589.77	47576.07
589.93	47304.57
590.08	47257.76
590.24	47632.24
590.40	47686.07
590.56	48004.39
590.72	47255.42
590.88	47150.09
591.04	47388.83
591.20	47311.59
591.35	47262.44
591.51	48060.56
591.67	47440.32
591.83	47433.30
591.99	47239.03
592.15	47686.07
592.31	47398.19
592.46	47342.02
592.62	47323.29
592.78	47765.65
592.94	47990.34
593.10	47957.58
593.26	47992.68
593.41	47611.18
593.57	47732.89
593.73	48009.07
593.89	47756.29
594.05	47796.08
594.20	47845.23
594.36	47793.74
594.52	47906.08
594.68	47756.29
594.84	47845.23
594.99	47934.17
595.15	47552.66
595.31	47716.50
595.47	48062.90
595.62	47531.60
595.78	47449.68
595.94	47735.23
596.10	47634.58
596.25	47894.38
596.41	47800.76
596.57	47295.21
596.73	47817.14
596.88	48186.95
597.04	47632.24
597.20	47868.64
597.36	48076.94
597.51	47796.08
597.67	47826.51
597.83	47622.88
597.99	47807.78
598.14	47683.73
598.30	47990.34
598.46	48210.35
598.61	48463.13
598.77	47969.28
598.93	48044.18
599.09	48055.88
599.24	47896.72
599.40	47887.36
599.56	48093.33
599.71	48376.53
599.87	48713.57
600.03	48320.36
600.18	48044.18
600.34	47870.98
600.50	48161.20
600.65	47824.17
600.81	48144.82
600.97	48273.55
601.12	48037.16
601.28	47978.64
601.44	47980.98
601.59	48062.90
601.75	47597.13
601.91	48116.73
602.06	48273.55
602.22	48126.10
602.37	47910.77
602.53	48362.49
602.69	47704.80
602.84	48004.39
603.00	47962.26
603.16	48271.21
603.31	47866.30
603.47	47973.96
603.62	48032.47
603.78	48079.28
603.94	47955.24
604.09	47777.36
604.25	47613.52
604.40	47760.97
604.56	47875.66
604.71	48285.25
604.87	47821.83
605.03	47920.13
605.18	47796.08
605.34	47983.32
605.49	47627.56
605.65	48053.54
605.80	47753.95
605.96	47386.49
606.12	47779.70
606.27	47861.61
606.43	47688.42
606.58	47625.22
606.74	47959.92
606.89	47636.92
607.05	48367.17
607.20	48128.44
607.36	47985.66
607.51	47777.36
607.67	48006.73
607.82	47767.99
607.98	47906.08
608.13	47758.63
608.29	47906.08
608.44	47878.00
608.60	47601.82
608.75	47924.81
608.91	47634.58
609.06	47540.96
609.22	47505.85
609.37	47512.88
609.53	47789.06
609.68	48156.52
609.84	47543.30
609.99	47894.38
610.15	47894.38
610.30	47702.46
610.46	47470.75
610.61	47388.83
610.76	47627.56
610.92	47454.36
611.07	47377.12
611.23	47447.34
611.38	47599.47
611.54	47688.42
611.69	47887.36
611.84	47407.55
612.00	47241.37
612.15	47327.97
612.31	47468.40
612.46	46983.91
612.62	47215.63
612.77	47299.89
612.92	47620.54
613.08	46871.57
613.23	47316.27
613.39	46986.25
613.54	46955.83
613.69	47498.83
613.85	47215.63
614.00	47405.21
614.15	47529.26
614.31	47260.10
614.46	47536.28
614.62	47342.02
614.77	47082.22
614.92	46824.76
615.08	47456.70
615.23	47154.77
615.38	47428.62
615.54	47103.28
615.69	47007.32
615.84	47248.39
616.00	47033.07
616.15	47110.30
616.30	46974.55
616.46	46735.82
616.61	47107.96
616.76	47122.01
616.92	46953.49
617.07	46993.28
617.22	47164.14
617.37	46843.48
617.53	47437.98
617.68	46972.21
617.83	47068.17
617.99	47138.39
618.14	47414.57
618.29	46595.38
618.45	46909.02
618.60	46780.29
618.75	46492.40
618.90	46829.44
619.06	47089.24
619.21	46532.19
619.36	47185.20
619.51	46988.60
619.67	46724.11
619.82	46443.25
619.97	46773.27
620.12	46850.50
620.28	46330.90
620.43	47126.69
620.58	46766.24
620.73	46911.36
620.89	46583.68
621.04	46813.05
621.19	46754.54
621.34	46485.38
621.49	46213.88
621.65	46487.72
621.80	46986.25
621.95	46461.97
622.10	46227.92
622.25	46366.01
622.41	46342.61
622.56	46291.12
622.71	46454.95
622.86	46829.44
623.01	46452.61
623.16	46541.55
623.32	46087.49
623.47	46417.50
623.62	46387.08
623.77	46443.25
623.92	45834.71
624.07	46714.75
624.23	46164.73
624.38	46344.95
624.53	46014.93
624.68	45366.60
624.83	45567.89
624.98	46080.47
625.13	45876.84
625.29	45734.07
625.44	46005.57
625.59	45961.10
625.74	45436.82
625.89	45509.38
626.04	45993.87
626.19	45851.09
626.34	45925.99
626.49	45434.48
626.65	45448.52
626.80	45542.14
626.95	45429.80
627.10	45525.76
627.25	45893.22
627.40	45647.47
627.55	45457.88
627.70	45134.89
627.85	45947.06
628.00	45818.33
628.15	45593.64
628.30	45024.89
628.45	45109.14
628.60	45055.31
628.76	45525.76
628.91	45237.87
629.06	45010.84
629.21	44942.97
629.36	45106.80
629.51	45207.45
629.66	45212.13
629.81	45324.47
629.96	45106.80
630.11	45549.17
630.26	44680.83
630.41	44861.05
630.56	44790.83
630.71	45249.58
630.86	45193.40
631.01	44470.18
631.16	44580.18
631.31	45123.19
631.46	44744.02
631.61	45261.28
631.76	44898.50
631.91	44989.78
632.06	45191.06
632.21	44921.90
632.36	44980.42
632.51	44528.69
632.66	45237.87
632.81	44619.97
632.96	44435.07
633.10	44306.34
633.25	44898.50
633.40	44760.40
633.55	44921.90
633.70	44884.45
633.85	44605.93
634.00	44460.82
634.15	44280.60
634.30	44575.50
634.45	44348.47
634.60	44474.86
634.75	44456.14
634.90	44568.48
635.05	44549.76
635.19	43962.28
635.34	44615.29
635.49	44011.43
635.64	44414.01
635.79	44615.29
635.94	44500.61
636.09	44449.11
636.24	44268.89
636.39	44453.79
636.53	44081.65
636.68	43938.88
636.83	43803.13
636.98	43620.56
637.13	43416.94
637.28	43793.76
637.43	43751.63
637.57	43955.26
637.72	43826.53
637.87	43983.35
638.02	43978.67
638.17	43831.21
638.32	43393.53
638.46	43812.49
638.61	43896.75
638.76	43356.08
638.91	43758.66
639.06	43690.78
639.20	43192.25
639.35	43346.72
639.50	43398.21
639.65	43555.03
639.80	44004.41
639.94	43672.06
640.09	43730.57
640.24	43531.62
640.39	43571.41
640.54	43096.28
640.68	43309.27
640.83	43594.82
640.98	43122.03
641.13	43096.28
641.27	43585.46
641.42	43583.12
641.57	43337.36
641.72	43459.07
641.86	43187.56
642.01	43000.32
642.16	43122.03
642.31	42792.01
642.45	43115.01
642.60	43246.08
642.75	43239.06
642.90	42969.90
643.04	43033.09
643.19	43154.80
643.34	42773.29
643.48	42653.92
643.63	42909.04
643.78	42906.70
643.93	43189.91
644.07	43077.56
644.22	43138.41
644.37	42546.26
644.51	43248.42
644.66	43040.11
644.81	43138.41
644.95	42721.80
645.10	42904.36
645.25	42433.91
645.39	42326.25
645.54	42398.80
645.69	42096.88
645.83	42363.70
645.98	42550.94
646.13	42216.24
646.27	42359.02
646.42	42677.33
646.57	42256.03
646.71	42527.53
646.86	42440.93
647.00	42693.71
647.15	42679.67
647.30	42351.99
647.44	42424.55
647.59	42059.43
647.74	42305.18
647.88	42244.33
648.03	42555.62
648.17	42674.99
648.32	42337.95
648.47	42682.01
648.61	42103.90
648.76	42021.98
648.90	42160.07
649.05	41998.57
649.20	41923.68
649.34	42600.09
649.49	41551.53
649.63	42663.28
649.78	42033.68
649.92	41986.87
650.07	42501.79
650.21	42101.56
650.36	42356.67
650.51	42272.42
650.65	42239.65
650.80	42319.23
650.94	41659.20
651.09	42249.01
651.23	41675.58
651.38	41532.81
651.52	41607.70
651.67	41577.28
651.81	41984.53
651.96	41291.73
652.10	41134.92
652.25	41338.54
652.39	41626.43
652.54	41619.41
652.68	41368.97
652.83	41687.28
652.97	41521.10
653.12	41404.08
653.26	41773.88
653.41	41537.49
653.55	41544.51
653.70	41420.46
653.84	41303.43
653.99	41420.46
654.13	41478.97
654.27	41467.27
654.42	41303.43
654.56	40662.13
654.71	41024.91
654.85	41165.34
655.00	41317.48
655.14	41043.63
655.29	41235.56
655.43	41340.88
655.57	41158.32
655.72	40697.24
655.86	40720.64
656.01	40865.75
656.15	40758.09
656.30	40584.89
656.44	40945.33
656.58	40893.84
656.73	40886.82
656.87	40264.24
657.01	40877.46
657.16	40877.46
657.30	40624.68
657.45	40924.27
657.59	40432.75
657.73	40458.50
657.88	40692.55
658.02	40650.42
658.16	40463.18
658.31	40435.10
658.45	40423.39
658.60	40612.98
658.74	40519.35
658.88	40390.62
659.03	40273.60
659.17	40039.54
659.31	39702.51
659.46	40137.85
659.60	40280.62
659.74	39812.51
659.89	39358.45
660.03	39765.70
660.17	40217.43
660.32	39892.09
660.46	39906.13
660.60	39201.63
660.74	39536.33
660.89	40088.70
661.03	39456.75
661.17	39381.85
661.32	39374.83
661.46	39358.45
661.60	39063.54
661.74	39213.34
661.89	39531.65
662.03	39311.64
662.17	38714.80
662.31	39629.95
662.46	38913.75
662.60	38979.28
662.74	38939.49
662.88	38431.60
663.03	38345.00
663.17	38607.14
663.31	38518.20
663.45	38775.66
663.60	38829.49
663.74	38712.46
663.88	38190.52
664.02	38366.06
664.17	38714.80
664.31	38124.99
664.45	38424.57
664.59	38319.25
664.73	38157.75
664.88	38263.08
665.02	37986.89
665.16	38117.96
665.30	38022.00
665.44	37816.04
665.59	37720.07
665.73	37919.02
665.87	37624.11
666.01	37984.55
666.15	37399.42
666.29	37645.18
666.44	37251.97
666.58	37626.45
666.72	37258.99
666.86	37736.46
667.00	37481.34
667.14	37546.87
667.28	37436.87
667.43	37083.45
667.57	37682.62
667.71	37116.22
667.85	37701.35
667.99	36863.44
668.13	36751.09
668.27	36734.71
668.41	37104.51
668.56	36744.07
668.70	36692.58
668.84	36325.11
668.98	36500.65
669.12	36350.86
669.26	36720.66
669.40	36552.15
669.54	36760.45
669.68	36458.52
669.82	36273.62
669.96	35789.13
670.10	35892.12
670.25	35878.07
670.39	36149.57
670.53	35866.37
670.67	35887.43
670.81	36243.20
670.95	36081.70
671.09	36107.44
671.23	35737.64
671.37	35377.20
671.51	35395.92
671.65	35447.41
671.79	35220.38
671.93	35615.93
672.07	35391.24
672.21	35503.59
672.35	34838.87
672.49	34983.99
672.63	34731.21
672.77	34501.84
672.91	34986.33
673.05	34630.57
673.19	34059.48
673.33	34569.71
673.47	34216.29
673.61	34092.24
673.75	33846.49
673.89	33963.51
674.03	34108.63
674.17	33509.45
674.31	33347.95
674.45	33972.88
674.59	34096.92
674.73	33582.01
674.87	33509.45
675.01	32971.13
675.15	33116.24
675.29	33303.48
675.43	33310.50
675.56	33577.33
675.70	33146.67
675.84	32959.42
675.98	31740.00
676.12	33137.30
676.26	32629.41
676.40	32554.51
676.54	32425.78
676.68	32304.07
676.82	31646.38
676.96	32318.12
677.10	32510.04
677.23	32114.49
677.37	31665.11
677.51	32039.59
677.65	32086.40
677.79	31700.22
677.93	31732.98
678.07	31721.28
678.21	31543.40
678.34	31400.63
678.48	31473.18
678.62	30773.36
678.76	30934.86
678.90	30920.82
679.04	31103.38
679.18	30937.20
679.31	30553.35
679.45	30401.22
679.59	30469.09
679.73	30597.82
679.87	30431.65
680.00	30356.75
680.14	30223.34
680.28	29804.38
680.42	29975.24
680.56	30185.89
680.70	29766.93
680.83	29710.76
680.97	29237.97
681.11	29378.40
681.25	29345.64
681.39	29195.84
681.52	29413.51
681.66	29076.48
681.80	28842.42
681.94	28678.58
682.07	28489.00
682.21	28404.74
682.35	28575.60
682.49	28411.76
682.62	28266.65
682.76	28430.49
682.90	28039.62
683.04	28130.90
683.17	28119.20
683.31	27971.74
683.45	27800.88
683.59	27782.16
683.72	27552.79
683.86	27786.84
684.00	27871.10
684.13	27410.01
684.27	27016.80
684.41	26700.83
684.55	26969.99
684.68	27185.32
684.82	26796.79
684.96	26431.67
685.09	26843.60
685.23	26726.58
685.37	26939.57
685.50	26335.71
685.64	26675.09
685.78	26511.25
685.91	26092.29
686.05	26057.18
686.19	25472.05
686.32	25898.03
686.46	25568.01
686.60	25603.12
686.73	25586.74
686.87	25390.13
687.01	25394.81
687.14	25275.45
687.28	25308.21
687.42	24821.38
687.55	24879.89
687.69	24769.89
687.82	24584.99
687.96	24842.45
688.10	24727.76
688.23	24774.57
688.37	24563.92
688.50	24877.55
688.64	24664.57
688.78	24074.75
688.91	23997.51
689.05	24322.85
689.18	23726.01
689.32	23283.65
689.46	23775.16
689.59	23243.86
689.73	24100.50
689.86	23571.54
690.00	23709.63
690.13	23414.72
690.27	23105.77
690.41	23283.65
690.54	23012.15
690.68	23021.51
690.81	22869.37
690.95	22780.43
691.08	22597.87
691.22	22253.81
691.35	21942.52
691.49	22679.79
691.62	22569.79
691.76	22239.77
691.89	22005.72
692.03	21610.17
692.16	21631.23
692.30	21809.11
692.43	21497.82
692.57	21156.10
692.70	21291.85
692.84	21275.47
692.97	21275.47
693.11	20805.02
693.24	20936.09
693.38	20971.20
693.51	20746.51
693.65	20512.46
693.78	20547.56
693.92	20645.87
694.05	20748.85
694.19	20580.33
694.32	20585.01
694.45	20767.57
694.59	20435.22
694.72	20470.33
694.86	20011.58
694.99	20137.97
695.13	19908.60
695.26	19545.81
695.39	19660.50
695.53	19459.21
695.66	19740.08
695.80	19494.32
695.93	19370.27
696.07	19138.56
696.20	19023.87
696.33	19056.64
696.47	18743.01
696.60	18977.06
696.73	18913.87
696.87	18581.51
697.00	18597.90
697.14	18501.93
697.27	18398.95
697.40	18195.32
697.54	18244.48
697.67	18125.11
697.80	18284.26
697.94	17951.91
698.07	17980.00
698.21	17982.34
698.34	17827.86
698.47	17792.75
698.61	17481.46
698.74	17415.93
698.87	17635.94
699.01	17301.24
699.14	17345.71
699.27	17397.20
699.40	17341.03
699.54	17076.55
699.67	17069.53
699.80	17001.65
699.94	16776.96
700.07	16922.07
700.20	16861.22
700.34	16606.10
700.47	16453.97
700.60	16776.96
700.73	16446.94
700.87	16210.55
701.00	16222.25
701.13	16074.80
701.26	15915.64
701.40	16198.85
701.53	15983.52
701.66	15695.63
701.79	15796.28
701.93	15604.35
702.06	15630.10
702.19	15620.74
702.32	15688.61
702.46	15307.10
702.59	15262.63
702.72	15658.18
702.85	15468.60
702.99	15332.85
703.12	15161.99
703.25	14977.09
703.38	14977.09
703.51	14883.47
703.65	14607.28
703.78	14501.96
703.91	14743.03
704.04	14417.70
704.17	14565.15
704.31	14415.36
704.44	14675.16
704.57	14473.87
704.70	14228.12
704.83	14108.75
704.96	13879.38
705.10	13914.48
705.23	14171.94
>>>>>End Processed Spectral Data<<<<<
