SpectraSuite Data File
++++++++++++++++++++++++++++++++++++
Date: Fri Oct 25 10:47:02 EDT 2013
User: price-jones
Dark Spectrum Present: No
Reference Spectrum Present: No
Number of Sampled Component Spectra: 1
Spectrometers: USB2+H05261
Integration Time (usec): 100000 (USB2+H05261)
Spectra Averaged: 1 (USB2+H05261)
Boxcar Smoothing: 0 (USB2+H05261)
Correct for Electrical Dark: No (USB2+H05261)
Strobe/Lamp Enabled: No (USB2+H05261)
Correct for Detector Non-linearity: No (USB2+H05261)
Correct for Stray Light: No (USB2+H05261)
Number of Pixels in Processed Spectrum: 2048
>>>>>Begin Processed Spectral Data<<<<<
365.73	163.84
365.92	163.84
366.12	163.84
366.32	21.06
366.52	65.54
366.72	0.00
366.91	60.85
367.11	0.00
367.31	0.00
367.51	0.00
367.70	37.45
367.90	84.26
368.10	56.17
368.30	0.00
368.49	30.43
368.69	84.26
368.89	72.56
369.09	65.54
369.28	56.17
369.48	32.77
369.68	112.35
369.87	142.77
370.07	142.77
370.27	102.98
370.47	205.97
370.66	327.68
370.86	463.43
371.06	440.02
371.25	552.37
371.45	496.19
371.65	454.06
371.84	468.11
372.04	414.27
372.24	489.17
372.44	510.24
372.63	472.79
372.83	496.19
373.03	566.41
373.22	489.17
373.42	538.32
373.62	470.45
373.81	585.13
374.01	498.53
374.21	528.96
374.40	517.26
374.60	491.51
374.79	564.07
374.99	557.05
375.19	561.73
375.38	608.54
375.58	524.28
375.78	641.31
375.97	592.16
376.17	617.90
376.37	547.69
376.56	538.32
376.76	578.11
376.95	552.37
377.15	660.03
377.35	578.11
377.54	608.54
377.74	692.80
377.93	657.69
378.13	603.86
378.33	636.63
378.52	643.65
378.72	653.01
378.91	645.99
379.11	662.37
379.31	636.63
379.50	610.88
379.70	655.35
379.89	690.46
380.09	660.03
380.28	690.46
380.48	744.29
380.68	699.82
380.87	660.03
381.07	685.78
381.26	662.37
381.46	617.90
381.65	636.63
381.85	718.54
382.04	746.63
382.24	704.50
382.43	727.91
382.63	678.76
382.83	716.20
383.02	732.59
383.22	741.95
383.41	631.94
383.61	730.25
383.80	688.12
384.00	737.27
384.19	734.93
384.39	706.84
384.58	791.10
384.78	741.95
384.97	770.04
385.17	734.93
385.36	763.01
385.56	683.44
385.75	734.93
385.95	816.85
386.14	795.78
386.34	784.08
386.53	854.30
386.72	882.38
386.92	840.25
387.11	800.46
387.31	802.80
387.50	866.00
387.70	844.93
387.89	861.32
388.09	826.21
388.28	828.55
388.48	877.70
388.67	985.37
388.86	882.38
389.06	863.66
389.25	887.06
389.45	870.68
389.64	910.47
389.84	936.21
390.03	947.92
390.22	978.34
390.42	875.36
390.61	973.66
390.81	1015.79
391.00	959.62
391.19	919.83
391.39	999.41
391.58	954.94
391.78	1076.65
391.97	971.32
392.16	985.37
392.36	1083.67
392.55	940.90
392.75	957.28
392.94	926.85
393.13	1043.88
393.33	990.05
393.52	994.73
393.71	1032.18
393.91	1081.33
394.10	1095.37
394.29	1088.35
394.49	1095.37
394.68	1135.16
394.88	1111.75
395.07	1146.86
395.26	1093.03
395.46	1118.78
395.65	1137.50
395.84	1130.48
396.04	1151.54
396.23	1088.35
396.42	1046.22
396.62	1235.80
396.81	1172.61
397.00	1238.14
397.19	1203.04
397.39	1240.48
397.58	1306.02
397.77	1348.15
397.97	1221.76
398.16	1315.38
398.35	1366.87
398.55	1324.74
398.74	1343.47
398.93	1359.85
399.12	1352.83
399.32	1383.26
399.51	1401.98
399.70	1514.33
399.90	1390.28
400.09	1455.81
400.28	1453.47
400.47	1495.60
400.67	1493.26
400.86	1575.18
401.05	1497.94
401.24	1514.33
401.44	1493.26
401.63	1533.05
401.82	1633.69
402.01	1619.65
402.21	1593.90
402.40	1668.80
402.59	1619.65
402.78	1673.48
402.97	1621.99
403.17	1633.69
403.36	1586.88
403.55	1666.46
403.74	1673.48
403.93	1724.97
404.13	1717.95
404.32	1694.55
404.51	1750.72
404.70	1799.87
404.89	1661.78
405.09	1858.39
405.28	1865.41
405.47	1760.08
405.66	1827.96
405.85	1853.70
406.05	1797.53
406.24	1898.17
406.43	1863.07
406.62	1956.69
406.81	1909.88
407.00	2008.18
407.20	1930.94
407.39	1856.04
407.58	1933.28
407.77	1980.09
407.96	1891.15
408.15	2012.86
408.34	1959.03
408.54	2008.18
408.73	2108.82
408.92	2076.06
409.11	2064.35
409.30	2078.40
409.49	2129.89
409.68	2169.68
409.87	2127.55
410.07	2101.80
410.26	2230.53
410.45	2272.66
410.64	2237.55
410.83	2333.51
411.02	2195.42
411.21	2324.15
411.40	2303.09
411.59	2392.03
411.78	2321.81
411.98	2338.20
412.17	2340.54
412.36	2429.48
412.55	2296.07
412.74	2476.29
412.93	2546.50
413.12	2452.88
413.31	2670.55
413.50	2532.46
413.69	2637.78
413.88	2684.59
414.07	2609.70
414.26	2822.69
414.45	2696.30
414.64	2738.43
414.83	2743.11
415.02	2888.22
415.22	2841.41
415.41	2874.18
415.60	2906.95
415.79	2848.43
415.98	2913.97
416.17	2965.46
416.36	2963.12
416.55	3045.04
416.74	3007.59
416.93	3000.57
417.12	3023.97
417.31	3122.27
417.50	3094.19
417.69	3251.00
417.88	3222.92
418.07	3141.00
418.26	3014.61
418.45	3227.60
418.64	3243.98
418.83	3375.05
419.02	3311.86
419.21	3393.78
419.39	3431.23
419.58	3328.24
419.77	3213.56
419.96	3316.54
420.15	3501.44
420.34	3335.26
420.53	3428.88
420.72	3468.67
420.91	3428.88
421.10	3487.40
421.29	3513.14
421.48	3529.53
421.67	3548.25
421.86	3541.23
422.05	3534.21
422.24	3543.57
422.43	3611.45
422.61	3417.18
422.80	3569.32
422.99	3623.15
423.18	3674.64
423.37	3765.92
423.56	3691.02
423.75	3501.44
423.94	3515.48
424.13	3431.23
424.32	3445.27
424.50	3655.92
424.69	3812.73
424.88	3866.56
425.07	3487.40
425.26	3609.11
425.45	3639.53
425.64	3648.90
425.83	3691.02
426.01	3747.20
426.20	3669.96
426.39	3798.69
426.58	3506.12
426.77	3648.90
426.96	3775.28
427.15	3728.47
427.33	3742.52
427.52	3686.34
427.71	3815.07
427.90	3798.69
428.09	3864.22
428.28	3864.22
428.46	3871.25
428.65	3887.63
428.84	4018.70
429.03	4051.47
429.22	3761.24
429.40	3941.46
429.59	3932.10
429.78	3864.22
429.97	3735.50
430.16	3789.33
430.34	3936.78
430.53	3978.91
430.72	3943.80
430.91	3969.55
431.10	4215.30
431.28	4250.41
431.47	4386.16
431.66	4311.27
431.85	4339.35
432.03	4428.29
432.22	4329.99
432.41	4238.71
432.60	4219.99
432.79	4440.00
432.97	4432.97
433.16	4498.51
433.35	4393.19
433.54	4517.23
433.72	4273.82
433.91	4355.74
434.10	4386.16
434.28	4386.16
434.47	4606.17
434.66	4617.88
434.85	4507.87
435.03	4638.94
435.22	4594.47
435.41	4589.79
435.59	4662.35
435.78	4711.50
435.97	4697.46
436.16	4772.35
436.34	4650.64
436.53	4554.68
436.72	4861.29
436.90	4624.90
437.09	4758.31
437.28	4744.27
437.46	4868.31
437.65	4830.87
437.84	4777.03
438.02	4821.50
438.21	4835.55
438.40	4762.99
438.58	4954.91
438.77	5181.95
438.96	5109.39
439.14	5195.99
439.33	5310.68
439.52	5336.42
439.70	5240.46
439.89	5256.84
440.08	5390.25
440.26	5331.74
440.45	5336.42
440.63	5329.40
440.82	5497.92
441.01	5572.82
441.19	5533.03
441.38	5614.95
441.57	5556.43
441.75	5727.29
441.94	5900.49
442.12	5860.70
442.31	5921.56
442.50	5856.02
442.68	5846.66
442.87	5912.19
443.05	5802.19
443.24	5884.11
443.43	5846.66
443.61	5886.45
443.80	6167.31
443.98	5818.57
444.17	5947.30
444.35	6040.92
444.54	5977.73
444.73	6008.16
444.91	5921.56
445.10	6043.26
445.28	5944.96
445.47	5909.85
445.65	5933.26
445.84	6094.76
446.02	5973.05
446.21	6031.56
446.39	6197.74
446.58	6073.69
446.77	6061.99
446.95	6251.57
447.14	6085.39
447.32	6214.12
447.51	6188.38
447.69	6181.35
447.88	6148.59
448.06	6286.68
448.25	6174.33
448.43	6242.21
448.62	6342.85
448.80	6300.72
448.99	6396.68
449.17	6359.24
449.36	6307.74
449.54	6429.45
449.73	6513.71
449.91	6619.04
450.10	6560.52
450.28	6738.40
450.46	6703.29
450.65	6773.51
450.83	6621.38
451.02	6476.26
451.20	6813.30
451.39	6736.06
451.57	6504.35
451.76	6504.35
451.94	6698.61
452.13	6860.11
452.31	6677.55
452.49	6600.31
452.68	6754.79
452.86	6717.34
453.05	6860.11
453.23	6871.81
453.42	6815.64
453.60	6876.49
453.78	6876.49
453.97	6817.98
454.15	6848.41
454.34	6867.13
454.52	7037.99
454.70	7218.21
454.89	6939.69
455.07	6970.12
455.26	7169.06
455.44	7164.38
455.62	7197.15
455.81	7094.16
455.99	7157.36
456.17	7150.34
456.36	7279.07
456.54	7400.77
456.73	7517.80
456.91	7517.80
457.09	7522.48
457.28	7604.40
457.46	7325.88
457.64	7566.95
457.83	7569.29
458.01	7461.63
458.19	7588.02
458.38	7564.61
458.56	7756.54
458.74	7573.97
458.93	7550.57
459.11	7632.49
459.29	7805.69
459.48	7775.26
459.66	7655.89
459.84	7927.39
460.03	7875.90
460.21	7866.54
460.39	7960.16
460.57	7927.39
460.76	7950.80
460.94	7941.44
461.12	7903.99
461.31	7880.58
461.49	8074.85
461.67	8161.45
461.85	8177.83
462.04	8112.30
462.22	8521.89
462.40	8327.63
462.59	8259.75
462.77	8102.93
462.95	8381.46
463.13	8189.53
463.32	8241.03
463.50	8400.18
463.68	8287.84
463.86	8397.84
464.05	8283.16
464.23	8252.73
464.41	8767.65
464.59	8327.63
464.78	8472.74
464.96	8585.08
465.14	8580.40
465.32	8709.13
465.50	8613.17
465.69	8697.43
465.87	8486.78
466.05	8798.07
466.23	8617.85
466.41	8657.64
466.60	8617.85
466.78	8596.79
466.96	8606.15
467.14	8769.99
467.32	8786.37
467.51	8826.16
467.69	8674.03
467.87	8798.07
468.05	8828.50
468.23	8734.88
468.41	8814.46
468.60	8674.03
468.78	8901.06
468.96	9055.53
469.14	8746.58
469.32	9254.48
469.50	9125.75
469.69	9217.03
469.87	9245.12
470.05	9198.31
470.23	9373.85
470.41	9095.32
470.59	9270.86
470.77	9355.12
470.95	9266.18
471.14	9591.52
471.32	9025.11
471.50	9619.60
471.68	9528.32
471.86	9738.97
472.04	9757.69
472.22	9954.30
472.40	9540.02
472.58	9579.81
472.77	9689.82
472.95	9863.02
473.13	10167.29
473.31	9926.21
473.49	9729.61
473.67	9643.01
473.85	9916.85
474.03	10293.68
474.21	10356.87
474.39	10401.34
474.57	10094.73
474.75	10333.47
474.93	10501.98
475.12	10509.01
475.30	10464.54
475.48	10710.29
475.66	10733.70
475.84	10633.05
476.02	10677.52
476.20	10504.32
476.38	10693.91
476.56	11272.02
476.74	10991.16
476.92	11002.86
477.10	10775.83
477.28	11283.72
477.46	11213.51
477.64	11344.58
477.82	11503.73
478.00	11623.10
478.18	11550.54
478.36	12056.10
478.54	11967.16
478.72	11896.94
478.90	12191.85
479.08	12133.34
479.26	12329.94
479.44	12138.02
479.62	12343.99
479.80	12617.83
479.98	12620.17
480.16	12919.76
480.34	12830.82
480.52	12606.13
480.70	12854.22
480.88	12751.24
481.06	12767.62
481.24	12971.25
481.41	13310.63
481.59	13408.93
481.77	13516.59
481.95	13666.39
482.13	13575.11
482.31	13703.84
482.49	14277.27
482.67	14061.94
482.85	14029.17
483.03	14113.43
483.21	14319.40
483.39	14539.41
483.57	14382.59
483.74	14504.30
483.92	14963.04
484.10	14501.96
484.28	14904.53
484.46	15007.52
484.64	15529.45
484.82	15028.58
485.00	15044.96
485.18	15274.34
485.35	15477.96
485.53	15463.92
485.71	15379.66
485.89	15454.56
486.07	15513.07
486.25	15836.06
486.43	16027.99
486.61	16297.15
486.78	16533.54
486.96	16374.39
487.14	16751.21
487.32	16926.75
487.50	16954.84
487.68	16945.48
487.85	17453.37
488.03	17135.06
488.21	17369.12
488.39	17296.56
488.57	17579.76
488.75	17980.00
488.92	18097.02
489.10	18127.45
489.28	18427.04
489.46	18520.66
489.64	18368.52
489.81	18691.52
489.99	19124.52
490.17	19229.84
490.35	19056.64
490.53	18986.43
490.70	19222.82
490.88	19344.53
491.06	19798.59
491.24	19569.22
491.41	19583.26
491.59	19578.58
491.77	19578.58
491.95	20053.71
492.13	20109.88
492.30	20458.62
492.48	20563.95
492.66	20542.88
492.84	20570.97
493.01	20638.84
493.19	20798.00
493.37	21130.36
493.54	20971.20
493.72	21120.99
493.90	21509.52
494.08	21436.97
494.25	21792.73
494.43	22087.64
494.61	22155.51
494.79	22349.78
494.96	22125.08
495.14	22263.18
495.32	22153.17
495.49	22403.61
495.67	22434.03
495.85	23028.53
496.02	22944.27
496.20	23103.43
496.38	23098.75
496.55	22934.91
496.73	23353.87
496.91	23274.29
497.09	23695.58
497.26	23634.73
497.44	23660.48
497.62	23957.72
497.79	24130.92
497.97	23730.69
498.14	23744.73
498.32	24070.07
498.50	24648.18
498.67	24702.01
498.85	24716.06
499.03	24999.26
499.20	24903.30
499.38	24664.57
499.56	24964.15
499.73	25439.28
499.91	25427.58
500.08	25312.89
500.26	24856.49
500.44	25476.73
500.61	25371.41
500.79	25460.35
500.97	25575.03
501.14	26017.40
501.32	26167.19
501.49	25490.77
501.67	25745.89
501.84	26298.26
502.02	25984.63
502.20	26024.42
502.37	26314.64
502.55	26476.14
502.72	26668.06
502.90	26712.53
503.07	26281.88
503.25	26820.20
503.43	26321.66
503.60	26590.83
503.78	26747.64
503.95	26867.01
504.13	27182.98
504.30	27133.83
504.48	26764.03
504.65	27709.60
504.83	27253.20
505.01	27562.15
505.18	27723.65
505.36	27953.02
505.53	27800.88
505.71	28304.10
505.88	28364.95
506.06	28163.67
506.23	27997.49
506.41	28271.33
506.58	28112.17
506.76	27910.89
506.93	28929.02
507.11	28128.56
507.28	28360.27
507.46	28603.69
507.63	28498.36
507.81	29151.37
507.98	29083.50
508.16	28975.83
508.33	29308.19
508.50	29078.82
508.68	29390.11
508.85	29645.23
509.03	29474.37
509.20	29844.17
509.38	29764.59
509.55	29806.72
509.73	29975.24
509.90	30054.82
510.08	29970.56
510.25	29982.26
510.42	30206.95
510.60	30036.09
510.77	30492.50
510.95	30417.60
511.12	30185.89
511.30	30307.60
511.47	30679.74
511.64	30684.42
511.82	30483.14
511.99	31079.97
512.17	30686.76
512.34	31061.25
512.51	30969.97
512.69	31234.45
512.86	31379.56
513.04	31267.22
513.21	31318.71
513.38	31325.73
513.56	31421.69
513.73	31332.75
513.90	31793.84
514.08	31454.46
514.25	31903.84
514.43	31651.06
514.60	31714.26
514.77	31910.86
514.95	31817.24
515.12	31985.76
515.29	32353.23
515.47	32385.99
515.64	32465.57
515.81	32411.74
515.99	32341.52
516.16	32278.33
516.33	32488.98
516.51	32425.78
516.68	32268.97
516.85	31873.42
517.03	32606.00
517.20	32978.15
517.37	32872.82
517.54	32919.63
517.72	33048.36
517.89	33237.95
518.06	32723.03
518.24	32563.87
518.41	32919.63
518.58	33078.79
518.75	33174.75
518.93	33406.47
519.10	33750.52
519.27	33392.42
519.45	33284.76
519.62	34143.74
519.79	33897.98
519.96	33888.62
520.14	34188.21
520.31	33809.04
520.48	34569.71
520.65	34223.31
520.83	34384.81
521.00	34504.18
521.17	34548.65
521.34	34438.64
521.52	34396.51
521.69	34913.77
521.86	34817.81
522.03	34700.78
522.20	34904.41
522.38	34700.78
522.55	34714.83
522.72	35222.72
522.89	34993.35
523.07	35072.93
523.24	34817.81
523.41	35779.77
523.58	35187.61
523.75	35777.43
523.92	35599.55
524.10	35892.12
524.27	35285.92
524.44	35842.96
524.61	35917.86
524.78	36100.42
524.96	35594.87
525.13	36285.33
525.30	36343.84
525.47	36268.94
525.64	36371.92
525.81	36194.04
525.98	35950.63
526.16	36205.75
526.33	36016.16
526.50	36701.94
526.67	36006.80
526.84	35810.20
527.01	36156.60
527.18	36505.34
527.36	36514.70
527.53	37165.37
527.70	37158.34
527.87	36982.80
528.04	36320.43
528.21	36940.68
528.38	37015.57
528.55	37083.45
528.72	37240.26
528.89	36900.89
529.07	37158.34
529.24	37095.15
529.41	37200.47
529.58	37134.94
529.75	37251.97
529.92	37357.29
530.09	37574.96
530.26	37537.51
530.43	37666.24
530.60	37109.19
530.77	37486.02
530.94	37890.93
531.11	37680.28
531.28	38143.71
531.46	37989.24
531.63	38227.97
531.80	37949.45
531.97	38206.90
532.14	37893.27
532.31	37942.42
532.48	37991.58
532.65	38052.43
532.82	38368.40
532.99	38017.32
533.16	38232.65
533.33	38644.59
533.50	38251.38
533.67	38665.65
533.84	38199.88
534.01	38440.96
534.18	38490.11
534.35	39262.49
534.52	38614.16
534.69	38675.01
534.86	38920.77
535.03	38572.03
535.20	39126.74
535.37	39147.80
535.54	39482.50
535.71	38836.51
535.88	38946.51
536.05	39131.42
536.22	39545.69
536.38	39543.35
536.55	39115.03
536.72	39023.75
536.89	39161.84
537.06	39393.56
537.23	39438.03
537.40	39234.40
537.57	39515.26
537.74	39606.55
537.91	39962.31
538.08	39604.20
538.25	39992.73
538.42	40212.74
538.59	40100.40
538.75	39445.05
538.92	39882.73
539.09	39931.88
539.26	39775.06
539.43	39777.40
539.60	40217.43
539.77	40142.53
539.94	40156.57
540.11	40259.55
540.28	40285.30
540.44	40100.40
540.61	40196.36
540.78	40315.73
540.95	39807.83
541.12	40133.17
541.29	40364.88
541.46	40058.27
541.62	40486.59
541.79	40795.54
541.96	40549.78
542.13	40491.27
542.30	40617.66
542.47	41015.55
542.63	40950.01
542.80	40502.97
542.97	41062.36
543.14	41202.79
543.31	41031.93
543.48	41123.21
543.64	41588.98
543.81	41085.76
543.98	41624.09
544.15	41368.97
544.32	41408.76
544.48	41888.57
544.65	41352.58
544.82	41869.84
544.99	41591.32
545.16	41418.12
545.32	41553.87
545.49	41617.07
545.66	41893.25
545.83	41607.70
546.00	42066.45
546.16	41872.18
546.33	41661.54
546.50	41670.90
546.67	41581.96
546.83	41841.76
547.00	41537.49
547.17	41652.17
547.34	41509.40
547.50	42101.56
547.67	42213.90
547.84	42040.70
548.00	41764.52
548.17	42344.97
548.34	42436.25
548.51	42426.89
548.67	42604.77
548.84	42572.00
549.01	42178.79
549.18	42590.73
549.34	42412.85
549.51	42703.07
549.68	42703.07
549.84	42752.23
550.01	42586.05
550.18	42010.28
550.34	42890.32
550.51	42665.63
550.68	42644.56
550.84	41867.50
551.01	42595.41
551.18	42298.16
551.34	42614.13
551.51	43035.43
551.68	43217.99
551.84	43328.00
552.01	42621.16
552.18	42967.55
552.34	42525.19
552.51	43480.13
552.68	42855.21
552.84	43395.87
553.01	43695.46
553.18	43346.72
553.34	42986.28
553.51	42902.02
553.67	42808.40
553.84	43768.02
554.01	43335.02
554.17	43665.03
554.34	43564.39
554.51	43461.41
554.67	43819.51
554.84	43330.34
555.00	43351.40
555.17	43147.78
555.33	43845.26
555.50	43489.49
555.67	43648.65
555.83	43330.34
556.00	43468.43
556.16	43569.07
556.33	44130.80
556.50	44177.61
556.66	43648.65
556.83	43297.57
556.99	43988.03
557.16	44076.97
557.32	44076.97
557.49	43868.66
557.65	43686.10
557.82	43608.86
557.98	43695.46
558.15	43821.85
558.32	43955.26
558.48	44095.69
558.65	43672.06
558.81	44273.57
558.98	44224.42
559.14	43810.15
559.31	43941.22
559.47	44346.13
559.64	44123.78
559.80	44795.51
559.97	44381.24
560.13	43957.60
560.30	44273.57
560.46	44282.94
560.63	44287.62
560.79	44467.84
560.96	44509.97
561.12	44449.11
561.29	44657.42
561.45	44205.70
561.61	44109.74
561.78	44037.18
561.94	44053.56
562.11	44650.40
562.27	43915.47
562.44	44519.33
562.60	44495.92
562.77	44701.89
562.93	44442.09
563.10	44238.47
563.26	44074.63
563.42	44680.83
563.59	44575.50
563.75	44629.34
563.92	44528.69
564.08	44638.70
564.24	45020.20
564.41	45228.51
564.57	44935.95
564.74	44619.97
564.90	44847.00
565.07	44414.01
565.23	44615.29
565.39	44610.61
565.56	44608.27
565.72	44531.03
565.88	44940.63
566.05	44868.07
566.21	44847.00
566.38	44706.57
566.54	44807.22
566.70	44692.53
566.87	44706.57
567.03	44907.86
567.19	45336.18
567.36	44690.19
567.52	44318.04
567.68	44931.26
567.85	44645.72
568.01	44865.73
568.17	44788.49
568.34	44980.42
568.50	44882.11
568.66	44634.02
568.83	44774.45
568.99	44959.35
569.15	44933.60
569.32	45071.70
569.48	44994.46
569.64	45219.15
569.81	44821.26
569.97	44683.17
570.13	45303.41
570.30	44512.31
570.46	44453.79
570.62	44622.31
570.78	44896.16
570.95	44561.46
571.11	45233.19
571.27	44914.88
571.43	44872.75
571.60	44896.16
571.76	45399.37
571.92	45006.16
572.09	44910.20
572.25	45045.95
572.41	44809.56
572.57	44996.80
572.74	45441.50
572.90	45141.91
573.06	44980.42
573.22	45230.85
573.38	45055.31
573.55	45155.96
573.71	44847.00
573.87	45237.87
574.03	45010.84
574.20	45249.58
574.36	44933.60
574.52	45057.65
574.68	45118.51
574.84	45205.11
575.01	45076.38
575.17	45172.34
575.33	44914.88
575.49	44746.36
575.65	45235.53
575.82	45640.45
575.98	45170.00
576.14	45577.25
576.30	45492.99
576.46	45153.62
576.62	45113.83
576.79	45151.27
576.95	44676.15
577.11	45198.09
577.27	45258.94
577.43	45310.43
577.59	45235.53
577.75	45546.82
577.92	44603.59
578.08	45186.38
578.24	44839.98
578.40	45174.68
578.56	44832.96
578.72	44891.48
578.88	45233.19
579.04	45544.48
579.21	45144.25
579.37	45118.51
579.53	44989.78
579.69	44903.18
579.85	45277.66
580.01	45633.42
580.17	45462.57
580.33	45684.92
580.49	45434.48
580.65	45347.88
580.82	45600.66
580.98	45247.24
581.14	44748.70
581.30	45490.65
581.46	46026.63
581.62	45200.43
581.78	45387.67
581.94	45715.34
582.10	45118.51
582.26	45418.10
582.42	45689.60
582.58	45090.42
582.74	45291.71
582.90	45191.06
583.06	45420.44
583.22	45928.33
583.38	45258.94
583.54	45415.76
583.70	45268.30
583.86	45488.31
584.02	44985.10
584.18	45757.47
584.34	45195.74
584.50	45713.00
584.66	45167.66
584.82	45041.27
584.98	45303.41
585.14	45408.73
585.30	45193.40
585.46	45301.07
585.62	45158.30
585.78	45205.11
585.94	44830.62
586.10	45315.11
586.26	45090.42
586.42	45649.81
586.58	45467.25
586.74	45691.94
586.90	45523.42
587.06	45221.49
587.22	45249.58
587.38	44975.73
587.54	45715.34
587.70	45642.79
587.86	45453.20
588.02	45565.55
588.18	45387.67
588.34	45357.24
588.49	45303.41
588.65	44596.57
588.81	45148.93
588.97	45696.62
589.13	44912.54
589.29	45184.04
589.45	45202.77
589.61	45710.66
589.77	45579.59
589.93	45287.03
590.08	45610.02
590.24	45495.33
590.40	45441.50
590.56	45830.03
590.72	45713.00
590.88	45736.41
591.04	45729.39
591.20	46040.68
591.35	45954.08
591.51	46260.69
591.67	45425.12
591.83	45776.20
591.99	45642.79
592.15	45340.86
592.31	45539.80
592.46	45226.17
592.62	45083.40
592.78	46192.81
592.94	45755.13
593.10	45911.95
593.26	45668.53
593.41	45457.88
593.57	45921.31
593.73	45537.46
593.89	45815.99
594.05	45134.89
594.20	45633.42
594.36	45984.51
594.52	45778.54
594.68	45792.58
594.84	45368.94
594.99	46033.66
595.15	45186.38
595.31	46087.49
595.47	45909.61
595.62	45837.05
595.78	45696.62
595.94	45933.01
596.10	45495.33
596.25	45773.86
596.41	45551.51
596.57	45404.05
596.73	45837.05
596.88	45464.91
597.04	45750.45
597.20	45888.54
597.36	46073.45
597.51	46071.10
597.67	45890.88
597.83	45729.39
597.99	46403.46
598.14	46014.93
598.30	45729.39
598.46	45806.62
598.61	46010.25
598.77	45776.20
598.93	45869.82
599.09	45888.54
599.24	45694.28
599.40	46115.58
599.56	45780.88
599.71	46134.30
599.87	45661.51
600.03	45743.43
600.18	45848.75
600.34	45628.74
600.50	45883.86
600.65	45619.38
600.81	46038.34
600.97	45715.34
601.12	46007.91
601.28	46260.69
601.44	45504.70
601.59	45551.51
601.75	45371.28
601.91	45282.34
602.06	45413.41
602.22	45626.40
602.37	45764.49
602.53	45656.83
602.69	45881.52
602.84	45312.77
603.00	45619.38
603.16	45621.72
603.31	45736.41
603.47	45605.34
603.62	45132.55
603.78	45778.54
603.94	45923.65
604.09	45991.53
604.25	45743.43
604.40	45668.53
604.56	45731.73
604.71	45778.54
604.87	45539.80
605.03	45862.80
605.18	45687.26
605.34	45661.51
605.49	45528.10
605.65	45902.59
605.80	45839.39
605.96	45984.51
606.12	45673.21
606.27	45834.71
606.43	45134.89
606.58	45338.52
606.74	45205.11
606.89	45649.81
607.05	45804.28
607.20	45530.44
607.36	45184.04
607.51	46174.09
607.67	45727.05
607.82	45640.45
607.98	45420.44
608.13	45586.61
608.29	45132.55
608.44	45088.08
608.60	44823.60
608.75	45198.09
608.91	44924.24
609.06	44896.16
609.22	45237.87
609.37	45020.20
609.53	44971.05
609.68	45647.47
609.84	45336.18
609.99	45322.13
610.15	45085.74
610.30	45242.56
610.46	44933.60
610.61	45216.81
610.76	44971.05
610.92	44921.90
611.07	44985.10
611.23	44863.39
611.38	44938.29
611.54	45102.12
611.69	44999.14
611.84	45109.14
612.00	44893.82
612.15	44655.08
612.31	45081.06
612.46	44975.73
612.62	44683.17
612.77	44699.55
612.92	44971.05
613.08	44919.56
613.23	44559.12
613.39	44727.64
613.54	44306.34
613.69	44568.48
613.85	44091.01
614.00	44678.49
614.15	45162.98
614.31	44662.10
614.46	45102.12
614.62	44715.93
614.77	44751.04
614.92	44545.08
615.08	44488.90
615.23	44428.05
615.38	44453.79
615.54	44584.86
615.69	44552.10
615.84	44406.98
616.00	44428.05
616.15	44449.11
616.30	44741.68
616.46	44240.81
616.61	44051.22
616.76	44257.19
616.92	44147.18
617.07	44399.96
617.22	44322.72
617.37	43742.27
617.53	44392.94
617.68	44402.30
617.83	44591.89
617.99	44573.16
618.14	44357.83
618.29	44165.91
618.45	43882.70
618.60	43835.89
618.75	44072.29
618.90	44060.58
619.06	44367.20
619.21	44076.97
619.36	43899.09
619.51	43723.55
619.67	44006.75
619.82	44013.77
619.97	44184.63
620.12	43662.69
620.28	43466.09
620.43	44296.98
620.58	43700.14
620.73	43681.42
620.89	43346.72
621.04	44002.07
621.19	43522.26
621.34	43746.95
621.49	43117.35
621.65	43480.13
621.80	43679.08
621.95	43056.50
622.10	43583.12
622.25	43688.44
622.41	43775.04
622.56	43166.50
622.71	43681.42
622.86	43484.81
623.01	43562.05
623.16	43438.00
623.32	43812.49
623.47	43636.95
623.62	43810.15
623.77	42925.42
623.92	43217.99
624.07	43012.02
624.23	43065.86
624.38	42920.74
624.53	42887.98
624.68	43246.08
624.83	43320.98
624.98	42887.98
625.13	42740.52
625.29	43063.52
625.44	43199.27
625.59	42986.28
625.74	42469.02
625.89	42625.84
626.04	42616.47
626.19	42845.85
626.34	43016.71
626.49	42553.28
626.65	42803.72
626.80	42628.18
626.95	42307.52
627.10	42909.04
627.25	42373.06
627.40	42454.98
627.55	42160.07
627.70	42061.77
627.85	42099.22
628.00	41787.92
628.15	42614.13
628.30	42096.88
628.45	42564.98
628.60	42590.73
628.76	42038.36
628.91	42726.48
629.06	42384.76
629.21	42396.46
629.36	42382.42
629.51	42000.91
629.66	41883.89
629.81	41853.46
629.96	42314.55
630.11	42115.60
630.26	42066.45
630.41	42213.90
630.56	42024.32
630.71	41642.81
630.86	42061.77
631.01	41776.22
631.16	42141.35
631.31	41467.27
631.46	41118.53
631.61	41542.17
631.76	42206.88
631.91	41911.97
632.06	41900.27
632.21	41797.29
632.36	41890.91
632.51	41818.35
632.66	41361.95
632.81	41319.82
632.96	41546.85
633.10	41584.30
633.25	41085.76
633.40	41464.93
633.55	41787.92
633.70	41308.11
633.85	41392.37
634.00	42014.96
634.15	41411.10
634.30	40999.16
634.45	41244.92
634.60	40982.78
634.75	41521.10
634.90	41027.25
635.05	41165.34
635.19	41495.36
635.34	41619.41
635.49	41153.64
635.64	41003.85
635.79	40924.27
635.94	40945.33
636.09	41202.79
636.24	40931.29
636.39	40498.29
636.53	40601.27
636.68	40598.93
636.83	41029.59
636.98	41212.15
637.13	40512.33
637.28	40727.66
637.43	40666.81
637.57	41177.04
637.72	41193.43
637.87	40507.65
638.02	41003.85
638.17	40622.34
638.32	40149.55
638.46	40088.70
638.61	40622.34
638.76	39997.41
638.91	40395.31
639.06	40421.05
639.20	40266.58
639.35	40481.91
639.50	40367.22
639.65	40676.17
639.80	40638.72
639.94	40210.40
640.09	40416.37
640.24	40491.27
640.39	40701.92
640.54	40226.79
640.68	40048.91
640.83	40456.16
640.98	40058.27
641.13	40201.04
641.27	40556.80
641.42	39948.26
641.57	40032.52
641.72	40411.69
641.86	39873.37
642.01	39924.86
642.16	40072.31
642.31	39775.06
642.45	40100.40
642.60	39454.41
642.75	40065.29
642.90	39894.43
643.04	39531.65
643.19	39576.12
643.34	40058.27
643.48	39604.20
643.63	39966.99
643.78	39587.82
643.93	39398.24
644.07	39274.19
644.22	39210.99
644.37	39175.89
644.51	39005.03
644.66	39346.75
644.81	39641.65
644.95	39662.72
645.10	39433.35
645.25	39782.09
645.39	39505.90
645.54	39693.15
645.69	39269.51
645.83	38965.24
645.98	39234.40
646.13	39672.08
646.27	39246.10
646.42	39489.52
646.57	39316.32
646.71	39529.31
646.86	39407.60
647.00	39557.39
647.15	39412.28
647.30	39494.20
647.44	38944.17
647.59	38925.45
647.74	38855.23
647.88	38560.33
648.03	38438.62
648.17	38698.42
648.32	39189.93
648.47	38094.56
648.61	38291.16
648.76	38628.20
648.90	38827.15
649.05	38492.45
649.20	38883.32
649.34	38738.21
649.49	39145.46
649.63	38827.15
649.78	38588.41
649.92	38960.56
650.07	38932.47
650.21	38354.36
650.36	38614.16
650.51	38391.81
650.65	38597.77
650.80	39328.02
650.94	38396.49
651.09	38616.50
651.23	38326.27
651.38	38401.17
651.52	38478.41
651.67	38227.97
651.81	38405.85
651.96	38148.39
652.10	38295.85
652.25	38115.62
652.39	37923.70
652.54	38707.78
652.68	38274.78
652.83	38506.49
652.97	38382.45
653.12	37890.93
653.26	38197.54
653.41	38249.03
653.55	38611.82
653.70	38340.32
653.84	38000.94
653.99	38253.72
654.13	38330.95
654.27	38010.30
654.42	38075.84
654.56	38089.88
654.71	38000.94
654.85	38092.22
655.00	37713.05
655.14	37415.80
655.29	37598.37
655.43	37289.42
655.57	37457.93
655.72	37181.75
655.86	37563.26
656.01	37249.63
656.15	37191.11
656.30	37179.41
656.44	37184.09
656.58	37336.23
656.73	37071.75
656.87	37022.59
657.01	37067.06
657.16	37434.53
657.30	36966.42
657.45	36704.28
657.59	37099.83
657.73	36987.49
657.88	37394.74
658.02	37006.21
658.16	37046.00
658.31	37212.18
658.45	37371.33
658.60	36907.91
658.74	36842.37
658.88	37420.48
659.03	36919.61
659.17	36851.73
659.31	36725.35
659.46	36479.59
659.60	36334.48
659.74	36758.11
659.89	36685.56
660.03	36598.96
660.17	36322.77
660.32	36561.51
660.46	36339.16
660.60	36879.82
660.74	36580.23
660.89	36547.47
661.03	36444.48
661.17	36116.81
661.32	35924.88
661.46	35679.13
661.60	35564.44
661.74	35882.75
661.89	35910.84
662.03	36456.18
662.17	36002.12
662.31	35852.33
662.46	35737.64
662.60	36053.61
662.74	36020.84
662.88	35683.81
663.03	35857.01
663.17	35824.24
663.31	35161.87
663.45	35580.82
663.60	35129.10
663.74	35248.47
663.88	35086.97
664.02	34955.90
664.17	35302.30
664.31	34965.26
664.45	35377.20
664.59	34855.26
664.73	35058.88
664.88	35126.76
665.02	34387.15
665.16	35002.71
665.30	35101.01
665.44	35079.95
665.59	34359.06
665.73	34031.39
665.87	34511.20
666.01	34651.63
666.15	34258.42
666.29	34504.18
666.44	34707.80
666.58	34508.86
666.72	34171.82
666.86	34593.12
667.00	34719.51
667.14	34532.26
667.28	34291.19
667.43	34003.30
667.57	33804.36
667.71	34115.65
667.85	33574.98
667.99	33830.10
668.13	33717.76
668.27	33816.06
668.41	33642.86
668.56	33589.03
668.70	33673.29
668.84	33797.34
668.98	33488.38
669.12	33464.98
669.26	33366.68
669.40	33516.47
669.54	33420.51
669.68	33305.82
669.82	33544.56
669.96	33207.52
670.10	33139.65
670.25	33523.49
670.39	33235.61
670.53	33027.30
670.67	32870.48
670.81	33069.43
670.95	32973.47
671.09	32980.49
671.23	33261.35
671.37	32575.58
671.51	32837.72
671.65	32046.62
671.79	32112.15
671.93	32212.79
672.07	32512.38
672.21	32706.65
672.35	32271.31
672.49	31995.12
672.63	32606.00
672.77	32032.57
672.91	32292.37
673.05	32378.97
673.19	31960.02
673.33	31737.66
673.47	31548.08
673.61	31356.16
673.75	31578.51
673.89	31627.66
674.03	31468.50
674.17	31384.24
674.31	31344.45
674.45	31143.17
674.59	31395.95
674.73	31332.75
674.87	31082.31
675.01	30984.01
675.15	30902.09
675.29	31035.50
675.43	30958.27
675.56	30890.39
675.70	30792.09
675.84	30565.06
675.98	29521.18
676.12	30403.56
676.26	30242.06
676.40	30078.22
676.54	29991.62
676.68	30115.67
676.82	30108.65
676.96	29731.83
677.10	29982.26
677.23	29432.24
677.37	29757.57
677.51	29921.41
677.65	29502.45
677.79	29457.98
677.93	29165.42
678.07	29326.91
678.21	29041.37
678.34	28903.28
678.48	28863.49
678.62	28772.21
678.76	28591.98
678.90	28795.61
679.04	28561.56
679.18	28680.92
679.31	28039.62
679.45	28481.98
679.59	27854.72
679.73	28261.97
679.87	27950.68
680.00	28121.54
680.14	28009.19
680.28	27374.91
680.42	27828.97
680.56	27768.12
680.70	27995.15
680.83	27496.61
680.97	27501.29
681.11	27243.84
681.25	27042.55
681.39	27267.24
681.52	27470.87
681.66	26792.11
681.80	27150.21
681.94	26448.05
682.07	26745.30
682.21	26810.84
682.35	26497.20
682.49	26621.25
682.62	26424.65
682.76	26370.82
682.90	26040.80
683.04	25766.96
683.17	26553.38
683.31	25720.15
683.45	26071.23
683.59	25902.71
683.72	25722.49
683.86	25579.71
684.00	25486.09
684.13	25504.82
684.27	25500.14
684.41	25422.90
684.55	25289.49
684.68	25221.61
684.82	25193.53
684.96	25111.61
685.09	24856.49
685.23	24870.53
685.37	24720.74
685.50	24622.44
685.64	24608.39
685.78	24046.66
685.91	24332.21
686.05	24280.72
686.19	23843.04
686.32	24290.08
686.46	24032.62
686.60	23498.98
686.73	23651.11
686.87	23831.33
687.01	23674.52
687.14	23248.54
687.28	23475.57
687.42	23234.50
687.55	23185.35
687.69	23239.18
687.82	23007.47
687.96	23040.23
688.10	22780.43
688.23	22733.62
688.37	22419.99
688.50	22305.31
688.64	22497.23
688.78	22349.78
688.91	22258.49
689.05	21972.95
689.18	22387.22
689.32	21905.07
689.46	22139.13
689.59	22342.75
689.73	22321.69
689.86	21764.64
690.00	21764.64
690.13	21862.94
690.27	21912.10
690.41	21233.34
690.54	21223.98
690.68	21425.26
690.81	21348.03
690.95	21324.62
691.08	21113.97
691.22	21156.10
691.35	21549.31
691.49	21451.01
691.62	21156.10
691.76	20912.69
691.89	20798.00
692.03	20706.72
692.16	20475.01
692.30	20580.33
692.43	20135.63
692.57	20098.18
692.70	20180.10
692.84	20116.90
692.97	19810.29
693.11	19672.20
693.24	19552.84
693.38	19913.28
693.51	19946.05
693.65	19906.26
693.78	19824.34
693.92	19501.34
694.05	19756.46
694.19	19243.88
694.32	19405.38
694.45	18960.68
694.59	19232.18
694.72	18869.40
694.86	19084.73
694.99	18890.46
695.13	18836.63
695.26	18785.14
695.39	18501.93
695.53	18541.72
695.66	18288.95
695.80	18562.79
695.93	18340.44
696.07	18078.30
696.20	18122.77
696.33	18284.26
696.47	17633.60
696.60	18087.66
696.73	17970.63
696.87	17767.01
697.00	18064.25
697.14	17689.77
697.27	17811.48
697.40	17902.76
697.54	17912.12
697.67	17518.91
697.80	17495.50
697.94	17132.72
698.07	17209.96
698.21	17188.89
698.34	17184.21
698.47	17142.08
698.61	16688.02
698.74	16830.79
698.87	16767.60
699.01	17001.65
699.14	16606.10
699.27	16702.06
699.40	16673.98
699.54	16582.70
699.67	16231.62
699.80	16121.61
699.94	15864.15
700.07	16135.65
700.20	15922.66
700.34	15969.48
700.47	15683.93
700.60	15838.41
700.73	16100.55
700.87	15775.21
701.00	15566.90
701.13	15412.43
701.26	15639.46
701.40	15508.39
701.53	15515.41
701.66	15304.76
701.79	15475.62
701.93	15082.41
702.06	15161.99
702.19	15073.05
702.32	15166.67
702.46	14792.19
702.59	14883.47
702.72	14771.12
702.85	14808.57
702.99	14710.27
703.12	14899.85
703.25	14752.40
703.38	14546.43
703.51	14607.28
703.65	14183.65
703.78	14342.80
703.91	13991.72
704.04	14375.57
704.17	13872.36
704.31	14061.94
704.44	14092.37
704.57	13748.31
704.70	13750.65
704.83	13516.59
704.96	13668.73
705.10	13598.51
705.23	13710.86
>>>>>End Processed Spectral Data<<<<<
