SpectraSuite Data File
++++++++++++++++++++++++++++++++++++
Date: Fri Oct 25 10:44:48 EDT 2013
User: price-jones
Dark Spectrum Present: No
Reference Spectrum Present: No
Number of Sampled Component Spectra: 1
Spectrometers: USB2+H05261
Integration Time (usec): 100000 (USB2+H05261)
Spectra Averaged: 1 (USB2+H05261)
Boxcar Smoothing: 0 (USB2+H05261)
Correct for Electrical Dark: No (USB2+H05261)
Strobe/Lamp Enabled: No (USB2+H05261)
Correct for Detector Non-linearity: No (USB2+H05261)
Correct for Stray Light: No (USB2+H05261)
Number of Pixels in Processed Spectrum: 2048
>>>>>Begin Processed Spectral Data<<<<<
365.73	114.69
365.92	114.69
366.12	114.69
366.32	9.36
366.52	7.02
366.72	58.51
366.91	23.41
367.11	42.13
367.31	49.15
367.51	60.85
367.70	23.41
367.90	2.34
368.10	35.11
368.30	79.58
368.49	72.56
368.69	86.60
368.89	124.05
369.09	4.68
369.28	46.81
369.48	30.43
369.68	46.81
369.87	84.26
370.07	46.81
370.27	145.11
370.47	212.99
370.66	395.55
370.86	409.59
371.06	395.55
371.25	407.25
371.45	416.62
371.65	463.43
371.84	437.68
372.04	463.43
372.24	444.70
372.44	505.56
372.63	500.87
372.83	510.24
373.03	512.58
373.22	472.79
373.42	524.28
373.62	596.84
373.81	491.51
374.01	535.98
374.21	566.41
374.40	440.02
374.60	533.64
374.79	550.03
374.99	559.39
375.19	589.82
375.38	554.71
375.58	653.01
375.78	594.50
375.97	580.45
376.17	615.56
376.37	601.52
376.56	533.64
376.76	540.66
376.95	636.63
377.15	594.50
377.35	519.60
377.54	596.84
377.74	643.65
377.93	596.84
378.13	606.20
378.33	589.82
378.52	622.58
378.72	653.01
378.91	566.41
379.11	554.71
379.31	512.58
379.50	582.79
379.70	655.35
379.89	566.41
380.09	578.11
380.28	650.67
380.48	594.50
380.68	580.45
380.87	631.94
381.07	678.76
381.26	596.84
381.46	669.39
381.65	594.50
381.85	709.18
382.04	552.37
382.24	704.50
382.43	657.69
382.63	643.65
382.83	662.37
383.02	711.52
383.22	650.67
383.41	669.39
383.61	587.47
383.80	730.25
384.00	662.37
384.19	763.01
384.39	802.80
384.58	655.35
384.78	709.18
384.97	716.20
385.17	709.18
385.36	795.78
385.56	741.95
385.75	727.91
385.95	779.40
386.14	784.08
386.34	866.00
386.53	837.91
386.72	748.97
386.92	802.80
387.11	840.25
387.31	772.38
387.50	784.08
387.70	765.36
387.89	826.21
388.09	788.76
388.28	770.04
388.48	903.45
388.67	868.34
388.86	779.40
389.06	798.12
389.25	924.51
389.45	959.62
389.64	861.32
389.84	959.62
390.03	945.58
390.22	917.49
390.42	1034.52
390.61	917.49
390.81	851.96
391.00	926.85
391.19	971.32
391.39	922.17
391.58	1001.75
391.78	952.60
391.97	940.90
392.16	919.83
392.36	992.39
392.55	929.19
392.75	856.64
392.94	931.53
393.13	964.30
393.33	945.58
393.52	976.00
393.71	1027.50
393.91	1004.09
394.10	1048.56
394.29	1062.60
394.49	1067.28
394.68	1086.01
394.88	1132.82
395.07	1165.59
395.26	1116.44
395.46	1074.31
395.65	1074.31
395.84	1074.31
396.04	1093.03
396.23	1081.33
396.42	1067.28
396.62	1067.28
396.81	1163.25
397.00	1128.14
397.19	1076.65
397.39	1170.27
397.58	1188.99
397.77	1219.42
397.97	1282.61
398.16	1306.02
398.35	1172.61
398.55	1247.51
398.74	1301.34
398.93	1343.47
399.12	1315.38
399.32	1359.85
399.51	1329.42
399.70	1383.26
399.90	1289.64
400.09	1493.26
400.28	1413.68
400.47	1437.09
400.67	1474.54
400.86	1437.09
401.05	1401.98
401.24	1432.41
401.44	1500.28
401.63	1486.24
401.82	1493.26
402.01	1469.86
402.21	1643.06
402.40	1486.24
402.59	1448.79
402.78	1523.69
402.97	1521.35
403.17	1556.46
403.36	1490.92
403.55	1603.27
403.74	1593.90
403.93	1610.29
404.13	1732.00
404.32	1614.97
404.51	1638.38
404.70	1739.02
404.89	1743.70
405.09	1708.59
405.28	1699.23
405.47	1699.23
405.66	1844.34
405.85	1858.39
406.05	1743.70
406.24	1696.89
406.43	1769.44
406.62	1830.30
406.81	1928.60
407.00	1902.86
407.20	1764.76
407.39	1849.02
407.58	1867.75
407.77	2076.06
407.96	2019.88
408.15	1811.57
408.34	2026.90
408.54	2062.01
408.73	1984.77
408.92	2003.50
409.11	2022.22
409.30	2024.56
409.49	2019.88
409.68	2146.27
409.87	2092.44
410.07	2092.44
410.26	2115.84
410.45	2136.91
410.64	2024.56
410.83	2134.57
411.02	2225.85
411.21	2319.47
411.40	2260.96
411.59	2298.41
411.78	2251.60
411.98	2251.60
412.17	2331.17
412.36	2382.67
412.55	2363.94
412.74	2457.56
412.93	2389.69
413.12	2363.94
413.31	2574.59
413.50	2370.96
413.69	2452.88
413.88	2590.97
414.07	2597.99
414.26	2649.49
414.45	2630.76
414.64	2651.83
414.83	2656.51
415.02	2745.45
415.22	2808.64
415.41	2895.24
415.60	2815.66
415.79	2970.14
415.98	2759.49
416.17	2951.42
416.36	2836.73
416.55	2747.79
416.74	3045.04
416.93	2876.52
417.12	2911.63
417.31	2932.69
417.50	2967.80
417.69	3143.34
417.88	3136.32
418.07	3084.83
418.26	3126.96
418.45	3155.04
418.64	3346.97
418.83	3213.56
419.02	3171.43
419.21	3080.14
419.39	3293.13
419.58	3066.10
419.77	3122.27
419.96	3265.05
420.15	3426.54
420.34	3215.90
420.53	3314.20
420.72	3379.73
420.91	3311.86
421.10	3463.99
421.29	3508.46
421.48	3442.93
421.67	3438.25
421.86	3328.24
422.05	3407.82
422.24	3414.84
422.43	3552.93
422.61	3417.18
422.80	3552.93
422.99	3398.46
423.18	3513.14
423.37	3414.84
423.56	3632.51
423.75	3604.42
423.94	3503.78
424.13	3211.22
424.32	3419.52
424.50	3475.70
424.69	3538.89
424.88	3641.87
425.07	3630.17
425.26	3403.14
425.45	3566.98
425.64	3473.36
425.83	3723.79
426.01	3637.19
426.20	3578.68
426.39	3700.39
426.58	3611.45
426.77	3527.19
426.96	3674.64
427.15	3541.23
427.33	3768.26
427.52	3779.97
427.71	3836.14
427.90	3763.58
428.09	3716.77
428.28	3770.60
428.46	3777.62
428.65	3845.50
428.84	3871.25
429.03	3864.22
429.22	3712.09
429.40	3756.56
429.59	3866.56
429.78	3667.62
429.97	3639.53
430.16	3658.26
430.34	3801.03
430.53	3822.09
430.72	3794.01
430.91	3887.63
431.10	3906.35
431.28	4093.60
431.47	4163.81
431.66	4191.90
431.85	3967.21
432.03	4203.60
432.22	4222.33
432.41	4126.36
432.60	4271.48
432.79	4290.20
432.97	4212.96
433.16	4379.14
433.35	4107.64
433.54	4308.93
433.72	4344.03
433.91	4140.41
434.10	4414.25
434.28	4451.70
434.47	4432.97
434.66	4451.70
434.85	4514.89
435.03	4411.91
435.22	4477.44
435.41	4589.79
435.59	4521.92
435.78	4477.44
435.97	4575.75
436.16	4627.24
436.34	4624.90
436.53	4667.03
436.72	4816.82
436.90	4575.75
437.09	4636.60
437.28	4531.28
437.46	4643.62
437.65	4608.51
437.84	4748.95
438.02	4699.80
438.21	4650.64
438.40	4760.65
438.58	4929.17
438.77	4877.68
438.96	4959.60
439.14	5008.75
439.33	4990.02
439.52	4985.34
439.70	4980.66
439.89	5074.28
440.08	5252.16
440.26	5130.45
440.45	5198.33
440.63	5238.12
440.82	5563.45
441.01	5359.83
441.19	5469.83
441.38	5469.83
441.57	5518.98
441.75	5540.05
441.94	5626.65
442.12	5607.92
442.31	5743.67
442.50	5680.48
442.68	5710.91
442.87	5591.54
443.05	5870.06
443.24	5825.59
443.43	5823.25
443.61	5802.19
443.80	5930.92
443.98	5724.95
444.17	5490.90
444.35	5804.53
444.54	5879.43
444.73	5891.13
444.91	5792.83
445.10	5839.64
445.28	5820.91
445.47	5785.80
445.65	5813.89
445.84	5818.57
446.02	5996.45
446.21	6066.67
446.39	5923.90
446.58	5980.07
446.77	5970.71
446.95	5968.37
447.14	6076.03
447.32	5989.43
447.51	5867.72
447.69	6094.76
447.88	6164.97
448.06	6029.22
448.25	6118.16
448.43	6043.26
448.62	6043.26
448.80	5982.41
448.99	6146.25
449.17	6216.46
449.36	6258.59
449.54	6324.13
449.73	6207.10
449.91	6321.79
450.10	6483.28
450.28	6342.85
450.46	6523.07
450.65	6483.28
450.83	6483.28
451.02	6448.18
451.20	6291.36
451.39	6527.75
451.57	6415.41
451.76	6417.75
451.94	6520.73
452.13	6621.38
452.31	6403.71
452.49	6342.85
452.68	6492.65
452.86	6441.15
453.05	6644.78
453.23	6691.59
453.42	6630.74
453.60	6656.48
453.78	6614.35
453.97	6675.21
454.15	6640.10
454.34	6576.91
454.52	6871.81
454.70	6644.78
454.89	6782.87
455.07	6698.61
455.26	6993.52
455.44	6862.45
455.62	6862.45
455.81	7054.37
455.99	6937.35
456.17	6937.35
456.36	6967.77
456.54	6925.65
456.73	7082.46
456.91	7356.30
457.09	7218.21
457.28	7433.54
457.46	7204.17
457.64	7311.83
457.83	7293.11
458.01	7225.23
458.19	7545.89
458.38	7346.94
458.56	7459.29
458.74	7719.09
458.93	7435.88
459.11	7328.22
459.29	7424.18
459.48	7470.99
459.66	7456.95
459.84	7492.05
460.03	7719.09
460.21	7698.02
460.39	7754.19
460.57	7700.36
460.76	7688.66
460.94	7808.03
461.12	7716.75
461.31	7793.98
461.49	7751.85
461.67	7693.34
461.85	8009.31
462.04	7950.80
462.22	7925.05
462.40	7866.54
462.59	8145.06
462.77	7971.86
462.95	8065.49
463.13	8004.63
463.32	8079.53
463.50	8107.62
463.68	8168.47
463.86	8159.11
464.05	8077.19
464.23	7964.84
464.41	8226.98
464.59	8053.78
464.78	8395.50
464.96	8205.92
465.14	8250.39
465.32	8299.54
465.50	8468.06
465.69	8358.05
465.87	8248.05
466.05	8374.44
466.23	8245.71
466.41	8241.03
466.60	8587.43
466.78	8430.61
466.96	8416.57
467.14	8456.36
467.32	8505.51
467.51	8486.78
467.69	8557.00
467.87	8395.50
468.05	8657.64
468.23	8521.89
468.41	8559.34
468.60	8835.52
468.78	9004.04
468.96	8704.45
469.14	8809.78
469.32	8990.00
469.50	8664.66
469.69	8840.20
469.87	8933.82
470.05	8990.00
470.23	8929.14
470.41	9083.62
470.59	9128.09
470.77	8943.19
470.95	8915.10
471.14	9069.58
471.32	8809.78
471.50	9322.35
471.68	9308.31
471.86	9282.56
472.04	9533.00
472.22	9645.35
472.40	9273.20
472.58	9635.99
472.77	9568.11
472.95	9598.54
473.13	9881.74
473.31	9502.58
473.49	9486.19
473.67	9554.07
473.85	9886.42
474.03	9977.70
474.21	10038.56
474.39	10188.35
474.57	10024.51
474.75	10052.60
474.93	10368.57
475.12	10188.35
475.30	10064.30
475.48	10108.77
475.66	10141.54
475.84	10260.91
476.02	10459.85
476.20	10370.91
476.38	10724.33
476.56	10789.87
476.74	10731.36
476.92	10778.17
477.10	10867.11
477.28	10958.39
477.46	11016.90
477.64	11084.78
477.82	11119.89
478.00	11618.42
478.18	11644.17
478.36	11424.15
478.54	11616.08
478.72	11571.61
478.90	11702.68
479.08	12016.31
479.26	11857.15
479.44	11838.43
479.62	11997.59
479.80	12308.88
479.98	12154.40
480.16	12383.77
480.34	12329.94
480.52	12507.82
480.70	12910.40
480.88	12393.14
481.06	12886.99
481.24	12716.13
481.41	12671.66
481.59	13055.51
481.77	13200.62
481.95	13315.31
482.13	13303.60
482.31	13266.16
482.49	13593.83
482.67	13682.77
482.85	13699.16
483.03	13743.63
483.21	13853.63
483.39	14106.41
483.57	14040.87
483.74	14167.26
483.92	14436.42
484.10	14092.37
484.28	14766.44
484.46	14913.89
484.64	15133.90
484.82	14857.72
485.00	14778.14
485.18	15218.16
485.35	15459.24
485.53	14918.57
485.71	15044.96
485.89	15204.12
486.07	15484.98
486.25	15487.32
486.43	15590.31
486.61	15543.50
486.78	16236.30
486.96	15847.77
487.14	16226.93
487.32	16290.13
487.50	16444.60
487.68	16833.13
487.85	16833.13
488.03	16980.59
488.21	17240.39
488.39	16805.05
488.57	17046.12
488.75	17326.99
488.92	17465.08
489.10	17848.93
489.28	17898.08
489.46	18235.11
489.64	17972.97
489.81	18473.85
489.99	18480.87
490.17	18576.83
490.35	18735.99
490.53	18403.63
490.70	18787.48
490.88	19173.67
491.06	18923.23
491.24	19042.60
491.41	18787.48
491.59	19082.39
491.77	19152.60
491.95	19749.44
492.13	19676.88
492.30	19779.87
492.48	19964.77
492.66	20226.91
492.84	19742.42
493.01	20264.36
493.19	20334.57
493.37	20542.88
493.54	20238.61
493.72	20648.21
493.90	20648.21
494.08	21160.78
494.25	21315.26
494.43	21350.37
494.61	21472.07
494.79	21502.50
494.96	21724.85
495.14	21722.51
495.32	21788.05
495.49	21731.87
495.67	21816.13
495.85	22108.70
496.02	22338.07
496.20	22581.49
496.38	22438.72
496.55	22239.77
496.73	23159.60
496.91	22705.54
497.09	23044.91
497.26	23552.81
497.44	23147.90
497.62	23307.05
497.79	23573.88
497.97	23187.69
498.14	23641.75
498.32	23667.50
498.50	23726.01
498.67	24194.12
498.85	23924.96
499.03	24350.93
499.20	24414.13
499.38	24219.86
499.56	24041.98
499.73	24650.52
499.91	24741.80
500.08	24315.83
500.26	24542.86
500.44	24463.28
500.61	24737.12
500.79	24697.33
500.97	25125.65
501.14	24926.71
501.32	25165.44
501.49	25303.53
501.67	25139.69
501.84	25624.18
502.02	25530.56
502.20	25544.61
502.37	25832.49
502.55	25942.50
502.72	26195.28
502.90	26157.83
503.07	25797.38
503.25	26185.91
503.43	26195.28
503.60	26066.55
503.78	26031.44
503.95	26340.39
504.13	26623.59
504.30	26567.42
504.48	26677.43
504.65	26993.40
504.83	26782.75
505.01	26661.04
505.18	27192.34
505.36	27318.73
505.53	27042.55
505.71	27571.51
505.88	27328.10
506.06	27145.53
506.23	27393.63
506.41	27520.02
506.58	27587.89
506.76	28142.60
506.93	28142.60
507.11	28170.69
507.28	27693.22
507.46	27630.02
507.63	27906.21
507.81	28203.46
507.98	28016.21
508.16	28222.18
508.33	28407.08
508.50	28641.14
508.68	28828.38
508.85	28666.88
509.03	28999.24
509.20	29043.71
509.38	29146.69
509.55	28980.51
509.73	29385.43
509.90	29380.74
510.08	29191.16
510.25	29680.33
510.42	29322.23
510.60	29556.28
510.77	29666.29
510.95	29647.57
511.12	29610.12
511.30	29886.30
511.47	30033.75
511.64	30134.40
511.82	30424.62
511.99	29895.66
512.17	29926.09
512.34	30050.14
512.51	30572.08
512.69	30352.07
512.86	30419.94
513.04	30628.25
513.21	30829.54
513.38	30459.73
513.56	30724.21
513.73	30614.21
513.90	30895.07
514.08	30976.99
514.25	30799.11
514.43	30995.71
514.60	31161.89
514.77	30988.69
514.95	31527.02
515.12	31070.61
515.29	31564.46
515.47	31627.66
515.64	31768.09
515.81	31395.95
515.99	31620.64
516.16	31639.36
516.33	31482.55
516.51	31941.29
516.68	31576.17
516.85	31842.99
517.03	31625.32
517.20	31997.46
517.37	31793.84
517.54	32325.14
517.72	32203.43
517.89	31988.10
518.06	32208.11
518.24	32500.68
518.41	32229.18
518.58	32664.52
518.75	32481.95
518.93	32790.91
519.10	32699.62
519.27	32985.17
519.45	32814.31
519.62	32896.23
519.79	33188.80
519.96	33221.56
520.14	33223.90
520.31	33256.67
520.48	33586.69
520.65	33193.48
520.83	33586.69
521.00	33858.19
521.17	33490.73
521.34	33933.09
521.52	33860.53
521.69	33989.26
521.86	34022.03
522.03	34071.18
522.20	34263.10
522.38	34061.82
522.55	34436.30
522.72	34302.89
522.89	34342.68
523.07	34536.94
523.24	34167.14
523.41	34785.04
523.58	34974.63
523.75	34904.41
523.92	35634.66
524.10	35211.02
524.27	35351.45
524.44	35054.20
524.61	35204.00
524.78	35222.72
524.96	34916.11
525.13	35473.16
525.30	35681.47
525.47	35693.17
525.64	35587.85
525.81	35735.30
525.98	35522.31
526.16	35323.36
526.33	34944.20
526.50	35758.70
526.67	35150.17
526.84	35592.53
527.01	35342.09
527.18	35679.13
527.36	35908.50
527.53	36348.52
527.70	36060.63
527.87	36304.05
528.04	36032.55
528.21	36067.66
528.38	36210.43
528.55	36510.02
528.72	36421.08
528.89	36638.75
529.07	36545.12
529.24	36744.07
529.41	36414.05
529.58	36664.49
529.75	36706.62
529.92	36505.34
530.09	36821.31
530.26	36835.35
530.43	36959.40
530.60	37221.54
530.77	37160.69
530.94	36795.56
531.11	36975.78
531.28	37043.66
531.46	37425.17
531.63	36830.67
531.80	37177.07
531.97	37537.51
532.14	37331.54
532.31	37095.15
532.48	37219.20
532.65	37621.77
532.82	37446.23
532.99	37827.74
533.16	37474.32
533.33	37933.06
533.50	37897.95
533.67	37780.93
533.84	37736.46
534.01	37930.72
534.18	37708.37
534.35	38284.14
534.52	38169.46
534.69	37876.89
534.86	38536.92
535.03	37979.87
535.20	38328.61
535.37	38621.18
535.54	38806.08
535.71	38333.29
535.88	38181.16
536.05	38401.17
536.22	38342.66
536.38	38719.48
536.55	38150.73
536.72	38576.71
536.89	38813.10
537.06	38815.44
537.23	38763.95
537.40	38576.71
537.57	38742.89
537.74	39173.55
537.91	38990.98
538.08	39096.31
538.25	38508.83
538.42	39012.05
538.59	38937.15
538.75	38822.47
538.92	39063.54
539.09	38979.28
539.26	39157.16
539.43	39690.80
539.60	39100.99
539.77	38930.13
539.94	39189.93
540.11	39145.46
540.28	39669.74
540.44	39594.84
540.61	39477.82
540.78	39548.03
540.95	39323.34
541.12	39512.92
541.29	39922.52
541.46	39690.80
541.62	39590.16
541.79	39920.18
541.96	39709.53
542.13	39512.92
542.30	39386.54
542.47	39938.90
542.63	39885.07
542.80	40013.80
542.97	40739.36
543.14	40299.34
543.31	40182.32
543.48	40603.61
543.64	40896.18
543.81	40631.70
543.98	40273.60
544.15	40458.50
544.32	40840.01
544.48	40828.30
544.65	41528.13
544.82	40879.80
544.99	40416.37
545.16	40680.85
545.32	40900.86
545.49	40982.78
545.66	41057.68
545.83	40854.05
546.00	41322.16
546.16	40985.12
546.33	40718.30
546.50	40629.36
546.67	41329.18
546.83	40591.91
547.00	41170.02
547.17	40975.76
547.34	41139.60
547.50	41055.34
547.67	41588.98
547.84	41193.43
548.00	41806.65
548.17	41734.09
548.34	41645.15
548.51	41392.37
548.67	41846.44
548.84	41933.04
549.01	41724.73
549.18	41961.12
549.34	41675.58
549.51	41614.72
549.68	42092.19
549.84	41841.76
550.01	42038.36
550.18	41923.68
550.34	41743.45
550.51	41916.65
550.68	41888.57
550.84	41691.96
551.01	41846.44
551.18	42169.43
551.34	42007.94
551.51	42431.57
551.68	42169.43
551.84	41918.99
552.01	42108.58
552.18	42450.30
552.34	41888.57
552.51	42387.10
552.68	42405.83
552.84	42494.77
553.01	42632.86
553.18	42408.17
553.34	42792.01
553.51	42410.51
553.67	42665.63
553.84	42618.81
554.01	42508.81
554.17	42852.87
554.34	42642.22
554.51	42595.41
554.67	42920.74
554.84	42431.57
555.00	42850.53
555.17	42682.01
555.33	42614.13
555.50	42543.92
555.67	42630.52
555.83	43213.31
556.00	43140.75
556.16	43012.02
556.33	42883.30
556.50	42993.30
556.66	43222.67
556.83	42857.55
556.99	43306.93
557.16	43054.15
557.32	42803.72
557.49	43147.78
557.65	42572.00
557.82	43178.20
557.98	42934.79
558.15	43119.69
558.32	43482.47
558.48	43337.36
558.65	43391.19
558.81	42923.08
558.98	43335.02
559.14	43449.70
559.31	42995.64
559.47	43496.52
559.64	43796.10
559.80	43758.66
559.97	43473.11
560.13	43194.59
560.30	43065.86
560.46	43393.53
560.63	43468.43
560.79	43789.08
560.96	43835.89
561.12	43798.44
561.29	43519.92
561.45	43213.31
561.61	43650.99
561.78	43775.04
561.94	43531.62
562.11	43683.76
562.27	43636.95
562.44	43690.78
562.60	43899.09
562.77	43981.01
562.93	43416.94
563.10	43477.79
563.26	43695.46
563.42	44163.57
563.59	43599.50
563.75	43653.33
563.92	43636.95
564.08	43894.41
564.24	44011.43
564.41	44002.07
564.57	43863.98
564.74	43842.92
564.90	43730.57
565.07	43924.83
565.23	43746.95
565.39	43606.52
565.56	43969.30
565.72	43892.07
565.88	43749.29
566.05	43782.06
566.21	43894.41
566.38	43847.60
566.54	43887.39
566.70	44126.12
566.87	44626.99
567.03	44032.50
567.19	44760.40
567.36	44252.51
567.52	44168.25
567.68	44037.18
567.85	43896.75
568.01	44287.62
568.17	43962.28
568.34	44371.88
568.50	44062.93
568.66	43971.64
568.83	44252.51
568.99	43814.83
569.15	44055.90
569.32	44102.71
569.48	44236.12
569.64	44465.50
569.81	43990.37
569.97	44301.66
570.13	44334.43
570.30	43849.94
570.46	43721.21
570.62	43819.51
570.78	43578.43
570.95	44128.46
571.11	44423.37
571.27	44275.91
571.43	44250.17
571.60	43941.22
571.76	44065.27
571.92	44406.98
572.09	44229.10
572.25	44135.48
572.41	44584.86
572.57	44130.80
572.74	44538.05
572.90	44142.50
573.06	44512.31
573.22	44701.89
573.38	44524.01
573.55	44336.77
573.71	44296.98
573.87	44261.87
574.03	44126.12
574.20	44327.41
574.36	44390.60
574.52	44636.36
574.68	44374.22
574.84	44233.78
575.01	43959.94
575.17	44278.25
575.33	43646.31
575.49	43931.86
575.65	44617.63
575.82	44797.85
575.98	44240.81
576.14	44657.42
576.30	44254.85
576.46	44095.69
576.62	44151.87
576.79	44348.47
576.95	44397.62
577.11	44245.49
577.27	44374.22
577.43	44734.66
577.59	44259.53
577.75	44512.31
577.92	43913.13
578.08	44233.78
578.24	43805.47
578.40	44463.16
578.56	44570.82
578.72	44481.88
578.88	44641.04
579.04	44486.56
579.21	44428.05
579.37	44289.96
579.53	44521.67
579.69	43985.69
579.85	44624.65
580.01	44521.67
580.17	44451.45
580.33	45013.18
580.49	44636.36
580.65	44875.09
580.82	44598.91
580.98	44666.78
581.14	44769.77
581.30	44655.08
581.46	44989.78
581.62	44722.96
581.78	44617.63
581.94	44818.92
582.10	44732.32
582.26	44481.88
582.42	44179.95
582.58	44718.28
582.74	44582.52
582.90	44701.89
583.06	44821.26
583.22	44835.30
583.38	44854.03
583.54	44818.92
583.70	44444.43
583.86	44708.91
584.02	44123.78
584.18	44577.84
584.34	44432.73
584.50	44870.41
584.66	44311.02
584.82	44552.10
584.98	44917.22
585.14	44535.71
585.30	44212.72
585.46	44629.34
585.62	44538.05
585.78	44545.08
585.94	44355.49
586.10	44800.19
586.26	44648.06
586.42	44737.00
586.58	44685.51
586.74	45310.43
586.90	44229.10
587.06	44296.98
587.22	44753.38
587.38	44638.70
587.54	44584.86
587.70	44868.07
587.86	44514.65
588.02	44732.32
588.18	44921.90
588.34	44921.90
588.49	44701.89
588.65	44137.82
588.81	43995.05
588.97	44442.09
589.13	44203.36
589.29	44573.16
589.45	44744.02
589.61	44678.49
589.77	44769.77
589.93	44687.85
590.08	45296.39
590.24	44729.98
590.40	44804.88
590.56	45099.78
590.72	44924.24
590.88	44729.98
591.04	44552.10
591.20	45010.84
591.35	45331.50
591.51	45146.59
591.67	45008.50
591.83	45195.74
591.99	45106.80
592.15	45170.00
592.31	45015.52
592.46	44987.44
592.62	44776.79
592.78	44851.69
592.94	45272.98
593.10	44989.78
593.26	45090.42
593.41	44694.87
593.57	44947.65
593.73	44626.99
593.89	45099.78
594.05	44949.99
594.20	44729.98
594.36	45734.07
594.52	44601.25
594.68	44477.20
594.84	44643.38
594.99	45382.99
595.15	44804.88
595.31	45205.11
595.47	45237.87
595.62	45106.80
595.78	45010.84
595.94	45308.09
596.10	45525.76
596.25	45317.45
596.41	45237.87
596.57	45148.93
596.73	45425.12
596.88	44671.46
597.04	44612.95
597.20	45071.70
597.36	44971.05
597.51	45296.39
597.67	45380.65
597.83	45528.10
597.99	45804.28
598.14	45532.78
598.30	44954.67
598.46	45006.16
598.61	44968.71
598.77	44275.91
598.93	44865.73
599.09	44823.60
599.24	45329.16
599.40	45237.87
599.56	45092.76
599.71	45083.40
599.87	45209.79
600.03	45174.68
600.18	45022.54
600.34	45380.65
600.50	45034.25
600.65	44870.41
600.81	45195.74
600.97	45235.53
601.12	45258.94
601.28	45464.91
601.44	45235.53
601.59	44966.37
601.75	44954.67
601.91	44912.54
602.06	44898.50
602.22	45132.55
602.37	45038.93
602.53	45174.68
602.69	45186.38
602.84	44701.89
603.00	44781.47
603.16	44708.91
603.31	45090.42
603.47	44800.19
603.62	45001.48
603.78	44945.31
603.94	44760.40
604.09	45001.48
604.25	45717.68
604.40	45130.21
604.56	44917.22
604.71	44907.86
604.87	45380.65
605.03	44774.45
605.18	44868.07
605.34	44861.05
605.49	44975.73
605.65	44655.08
605.80	44849.35
605.96	44917.22
606.12	45113.83
606.27	45069.36
606.43	44271.23
606.58	45097.44
606.74	44645.72
606.89	45158.30
607.05	44893.82
607.20	44832.96
607.36	45064.67
607.51	44659.76
607.67	44694.87
607.82	44905.52
607.98	44713.59
608.13	44652.74
608.29	44828.28
608.44	44306.34
608.60	44474.86
608.75	44231.44
608.91	44439.75
609.06	44547.42
609.22	44793.17
609.37	44542.74
609.53	44158.89
609.68	44329.75
609.84	44540.39
609.99	44488.90
610.15	44561.46
610.30	44257.19
610.46	44240.81
610.61	44362.51
610.76	44257.19
610.92	44439.75
611.07	44301.66
611.23	44612.95
611.38	44285.28
611.54	44446.77
611.69	44397.62
611.84	44002.07
612.00	44512.31
612.15	44095.69
612.31	44495.92
612.46	44222.08
612.62	43814.83
612.77	44432.73
612.92	44631.68
613.08	44266.55
613.23	44526.35
613.39	44222.08
613.54	44243.15
613.69	44217.40
613.85	44374.22
614.00	44039.52
614.15	44898.50
614.31	44325.07
614.46	44779.13
614.62	43871.00
614.77	43945.90
614.92	43782.06
615.08	44142.50
615.23	43531.62
615.38	43718.87
615.54	43550.35
615.69	43704.82
615.84	43763.34
616.00	44158.89
616.15	43800.79
616.30	43566.73
616.46	43791.42
616.61	43269.48
616.76	43611.20
616.92	43203.95
617.07	42859.89
617.22	43189.91
617.37	43407.58
617.53	43695.46
617.68	43765.68
617.83	44062.93
617.99	43536.30
618.14	43564.39
618.29	43737.59
618.45	43192.25
618.60	43524.60
618.75	43473.11
618.90	43716.53
619.06	43220.33
619.21	43543.33
619.36	43650.99
619.51	43416.94
619.67	43419.28
619.82	43718.87
619.97	43522.26
620.12	43217.99
620.28	42866.91
620.43	42838.83
620.58	42925.42
620.73	43192.25
620.89	43070.54
621.04	43262.46
621.19	42766.27
621.34	42976.92
621.49	42979.26
621.65	42955.85
621.80	42895.00
621.95	42916.06
622.10	42974.58
622.25	42160.07
622.41	42277.10
622.56	42459.66
622.71	43129.05
622.86	42731.16
623.01	43110.33
623.16	42632.86
623.32	42707.76
623.47	42590.73
623.62	42403.49
623.77	42403.49
623.92	42424.55
624.07	42761.59
624.23	42483.06
624.38	42410.51
624.53	42033.68
624.68	42131.98
624.83	42483.06
624.98	42335.61
625.13	42141.35
625.29	42405.83
625.44	42497.11
625.59	42129.64
625.74	41879.21
625.89	41710.69
626.04	42101.56
626.19	42511.15
626.34	41876.86
626.49	42305.18
626.65	41776.22
626.80	42293.48
626.95	41401.74
627.10	42131.98
627.25	41942.40
627.40	41563.23
627.55	41867.50
627.70	41734.09
627.85	41471.95
628.00	41778.56
628.15	41832.39
628.30	41528.13
628.45	41900.27
628.60	41743.45
628.76	41640.47
628.91	41785.58
629.06	41834.74
629.21	41401.74
629.36	41546.85
629.51	41429.82
629.66	41284.71
629.81	41497.70
629.96	41422.80
630.11	41298.75
630.26	41368.97
630.41	41453.23
630.56	41186.41
630.71	41729.41
630.86	41542.17
631.01	41043.63
631.16	41530.47
631.31	41195.77
631.46	40835.33
631.61	41022.57
631.76	41076.40
631.91	41221.52
632.06	41223.86
632.21	41076.40
632.36	41060.02
632.51	40844.69
632.66	41067.04
632.81	40762.77
632.96	40891.50
633.10	40879.80
633.25	40989.80
633.40	40825.96
633.55	41155.98
633.70	40566.16
633.85	40449.14
634.00	40463.18
634.15	40854.05
634.30	40737.02
634.45	40978.10
634.60	40378.92
634.75	40458.50
634.90	40367.22
635.05	40287.64
635.19	39927.20
635.34	40769.79
635.49	40355.52
635.64	40025.50
635.79	40367.22
635.94	40322.75
636.09	40842.35
636.24	40357.86
636.39	40072.31
636.53	39969.33
636.68	40392.97
636.83	39856.98
636.98	39981.03
637.13	40224.45
637.28	40285.30
637.43	40404.67
637.57	40762.77
637.72	40275.94
637.87	40170.61
638.02	39948.26
638.17	40226.79
638.32	39761.02
638.46	39962.31
638.61	39718.89
638.76	39878.05
638.91	39704.85
639.06	40072.31
639.20	39571.44
639.35	40397.65
639.50	40196.36
639.65	40016.14
639.80	39969.33
639.94	39997.41
640.09	39508.24
640.24	39597.18
640.39	39093.97
640.54	39861.66
640.68	39447.39
640.83	40112.10
640.98	39634.63
641.13	39262.49
641.27	39739.96
641.42	39461.43
641.57	39260.15
641.72	39562.08
641.86	39475.48
642.01	38918.43
642.16	39243.76
642.31	38998.01
642.45	39367.81
642.60	39168.87
642.75	39112.69
642.90	39112.69
643.04	38923.11
643.19	38988.64
643.34	39082.27
643.48	38965.24
643.63	38700.76
643.78	38803.74
643.93	38689.06
644.07	38918.43
644.22	39159.50
644.37	38637.56
644.51	38604.80
644.66	39178.23
644.81	39023.75
644.95	39091.63
645.10	38756.93
645.25	39267.17
645.39	39194.61
645.54	38497.13
645.69	38897.36
645.83	38583.73
645.98	38815.44
646.13	38660.97
646.27	38768.63
646.42	38429.26
646.57	38433.94
646.71	38363.72
646.86	39147.80
647.00	38738.21
647.15	38770.97
647.30	38583.73
647.44	38249.03
647.59	38457.34
647.74	38457.34
647.88	38321.59
648.03	38300.53
648.17	38106.26
648.32	38408.19
648.47	38330.95
648.61	37923.70
648.76	38319.25
648.90	38162.43
649.05	37919.02
649.20	38132.01
649.34	38094.56
649.49	38195.20
649.63	37963.49
649.78	38141.37
649.92	38012.64
650.07	38340.32
650.21	38003.28
650.36	38003.28
650.51	37965.83
650.65	38455.00
650.80	38288.82
650.94	38099.24
651.09	38375.42
651.23	37645.18
651.38	38253.72
651.52	37596.03
651.67	37642.84
651.81	37787.95
651.96	37443.89
652.10	37184.09
652.25	37467.30
652.39	37762.20
652.54	37200.47
652.68	37675.60
652.83	37855.82
652.97	37823.06
653.12	37614.75
653.26	37261.33
653.41	37801.99
653.55	37490.70
653.70	37120.90
653.84	37432.19
653.99	37146.64
654.13	37460.27
654.27	37315.16
654.42	37029.62
654.56	37331.54
654.71	37324.52
654.85	37703.69
655.00	37628.79
655.14	37144.30
655.29	36994.51
655.43	36966.42
655.57	36807.26
655.72	36884.50
655.86	36893.86
656.01	36858.76
656.15	36315.75
656.30	36442.14
656.44	37097.49
656.58	37235.58
656.73	36400.01
656.87	36673.85
657.01	36910.25
657.16	36444.48
657.30	36320.43
657.45	36510.02
657.59	36978.12
657.73	36404.69
657.88	36505.34
658.02	36233.83
658.16	36739.39
658.31	36928.97
658.45	36662.15
658.60	36435.12
658.74	36753.43
658.88	36790.88
659.03	36205.75
659.17	36432.78
659.31	36453.84
659.46	36521.72
659.60	36051.27
659.74	36086.38
659.89	35772.75
660.03	36264.26
660.17	36252.56
660.32	36116.81
660.46	35988.08
660.60	36212.77
660.74	35983.40
660.89	35908.50
661.03	35791.47
661.17	35180.59
661.32	35501.25
661.46	35386.56
661.60	35421.67
661.74	35419.33
661.89	35314.00
662.03	35700.19
662.17	35452.09
662.31	35332.73
662.46	35365.49
662.60	35370.18
662.74	35470.82
662.88	34677.38
663.03	34583.76
663.17	35082.29
663.31	34560.35
663.45	34993.35
663.60	34763.98
663.74	34855.26
663.88	34976.97
664.02	34944.20
664.17	34689.08
664.31	34888.03
664.45	34878.66
664.59	34838.87
664.73	34616.52
664.88	34635.25
665.02	34265.44
665.16	34195.23
665.30	34267.78
665.44	34319.28
665.59	34127.35
665.73	34225.65
665.87	34235.02
666.01	34078.20
666.15	33961.17
666.29	33972.88
666.44	34019.69
666.58	33935.43
666.72	33682.65
666.86	33912.02
667.00	33750.52
667.14	33563.28
667.28	33703.71
667.43	33521.15
667.57	33600.73
667.71	33055.39
667.85	33181.77
667.99	33357.32
668.13	33369.02
668.27	33776.27
668.41	33624.14
668.56	32917.29
668.70	33237.95
668.84	32886.87
668.98	32968.79
669.12	32786.22
669.26	32718.35
669.40	32409.40
669.54	32568.55
669.68	32849.42
669.82	32837.72
669.96	32774.52
670.10	32280.67
670.25	32631.75
670.39	32374.29
670.53	32187.05
670.67	32325.14
670.81	32610.68
670.95	32332.16
671.09	32226.84
671.23	31683.83
671.37	31988.10
671.51	32086.40
671.65	32266.63
671.79	31964.70
671.93	31927.25
672.07	32046.62
672.21	31974.06
672.35	31796.18
672.49	31761.07
672.63	31648.72
672.77	31641.70
672.91	31510.63
673.05	31374.88
673.19	31061.25
673.33	31028.48
673.47	30728.89
673.61	31112.74
673.75	31058.91
673.89	30815.49
674.03	30728.89
674.17	30857.62
674.31	30794.43
674.45	30991.03
674.59	31110.40
674.73	30646.97
674.87	30443.35
675.01	30731.23
675.15	30756.98
675.29	30305.26
675.43	30174.19
675.56	30487.82
675.70	30328.66
675.84	30490.16
675.98	29151.37
676.12	30108.65
676.26	29631.18
676.40	29792.68
676.54	29579.69
676.68	29607.78
676.82	29132.65
676.96	29373.72
677.10	29600.76
677.23	29425.22
677.37	29200.52
677.51	29015.62
677.65	28830.72
677.79	28769.86
677.93	29027.32
678.07	29064.77
678.21	28287.71
678.34	28477.30
678.48	27835.99
678.62	28718.37
678.76	27938.97
678.90	27641.73
679.04	28009.19
679.18	27777.48
679.31	27718.96
679.45	27608.96
679.59	27365.54
679.73	27501.29
679.87	27599.60
680.00	27182.98
680.14	27339.80
680.28	27440.44
680.42	27454.48
680.56	27178.30
680.70	26993.40
680.83	27379.59
680.97	27065.96
681.11	26820.20
681.25	26829.56
681.39	26590.83
681.52	26595.51
681.66	26625.93
681.80	26408.26
681.94	26480.82
682.07	26239.75
682.21	26218.68
682.35	26132.08
682.49	26113.36
682.62	25891.01
682.76	25816.11
682.90	25652.27
683.04	25766.96
683.17	25453.33
683.31	25406.52
683.45	25401.83
683.59	25401.83
683.72	25490.77
683.86	25404.17
684.00	25067.14
684.13	25450.99
684.27	24765.21
684.41	24884.58
684.55	24903.30
684.68	24519.45
684.82	24627.12
684.96	24421.15
685.09	24694.99
685.23	24428.17
685.37	24404.77
685.50	24166.03
685.64	24137.94
685.78	23924.96
685.91	24046.66
686.05	24215.18
686.19	23800.91
686.32	23534.09
686.46	23164.28
686.60	23058.96
686.73	23302.37
686.87	23147.90
687.01	22946.61
687.14	22864.69
687.28	23295.35
687.42	22848.31
687.55	22995.76
687.69	23044.91
687.82	22684.47
687.96	22848.31
688.10	22775.75
688.23	22696.17
688.37	22204.66
688.50	22082.95
688.64	22223.39
688.78	22335.73
688.91	22087.64
689.05	22101.68
689.18	21928.48
689.32	22057.21
689.46	21912.10
689.59	21802.09
689.73	22033.80
689.86	21912.10
690.00	21329.30
690.13	21673.36
690.27	21238.02
690.41	21216.96
690.54	20760.55
690.68	20636.50
690.81	20704.38
690.95	20879.92
691.08	20982.90
691.22	20790.98
691.35	21006.31
691.49	20863.54
691.62	20856.51
691.76	20460.96
691.89	20470.33
692.03	20479.69
692.16	20086.48
692.30	19798.59
692.43	19985.83
692.57	19833.70
692.70	19793.91
692.84	19957.75
692.97	19611.35
693.11	19747.10
693.24	19555.18
693.38	19541.13
693.51	19171.33
693.65	19468.58
693.78	19330.48
693.92	19468.58
694.05	19211.12
694.19	19178.35
694.32	19084.73
694.45	18789.82
694.59	18457.46
694.72	18693.86
694.86	18700.88
694.99	18457.46
695.13	18541.72
695.26	18656.41
695.39	18188.30
695.53	18310.01
695.66	18471.51
695.80	18434.06
695.93	18445.76
696.07	18216.39
696.20	18192.98
696.33	17708.49
696.47	17874.67
696.60	17858.29
696.73	17631.26
696.87	17612.53
697.00	17642.96
697.14	17619.55
697.27	17649.98
697.40	17605.51
697.54	17378.48
697.67	17114.00
697.80	17057.82
697.94	17128.04
698.07	16858.88
698.21	16924.41
698.34	16901.01
698.47	16650.57
698.61	16463.33
698.74	16383.75
698.87	16257.36
699.01	16070.12
699.14	16023.31
699.27	16327.58
699.40	16240.98
699.54	16142.67
699.67	15840.75
699.80	15995.22
699.94	15906.28
700.07	15667.55
700.20	15948.41
700.34	15728.40
700.47	15634.78
700.60	15953.09
700.73	15667.55
700.87	15665.21
701.00	15293.06
701.13	15272.00
701.26	15236.89
701.40	15115.18
701.53	15023.90
701.66	15360.94
701.79	15049.64
701.93	15194.76
702.06	14909.21
702.19	14548.77
702.32	14904.53
702.46	14586.22
702.59	14532.39
702.72	14600.26
702.85	14665.80
702.99	14583.88
703.12	14623.67
703.25	13998.74
703.38	13886.40
703.51	14190.67
703.65	14178.97
703.78	14164.92
703.91	14155.56
704.04	13874.70
704.17	13848.95
704.31	13984.70
704.44	13935.55
704.57	13680.43
704.70	13607.87
704.83	13429.99
704.96	13593.83
705.10	13544.68
705.23	13467.44
>>>>>End Processed Spectral Data<<<<<
