SpectraSuite Data File
++++++++++++++++++++++++++++++++++++
Date: Fri Oct 25 11:34:21 EDT 2013
User: price-jones
Dark Spectrum Present: No
Reference Spectrum Present: No
Number of Sampled Component Spectra: 1
Spectrometers: USB2+H05261
Integration Time (usec): 100000 (USB2+H05261)
Spectra Averaged: 1 (USB2+H05261)
Boxcar Smoothing: 0 (USB2+H05261)
Correct for Electrical Dark: No (USB2+H05261)
Strobe/Lamp Enabled: No (USB2+H05261)
Correct for Detector Non-linearity: No (USB2+H05261)
Correct for Stray Light: No (USB2+H05261)
Number of Pixels in Processed Spectrum: 2048
>>>>>Begin Processed Spectral Data<<<<<
365.73	327.68
365.92	327.68
366.12	327.68
366.32	203.63
366.52	182.56
366.72	145.11
366.91	187.24
367.11	229.37
367.31	173.20
367.51	168.52
367.70	194.26
367.90	203.63
368.10	138.09
368.30	191.92
368.49	205.97
368.69	205.97
368.89	201.29
369.09	236.39
369.28	210.65
369.48	245.76
369.68	266.82
369.87	191.92
370.07	217.67
370.27	299.59
370.47	360.44
370.66	465.77
370.86	470.45
371.06	550.03
371.25	585.13
371.45	503.22
371.65	519.60
371.84	571.09
372.04	526.62
372.24	519.60
372.44	554.71
372.63	631.94
372.83	601.52
373.03	589.82
373.22	564.07
373.42	655.35
373.62	622.58
373.81	615.56
374.01	655.35
374.21	620.24
374.40	676.41
374.60	676.41
374.79	657.69
374.99	641.31
375.19	734.93
375.38	641.31
375.58	660.03
375.78	716.20
375.97	662.37
376.17	645.99
376.37	685.78
376.56	709.18
376.76	636.63
376.95	737.27
377.15	655.35
377.35	650.67
377.54	667.05
377.74	739.61
377.93	695.14
378.13	702.16
378.33	699.82
378.52	667.05
378.72	767.70
378.91	718.54
379.11	802.80
379.31	739.61
379.50	671.73
379.70	732.59
379.89	709.18
380.09	683.44
380.28	732.59
380.48	718.54
380.68	711.52
380.87	758.33
381.07	755.99
381.26	772.38
381.46	671.73
381.65	805.14
381.85	704.50
382.04	746.63
382.24	781.74
382.43	777.06
382.63	763.01
382.83	723.23
383.02	784.08
383.22	702.16
383.41	765.36
383.61	739.61
383.80	798.12
384.00	786.42
384.19	844.93
384.39	767.70
384.58	788.76
384.78	819.19
384.97	826.21
385.17	753.65
385.36	809.83
385.56	828.55
385.75	833.23
385.95	903.45
386.14	830.89
386.34	823.87
386.53	833.23
386.72	809.83
386.92	917.49
387.11	866.00
387.31	915.15
387.50	840.25
387.70	849.61
387.89	889.40
388.09	877.70
388.28	826.21
388.48	858.98
388.67	821.53
388.86	891.74
389.06	851.96
389.25	952.60
389.45	926.85
389.64	889.40
389.84	959.62
390.03	954.94
390.22	919.83
390.42	922.17
390.61	926.85
390.81	896.43
391.00	952.60
391.19	983.02
391.39	926.85
391.58	1046.22
391.78	1013.45
391.97	1015.79
392.16	973.66
392.36	1086.01
392.55	1022.81
392.75	1013.45
392.94	1081.33
393.13	1039.20
393.33	1011.11
393.52	1015.79
393.71	1022.81
393.91	1067.28
394.10	1027.50
394.29	1039.20
394.49	1081.33
394.68	1114.10
394.88	1093.03
395.07	1071.97
395.26	1128.14
395.46	1111.75
395.65	1104.73
395.84	1100.05
396.04	1207.72
396.23	1184.31
396.42	1196.01
396.62	1240.48
396.81	1188.99
397.00	1128.14
397.19	1205.38
397.39	1263.89
397.58	1277.93
397.77	1212.40
397.97	1235.80
398.16	1207.72
398.35	1275.59
398.55	1231.12
398.74	1233.46
398.93	1373.89
399.12	1345.81
399.32	1235.80
399.51	1296.66
399.70	1352.83
399.90	1334.11
400.09	1385.60
400.28	1380.92
400.47	1427.73
400.67	1306.02
400.86	1380.92
401.05	1364.53
401.24	1406.66
401.44	1441.77
401.63	1364.53
401.82	1350.49
402.01	1413.68
402.21	1453.47
402.40	1413.68
402.59	1437.09
402.78	1430.07
402.97	1455.81
403.17	1577.52
403.36	1507.30
403.55	1600.93
403.74	1558.80
403.93	1488.58
404.13	1603.27
404.32	1638.38
404.51	1589.22
404.70	1535.39
404.89	1598.59
405.09	1547.09
405.28	1638.38
405.47	1610.29
405.66	1645.40
405.85	1652.42
406.05	1708.59
406.24	1729.66
406.43	1757.74
406.62	1696.89
406.81	1816.26
407.00	1717.95
407.20	1743.70
407.39	1701.57
407.58	1736.68
407.77	1914.56
407.96	1750.72
408.15	1797.53
408.34	1799.87
408.54	1818.60
408.73	1849.02
408.92	1989.46
409.11	1884.13
409.30	1998.82
409.49	1881.79
409.68	1923.92
409.87	2024.56
410.07	1952.01
410.26	2104.14
410.45	1949.67
410.64	2031.58
410.83	2057.33
411.02	2160.31
411.21	2064.35
411.40	2153.29
411.59	2176.70
411.78	2146.27
411.98	2186.06
412.17	2106.48
412.36	2157.97
412.55	2260.96
412.74	2284.36
412.93	2211.81
413.12	2202.44
413.31	2307.77
413.50	2340.54
413.69	2335.85
413.88	2359.26
414.07	2370.96
414.26	2495.01
414.45	2450.54
414.64	2438.84
414.83	2576.93
415.02	2597.99
415.22	2619.06
415.41	2562.89
415.60	2612.04
415.79	2609.70
415.98	2686.94
416.17	2672.89
416.36	2630.76
416.55	2499.69
416.74	2761.83
416.93	2726.72
417.12	2712.68
417.31	2752.47
417.50	2780.56
417.69	2820.35
417.88	2906.95
418.07	2855.45
418.26	2906.95
418.45	2930.35
418.64	2974.82
418.83	2909.29
419.02	2829.71
419.21	2942.05
419.39	3040.36
419.58	2920.99
419.77	2949.08
419.96	3028.65
420.15	3073.12
420.34	3012.27
420.53	3119.93
420.72	3117.59
420.91	3169.09
421.10	3251.00
421.29	3227.60
421.48	3101.21
421.67	3368.03
421.86	3194.83
422.05	3246.32
422.24	3129.30
422.43	3318.88
422.61	3272.07
422.80	3255.69
422.99	3321.22
423.18	3262.71
423.37	3328.24
423.56	3358.67
423.75	3251.00
423.94	3199.51
424.13	3145.68
424.32	3021.63
424.50	3417.18
424.69	3478.04
424.88	3393.78
425.07	3133.98
425.26	3243.98
425.45	3337.60
425.64	3281.43
425.83	3344.63
426.01	3323.56
426.20	3384.41
426.39	3297.81
426.58	3363.35
426.77	3314.20
426.96	3510.80
427.15	3445.27
427.33	3426.54
427.52	3524.85
427.71	3480.38
427.90	3482.72
428.09	3709.75
428.28	3597.40
428.46	3571.66
428.65	3609.11
428.84	3637.19
429.03	3550.59
429.22	3625.49
429.40	3616.13
429.59	3590.38
429.78	3672.30
429.97	3646.55
430.16	3705.07
430.34	3747.20
430.53	3733.15
430.72	3812.73
430.91	3674.64
431.10	3648.90
431.28	3744.86
431.47	3866.56
431.66	3810.39
431.85	3875.93
432.03	3922.74
432.22	3934.44
432.41	3875.93
432.60	3948.48
432.79	3990.61
432.97	3946.14
433.16	3950.82
433.35	3857.20
433.54	4121.68
433.72	4079.55
433.91	4039.76
434.10	4152.11
434.28	4086.58
434.47	4241.05
434.66	4187.22
434.85	4091.26
435.03	4198.92
435.22	4182.54
435.41	4243.39
435.59	4287.86
435.78	4358.08
435.97	4234.03
436.16	4297.22
436.34	4278.50
436.53	4507.87
436.72	4372.12
436.90	4234.03
437.09	4276.16
437.28	4217.65
437.46	4484.47
437.65	4479.79
437.84	4428.29
438.02	4442.34
438.21	4627.24
438.40	4601.49
438.58	4578.09
438.77	4624.90
438.96	4610.86
439.14	4723.20
439.33	4711.50
439.52	4753.63
439.70	4802.78
439.89	4786.40
440.08	4936.19
440.26	4713.84
440.45	4730.22
440.63	4910.44
440.82	4933.85
441.01	5034.49
441.19	5046.20
441.38	5085.98
441.57	5121.09
441.75	5205.35
441.94	5327.06
442.12	5245.14
442.31	5247.48
442.50	5383.23
442.68	5303.65
442.87	5263.86
443.05	5458.13
443.24	5345.78
443.43	5448.77
443.61	5364.51
443.80	5526.00
443.98	5371.53
444.17	5015.77
444.35	5203.01
444.54	5434.72
444.73	5371.53
444.91	5497.92
445.10	5483.88
445.28	5462.81
445.47	5411.32
445.65	5413.66
445.84	5416.00
446.02	5603.24
446.21	5577.50
446.39	5540.05
446.58	5530.69
446.77	5504.94
446.95	5537.71
447.14	5453.45
447.32	5603.24
447.51	5474.51
447.69	5479.19
447.88	5575.16
448.06	5547.07
448.25	5518.98
448.43	5593.88
448.62	5551.75
448.80	5486.22
448.99	5694.52
449.17	5762.40
449.36	5671.12
449.54	5841.98
449.73	5959.00
449.91	5902.83
450.10	5907.51
450.28	5961.34
450.46	5928.58
450.65	5870.06
450.83	5837.30
451.02	6099.44
451.20	5963.68
451.39	5935.60
451.57	6010.50
451.76	6090.07
451.94	6071.35
452.13	6150.93
452.31	6122.84
452.49	5879.43
452.68	6078.37
452.86	6188.38
453.05	6157.95
453.23	6286.68
453.42	6022.20
453.60	6099.44
453.78	6076.03
453.97	6242.21
454.15	6120.50
454.34	6228.17
454.52	6462.22
454.70	6443.49
454.89	6375.62
455.07	6317.11
455.26	6317.11
455.44	6581.59
455.62	6562.86
455.81	6417.75
455.99	6497.33
456.17	6469.24
456.36	6422.43
456.54	6656.48
456.73	6757.13
456.91	6726.70
457.09	6846.07
457.28	6752.45
457.46	6698.61
457.64	6808.62
457.83	6789.89
458.01	6750.10
458.19	7002.88
458.38	6871.81
458.56	7033.31
458.74	6885.86
458.93	6939.69
459.11	7014.59
459.29	6979.48
459.48	6895.22
459.66	6942.03
459.84	7215.87
460.03	7246.30
460.21	7173.74
460.39	7080.12
460.57	7204.17
460.76	7117.57
460.94	7222.89
461.12	7213.53
461.31	7124.59
461.49	7321.20
461.67	7410.14
461.85	7571.63
462.04	7337.58
462.22	7850.16
462.40	7520.14
462.59	7510.78
462.77	7405.46
462.95	7489.71
463.13	7473.33
463.32	7487.37
463.50	7566.95
463.68	7669.94
463.86	7859.52
464.05	7660.57
464.23	7611.42
464.41	7721.43
464.59	7522.48
464.78	7782.28
464.96	7726.11
465.14	7623.12
465.32	7695.68
465.50	7878.24
465.69	7908.67
465.87	7786.96
466.05	7889.95
466.23	7719.09
466.41	7847.82
466.60	7850.16
466.78	7981.23
466.96	7999.95
467.14	7901.65
467.32	8035.06
467.51	8079.53
467.69	7887.61
467.87	8212.94
468.05	8126.34
468.23	8011.65
468.41	8074.85
468.60	7969.52
468.78	8252.73
468.96	8016.33
469.14	8290.18
469.32	8292.52
469.50	8011.65
469.69	8325.29
469.87	8505.51
470.05	8325.29
470.23	8589.77
470.41	8477.42
470.59	8655.30
470.77	8594.45
470.95	8465.72
471.14	8496.14
471.32	8465.72
471.50	8545.30
471.68	8835.52
471.86	8912.76
472.04	8889.35
472.22	9085.96
472.40	8765.31
472.58	9043.83
472.77	9013.40
472.95	9062.55
473.13	9305.97
473.31	9158.52
473.49	9268.52
473.67	9153.84
473.85	9205.33
474.03	9338.74
474.21	9362.14
474.39	9439.38
474.57	9525.98
474.75	9525.98
474.93	9584.49
475.12	9638.33
475.30	9626.62
475.48	9600.88
475.66	9643.01
475.84	9673.43
476.02	9867.70
476.20	9888.76
476.38	9905.15
476.56	10125.16
476.74	10211.76
476.92	10265.59
477.10	10111.11
477.28	10415.38
477.46	10216.44
477.64	10532.41
477.82	10621.35
478.00	10792.21
478.18	10787.53
478.36	10729.02
478.54	10906.90
478.72	10930.30
478.90	11140.95
479.08	11234.57
479.26	11187.76
479.44	11267.34
479.62	11323.51
479.80	11510.75
479.98	11566.93
480.16	11733.11
480.34	11466.28
480.52	11754.17
480.70	12013.97
480.88	11871.20
481.06	11948.43
481.24	12142.70
481.41	12231.64
481.59	12353.35
481.77	12353.35
481.95	12575.70
482.13	12685.70
482.31	12662.30
482.49	12872.95
482.67	12931.46
482.85	12922.10
483.03	12964.23
483.21	13193.60
483.39	13305.95
483.57	13188.92
483.74	13465.10
483.92	13404.25
484.10	13472.12
484.28	13619.58
484.46	13935.55
484.64	14197.69
484.82	13926.19
485.00	14216.41
485.18	14518.34
485.35	14668.14
485.53	14583.88
485.71	14319.40
485.89	14853.04
486.07	14899.85
486.25	14726.65
486.43	15089.43
486.61	14998.15
486.78	15246.25
486.96	15442.85
487.14	15428.81
487.32	15611.37
487.50	15686.27
487.68	15824.36
487.85	15964.79
488.03	16257.36
488.21	16374.39
488.39	16360.34
488.57	16755.90
488.75	16453.97
488.92	16992.29
489.10	16936.12
489.28	17048.46
489.46	16975.91
489.64	17334.01
489.81	17664.02
489.99	17699.13
490.17	17736.58
490.35	17750.62
490.53	17954.25
490.70	17785.73
490.88	17837.22
491.06	18160.22
491.24	18157.88
491.41	18391.93
491.59	18494.91
491.77	18345.12
491.95	18890.46
492.13	18881.10
492.30	18817.91
492.48	18974.72
492.66	19337.51
492.84	18991.11
493.01	19522.41
493.19	19501.34
493.37	19651.14
493.54	19508.37
493.72	19932.00
493.90	19997.54
494.08	19723.69
494.25	19922.64
494.43	20411.81
494.61	20287.76
494.79	20458.62
494.96	20650.55
495.14	21069.50
495.32	21104.61
495.49	21046.10
495.67	20975.88
495.85	21219.30
496.02	21317.60
496.20	21703.79
496.38	21811.45
496.55	21795.07
496.73	22127.42
496.91	21956.57
497.09	22132.11
497.26	21898.05
497.44	21750.60
497.62	22412.97
497.79	22342.75
497.97	22567.45
498.14	22562.76
498.32	22960.66
498.50	22728.94
498.67	23056.62
498.85	22953.63
499.03	23140.88
499.20	23108.11
499.38	22789.80
499.56	23604.30
499.73	23370.25
499.91	23782.18
500.08	23779.84
500.26	23821.97
500.44	23782.18
500.61	23768.14
500.79	23962.40
500.97	24006.87
501.14	24243.27
501.32	24460.94
501.49	24269.01
501.67	24577.97
501.84	24933.73
502.02	24505.41
502.20	24772.23
502.37	24830.74
502.55	24776.91
502.72	24936.07
502.90	25083.52
503.07	24926.71
503.25	25411.20
503.43	24987.56
503.60	25268.42
503.78	25781.00
503.95	25268.42
504.13	25528.22
504.30	25757.60
504.48	25493.12
504.65	25703.76
504.83	26054.84
505.01	26279.54
505.18	26195.28
505.36	26464.44
505.53	26017.40
505.71	26525.29
505.88	26588.49
506.06	26307.62
506.23	26635.30
506.41	26265.49
506.58	26478.48
506.76	26345.07
506.93	27002.76
507.11	27140.85
507.28	27110.43
507.46	27225.11
507.63	27220.43
507.81	27632.36
507.98	27325.75
508.16	27388.95
508.33	27683.86
508.50	27665.13
508.68	27850.03
508.85	28236.22
509.03	27627.68
509.20	27906.21
509.38	28409.42
509.55	28498.36
509.73	28276.01
509.90	28638.80
510.08	28240.90
510.25	28669.22
510.42	28662.20
510.60	28905.62
510.77	28870.51
510.95	29212.23
511.12	28774.55
511.30	28671.56
511.47	29425.22
511.64	28835.40
511.82	29294.14
511.99	28999.24
512.17	29600.76
512.34	29617.14
512.51	30125.04
512.69	29518.84
512.86	29745.87
513.04	29975.24
513.21	30036.09
513.38	29759.91
513.56	29993.97
513.73	29472.03
513.90	30354.41
514.08	29965.88
514.25	30129.72
514.43	30391.86
514.60	30377.81
514.77	30377.81
514.95	30162.48
515.12	30492.50
515.29	30426.96
515.47	30766.34
515.64	30881.03
515.81	30581.44
515.99	31211.04
516.16	31358.50
516.33	30712.51
516.51	31498.93
516.68	31335.09
516.85	31035.50
517.03	31538.72
517.20	31756.39
517.37	31564.46
517.54	31796.18
517.72	31655.75
517.89	31487.23
518.06	31779.79
518.24	31978.74
518.41	31929.59
518.58	32048.96
518.75	31772.77
518.93	32084.06
519.10	32329.82
519.27	32421.10
519.45	32121.51
519.62	32371.95
519.79	32559.19
519.96	32009.17
520.14	32503.02
520.31	32385.99
520.48	32659.84
520.65	32884.53
520.83	32680.90
521.00	33223.90
521.17	33151.35
521.34	33317.53
521.52	33277.74
521.69	33200.50
521.86	33146.67
522.03	33109.22
522.20	33656.90
522.38	33696.69
522.55	34047.77
522.72	33865.21
522.89	33439.23
523.07	34508.86
523.24	33649.88
523.41	33993.94
523.58	33591.37
523.75	34115.65
523.92	34005.64
524.10	34415.24
524.27	34436.30
524.44	34703.12
524.61	34960.58
524.78	34326.30
524.96	34796.74
525.13	34668.02
525.30	34834.19
525.47	34930.16
525.64	34766.32
525.81	34471.41
525.98	34890.37
526.16	34937.18
526.33	34923.13
526.50	35501.25
526.67	35161.87
526.84	34866.96
527.01	35091.65
527.18	35622.95
527.36	35264.85
527.53	35763.39
527.70	35847.64
527.87	35826.58
528.04	35545.72
528.21	35913.18
528.38	35281.24
528.55	35892.12
528.72	36018.50
528.89	36266.60
529.07	36095.74
529.24	36062.97
529.41	36257.24
529.58	36144.89
529.75	36046.59
529.92	36439.80
530.09	36355.54
530.26	36407.03
530.43	36353.20
530.60	36102.76
530.77	36041.91
530.94	36629.38
531.11	36627.04
531.28	36634.06
531.46	36704.28
531.63	36334.48
531.80	36495.97
531.97	36769.82
532.14	37247.29
532.31	36732.37
532.48	37179.41
532.65	37397.08
532.82	36830.67
532.99	37326.86
533.16	36914.93
533.33	37130.26
533.50	37247.29
533.67	37163.03
533.84	37383.04
534.01	37563.26
534.18	37860.51
534.35	37879.23
534.52	37680.28
534.69	38429.26
534.86	38068.81
535.03	37518.79
535.20	37895.61
535.37	38000.94
535.54	38349.68
535.71	38167.12
535.88	38429.26
536.05	37998.60
536.22	38513.52
536.38	38302.87
536.55	38216.27
536.72	38455.00
536.89	38440.96
537.06	38359.04
537.23	38623.52
537.40	38422.23
537.57	38408.19
537.74	38394.15
537.91	38424.57
538.08	38820.13
538.25	38485.43
538.42	38939.49
538.59	39281.21
538.75	38377.76
538.92	39110.35
539.09	39342.06
539.26	39328.02
539.43	39051.84
539.60	39414.62
539.77	38822.47
539.94	39608.89
540.11	39264.83
540.28	38998.01
540.44	39203.97
540.61	39468.45
540.78	39309.30
540.95	39648.68
541.12	39283.55
541.29	39601.86
541.46	39337.38
541.62	39576.12
541.79	39840.60
541.96	39112.69
542.13	39908.47
542.30	39742.30
542.47	39573.78
542.63	39625.27
542.80	40151.89
542.97	40418.71
543.14	40418.71
543.31	40095.72
543.48	39948.26
543.64	40409.35
543.81	40601.27
543.98	40414.03
544.15	40509.99
544.32	40821.28
544.48	40975.76
544.65	40694.89
544.82	40945.33
544.99	40575.53
545.16	40769.79
545.32	40711.28
545.49	40954.69
545.66	41455.57
545.83	41397.06
546.00	40907.88
546.16	41062.36
546.33	41088.10
546.50	40540.42
546.67	41427.48
546.83	40671.49
547.00	41024.91
547.17	40917.25
547.34	41202.79
547.50	41673.24
547.67	41855.80
547.84	41268.33
548.00	41799.63
548.17	41771.54
548.34	41607.70
548.51	41865.16
548.67	41631.11
548.84	41860.48
549.01	41773.88
549.18	41841.76
549.34	42241.99
549.51	42071.13
549.68	41991.55
549.84	42059.43
550.01	42176.45
550.18	41933.04
550.34	42082.83
550.51	42436.25
550.68	42232.63
550.84	42171.77
551.01	42363.70
551.18	42267.73
551.34	42003.25
551.51	42380.08
551.68	42415.19
551.84	42429.23
552.01	42504.13
552.18	42225.60
552.34	42384.76
552.51	42452.64
552.68	42740.52
552.84	42443.27
553.01	42630.52
553.18	42520.51
553.34	42670.31
553.51	42373.06
553.67	42447.96
553.84	42555.62
554.01	42763.93
554.17	42763.93
554.34	43147.78
554.51	42976.92
554.67	43601.84
554.84	42700.73
555.00	42831.80
555.17	42532.22
555.33	43414.60
555.50	42923.08
555.67	43161.82
555.83	43325.66
556.00	43377.15
556.16	43353.74
556.33	43274.16
556.50	42990.96
556.66	43257.78
556.83	43288.21
556.99	43739.93
557.16	43353.74
557.32	43721.21
557.49	43543.33
557.65	43147.78
557.82	43323.32
557.98	43686.10
558.15	43515.24
558.32	43997.39
558.48	43456.73
558.65	44088.67
558.81	43793.76
558.98	43709.50
559.14	43491.83
559.31	43655.67
559.47	43896.75
559.64	43592.48
559.80	44327.41
559.97	44198.68
560.13	43498.86
560.30	44048.88
560.46	44165.91
560.63	43756.32
560.79	44376.56
560.96	44287.62
561.12	44273.57
561.29	44243.15
561.45	44215.06
561.61	44219.74
561.78	44182.29
561.94	43889.73
562.11	44226.76
562.27	44184.63
562.44	44086.33
562.60	44498.26
562.77	44254.85
562.93	44023.14
563.10	44538.05
563.26	44353.15
563.42	44282.94
563.59	43894.41
563.75	44091.01
563.92	44301.66
564.08	44231.44
564.24	44545.08
564.41	44322.72
564.57	44385.92
564.74	44573.16
564.90	44610.61
565.07	44388.26
565.23	44453.79
565.39	44311.02
565.56	44734.66
565.72	44744.02
565.88	44849.35
566.05	44772.11
566.21	44664.44
566.38	44252.51
566.54	44968.71
566.70	44769.77
566.87	44655.08
567.03	45095.10
567.19	44938.29
567.36	44769.77
567.52	44587.21
567.68	45062.33
567.85	44933.60
568.01	45048.29
568.17	44818.92
568.34	45020.20
568.50	45242.56
568.66	45022.54
568.83	44891.48
568.99	44732.32
569.15	45092.76
569.32	44519.33
569.48	44847.00
569.64	44598.91
569.81	45560.87
569.97	44914.88
570.13	45258.94
570.30	45102.12
570.46	44758.06
570.62	45043.61
570.78	44872.75
570.95	45261.28
571.11	45205.11
571.27	44905.52
571.43	45146.59
571.60	45162.98
571.76	44952.33
571.92	45036.59
572.09	44961.69
572.25	45076.38
572.41	45078.72
572.57	44725.30
572.74	45492.99
572.90	45263.62
573.06	45617.04
573.22	45612.36
573.38	44964.03
573.55	45624.06
573.71	45382.99
573.87	45521.08
574.03	45312.77
574.20	45179.36
574.36	45331.50
574.52	45600.66
574.68	45392.35
574.84	45832.37
575.01	45308.09
575.17	45572.57
575.33	45460.23
575.49	45209.79
575.65	45289.37
575.82	45516.40
575.98	45420.44
576.14	45492.99
576.30	45923.65
576.46	45411.07
576.62	45268.30
576.79	45338.52
576.95	45371.28
577.11	45411.07
577.27	45633.42
577.43	45787.90
577.59	45696.62
577.75	45132.55
577.92	45102.12
578.08	45207.45
578.24	45464.91
578.40	45972.80
578.56	45633.42
578.72	45701.30
578.88	45490.65
579.04	45605.34
579.21	45542.14
579.37	45619.38
579.53	45727.05
579.69	45359.58
579.85	45350.22
580.01	46160.05
580.17	45425.12
580.33	45738.75
580.49	45769.18
580.65	45846.41
580.82	45801.94
580.98	45698.96
581.14	45272.98
581.30	45783.22
581.46	45689.60
581.62	45446.18
581.78	45457.88
581.94	45495.33
582.10	45544.48
582.26	45851.09
582.42	45773.86
582.58	45684.92
582.74	45680.24
582.90	45478.95
583.06	45759.81
583.22	45579.59
583.38	45677.90
583.54	45806.62
583.70	46096.85
583.86	45933.01
584.02	45752.79
584.18	46153.02
584.34	46220.90
584.50	46075.79
584.66	45684.92
584.82	45890.88
584.98	46349.63
585.14	45893.22
585.30	46007.91
585.46	45647.47
585.62	45521.08
585.78	46096.85
585.94	45593.64
586.10	45532.78
586.26	45390.01
586.42	45914.29
586.58	45933.01
586.74	45773.86
586.90	45085.74
587.06	46136.64
587.22	46270.05
587.38	45324.47
587.54	46155.36
587.70	46373.03
587.86	46129.62
588.02	45684.92
588.18	45504.70
588.34	46464.32
588.49	45998.55
588.65	45492.99
588.81	45750.45
588.97	46188.13
589.13	46010.25
589.29	45914.29
589.45	46000.89
589.61	46333.24
589.77	45958.76
589.93	45874.50
590.08	45993.87
590.24	46466.66
590.40	46204.52
590.56	46518.15
590.72	46440.91
590.88	46033.66
591.04	46057.06
591.20	46433.89
591.35	46719.43
591.51	46976.89
591.67	46642.20
591.83	46368.35
591.99	46258.35
592.15	46375.37
592.31	46050.04
592.46	46433.89
592.62	46305.16
592.78	46309.84
592.94	46471.34
593.10	46398.78
593.26	46473.68
593.41	46906.68
593.57	46394.10
593.73	46593.04
593.89	46831.78
594.05	46581.34
594.20	46464.32
594.36	46967.53
594.52	46780.29
594.68	46340.27
594.84	45909.61
594.99	46679.64
595.15	46162.39
595.31	46717.09
595.47	46501.76
595.62	46452.61
595.78	46265.37
595.94	46656.24
596.10	46838.80
596.25	46852.84
596.41	46752.20
596.57	46773.27
596.73	46726.46
596.88	46784.97
597.04	46478.36
597.20	46731.14
597.36	46499.42
597.51	46543.89
597.67	46461.97
597.83	46555.60
597.99	46754.54
598.14	46791.99
598.30	47124.35
598.46	46548.57
598.61	47012.00
598.77	47014.34
598.93	46607.09
599.09	46628.15
599.24	46962.85
599.40	46513.47
599.56	46691.35
599.71	47014.34
599.87	47229.67
600.03	46845.82
600.18	46670.28
600.34	46808.37
600.50	46574.32
600.65	46834.12
600.81	47203.92
600.97	46894.97
601.12	47117.32
601.28	46859.87
601.44	46773.27
601.59	46997.96
601.75	46548.57
601.91	47070.51
602.06	46560.28
602.22	47105.62
602.37	46890.29
602.53	46728.80
602.69	46871.57
602.84	46330.90
603.00	46454.95
603.16	46602.41
603.31	46834.12
603.47	46419.84
603.62	46705.39
603.78	47082.22
603.94	46745.18
604.09	46972.21
604.25	46375.37
604.40	46801.35
604.56	46806.03
604.71	47117.32
604.87	46759.22
605.03	46806.03
605.18	46515.81
605.34	46646.88
605.49	46579.00
605.65	46651.56
605.80	46492.40
605.96	46314.52
606.12	47009.66
606.27	46703.05
606.43	46574.32
606.58	46822.42
606.74	46436.23
606.89	46340.27
607.05	46562.62
607.20	46852.84
607.36	46473.68
607.51	46323.88
607.67	46485.38
607.82	46440.91
607.98	46527.51
608.13	46457.29
608.29	46438.57
608.44	46361.33
608.60	46499.42
608.75	46789.65
608.91	46593.04
609.06	46038.34
609.22	46632.83
609.37	46412.82
609.53	46698.37
609.68	46469.00
609.84	46499.42
609.99	46277.07
610.15	46564.96
610.30	46195.15
610.46	46478.36
610.61	46274.73
610.76	46724.11
610.92	45897.91
611.07	46167.07
611.23	46340.27
611.38	46232.60
611.54	46192.81
611.69	46703.05
611.84	46326.22
612.00	46033.66
612.15	45949.40
612.31	45904.93
612.46	45832.37
612.62	46206.86
612.77	46071.10
612.92	46244.30
613.08	45759.81
613.23	46246.65
613.39	46314.52
613.54	46094.51
613.69	46129.62
613.85	46120.26
614.00	46092.17
614.15	46033.66
614.31	45661.51
614.46	45862.80
614.62	45827.69
614.77	46230.26
614.92	46141.32
615.08	46115.58
615.23	46536.87
615.38	46471.34
615.54	46047.70
615.69	46054.72
615.84	45904.93
616.00	46052.38
616.15	45902.59
616.30	46410.48
616.46	45874.50
616.61	45848.75
616.76	45844.07
616.92	45832.37
617.07	45750.45
617.22	46216.22
617.37	45361.92
617.53	45918.97
617.68	45439.16
617.83	45221.49
617.99	46066.42
618.14	46024.29
618.29	45397.03
618.45	45443.84
618.60	45492.99
618.75	45237.87
618.90	45085.74
619.06	45858.12
619.21	45478.95
619.36	45673.21
619.51	45261.28
619.67	45373.63
619.82	45237.87
619.97	45488.31
620.12	45691.94
620.28	45216.81
620.43	45481.29
620.58	45364.26
620.73	45399.37
620.89	45212.13
621.04	45823.01
621.19	45420.44
621.34	45460.23
621.49	45193.40
621.65	45162.98
621.80	45572.57
621.95	45490.65
622.10	45483.63
622.25	45375.97
622.41	44580.18
622.56	45052.97
622.71	45401.71
622.86	45055.31
623.01	45162.98
623.16	44835.30
623.32	44856.37
623.47	45137.23
623.62	44786.15
623.77	44825.94
623.92	45319.79
624.07	44903.18
624.23	45158.30
624.38	44849.35
624.53	44711.25
624.68	44542.74
624.83	44994.46
624.98	44549.76
625.13	44390.60
625.29	44212.72
625.44	45024.89
625.59	44589.55
625.74	44786.15
625.89	44100.37
626.04	44346.13
626.19	44498.26
626.34	44856.37
626.49	44264.21
626.65	43775.04
626.80	44385.92
626.95	44074.63
627.10	44318.04
627.25	44645.72
627.40	44163.57
627.55	44163.57
627.70	43915.47
627.85	44275.91
628.00	44016.11
628.15	44086.33
628.30	44189.31
628.45	44285.28
628.60	43739.93
628.76	44095.69
628.91	44243.15
629.06	43505.88
629.21	43522.26
629.36	43793.76
629.51	43463.75
629.66	44182.29
629.81	44364.85
629.96	43789.08
630.11	43683.76
630.26	43896.75
630.41	44102.71
630.56	43674.40
630.71	43901.43
630.86	43725.89
631.01	43313.95
631.16	43185.22
631.31	43784.40
631.46	43227.35
631.61	44144.84
631.76	43634.61
631.91	43393.53
632.06	43899.09
632.21	43950.58
632.36	43999.73
632.51	43077.56
632.66	43959.94
632.81	43702.48
632.96	43440.34
633.10	43264.80
633.25	43681.42
633.40	43171.18
633.55	43440.34
633.70	43384.17
633.85	43154.80
634.00	42932.45
634.15	42808.40
634.30	43002.66
634.45	43119.69
634.60	43304.59
634.75	43044.79
634.90	43414.60
635.05	43285.87
635.19	42822.44
635.34	42965.21
635.49	43225.01
635.64	42808.40
635.79	43433.32
635.94	43075.22
636.09	42960.53
636.24	43014.37
636.39	43194.59
636.53	42972.24
636.68	42689.03
636.83	42129.64
636.98	42658.60
637.13	42298.16
637.28	42562.64
637.43	42883.30
637.57	42892.66
637.72	42204.54
637.87	42513.49
638.02	42658.60
638.17	42164.75
638.32	42431.57
638.46	42412.85
638.61	42209.22
638.76	42895.00
638.91	42263.05
639.06	42337.95
639.20	41574.94
639.35	42178.79
639.50	41607.70
639.65	42071.13
639.80	42916.06
639.94	42787.33
640.09	42258.37
640.24	42370.72
640.39	42366.04
640.54	41757.50
640.68	42195.18
640.83	42337.95
640.98	41900.27
641.13	42146.03
641.27	42267.73
641.42	42075.81
641.57	41628.77
641.72	41755.16
641.86	41710.69
642.01	41584.30
642.16	41804.31
642.31	41567.91
642.45	41631.11
642.60	41265.99
642.75	41680.26
642.90	41937.72
643.04	42040.70
643.19	41354.93
643.34	41291.73
643.48	41383.01
643.63	41446.21
643.78	41743.45
643.93	41825.37
644.07	41624.09
644.22	41394.71
644.37	41567.91
644.51	42199.86
644.66	41724.73
644.81	41537.49
644.95	41596.00
645.10	41317.48
645.25	41647.49
645.39	41029.59
645.54	41202.79
645.69	40830.65
645.83	40868.09
645.98	40992.14
646.13	41132.57
646.27	41024.91
646.42	40673.83
646.57	41130.23
646.71	41518.76
646.86	41258.96
647.00	41579.62
647.15	41308.11
647.30	41305.77
647.44	41001.50
647.59	40985.12
647.74	40844.69
647.88	41155.98
648.03	41713.03
648.17	41347.90
648.32	41113.85
648.47	41235.56
648.61	41029.59
648.76	40287.64
648.90	41172.36
649.05	40444.46
649.20	40685.53
649.34	40701.92
649.49	40898.52
649.63	40610.64
649.78	40818.94
649.92	41134.92
650.07	40917.25
650.21	41181.73
650.36	40966.40
650.51	40575.53
650.65	40961.72
650.80	40715.96
650.94	40669.15
651.09	40446.80
651.23	39959.97
651.38	40175.30
651.52	40098.06
651.67	40182.32
651.81	40294.66
651.96	40168.27
652.10	40086.36
652.25	39880.39
652.39	40203.38
652.54	40343.81
652.68	40074.65
652.83	39969.33
652.97	39981.03
653.12	40311.05
653.26	40084.01
653.41	40477.22
653.55	40346.15
653.70	40486.59
653.84	40226.79
653.99	40011.46
654.13	40163.59
654.27	39756.34
654.42	40109.76
654.56	39711.87
654.71	40081.67
654.85	39878.05
655.00	40161.25
655.14	39910.82
655.29	39896.77
655.43	40051.25
655.57	39138.44
655.72	39508.24
655.86	39683.78
656.01	39833.58
656.15	39381.85
656.30	39718.89
656.44	39480.16
656.58	39878.05
656.73	39524.63
656.87	38976.94
657.01	39063.54
657.16	39548.03
657.30	39533.99
657.45	39168.87
657.59	39379.51
657.73	39056.52
657.88	39344.41
658.02	39391.22
658.16	39817.19
658.31	39304.62
658.45	39033.11
658.60	39058.86
658.74	39147.80
658.88	39049.50
659.03	38955.88
659.17	38995.67
659.31	38735.87
659.46	38618.84
659.60	38787.36
659.74	39203.97
659.89	38696.08
660.03	38246.69
660.17	38728.84
660.32	38429.26
660.46	38216.27
660.60	38071.15
660.74	38359.04
660.89	38738.21
661.03	38096.90
661.17	38251.38
661.32	37928.38
661.46	38370.74
661.60	38157.75
661.74	38169.46
661.89	37961.15
662.03	37993.92
662.17	37979.87
662.31	38178.82
662.46	37954.13
662.60	37467.30
662.74	37490.70
662.88	37701.35
663.03	37383.04
663.17	37532.83
663.31	37092.81
663.45	37553.90
663.60	38373.08
663.74	37408.78
663.88	37502.40
664.02	37212.18
664.17	37464.96
664.31	37151.32
664.45	36891.52
664.59	36968.76
664.73	36879.82
664.88	37120.90
665.02	36713.64
665.16	36706.62
665.30	36720.66
665.44	36935.99
665.59	36533.42
665.73	36645.77
665.87	36100.42
666.01	36811.95
666.15	36383.63
666.29	36767.48
666.44	36549.81
666.58	36608.32
666.72	36273.62
666.86	36348.52
667.00	36212.77
667.14	36133.19
667.28	36247.88
667.43	35744.66
667.57	36123.83
667.71	36151.91
667.85	36299.37
667.99	36212.77
668.13	35737.64
668.27	35690.83
668.41	35945.95
668.56	35299.96
668.70	35215.70
668.84	35353.79
668.98	35152.51
669.12	35264.85
669.26	35178.25
669.40	35222.72
669.54	35136.12
669.68	35140.80
669.82	34855.26
669.96	34574.39
670.10	35007.39
670.25	35168.89
670.39	34487.79
670.53	35079.95
670.67	34506.52
670.81	34529.92
670.95	34429.28
671.09	34377.79
671.23	34338.00
671.37	34630.57
671.51	34139.05
671.65	34541.63
671.79	34047.77
671.93	34403.53
672.07	34206.93
672.21	34396.51
672.35	33708.40
672.49	33874.57
672.63	33701.37
672.77	33584.35
672.91	33832.44
673.05	33579.67
673.19	33577.33
673.33	33537.54
673.47	33013.26
673.61	33254.33
673.75	32980.49
673.89	33296.46
674.03	33186.46
674.17	32905.59
674.31	32568.55
674.45	32849.42
674.59	32699.62
674.73	32594.30
674.87	32430.46
675.01	32240.88
675.15	31990.44
675.29	32259.60
675.43	31962.36
675.56	32158.96
675.70	32077.04
675.84	31845.33
675.98	30965.29
676.12	32011.51
676.26	31655.75
676.40	31852.35
676.54	31377.22
676.68	31445.10
676.82	30675.06
676.96	31255.51
677.10	31145.51
677.23	30958.27
677.37	31353.82
677.51	30813.15
677.65	30988.69
677.79	30628.25
677.93	30511.22
678.07	31276.58
678.21	30473.78
678.34	30359.09
678.48	30188.23
678.62	30321.64
678.76	29837.15
678.90	30375.47
679.04	29862.90
679.18	30375.47
679.31	29633.52
679.45	29687.36
679.59	29259.04
679.73	29352.66
679.87	29146.69
680.00	29319.89
680.14	29385.43
680.28	29163.08
680.42	29048.39
680.56	28531.13
680.70	28687.95
680.83	28617.73
680.97	28561.56
681.11	28655.18
681.25	28198.77
681.39	28198.77
681.52	27941.32
681.66	28107.49
681.80	27740.03
681.94	27456.82
682.07	27637.05
682.21	27498.95
682.35	27550.45
682.49	27332.78
682.62	27381.93
682.76	27398.31
682.90	27433.42
683.04	26932.54
683.17	27281.28
683.31	26885.73
683.45	26827.22
683.59	26733.60
683.72	26855.31
683.86	26764.03
684.00	26122.72
684.13	26480.82
684.27	26267.83
684.41	26242.09
684.55	25975.27
684.68	25965.90
684.82	25596.10
684.96	25614.82
685.09	25827.81
685.23	25710.78
685.37	26171.87
685.50	26080.59
685.64	25893.35
685.78	25301.19
685.91	25329.28
686.05	25013.31
686.19	24549.88
686.32	25003.94
686.46	24596.69
686.60	24231.57
686.73	24982.88
686.87	24395.40
687.01	24636.48
687.14	24496.05
687.28	24414.13
687.42	24379.02
687.55	24004.53
687.69	24409.45
687.82	23990.49
687.96	24037.30
688.10	24091.13
688.23	23728.35
688.37	23695.58
688.50	24065.39
688.64	23473.23
688.78	23122.15
688.91	23405.36
689.05	23428.76
689.18	23281.31
689.32	22789.80
689.46	22974.70
689.59	22574.47
689.73	22944.27
689.86	23063.64
690.00	22890.44
690.13	22637.66
690.27	22398.93
690.41	22820.22
690.54	21900.39
690.68	22104.02
690.81	21895.71
690.95	21818.47
691.08	21802.09
691.22	21907.41
691.35	21446.33
691.49	21694.43
691.62	21539.95
691.76	21399.52
691.89	21125.68
692.03	20973.54
692.16	20929.07
692.30	20809.70
692.43	21111.63
692.57	20851.83
692.70	20718.42
692.84	20510.11
692.97	20510.11
693.11	20311.17
693.24	20313.51
693.38	20198.82
693.51	20332.23
693.65	20184.78
693.78	20063.07
693.92	19946.05
694.05	19737.74
694.19	19798.59
694.32	19658.16
694.45	20009.24
694.59	19742.42
694.72	19735.40
694.86	19414.74
694.99	19152.60
695.13	19236.86
695.26	18836.63
695.39	18792.16
695.53	19028.56
695.66	18848.33
695.80	18764.07
695.93	18834.29
696.07	18534.70
696.20	18251.50
696.33	18391.93
696.47	18230.43
696.60	18031.49
696.73	18494.91
696.87	18494.91
697.00	18260.86
697.14	17671.04
697.27	17755.30
697.40	17975.31
697.54	17855.95
697.67	17642.96
697.80	17762.33
697.94	17413.59
698.07	17422.95
698.21	17289.54
698.34	17343.37
698.47	16996.97
698.61	16912.71
698.74	16985.27
698.87	16992.29
699.01	16601.42
699.14	16685.68
699.27	16671.64
699.40	16631.85
699.54	16531.20
699.67	16404.81
699.80	16587.38
699.94	16475.03
700.07	16350.98
700.20	16074.80
700.34	16137.99
700.47	15920.32
700.60	15969.48
700.73	15999.90
700.87	15754.15
701.00	15719.04
701.13	15379.66
701.26	15337.53
701.40	15517.75
701.53	15398.38
701.66	15503.71
701.79	15129.22
701.93	14796.87
702.06	15272.00
702.19	14967.73
702.32	15080.07
702.46	14993.47
702.59	14920.92
702.72	14995.81
702.85	14885.81
702.99	14871.76
703.12	14874.10
703.25	14579.20
703.38	14228.12
703.51	14420.04
703.65	14298.33
703.78	14298.33
703.91	14141.52
704.04	14197.69
704.17	13909.80
704.31	13942.57
704.44	13923.85
704.57	13900.44
704.70	13708.52
704.83	13575.11
704.96	13818.52
705.10	13635.96
705.23	13399.57
>>>>>End Processed Spectral Data<<<<<
