SpectraSuite Data File
++++++++++++++++++++++++++++++++++++
Date: Fri Oct 25 11:33:43 EDT 2013
User: price-jones
Dark Spectrum Present: No
Reference Spectrum Present: No
Number of Sampled Component Spectra: 1
Spectrometers: USB2+H05261
Integration Time (usec): 100000 (USB2+H05261)
Spectra Averaged: 1 (USB2+H05261)
Boxcar Smoothing: 0 (USB2+H05261)
Correct for Electrical Dark: No (USB2+H05261)
Strobe/Lamp Enabled: No (USB2+H05261)
Correct for Detector Non-linearity: No (USB2+H05261)
Correct for Stray Light: No (USB2+H05261)
Number of Pixels in Processed Spectrum: 2048
>>>>>Begin Processed Spectral Data<<<<<
365.73	252.78
365.92	252.78
366.12	252.78
366.32	187.24
366.52	198.95
366.72	177.88
366.91	201.29
367.11	175.54
367.31	98.30
367.51	42.13
367.70	208.31
367.90	196.60
368.10	177.88
368.30	156.82
368.49	191.92
368.69	229.37
368.89	205.97
369.09	168.52
369.28	224.69
369.48	241.08
369.68	231.71
369.87	278.52
370.07	201.29
370.27	236.39
370.47	262.14
370.66	444.70
370.86	531.30
371.06	514.92
371.25	566.41
371.45	447.04
371.65	568.75
371.84	554.71
372.04	477.47
372.24	552.37
372.44	568.75
372.63	631.94
372.83	608.54
373.03	620.24
373.22	580.45
373.42	603.86
373.62	559.39
373.81	657.69
374.01	629.60
374.21	676.41
374.40	582.79
374.60	592.16
374.79	645.99
374.99	664.71
375.19	617.90
375.38	664.71
375.58	620.24
375.78	676.41
375.97	690.46
376.17	723.23
376.37	643.65
376.56	636.63
376.76	697.48
376.95	622.58
377.15	699.82
377.35	594.50
377.54	662.37
377.74	636.63
377.93	667.05
378.13	709.18
378.33	688.12
378.52	753.65
378.72	704.50
378.91	629.60
379.11	650.67
379.31	732.59
379.50	704.50
379.70	730.25
379.89	676.41
380.09	765.36
380.28	744.29
380.48	704.50
380.68	744.29
380.87	711.52
381.07	786.42
381.26	746.63
381.46	737.27
381.65	746.63
381.85	739.61
382.04	711.52
382.24	723.23
382.43	746.63
382.63	755.99
382.83	837.91
383.02	823.87
383.22	732.59
383.41	744.29
383.61	730.25
383.80	807.48
384.00	777.06
384.19	800.46
384.39	784.08
384.58	823.87
384.78	875.36
384.97	837.91
385.17	763.01
385.36	863.66
385.56	854.30
385.75	898.77
385.95	779.40
386.14	800.46
386.34	851.96
386.53	917.49
386.72	812.17
386.92	919.83
387.11	821.53
387.31	908.13
387.50	795.78
387.70	840.25
387.89	774.72
388.09	905.79
388.28	844.93
388.48	919.83
388.67	908.13
388.86	891.74
389.06	926.85
389.25	1048.56
389.45	898.77
389.64	898.77
389.84	926.85
390.03	910.47
390.22	1001.75
390.42	978.34
390.61	931.53
390.81	985.37
391.00	964.30
391.19	1025.15
391.39	933.87
391.58	922.17
391.78	1057.92
391.97	1001.75
392.16	973.66
392.36	1025.15
392.55	980.68
392.75	1055.58
392.94	1004.09
393.13	1025.15
393.33	1039.20
393.52	1118.78
393.71	1083.67
393.91	1174.95
394.10	1041.54
394.29	1032.18
394.49	1158.57
394.68	1121.12
394.88	1139.84
395.07	1191.33
395.26	1151.54
395.46	1170.27
395.65	1184.31
395.84	1242.82
396.04	1233.46
396.23	1174.95
396.42	1219.42
396.62	1163.25
396.81	1212.40
397.00	1226.44
397.19	1214.74
397.39	1224.10
397.58	1266.23
397.77	1184.31
397.97	1217.08
398.16	1289.64
398.35	1282.61
398.55	1277.93
398.74	1369.21
398.93	1327.08
399.12	1324.74
399.32	1282.61
399.51	1329.42
399.70	1277.93
399.90	1338.79
400.09	1331.76
400.28	1338.79
400.47	1406.66
400.67	1416.02
400.86	1348.15
401.05	1437.09
401.24	1317.72
401.44	1416.02
401.63	1441.77
401.82	1565.82
402.01	1591.56
402.21	1483.90
402.40	1460.49
402.59	1497.94
402.78	1413.68
402.97	1568.16
403.17	1519.01
403.36	1493.26
403.55	1511.99
403.74	1551.78
403.93	1647.74
404.13	1626.67
404.32	1610.29
404.51	1549.43
404.70	1664.12
404.89	1659.44
405.09	1614.97
405.28	1645.40
405.47	1629.01
405.66	1689.87
405.85	1654.76
406.05	1696.89
406.24	1727.32
406.43	1729.66
406.62	1724.97
406.81	1820.94
407.00	1795.19
407.20	1743.70
407.39	1708.59
407.58	1783.49
407.77	1870.09
407.96	1877.11
408.15	1916.90
408.34	1846.68
408.54	2001.16
408.73	1867.75
408.92	1963.71
409.11	1989.46
409.30	2045.63
409.49	1928.60
409.68	2031.58
409.87	2024.56
410.07	1994.14
410.26	2085.42
410.45	2026.90
410.64	2127.55
410.83	2150.95
411.02	2218.83
411.21	2155.63
411.40	2118.18
411.59	2073.71
411.78	2270.32
411.98	2111.16
412.17	2253.94
412.36	2174.36
412.55	2228.19
412.74	2263.30
412.93	2324.15
413.12	2349.90
413.31	2459.90
413.50	2293.72
413.69	2377.98
413.88	2534.80
414.07	2399.05
414.26	2478.63
414.45	2532.46
414.64	2487.99
414.83	2530.12
415.02	2595.65
415.22	2719.70
415.41	2616.72
415.60	2682.25
415.79	2705.66
415.98	2825.03
416.17	2719.70
416.36	2731.41
416.55	2663.53
416.74	2883.54
416.93	2757.15
417.12	2822.69
417.31	2764.17
417.50	2876.52
417.69	3019.29
417.88	2965.46
418.07	2935.03
418.26	2935.03
418.45	2972.48
418.64	3028.65
418.83	3035.67
419.02	2974.82
419.21	3000.57
419.39	3215.90
419.58	2946.73
419.77	2991.20
419.96	3023.97
420.15	3126.96
420.34	3213.56
420.53	3220.58
420.72	3115.25
420.91	3241.64
421.10	3398.46
421.29	3375.05
421.48	3309.52
421.67	3288.45
421.86	3353.99
422.05	3323.56
422.24	3321.22
422.43	3260.37
422.61	3344.63
422.80	3377.39
422.99	3323.56
423.18	3431.23
423.37	3520.17
423.56	3356.33
423.75	3361.01
423.94	3253.34
424.13	3112.91
424.32	3300.16
424.50	3382.07
424.69	3419.52
424.88	3377.39
425.07	3426.54
425.26	3478.04
425.45	3485.06
425.64	3426.54
425.83	3384.41
426.01	3503.78
426.20	3332.92
426.39	3396.12
426.58	3445.27
426.77	3463.99
426.96	3496.76
427.15	3503.78
427.33	3592.72
427.52	3611.45
427.71	3487.40
427.90	3569.32
428.09	3641.87
428.28	3707.41
428.46	3798.69
428.65	3641.87
428.84	3810.39
429.03	3819.75
429.22	3758.90
429.40	3707.41
429.59	3719.11
429.78	3742.52
429.97	3592.72
430.16	3772.94
430.34	3878.27
430.53	3798.69
430.72	3960.19
430.91	3906.35
431.10	3892.31
431.28	3981.25
431.47	3866.56
431.66	3983.59
431.85	3988.27
432.03	4002.32
432.22	4126.36
432.41	4088.92
432.60	4037.42
432.79	4037.42
432.97	4201.26
433.16	4189.56
433.35	4056.15
433.54	4112.32
433.72	4161.47
433.91	4173.18
434.10	4269.14
434.28	4145.09
434.47	4189.56
434.66	4290.20
434.85	4430.63
435.03	4372.12
435.22	4372.12
435.41	4421.27
435.59	4374.46
435.78	4404.89
435.97	4479.79
436.16	4388.50
436.34	4348.72
436.53	4407.23
436.72	4706.82
436.90	4388.50
437.09	4507.87
437.28	4564.04
437.46	4493.83
437.65	4620.22
437.84	4594.47
438.02	4540.64
438.21	4781.71
438.40	4603.83
438.58	4777.03
438.77	4774.69
438.96	4681.07
439.14	4910.44
439.33	4901.08
439.52	4971.30
439.70	4828.53
439.89	5004.07
440.08	5088.32
440.26	4905.76
440.45	4966.62
440.63	5027.47
440.82	5219.39
441.01	5121.09
441.19	5149.18
441.38	5135.14
441.57	5305.99
441.75	5280.25
441.94	5427.70
442.12	5235.78
442.31	5451.11
442.50	5469.83
442.68	5507.28
442.87	5547.07
443.05	5472.17
443.24	5516.64
443.43	5657.07
443.61	5544.73
443.80	5603.24
443.98	5310.68
444.17	5598.56
444.35	5490.90
444.54	5586.86
444.73	5710.91
444.91	5516.64
445.10	5584.52
445.28	5713.25
445.47	5406.64
445.65	5558.77
445.84	5650.05
446.02	5757.72
446.21	5799.85
446.39	5643.03
446.58	5753.04
446.77	5788.14
446.95	5633.67
447.14	5631.33
447.32	5720.27
447.51	5849.00
447.69	5858.36
447.88	5764.74
448.06	5813.89
448.25	5778.78
448.43	5919.21
448.62	5724.95
448.80	5734.31
448.99	5884.11
449.17	5951.98
449.36	5834.96
449.54	6143.91
449.73	6001.13
449.91	6195.40
450.10	6019.86
450.28	6136.88
450.46	6129.86
450.65	6059.65
450.83	6188.38
451.02	6200.08
451.20	6237.53
451.39	6083.05
451.57	6054.97
451.76	6047.94
451.94	6153.27
452.13	6289.02
452.31	6340.51
452.49	6097.10
452.68	6401.37
452.86	6424.77
453.05	6284.34
453.23	6270.30
453.42	6326.47
453.60	6303.06
453.78	6338.17
453.97	6342.85
454.15	6354.55
454.34	6387.32
454.52	6363.92
454.70	6541.80
454.89	6502.01
455.07	6672.87
455.26	6677.55
455.44	6740.74
455.62	6724.36
455.81	6602.65
455.99	6771.17
456.17	6909.26
456.36	6707.98
456.54	6813.30
456.73	6834.36
456.91	6920.96
457.09	6953.73
457.28	6904.58
457.46	6974.80
457.64	7023.95
457.83	7009.90
458.01	6935.01
458.19	7232.26
458.38	6974.80
458.56	7159.70
458.74	7283.75
458.93	7075.44
459.11	7101.19
459.29	7274.38
459.48	7307.15
459.66	7082.46
459.84	7213.53
460.03	7360.98
460.21	7262.68
460.39	7452.27
460.57	7475.67
460.76	7559.93
460.94	7382.05
461.12	7569.29
461.31	7466.31
461.49	7548.23
461.67	7475.67
461.85	7639.51
462.04	7548.23
462.22	8081.87
462.40	7772.92
462.59	7681.64
462.77	7768.24
462.95	7836.11
463.13	7676.96
463.32	7665.25
463.50	7990.59
463.68	7805.69
463.86	8077.19
464.05	7770.58
464.23	7719.09
464.41	7887.61
464.59	7833.77
464.78	8131.02
464.96	7997.61
465.14	7960.16
465.32	7992.93
465.50	8109.96
465.69	8013.99
465.87	8060.80
466.05	8336.99
466.23	8135.70
466.41	8231.66
466.60	8271.45
466.78	7953.14
466.96	8205.92
467.14	8175.49
467.32	8222.30
467.51	8439.97
467.69	8016.33
467.87	8175.49
468.05	8395.50
468.23	8255.07
468.41	8388.48
468.60	8374.44
468.78	8435.29
468.96	8514.87
469.14	8606.15
469.32	8725.52
469.50	8379.12
469.69	8549.98
469.87	8629.56
470.05	8652.96
470.23	8788.71
470.41	8767.65
470.59	8692.75
470.77	8959.57
470.95	8889.35
471.14	8903.40
471.32	8849.57
471.50	9090.64
471.68	8968.93
471.86	8819.14
472.04	9053.19
472.22	9362.14
472.40	8987.66
472.58	9217.03
472.77	9298.95
472.95	9479.17
473.13	9685.14
473.31	9320.01
473.49	9455.76
473.67	9500.23
473.85	9514.28
474.03	9694.50
474.21	9907.49
474.39	9884.08
474.57	9591.52
474.75	9944.94
474.93	9893.44
475.12	9916.85
475.30	10085.37
475.48	10120.48
475.66	10017.49
475.84	10080.69
476.02	10237.50
476.20	10260.91
476.38	10361.55
476.56	10721.99
476.74	10504.32
476.92	10303.04
477.10	10527.73
477.28	10764.12
477.46	10775.83
477.64	10672.84
477.82	10871.79
478.00	11115.20
478.18	10930.30
478.36	11176.06
478.54	11225.21
478.72	11559.91
478.90	11332.87
479.08	11730.76
479.26	11456.92
479.44	11840.77
479.62	11690.98
479.80	11737.79
479.98	11815.02
480.16	12170.79
480.34	12128.66
480.52	12236.32
480.70	12250.36
480.88	12208.23
481.06	12184.83
481.24	12217.60
481.41	12571.02
481.59	12926.78
481.77	12718.47
481.95	12819.11
482.13	13071.89
482.31	12861.24
482.49	13266.16
482.67	13387.86
482.85	13472.12
483.03	13528.30
483.21	13886.40
483.39	13738.94
483.57	13572.77
483.74	13757.67
483.92	13954.27
484.10	13956.61
484.28	14408.34
484.46	14476.21
484.64	14384.93
484.82	14677.50
485.00	14595.58
485.18	14890.49
485.35	15059.01
485.53	15110.50
485.71	15290.72
485.89	15377.32
486.07	15534.14
486.25	15461.58
486.43	15503.71
486.61	15412.43
486.78	15880.53
486.96	15676.91
487.14	16163.74
487.32	15992.88
487.50	16386.09
487.68	16442.26
487.85	16652.91
488.03	16772.28
488.21	16706.74
488.39	16884.62
488.57	17139.74
488.75	17011.01
488.92	17408.90
489.10	17483.80
489.28	17558.70
489.46	17743.60
489.64	17408.90
489.81	18068.94
489.99	17895.74
490.17	18080.64
490.35	18246.82
490.53	18511.30
490.70	18579.17
490.88	18625.98
491.06	18429.38
491.24	19023.87
491.41	19164.31
491.59	19087.07
491.77	19232.18
491.95	19400.70
492.13	19569.22
492.30	19768.16
492.48	19660.50
492.66	19913.28
492.84	20020.94
493.01	20245.63
493.19	20194.14
493.37	20388.41
493.54	20475.01
493.72	20556.93
493.90	20889.28
494.08	21003.97
494.25	20971.20
494.43	20973.54
494.61	21184.19
494.79	21341.00
494.96	21324.62
495.14	21516.54
495.32	21715.49
495.49	21923.80
495.67	21902.73
495.85	21778.68
496.02	22003.38
496.20	21972.95
496.38	22483.19
496.55	22089.98
496.73	22780.43
496.91	22590.85
497.09	22427.01
497.26	22944.27
497.44	22721.92
497.62	23138.54
497.79	23470.89
497.97	23187.69
498.14	23405.36
498.32	23522.38
498.50	23737.71
498.67	23873.46
498.85	23782.18
499.03	23875.80
499.20	23943.68
499.38	24238.59
499.56	24240.93
499.73	24470.30
499.91	24484.34
500.08	24662.22
500.26	24402.43
500.44	24814.36
500.61	24566.26
500.79	25118.63
500.97	24898.62
501.14	25406.52
501.32	25333.96
501.49	25268.42
501.67	25221.61
501.84	25509.50
502.02	25546.95
502.20	25544.61
502.37	25568.01
502.55	25729.51
502.72	26178.89
502.90	25886.32
503.07	26022.08
503.25	26333.37
503.43	25628.87
503.60	26499.55
503.78	26256.13
503.95	26277.19
504.13	26607.21
504.30	26635.30
504.48	26553.38
504.65	26986.38
504.83	27103.40
505.01	27133.83
505.18	27023.83
505.36	27101.06
505.53	27182.98
505.71	27510.66
505.88	27218.09
506.06	27426.40
506.23	27538.74
506.41	27421.72
506.58	28203.46
506.76	27704.92
506.93	27983.44
507.11	27695.56
507.28	28102.81
507.46	28142.60
507.63	27995.15
507.81	28374.31
507.98	28315.80
508.16	28332.18
508.33	28458.57
508.50	28746.46
508.68	28554.54
508.85	28882.21
509.03	28985.19
509.20	29170.10
509.38	29333.93
509.55	29198.18
509.73	29156.05
509.90	29425.22
510.08	29357.34
510.25	29537.56
510.42	29429.90
510.60	29640.54
510.77	29907.37
510.95	29977.58
511.12	29661.61
511.30	30164.82
511.47	30043.12
511.64	29916.73
511.82	30183.55
511.99	29970.56
512.17	30216.32
512.34	30412.92
512.51	30855.28
512.69	31461.48
512.86	30799.11
513.04	30539.31
513.21	30951.24
513.38	31353.82
513.56	31253.17
513.73	30904.43
513.90	30892.73
514.08	31040.18
514.25	31381.90
514.43	31625.32
514.60	31871.07
514.77	31512.97
514.95	31725.96
515.12	31740.00
515.29	31789.16
515.47	32177.68
515.64	32077.04
515.81	31374.88
515.99	31948.31
516.16	32451.53
516.33	32493.66
516.51	32751.12
516.68	32180.03
516.85	32245.56
517.03	32781.54
517.20	32280.67
517.37	32751.12
517.54	32432.80
517.72	33020.28
517.89	32830.69
518.06	32912.61
518.24	32854.10
518.41	32940.70
518.58	33259.01
518.75	32669.20
518.93	33310.50
519.10	33326.89
519.27	33109.22
519.45	33472.00
519.62	33617.11
519.79	34031.39
519.96	33844.15
520.14	33811.38
520.31	33766.91
520.48	34359.06
520.65	33921.38
520.83	34277.15
521.00	34436.30
521.17	34085.22
521.34	34284.17
521.52	34658.65
521.69	34171.82
521.86	34593.12
522.03	34937.18
522.20	34574.39
522.38	35180.59
522.55	35215.70
522.72	34960.58
522.89	34878.66
523.07	35358.47
523.24	35030.80
523.41	35637.00
523.58	34955.90
523.75	34960.58
523.92	35117.40
524.10	35765.73
524.27	35543.38
524.44	35716.58
524.61	35833.60
524.78	35627.63
524.96	36163.62
525.13	36116.81
525.30	36121.49
525.47	36128.51
525.64	36671.51
525.81	36584.91
525.98	36481.93
526.16	36402.35
526.33	36161.28
526.50	36236.17
526.67	36210.43
526.84	36435.12
527.01	36130.85
527.18	36299.37
527.36	36666.83
527.53	36346.18
527.70	37036.64
527.87	36872.80
528.04	36753.43
528.21	37350.27
528.38	36961.74
528.55	36957.06
528.72	36978.12
528.89	37460.27
529.07	37273.03
529.24	37113.87
529.41	37460.27
529.58	37338.57
529.75	37457.93
529.92	37785.61
530.09	37535.17
530.26	37439.21
530.43	37790.29
530.60	37542.19
530.77	37570.28
530.94	38101.58
531.11	37502.40
531.28	37809.01
531.46	37762.20
531.63	38066.47
531.80	38347.34
531.97	38223.29
532.14	38384.79
532.31	37586.66
532.48	38150.73
532.65	38824.81
532.82	38202.22
532.99	38639.90
533.16	38546.28
533.33	38536.92
533.50	39077.58
533.67	38625.86
533.84	38572.03
534.01	38665.65
534.18	38820.13
534.35	39248.44
534.52	39316.32
534.69	39007.37
534.86	39358.45
535.03	38885.66
535.20	39351.43
535.37	39381.85
535.54	39388.88
535.71	39119.71
535.88	39875.71
536.05	39707.19
536.22	39398.24
536.38	40048.91
536.55	39754.00
536.72	39524.63
536.89	39744.64
537.06	39639.31
537.23	39955.29
537.40	39990.39
537.57	39871.03
537.74	40114.44
537.91	40102.74
538.08	40273.60
538.25	39842.94
538.42	39983.37
538.59	40353.18
538.75	39910.82
538.92	40573.19
539.09	40304.02
539.26	40158.91
539.43	40479.57
539.60	40439.78
539.77	40142.53
539.94	40893.84
540.11	40680.85
540.28	40414.03
540.44	40451.48
540.61	40617.66
540.78	40297.00
540.95	40505.31
541.12	40641.06
541.29	40783.83
541.46	40713.62
541.62	41067.04
541.79	41256.62
541.96	40910.22
542.13	40950.01
542.30	40797.88
542.47	41148.96
542.63	41298.75
542.80	41514.08
542.97	41558.55
543.14	41818.35
543.31	41670.90
543.48	42066.45
543.64	42136.66
543.81	42040.70
543.98	41769.20
544.15	41696.64
544.32	41816.01
544.48	42148.37
544.65	42234.97
544.82	42115.60
544.99	41972.83
545.16	41869.84
545.32	42260.71
545.49	43182.88
545.66	42462.00
545.83	42249.01
546.00	42454.98
546.16	42284.12
546.33	42550.94
546.50	42333.27
546.67	42604.77
546.83	42080.49
547.00	42754.57
547.17	42319.23
547.34	42852.87
547.50	42925.42
547.67	42913.72
547.84	43107.99
548.00	42981.60
548.17	43325.66
548.34	43466.09
548.51	43597.16
548.67	43107.99
548.84	43587.80
549.01	43147.78
549.18	43093.94
549.34	43215.65
549.51	43161.82
549.68	43721.21
549.84	43433.32
550.01	43861.64
550.18	42784.99
550.34	43124.37
550.51	43873.34
550.68	43320.98
550.84	42974.58
551.01	43887.39
551.18	43763.34
551.34	43615.88
551.51	43646.31
551.68	43494.18
551.84	43746.95
552.01	43615.88
552.18	44275.91
552.34	43917.81
552.51	44013.77
552.68	43622.90
552.84	44212.72
553.01	44046.54
553.18	44095.69
553.34	44594.23
553.51	43716.53
553.67	44257.19
553.84	44355.49
554.01	44385.92
554.17	44329.75
554.34	44371.88
554.51	44444.43
554.67	44418.69
554.84	44720.62
555.00	44402.30
555.17	44411.67
555.33	45223.83
555.50	44816.58
555.67	44399.96
555.83	44636.36
556.00	44994.46
556.16	45378.31
556.33	45010.84
556.50	44926.58
556.66	44404.64
556.83	44456.14
556.99	45214.47
557.16	44882.11
557.32	45151.27
557.49	44800.19
557.65	44732.32
557.82	44832.96
557.98	44891.48
558.15	44839.98
558.32	45055.31
558.48	44854.03
558.65	45361.92
558.81	45272.98
558.98	45184.04
559.14	45043.61
559.31	45291.71
559.47	45476.61
559.64	45617.04
559.80	45511.72
559.97	45661.51
560.13	45193.40
560.30	45642.79
560.46	45879.18
560.63	45514.06
560.79	45268.30
560.96	45532.78
561.12	45530.44
561.29	45235.53
561.45	45675.55
561.61	45464.91
561.78	45474.27
561.94	45200.43
562.11	45584.27
562.27	45771.52
562.44	45427.46
562.60	45649.81
562.77	45638.11
562.93	45708.32
563.10	45570.23
563.26	45427.46
563.42	46124.94
563.59	45591.30
563.75	45916.63
563.92	45645.13
564.08	45762.15
564.24	46171.75
564.41	45933.01
564.57	46344.95
564.74	45954.08
564.90	46026.63
565.07	46087.49
565.23	45680.24
565.39	46143.66
565.56	46361.33
565.72	45741.09
565.88	46108.55
566.05	46127.28
566.21	46314.52
566.38	45415.76
566.54	46600.07
566.70	46347.29
566.87	45951.74
567.03	45879.18
567.19	46469.00
567.36	46356.65
567.52	46316.86
567.68	46426.87
567.85	46293.46
568.01	46616.45
568.17	46284.09
568.34	46752.20
568.50	46078.13
568.66	46588.36
568.83	46480.70
568.99	46075.79
569.15	46305.16
569.32	46237.28
569.48	46581.34
569.64	46204.52
569.81	46466.66
569.97	46658.58
570.13	46499.42
570.30	45846.41
570.46	46288.77
570.62	46532.19
570.78	46588.36
570.95	46791.99
571.11	46775.61
571.27	46157.70
571.43	46557.94
571.60	46766.24
571.76	46799.01
571.92	46834.12
572.09	46555.60
572.25	46784.97
572.41	46546.23
572.57	46361.33
572.74	46866.89
572.90	46880.93
573.06	46995.62
573.22	47093.92
573.38	47180.52
573.55	46710.07
573.71	46782.63
573.87	46894.97
574.03	47002.64
574.20	47344.36
574.36	46923.06
574.52	46923.06
574.68	46806.03
574.84	47337.33
575.01	47248.39
575.17	47217.97
575.33	47086.90
575.49	46478.36
575.65	46927.74
575.82	47103.28
575.98	46593.04
576.14	47103.28
576.30	47573.73
576.46	47042.43
576.62	47058.81
576.79	47351.38
576.95	46305.16
577.11	46471.34
577.27	46981.57
577.43	47213.29
577.59	46518.15
577.75	46965.19
577.92	46653.90
578.08	46920.72
578.24	47122.01
578.40	47136.05
578.56	46944.12
578.72	46934.76
578.88	46880.93
579.04	46911.36
579.21	47171.16
579.37	47555.00
579.53	46906.68
579.69	46689.01
579.85	47131.37
580.01	47358.40
580.17	46822.42
580.33	47489.47
580.49	47154.77
580.65	47250.74
580.82	47136.05
580.98	46967.53
581.14	46644.54
581.30	47302.23
581.46	46967.53
581.62	47133.71
581.78	47250.74
581.94	47299.89
582.10	47250.74
582.26	47318.61
582.42	46775.61
582.58	47189.88
582.74	47302.23
582.90	47388.83
583.06	47407.55
583.22	47143.07
583.38	46925.40
583.54	46972.21
583.70	47627.56
583.86	47454.36
584.02	47365.42
584.18	47686.07
584.34	47526.92
584.50	47576.07
584.66	47475.43
584.82	47295.21
584.98	47716.50
585.14	47515.22
585.30	47210.95
585.46	47470.75
585.62	47178.18
585.78	47320.95
585.94	47161.79
586.10	47402.87
586.26	46681.98
586.42	47185.20
586.58	47634.58
586.74	47316.27
586.90	47260.10
587.06	47421.59
587.22	47922.47
587.38	47150.09
587.54	47594.79
587.70	47702.46
587.86	47194.56
588.02	47199.24
588.18	47313.93
588.34	47295.21
588.49	47351.38
588.65	47014.34
588.81	47407.55
588.97	47213.29
589.13	47210.95
589.29	47784.38
589.45	47367.76
589.61	47264.78
589.77	47608.84
589.93	47618.20
590.08	47739.91
590.24	47679.05
590.40	48044.18
590.56	47878.00
590.72	47957.58
590.88	47311.59
591.04	47728.20
591.20	48018.43
591.35	47636.92
591.51	48280.57
591.67	47980.98
591.83	48208.01
591.99	47547.98
592.15	47728.20
592.31	47475.43
592.46	47552.66
592.62	47896.72
592.78	48231.42
592.94	47929.49
593.10	48465.47
593.26	48397.60
593.41	47866.30
593.57	48034.81
593.73	47945.87
593.89	48039.50
594.05	47934.17
594.20	48210.35
594.36	48315.68
594.52	48163.54
594.68	48069.92
594.84	47585.43
594.99	48257.17
595.15	48299.30
595.31	47866.30
595.47	48133.12
595.62	48168.22
595.78	47997.37
595.94	48095.67
596.10	47973.96
596.25	48165.88
596.41	47875.66
596.57	47849.91
596.73	48360.15
596.88	48350.79
597.04	48011.41
597.20	48320.36
597.36	48116.73
597.51	47910.77
597.67	47882.68
597.83	47765.65
597.99	48149.50
598.14	47959.92
598.30	48238.44
598.46	47526.92
598.61	48371.85
598.77	48371.85
598.93	48179.93
599.09	48175.25
599.24	48114.39
599.40	48175.25
599.56	48186.95
599.71	48189.29
599.87	48669.10
600.03	48128.44
600.18	48259.51
600.34	47920.13
600.50	48399.94
600.65	48409.30
600.81	48605.91
600.97	48481.86
601.12	48421.00
601.28	48177.59
601.44	48065.24
601.59	48151.84
601.75	48397.60
601.91	48514.62
602.06	48285.25
602.22	48547.39
602.37	48584.84
602.53	48074.60
602.69	48231.42
602.84	48294.61
603.00	48308.66
603.16	48378.87
603.31	48671.44
603.47	48170.57
603.62	48161.20
603.78	48355.47
603.94	48004.39
604.09	48196.31
604.25	48222.06
604.40	48311.00
604.56	48205.67
604.71	48561.44
604.87	48320.36
605.03	48011.41
605.18	47901.40
605.34	48292.27
605.49	47913.11
605.65	48177.59
605.80	48219.72
605.96	48250.14
606.12	48186.95
606.27	48362.49
606.43	47983.32
606.58	48027.79
606.74	48044.18
606.89	48505.26
607.05	48287.59
607.20	48390.58
607.36	47861.61
607.51	47997.37
607.67	47913.11
607.82	48076.94
607.98	47924.81
608.13	47695.44
608.29	47842.89
608.44	48060.56
608.60	48142.48
608.75	47983.32
608.91	48067.58
609.06	47995.03
609.22	48055.88
609.37	47650.97
609.53	47906.08
609.68	48397.60
609.84	48060.56
609.99	47959.92
610.15	48151.84
610.30	48151.84
610.46	47880.34
610.61	47934.17
610.76	48184.61
610.92	47765.65
611.07	47262.44
611.23	47838.21
611.38	47821.83
611.54	48198.65
611.69	47959.92
611.84	47913.11
612.00	47793.74
612.15	47718.84
612.31	48004.39
612.46	47232.01
612.62	47629.90
612.77	47510.53
612.92	47831.19
613.08	47283.50
613.23	47840.55
613.39	47618.20
613.54	47157.11
613.69	47936.51
613.85	47618.20
614.00	47538.62
614.15	47737.57
614.31	47173.50
614.46	47686.07
614.62	47459.04
614.77	47433.30
614.92	47325.63
615.08	47136.05
615.23	47702.46
615.38	47585.43
615.54	47660.33
615.69	47672.03
615.84	47435.64
616.00	47650.97
616.15	47271.80
616.30	47821.83
616.46	47491.81
616.61	47016.68
616.76	47372.44
616.92	47040.09
617.07	47323.29
617.22	46972.21
617.37	46447.93
617.53	47260.10
617.68	47133.71
617.83	46862.21
617.99	47372.44
618.14	47217.97
618.29	47232.01
618.45	46859.87
618.60	47026.04
618.75	47075.19
618.90	46913.70
619.06	46794.33
619.21	46965.19
619.36	47185.20
619.51	47040.09
619.67	46777.95
619.82	47154.77
619.97	46958.17
620.12	46672.62
620.28	47112.64
620.43	46801.35
620.58	47063.49
620.73	46906.68
620.89	46997.96
621.04	47152.43
621.19	46471.34
621.34	46614.11
621.49	46611.77
621.65	46684.33
621.80	47171.16
621.95	46452.61
622.10	46897.31
622.25	46454.95
622.41	46679.64
622.56	46380.06
622.71	47175.84
622.86	46813.05
623.01	46670.28
623.16	46714.75
623.32	46567.30
623.47	46614.11
623.62	46293.46
623.77	46593.04
623.92	46609.43
624.07	46649.22
624.23	46813.05
624.38	46892.63
624.53	46553.26
624.68	45872.16
624.83	46326.22
624.98	46614.11
625.13	45638.11
625.29	45940.04
625.44	46094.51
625.59	46436.23
625.74	46190.47
625.89	45703.64
626.04	45881.52
626.19	46124.94
626.34	45811.31
626.49	46131.96
626.65	45593.64
626.80	45715.34
626.95	45289.37
627.10	45617.04
627.25	46134.30
627.40	45818.33
627.55	45455.54
627.70	45879.18
627.85	46094.51
628.00	46103.87
628.15	45698.96
628.30	45223.83
628.45	45612.36
628.60	45055.31
628.76	45617.04
628.91	45469.59
629.06	45106.80
629.21	45469.59
629.36	45226.17
629.51	45603.00
629.66	46017.27
629.81	45443.84
629.96	45434.48
630.11	45443.84
630.26	45034.25
630.41	45382.99
630.56	45216.81
630.71	45425.12
630.86	45287.03
631.01	44870.41
631.16	45495.33
631.31	45504.70
631.46	44985.10
631.61	45301.07
631.76	45242.56
631.91	45490.65
632.06	45455.54
632.21	44980.42
632.36	45352.56
632.51	44875.09
632.66	45090.42
632.81	45034.25
632.96	45155.96
633.10	45095.10
633.25	45127.87
633.40	45113.83
633.55	45240.21
633.70	45216.81
633.85	44669.12
634.00	44683.17
634.15	44500.61
634.30	44634.02
634.45	44376.56
634.60	44985.10
634.75	44898.50
634.90	44619.97
635.05	45034.25
635.19	44257.19
635.34	44844.66
635.49	44341.45
635.64	44652.74
635.79	44521.67
635.94	44708.91
636.09	44502.95
636.24	44502.95
636.39	44528.69
636.53	44685.51
636.68	44573.16
636.83	44114.42
636.98	44217.40
637.13	44301.66
637.28	44083.99
637.43	43992.71
637.57	44353.15
637.72	43938.88
637.87	44009.09
638.02	44371.88
638.17	44107.40
638.32	43845.26
638.46	43931.86
638.61	44343.79
638.76	43793.76
638.91	44030.16
639.06	43622.90
639.20	43360.76
639.35	43648.65
639.50	43854.62
639.65	43831.21
639.80	43988.03
639.94	44011.43
640.09	44282.94
640.24	44055.90
640.39	43449.70
640.54	43615.88
640.68	43941.22
640.83	44151.87
640.98	43421.62
641.13	43203.95
641.27	43505.88
641.42	43700.14
641.57	43449.70
641.72	43475.45
641.86	43154.80
642.01	43349.06
642.16	43274.16
642.31	42574.34
642.45	43580.78
642.60	43379.49
642.75	43255.44
642.90	43330.34
643.04	43002.66
643.19	43452.05
643.34	42827.12
643.48	42642.22
643.63	43185.22
643.78	43384.17
643.93	43599.50
644.07	43328.00
644.22	43351.40
644.37	43213.31
644.51	43508.22
644.66	43222.67
644.81	43049.47
644.95	43173.52
645.10	43456.73
645.25	42930.11
645.39	42710.10
645.54	42686.69
645.69	42534.56
645.83	42087.51
645.98	42618.81
646.13	42770.95
646.27	42485.40
646.42	42614.13
646.57	42923.08
646.71	42597.75
646.86	42490.09
647.00	42948.83
647.15	42412.85
647.30	42534.56
647.44	42651.58
647.59	42223.26
647.74	42291.14
647.88	42899.68
648.03	42672.65
648.17	42972.24
648.32	42815.42
648.47	43040.11
648.61	42249.01
648.76	41890.91
648.90	42223.26
649.05	42672.65
649.20	42415.19
649.34	42279.44
649.49	42583.71
649.63	42244.33
649.78	42230.29
649.92	42431.57
650.07	42658.60
650.21	42600.09
650.36	42157.73
650.51	42192.84
650.65	42417.53
650.80	42759.25
650.94	41741.11
651.09	42230.29
651.23	41710.69
651.38	41450.89
651.52	41846.44
651.67	41954.10
651.81	42185.82
651.96	41294.07
652.10	41500.04
652.25	41490.68
652.39	41755.16
652.54	41731.75
652.68	41701.32
652.83	41560.89
652.97	42061.77
653.12	41762.18
653.26	41603.02
653.41	41930.70
653.55	41844.10
653.70	41851.12
653.84	42078.15
653.99	41745.80
654.13	41305.77
654.27	41481.31
654.42	41385.35
654.56	41701.32
654.71	41930.70
654.85	41450.89
655.00	41453.23
655.14	41947.08
655.29	41792.61
655.43	41579.62
655.57	40950.01
655.72	41116.19
655.86	40680.85
656.01	41191.09
656.15	40950.01
656.30	40673.83
656.44	40755.75
656.58	41521.10
656.73	40781.49
656.87	40699.58
657.01	40680.85
657.16	41050.66
657.30	40584.89
657.45	40954.69
657.59	40460.84
657.73	40491.27
657.88	40755.75
658.02	41305.77
658.16	41118.53
658.31	40575.53
658.45	40844.69
658.60	40575.53
658.74	40341.47
658.88	40407.01
659.03	40067.63
659.17	40273.60
659.31	39985.71
659.46	39835.92
659.60	40472.54
659.74	40505.31
659.89	40149.55
660.03	40027.84
660.17	39955.29
660.32	40655.11
660.46	39990.39
660.60	39866.34
660.74	39789.11
660.89	40231.47
661.03	39533.99
661.17	39704.85
661.32	39339.72
661.46	39880.39
661.60	39819.53
661.74	39824.22
661.89	39210.99
662.03	39676.76
662.17	39508.24
662.31	39435.69
662.46	39522.29
662.60	39515.26
662.74	39077.58
662.88	39180.57
663.03	38930.13
663.17	38918.43
663.31	38897.36
663.45	38660.97
663.60	39374.83
663.74	39089.29
663.88	38911.41
664.02	38869.28
664.17	39143.12
664.31	38438.62
664.45	38960.56
664.59	38422.23
664.73	38689.06
664.88	38485.43
665.02	37993.92
665.16	38438.62
665.30	38848.21
665.44	38497.13
665.59	37972.85
665.73	38293.50
665.87	37963.49
666.01	37862.85
666.15	38239.67
666.29	38335.63
666.44	38185.84
666.58	38363.72
666.72	37497.72
666.86	37694.33
667.00	37626.45
667.14	37181.75
667.28	37425.17
667.43	37556.24
667.57	37331.54
667.71	37565.60
667.85	37528.15
667.99	37441.55
668.13	37088.13
668.27	36982.80
668.41	37057.70
668.56	36624.70
668.70	36446.82
668.84	36577.89
668.98	36889.18
669.12	36657.47
669.26	36187.02
669.40	37034.30
669.54	36411.71
669.68	36334.48
669.82	36451.50
669.96	36140.21
670.10	36013.82
670.25	36320.43
670.39	36318.09
670.53	36524.06
670.67	36135.53
670.81	36687.90
670.95	35770.41
671.09	36107.44
671.23	35817.22
671.37	35889.77
671.51	35831.26
671.65	35695.51
671.79	35608.91
671.93	35756.36
672.07	35681.47
672.21	35438.05
672.35	35077.61
672.49	35159.53
672.63	35487.20
672.77	34981.65
672.91	35175.91
673.05	34925.47
673.19	34859.94
673.33	34855.26
673.47	34768.66
673.61	34778.02
673.75	35096.33
673.89	34132.03
674.03	34335.66
674.17	34260.76
674.31	34176.50
674.45	34206.93
674.59	33858.19
674.73	33666.27
674.87	33759.89
675.01	33289.44
675.15	33504.77
675.29	33127.94
675.43	33277.74
675.56	33799.68
675.70	33237.95
675.84	33266.03
675.98	32158.96
676.12	33467.32
676.26	33144.33
676.40	32760.48
676.54	32545.15
676.68	32533.45
676.82	32786.22
676.96	32807.29
677.10	32591.96
677.23	32371.95
677.37	32353.23
677.51	32212.79
677.65	32196.41
677.79	32175.34
677.93	31915.54
678.07	31812.56
678.21	31517.65
678.34	31351.48
678.48	31297.64
678.62	31079.97
678.76	31323.39
678.90	31098.70
679.04	31175.94
679.18	31779.79
679.31	30670.38
679.45	30302.92
679.59	30749.96
679.73	30752.30
679.87	30132.06
680.00	30431.65
680.14	30338.02
680.28	29975.24
680.42	30548.67
680.56	30485.48
680.70	29898.00
680.83	29757.57
680.97	30143.76
681.11	29818.42
681.25	29343.30
681.39	29722.46
681.52	29160.73
681.66	29104.56
681.80	28837.74
681.94	28669.22
682.07	28549.85
682.21	28589.64
682.35	28685.61
682.49	28741.78
682.62	28435.17
682.76	28577.94
682.90	28496.02
683.04	28320.48
683.17	28491.34
683.31	28114.52
683.45	28034.94
683.59	27510.66
683.72	27606.62
683.86	27772.80
684.00	27431.08
684.13	27510.66
684.27	27182.98
684.41	27119.79
684.55	27564.49
684.68	27087.02
684.82	27321.07
684.96	26773.39
685.09	26958.29
685.23	26939.57
685.37	27232.13
685.50	26792.11
685.64	26967.65
685.78	26391.88
685.91	26417.63
686.05	25771.64
686.19	26281.88
686.32	25553.97
686.46	25598.44
686.60	25523.54
686.73	25663.97
686.87	25663.97
687.01	25738.87
687.14	25523.54
687.28	25348.00
687.42	25163.10
687.55	24917.34
687.69	25041.39
687.82	24741.80
687.96	24659.88
688.10	24980.54
688.23	24758.19
688.37	24795.64
688.50	24950.11
688.64	25017.99
688.78	24341.57
688.91	24671.59
689.05	24767.55
689.18	23709.63
689.32	23718.99
689.46	23800.91
689.59	23735.37
689.73	23761.12
689.86	23995.17
690.00	23627.71
690.13	23620.69
690.27	23669.84
690.41	23594.94
690.54	22897.46
690.68	23077.68
690.81	22925.55
690.95	22733.62
691.08	22518.29
691.22	22298.28
691.35	22843.63
691.49	22705.54
691.62	22771.07
691.76	22338.07
691.89	22101.68
692.03	21909.75
692.16	21720.17
692.30	22125.08
692.43	21895.71
692.57	21413.56
692.70	21364.41
692.84	21156.10
692.97	20973.54
693.11	21460.37
693.24	20938.43
693.38	21228.66
693.51	20968.86
693.65	21022.69
693.78	20786.30
693.92	20657.57
694.05	20643.52
694.19	20627.14
694.32	20563.95
694.45	20666.93
694.59	20809.70
694.72	20528.84
694.86	20013.92
694.99	19908.60
695.13	20020.94
695.26	19770.51
695.39	19487.30
695.53	19569.22
695.66	19939.02
695.80	19267.29
695.93	19461.55
696.07	19365.59
696.20	19229.84
696.33	19016.85
696.47	19225.16
696.60	19087.07
696.73	18902.17
696.87	18956.00
697.00	18998.13
697.14	18656.41
697.27	18459.81
697.40	18424.70
697.54	18377.89
697.67	18576.83
697.80	18604.92
697.94	18256.18
698.07	18113.41
698.21	18111.07
698.34	17874.67
698.47	18050.21
698.61	17507.21
698.74	17862.97
698.87	17635.94
699.01	17605.51
699.14	17799.77
699.27	17441.67
699.40	17429.97
699.54	17114.00
699.67	17275.49
699.80	17160.81
699.94	16854.20
700.07	17001.65
700.20	16695.04
700.34	16587.38
700.47	16882.28
700.60	16800.37
700.73	16350.98
700.87	16439.92
701.00	16189.49
701.13	16102.89
701.26	16056.08
701.40	16367.37
701.53	16107.57
701.66	16042.03
701.79	15873.51
701.93	15749.46
702.06	15688.61
702.19	15454.56
702.32	15564.56
702.46	15672.23
702.59	15770.53
702.72	15674.57
702.85	15634.78
702.99	15421.79
703.12	15295.40
703.25	15281.36
703.38	14937.30
703.51	14787.50
703.65	14626.01
703.78	14862.40
703.91	14649.41
704.04	14555.79
704.17	14438.76
704.31	14628.35
704.44	14356.85
704.57	14209.39
704.70	14153.22
704.83	14228.12
704.96	13982.36
705.10	13841.93
705.23	13823.20
>>>>>End Processed Spectral Data<<<<<
