SpectraSuite Data File
++++++++++++++++++++++++++++++++++++
Date: Fri Oct 25 10:47:06 EDT 2013
User: price-jones
Dark Spectrum Present: No
Reference Spectrum Present: No
Number of Sampled Component Spectra: 1
Spectrometers: USB2+H05261
Integration Time (usec): 100000 (USB2+H05261)
Spectra Averaged: 1 (USB2+H05261)
Boxcar Smoothing: 0 (USB2+H05261)
Correct for Electrical Dark: No (USB2+H05261)
Strobe/Lamp Enabled: No (USB2+H05261)
Correct for Detector Non-linearity: No (USB2+H05261)
Correct for Stray Light: No (USB2+H05261)
Number of Pixels in Processed Spectrum: 2048
>>>>>Begin Processed Spectral Data<<<<<
365.73	124.05
365.92	124.05
366.12	124.05
366.32	25.75
366.52	119.37
366.72	145.11
366.91	21.06
367.11	79.58
367.31	58.51
367.51	7.02
367.70	110.01
367.90	18.72
368.10	100.64
368.30	88.94
368.49	7.02
368.69	23.41
368.89	0.00
369.09	105.32
369.28	51.49
369.48	67.88
369.68	131.07
369.87	63.19
370.07	100.64
370.27	91.28
370.47	259.80
370.66	360.44
370.86	400.23
371.06	472.79
371.25	479.81
371.45	456.40
371.65	498.53
371.84	360.44
372.04	435.34
372.24	444.70
372.44	411.93
372.63	503.22
372.83	456.40
373.03	521.94
373.22	519.60
373.42	498.53
373.62	489.17
373.81	521.94
374.01	561.73
374.21	540.66
374.40	531.30
374.60	559.39
374.79	533.64
374.99	589.82
375.19	585.13
375.38	550.03
375.58	517.26
375.78	580.45
375.97	554.71
376.17	622.58
376.37	479.81
376.56	573.43
376.76	543.00
376.95	543.00
377.15	667.05
377.35	559.39
377.54	610.88
377.74	594.50
377.93	550.03
378.13	599.18
378.33	683.44
378.52	603.86
378.72	695.14
378.91	669.39
379.11	585.13
379.31	650.67
379.50	636.63
379.70	690.46
379.89	683.44
380.09	631.94
380.28	580.45
380.48	610.88
380.68	580.45
380.87	627.26
381.07	744.29
381.26	650.67
381.46	601.52
381.65	627.26
381.85	615.56
382.04	699.82
382.24	627.26
382.43	692.80
382.63	631.94
382.83	685.78
383.02	720.88
383.22	760.67
383.41	678.76
383.61	692.80
383.80	732.59
384.00	791.10
384.19	746.63
384.39	718.54
384.58	744.29
384.78	716.20
384.97	781.74
385.17	713.86
385.36	720.88
385.56	767.70
385.75	760.67
385.95	809.83
386.14	791.10
386.34	842.59
386.53	842.59
386.72	835.57
386.92	795.78
387.11	760.67
387.31	819.19
387.50	889.40
387.70	763.01
387.89	816.85
388.09	844.93
388.28	830.89
388.48	805.14
388.67	908.13
388.86	788.76
389.06	870.68
389.25	917.49
389.45	861.32
389.64	896.43
389.84	917.49
390.03	968.98
390.22	943.24
390.42	938.55
390.61	873.02
390.81	912.81
391.00	959.62
391.19	1041.54
391.39	917.49
391.58	894.08
391.78	795.78
391.97	940.90
392.16	940.90
392.36	926.85
392.55	880.04
392.75	912.81
392.94	823.87
393.13	950.26
393.33	1013.45
393.52	1067.28
393.71	1088.35
393.91	924.51
394.10	976.00
394.29	1006.43
394.49	978.34
394.68	1090.69
394.88	1095.37
395.07	1069.62
395.26	1104.73
395.46	1053.24
395.65	1121.12
395.84	1156.22
396.04	1165.59
396.23	1121.12
396.42	1128.14
396.62	1048.56
396.81	1121.12
397.00	1156.22
397.19	1043.88
397.39	1179.63
397.58	1217.08
397.77	1165.59
397.97	1217.08
398.16	1259.21
398.35	1310.70
398.55	1352.83
398.74	1210.06
398.93	1378.58
399.12	1273.25
399.32	1320.06
399.51	1270.91
399.70	1320.06
399.90	1306.02
400.09	1380.92
400.28	1366.87
400.47	1383.26
400.67	1519.01
400.86	1369.21
401.05	1474.54
401.24	1392.62
401.44	1444.11
401.63	1481.56
401.82	1439.43
402.01	1509.65
402.21	1460.49
402.40	1593.90
402.59	1514.33
402.78	1458.15
402.97	1544.75
403.17	1589.22
403.36	1643.06
403.55	1668.80
403.74	1675.82
403.93	1631.35
404.13	1579.86
404.32	1633.69
404.51	1612.63
404.70	1788.17
404.89	1732.00
405.09	1640.72
405.28	1701.57
405.47	1682.85
405.66	1809.23
405.85	1776.47
406.05	1703.91
406.24	1703.91
406.43	1762.42
406.62	1781.15
406.81	1961.37
407.00	1888.81
407.20	1753.06
407.39	1781.15
407.58	1825.62
407.77	1900.52
407.96	1959.03
408.15	1994.14
408.34	1914.56
408.54	1905.20
408.73	2083.08
408.92	2064.35
409.11	2040.95
409.30	2038.61
409.49	1968.39
409.68	2040.95
409.87	2108.82
410.07	2008.18
410.26	2036.27
410.45	2132.23
410.64	2162.66
410.83	2155.63
411.02	2225.85
411.21	2314.79
411.40	2242.23
411.59	2260.96
411.78	2265.64
411.98	2253.94
412.17	2373.30
412.36	2305.43
412.55	2392.03
412.74	2431.82
412.93	2394.37
413.12	2385.01
413.31	2525.44
413.50	2448.20
413.69	2504.37
413.88	2558.21
414.07	2487.99
414.26	2541.82
414.45	2670.55
414.64	2605.02
414.83	2686.94
415.02	2766.51
415.22	2586.29
415.41	2675.23
415.60	2757.15
415.79	2703.32
415.98	2813.32
416.17	2787.58
416.36	2935.03
416.55	2958.44
416.74	2871.84
416.93	2904.60
417.12	2876.52
417.31	2888.22
417.50	2871.84
417.69	2939.71
417.88	3023.97
418.07	2967.80
418.26	3016.95
418.45	3091.85
418.64	3197.17
418.83	3157.38
419.02	3236.96
419.21	3225.26
419.39	3169.09
419.58	3148.02
419.77	3028.65
419.96	3190.15
420.15	3302.50
420.34	3262.71
420.53	3361.01
420.72	3335.26
420.91	3435.91
421.10	3414.84
421.29	3538.89
421.48	3377.39
421.67	3452.29
421.86	3440.59
422.05	3351.65
422.24	3499.10
422.43	3386.76
422.61	3405.48
422.80	3449.95
422.99	3545.91
423.18	3501.44
423.37	3559.95
423.56	3557.61
423.75	3440.59
423.94	3356.33
424.13	3232.28
424.32	3426.54
424.50	3510.80
424.69	3564.64
424.88	3412.50
425.07	3609.11
425.26	3508.46
425.45	3435.91
425.64	3480.38
425.83	3515.48
426.01	3676.98
426.20	3747.20
426.39	3426.54
426.58	3506.12
426.77	3595.06
426.96	3449.95
427.15	3611.45
427.33	3707.41
427.52	3686.34
427.71	3770.60
427.90	3735.50
428.09	3667.62
428.28	3632.51
428.46	3749.54
428.65	3777.62
428.84	3822.09
429.03	3751.88
429.22	3740.18
429.40	3779.97
429.59	3702.73
429.78	3627.83
429.97	3660.60
430.16	3604.42
430.34	3789.33
430.53	3810.39
430.72	3892.31
430.91	3899.33
431.10	3955.51
431.28	4081.89
431.47	4009.34
431.66	4191.90
431.85	4060.83
432.03	4114.66
432.22	4280.84
432.41	4025.72
432.60	4081.89
432.79	4128.70
432.97	4140.41
433.16	4278.50
433.35	4166.15
433.54	4219.99
433.72	4255.09
433.91	4322.97
434.10	4276.16
434.28	4269.14
434.47	4418.93
434.66	4472.76
434.85	4514.89
435.03	4505.53
435.22	4346.37
435.41	4505.53
435.59	4552.34
435.78	4688.09
435.97	4444.68
436.16	4503.19
436.34	4519.57
436.53	4620.22
436.72	4730.22
436.90	4486.81
437.09	4596.81
437.28	4353.40
437.46	4517.23
437.65	4770.01
437.84	4788.74
438.02	4777.03
438.21	4753.63
438.40	4662.35
438.58	4819.16
438.77	4835.55
438.96	4645.96
439.14	4975.98
439.33	4945.55
439.52	5011.09
439.70	4936.19
439.89	5200.67
440.08	5104.71
440.26	5142.16
440.45	5151.52
440.63	5151.52
440.82	5336.42
441.01	5186.63
441.19	5483.88
441.38	5476.85
441.57	5401.96
441.75	5427.70
441.94	5521.32
442.12	5535.37
442.31	5694.52
442.50	5687.50
442.68	5781.12
442.87	5699.20
443.05	5518.98
443.24	5888.79
443.43	5713.25
443.61	5753.04
443.80	5818.57
443.98	5654.73
444.17	5549.41
444.35	5837.30
444.54	5755.38
444.73	5790.49
444.91	5781.12
445.10	5853.68
445.28	5914.53
445.47	5589.20
445.65	5816.23
445.84	5891.13
446.02	5795.17
446.21	5975.39
446.39	5891.13
446.58	5856.02
446.77	5930.92
446.95	5750.70
447.14	5746.02
447.32	6054.97
447.51	6080.71
447.69	5989.43
447.88	5949.64
448.06	5900.49
448.25	5989.43
448.43	5919.21
448.62	5900.49
448.80	6040.92
448.99	6064.33
449.17	6214.12
449.36	6090.07
449.54	6218.80
449.73	6286.68
449.91	6394.34
450.10	6246.89
450.28	6193.06
450.46	6396.68
450.65	6420.09
450.83	6354.55
451.02	6314.77
451.20	6408.39
451.39	6511.37
451.57	6338.17
451.76	6382.64
451.94	6335.83
452.13	6284.34
452.31	6530.09
452.49	6282.00
452.68	6427.11
452.86	6553.50
453.05	6569.88
453.23	6537.12
453.42	6448.18
453.60	6628.40
453.78	6726.70
453.97	6546.48
454.15	6574.56
454.34	6665.85
454.52	6825.00
454.70	6513.71
454.89	6738.40
455.07	6949.05
455.26	6761.81
455.44	6698.61
455.62	6801.60
455.81	6883.52
455.99	6904.58
456.17	6813.30
456.36	6888.20
456.54	7021.61
456.73	7171.40
456.91	7047.35
457.09	7297.79
457.28	7410.14
457.46	7056.72
457.64	7309.49
457.83	7194.81
458.01	7213.53
458.19	7318.86
458.38	7185.44
458.56	7370.35
458.74	7356.30
458.93	7232.26
459.11	7405.46
459.29	7435.88
459.48	7524.82
459.66	7428.86
459.84	7555.25
460.03	7705.04
460.21	7440.56
460.39	7669.94
460.57	7576.31
460.76	7686.32
460.94	7655.89
461.12	7571.63
461.31	7634.83
461.49	7775.26
461.67	7721.43
461.85	7730.79
462.04	7733.13
462.22	8250.39
462.40	7943.78
462.59	7920.37
462.77	7974.21
462.95	7932.08
463.13	7915.69
463.32	7925.05
463.50	8135.70
463.68	8116.98
463.86	8018.68
464.05	7964.84
464.23	7922.71
464.41	8051.44
464.59	7901.65
464.78	8283.16
464.96	8079.53
465.14	8166.13
465.32	8161.45
465.50	8313.58
465.69	8332.31
465.87	8346.35
466.05	8126.34
466.23	8149.75
466.41	8325.29
466.60	8622.53
466.78	8229.32
466.96	8519.55
467.14	8428.27
467.32	8533.59
467.51	8629.56
467.69	8322.94
467.87	8425.93
468.05	8545.30
468.23	8505.51
468.41	8407.20
468.60	8697.43
468.78	8861.27
468.96	8737.22
469.14	8833.18
469.32	8872.97
469.50	8699.77
469.69	8713.81
469.87	8837.86
470.05	8875.31
470.23	9048.51
470.41	8933.82
470.59	9125.75
470.77	8704.45
470.95	8884.67
471.14	9043.83
471.32	8990.00
471.50	9387.89
471.68	9254.48
471.86	9195.96
472.04	9242.78
472.22	9577.47
472.40	9128.09
472.58	9380.87
472.77	9500.23
472.95	9544.70
473.13	9680.46
473.31	9535.34
473.49	9495.55
473.67	9556.41
473.85	9631.30
474.03	9968.34
474.21	9738.97
474.39	9935.57
474.57	9830.25
474.75	9975.36
474.93	10108.77
475.12	10122.82
475.30	10190.69
475.48	9951.96
475.66	10190.69
475.84	9966.00
476.02	10090.05
476.20	10609.65
476.38	10698.59
476.56	10862.43
476.74	10759.44
476.92	10796.89
477.10	10597.95
477.28	10848.38
477.46	10860.09
477.64	10782.85
477.82	11030.94
478.00	11332.87
478.18	11257.98
478.36	11353.94
478.54	11403.09
478.72	11461.60
478.90	11517.78
479.08	11648.85
479.26	12009.29
479.44	11896.94
479.62	11910.99
479.80	11864.18
479.98	11978.86
480.16	12245.68
480.34	12315.90
480.52	12315.90
480.70	12482.08
480.88	12067.80
481.06	12601.44
481.24	12589.74
481.41	12629.53
481.59	12889.33
481.77	13114.02
481.95	13184.24
482.13	12908.05
482.31	13240.41
482.49	13586.81
482.67	13305.95
482.85	13441.70
483.03	13699.16
483.21	13657.03
483.39	13741.29
483.57	13813.84
483.74	14029.17
483.92	14321.74
484.10	13994.06
484.28	14375.57
484.46	14618.99
484.64	14682.18
484.82	14656.43
485.00	14600.26
485.18	14897.51
485.35	14904.53
485.53	14698.56
485.71	14974.75
485.89	15140.93
486.07	15262.63
486.25	15283.70
486.43	15276.68
486.61	15833.72
486.78	15866.49
486.96	15709.68
487.14	16013.95
487.32	16184.80
487.50	16376.73
487.68	16304.17
487.85	16992.29
488.03	16858.88
488.21	16882.28
488.39	16570.99
488.57	16985.27
488.75	17071.87
488.92	17469.76
489.10	17673.39
489.28	17797.43
489.46	17649.98
489.64	17914.46
489.81	18286.61
489.99	18480.87
490.17	17977.65
490.35	18841.31
490.53	18260.86
490.70	18743.01
490.88	18752.37
491.06	18860.04
491.24	18988.77
491.41	18611.94
491.59	19091.75
491.77	19489.64
491.95	19489.64
492.13	19665.18
492.30	19852.42
492.48	19697.95
492.66	19655.82
492.84	19999.88
493.01	20463.30
493.19	19922.64
493.37	20702.04
493.54	20414.15
493.72	20706.72
493.90	20783.96
494.08	20851.83
494.25	21046.10
494.43	20980.56
494.61	21252.06
494.79	21406.54
494.96	21160.78
495.14	21575.06
495.32	21715.49
495.49	21600.80
495.67	21668.68
495.85	21923.80
496.02	22054.87
496.20	22326.37
496.38	22312.33
496.55	22326.37
496.73	22703.20
496.91	22464.46
497.09	22525.32
497.26	22939.59
497.44	23037.89
497.62	23173.64
497.79	23442.81
497.97	22801.50
498.14	23302.37
498.32	23328.12
498.50	23283.65
498.67	24149.65
498.85	23997.51
499.03	24135.60
499.20	24250.29
499.38	23955.38
499.56	24079.43
499.73	24023.26
499.91	24159.01
500.08	24435.19
500.26	24521.79
500.44	24521.79
500.61	24608.39
500.79	24479.66
500.97	24835.42
501.14	24989.90
501.32	25291.83
501.49	25057.78
501.67	25230.98
501.84	25212.25
502.02	25069.48
502.20	25750.57
502.37	25762.28
502.55	25490.77
502.72	25694.40
502.90	25816.11
503.07	25715.47
503.25	25886.32
503.43	25741.21
503.60	26415.29
503.78	26405.92
503.95	26019.74
504.13	26047.82
504.30	26363.79
504.48	26375.50
504.65	26316.98
504.83	26808.50
505.01	26366.13
505.18	26721.90
505.36	26972.33
505.53	27295.33
505.71	27211.07
505.88	27035.53
506.06	27227.45
506.23	27140.85
506.41	27026.17
506.58	27594.92
506.76	27454.48
506.93	27798.54
507.11	27351.50
507.28	27878.12
507.46	27730.67
507.63	27763.43
507.81	28098.13
507.98	27927.27
508.16	27929.61
508.33	28004.51
508.50	28414.10
508.68	28329.84
508.85	28526.45
509.03	28428.15
509.20	28711.35
509.38	29062.43
509.55	28856.46
509.73	28720.71
509.90	29050.73
510.08	28987.53
510.25	28774.55
510.42	29123.29
510.60	29472.03
510.77	29479.05
510.95	29469.69
511.12	29184.14
511.30	29596.07
511.47	29745.87
511.64	29537.56
511.82	30073.54
511.99	30087.59
512.17	29989.28
512.34	30256.11
512.51	30625.91
512.69	30347.39
512.86	30462.07
513.04	30841.24
513.21	30328.66
513.38	30396.54
513.56	30485.48
513.73	30436.33
513.90	30574.42
514.08	30511.22
514.25	31044.87
514.43	30574.42
514.60	30394.20
514.77	30717.19
514.95	31098.70
515.12	31290.62
515.29	31065.93
515.47	31454.46
515.64	31688.51
515.81	31395.95
515.99	31477.86
516.16	31316.37
516.33	31599.57
516.51	31229.77
516.68	31585.53
516.85	31056.57
517.03	31658.09
517.20	31772.77
517.37	32187.05
517.54	32472.59
517.72	32275.99
517.89	31732.98
518.06	32208.11
518.24	32142.58
518.41	32020.87
518.58	31999.80
518.75	31957.67
518.93	32730.05
519.10	32708.99
519.27	32655.15
519.45	32879.85
519.62	33055.39
519.79	32921.98
519.96	33003.89
520.14	33413.49
520.31	32863.46
520.48	33237.95
520.65	33429.87
520.83	33223.90
521.00	33890.96
521.17	33626.48
521.34	33535.20
521.52	33469.66
521.69	33827.76
521.86	34031.39
522.03	34183.52
522.20	33879.25
522.38	33961.17
522.55	33977.56
522.72	34110.97
522.89	33823.08
523.07	34377.79
523.24	33902.66
523.41	34342.68
523.58	34412.90
523.75	34906.75
523.92	34471.41
524.10	34885.68
524.27	34466.73
524.44	34621.20
524.61	34742.91
524.78	35035.48
524.96	34979.31
525.13	35318.68
525.30	35419.33
525.47	35405.28
525.64	35115.06
525.81	35098.67
525.98	35152.51
526.16	34920.79
526.33	35419.33
526.50	35402.94
526.67	34906.75
526.84	35807.86
527.01	35384.22
527.18	35737.64
527.36	35732.96
527.53	36140.21
527.70	35810.20
527.87	35964.67
528.04	35634.66
528.21	36002.12
528.38	35735.30
528.55	36041.91
528.72	36313.41
528.89	36617.68
529.07	36297.03
529.24	36203.41
529.41	36299.37
529.58	36084.04
529.75	36301.71
529.92	36940.68
530.09	36584.91
530.26	36577.89
530.43	36760.45
530.60	36402.35
530.77	36524.06
530.94	36882.16
531.11	36697.26
531.28	36952.38
531.46	37441.55
531.63	37326.86
531.80	37095.15
531.97	37109.19
532.14	36999.19
532.31	36825.99
532.48	37050.68
532.65	37954.13
532.82	37191.11
532.99	37481.34
533.16	37523.47
533.33	37708.37
533.50	37612.41
533.67	37886.25
533.84	37263.67
534.01	37883.91
534.18	37677.94
534.35	38146.05
534.52	37734.12
534.69	38557.99
534.86	37799.65
535.03	37790.29
535.20	38279.46
535.37	38216.27
535.54	38621.18
535.71	38277.12
535.88	37762.20
536.05	38508.83
536.22	38429.26
536.38	38543.94
536.55	38389.47
536.72	38391.81
536.89	38188.18
537.06	38440.96
537.23	38602.46
537.40	38639.90
537.57	38787.36
537.74	38546.28
537.91	39086.95
538.08	39096.31
538.25	38831.83
538.42	38780.34
538.59	38820.13
538.75	38953.54
538.92	39115.03
539.09	39061.20
539.26	39412.28
539.43	39269.51
539.60	39178.23
539.77	39044.82
539.94	39494.20
540.11	39440.37
540.28	39227.38
540.44	38944.17
540.61	39374.83
540.78	38986.30
540.95	39423.98
541.12	39407.60
541.29	39255.46
541.46	39594.84
541.62	39491.86
541.79	39697.83
541.96	39585.48
542.13	39814.85
542.30	39407.60
542.47	39828.90
542.63	39541.01
542.80	39929.54
542.97	40367.22
543.14	40870.43
543.31	40062.95
543.48	40645.74
543.64	40795.54
543.81	40381.26
543.98	40357.86
544.15	40399.99
544.32	40842.35
544.48	40818.94
544.65	40563.82
544.82	40704.26
544.99	40189.34
545.16	40795.54
545.32	40509.99
545.49	41071.72
545.66	41088.10
545.83	41057.68
546.00	41488.34
546.16	40959.38
546.33	40832.99
546.50	40767.45
546.67	41088.10
546.83	40552.12
547.00	41083.42
547.17	41287.05
547.34	41074.06
547.50	41043.63
547.67	41411.10
547.84	41319.82
548.00	41584.30
548.17	41439.18
548.34	41509.40
548.51	41570.25
548.67	41853.46
548.84	41401.74
549.01	41383.01
549.18	41659.20
549.34	41762.18
549.51	41500.04
549.68	41570.25
549.84	41631.11
550.01	42267.73
550.18	41593.66
550.34	41961.12
550.51	41811.33
550.68	41535.15
550.84	41420.46
551.01	42183.48
551.18	41951.76
551.34	41956.44
551.51	42122.62
551.68	42190.50
551.84	42246.67
552.01	41598.34
552.18	42316.89
552.34	42024.32
552.51	42096.88
552.68	41893.25
552.84	42256.03
553.01	42597.75
553.18	42124.96
553.34	42045.38
553.51	42113.26
553.67	42019.64
553.84	42541.58
554.01	42555.62
554.17	43016.71
554.34	42721.80
554.51	42684.35
554.67	42948.83
554.84	42712.44
555.00	42628.18
555.17	42808.40
555.33	42590.73
555.50	42890.32
555.67	42897.34
555.83	42462.00
556.00	42855.21
556.16	43292.89
556.33	42721.80
556.50	43302.25
556.66	43021.39
556.83	42632.86
556.99	43000.32
557.16	43398.21
557.32	43381.83
557.49	43192.25
557.65	42717.12
557.82	42887.98
557.98	42698.39
558.15	43353.74
558.32	42976.92
558.48	43480.13
558.65	42976.92
558.81	43421.62
558.98	43386.51
559.14	43461.41
559.31	43203.95
559.47	43161.82
559.64	43646.31
559.80	43529.28
559.97	43831.21
560.13	43405.23
560.30	43257.78
560.46	43604.18
560.63	43552.69
560.79	43592.48
560.96	43414.60
561.12	43660.35
561.29	43283.53
561.45	43487.15
561.61	43482.47
561.78	43536.30
561.94	43524.60
562.11	43278.85
562.27	43353.74
562.44	43316.29
562.60	43643.97
562.77	43714.19
562.93	43536.30
563.10	43653.33
563.26	43164.16
563.42	43882.70
563.59	43810.15
563.75	43964.62
563.92	44261.87
564.08	44081.65
564.24	44037.18
564.41	43997.39
564.57	43615.88
564.74	43800.79
564.90	43634.61
565.07	44088.67
565.23	43892.07
565.39	43831.21
565.56	44257.19
565.72	43999.73
565.88	43889.73
566.05	43718.87
566.21	43934.20
566.38	43438.00
566.54	44009.09
566.70	43721.21
566.87	44109.74
567.03	44062.93
567.19	44411.67
567.36	44292.30
567.52	43697.80
567.68	44065.27
567.85	43782.06
568.01	44081.65
568.17	43859.30
568.34	43952.92
568.50	43833.55
568.66	43761.00
568.83	44318.04
568.99	43971.64
569.15	44587.21
569.32	43856.96
569.48	43786.74
569.64	44081.65
569.81	44547.42
569.97	44002.07
570.13	44168.25
570.30	43732.91
570.46	43573.75
570.62	43983.35
570.78	43412.26
570.95	44191.65
571.11	44245.49
571.27	44446.77
571.43	43793.76
571.60	44273.57
571.76	44048.88
571.92	44165.91
572.09	44208.04
572.25	44261.87
572.41	43920.15
572.57	44002.07
572.74	44615.29
572.90	44409.32
573.06	44472.52
573.22	44083.99
573.38	44006.75
573.55	44037.18
573.71	44404.64
573.87	44289.96
574.03	43945.90
574.20	44538.05
574.36	43983.35
574.52	44144.84
574.68	44252.51
574.84	44559.12
575.01	44002.07
575.17	44486.56
575.33	44350.81
575.49	44289.96
575.65	44535.71
575.82	44540.39
575.98	43910.79
576.14	44839.98
576.30	44629.34
576.46	44243.15
576.62	44343.79
576.79	44479.54
576.95	43669.72
577.11	44350.81
577.27	44577.84
577.43	44694.87
577.59	44533.37
577.75	44947.65
577.92	44287.62
578.08	44191.65
578.24	44254.85
578.40	44652.74
578.56	44491.24
578.72	44374.22
578.88	44411.67
579.04	44542.74
579.21	44259.53
579.37	44299.32
579.53	44676.15
579.69	44364.85
579.85	44493.58
580.01	44634.02
580.17	44580.18
580.33	44554.44
580.49	44369.54
580.65	44584.86
580.82	45020.20
580.98	44154.21
581.14	44612.95
581.30	44444.43
581.46	44872.75
581.62	44325.07
581.78	44140.16
581.94	44748.70
582.10	44259.53
582.26	44542.74
582.42	44802.53
582.58	44769.77
582.74	44044.20
582.90	44692.53
583.06	44444.43
583.22	45237.87
583.38	44774.45
583.54	44905.52
583.70	44467.84
583.86	44093.35
584.02	44208.04
584.18	44737.00
584.34	44825.94
584.50	44610.61
584.66	44645.72
584.82	44505.29
584.98	45202.77
585.14	44769.77
585.30	44502.95
585.46	44685.51
585.62	44842.32
585.78	44435.07
585.94	44315.70
586.10	44421.03
586.26	44416.35
586.42	44945.31
586.58	44886.79
586.74	44692.53
586.90	44697.21
587.06	44619.97
587.22	44744.02
587.38	44638.70
587.54	44849.35
587.70	44687.85
587.86	44891.48
588.02	44964.03
588.18	45523.42
588.34	44573.16
588.49	44458.48
588.65	44760.40
588.81	44343.79
588.97	44615.29
589.13	44491.24
589.29	44463.16
589.45	44947.65
589.61	44491.24
589.77	44659.76
589.93	44657.42
590.08	44610.61
590.24	45296.39
590.40	44982.76
590.56	44872.75
590.72	45123.19
590.88	44505.29
591.04	44673.81
591.20	45235.53
591.35	44814.24
591.51	44985.10
591.67	44626.99
591.83	45280.00
591.99	44748.70
592.15	44418.69
592.31	44769.77
592.46	44556.78
592.62	44837.64
592.78	44870.41
592.94	44414.01
593.10	44835.30
593.26	45181.70
593.41	44978.07
593.57	44439.75
593.73	44751.04
593.89	45097.44
594.05	45179.36
594.20	44446.77
594.36	45284.68
594.52	44570.82
594.68	44722.96
594.84	44870.41
594.99	45148.93
595.15	44673.81
595.31	44835.30
595.47	45202.77
595.62	45099.78
595.78	45003.82
595.94	45326.81
596.10	45261.28
596.25	45233.19
596.41	44978.07
596.57	45029.57
596.73	45258.94
596.88	44687.85
597.04	45024.89
597.20	44697.21
597.36	45312.77
597.51	45275.32
597.67	45111.49
597.83	45184.04
597.99	45261.28
598.14	45237.87
598.30	45017.86
598.46	45062.33
598.61	45174.68
598.77	44898.50
598.93	44797.85
599.09	45008.50
599.24	45429.80
599.40	45322.13
599.56	45102.12
599.71	45530.44
599.87	45298.73
600.03	45326.81
600.18	44917.22
600.34	44996.80
600.50	45113.83
600.65	44975.73
600.81	45436.82
600.97	45280.00
601.12	45265.96
601.28	45219.15
601.44	45090.42
601.59	44884.45
601.75	44411.67
601.91	44879.77
602.06	44636.36
602.22	45317.45
602.37	44659.76
602.53	45095.10
602.69	45298.73
602.84	45153.62
603.00	44751.04
603.16	44832.96
603.31	44713.59
603.47	44732.32
603.62	44751.04
603.78	44753.38
603.94	44870.41
604.09	45226.17
604.25	45375.97
604.40	45095.10
604.56	44865.73
604.71	45474.27
604.87	44666.78
605.03	44949.99
605.18	44882.11
605.34	45088.08
605.49	45062.33
605.65	45411.07
605.80	44451.45
605.96	45361.92
606.12	44964.03
606.27	45113.83
606.43	44952.33
606.58	45216.81
606.74	45074.04
606.89	44722.96
607.05	44847.00
607.20	44795.51
607.36	44690.19
607.51	45448.52
607.67	44509.97
607.82	44570.82
607.98	44603.59
608.13	45027.23
608.29	44531.03
608.44	44589.55
608.60	44259.53
608.75	44704.23
608.91	44346.13
609.06	45081.06
609.22	45193.40
609.37	44629.34
609.53	44561.46
609.68	44921.90
609.84	44502.95
609.99	44299.32
610.15	44708.91
610.30	44678.49
610.46	44275.91
610.61	44020.80
610.76	44823.60
610.92	44425.71
611.07	44662.10
611.23	44409.32
611.38	44811.90
611.54	44041.86
611.69	44329.75
611.84	44535.71
612.00	44451.45
612.15	44079.31
612.31	44491.24
612.46	44713.59
612.62	44266.55
612.77	44334.43
612.92	44285.28
613.08	44414.01
613.23	44285.28
613.39	44030.16
613.54	43966.96
613.69	43863.98
613.85	44144.84
614.00	44254.85
614.15	44601.25
614.31	44306.34
614.46	44364.85
614.62	44222.08
614.77	44144.84
614.92	44091.01
615.08	43793.76
615.23	43859.30
615.38	43913.13
615.54	43739.93
615.69	43768.02
615.84	43728.23
616.00	43786.74
616.15	43831.21
616.30	44032.50
616.46	43487.15
616.61	43356.08
616.76	43555.03
616.92	43304.59
617.07	43622.90
617.22	43379.49
617.37	43819.51
617.53	43920.15
617.68	43452.05
617.83	43653.33
617.99	43704.82
618.14	43903.77
618.29	43536.30
618.45	43690.78
618.60	43505.88
618.75	43260.12
618.90	43332.68
619.06	43456.73
619.21	44013.77
619.36	43564.39
619.51	42979.26
619.67	43613.54
619.82	43573.75
619.97	43498.86
620.12	43072.88
620.28	43054.15
620.43	42995.64
620.58	42813.08
620.73	42911.38
620.89	43325.66
621.04	43063.52
621.19	43288.21
621.34	43068.20
621.49	43325.66
621.65	43154.80
621.80	43185.22
621.95	42405.83
622.10	42745.20
622.25	42813.08
622.41	42831.80
622.56	42532.22
622.71	43056.50
622.86	42506.47
623.01	42756.91
623.16	43208.63
623.32	42972.24
623.47	43320.98
623.62	42923.08
623.77	42848.19
623.92	42614.13
624.07	42380.08
624.23	42492.43
624.38	42349.65
624.53	42403.49
624.68	42459.66
624.83	42462.00
624.98	42658.60
625.13	42246.67
625.29	42408.17
625.44	42775.63
625.59	42249.01
625.74	42253.69
625.89	41897.93
626.04	41748.14
626.19	42232.63
626.34	42454.98
626.49	42387.10
626.65	42653.92
626.80	42349.65
626.95	42157.73
627.10	42050.06
627.25	42164.75
627.40	41750.48
627.55	41827.71
627.70	41507.06
627.85	41780.90
628.00	41455.57
628.15	42314.55
628.30	42010.28
628.45	42447.96
628.60	42164.75
628.76	42085.17
628.91	41949.42
629.06	41998.57
629.21	41757.50
629.36	41872.18
629.51	41247.26
629.66	41338.54
629.81	41591.32
629.96	41570.25
630.11	41961.12
630.26	41698.98
630.41	41397.06
630.56	41661.54
630.71	41528.13
630.86	41514.08
631.01	41118.53
631.16	41607.70
631.31	41284.71
631.46	40776.81
631.61	41387.69
631.76	41448.55
631.91	41289.39
632.06	41457.91
632.21	41191.09
632.36	41074.06
632.51	41078.74
632.66	41404.08
632.81	40713.62
632.96	41282.37
633.10	40807.24
633.25	40577.87
633.40	40891.50
633.55	41294.07
633.70	41071.72
633.85	40835.33
634.00	41034.27
634.15	41041.29
634.30	40921.93
634.45	40762.77
634.60	40432.75
634.75	40704.26
634.90	40648.08
635.05	40893.84
635.19	40414.03
635.34	40526.38
635.49	40788.52
635.64	40701.92
635.79	40636.38
635.94	40437.44
636.09	40409.35
636.24	40114.44
636.39	40273.60
636.53	40055.93
636.68	40381.26
636.83	40491.27
636.98	40294.66
637.13	40329.77
637.28	39931.88
637.43	40102.74
637.57	40584.89
637.72	40341.47
637.87	40699.58
638.02	40325.09
638.17	40325.09
638.32	39959.97
638.46	40123.80
638.61	40304.02
638.76	39779.74
638.91	39899.11
639.06	39842.94
639.20	39739.96
639.35	40268.92
639.50	39756.34
639.65	40238.49
639.80	39924.86
639.94	39562.08
640.09	39672.08
640.24	39770.38
640.39	39751.66
640.54	39580.80
640.68	39758.68
640.83	40018.48
640.98	39658.04
641.13	39374.83
641.27	39777.40
641.42	39723.57
641.57	39651.02
641.72	39711.87
641.86	39431.01
642.01	38927.79
642.16	39496.54
642.31	39203.97
642.45	39040.14
642.60	39112.69
642.75	39360.79
642.90	39599.52
643.04	39108.01
643.19	39313.98
643.34	39571.44
643.48	39475.48
643.63	39159.50
643.78	39234.40
643.93	38850.55
644.07	38684.37
644.22	39079.92
644.37	39056.52
644.51	38810.76
644.66	38827.15
644.81	39407.60
644.95	39068.22
645.10	39250.78
645.25	39171.21
645.39	39508.24
645.54	39213.34
645.69	38728.84
645.83	39072.90
645.98	38396.49
646.13	39131.42
646.27	38815.44
646.42	39129.08
646.57	38801.40
646.71	38960.56
646.86	38782.68
647.00	38724.16
647.15	38733.53
647.30	38958.22
647.44	38728.84
647.59	38803.74
647.74	38522.88
647.88	38459.68
648.03	38354.36
648.17	38604.80
648.32	38225.63
648.47	38412.87
648.61	38316.91
648.76	38267.76
648.90	38171.80
649.05	38349.68
649.20	38499.47
649.34	38438.62
649.49	38033.71
649.63	38253.72
649.78	38157.75
649.92	38124.99
650.07	38735.87
650.21	38143.71
650.36	38307.55
650.51	38443.30
650.65	38178.82
650.80	38380.10
650.94	37986.89
651.09	38234.99
651.23	38337.98
651.38	38022.00
651.52	37879.23
651.67	38033.71
651.81	38220.95
651.96	37610.07
652.10	38089.88
652.25	37940.08
652.39	37801.99
652.54	37687.31
652.68	38155.41
652.83	37823.06
652.97	38014.98
653.12	37876.89
653.26	37881.57
653.41	37635.81
653.55	38010.30
653.70	37780.93
653.84	37750.50
653.99	37614.75
654.13	37958.81
654.27	37652.20
654.42	37855.82
654.56	37462.61
654.71	37652.20
654.85	37256.65
655.00	37762.20
655.14	37022.59
655.29	36643.43
655.43	37125.58
655.57	36980.46
655.72	37156.00
655.86	36919.61
656.01	37034.30
656.15	37088.13
656.30	36655.13
656.44	36868.12
656.58	36645.77
656.73	36945.36
656.87	37151.32
657.01	36898.55
657.16	36727.69
657.30	36325.11
657.45	37010.89
657.59	36849.39
657.73	36683.22
657.88	36460.87
658.02	36701.94
658.16	36790.88
658.31	36723.01
658.45	36959.40
658.60	36062.97
658.74	36828.33
658.88	36748.75
659.03	36208.09
659.17	35826.58
659.31	36224.47
659.46	36025.53
659.60	36348.52
659.74	36041.91
659.89	36093.40
660.03	36266.60
660.17	36404.69
660.32	36119.15
660.46	36364.90
660.60	36196.38
660.74	36048.93
660.89	36119.15
661.03	35810.20
661.17	35814.88
661.32	35395.92
661.46	35489.54
661.60	35461.46
661.74	35665.08
661.89	35821.90
662.03	36224.47
662.17	36149.57
662.31	35079.95
662.46	35679.13
662.60	35409.96
662.74	35578.48
662.88	35250.81
663.03	35065.91
663.17	34916.11
663.31	34719.51
663.45	35189.95
663.60	35239.11
663.74	34703.12
663.88	34806.11
664.02	34796.74
664.17	34644.61
664.31	34448.00
664.45	34288.85
664.59	34543.97
664.73	34618.86
664.88	35033.14
665.02	34148.42
665.16	34693.76
665.30	34780.36
665.44	34527.58
665.59	33883.94
665.73	33823.08
665.87	34117.99
666.01	34249.06
666.15	34094.58
666.29	34230.33
666.44	34426.94
666.58	34017.35
666.72	33909.68
666.86	34003.30
667.00	34019.69
667.14	34007.98
667.28	33816.06
667.43	33851.17
667.57	33525.83
667.71	33846.49
667.85	33954.15
667.99	33542.22
668.13	33467.32
668.27	33366.68
668.41	33394.76
668.56	33390.08
668.70	33113.90
668.84	33432.21
668.98	33212.20
669.12	32865.80
669.26	32811.97
669.40	32858.78
669.54	32980.49
669.68	32863.46
669.82	32856.44
669.96	32758.14
670.10	32353.23
670.25	32945.38
670.39	32622.39
670.53	32854.10
670.67	32533.45
670.81	32517.06
670.95	32580.26
671.09	32830.69
671.23	32606.00
671.37	32650.47
671.51	32023.21
671.65	31922.57
671.79	32055.98
671.93	32084.06
672.07	32290.03
672.21	31967.04
672.35	31988.10
672.49	31978.74
672.63	31592.55
672.77	31697.88
672.91	31772.77
673.05	31620.64
673.19	31213.38
673.33	31332.75
673.47	31484.89
673.61	31204.02
673.75	31325.73
673.89	31405.31
674.03	30841.24
674.17	30796.77
674.31	31098.70
674.45	31047.21
674.59	31393.61
674.73	31220.41
674.87	30670.38
675.01	30677.40
675.15	30803.79
675.29	31035.50
675.43	30738.26
675.56	30602.50
675.70	30298.23
675.84	30202.27
675.98	29455.64
676.12	30150.78
676.26	29837.15
676.40	30192.91
676.54	30082.91
676.68	30148.44
676.82	29102.22
676.96	29673.31
677.10	29488.41
677.23	29207.55
677.37	29294.14
677.51	29364.36
677.65	29053.07
677.79	28826.04
677.93	28414.10
678.07	29020.30
678.21	28421.13
678.34	28692.63
678.48	28709.01
678.62	28627.09
678.76	28650.50
678.90	28208.14
679.04	28266.65
679.18	28603.69
679.31	27995.15
679.45	27754.07
679.59	28044.30
679.73	27676.83
679.87	27981.10
680.00	27676.83
680.14	27604.28
680.28	27744.71
680.42	27520.02
680.56	27358.52
680.70	27503.64
680.83	26806.16
680.97	27171.28
681.11	27040.21
681.25	26691.47
681.39	26684.45
681.52	26946.59
681.66	26761.69
681.80	26838.92
681.94	26611.89
682.07	26338.05
682.21	26309.96
682.35	26331.03
682.49	26279.54
682.62	26146.12
682.76	26319.32
682.90	26106.34
683.04	25671.00
683.17	25694.40
683.31	25741.21
683.45	25949.52
683.59	25305.87
683.72	25179.48
683.86	25223.95
684.00	24854.15
684.13	25769.30
684.27	25177.14
684.41	24954.79
684.55	25202.89
684.68	24975.86
684.82	24432.85
684.96	24870.53
685.09	24774.57
685.23	24566.26
685.37	24484.34
685.50	24486.68
685.64	24503.07
685.78	23929.64
685.91	24149.65
686.05	24053.69
686.19	23777.50
686.32	23985.81
686.46	23515.36
686.60	23562.17
686.73	23253.22
686.87	23133.86
687.01	23311.74
687.14	23520.04
687.28	22693.83
687.42	22998.10
687.55	22904.48
687.69	22764.05
687.82	22906.82
687.96	22647.02
688.10	22429.35
688.23	22457.44
688.37	22300.62
688.50	21874.65
688.64	22153.17
688.78	22405.95
688.91	22216.36
689.05	22340.41
689.18	22415.31
689.32	21584.42
689.46	21921.46
689.59	21736.56
689.73	22118.06
689.86	22005.72
690.00	21605.49
690.13	21647.61
690.27	21591.44
690.41	21483.78
690.54	21116.31
690.68	21465.05
690.81	21312.92
690.95	20730.12
691.08	21022.69
691.22	20582.67
691.35	20912.69
691.49	21097.59
691.62	20924.39
691.76	20772.25
691.89	20538.20
692.03	20512.46
692.16	20177.76
692.30	20318.19
692.43	20154.35
692.57	20077.12
692.70	20247.97
692.84	20105.20
692.97	19777.53
693.11	19580.92
693.24	19852.42
693.38	19353.89
693.51	19534.11
693.65	19510.71
693.78	19754.12
693.92	19353.89
694.05	19087.07
694.19	19068.34
694.32	18984.09
694.45	19119.84
694.59	18813.23
694.72	19140.90
694.86	19105.79
694.99	18623.64
695.13	18860.04
695.26	18726.63
695.39	18450.44
695.53	18331.08
695.66	18368.52
695.80	18260.86
695.93	18352.14
696.07	18169.58
696.20	17951.91
696.33	18207.03
696.47	17738.92
696.60	17935.53
696.73	17844.24
696.87	17692.11
697.00	17752.96
697.14	17525.93
697.27	17385.50
697.40	17621.89
697.54	17745.94
697.67	17329.33
697.80	17261.45
697.94	16908.03
698.07	17015.69
698.21	17036.76
698.34	17003.99
698.47	17123.36
698.61	16791.00
698.74	16617.80
698.87	16713.77
699.01	16205.87
699.14	16245.66
699.27	16397.79
699.40	16266.72
699.54	16112.25
699.67	15747.12
699.80	15906.28
699.94	16077.14
700.07	15948.41
700.20	15721.38
700.34	15800.96
700.47	15910.96
700.60	15967.13
700.73	15838.41
700.87	15651.16
701.00	15501.37
701.13	15405.41
701.26	15384.34
701.40	15522.43
701.53	15264.97
701.66	15117.52
701.79	15084.75
701.93	14986.45
702.06	14874.10
702.19	14778.14
702.32	14993.47
702.46	14916.23
702.59	14614.30
702.72	14679.84
702.85	14490.26
702.99	14441.11
703.12	14494.94
703.25	14600.26
703.38	14366.21
703.51	14272.59
703.65	14272.59
703.78	14066.62
703.91	14040.87
704.04	13944.91
704.17	13898.10
704.31	14010.45
704.44	13708.52
704.57	13507.23
704.70	13488.51
704.83	13614.90
704.96	13516.59
705.10	13820.86
705.23	13666.39
>>>>>End Processed Spectral Data<<<<<
