SpectraSuite Data File
++++++++++++++++++++++++++++++++++++
Date: Fri Oct 25 10:48:02 EDT 2013
User: price-jones
Dark Spectrum Present: No
Reference Spectrum Present: No
Number of Sampled Component Spectra: 1
Spectrometers: USB2+H05261
Integration Time (usec): 100000 (USB2+H05261)
Spectra Averaged: 1 (USB2+H05261)
Boxcar Smoothing: 0 (USB2+H05261)
Correct for Electrical Dark: No (USB2+H05261)
Strobe/Lamp Enabled: No (USB2+H05261)
Correct for Detector Non-linearity: No (USB2+H05261)
Correct for Stray Light: No (USB2+H05261)
Number of Pixels in Processed Spectrum: 2048
>>>>>Begin Processed Spectral Data<<<<<
365.73	173.20
365.92	173.20
366.12	173.20
366.32	60.85
366.52	9.36
366.72	63.19
366.91	35.11
367.11	42.13
367.31	51.49
367.51	4.68
367.70	42.13
367.90	23.41
368.10	2.34
368.30	0.00
368.49	0.00
368.69	77.24
368.89	77.24
369.09	25.75
369.28	102.98
369.48	65.54
369.68	102.98
369.87	98.30
370.07	79.58
370.27	131.07
370.47	149.79
370.66	374.49
370.86	411.93
371.06	411.93
371.25	519.60
371.45	430.66
371.65	472.79
371.84	435.34
372.04	418.96
372.24	514.92
372.44	376.83
372.63	531.30
372.83	503.22
373.03	519.60
373.22	477.47
373.42	512.58
373.62	496.19
373.81	484.49
374.01	566.41
374.21	554.71
374.40	477.47
374.60	561.73
374.79	603.86
374.99	571.09
375.19	594.50
375.38	582.79
375.58	484.49
375.78	521.94
375.97	573.43
376.17	662.37
376.37	545.34
376.56	479.81
376.76	528.96
376.95	580.45
377.15	564.07
377.35	545.34
377.54	533.64
377.74	650.67
377.93	575.77
378.13	638.97
378.33	580.45
378.52	641.31
378.72	660.03
378.91	566.41
379.11	711.52
379.31	631.94
379.50	720.88
379.70	697.48
379.89	667.05
380.09	657.69
380.28	631.94
380.48	634.29
380.68	685.78
380.87	674.07
381.07	662.37
381.26	667.05
381.46	610.88
381.65	732.59
381.85	660.03
382.04	636.63
382.24	662.37
382.43	706.84
382.63	699.82
382.83	763.01
383.02	692.80
383.22	856.64
383.41	638.97
383.61	706.84
383.80	763.01
384.00	645.99
384.19	774.72
384.39	744.29
384.58	809.83
384.78	765.36
384.97	784.08
385.17	727.91
385.36	746.63
385.56	807.48
385.75	819.19
385.95	795.78
386.14	791.10
386.34	858.98
386.53	809.83
386.72	648.33
386.92	851.96
387.11	873.02
387.31	814.51
387.50	779.40
387.70	739.61
387.89	849.61
388.09	849.61
388.28	805.14
388.48	844.93
388.67	858.98
388.86	880.04
389.06	905.79
389.25	917.49
389.45	929.19
389.64	856.64
389.84	819.19
390.03	882.38
390.22	968.98
390.42	866.00
390.61	912.81
390.81	873.02
391.00	877.70
391.19	945.58
391.39	936.21
391.58	987.71
391.78	973.66
391.97	957.28
392.16	896.43
392.36	976.00
392.55	976.00
392.75	945.58
392.94	1004.09
393.13	1004.09
393.33	976.00
393.52	999.41
393.71	1039.20
393.91	1071.97
394.10	1013.45
394.29	1078.99
394.49	1055.58
394.68	1006.43
394.88	1111.75
395.07	1100.05
395.26	1046.22
395.46	1109.41
395.65	1172.61
395.84	1153.88
396.04	1174.95
396.23	1088.35
396.42	1062.60
396.62	1137.50
396.81	1046.22
397.00	1111.75
397.19	1179.63
397.39	1123.46
397.58	1139.84
397.77	1217.08
397.97	1224.10
398.16	1261.55
398.35	1224.10
398.55	1249.85
398.74	1299.00
398.93	1303.68
399.12	1282.61
399.32	1348.15
399.51	1376.24
399.70	1294.32
399.90	1338.79
400.09	1371.55
400.28	1404.32
400.47	1287.29
400.67	1446.45
400.86	1418.36
401.05	1441.77
401.24	1439.43
401.44	1507.30
401.63	1526.03
401.82	1521.35
402.01	1500.28
402.21	1493.26
402.40	1502.62
402.59	1446.45
402.78	1556.46
402.97	1589.22
403.17	1582.20
403.36	1570.50
403.55	1657.10
403.74	1610.29
403.93	1612.63
404.13	1617.31
404.32	1589.22
404.51	1577.52
404.70	1696.89
404.89	1636.03
405.09	1799.87
405.28	1708.59
405.47	1650.08
405.66	1633.69
405.85	1743.70
406.05	1746.04
406.24	1743.70
406.43	1753.06
406.62	1689.87
406.81	1802.21
407.00	1762.42
407.20	1727.32
407.39	1743.70
407.58	1820.94
407.77	1858.39
407.96	1935.62
408.15	1947.33
408.34	1820.94
408.54	2054.99
408.73	2012.86
408.92	1977.75
409.11	1937.96
409.30	2083.08
409.49	2029.24
409.68	1907.54
409.87	2052.65
410.07	2127.55
410.26	2057.33
410.45	2118.18
410.64	2141.59
410.83	2204.78
411.02	2062.01
411.21	2244.57
411.40	2267.98
411.59	2303.09
411.78	2326.49
411.98	2352.24
412.17	2223.51
412.36	2251.60
412.55	2340.54
412.74	2399.05
412.93	2438.84
413.12	2399.05
413.31	2525.44
413.50	2483.31
413.69	2462.24
413.88	2518.42
414.07	2616.72
414.26	2612.04
414.45	2588.63
414.64	2644.81
414.83	2619.06
415.02	2644.81
415.22	2654.17
415.41	2754.81
415.60	2743.11
415.79	2909.29
415.98	2883.54
416.17	2829.71
416.36	2766.51
416.55	2846.09
416.74	2895.24
416.93	2867.16
417.12	2974.82
417.31	2778.22
417.50	2960.78
417.69	3080.14
417.88	2970.14
418.07	2960.78
418.26	3150.36
418.45	3141.00
418.64	3159.72
418.83	3056.74
419.02	2991.20
419.21	3096.53
419.39	3246.32
419.58	3136.32
419.77	3229.94
419.96	3171.43
420.15	3218.24
420.34	3227.60
420.53	3199.51
420.72	3342.28
420.91	3335.26
421.10	3337.60
421.29	3290.79
421.48	3337.60
421.67	3487.40
421.86	3396.12
422.05	3424.20
422.24	3344.63
422.43	3323.56
422.61	3475.70
422.80	3604.42
422.99	3428.88
423.18	3475.70
423.37	3473.36
423.56	3541.23
423.75	3482.72
423.94	3543.57
424.13	3112.91
424.32	3426.54
424.50	3407.82
424.69	3548.25
424.88	3569.32
425.07	3475.70
425.26	3365.69
425.45	3566.98
425.64	3529.53
425.83	3478.04
426.01	3611.45
426.20	3665.28
426.39	3503.78
426.58	3496.76
426.77	3471.01
426.96	3550.59
427.15	3632.51
427.33	3644.21
427.52	3463.99
427.71	3679.32
427.90	3691.02
428.09	3758.90
428.28	3613.79
428.46	3796.35
428.65	3735.50
428.84	3985.93
429.03	3885.29
429.22	3686.34
429.40	3742.52
429.59	3686.34
429.78	3538.89
429.97	3524.85
430.16	3646.55
430.34	3948.48
430.53	3918.06
430.72	3864.22
430.91	3899.33
431.10	3904.01
431.28	3873.59
431.47	4095.94
431.66	4030.40
431.85	4016.36
432.03	4053.81
432.22	4212.96
432.41	4145.09
432.60	4304.25
432.79	4191.90
432.97	4278.50
433.16	4264.46
433.35	4126.36
433.54	4074.87
433.72	4109.98
433.91	4081.89
434.10	4217.65
434.28	4269.14
434.47	4283.18
434.66	4365.10
434.85	4437.66
435.03	4477.44
435.22	4339.35
435.41	4519.57
435.59	4540.64
435.78	4629.58
435.97	4540.64
436.16	4367.44
436.34	4454.04
436.53	4423.61
436.72	4660.01
436.90	4454.04
437.09	4674.05
437.28	4479.79
437.46	4685.75
437.65	4620.22
437.84	4545.32
438.02	4690.43
438.21	4578.09
438.40	4582.77
438.58	4816.82
438.77	4662.35
438.96	4777.03
439.14	5001.72
439.33	5013.43
439.52	4947.89
439.70	4887.04
439.89	4994.70
440.08	5074.28
440.26	5172.58
440.45	5235.78
440.63	5160.88
440.82	5170.24
441.01	5149.18
441.19	5430.04
441.38	5380.89
441.57	5348.12
441.75	5579.84
441.94	5572.82
442.12	5341.10
442.31	5535.37
442.50	5458.13
442.68	5486.22
442.87	5579.84
443.05	5701.54
443.24	5865.38
443.43	5673.46
443.61	5930.92
443.80	5769.42
443.98	5650.05
444.17	5348.12
444.35	5661.76
444.54	5820.91
444.73	5734.31
444.91	5870.06
445.10	5769.42
445.28	5687.50
445.47	5638.35
445.65	5694.52
445.84	5813.89
446.02	5809.21
446.21	5907.51
446.39	5708.57
446.58	5699.20
446.77	5977.73
446.95	5788.14
447.14	5666.44
447.32	5879.43
447.51	5905.17
447.69	5874.74
447.88	5867.72
448.06	5804.53
448.25	5970.71
448.43	5930.92
448.62	5851.34
448.80	5923.90
448.99	5954.32
449.17	6026.88
449.36	5954.32
449.54	6104.12
449.73	6310.08
449.91	6235.19
450.10	6160.29
450.28	6452.86
450.46	6265.61
450.65	6237.53
450.83	6354.55
451.02	6260.93
451.20	6436.47
451.39	6303.06
451.57	6272.64
451.76	6464.56
451.94	6401.37
452.13	6478.60
452.31	6347.53
452.49	6296.04
452.68	6502.01
452.86	6441.15
453.05	6455.20
453.23	6537.12
453.42	6478.60
453.60	6553.50
453.78	6572.22
453.97	6537.12
454.15	6499.67
454.34	6537.12
454.52	6656.48
454.70	6747.76
454.89	6651.80
455.07	6780.53
455.26	6722.02
455.44	6920.96
455.62	6841.39
455.81	6860.11
455.99	6895.22
456.17	6909.26
456.36	6927.99
456.54	7007.56
456.73	7185.44
456.91	7358.64
457.09	7192.47
457.28	7279.07
457.46	7040.33
457.64	7075.44
457.83	7110.55
458.01	7159.70
458.19	7353.96
458.38	7246.30
458.56	7304.81
458.74	7176.08
458.93	7279.07
459.11	7220.55
459.29	7342.26
459.48	7557.59
459.66	7337.58
459.84	7466.31
460.03	7330.56
460.21	7492.05
460.39	7426.52
460.57	7531.84
460.76	7653.55
460.94	7482.69
461.12	7527.16
461.31	7573.97
461.49	7719.09
461.67	7789.30
461.85	7875.90
462.04	7667.60
462.22	8252.73
462.40	8053.78
462.59	7836.11
462.77	7854.84
462.95	7857.18
463.13	7665.25
463.32	7943.78
463.50	7936.76
463.68	7950.80
463.86	7899.31
464.05	7868.88
464.23	8042.08
464.41	8067.83
464.59	7789.30
464.78	8334.65
464.96	8079.53
465.14	8098.25
465.32	8201.24
465.50	8142.72
465.69	8149.75
465.87	8205.92
466.05	8116.98
466.23	8147.40
466.41	8222.30
466.60	8454.02
466.78	8215.28
466.96	8049.10
467.14	8402.52
467.32	8479.76
467.51	8697.43
467.69	8334.65
467.87	8308.90
468.05	8468.06
468.23	8430.61
468.41	8477.42
468.60	8526.57
468.78	8498.49
468.96	8362.73
469.14	8695.09
469.32	8908.08
469.50	8667.00
469.69	8765.31
469.87	8828.50
470.05	8903.40
470.23	8882.33
470.41	8877.65
470.59	8671.68
470.77	8805.10
470.95	8884.67
471.14	9156.18
471.32	9062.55
471.50	9163.20
471.68	9135.11
471.86	9202.99
472.04	9200.65
472.22	9561.09
472.40	9352.78
472.58	9242.78
472.77	9418.32
472.95	9521.30
473.13	9729.61
473.31	9514.28
473.49	9408.95
473.67	9493.21
473.85	9673.43
474.03	9788.12
474.21	9834.93
474.39	9907.49
474.57	9776.42
474.75	9816.21
474.93	10099.41
475.12	10022.17
475.30	10036.22
475.48	9975.36
475.66	10188.35
475.84	10216.44
476.02	10169.63
476.20	10354.53
476.38	10635.39
476.56	10675.18
476.74	10611.99
476.92	10420.06
477.10	10520.71
477.28	10993.50
477.46	10738.38
477.64	10892.85
477.82	11164.36
478.00	11290.74
478.18	11255.64
478.36	11288.40
478.54	11204.14
478.72	11398.41
478.90	11566.93
479.08	11707.36
479.26	11840.77
479.44	11765.87
479.62	11974.18
479.80	11829.07
479.98	12049.08
480.16	12208.23
480.34	12119.29
480.52	12346.33
480.70	12372.07
480.88	12278.45
481.06	12512.50
481.24	12365.05
481.41	12776.98
481.59	12781.67
481.77	12989.97
481.95	12957.21
482.13	12971.25
482.31	12915.08
482.49	13341.05
482.67	13373.82
482.85	13488.51
483.03	13752.99
483.21	13811.50
483.39	13806.82
483.57	13867.67
483.74	13645.32
483.92	14101.73
484.10	13898.10
484.28	14403.66
484.46	14572.18
484.64	14750.06
484.82	14548.77
485.00	14630.69
485.18	14782.82
485.35	14944.32
485.53	14827.29
485.71	14970.07
485.89	15206.46
486.07	15009.86
486.25	15108.16
486.43	15346.89
486.61	15344.55
486.78	15625.42
486.96	15702.65
487.14	16390.77
487.32	16114.59
487.50	16280.77
487.68	16409.50
487.85	16369.71
488.03	16851.86
488.21	16929.09
488.39	16833.13
488.57	17076.55
488.75	16610.78
488.92	16992.29
489.10	17235.70
489.28	17408.90
489.46	17818.50
489.64	17692.11
489.81	17996.38
489.99	18214.05
490.17	18242.14
490.35	18270.22
490.53	18565.13
490.70	18441.08
490.88	18499.59
491.06	18920.89
491.24	18838.97
491.41	18862.38
491.59	19042.60
491.77	18883.44
491.95	19157.28
492.13	19126.86
492.30	19714.33
492.48	19686.25
492.66	19885.19
492.84	19786.89
493.01	20053.71
493.19	19824.34
493.37	20201.16
493.54	20458.62
493.72	20720.76
493.90	20563.95
494.08	20833.11
494.25	21008.65
494.43	21060.14
494.61	21184.19
494.79	21376.11
494.96	21376.11
495.14	21231.00
495.32	21638.25
495.49	21895.71
495.67	21781.03
495.85	21766.98
496.02	21876.99
496.20	22387.22
496.38	22286.58
496.55	22345.09
496.73	22429.35
496.91	22703.20
497.09	22328.71
497.26	23094.07
497.44	22752.35
497.62	22883.42
497.79	23033.21
497.97	23302.37
498.14	23309.40
498.32	23637.07
498.50	23424.08
498.67	23583.24
498.85	23749.42
499.03	23721.33
499.20	23468.55
499.38	24191.78
499.56	24304.12
499.73	24149.65
499.91	24056.03
500.08	24465.62
500.26	24264.33
500.44	24596.69
500.61	24498.39
500.79	24177.73
500.97	24812.02
501.14	24861.17
501.32	24929.05
501.49	25158.42
501.67	25097.56
501.84	24957.13
502.02	25338.64
502.20	25296.51
502.37	25546.95
502.55	25373.75
502.72	25614.82
502.90	25820.79
503.07	25359.70
503.25	26054.84
503.43	25600.78
503.60	26003.35
503.78	25654.61
503.95	26206.98
504.13	26391.88
504.30	26197.62
504.48	26424.65
504.65	26436.35
504.83	26672.74
505.01	26773.39
505.18	26852.97
505.36	27058.93
505.53	26576.78
505.71	27168.94
505.88	27360.86
506.06	26845.94
506.23	27344.48
506.41	27417.04
506.58	27484.91
506.76	27510.66
506.93	27768.12
507.11	27711.94
507.28	27438.10
507.46	27655.77
507.63	27615.98
507.81	27789.18
507.98	27861.74
508.16	28098.13
508.33	28425.81
508.50	28025.57
508.68	28407.08
508.85	28634.11
509.03	28304.10
509.20	28498.36
509.38	28727.74
509.55	28957.11
509.73	28706.67
509.90	28971.15
510.08	28776.89
510.25	29118.60
510.42	29460.32
510.60	28957.11
510.77	29254.36
510.95	29425.22
511.12	29649.91
511.30	30031.41
511.47	29663.95
511.64	29993.97
511.82	29935.45
511.99	29635.86
512.17	29692.04
512.34	29748.21
512.51	29881.62
512.69	30228.02
512.86	30483.14
513.04	30256.11
513.21	30593.14
513.38	30080.56
513.56	30433.99
513.73	30122.69
513.90	30883.37
514.08	30497.18
514.25	30492.50
514.43	30848.26
514.60	30972.31
514.77	30831.88
514.95	31180.62
515.12	31028.48
515.29	31295.30
515.47	31000.40
515.64	31339.77
515.81	31435.74
515.99	31527.02
516.16	31587.87
516.33	31527.02
516.51	31557.44
516.68	31711.92
516.85	31419.35
517.03	31679.15
517.20	31466.16
517.37	31943.63
517.54	31971.72
517.72	32123.85
517.89	31648.72
518.06	31880.44
518.24	31791.50
518.41	31950.65
518.58	32229.18
518.75	32395.35
518.93	32467.91
519.10	32493.66
519.27	32505.36
519.45	32748.78
519.62	32758.14
519.79	32706.65
519.96	33022.62
520.14	33130.28
520.31	32917.29
520.48	32945.38
520.65	33090.49
520.83	33317.53
521.00	33544.56
521.17	33308.16
521.34	33738.82
521.52	33574.98
521.69	33624.14
521.86	33926.07
522.03	33741.16
522.20	33909.68
522.38	33797.34
522.55	34375.45
522.72	34115.65
522.89	34012.66
523.07	34185.86
523.24	34019.69
523.41	34211.61
523.58	34204.59
523.75	34553.33
523.92	34190.55
524.10	34384.81
524.27	35079.95
524.44	34962.92
524.61	34897.39
524.78	35061.22
524.96	35101.01
525.13	35234.42
525.30	35103.35
525.47	35384.22
525.64	34941.86
525.81	35058.88
525.98	34951.22
526.16	35091.65
526.33	35012.07
526.50	35686.15
526.67	34932.50
526.84	35522.31
527.01	35119.74
527.18	35189.95
527.36	35831.26
527.53	35819.56
527.70	36224.47
527.87	35754.02
528.04	36229.15
528.21	35959.99
528.38	35775.09
528.55	36519.38
528.72	36126.17
528.89	36184.68
529.07	36250.22
529.24	36098.08
529.41	36163.62
529.58	35964.67
529.75	36261.92
529.92	36587.25
530.09	36950.04
530.26	36601.30
530.43	36854.08
530.60	36921.95
530.77	36840.03
530.94	36919.61
531.11	36720.66
531.28	36957.06
531.46	36840.03
531.63	37034.30
531.80	37200.47
531.97	37326.86
532.14	37301.12
532.31	37003.87
532.48	37041.32
532.65	37682.62
532.82	36898.55
532.99	37706.03
533.16	37130.26
533.33	37368.99
533.50	37476.66
533.67	37174.73
533.84	37230.90
534.01	37900.29
534.18	37404.10
534.35	38422.23
534.52	38073.49
534.69	37862.85
534.86	38148.39
535.03	37846.46
535.20	37710.71
535.37	38305.21
535.54	38157.75
535.71	38000.94
535.88	38227.97
536.05	38080.52
536.22	38225.63
536.38	38607.14
536.55	38305.21
536.72	38415.21
536.89	38139.03
537.06	38227.97
537.23	38534.58
537.40	38548.62
537.57	38300.53
537.74	38436.28
537.91	39283.55
538.08	39133.76
538.25	38347.34
538.42	39082.27
538.59	38770.97
538.75	38644.59
538.92	38871.62
539.09	39409.94
539.26	38932.47
539.43	38810.76
539.60	39274.19
539.77	39225.04
539.94	39222.70
540.11	39049.50
540.28	39241.42
540.44	39070.56
540.61	39189.93
540.78	39386.54
540.95	39290.57
541.12	39218.02
541.29	39276.53
541.46	39501.22
541.62	39452.07
541.79	39688.46
541.96	39098.65
542.13	39573.78
542.30	39693.15
542.47	39716.55
542.63	39803.15
542.80	39901.45
542.97	40374.24
543.14	40149.55
543.31	40275.94
543.48	40093.38
543.64	40334.45
543.81	39896.77
543.98	40535.74
544.15	40252.53
544.32	41034.27
544.48	40786.18
544.65	41179.39
544.82	40840.01
544.99	40025.50
545.16	40343.81
545.32	40678.51
545.49	41088.10
545.66	40818.94
545.83	40741.71
546.00	41020.23
546.16	40570.85
546.33	40673.83
546.50	40289.98
546.67	40711.28
546.83	40224.45
547.00	40863.41
547.17	41006.19
547.34	40690.21
547.50	41256.62
547.67	41408.76
547.84	41380.67
548.00	41436.84
548.17	41600.68
548.34	41074.06
548.51	41596.00
548.67	41481.31
548.84	41612.38
549.01	41186.41
549.18	41563.23
549.34	41911.97
549.51	42202.20
549.68	41961.12
549.84	41846.44
550.01	42031.34
550.18	41511.74
550.34	41315.14
550.51	41649.83
550.68	41418.12
550.84	41675.58
551.01	41940.06
551.18	42052.41
551.34	41893.25
551.51	42272.42
551.68	41900.27
551.84	42190.50
552.01	42012.62
552.18	41600.68
552.34	41811.33
552.51	41979.85
552.68	42253.69
552.84	42295.82
553.01	42366.04
553.18	42305.18
553.34	41968.15
553.51	41956.44
553.67	42429.23
553.84	42478.38
554.01	42595.41
554.17	42593.07
554.34	42719.46
554.51	42366.04
554.67	42834.14
554.84	42653.92
555.00	42398.80
555.17	42263.05
555.33	42499.45
555.50	42309.86
555.67	42607.11
555.83	42508.81
556.00	42623.50
556.16	43154.80
556.33	42857.55
556.50	42810.74
556.66	42726.48
556.83	42895.00
556.99	43309.27
557.16	43086.92
557.32	42932.45
557.49	42911.38
557.65	42625.84
557.82	43037.77
557.98	42899.68
558.15	42934.79
558.32	43269.48
558.48	42979.26
558.65	43159.48
558.81	43117.35
558.98	42965.21
559.14	43182.88
559.31	43351.40
559.47	43213.31
559.64	43683.76
559.80	43166.50
559.97	43267.14
560.13	43093.94
560.30	43320.98
560.46	43328.00
560.63	43611.20
560.79	43524.60
560.96	43756.32
561.12	43358.42
561.29	43225.01
561.45	43601.84
561.61	43129.05
561.78	43332.68
561.94	43201.61
562.11	43117.35
562.27	43484.81
562.44	43655.67
562.60	43723.55
562.77	43746.95
562.93	43597.16
563.10	43931.86
563.26	43217.99
563.42	43622.90
563.59	43707.16
563.75	43831.21
563.92	43856.96
564.08	43377.15
564.24	43735.25
564.41	43803.13
564.57	43838.23
564.74	44198.68
564.90	44020.80
565.07	43658.01
565.23	43662.69
565.39	43749.29
565.56	44165.91
565.72	43529.28
565.88	43929.51
566.05	43826.53
566.21	43835.89
566.38	43707.16
566.54	43739.93
566.70	44018.46
566.87	44304.00
567.03	44016.11
567.19	44158.89
567.36	43903.77
567.52	43744.61
567.68	43772.70
567.85	43770.36
568.01	44030.16
568.17	43545.67
568.34	44212.72
568.50	43873.34
568.66	43789.08
568.83	44034.84
568.99	44126.12
569.15	44100.37
569.32	43819.51
569.48	43906.11
569.64	44390.60
569.81	44432.73
569.97	43903.77
570.13	44612.95
570.30	43971.64
570.46	44048.88
570.62	44041.86
570.78	44123.78
570.95	43917.81
571.11	44233.78
571.27	44034.84
571.43	44247.83
571.60	44201.02
571.76	44133.14
571.92	43901.43
572.09	44278.25
572.25	44163.57
572.41	44467.84
572.57	44549.76
572.74	44484.22
572.90	44549.76
573.06	44488.90
573.22	44149.53
573.38	44151.87
573.55	43997.39
573.71	44790.83
573.87	44306.34
574.03	44179.95
574.20	44369.54
574.36	44306.34
574.52	44533.37
574.68	44561.46
574.84	44612.95
575.01	44060.58
575.17	44210.38
575.33	44196.34
575.49	44252.51
575.65	44641.04
575.82	44437.41
575.98	44453.79
576.14	44856.37
576.30	44203.36
576.46	44201.02
576.62	44580.18
576.79	44357.83
576.95	44065.27
577.11	44074.63
577.27	43978.67
577.43	44795.51
577.59	44439.75
577.75	44526.35
577.92	44020.80
578.08	44318.04
578.24	44245.49
578.40	44402.30
578.56	44257.19
578.72	44465.50
578.88	44137.82
579.04	44266.55
579.21	44304.00
579.37	44332.09
579.53	44404.64
579.69	44065.27
579.85	44687.85
580.01	44598.91
580.17	44814.24
580.33	44694.87
580.49	44863.39
580.65	44720.62
580.82	44423.37
580.98	44741.68
581.14	43959.94
581.30	44676.15
581.46	44985.10
581.62	44547.42
581.78	44465.50
581.94	45099.78
582.10	44634.02
582.26	44858.71
582.42	44863.39
582.58	44631.68
582.74	44516.99
582.90	44524.01
583.06	44577.84
583.22	44669.12
583.38	45064.67
583.54	44828.28
583.70	44376.56
583.86	44058.24
584.02	44549.76
584.18	44711.25
584.34	44603.59
584.50	44673.81
584.66	44378.90
584.82	44524.01
584.98	44858.71
585.14	44561.46
585.30	44397.62
585.46	44533.37
585.62	44367.20
585.78	44205.70
585.94	44076.97
586.10	44257.19
586.26	44477.20
586.42	44456.14
586.58	44861.05
586.74	44858.71
586.90	44437.41
587.06	44662.10
587.22	44690.19
587.38	44481.88
587.54	44641.04
587.70	44804.88
587.86	44636.36
588.02	44369.54
588.18	45055.31
588.34	44760.40
588.49	44402.30
588.65	44526.35
588.81	44502.95
588.97	44472.52
589.13	44332.09
589.29	44598.91
589.45	44631.68
589.61	45076.38
589.77	45013.18
589.93	45106.80
590.08	45017.86
590.24	44830.62
590.40	45315.11
590.56	45240.21
590.72	44790.83
590.88	45162.98
591.04	44914.88
591.20	45064.67
591.35	45338.52
591.51	45202.77
591.67	44645.72
591.83	44949.99
591.99	44692.53
592.15	44687.85
592.31	44912.54
592.46	45207.45
592.62	44816.58
592.78	44793.17
592.94	44980.42
593.10	44727.64
593.26	45603.00
593.41	44982.76
593.57	44631.68
593.73	45106.80
593.89	45043.61
594.05	44844.66
594.20	45249.58
594.36	44949.99
594.52	44912.54
594.68	44959.35
594.84	45350.22
594.99	45092.76
595.15	45284.68
595.31	44786.15
595.47	44842.32
595.62	44964.03
595.78	44526.35
595.94	45312.77
596.10	44945.31
596.25	45844.07
596.41	44985.10
596.57	45015.52
596.73	45228.51
596.88	45036.59
597.04	45237.87
597.20	45387.67
597.36	44671.46
597.51	45315.11
597.67	45284.68
597.83	45155.96
597.99	45350.22
598.14	44858.71
598.30	44751.04
598.46	44811.90
598.61	44788.49
598.77	44772.11
598.93	45209.79
599.09	44631.68
599.24	45511.72
599.40	45130.21
599.56	44959.35
599.71	44996.80
599.87	45448.52
600.03	45130.21
600.18	45015.52
600.34	45034.25
600.50	45155.96
600.65	45347.88
600.81	45249.58
600.97	45357.24
601.12	45336.18
601.28	45535.12
601.44	44634.02
601.59	45240.21
601.75	45038.93
601.91	45221.49
602.06	45160.64
602.22	45013.18
602.37	44751.04
602.53	45024.89
602.69	45663.85
602.84	44898.50
603.00	45212.13
603.16	45291.71
603.31	44514.65
603.47	44844.66
603.62	44767.43
603.78	44989.78
603.94	44900.84
604.09	45120.85
604.25	44573.16
604.40	44758.06
604.56	45074.04
604.71	45141.91
604.87	44942.97
605.03	44720.62
605.18	44683.17
605.34	45125.53
605.49	44491.24
605.65	44889.13
605.80	44741.68
605.96	45059.99
606.12	45535.12
606.27	45228.51
606.43	45013.18
606.58	45230.85
606.74	44774.45
606.89	44687.85
607.05	44847.00
607.20	44914.88
607.36	45099.78
607.51	45081.06
607.67	44964.03
607.82	44790.83
607.98	44783.81
608.13	44788.49
608.29	44886.79
608.44	44608.27
608.60	44498.26
608.75	44570.82
608.91	44982.76
609.06	44577.84
609.22	44769.77
609.37	44577.84
609.53	44879.77
609.68	44783.81
609.84	44875.09
609.99	44856.37
610.15	44580.18
610.30	44694.87
610.46	44402.30
610.61	44051.22
610.76	44755.72
610.92	44275.91
611.07	44624.65
611.23	44329.75
611.38	44149.53
611.54	44215.06
611.69	44217.40
611.84	43938.88
612.00	44807.22
612.15	44332.09
612.31	44605.93
612.46	44226.76
612.62	44406.98
612.77	44657.42
612.92	44442.09
613.08	43882.70
613.23	44533.37
613.39	44385.92
613.54	44165.91
613.69	44339.11
613.85	44023.14
614.00	44493.58
614.15	44505.29
614.31	44271.23
614.46	44299.32
614.62	44488.90
614.77	43973.98
614.92	43878.02
615.08	44039.52
615.23	43594.82
615.38	43709.50
615.54	43646.31
615.69	43761.00
615.84	43976.33
616.00	43948.24
616.15	44109.74
616.30	44055.90
616.46	43723.55
616.61	43409.92
616.76	44135.48
616.92	43335.02
617.07	43288.21
617.22	43473.11
617.37	43639.29
617.53	43859.30
617.68	43510.56
617.83	43686.10
617.99	44208.04
618.14	43721.21
618.29	43503.54
618.45	43501.20
618.60	43690.78
618.75	43583.12
618.90	43835.89
619.06	43426.30
619.21	43585.46
619.36	43508.22
619.51	43470.77
619.67	43442.68
619.82	43435.66
619.97	43473.11
620.12	42934.79
620.28	42845.85
620.43	43386.51
620.58	43225.01
620.73	42876.27
620.89	42869.25
621.04	42885.64
621.19	43402.89
621.34	43255.44
621.49	42836.48
621.65	42780.31
621.80	43421.62
621.95	42918.40
622.10	42848.19
622.25	42981.60
622.41	42703.07
622.56	42827.12
622.71	43356.08
622.86	42960.53
623.01	42880.95
623.16	42731.16
623.32	43243.74
623.47	43145.44
623.62	43033.09
623.77	42967.55
623.92	42614.13
624.07	42398.80
624.23	42632.86
624.38	42337.95
624.53	42195.18
624.68	42997.98
624.83	43133.73
624.98	42712.44
625.13	42366.04
625.29	42525.19
625.44	42710.10
625.59	42581.37
625.74	42010.28
625.89	41771.54
626.04	42089.85
626.19	42335.61
626.34	42370.72
626.49	42401.14
626.65	42522.85
626.80	42494.77
626.95	42564.98
627.10	42337.95
627.25	42286.46
627.40	41804.31
627.55	41579.62
627.70	41893.25
627.85	41743.45
628.00	41603.02
628.15	42394.12
628.30	41736.43
628.45	42213.90
628.60	41963.46
628.76	42234.97
628.91	42136.66
629.06	41890.91
629.21	42005.59
629.36	41605.36
629.51	41776.22
629.66	41408.76
629.81	41186.41
629.96	41621.75
630.11	41488.34
630.26	42087.51
630.41	41785.58
630.56	41296.41
630.71	41572.60
630.86	41523.44
631.01	41343.22
631.16	41415.78
631.31	41359.61
631.46	40802.56
631.61	41090.44
631.76	40957.03
631.91	41319.82
632.06	41067.04
632.21	41738.77
632.36	41427.48
632.51	40992.14
632.66	41090.44
632.81	40739.36
632.96	40999.16
633.10	40734.68
633.25	40517.01
633.40	41092.79
633.55	41600.68
633.70	41420.46
633.85	40610.64
634.00	41588.98
634.15	40816.60
634.30	41160.66
634.45	40893.84
634.60	40917.25
634.75	40898.52
634.90	41006.19
635.05	40828.30
635.19	41036.61
635.34	40776.81
635.49	40849.37
635.64	40753.41
635.79	40641.06
635.94	40423.39
636.09	40889.16
636.24	40596.59
636.39	40428.07
636.53	40486.59
636.68	40479.57
636.83	40423.39
636.98	40554.46
637.13	40020.82
637.28	40594.25
637.43	40669.15
637.57	40467.86
637.72	40732.34
637.87	40552.12
638.02	40327.43
638.17	40402.33
638.32	40161.25
638.46	39849.96
638.61	40308.71
638.76	39990.39
638.91	40053.59
639.06	40135.51
639.20	39908.47
639.35	40041.88
639.50	40135.51
639.65	40222.11
639.80	40072.31
639.94	39791.45
640.09	39704.85
640.24	39459.09
640.39	39725.91
640.54	39782.09
640.68	39997.41
640.83	39674.42
640.98	39864.00
641.13	39613.57
641.27	40004.44
641.42	39627.61
641.57	39948.26
641.72	39868.69
641.86	39489.52
642.01	39538.67
642.16	39154.82
642.31	39164.18
642.45	39360.79
642.60	38873.96
642.75	39384.19
642.90	39208.65
643.04	39220.36
643.19	38707.78
643.34	39838.26
643.48	39463.77
643.63	39541.01
643.78	39115.03
643.93	39084.61
644.07	38829.49
644.22	38974.60
644.37	39232.06
644.51	39115.03
644.66	38822.47
644.81	39070.56
644.95	39157.16
645.10	38925.45
645.25	39147.80
645.39	39328.02
645.54	39288.23
645.69	39093.97
645.83	38824.81
645.98	38347.34
646.13	38927.79
646.27	38979.28
646.42	38560.33
646.57	38857.57
646.71	38827.15
646.86	39103.33
647.00	39012.05
647.15	38951.20
647.30	39103.33
647.44	38876.30
647.59	38546.28
647.74	38754.59
647.88	38602.46
648.03	38885.66
648.17	38686.71
648.32	38026.68
648.47	38663.31
648.61	38455.00
648.76	38440.96
648.90	38616.50
649.05	38862.26
649.20	38462.02
649.34	38560.33
649.49	38263.08
649.63	38576.71
649.78	38667.99
649.92	38244.35
650.07	38679.69
650.21	38436.28
650.36	38171.80
650.51	38169.46
650.65	38576.71
650.80	38607.14
650.94	38586.07
651.09	38153.07
651.23	38071.15
651.38	37979.87
651.52	37888.59
651.67	38157.75
651.81	38157.75
651.96	37785.61
652.10	37682.62
652.25	38014.98
652.39	37752.84
652.54	37998.60
652.68	37731.78
652.83	37874.55
652.97	37853.48
653.12	38085.20
653.26	37654.54
653.41	38031.36
653.55	37888.59
653.70	37216.86
653.84	37488.36
653.99	37759.86
654.13	37308.14
654.27	37352.61
654.42	37310.48
654.56	37296.44
654.71	37762.20
654.85	37429.85
655.00	37486.02
655.14	37483.68
655.29	37141.96
655.43	37415.80
655.57	36905.57
655.72	37202.82
655.86	36907.91
656.01	37081.11
656.15	37083.45
656.30	37085.79
656.44	37469.64
656.58	36835.35
656.73	36912.59
656.87	36573.21
657.01	36362.56
657.16	36594.28
657.30	36879.82
657.45	36290.01
657.59	36884.50
657.73	36568.53
657.88	36692.58
658.02	36690.24
658.16	36975.78
658.31	37053.02
658.45	37436.87
658.60	36758.11
658.74	36900.89
658.88	36708.96
659.03	36795.56
659.17	36409.37
659.31	36582.57
659.46	36519.38
659.60	36477.25
659.74	36163.62
659.89	35943.61
660.03	35892.12
660.17	36105.10
660.32	36037.23
660.46	36587.25
660.60	36519.38
660.74	36077.02
660.89	35974.03
661.03	36093.40
661.17	35859.35
661.32	35737.64
661.46	35889.77
661.60	35622.95
661.74	35817.22
661.89	35639.34
662.03	35604.23
662.17	35789.13
662.31	35496.56
662.46	35805.52
662.60	35697.85
662.74	35473.16
662.88	35686.15
663.03	35159.53
663.17	35424.01
663.31	35000.37
663.45	35278.89
663.60	35377.20
663.74	34995.69
663.88	35241.45
664.02	34452.69
664.17	35250.81
664.31	34672.70
664.45	34883.34
664.59	35239.11
664.73	34642.27
664.88	35051.86
665.02	34539.29
665.16	35124.42
665.30	34689.08
665.44	34494.82
665.59	33853.51
665.73	34040.75
665.87	34143.74
666.01	34232.68
666.15	34478.43
666.29	34330.98
666.44	34263.10
666.58	34162.46
666.72	34143.74
666.86	34653.97
667.00	34298.21
667.14	34045.43
667.28	34134.37
667.43	33439.23
667.57	33989.26
667.71	33434.55
667.85	33860.53
667.99	33357.32
668.13	33439.23
668.27	33226.24
668.41	33296.46
668.56	33556.26
668.70	33383.06
668.84	33277.74
668.98	33371.36
669.12	33408.81
669.26	33347.95
669.40	32753.46
669.54	32917.29
669.68	32814.31
669.82	32706.65
669.96	32591.96
670.10	32165.98
670.25	32882.19
670.39	32767.50
670.53	32294.71
670.67	32343.86
670.81	32577.92
670.95	32465.57
671.09	32315.78
671.23	32488.98
671.37	32940.70
671.51	32266.63
671.65	32254.92
671.79	31728.30
671.93	32011.51
672.07	31861.71
672.21	31880.44
672.35	31695.53
672.49	31711.92
672.63	31936.61
672.77	32189.39
672.91	31810.22
673.05	31557.44
673.19	31740.00
673.33	31681.49
673.47	31625.32
673.61	31051.89
673.75	31360.84
673.89	31058.91
674.03	30911.46
674.17	30466.75
674.31	30920.82
674.45	30583.78
674.59	30930.18
674.73	31026.14
674.87	31068.27
675.01	30972.31
675.15	30923.16
675.29	30969.97
675.43	30998.06
675.56	30441.01
675.70	30068.86
675.84	30436.33
675.98	29357.34
676.12	30178.87
676.26	30529.95
676.40	29783.32
676.54	29921.41
676.68	29773.95
676.82	29355.00
676.96	29301.17
677.10	29350.32
677.23	29497.77
677.37	29565.65
677.51	29394.79
677.65	29151.37
677.79	29305.85
677.93	29057.75
678.07	29001.58
678.21	28559.22
678.34	28706.67
678.48	28931.36
678.62	28318.14
678.76	28498.36
678.90	28093.45
679.04	28662.20
679.18	28336.87
679.31	28191.75
679.45	27835.99
679.59	27407.67
679.73	27370.22
679.87	27805.56
680.00	27887.48
680.14	27735.35
680.28	27763.43
680.42	27580.87
680.56	27220.43
680.70	27391.29
680.83	27374.91
680.97	26883.39
681.11	26780.41
681.25	26864.67
681.39	26904.46
681.52	26913.82
681.66	26644.66
681.80	26721.90
681.94	26366.13
682.07	26600.19
682.21	26272.51
682.35	26054.84
682.49	26312.30
682.62	26338.05
682.76	25790.36
682.90	26026.76
683.04	25956.54
683.17	26066.55
683.31	25539.93
683.45	25720.15
683.59	25593.76
683.72	25612.48
683.86	25130.33
684.00	25025.01
684.13	25336.30
684.27	25373.75
684.41	25214.59
684.55	24868.19
684.68	25076.50
684.82	24793.29
684.96	24826.06
685.09	24556.90
685.23	24561.58
685.37	24416.47
685.50	24325.19
685.64	24435.19
685.78	24320.51
685.91	24276.04
686.05	24151.99
686.19	23726.01
686.32	24147.31
686.46	23440.47
686.60	23564.51
686.73	23290.67
686.87	23447.49
687.01	23323.44
687.14	23225.14
687.28	22946.61
687.42	23222.80
687.55	23021.51
687.69	23157.26
687.82	22848.31
687.96	22951.29
688.10	22300.62
688.23	22714.90
688.37	22668.09
688.50	22490.21
688.64	22326.37
688.78	22398.93
688.91	22298.28
689.05	22314.67
689.18	21837.20
689.32	21886.35
689.46	22010.40
689.59	21830.18
689.73	21972.95
689.86	21898.05
690.00	22122.74
690.13	21991.67
690.27	21949.54
690.41	21322.28
690.54	21069.50
690.68	21095.25
690.81	21198.23
690.95	21092.91
691.08	20900.98
691.22	21050.78
691.35	20781.62
691.49	20725.44
691.62	20751.19
691.76	21020.35
691.89	20624.80
692.03	20723.10
692.16	20269.04
692.30	20577.99
692.43	20311.17
692.57	20280.74
692.70	20098.18
692.84	20102.86
692.97	20077.12
693.11	19749.44
693.24	19812.63
693.38	19742.42
693.51	19470.92
693.65	19662.84
693.78	19473.26
693.92	19491.98
694.05	19159.63
694.19	19227.50
694.32	19033.24
694.45	18986.43
694.59	19016.85
694.72	18845.99
694.86	19023.87
694.99	18796.84
695.13	18340.44
695.26	18405.97
695.39	18279.58
695.53	18422.36
695.66	18328.74
695.80	18265.54
695.93	18171.92
696.07	17703.81
696.20	18094.68
696.33	18008.08
696.47	17884.03
696.60	17951.91
696.73	18052.55
696.87	17778.71
697.00	17607.85
697.14	17612.53
697.27	17551.68
697.40	17558.70
697.54	17245.07
697.67	17142.08
697.80	17317.62
697.94	17144.42
698.07	16961.86
698.21	16912.71
698.34	16978.25
698.47	16812.07
698.61	16486.73
698.74	16498.44
698.87	16629.51
699.01	16470.35
699.14	16514.82
699.27	16376.73
699.40	16512.48
699.54	16163.74
699.67	16070.12
699.80	16152.04
699.94	16236.30
700.07	16217.57
700.20	15613.71
700.34	15604.35
700.47	15922.66
700.60	16109.91
700.73	15950.75
700.87	15683.93
701.00	15426.47
701.13	15646.48
701.26	15391.36
701.40	15602.01
701.53	15351.57
701.66	15421.79
701.79	14993.47
701.93	14963.04
702.06	14843.68
702.19	14853.04
702.32	14771.12
702.46	14815.59
702.59	14607.28
702.72	14850.70
702.85	14771.12
702.99	14583.88
703.12	14939.64
703.25	14668.14
703.38	14492.60
703.51	14303.01
703.65	14377.91
703.78	14176.62
703.91	14017.47
704.04	14174.28
704.17	14225.78
704.31	13982.36
704.44	13715.54
704.57	13783.41
704.70	13535.32
704.83	13525.96
704.96	13544.68
705.10	13600.85
705.23	13572.77
>>>>>End Processed Spectral Data<<<<<
