SpectraSuite Data File
++++++++++++++++++++++++++++++++++++
Date: Fri Oct 25 10:48:22 EDT 2013
User: price-jones
Dark Spectrum Present: No
Reference Spectrum Present: No
Number of Sampled Component Spectra: 1
Spectrometers: USB2+H05261
Integration Time (usec): 100000 (USB2+H05261)
Spectra Averaged: 1 (USB2+H05261)
Boxcar Smoothing: 0 (USB2+H05261)
Correct for Electrical Dark: No (USB2+H05261)
Strobe/Lamp Enabled: No (USB2+H05261)
Correct for Detector Non-linearity: No (USB2+H05261)
Correct for Stray Light: No (USB2+H05261)
Number of Pixels in Processed Spectrum: 2048
>>>>>Begin Processed Spectral Data<<<<<
365.73	168.52
365.92	168.52
366.12	168.52
366.32	117.03
366.52	67.88
366.72	28.09
366.91	51.49
367.11	98.30
367.31	63.19
367.51	102.98
367.70	39.79
367.90	28.09
368.10	7.02
368.30	53.83
368.49	0.00
368.69	70.22
368.89	100.64
369.09	51.49
369.28	91.28
369.48	114.69
369.68	133.41
369.87	142.77
370.07	114.69
370.27	208.31
370.47	191.92
370.66	430.66
370.86	472.79
371.06	540.66
371.25	486.83
371.45	456.40
371.65	454.06
371.84	472.79
372.04	470.45
372.24	479.81
372.44	545.34
372.63	477.47
372.83	543.00
373.03	559.39
373.22	603.86
373.42	528.96
373.62	535.98
373.81	608.54
374.01	545.34
374.21	571.09
374.40	610.88
374.60	538.32
374.79	571.09
374.99	606.20
375.19	641.31
375.38	608.54
375.58	568.75
375.78	688.12
375.97	559.39
376.17	648.33
376.37	636.63
376.56	676.41
376.76	648.33
376.95	688.12
377.15	725.57
377.35	575.77
377.54	648.33
377.74	631.94
377.93	669.39
378.13	767.70
378.33	690.46
378.52	683.44
378.72	744.29
378.91	718.54
379.11	622.58
379.31	575.77
379.50	692.80
379.70	699.82
379.89	737.27
380.09	671.73
380.28	688.12
380.48	755.99
380.68	732.59
380.87	732.59
381.07	657.69
381.26	711.52
381.46	802.80
381.65	812.17
381.85	704.50
382.04	744.29
382.24	718.54
382.43	699.82
382.63	720.88
382.83	763.01
383.02	734.93
383.22	725.57
383.41	758.33
383.61	763.01
383.80	807.48
384.00	863.66
384.19	795.78
384.39	868.34
384.58	844.93
384.78	854.30
384.97	863.66
385.17	868.34
385.36	814.51
385.56	844.93
385.75	833.23
385.95	809.83
386.14	868.34
386.34	835.57
386.53	866.00
386.72	844.93
386.92	919.83
387.11	884.72
387.31	898.77
387.50	849.61
387.70	943.24
387.89	966.64
388.09	926.85
388.28	847.27
388.48	908.13
388.67	968.98
388.86	957.28
389.06	940.90
389.25	954.94
389.45	1046.22
389.64	952.60
389.84	1050.90
390.03	1050.90
390.22	1053.24
390.42	973.66
390.61	1013.45
390.81	1067.28
391.00	1029.84
391.19	1041.54
391.39	1109.41
391.58	1118.78
391.78	1104.73
391.97	1132.82
392.16	1025.15
392.36	1078.99
392.55	1118.78
392.75	976.00
392.94	987.71
393.13	1067.28
393.33	1034.52
393.52	1029.84
393.71	1135.16
393.91	1196.01
394.10	1114.10
394.29	1177.29
394.49	1158.57
394.68	1221.76
394.88	1249.85
395.07	1284.95
395.26	1352.83
395.46	1224.10
395.65	1350.49
395.84	1268.57
396.04	1240.48
396.23	1188.99
396.42	1252.19
396.62	1184.31
396.81	1259.21
397.00	1238.14
397.19	1270.91
397.39	1378.58
397.58	1359.85
397.77	1406.66
397.97	1364.53
398.16	1509.65
398.35	1413.68
398.55	1523.69
398.74	1486.24
398.93	1621.99
399.12	1575.18
399.32	1495.60
399.51	1509.65
399.70	1687.53
399.90	1671.14
400.09	1586.88
400.28	1657.10
400.47	1626.67
400.67	1636.03
400.86	1746.04
401.05	1692.21
401.24	1827.96
401.44	1839.66
401.63	1778.81
401.82	1746.04
402.01	1713.27
402.21	1715.61
402.40	1839.66
402.59	1753.06
402.78	1788.17
402.97	1874.77
403.17	1842.00
403.36	1827.96
403.55	1795.19
403.74	1923.92
403.93	1849.02
404.13	1827.96
404.32	1980.09
404.51	1856.04
404.70	1996.48
404.89	1949.67
405.09	2085.42
405.28	2003.50
405.47	2043.29
405.66	1956.69
405.85	1984.77
406.05	2113.50
406.24	2066.69
406.43	2069.03
406.62	2078.40
406.81	2127.55
407.00	2064.35
407.20	2113.50
407.39	1996.48
407.58	2139.25
407.77	2190.74
407.96	2291.38
408.15	2324.15
408.34	2267.98
408.54	2342.88
408.73	2338.20
408.92	2328.83
409.11	2293.72
409.30	2317.13
409.49	2370.96
409.68	2275.00
409.87	2183.72
410.07	2333.51
410.26	2394.37
410.45	2427.14
410.64	2509.05
410.83	2534.80
411.02	2541.82
411.21	2700.98
411.40	2586.29
411.59	2626.08
411.78	2656.51
411.98	2609.70
412.17	2726.72
412.36	2595.65
412.55	2799.28
412.74	2806.30
412.93	2888.22
413.12	2708.00
413.31	2930.35
413.50	2935.03
413.69	2862.48
413.88	2991.20
414.07	2939.71
414.26	2972.48
414.45	2925.67
414.64	2958.44
414.83	3056.74
415.02	2930.35
415.22	3066.10
415.41	3105.89
415.60	3143.34
415.79	3236.96
415.98	3384.41
416.17	3318.88
416.36	3297.81
416.55	3206.53
416.74	3335.26
416.93	3272.07
417.12	3398.46
417.31	3314.20
417.50	3463.99
417.69	3435.91
417.88	3328.24
418.07	3370.37
418.26	3407.82
418.45	3538.89
418.64	3604.42
418.83	3597.40
419.02	3590.38
419.21	3660.60
419.39	3667.62
419.58	3604.42
419.77	3700.39
419.96	3585.70
420.15	3843.16
420.34	3904.01
420.53	3803.37
420.72	3798.69
420.91	3864.22
421.10	3810.39
421.29	4002.32
421.48	3763.58
421.67	3955.51
421.86	3896.99
422.05	3932.10
422.24	3805.71
422.43	3864.22
422.61	3904.01
422.80	3941.46
422.99	3854.86
423.18	4093.60
423.37	4124.02
423.56	4014.02
423.75	4044.45
423.94	3974.23
424.13	3646.55
424.32	3880.61
424.50	3885.29
424.69	3976.57
424.88	4091.26
425.07	4044.45
425.26	3978.91
425.45	4009.34
425.64	4011.68
425.83	4021.04
426.01	4124.02
426.20	4030.40
426.39	4044.45
426.58	4079.55
426.77	4044.45
426.96	4095.94
427.15	3861.88
427.33	4205.94
427.52	4198.92
427.71	4252.75
427.90	4187.22
428.09	4287.86
428.28	4215.30
428.46	4344.03
428.65	4388.50
428.84	4327.65
429.03	4440.00
429.22	4128.70
429.40	4241.05
429.59	4264.46
429.78	4051.47
429.97	3925.08
430.16	4063.17
430.34	4121.68
430.53	4250.41
430.72	4346.37
430.91	4299.56
431.10	4334.67
431.28	4580.43
431.47	4498.51
431.66	4814.48
431.85	4465.74
432.03	4734.90
432.22	4697.46
432.41	4617.88
432.60	4681.07
432.79	4580.43
432.97	4847.25
433.16	4968.96
433.35	4638.94
433.54	4734.90
433.72	4727.88
433.91	4858.95
434.10	4762.99
434.28	4884.70
434.47	4807.46
434.66	5041.51
434.85	5034.49
435.03	5015.77
435.22	4891.72
435.41	5245.14
435.59	5055.56
435.78	5242.80
435.97	5350.46
436.16	5331.74
436.34	5214.71
436.53	5275.57
436.72	5437.06
436.90	5018.11
437.09	5203.01
437.28	5149.18
437.46	5163.22
437.65	5416.00
437.84	5472.17
438.02	5270.89
438.21	5252.16
438.40	5046.20
438.58	5420.68
438.77	5432.38
438.96	5535.37
439.14	5577.50
439.33	5713.25
439.52	5865.38
439.70	5610.26
439.89	5666.44
440.08	5792.83
440.26	5858.36
440.45	5757.72
440.63	5858.36
440.82	6033.90
441.01	5984.75
441.19	6071.35
441.38	6164.97
441.57	6413.07
441.75	6179.01
441.94	6382.64
442.12	6382.64
442.31	6429.45
442.50	6265.61
442.68	6436.47
442.87	6401.37
443.05	6420.09
443.24	6506.69
443.43	6558.18
443.61	6455.20
443.80	6677.55
443.98	6565.20
444.17	6338.17
444.35	6579.25
444.54	6637.76
444.73	6644.78
444.91	6366.26
445.10	6703.29
445.28	6665.85
445.47	6431.79
445.65	6513.71
445.84	6586.27
446.02	6752.45
446.21	6729.04
446.39	6597.97
446.58	6644.78
446.77	6661.16
446.95	6698.61
447.14	6825.00
447.32	6726.70
447.51	6731.38
447.69	6534.78
447.88	6738.40
448.06	6717.34
448.25	6925.65
448.43	6693.93
448.62	6874.15
448.80	6857.77
448.99	6836.70
449.17	6869.47
449.36	6832.02
449.54	7080.12
449.73	7112.89
449.91	7302.47
450.10	7131.61
450.28	7407.80
450.46	7222.89
450.65	7393.75
450.83	7185.44
451.02	7204.17
451.20	7304.81
451.39	7250.98
451.57	7222.89
451.76	7335.24
451.94	7201.83
452.13	7302.47
452.31	7239.28
452.49	7192.47
452.68	7494.40
452.86	7295.45
453.05	7557.59
453.23	7606.74
453.42	7447.58
453.60	7463.97
453.78	7506.10
453.97	7325.88
454.15	7417.16
454.34	7590.36
454.52	7630.15
454.70	7611.42
454.89	7585.68
455.07	7646.53
455.26	7590.36
455.44	7829.09
455.62	7868.88
455.81	8002.29
455.99	7988.25
456.17	8156.77
456.36	7887.61
456.54	7950.80
456.73	8070.17
456.91	8269.11
457.09	8042.08
457.28	8215.28
457.46	8009.31
457.64	8257.41
457.83	8287.84
458.01	7969.52
458.19	8266.77
458.38	8336.99
458.56	8369.76
458.74	8266.77
458.93	8407.20
459.11	8423.59
459.29	8461.04
459.48	8477.42
459.66	8320.60
459.84	8297.20
460.03	8631.90
460.21	8645.94
460.39	8737.22
460.57	8531.25
460.76	8638.92
460.94	8821.48
461.12	8617.85
461.31	8793.39
461.49	8769.99
461.67	8915.10
461.85	9008.72
462.04	8908.08
462.22	9406.61
462.40	9104.68
462.59	8762.97
462.77	8954.89
462.95	9156.18
463.13	9142.13
463.32	9022.77
463.50	9020.42
463.68	9076.60
463.86	8987.66
464.05	8978.30
464.23	9034.47
464.41	9242.78
464.59	9060.21
464.78	9301.29
464.96	9018.08
465.14	9226.39
465.32	9249.80
465.50	9390.23
465.69	9474.49
465.87	9266.18
466.05	9434.70
466.23	9062.55
466.41	9420.66
466.60	9537.68
466.78	9420.66
466.96	9336.40
467.14	9551.73
467.32	9481.51
467.51	9638.33
467.69	9329.38
467.87	9521.30
468.05	9818.55
468.23	9521.30
468.41	9579.81
468.60	9643.01
468.78	9584.49
468.96	9659.39
469.14	9774.08
469.32	10001.11
469.50	9755.35
469.69	9989.41
469.87	9823.23
470.05	9795.14
470.23	9916.85
470.41	9844.29
470.59	10129.84
470.77	10064.30
470.95	9989.41
471.14	10150.90
471.32	10104.09
471.50	10403.68
471.68	10293.68
471.86	10574.54
472.04	10253.89
472.22	10663.48
472.40	10399.00
472.58	10649.44
472.77	10593.26
472.95	10761.78
473.13	10913.92
473.31	10607.31
473.49	10768.80
473.67	10693.91
473.85	10721.99
474.03	11094.14
474.21	11119.89
474.39	11222.87
474.57	11260.32
474.75	11105.84
474.93	11449.90
475.12	11232.23
475.30	11431.18
475.48	11367.98
475.66	11492.03
475.84	11543.52
476.02	11506.07
476.20	11613.74
476.38	11812.68
476.56	11934.39
476.74	11903.96
476.92	12030.35
477.10	12030.35
477.28	12395.48
477.46	12301.86
477.64	12603.78
477.82	12531.23
478.00	12519.53
478.18	12514.84
478.36	12706.77
478.54	12798.05
478.72	12819.11
478.90	13170.19
479.08	13205.30
479.26	13357.44
479.44	13565.74
479.62	13193.60
479.80	13561.06
479.98	13680.43
480.16	13825.54
480.34	13673.41
480.52	13860.65
480.70	13891.08
480.88	13891.08
481.06	14155.56
481.24	14132.15
481.41	14284.29
481.59	14590.90
481.77	14738.35
481.95	14628.35
482.13	14785.16
482.31	14602.60
482.49	15115.18
482.67	15075.39
482.85	15110.50
483.03	15419.45
483.21	15487.32
483.39	15857.13
483.57	15803.30
483.74	15683.93
483.92	15840.75
484.10	15985.86
484.28	16196.51
484.46	16493.76
484.64	16718.45
484.82	16217.57
485.00	16278.43
485.18	16379.07
485.35	16762.92
485.53	16470.35
485.71	16416.52
485.89	16704.40
486.07	16580.36
486.25	16975.91
486.43	17179.53
486.61	17167.83
486.78	17605.51
486.96	17441.67
487.14	17818.50
487.32	17858.29
487.50	18277.24
487.68	18691.52
487.85	18675.13
488.03	18916.21
488.21	18672.79
488.39	18801.52
488.57	18618.96
488.75	19096.43
488.92	19246.23
489.10	19665.18
489.28	19683.91
489.46	20135.63
489.64	19843.06
489.81	20460.96
489.99	20573.31
490.17	20496.07
490.35	20496.07
490.53	20482.03
490.70	20592.03
490.88	20882.26
491.06	21261.43
491.24	20905.66
491.41	20896.30
491.59	21238.02
491.77	21256.75
491.95	21322.28
492.13	21792.73
492.30	22089.98
492.48	21921.46
492.66	22237.43
492.84	22040.82
493.01	22265.52
493.19	22366.16
493.37	22228.07
493.54	22890.44
493.72	23049.60
493.90	22768.73
494.08	23026.19
494.25	23304.71
494.43	23571.54
494.61	23466.21
494.79	23559.83
494.96	23611.32
495.14	23597.28
495.32	23924.96
495.49	24383.70
495.67	24575.62
495.85	24423.49
496.02	24781.59
496.20	24638.82
496.38	24671.59
496.55	24931.39
496.73	25329.28
496.91	24940.75
497.09	25493.12
497.26	25010.96
497.44	25781.00
497.62	25523.54
497.79	25905.05
497.97	25546.95
498.14	25495.46
498.32	25673.34
498.50	25926.11
498.67	26375.50
498.85	26457.42
499.03	26497.20
499.20	26780.41
499.38	26717.22
499.56	26579.12
499.73	26721.90
499.91	26768.71
500.08	26838.92
500.26	26820.20
500.44	27058.93
500.61	27578.53
500.79	27367.88
500.97	27147.87
501.14	27782.16
501.32	27552.79
501.49	27534.06
501.67	27412.35
501.84	27751.73
502.02	28058.34
502.20	28182.39
502.37	28283.03
502.55	28533.47
502.72	28238.56
502.90	28313.46
503.07	28292.40
503.25	28624.75
503.43	28407.08
503.60	28636.45
503.78	28655.18
503.95	28697.31
504.13	28624.75
504.30	29296.49
504.48	28982.85
504.65	28961.79
504.83	29556.28
505.01	29642.88
505.18	29535.22
505.36	29680.33
505.53	29886.30
505.71	30103.97
505.88	30300.58
506.06	29769.27
506.23	30052.48
506.41	29912.05
506.58	30249.08
506.76	30064.18
506.93	30831.88
507.11	30164.82
507.28	30623.57
507.46	30251.42
507.63	30235.04
507.81	30684.42
507.98	30408.24
508.16	30859.96
508.33	31215.72
508.50	31395.95
508.68	31122.10
508.85	31648.72
509.03	31414.67
509.20	31512.97
509.38	31962.36
509.55	31590.21
509.73	31606.59
509.90	31983.42
510.08	31615.96
510.25	31901.50
510.42	32156.62
510.60	32350.88
510.77	32315.78
510.95	32535.79
511.12	32224.50
511.30	32538.13
511.47	32924.32
511.64	32961.76
511.82	33134.96
511.99	32486.64
512.17	33029.64
512.34	32397.70
512.51	33256.67
512.69	33195.82
512.86	32987.51
513.04	33762.23
513.21	33631.16
513.38	33553.92
513.56	33343.27
513.73	33329.23
513.90	33589.03
514.08	33448.60
514.25	33563.28
514.43	33682.65
514.60	33687.33
514.77	33968.19
514.95	34162.46
515.12	34092.24
515.29	34087.56
515.47	34508.86
515.64	34965.26
515.81	34660.99
515.99	34480.77
516.16	34466.73
516.33	34022.03
516.51	34464.39
516.68	33579.67
516.85	33813.72
517.03	33977.56
517.20	34462.05
517.37	34698.44
517.54	35145.48
517.72	34988.67
517.89	34436.30
518.06	34602.48
518.24	34906.75
518.41	34595.46
518.58	34866.96
518.75	35276.55
518.93	35576.14
519.10	35391.24
519.27	35660.40
519.45	35470.82
519.62	35739.98
519.79	36238.51
519.96	36158.94
520.14	36304.05
520.31	35938.93
520.48	36121.49
520.65	35800.83
520.83	36203.41
521.00	36666.83
521.17	36659.81
521.34	36629.38
521.52	36730.03
521.69	36655.13
521.86	36882.16
522.03	36779.18
522.20	36641.09
522.38	36912.59
522.55	37090.47
522.72	36598.96
522.89	37062.38
523.07	37305.80
523.24	36877.48
523.41	37273.03
523.58	37113.87
523.75	37874.55
523.92	37797.31
524.10	37738.80
524.27	37710.71
524.44	38162.43
524.61	38010.30
524.78	37914.34
524.96	37715.39
525.13	38176.48
525.30	38258.40
525.47	38831.83
525.64	37970.51
525.81	38429.26
525.98	38447.98
526.16	38066.47
526.33	37879.23
526.50	37907.32
526.67	38085.20
526.84	38237.33
527.01	37895.61
527.18	38593.09
527.36	38742.89
527.53	38838.85
527.70	39260.15
527.87	39398.24
528.04	39049.50
528.21	38766.29
528.38	39152.48
528.55	39440.37
528.72	39091.63
528.89	39225.04
529.07	39447.39
529.24	39377.17
529.41	39262.49
529.58	39566.76
529.75	39164.18
529.92	39309.30
530.09	39316.32
530.26	39812.51
530.43	40002.10
530.60	40105.08
530.77	39714.21
530.94	40161.25
531.11	39662.72
531.28	39920.18
531.46	40179.98
531.63	40371.90
531.80	40119.12
531.97	39906.13
532.14	40062.95
532.31	39887.41
532.48	39983.37
532.65	40472.54
532.82	40542.76
532.99	40360.20
533.16	39810.17
533.33	40627.02
533.50	40847.03
533.67	40706.60
533.84	41015.55
534.01	41036.61
534.18	40886.82
534.35	41265.99
534.52	40549.78
534.69	41223.86
534.86	41326.84
535.03	40992.14
535.20	40858.73
535.37	41287.05
535.54	41839.42
535.71	41027.25
535.88	41535.15
536.05	41488.34
536.22	41579.62
536.38	41069.38
536.55	41345.56
536.72	41228.54
536.89	41219.17
537.06	41649.83
537.23	41542.17
537.40	41617.07
537.57	41949.42
537.74	41823.03
537.91	42188.16
538.08	41846.44
538.25	41078.74
538.42	42108.58
538.59	41888.57
538.75	41429.82
538.92	41876.86
539.09	42129.64
539.26	41942.40
539.43	41546.85
539.60	42094.53
539.77	41738.77
539.94	42232.63
540.11	41799.63
540.28	42176.45
540.44	42171.77
540.61	41851.12
540.78	42480.72
540.95	41968.15
541.12	41827.71
541.29	42398.80
541.46	42738.18
541.62	42691.37
541.79	42660.94
541.96	42454.98
542.13	42693.71
542.30	42866.91
542.47	42969.90
542.63	42951.17
542.80	42951.17
542.97	43482.47
543.14	43543.33
543.31	43344.38
543.48	43363.11
543.64	43639.29
543.81	43463.75
543.98	43866.32
544.15	43147.78
544.32	43599.50
544.48	44301.66
544.65	43487.15
544.82	43679.08
544.99	42897.34
545.16	43496.52
545.32	43693.12
545.49	44144.84
545.66	43971.64
545.83	43739.93
546.00	43896.75
546.16	44051.22
546.33	43985.69
546.50	43536.30
546.67	44095.69
546.83	43386.51
547.00	43803.13
547.17	43641.63
547.34	43950.58
547.50	44030.16
547.67	44020.80
547.84	43983.35
548.00	44304.00
548.17	44580.18
548.34	44238.47
548.51	44809.56
548.67	44559.12
548.84	45034.25
549.01	44678.49
549.18	44184.63
549.34	44715.93
549.51	44701.89
549.68	44619.97
549.84	44762.75
550.01	44856.37
550.18	44617.63
550.34	44224.42
550.51	44524.01
550.68	44470.18
550.84	44612.95
551.01	44444.43
551.18	44711.25
551.34	44779.13
551.51	45125.53
551.68	44797.85
551.84	45006.16
552.01	44547.42
552.18	45184.04
552.34	44809.56
552.51	45216.81
552.68	44713.59
552.84	44982.76
553.01	45256.60
553.18	45277.66
553.34	45411.07
553.51	44797.85
553.67	45186.38
553.84	45591.30
554.01	45186.38
554.17	45626.40
554.34	45544.48
554.51	45865.14
554.67	45544.48
554.84	45144.25
555.00	45275.32
555.17	45287.03
555.33	45478.95
555.50	45560.87
555.67	45600.66
555.83	45532.78
556.00	45687.26
556.16	45818.33
556.33	45661.51
556.50	46082.81
556.66	45586.61
556.83	45457.88
556.99	46038.34
557.16	45895.56
557.32	46103.87
557.49	45808.96
557.65	45565.55
557.82	45570.23
557.98	45687.26
558.15	45881.52
558.32	45895.56
558.48	45727.05
558.65	45961.10
558.81	45982.16
558.98	46094.51
559.14	45591.30
559.31	45808.96
559.47	46204.52
559.64	45961.10
559.80	46358.99
559.97	46188.13
560.13	45722.37
560.30	46131.96
560.46	46323.88
560.63	46227.92
560.79	46202.18
560.96	46564.96
561.12	46103.87
561.29	45830.03
561.45	46188.13
561.61	46054.72
561.78	46361.33
561.94	46270.05
562.11	46078.13
562.27	46052.38
562.44	46113.23
562.60	46445.59
562.77	46300.48
562.93	46291.12
563.10	46274.73
563.26	46103.87
563.42	46366.01
563.59	45935.35
563.75	46445.59
563.92	46279.41
564.08	46401.12
564.24	46256.01
564.41	46672.62
564.57	46089.83
564.74	46632.83
564.90	46604.75
565.07	46567.30
565.23	46487.72
565.39	46452.61
565.56	46635.17
565.72	46153.02
565.88	46302.82
566.05	46796.67
566.21	46401.12
566.38	46340.27
566.54	46543.89
566.70	46960.51
566.87	47325.63
567.03	46815.40
567.19	46909.02
567.36	46637.51
567.52	46827.10
567.68	46717.09
567.85	46206.86
568.01	46731.14
568.17	46246.65
568.34	46602.41
568.50	46497.08
568.66	46246.65
568.83	46679.64
568.99	47030.72
569.15	46412.82
569.32	46244.30
569.48	46553.26
569.64	47086.90
569.81	46749.86
569.97	46361.33
570.13	46410.48
570.30	46396.44
570.46	46492.40
570.62	46593.04
570.78	46153.02
570.95	46827.10
571.11	46923.06
571.27	46597.73
571.43	46969.87
571.60	46742.84
571.76	46703.05
571.92	46520.49
572.09	47026.04
572.25	46595.38
572.41	46953.49
572.57	46890.29
572.74	47152.43
572.90	46724.11
573.06	46710.07
573.22	46658.58
573.38	46824.76
573.55	46256.01
573.71	46880.93
573.87	46520.49
574.03	46689.01
574.20	46937.10
574.36	46508.79
574.52	46852.84
574.68	47058.81
574.84	46955.83
575.01	47098.60
575.17	46829.44
575.33	46461.97
575.49	46394.10
575.65	46876.25
575.82	47164.14
575.98	46817.74
576.14	46862.21
576.30	46976.89
576.46	46635.17
576.62	46831.78
576.79	46873.91
576.95	46330.90
577.11	46829.44
577.27	47143.07
577.43	46546.23
577.59	46892.63
577.75	46307.50
577.92	46560.28
578.08	46431.55
578.24	47014.34
578.40	46738.16
578.56	46925.40
578.72	46773.27
578.88	47138.39
579.04	46724.11
579.21	46937.10
579.37	46948.81
579.53	46614.11
579.69	46944.12
579.85	46574.32
580.01	47143.07
580.17	46693.69
580.33	46995.62
580.49	47122.01
580.65	46726.46
580.82	47091.58
580.98	46890.29
581.14	46932.42
581.30	46920.72
581.46	46791.99
581.62	47290.52
581.78	46780.29
581.94	47189.88
582.10	47093.92
582.26	47454.36
582.42	46845.82
582.58	46925.40
582.74	46770.93
582.90	47154.77
583.06	46934.76
583.22	47412.23
583.38	46890.29
583.54	47288.18
583.70	47346.70
583.86	47281.16
584.02	47056.47
584.18	46988.60
584.34	47033.07
584.50	47283.50
584.66	46864.55
584.82	46740.50
584.98	47009.66
585.14	47150.09
585.30	46719.43
585.46	46712.41
585.62	46916.04
585.78	46644.54
585.94	46806.03
586.10	46696.03
586.26	46333.24
586.42	47082.22
586.58	46962.85
586.74	47164.14
586.90	46932.42
587.06	46646.88
587.22	47381.80
587.38	47143.07
587.54	47332.65
587.70	47075.19
587.86	46560.28
588.02	46775.61
588.18	46939.44
588.34	47182.86
588.49	46457.29
588.65	46546.23
588.81	46225.58
588.97	46632.83
589.13	46497.08
589.29	46632.83
589.45	47044.77
589.61	46902.00
589.77	46958.17
589.93	47393.51
590.08	47103.28
590.24	47143.07
590.40	47452.02
590.56	47304.57
590.72	47206.26
590.88	46866.89
591.04	46911.36
591.20	47391.17
591.35	47423.93
591.51	47772.67
591.67	47377.12
591.83	47035.41
591.99	46855.18
592.15	47103.28
592.31	47346.70
592.46	47449.68
592.62	47075.19
592.78	47421.59
592.94	47234.35
593.10	47601.82
593.26	47377.12
593.41	47157.11
593.57	47157.11
593.73	46948.81
593.89	47470.75
594.05	47175.84
594.20	47232.01
594.36	47243.71
594.52	47260.10
594.68	46714.75
594.84	47049.45
594.99	47569.05
595.15	47035.41
595.31	47334.99
595.47	47143.07
595.62	47377.12
595.78	47388.83
595.94	47730.54
596.10	47213.29
596.25	47459.04
596.41	47613.52
596.57	47419.25
596.73	47232.01
596.88	46789.65
597.04	47058.81
597.20	47545.64
597.36	47452.02
597.51	47573.73
597.67	47206.26
597.83	47302.23
597.99	47356.06
598.14	47311.59
598.30	47295.21
598.46	47360.74
598.61	47002.64
598.77	47269.46
598.93	47234.35
599.09	47143.07
599.24	47599.47
599.40	47597.13
599.56	47409.89
599.71	47351.38
599.87	47739.91
600.03	47620.54
600.18	47468.40
600.34	47098.60
600.50	47217.97
600.65	47463.72
600.81	47777.36
600.97	47398.19
601.12	47557.35
601.28	47503.51
601.44	47346.70
601.59	47253.08
601.75	46607.09
601.91	46885.61
602.06	47220.31
602.22	47423.93
602.37	47056.47
602.53	47767.99
602.69	46843.48
602.84	47093.92
603.00	47232.01
603.16	46909.02
603.31	46974.55
603.47	47075.19
603.62	46841.14
603.78	47454.36
603.94	47012.00
604.09	47395.85
604.25	47189.88
604.40	46897.31
604.56	46965.19
604.71	47002.64
604.87	46948.81
605.03	47086.90
605.18	46836.46
605.34	47475.43
605.49	46415.16
605.65	47274.14
605.80	47004.98
605.96	47510.53
606.12	47278.82
606.27	47512.88
606.43	46934.76
606.58	46986.25
606.74	46766.24
606.89	47192.22
607.05	46806.03
607.20	47164.14
607.36	47302.23
607.51	46990.94
607.67	46887.95
607.82	47440.32
607.98	47351.38
608.13	46689.01
608.29	46937.10
608.44	46653.90
608.60	46326.22
608.75	46459.63
608.91	46358.99
609.06	47070.51
609.22	46775.61
609.37	46845.82
609.53	46759.22
609.68	46913.70
609.84	46230.26
609.99	46742.84
610.15	46810.71
610.30	46595.38
610.46	46766.24
610.61	46504.10
610.76	46368.35
610.92	46522.83
611.07	46614.11
611.23	46291.12
611.38	46693.69
611.54	46644.54
611.69	46256.01
611.84	45940.04
612.00	46223.24
612.15	45979.82
612.31	46499.42
612.46	46508.79
612.62	46532.19
612.77	46548.57
612.92	46754.54
613.08	46241.96
613.23	46539.21
613.39	46366.01
613.54	45787.90
613.69	46419.84
613.85	46134.30
614.00	46494.74
614.15	46761.56
614.31	46499.42
614.46	46422.19
614.62	46422.19
614.77	45956.42
614.92	46071.10
615.08	46101.53
615.23	46497.08
615.38	46347.29
615.54	45879.18
615.69	45656.83
615.84	45565.55
616.00	45813.65
616.15	45970.46
616.30	46092.17
616.46	45420.44
616.61	45294.05
616.76	45647.47
616.92	45467.25
617.07	45469.59
617.22	45724.71
617.37	45483.63
617.53	45900.25
617.68	46115.58
617.83	45673.21
617.99	46085.15
618.14	45324.47
618.29	45738.75
618.45	45415.76
618.60	45364.26
618.75	45125.53
618.90	45095.10
619.06	45251.92
619.21	45806.62
619.36	45502.35
619.51	45429.80
619.67	45600.66
619.82	45755.13
619.97	45443.84
620.12	45064.67
620.28	45097.44
620.43	45205.11
620.58	45106.80
620.73	45165.32
620.89	45256.60
621.04	45542.14
621.19	44987.44
621.34	44924.24
621.49	45078.72
621.65	45111.49
621.80	45127.87
621.95	44858.71
622.10	44652.74
622.25	45099.78
622.41	44949.99
622.56	44732.32
622.71	44690.19
622.86	44612.95
623.01	45256.60
623.16	45076.38
623.32	44891.48
623.47	44928.92
623.62	44884.45
623.77	44875.09
623.92	44809.56
624.07	44229.10
624.23	44137.82
624.38	44123.78
624.53	44549.76
624.68	44870.41
624.83	44540.39
624.98	44170.59
625.13	44481.88
625.29	44135.48
625.44	44435.07
625.59	44088.67
625.74	44046.54
625.89	43718.87
626.04	43868.66
626.19	43966.96
626.34	44301.66
626.49	43854.62
626.65	44425.71
626.80	44259.53
626.95	43812.49
627.10	43676.74
627.25	44037.18
627.40	43592.48
627.55	43313.95
627.70	43100.97
627.85	43540.99
628.00	43639.29
628.15	43955.26
628.30	43739.93
628.45	43807.81
628.60	43175.86
628.76	43798.44
628.91	43756.32
629.06	43648.65
629.21	43477.79
629.36	43559.71
629.51	43489.49
629.66	43115.01
629.81	43515.24
629.96	43517.58
630.11	43119.69
630.26	43393.53
630.41	43459.07
630.56	43171.18
630.71	43269.48
630.86	43550.35
631.01	43026.07
631.16	43260.12
631.31	42630.52
631.46	43023.73
631.61	43093.94
631.76	42841.17
631.91	43576.09
632.06	43138.41
632.21	43278.85
632.36	43196.93
632.51	42667.97
632.66	42995.64
632.81	42705.41
632.96	42934.79
633.10	42635.20
633.25	42314.55
633.40	42829.46
633.55	43023.73
633.70	43215.65
633.85	42541.58
634.00	42827.12
634.15	42728.82
634.30	42476.04
634.45	42452.64
634.60	42251.35
634.75	42286.46
634.90	42572.00
635.05	42370.72
635.19	42459.66
635.34	42609.45
635.49	42822.44
635.64	42305.18
635.79	42487.74
635.94	42225.60
636.09	42436.25
636.24	42696.05
636.39	41937.72
636.53	42230.29
636.68	42157.73
636.83	42337.95
636.98	42197.52
637.13	41958.78
637.28	41954.10
637.43	42246.67
637.57	42309.86
637.72	42197.52
637.87	41888.57
638.02	41865.16
638.17	41769.20
638.32	41764.52
638.46	42024.32
638.61	41652.17
638.76	42239.65
638.91	41347.90
639.06	41755.16
639.20	41687.28
639.35	41696.64
639.50	41811.33
639.65	41720.05
639.80	41935.38
639.94	41535.15
640.09	41521.10
640.24	41387.69
640.39	41109.17
640.54	41560.89
640.68	41258.96
640.83	41345.56
640.98	41514.08
641.13	41209.81
641.27	41911.97
641.42	41333.86
641.57	41141.94
641.72	41546.85
641.86	40947.67
642.01	41167.68
642.16	40809.58
642.31	41109.17
642.45	41450.89
642.60	40753.41
642.75	40460.84
642.90	40549.78
643.04	41153.64
643.19	41434.50
643.34	40910.22
643.48	40903.20
643.63	40982.78
643.78	40627.02
643.93	40566.16
644.07	40664.47
644.22	40676.17
644.37	40552.12
644.51	40849.37
644.66	40680.85
644.81	41097.47
644.95	40666.81
645.10	40690.21
645.25	40821.28
645.39	40587.23
645.54	40589.57
645.69	40130.83
645.83	40154.23
645.98	40678.51
646.13	40374.24
646.27	40229.13
646.42	40322.75
646.57	40055.93
646.71	40194.02
646.86	40308.71
647.00	40790.86
647.15	40629.36
647.30	40549.78
647.44	40404.67
647.59	39941.24
647.74	40179.98
647.88	39620.59
648.03	39861.66
648.17	40114.44
648.32	39758.68
648.47	39913.16
648.61	40278.28
648.76	40390.62
648.90	39992.73
649.05	39894.43
649.20	40198.70
649.34	39599.52
649.49	39756.34
649.63	40030.18
649.78	39629.95
649.92	39735.27
650.07	39896.77
650.21	39866.34
650.36	39569.10
650.51	39997.41
650.65	39735.27
650.80	40006.78
650.94	39704.85
651.09	39203.97
651.23	39515.26
651.38	39651.02
651.52	39658.04
651.67	39489.52
651.81	39454.41
651.96	39550.37
652.10	39213.34
652.25	39187.59
652.39	39360.79
652.54	39395.90
652.68	39419.30
652.83	39805.49
652.97	39618.25
653.12	39494.20
653.26	39093.97
653.41	39306.96
653.55	39398.24
653.70	39033.11
653.84	38904.38
653.99	38953.54
654.13	38855.23
654.27	39093.97
654.42	38836.51
654.56	39058.86
654.71	38728.84
654.85	39012.05
655.00	38946.51
655.14	38993.32
655.29	38553.30
655.43	38623.52
655.57	38852.89
655.72	38199.88
655.86	38321.59
656.01	38202.22
656.15	37975.19
656.30	38309.89
656.44	38382.45
656.58	38092.22
656.73	38469.04
656.87	38199.88
657.01	37940.08
657.16	37804.33
657.30	38146.05
657.45	38328.61
657.59	37923.70
657.73	38169.46
657.88	38382.45
658.02	38120.31
658.16	38410.53
658.31	37752.84
658.45	38288.82
658.60	38394.15
658.74	38188.18
658.88	37947.11
659.03	37612.41
659.17	37872.21
659.31	37649.86
659.46	37457.93
659.60	37640.50
659.74	37635.81
659.89	37291.76
660.03	37633.47
660.17	37766.88
660.32	37560.92
660.46	37972.85
660.60	37581.98
660.74	37530.49
660.89	37940.08
661.03	37057.70
661.17	37120.90
661.32	37022.59
661.46	37088.13
661.60	36996.85
661.74	37373.67
661.89	36957.06
662.03	37078.77
662.17	36886.84
662.31	36926.63
662.46	37158.34
662.60	37078.77
662.74	36753.43
662.88	36802.58
663.03	36849.39
663.17	36938.33
663.31	36566.19
663.45	36346.18
663.60	36631.72
663.74	36355.54
663.88	36254.90
664.02	35754.02
664.17	36273.62
664.31	35999.78
664.45	35828.92
664.59	36259.58
664.73	36210.43
664.88	36191.70
665.02	35634.66
665.16	36079.36
665.30	36100.42
665.44	35962.33
665.59	35777.43
665.73	35889.77
665.87	35498.91
666.01	35765.73
666.15	35669.76
666.29	35576.14
666.44	35707.21
666.58	35782.11
666.72	35395.92
666.86	35779.77
667.00	35515.29
667.14	35360.81
667.28	35187.61
667.43	35386.56
667.57	35299.96
667.71	34941.86
667.85	35218.04
667.99	34312.25
668.13	34658.65
668.27	34309.91
668.41	34754.61
668.56	34232.68
668.70	34806.11
668.84	34850.58
668.98	34525.24
669.12	34354.38
669.26	34562.69
669.40	34307.57
669.54	34127.35
669.68	33949.47
669.82	33708.40
669.96	34260.76
670.10	33743.50
670.25	34218.63
670.39	34415.24
670.53	34103.95
670.67	33720.10
670.81	34029.05
670.95	33979.90
671.09	33876.91
671.23	33860.53
671.37	33944.79
671.51	33881.60
671.65	33450.94
671.79	33104.54
671.93	33322.21
672.07	33266.03
672.21	33036.66
672.35	33149.01
672.49	33020.28
672.63	33177.09
672.77	33401.79
672.91	33106.88
673.05	33081.13
673.19	32645.79
673.33	32573.24
673.47	32868.14
673.61	32414.08
673.75	32027.89
673.89	32245.56
674.03	31484.89
674.17	31929.59
674.31	31707.24
674.45	32177.68
674.59	32114.49
674.73	32156.62
674.87	31768.09
675.01	32287.69
675.15	31910.86
675.29	32077.04
675.43	31786.82
675.56	31704.90
675.70	31482.55
675.84	31449.78
675.98	30146.10
676.12	31412.33
676.26	30749.96
676.40	31119.76
676.54	30417.60
676.68	30895.07
676.82	30494.84
676.96	30515.90
677.10	30132.06
677.23	30291.21
677.37	30459.73
677.51	30356.75
677.65	30649.32
677.79	30125.04
677.93	30143.76
678.07	29769.27
678.21	29743.53
678.34	29717.78
678.48	29670.97
678.62	29436.92
678.76	29715.44
678.90	29282.44
679.04	29340.96
679.18	29780.98
679.31	29001.58
679.45	28900.94
679.59	28753.48
679.73	28954.77
679.87	29017.96
680.00	29223.93
680.14	28861.15
680.28	28526.45
680.42	28257.29
680.56	28987.53
680.70	28371.97
680.83	27948.34
680.97	28088.77
681.11	28215.16
681.25	28053.66
681.39	28306.44
681.52	28130.90
681.66	28086.43
681.80	27278.94
681.94	27550.45
682.07	27377.25
682.21	27381.93
682.35	27103.40
682.49	27126.81
682.62	27445.12
682.76	27285.97
682.90	27126.81
683.04	27037.87
683.17	26773.39
683.31	26628.27
683.45	26852.97
683.59	26764.03
683.72	26228.04
683.86	26136.76
684.00	26391.88
684.13	26536.99
684.27	25954.20
684.41	25907.39
684.55	25624.18
684.68	25823.13
684.82	25617.16
684.96	25589.08
685.09	25729.51
685.23	25345.66
685.37	24900.96
685.50	25034.37
685.64	25167.78
685.78	24805.00
685.91	25109.27
686.05	24900.96
686.19	24842.45
686.32	25001.60
686.46	24147.31
686.60	23988.15
686.73	24294.76
686.87	23538.77
687.01	23772.82
687.14	23674.52
687.28	23812.61
687.42	23840.70
687.55	23522.38
687.69	23140.88
687.82	23398.34
687.96	23854.74
688.10	23117.47
688.23	23419.40
688.37	23147.90
688.50	22808.52
688.64	22796.82
688.78	23009.81
688.91	22911.50
689.05	22623.62
689.18	22740.64
689.32	22185.94
689.46	22579.15
689.59	22497.23
689.73	22522.98
689.86	22562.76
690.00	22354.46
690.13	22654.05
690.27	22396.59
690.41	22267.86
690.54	21666.34
690.68	22125.08
690.81	21685.06
690.95	21774.00
691.08	21724.85
691.22	21521.23
691.35	21607.83
691.49	21317.60
691.62	21659.32
691.76	21591.44
691.89	21785.71
692.03	21202.91
692.16	20982.90
692.30	20908.01
692.43	20943.11
692.57	20643.52
692.70	20716.08
692.84	20723.10
692.97	20538.20
693.11	20409.47
693.24	20666.93
693.38	20049.03
693.51	20201.16
693.65	20114.56
693.78	20086.48
693.92	19660.50
694.05	19910.94
694.19	19487.30
694.32	19695.61
694.45	19683.91
694.59	19529.43
694.72	19637.09
694.86	19414.74
694.99	18874.08
695.13	19161.97
695.26	18707.90
695.39	18754.71
695.53	19066.00
695.66	19283.67
695.80	18930.25
695.93	18981.74
696.07	18831.95
696.20	18637.69
696.33	18717.26
696.47	18420.02
696.60	18471.51
696.73	18480.87
696.87	18335.76
697.00	18197.67
697.14	18143.83
697.27	18129.79
697.40	18064.25
697.54	18342.78
697.67	17547.00
697.80	17907.44
697.94	17680.41
698.07	17811.48
698.21	17804.46
698.34	17837.22
698.47	17282.52
698.61	17219.32
698.74	17104.64
698.87	17289.54
699.01	17062.51
699.14	16903.35
699.27	16987.61
699.40	16755.90
699.54	16664.61
699.67	16720.79
699.80	16919.73
699.94	16528.86
700.07	16470.35
700.20	16350.98
700.34	16402.47
700.47	16479.71
700.60	16393.11
700.73	16360.34
700.87	16137.99
701.00	15985.86
701.13	15929.69
701.26	16077.14
701.40	15925.00
701.53	15728.40
701.66	15777.55
701.79	15494.35
701.93	15382.00
702.06	15454.56
702.19	15190.08
702.32	15339.87
702.46	14984.11
702.59	15445.20
702.72	15154.97
702.85	15250.93
702.99	15000.49
703.12	15290.72
703.25	14820.27
703.38	14951.34
703.51	14836.66
703.65	14764.10
703.78	14574.52
703.91	14773.46
704.04	14494.94
704.17	14406.00
704.31	14265.57
704.44	14160.24
704.57	14197.69
704.70	14176.62
704.83	14127.47
704.96	14164.92
705.10	14129.81
705.23	14171.94
>>>>>End Processed Spectral Data<<<<<
