SpectraSuite Data File
++++++++++++++++++++++++++++++++++++
Date: Fri Oct 25 10:48:33 EDT 2013
User: price-jones
Dark Spectrum Present: No
Reference Spectrum Present: No
Number of Sampled Component Spectra: 1
Spectrometers: USB2+H05261
Integration Time (usec): 100000 (USB2+H05261)
Spectra Averaged: 1 (USB2+H05261)
Boxcar Smoothing: 0 (USB2+H05261)
Correct for Electrical Dark: No (USB2+H05261)
Strobe/Lamp Enabled: No (USB2+H05261)
Correct for Detector Non-linearity: No (USB2+H05261)
Correct for Stray Light: No (USB2+H05261)
Number of Pixels in Processed Spectrum: 2048
>>>>>Begin Processed Spectral Data<<<<<
365.73	182.56
365.92	182.56
366.12	182.56
366.32	91.28
366.52	0.00
366.72	100.64
366.91	37.45
367.11	63.19
367.31	46.81
367.51	74.90
367.70	37.45
367.90	100.64
368.10	84.26
368.30	23.41
368.49	0.00
368.69	107.66
368.89	128.73
369.09	16.38
369.28	105.32
369.48	63.19
369.68	110.01
369.87	175.54
370.07	110.01
370.27	215.33
370.47	191.92
370.66	404.91
370.86	489.17
371.06	528.96
371.25	484.49
371.45	482.15
371.65	470.45
371.84	456.40
372.04	472.79
372.24	528.96
372.44	540.66
372.63	573.43
372.83	554.71
373.03	554.71
373.22	435.34
373.42	568.75
373.62	531.30
373.81	617.90
374.01	592.16
374.21	573.43
374.40	620.24
374.60	692.80
374.79	507.90
374.99	596.84
375.19	622.58
375.38	681.10
375.58	620.24
375.78	580.45
375.97	622.58
376.17	681.10
376.37	601.52
376.56	617.90
376.76	571.09
376.95	601.52
377.15	702.16
377.35	685.78
377.54	662.37
377.74	681.10
377.93	631.94
378.13	648.33
378.33	725.57
378.52	709.18
378.72	699.82
378.91	702.16
379.11	697.48
379.31	641.31
379.50	629.60
379.70	737.27
379.89	706.84
380.09	709.18
380.28	692.80
380.48	807.48
380.68	688.12
380.87	690.46
381.07	711.52
381.26	720.88
381.46	748.97
381.65	781.74
381.85	744.29
382.04	741.95
382.24	690.46
382.43	671.73
382.63	730.25
382.83	702.16
383.02	772.38
383.22	816.85
383.41	767.70
383.61	709.18
383.80	849.61
384.00	863.66
384.19	788.76
384.39	842.59
384.58	814.51
384.78	812.17
384.97	847.27
385.17	791.10
385.36	795.78
385.56	840.25
385.75	779.40
385.95	844.93
386.14	887.06
386.34	828.55
386.53	908.13
386.72	947.92
386.92	931.53
387.11	868.34
387.31	1008.77
387.50	940.90
387.70	929.19
387.89	947.92
388.09	858.98
388.28	938.55
388.48	1008.77
388.67	994.73
388.86	945.58
389.06	908.13
389.25	938.55
389.45	1004.09
389.64	1027.50
389.84	992.39
390.03	1057.92
390.22	1055.58
390.42	999.41
390.61	1074.31
390.81	1149.20
391.00	1067.28
391.19	1146.86
391.39	1109.41
391.58	1025.15
391.78	1083.67
391.97	1102.39
392.16	1004.09
392.36	1090.69
392.55	1139.84
392.75	1088.35
392.94	1022.81
393.13	1057.92
393.33	1055.58
393.52	1123.46
393.71	1203.04
393.91	1181.97
394.10	1287.29
394.29	1303.68
394.49	1165.59
394.68	1151.54
394.88	1219.42
395.07	1320.06
395.26	1357.51
395.46	1324.74
395.65	1249.85
395.84	1191.33
396.04	1193.67
396.23	1275.59
396.42	1240.48
396.62	1245.16
396.81	1310.70
397.00	1224.10
397.19	1364.53
397.39	1341.13
397.58	1334.11
397.77	1394.96
397.97	1437.09
398.16	1488.58
398.35	1490.92
398.55	1547.09
398.74	1537.73
398.93	1561.14
399.12	1509.65
399.32	1486.24
399.51	1544.75
399.70	1650.08
399.90	1584.54
400.09	1575.18
400.28	1650.08
400.47	1661.78
400.67	1652.42
400.86	1778.81
401.05	1734.34
401.24	1724.97
401.44	1724.97
401.63	1760.08
401.82	1762.42
402.01	1792.85
402.21	1858.39
402.40	1778.81
402.59	1851.36
402.78	1930.94
402.97	1776.47
403.17	1881.79
403.36	1863.07
403.55	1802.21
403.74	1949.67
403.93	2003.50
404.13	1980.09
404.32	1877.11
404.51	1898.17
404.70	1942.64
404.89	1900.52
405.09	2015.20
405.28	2010.52
405.47	2052.65
405.66	2111.16
405.85	2029.24
406.05	1949.67
406.24	2062.01
406.43	2172.02
406.62	2099.46
406.81	2148.61
407.00	2012.86
407.20	2069.03
407.39	2174.36
407.58	2282.02
407.77	2193.08
407.96	2333.51
408.15	2284.36
408.34	2174.36
408.54	2324.15
408.73	2307.77
408.92	2359.26
409.11	2445.86
409.30	2359.26
409.49	2328.83
409.68	2303.09
409.87	2534.80
410.07	2370.96
410.26	2380.32
410.45	2380.32
410.64	2576.93
410.83	2551.18
411.02	2537.14
411.21	2555.86
411.40	2642.46
411.59	2623.74
411.78	2663.53
411.98	2656.51
412.17	2715.02
412.36	2719.70
412.55	2846.09
412.74	2745.45
412.93	2794.60
413.12	2810.98
413.31	2935.03
413.50	2937.37
413.69	2970.14
413.88	2883.54
414.07	2960.78
414.26	3077.80
414.45	2965.46
414.64	3028.65
414.83	3124.62
415.02	3045.04
415.22	3248.66
415.41	3070.78
415.60	3183.13
415.79	3279.09
415.98	3463.99
416.17	3309.52
416.36	3330.58
416.55	3325.90
416.74	3433.57
416.93	3417.18
417.12	3449.95
417.31	3599.74
417.50	3513.14
417.69	3648.90
417.88	3438.25
418.07	3515.48
418.26	3440.59
418.45	3513.14
418.64	3681.66
418.83	3747.20
419.02	3665.28
419.21	3623.15
419.39	3681.66
419.58	3559.95
419.77	3637.19
419.96	3735.50
420.15	3798.69
420.34	3779.97
420.53	3908.69
420.72	3805.71
420.91	3901.67
421.10	3911.04
421.29	3988.27
421.48	3892.31
421.67	3967.21
421.86	4067.85
422.05	3922.74
422.24	3866.56
422.43	3920.40
422.61	4004.66
422.80	4049.13
422.99	4133.39
423.18	4072.53
423.37	4018.70
423.56	4011.68
423.75	4095.94
423.94	3901.67
424.13	3845.50
424.32	3927.42
424.50	4004.66
424.69	4241.05
424.88	4009.34
425.07	4009.34
425.26	4070.19
425.45	4007.00
425.64	4095.94
425.83	3990.61
426.01	4119.34
426.20	4276.16
426.39	4215.30
426.58	4056.15
426.77	4112.32
426.96	4119.34
427.15	4077.21
427.33	4245.73
427.52	4177.86
427.71	4145.09
427.90	4205.94
428.09	4327.65
428.28	4409.57
428.46	4327.65
428.65	4320.63
428.84	4423.61
429.03	4430.63
429.22	4297.22
429.40	4365.10
429.59	4227.01
429.78	4056.15
429.97	4065.51
430.16	4009.34
430.34	4187.22
430.53	4348.72
430.72	4250.41
430.91	4304.25
431.10	4386.16
431.28	4517.23
431.47	4910.44
431.66	4772.35
431.85	4592.13
432.03	4655.33
432.22	4737.24
432.41	4648.30
432.60	4723.20
432.79	4828.53
432.97	5025.13
433.16	4844.91
433.35	4891.72
433.54	4692.77
433.72	4781.71
433.91	4767.67
434.10	4954.91
434.28	4966.62
434.47	4877.68
434.66	5130.45
434.85	4985.34
435.03	5193.65
435.22	5142.16
435.41	5261.52
435.59	5186.63
435.78	5228.76
435.97	5329.40
436.16	5289.61
436.34	5263.86
436.53	5231.10
436.72	5322.38
436.90	5195.99
437.09	5390.25
437.28	5254.50
437.46	5261.52
437.65	5242.80
437.84	5392.59
438.02	5256.84
438.21	5301.31
438.40	5406.64
438.58	5394.93
438.77	5579.84
438.96	5586.86
439.14	5586.86
439.33	5715.59
439.52	5778.78
439.70	5781.12
439.89	5813.89
440.08	5778.78
440.26	5933.26
440.45	5818.57
440.63	5956.66
440.82	6094.76
441.01	6008.16
441.19	6249.23
441.38	6256.25
441.57	6370.94
441.75	6354.55
441.94	6576.91
442.12	6406.05
442.31	6616.69
442.50	6497.33
442.68	6413.07
442.87	6567.54
443.05	6476.26
443.24	6712.66
443.43	6637.76
443.61	6773.51
443.80	6913.94
443.98	6595.63
444.17	6530.09
444.35	6649.46
444.54	6696.27
444.73	6789.89
444.91	6459.88
445.10	6675.21
445.28	6677.55
445.47	6612.01
445.65	6464.56
445.84	6696.27
446.02	6640.10
446.21	6689.25
446.39	6672.87
446.58	6925.65
446.77	6724.36
446.95	6705.63
447.14	6792.23
447.32	6918.62
447.51	6817.98
447.69	6731.38
447.88	6918.62
448.06	6869.47
448.25	6916.28
448.43	6993.52
448.62	6829.68
448.80	6813.30
448.99	7096.50
449.17	7115.23
449.36	6986.50
449.54	7082.46
449.73	7379.71
449.91	7503.76
450.10	7398.43
450.28	7419.50
450.46	7466.31
450.65	7379.71
450.83	7391.41
451.02	7548.23
451.20	7548.23
451.39	7248.64
451.57	7440.56
451.76	7386.73
451.94	7550.57
452.13	7379.71
452.31	7463.97
452.49	7307.15
452.68	7499.08
452.86	7243.96
453.05	7581.00
453.23	7412.48
453.42	7590.36
453.60	7569.29
453.78	7740.15
453.97	7695.68
454.15	7438.22
454.34	7442.90
454.52	7557.59
454.70	7772.92
454.89	7740.15
455.07	7742.49
455.26	8035.06
455.44	8049.10
455.62	8072.51
455.81	7960.16
455.99	7915.69
456.17	7934.42
456.36	8163.79
456.54	8046.76
456.73	8287.84
456.91	8308.90
457.09	8140.38
457.28	8542.96
457.46	8126.34
457.64	8376.78
457.83	8290.18
458.01	8102.93
458.19	8353.37
458.38	8208.26
458.56	8603.81
458.74	8526.57
458.93	8276.13
459.11	8503.17
459.29	8496.14
459.48	8655.30
459.66	8430.61
459.84	8685.73
460.03	8463.38
460.21	8786.37
460.39	8727.86
460.57	8779.35
460.76	8699.77
460.94	8840.20
461.12	8784.03
461.31	8933.82
461.49	8786.37
461.67	8894.04
461.85	9191.28
462.04	9078.94
462.22	9373.85
462.40	8968.93
462.59	9142.13
462.77	9207.67
462.95	9224.05
463.13	9067.24
463.32	9287.25
463.50	9444.06
463.68	9343.42
463.86	9219.37
464.05	8959.57
464.23	9252.14
464.41	9350.44
464.59	9191.28
464.78	9310.65
464.96	9448.74
465.14	9207.67
465.32	9589.17
465.50	9338.74
465.69	9584.49
465.87	9558.75
466.05	9483.85
466.23	9305.97
466.41	9462.79
466.60	9682.80
466.78	9441.72
466.96	9556.41
467.14	9703.86
467.32	9699.18
467.51	9804.50
467.69	9425.34
467.87	9760.03
468.05	9795.14
468.23	9736.63
468.41	9848.97
468.60	9650.03
468.78	9809.19
468.96	9713.22
469.14	9778.76
469.32	10038.56
469.50	9715.56
469.69	9872.38
469.87	9914.51
470.05	9785.78
470.23	10113.45
470.41	9991.75
470.59	10169.63
470.77	9973.02
470.95	10242.18
471.14	10443.47
471.32	10354.53
471.50	10649.44
471.68	10637.73
471.86	10740.72
472.04	10647.10
472.22	10806.25
472.40	10761.78
472.58	10490.28
472.77	10644.76
472.95	10764.12
473.13	11180.74
473.31	10738.38
473.49	10867.11
473.67	10726.68
473.85	11211.17
474.03	11250.96
474.21	11213.51
474.39	11290.74
474.57	11398.41
474.75	11367.98
474.93	11283.72
475.12	11384.37
475.30	11267.34
475.48	11583.31
475.66	11819.71
475.84	11665.23
476.02	11730.76
476.20	11585.65
476.38	12004.61
476.56	12152.06
476.74	11962.48
476.92	11990.56
477.10	12098.23
477.28	12442.29
477.46	12451.65
477.64	12755.92
477.82	12498.46
478.00	12875.29
478.18	12814.43
478.36	13004.02
478.54	13001.68
478.72	13046.15
478.90	13404.25
479.08	13413.61
479.26	13404.25
479.44	13523.62
479.62	13605.53
479.80	13778.73
479.98	13755.33
480.16	14239.82
480.34	13991.72
480.52	14015.13
480.70	13987.04
480.88	14190.67
481.06	14338.12
481.24	14331.10
481.41	14483.24
481.59	14871.76
481.77	15087.09
481.95	14630.69
482.13	14902.19
482.31	14740.69
482.49	14941.98
482.67	15101.14
482.85	15480.30
483.03	15522.43
483.21	15655.84
483.39	15704.99
483.57	15709.68
483.74	15910.96
483.92	15763.51
484.10	15992.88
484.28	16578.01
484.46	16280.77
484.64	16791.00
484.82	16386.09
485.00	16400.13
485.18	16901.01
485.35	16973.56
485.53	16430.56
485.71	16545.25
485.89	16788.66
486.07	16739.51
486.25	17142.08
486.43	17366.78
486.61	17458.06
486.78	17661.68
486.96	17610.19
487.14	18295.97
487.32	18146.17
487.50	18530.02
487.68	18649.39
487.85	19002.81
488.03	18951.32
488.21	19066.00
488.39	19061.32
488.57	19098.77
488.75	19213.46
488.92	19452.19
489.10	19653.48
489.28	19812.63
489.46	19861.79
489.64	20152.01
489.81	20709.06
489.99	20779.28
490.17	20713.74
490.35	20835.45
490.53	20971.20
490.70	21156.10
490.88	21057.80
491.06	21453.35
491.24	21245.04
491.41	21294.19
491.59	21486.12
491.77	21308.24
491.95	21703.79
492.13	21977.63
492.30	22082.95
492.48	22139.13
492.66	22455.10
492.84	22422.33
493.01	22803.84
493.19	22611.92
493.37	22934.91
493.54	23267.27
493.72	23285.99
493.90	23353.87
494.08	23021.51
494.25	23625.37
494.43	23559.83
494.61	24004.53
494.79	23564.51
494.96	23840.70
495.14	24067.73
495.32	24474.98
495.49	24521.79
495.67	24638.82
495.85	24765.21
496.02	25149.06
496.20	25099.90
496.38	25135.01
496.55	24762.87
496.73	25432.26
496.91	25275.45
497.09	25678.02
497.26	26071.23
497.44	25647.59
497.62	25776.32
497.79	26314.64
497.97	25603.12
498.14	26054.84
498.32	26188.25
498.50	26096.97
498.67	26759.34
498.85	26565.08
499.03	27105.74
499.20	26501.89
499.38	26686.79
499.56	26934.88
499.73	27288.31
499.91	27208.73
500.08	27285.97
500.26	26941.91
500.44	27281.28
500.61	27480.23
500.79	27150.21
500.97	27487.25
501.14	27908.55
501.32	27513.00
501.49	27955.36
501.67	27735.35
501.84	27740.03
502.02	28060.68
502.20	28158.99
502.37	28435.17
502.55	28531.13
502.72	28655.18
502.90	28940.72
503.07	28430.49
503.25	28662.20
503.43	28381.34
503.60	29118.60
503.78	29333.93
503.95	28945.41
504.13	29460.32
504.30	29406.49
504.48	29160.73
504.65	29439.26
504.83	29879.28
505.01	29642.88
505.18	29827.79
505.36	30202.27
505.53	30183.55
505.71	30249.08
505.88	30319.30
506.06	29895.66
506.23	30672.72
506.41	30415.26
506.58	30419.94
506.76	31007.42
506.93	30649.32
507.11	30838.90
507.28	30951.24
507.46	30567.40
507.63	30670.38
507.81	31047.21
507.98	31061.25
508.16	31147.85
508.33	31002.74
508.50	31377.22
508.68	31627.66
508.85	31948.31
509.03	31531.70
509.20	31756.39
509.38	31747.03
509.55	31819.58
509.73	31641.70
509.90	32334.50
510.08	32219.81
510.25	32442.17
510.42	32397.70
510.60	32418.76
510.77	32528.77
510.95	33144.33
511.12	32748.78
511.30	32952.40
511.47	33256.67
511.64	33111.56
511.82	33345.61
511.99	33408.81
512.17	33209.86
512.34	32868.14
512.51	33097.52
512.69	33537.54
512.86	33266.03
513.04	34061.82
513.21	33834.78
513.38	33256.67
513.56	33558.60
513.73	33209.86
513.90	33886.28
514.08	33715.42
514.25	33865.21
514.43	33900.32
514.60	33949.47
514.77	34185.86
514.95	34286.51
515.12	34609.50
515.29	34562.69
515.47	34993.35
515.64	35044.84
515.81	34424.60
515.99	34494.82
516.16	34960.58
516.33	34244.38
516.51	34452.69
516.68	34054.79
516.85	33347.95
517.03	34295.87
517.20	34881.00
517.37	35131.44
517.54	35115.06
517.72	35255.49
517.89	34883.34
518.06	34471.41
518.24	34803.77
518.41	35400.60
518.58	35608.91
518.75	35023.78
518.93	35840.62
519.10	35772.75
519.27	36128.51
519.45	35948.29
519.62	36203.41
519.79	36172.98
519.96	36528.74
520.14	36175.32
520.31	35803.17
520.48	36512.36
520.65	36463.21
520.83	37022.59
521.00	36737.05
521.17	36570.87
521.34	37038.98
521.52	37141.96
521.69	36835.35
521.86	37099.83
522.03	37392.40
522.20	37270.69
522.38	37207.50
522.55	37406.44
522.72	37364.31
522.89	37462.61
523.07	37610.07
523.24	37317.50
523.41	37963.49
523.58	37689.65
523.75	38050.09
523.92	38380.10
524.10	37890.93
524.27	38377.76
524.44	38218.61
524.61	38593.09
524.78	38281.80
524.96	38307.55
525.13	38373.08
525.30	38625.86
525.47	38829.49
525.64	38656.29
525.81	38616.50
525.98	38031.36
526.16	37989.24
526.33	38040.73
526.50	38756.93
526.67	37979.87
526.84	38356.70
527.01	38167.12
527.18	38831.83
527.36	38993.32
527.53	39246.10
527.70	39072.90
527.87	39721.23
528.04	39178.23
528.21	39391.22
528.38	39337.38
528.55	39599.52
528.72	39524.63
528.89	39789.11
529.07	39868.69
529.24	39796.13
529.41	39910.82
529.58	39611.23
529.75	39824.22
529.92	40495.95
530.09	39791.45
530.26	40280.62
530.43	40208.06
530.60	39896.77
530.77	40098.06
530.94	40556.80
531.11	40460.84
531.28	40484.25
531.46	40655.11
531.63	40610.64
531.80	40722.98
531.97	40250.19
532.14	40343.81
532.31	40067.63
532.48	40289.98
532.65	40334.45
532.82	40629.36
532.99	40811.92
533.16	40533.40
533.33	40823.62
533.50	41017.89
533.67	40914.90
533.84	40620.00
534.01	41193.43
534.18	40589.57
534.35	40975.76
534.52	40804.90
534.69	41357.27
534.86	41329.18
535.03	41074.06
535.20	41668.56
535.37	42190.50
535.54	42239.65
535.71	41558.55
535.88	41769.20
536.05	41422.80
536.22	41626.43
536.38	42033.68
536.55	41851.12
536.72	41706.01
536.89	41322.16
537.06	41553.87
537.23	41626.43
537.40	41755.16
537.57	41862.82
537.74	41986.87
537.91	42487.74
538.08	42124.96
538.25	42110.92
538.42	42359.02
538.59	42181.13
538.75	41909.63
538.92	42169.43
539.09	42312.20
539.26	42043.04
539.43	42782.65
539.60	42380.08
539.77	41930.70
539.94	42721.80
540.11	42361.36
540.28	42382.42
540.44	42483.06
540.61	42431.57
540.78	42344.97
540.95	42595.41
541.12	42492.43
541.29	42705.41
541.46	42724.14
541.62	42756.91
541.79	43271.82
541.96	42983.94
542.13	42972.24
542.30	43173.52
542.47	43122.03
542.63	42948.83
542.80	43182.88
542.97	43690.78
543.14	44170.59
543.31	43878.02
543.48	43641.63
543.64	44339.11
543.81	43686.10
543.98	43992.71
544.15	43842.92
544.32	43562.05
544.48	44250.17
544.65	44098.03
544.82	44245.49
544.99	43592.48
545.16	43763.34
545.32	43913.13
545.49	43964.62
545.66	44514.65
545.83	43931.86
546.00	44273.57
546.16	44236.12
546.33	43938.88
546.50	43847.60
546.67	44425.71
546.83	43796.10
547.00	44460.82
547.17	44374.22
547.34	44332.09
547.50	44289.96
547.67	44357.83
547.84	44399.96
548.00	44875.09
548.17	45158.30
548.34	44624.65
548.51	44552.10
548.67	45216.81
548.84	45017.86
549.01	44978.07
549.18	44856.37
549.34	44587.21
549.51	45057.65
549.68	45212.13
549.84	45179.36
550.01	45144.25
550.18	44430.39
550.34	45031.91
550.51	45052.97
550.68	44914.88
550.84	44865.73
551.01	44839.98
551.18	45361.92
551.34	45265.96
551.51	45263.62
551.68	45303.41
551.84	45251.92
552.01	45174.68
552.18	45457.88
552.34	45111.49
552.51	45249.58
552.68	45275.32
552.84	45673.21
553.01	45518.74
553.18	45577.25
553.34	45574.91
553.51	45331.50
553.67	45329.16
553.84	45713.00
554.01	46300.48
554.17	45954.08
554.34	46108.55
554.51	46225.58
554.67	46021.95
554.84	45558.53
555.00	45518.74
555.17	45446.18
555.33	45837.05
555.50	45944.72
555.67	45844.07
555.83	45783.22
556.00	45935.35
556.16	46071.10
556.33	46415.16
556.50	46150.68
556.66	45738.75
556.83	45689.60
556.99	46167.07
557.16	46106.21
557.32	45624.06
557.49	46258.35
557.65	45612.36
557.82	45921.31
557.98	45832.37
558.15	45970.46
558.32	45837.05
558.48	46354.31
558.65	46396.44
558.81	46380.06
558.98	45977.48
559.14	46129.62
559.31	46206.86
559.47	46302.82
559.64	46574.32
559.80	46239.62
559.97	46059.40
560.13	46157.70
560.30	46370.69
560.46	46527.51
560.63	46263.03
560.79	46522.83
560.96	46665.60
561.12	46527.51
561.29	46082.81
561.45	46564.96
561.61	46586.02
561.78	46501.76
561.94	46459.63
562.11	46623.47
562.27	46794.33
562.44	46361.33
562.60	47037.75
562.77	46916.04
562.93	46672.62
563.10	46930.08
563.26	46574.32
563.42	46534.53
563.59	46230.26
563.75	46459.63
563.92	47014.34
564.08	46501.76
564.24	47119.66
564.41	46993.28
564.57	46803.69
564.74	46635.17
564.90	46665.60
565.07	46927.74
565.23	46806.03
565.39	46686.67
565.56	46780.29
565.72	46754.54
565.88	46635.17
566.05	46712.41
566.21	47171.16
566.38	46436.23
566.54	47028.38
566.70	46918.38
566.87	47040.09
567.03	46974.55
567.19	47161.79
567.36	46918.38
567.52	46857.52
567.68	47070.51
567.85	46389.42
568.01	47119.66
568.17	47035.41
568.34	46993.28
568.50	47107.96
568.66	46836.46
568.83	46838.80
568.99	46649.22
569.15	46600.07
569.32	46855.18
569.48	46567.30
569.64	47136.05
569.81	46653.90
569.97	46651.56
570.13	46852.84
570.30	46852.84
570.46	46731.14
570.62	46630.49
570.78	46525.17
570.95	46674.96
571.11	46869.23
571.27	47075.19
571.43	46848.16
571.60	47143.07
571.76	47105.62
571.92	47171.16
572.09	46714.75
572.25	46810.71
572.41	46972.21
572.57	46836.46
572.74	47772.67
572.90	47014.34
573.06	47187.54
573.22	47103.28
573.38	47573.73
573.55	46780.29
573.71	47288.18
573.87	46789.65
574.03	47117.32
574.20	47192.22
574.36	47171.16
574.52	46876.25
574.68	47470.75
574.84	47484.79
575.01	46756.88
575.17	46958.17
575.33	46845.82
575.49	46918.38
575.65	47297.55
575.82	47353.72
575.98	46862.21
576.14	47517.56
576.30	47009.66
576.46	46902.00
576.62	46625.81
576.79	47098.60
576.95	46337.93
577.11	46953.49
577.27	47484.79
577.43	47351.38
577.59	47070.51
577.75	47194.56
577.92	46904.34
578.08	46679.64
578.24	46674.96
578.40	46576.66
578.56	46726.46
578.72	47124.35
578.88	47124.35
579.04	47129.03
579.21	47030.72
579.37	47248.39
579.53	47234.35
579.69	46962.85
579.85	47311.59
580.01	46995.62
580.17	47407.55
580.33	47819.49
580.49	47257.76
580.65	47229.67
580.82	47370.10
580.98	46827.10
581.14	46834.12
581.30	47065.83
581.46	47306.91
581.62	47615.86
581.78	46696.03
581.94	47767.99
582.10	47016.68
582.26	47330.31
582.42	47145.41
582.58	47334.99
582.74	46845.82
582.90	47072.85
583.06	47295.21
583.22	47456.70
583.38	47342.02
583.54	47250.74
583.70	47243.71
583.86	47763.31
584.02	47189.88
584.18	46913.70
584.34	47051.79
584.50	47196.90
584.66	47201.58
584.82	47220.31
584.98	47545.64
585.14	47709.48
585.30	47199.24
585.46	47126.69
585.62	46897.31
585.78	47255.42
585.94	46562.62
586.10	47316.27
586.26	47334.99
586.42	47269.46
586.58	47391.17
586.74	47426.28
586.90	47756.29
587.06	47194.56
587.22	47400.53
587.38	46803.69
587.54	47690.76
587.70	47253.08
587.86	47653.31
588.02	46916.04
588.18	47449.68
588.34	46934.76
588.49	46698.37
588.65	46684.33
588.81	46672.62
588.97	46607.09
589.13	46902.00
589.29	46644.54
589.45	46749.86
589.61	47171.16
589.77	47337.33
589.93	47159.45
590.08	47243.71
590.24	47342.02
590.40	47573.73
590.56	47613.52
590.72	47100.94
590.88	47187.54
591.04	47075.19
591.20	47456.70
591.35	47562.03
591.51	47676.71
591.67	46944.12
591.83	47419.25
591.99	47318.61
592.15	47304.57
592.31	46939.44
592.46	47482.45
592.62	47566.71
592.78	47391.17
592.94	47569.05
593.10	47409.89
593.26	47744.59
593.41	47632.24
593.57	47576.07
593.73	47208.61
593.89	47545.64
594.05	47168.82
594.20	47543.30
594.36	47573.73
594.52	47210.95
594.68	47189.88
594.84	47285.84
594.99	47765.65
595.15	47243.71
595.31	47669.69
595.47	47285.84
595.62	47618.20
595.78	47367.76
595.94	47718.84
596.10	47688.42
596.25	48009.07
596.41	47594.79
596.57	47452.02
596.73	47775.02
596.88	47175.84
597.04	47271.80
597.20	47416.91
597.36	47260.10
597.51	47547.98
597.67	47433.30
597.83	47730.54
597.99	47892.04
598.14	47590.11
598.30	47243.71
598.46	47690.76
598.61	47356.06
598.77	47552.66
598.93	47309.25
599.09	47295.21
599.24	47545.64
599.40	47313.93
599.56	47690.76
599.71	47388.83
599.87	47924.81
600.03	47765.65
600.18	47585.43
600.34	47613.52
600.50	47445.00
600.65	47388.83
600.81	47653.31
600.97	47749.27
601.12	47707.14
601.28	47753.95
601.44	47290.52
601.59	47466.06
601.75	47161.79
601.91	47686.07
602.06	47325.63
602.22	47323.29
602.37	47229.67
602.53	47494.15
602.69	47409.89
602.84	47192.22
603.00	47234.35
603.16	47707.14
603.31	47468.40
603.47	47187.54
603.62	47346.70
603.78	47391.17
603.94	47533.94
604.09	47489.47
604.25	47288.18
604.40	47538.62
604.56	47501.17
604.71	47063.49
604.87	47505.85
605.03	47201.58
605.18	47100.94
605.34	47473.09
605.49	46923.06
605.65	47239.03
605.80	47339.68
605.96	47690.76
606.12	47498.83
606.27	47522.24
606.43	47131.37
606.58	47313.93
606.74	46927.74
606.89	47456.70
607.05	47349.04
607.20	47360.74
607.36	47026.04
607.51	47730.54
607.67	47580.75
607.82	46852.84
607.98	47744.59
608.13	46955.83
608.29	47093.92
608.44	46602.41
608.60	46667.94
608.75	46845.82
608.91	46787.31
609.06	46817.74
609.22	46845.82
609.37	46794.33
609.53	46871.57
609.68	46925.40
609.84	47082.22
609.99	46752.20
610.15	47292.86
610.30	46890.29
610.46	46284.09
610.61	46960.51
610.76	46827.10
610.92	46852.84
611.07	47054.13
611.23	46368.35
611.38	46389.42
611.54	46864.55
611.69	46312.18
611.84	46436.23
612.00	46382.40
612.15	46660.92
612.31	47028.38
612.46	46384.74
612.62	46370.69
612.77	46543.89
612.92	46955.83
613.08	46569.64
613.23	46389.42
613.39	46497.08
613.54	46284.09
613.69	46534.53
613.85	46024.29
614.00	46288.77
614.15	46698.37
614.31	46476.02
614.46	46663.26
614.62	46361.33
614.77	46277.07
614.92	45883.86
615.08	46195.15
615.23	46396.44
615.38	46330.90
615.54	46005.57
615.69	45780.88
615.84	45930.67
616.00	46281.75
616.15	46024.29
616.30	45951.74
616.46	46007.91
616.61	45338.52
616.76	46146.00
616.92	45642.79
617.07	45628.74
617.22	45916.63
617.37	45647.47
617.53	45947.06
617.68	46033.66
617.83	45940.04
617.99	46410.48
618.14	45841.73
618.29	45972.80
618.45	45375.97
618.60	45738.75
618.75	45806.62
618.90	45570.23
619.06	45635.77
619.21	45390.01
619.36	45982.16
619.51	46080.47
619.67	45319.79
619.82	45855.78
619.97	46143.66
620.12	45104.46
620.28	44722.96
620.43	45024.89
620.58	45558.53
620.73	45221.49
620.89	45846.41
621.04	45649.81
621.19	45275.32
621.34	45312.77
621.49	45088.08
621.65	45219.15
621.80	45542.14
621.95	45209.79
622.10	45174.68
622.25	45144.25
622.41	44868.07
622.56	44580.18
622.71	45118.51
622.86	44694.87
623.01	45010.84
623.16	45074.04
623.32	45378.31
623.47	44992.12
623.62	45097.44
623.77	44739.34
623.92	44692.53
624.07	44744.02
624.23	44839.98
624.38	44617.63
624.53	44701.89
624.68	44619.97
624.83	44516.99
624.98	44634.02
625.13	44406.98
625.29	44306.34
625.44	44456.14
625.59	44746.36
625.74	44294.64
625.89	43964.62
626.04	44140.16
626.19	44406.98
626.34	44442.09
626.49	44083.99
626.65	44367.20
626.80	44126.12
626.95	44285.28
627.10	44306.34
627.25	43981.01
627.40	43569.07
627.55	44076.97
627.70	43222.67
627.85	43786.74
628.00	44165.91
628.15	43959.94
628.30	43981.01
628.45	43798.44
628.60	43798.44
628.76	43796.10
628.91	44163.57
629.06	43842.92
629.21	43508.22
629.36	43739.93
629.51	43323.32
629.66	43262.46
629.81	43180.54
629.96	43517.58
630.11	43325.66
630.26	43615.88
630.41	43744.61
630.56	43473.11
630.71	43255.44
630.86	43653.33
631.01	43138.41
631.16	43594.82
631.31	43103.31
631.46	42967.55
631.61	43571.41
631.76	43302.25
631.91	43653.33
632.06	43412.26
632.21	43115.01
632.36	43255.44
632.51	42843.51
632.66	42911.38
632.81	43126.71
632.96	42862.23
633.10	43012.02
633.25	42483.06
633.40	42377.74
633.55	43316.29
633.70	43084.58
633.85	43065.86
634.00	42782.65
634.15	42698.39
634.30	43168.84
634.45	43061.18
634.60	42707.76
634.75	42897.34
634.90	42766.27
635.05	43360.76
635.19	42813.08
635.34	43168.84
635.49	42443.27
635.64	42515.83
635.79	42209.22
635.94	42429.23
636.09	42951.17
636.24	42658.60
636.39	42354.33
636.53	42216.24
636.68	42162.41
636.83	42447.96
636.98	42183.48
637.13	42398.80
637.28	42412.85
637.43	42323.91
637.57	42440.93
637.72	42085.17
637.87	42396.46
638.02	42576.69
638.17	42239.65
638.32	42059.43
638.46	42417.53
638.61	42087.51
638.76	41792.61
638.91	42181.13
639.06	41729.41
639.20	42010.28
639.35	41956.44
639.50	41617.07
639.65	42216.24
639.80	41865.16
639.94	42227.95
640.09	41918.99
640.24	41507.06
640.39	41483.66
640.54	41242.58
640.68	41811.33
640.83	41914.31
640.98	41464.93
641.13	41649.83
641.27	41837.08
641.42	41209.81
641.57	41530.47
641.72	41071.72
641.86	41120.87
642.01	41308.11
642.16	41645.15
642.31	41209.81
642.45	41205.13
642.60	40605.95
642.75	40741.71
642.90	41425.14
643.04	41083.42
643.19	41118.53
643.34	41476.63
643.48	40840.01
643.63	40942.99
643.78	41249.60
643.93	40868.09
644.07	40451.48
644.22	40870.43
644.37	41060.02
644.51	40414.03
644.66	40905.54
644.81	41247.26
644.95	41209.81
645.10	41015.55
645.25	40994.48
645.39	40706.60
645.54	41137.26
645.69	40500.63
645.83	40437.44
645.98	40479.57
646.13	40900.86
646.27	40418.71
646.42	40744.05
646.57	40898.52
646.71	40236.15
646.86	40247.85
647.00	40531.06
647.15	40444.46
647.30	40364.88
647.44	40357.86
647.59	40189.34
647.74	40196.36
647.88	39653.36
648.03	40231.47
648.17	40282.96
648.32	40278.28
648.47	39854.64
648.61	39885.07
648.76	40509.99
648.90	40046.57
649.05	40123.80
649.20	40292.32
649.34	40109.76
649.49	39775.06
649.63	40217.43
649.78	40072.31
649.92	39828.90
650.07	40130.83
650.21	39562.08
650.36	40156.57
650.51	40034.86
650.65	39997.41
650.80	40744.05
650.94	40044.23
651.09	40212.74
651.23	39620.59
651.38	39402.92
651.52	39576.12
651.67	39702.51
651.81	39456.75
651.96	39175.89
652.10	39384.19
652.25	39482.50
652.39	39353.77
652.54	39775.06
652.68	39636.97
652.83	39842.94
652.97	39800.81
653.12	39480.16
653.26	39508.24
653.41	39487.18
653.55	38969.92
653.70	39089.29
653.84	39213.34
653.99	39182.91
654.13	38815.44
654.27	39363.13
654.42	39321.00
654.56	38909.07
654.71	39154.82
654.85	39257.81
655.00	38969.92
655.14	39079.92
655.29	38543.94
655.43	39023.75
655.57	38693.74
655.72	38232.65
655.86	38192.86
656.01	38499.47
656.15	38256.06
656.30	38387.13
656.44	38916.09
656.58	38628.20
656.73	38337.98
656.87	38139.03
657.01	38050.09
657.16	38068.81
657.30	38340.32
657.45	38305.21
657.59	38391.81
657.73	38043.07
657.88	38073.49
658.02	38171.80
658.16	38281.80
658.31	38583.73
658.45	38447.98
658.60	38096.90
658.74	38361.38
658.88	38066.47
659.03	38022.00
659.17	37888.59
659.31	38078.18
659.46	37993.92
659.60	37937.74
659.74	37619.43
659.89	37710.71
660.03	37336.23
660.17	37780.93
660.32	37804.33
660.46	38057.11
660.60	38139.03
660.74	37865.19
660.89	38022.00
661.03	37624.11
661.17	37462.61
661.32	36896.20
661.46	37390.06
661.60	36931.31
661.74	36921.95
661.89	37357.29
662.03	37654.54
662.17	36723.01
662.31	36893.86
662.46	37310.48
662.60	37020.25
662.74	36933.65
662.88	36889.18
663.03	36921.95
663.17	36809.61
663.31	36673.85
663.45	36903.23
663.60	36374.27
663.74	36371.92
663.88	36325.11
664.02	36390.65
664.17	36339.16
664.31	36250.22
664.45	36137.87
664.59	36165.96
664.73	36158.94
664.88	36079.36
665.02	36102.76
665.16	36006.80
665.30	36381.29
665.44	36425.76
665.59	35910.84
665.73	35564.44
665.87	35562.10
666.01	35833.60
666.15	35754.02
666.29	35484.86
666.44	35924.88
666.58	35475.50
666.72	35812.54
666.86	35704.87
667.00	35714.23
667.14	35742.32
667.28	35264.85
667.43	35105.70
667.57	35548.06
667.71	34815.47
667.85	35154.85
667.99	35243.79
668.13	34869.30
668.27	35189.95
668.41	34763.98
668.56	34712.49
668.70	34873.98
668.84	34806.11
668.98	34572.05
669.12	34642.27
669.26	34962.92
669.40	34555.67
669.54	34293.53
669.68	34415.24
669.82	34136.71
669.96	34146.08
670.10	33996.28
670.25	33876.91
670.39	34031.39
670.53	33989.26
670.67	34127.35
670.81	34174.16
670.95	34309.91
671.09	33631.16
671.23	33865.21
671.37	33584.35
671.51	33682.65
671.65	33350.29
671.79	33439.23
671.93	33359.66
672.07	33546.90
672.21	33191.14
672.35	32975.81
672.49	33195.82
672.63	33071.77
672.77	33083.47
672.91	32861.12
673.05	32737.07
673.19	32439.82
673.33	32849.42
673.47	32723.03
673.61	33048.36
673.75	32273.65
673.89	32240.88
674.03	32177.68
674.17	32304.07
674.31	32156.62
674.45	32184.71
674.59	32388.33
674.73	32116.83
674.87	32077.04
675.01	32294.71
675.15	32503.02
675.29	32046.62
675.43	31552.76
675.56	32114.49
675.70	31761.07
675.84	31620.64
675.98	30803.79
676.12	31414.67
676.26	31124.44
676.40	31267.22
676.54	31042.53
676.68	30876.35
676.82	30700.81
676.96	30721.87
677.10	30558.03
677.23	30581.44
677.37	30644.63
677.51	30403.56
677.65	30476.12
677.79	30178.87
677.93	30202.27
678.07	30553.35
678.21	30068.86
678.34	29743.53
678.48	29823.11
678.62	29284.78
678.76	29352.66
678.90	29455.64
679.04	29507.13
679.18	29521.18
679.31	28830.72
679.45	29247.33
679.59	28847.10
679.73	29057.75
679.87	29104.56
680.00	29006.26
680.14	28912.64
680.28	28575.60
680.42	28276.01
680.56	28477.30
680.70	28343.89
680.83	28198.77
680.97	28388.36
681.11	28357.93
681.25	27995.15
681.39	27653.43
681.52	28056.00
681.66	27910.89
681.80	28051.32
681.94	27765.78
682.07	27718.96
682.21	27197.02
682.35	27227.45
682.49	27190.00
682.62	27283.62
682.76	27136.17
682.90	27419.38
683.04	27143.19
683.17	27140.85
683.31	26838.92
683.45	26721.90
683.59	26403.58
683.72	26328.69
683.86	25958.88
684.00	25970.58
684.13	26380.18
684.27	26223.36
684.41	26143.78
684.55	25846.54
684.68	25736.53
684.82	25727.17
684.96	25724.83
685.09	25687.38
685.23	25322.26
685.37	25345.66
685.50	25242.68
685.64	25680.36
685.78	25502.48
685.91	25305.87
686.05	25104.59
686.19	24669.25
686.32	24947.77
686.46	24613.07
686.60	24355.61
686.73	24271.36
686.87	23861.76
687.01	23901.55
687.14	23800.91
687.28	23440.47
687.42	23641.75
687.55	23611.32
687.69	23421.74
687.82	23637.07
687.96	23637.07
688.10	23648.77
688.23	23346.84
688.37	23431.10
688.50	22909.16
688.64	23197.05
688.78	23278.97
688.91	23028.53
689.05	22838.95
689.18	22803.84
689.32	22251.47
689.46	22288.92
689.59	22979.38
689.73	22649.36
689.86	22759.37
690.00	22129.77
690.13	22754.69
690.27	22504.25
690.41	22251.47
690.54	21717.83
690.68	21841.88
690.81	21881.67
690.95	21823.16
691.08	21584.42
691.22	21678.04
691.35	21497.82
691.49	21586.76
691.62	21362.07
691.76	21635.91
691.89	21661.66
692.03	21146.74
692.16	21142.06
692.30	20975.88
692.43	21247.38
692.57	20758.21
692.70	20390.75
692.84	20858.85
692.97	20570.97
693.11	20643.52
693.24	20542.88
693.38	20264.36
693.51	20194.14
693.65	20290.10
693.78	20053.71
693.92	19974.13
694.05	20053.71
694.19	19686.25
694.32	19843.06
694.45	19915.62
694.59	19964.77
694.72	19903.92
694.86	19693.27
694.99	19143.24
695.13	19122.18
695.26	19358.57
695.39	19016.85
695.53	19077.71
695.66	19180.69
695.80	18862.38
695.93	19154.94
696.07	18881.10
696.20	18675.13
696.33	18691.52
696.47	18583.85
696.60	18527.68
696.73	18494.91
696.87	18506.62
697.00	18462.15
697.14	18441.08
697.27	18143.83
697.40	18277.24
697.54	18061.91
697.67	17764.67
697.80	17972.97
697.94	17933.18
698.07	17893.40
698.21	17736.58
698.34	17563.38
698.47	17390.18
698.61	17439.33
698.74	17116.34
698.87	16964.20
699.01	17228.68
699.14	16835.47
699.27	17015.69
699.40	16950.16
699.54	16767.60
699.67	17090.59
699.80	16563.97
699.94	16538.23
700.07	16659.93
700.20	16599.08
700.34	16360.34
700.47	16374.39
700.60	16313.53
700.73	16372.05
700.87	16168.42
701.00	15992.88
701.13	16006.92
701.26	16044.37
701.40	16100.55
701.53	15709.68
701.66	15674.57
701.79	15941.39
701.93	15559.88
702.06	15403.07
702.19	15190.08
702.32	15501.37
702.46	15288.38
702.59	15529.45
702.72	15286.04
702.85	15194.76
702.99	15042.62
703.12	15314.13
703.25	15178.37
703.38	15019.22
703.51	14848.36
703.65	14670.48
703.78	14658.78
703.91	14511.32
704.04	14728.99
704.17	14941.98
704.31	14534.73
704.44	14265.57
704.57	14314.72
704.70	14141.52
704.83	14085.34
704.96	14017.47
705.10	14310.04
705.23	14389.61
>>>>>End Processed Spectral Data<<<<<
