SpectraSuite Data File
++++++++++++++++++++++++++++++++++++
Date: Fri Oct 25 10:43:16 EDT 2013
User: price-jones
Dark Spectrum Present: No
Reference Spectrum Present: No
Number of Sampled Component Spectra: 1
Spectrometers: USB2+H05261
Integration Time (usec): 100000 (USB2+H05261)
Spectra Averaged: 1 (USB2+H05261)
Boxcar Smoothing: 0 (USB2+H05261)
Correct for Electrical Dark: No (USB2+H05261)
Strobe/Lamp Enabled: No (USB2+H05261)
Correct for Detector Non-linearity: No (USB2+H05261)
Correct for Stray Light: No (USB2+H05261)
Number of Pixels in Processed Spectrum: 2048
>>>>>Begin Processed Spectral Data<<<<<
365.73	91.28
365.92	91.28
366.12	91.28
366.32	63.19
366.52	0.00
366.72	0.00
366.91	16.38
367.11	0.00
367.31	32.77
367.51	70.22
367.70	0.00
367.90	32.77
368.10	72.56
368.30	46.81
368.49	70.22
368.69	100.64
368.89	37.45
369.09	110.01
369.28	100.64
369.48	28.09
369.68	46.81
369.87	72.56
370.07	86.60
370.27	53.83
370.47	156.82
370.66	374.49
370.86	468.11
371.06	484.49
371.25	475.13
371.45	397.89
371.65	482.15
371.84	498.53
372.04	418.96
372.24	435.34
372.44	540.66
372.63	538.32
372.83	503.22
373.03	521.94
373.22	449.38
373.42	444.70
373.62	535.98
373.81	582.79
374.01	566.41
374.21	587.47
374.40	538.32
374.60	575.77
374.79	557.05
374.99	512.58
375.19	580.45
375.38	608.54
375.58	585.13
375.78	557.05
375.97	662.37
376.17	671.73
376.37	559.39
376.56	596.84
376.76	554.71
376.95	629.60
377.15	617.90
377.35	624.92
377.54	664.71
377.74	725.57
377.93	564.07
378.13	608.54
378.33	699.82
378.52	645.99
378.72	629.60
378.91	580.45
379.11	706.84
379.31	601.52
379.50	655.35
379.70	620.24
379.89	685.78
380.09	582.79
380.28	671.73
380.48	678.76
380.68	674.07
380.87	667.05
381.07	732.59
381.26	732.59
381.46	751.31
381.65	748.97
381.85	617.90
382.04	688.12
382.24	650.67
382.43	678.76
382.63	725.57
382.83	690.46
383.02	732.59
383.22	737.27
383.41	706.84
383.61	777.06
383.80	699.82
384.00	653.01
384.19	674.07
384.39	779.40
384.58	744.29
384.78	763.01
384.97	821.53
385.17	781.74
385.36	730.25
385.56	786.42
385.75	739.61
385.95	793.44
386.14	884.72
386.34	866.00
386.53	748.97
386.72	791.10
386.92	847.27
387.11	835.57
387.31	929.19
387.50	835.57
387.70	837.91
387.89	901.11
388.09	931.53
388.28	880.04
388.48	863.66
388.67	915.15
388.86	910.47
389.06	961.96
389.25	971.32
389.45	1013.45
389.64	915.15
389.84	997.07
390.03	961.96
390.22	968.98
390.42	940.90
390.61	950.26
390.81	1043.88
391.00	952.60
391.19	1008.77
391.39	1053.24
391.58	1130.48
391.78	1158.57
391.97	964.30
392.16	987.71
392.36	999.41
392.55	1057.92
392.75	976.00
392.94	1025.15
393.13	1088.35
393.33	968.98
393.52	992.39
393.71	1050.90
393.91	1025.15
394.10	968.98
394.29	1139.84
394.49	1203.04
394.68	1203.04
394.88	1210.06
395.07	1245.16
395.26	1287.29
395.46	1165.59
395.65	1296.66
395.84	1172.61
396.04	1196.01
396.23	1200.69
396.42	1170.27
396.62	1188.99
396.81	1235.80
397.00	1207.72
397.19	1294.32
397.39	1366.87
397.58	1317.72
397.77	1364.53
397.97	1385.60
398.16	1287.29
398.35	1413.68
398.55	1411.34
398.74	1472.20
398.93	1469.86
399.12	1511.99
399.32	1514.33
399.51	1533.05
399.70	1500.28
399.90	1500.28
400.09	1591.56
400.28	1614.97
400.47	1621.99
400.67	1596.25
400.86	1668.80
401.05	1720.29
401.24	1631.35
401.44	1715.61
401.63	1792.85
401.82	1877.11
402.01	1703.91
402.21	1755.40
402.40	1785.83
402.59	1727.32
402.78	1767.10
402.97	1727.32
403.17	1750.72
403.36	1682.85
403.55	1675.82
403.74	1792.85
403.93	1781.15
404.13	1900.52
404.32	1806.89
404.51	1776.47
404.70	1987.11
404.89	1930.94
405.09	1987.11
405.28	2038.61
405.47	1919.24
405.66	2038.61
405.85	2071.37
406.05	1909.88
406.24	1982.43
406.43	1944.99
406.62	2141.59
406.81	2127.55
407.00	2064.35
407.20	1937.96
407.39	2092.44
407.58	1996.48
407.77	2069.03
407.96	2218.83
408.15	2200.10
408.34	2211.81
408.54	2249.25
408.73	2258.62
408.92	2298.41
409.11	2237.55
409.30	2319.47
409.49	2195.42
409.68	2200.10
409.87	2272.66
410.07	2333.51
410.26	2436.50
410.45	2387.35
410.64	2380.32
410.83	2389.69
411.02	2480.97
411.21	2499.69
411.40	2605.02
411.59	2698.64
411.78	2672.89
411.98	2572.25
412.17	2555.86
412.36	2576.93
412.55	2729.06
412.74	2661.19
412.93	2759.49
413.12	2656.51
413.31	2775.88
413.50	2743.11
413.69	2857.79
413.88	2827.37
414.07	2920.99
414.26	2918.65
414.45	3009.93
414.64	2899.92
414.83	3002.91
415.02	2998.23
415.22	2946.73
415.41	3169.09
415.60	3063.76
415.79	3171.43
415.98	3215.90
416.17	3222.92
416.36	3185.47
416.55	3243.98
416.74	3148.02
416.93	3269.73
417.12	3194.83
417.31	3262.71
417.50	3412.50
417.69	3475.70
417.88	3466.33
418.07	3304.84
418.26	3442.93
418.45	3599.74
418.64	3660.60
418.83	3449.95
419.02	3564.64
419.21	3620.81
419.39	3463.99
419.58	3543.57
419.77	3482.72
419.96	3702.73
420.15	3686.34
420.34	3726.13
420.53	3674.64
420.72	3815.07
420.91	3585.70
421.10	3906.35
421.29	3866.56
421.48	3894.65
421.67	3794.01
421.86	3749.54
422.05	3742.52
422.24	3777.62
422.43	3880.61
422.61	3768.26
422.80	3896.99
422.99	3880.61
423.18	3908.69
423.37	3826.78
423.56	3950.82
423.75	3943.80
423.94	3829.12
424.13	3707.41
424.32	3927.42
424.50	4074.87
424.69	4046.79
424.88	4044.45
425.07	4086.58
425.26	3899.33
425.45	3882.95
425.64	3845.50
425.83	4042.11
426.01	3929.76
426.20	3861.88
426.39	3913.38
426.58	3927.42
426.77	3927.42
426.96	3981.25
427.15	3845.50
427.33	4131.05
427.52	3999.98
427.71	4028.06
427.90	4072.53
428.09	4149.77
428.28	4170.83
428.46	4079.55
428.65	4109.98
428.84	4250.41
429.03	4287.86
429.22	4070.19
429.40	4135.73
429.59	4203.60
429.78	3819.75
429.97	3948.48
430.16	4025.72
430.34	4224.67
430.53	4063.17
430.72	4156.79
430.91	4315.95
431.10	4344.03
431.28	4489.15
431.47	4669.37
431.66	4723.20
431.85	4390.84
432.03	4489.15
432.22	4622.56
432.41	4678.73
432.60	4823.84
432.79	4730.22
432.97	4692.77
433.16	4624.90
433.35	4582.77
433.54	4528.94
433.72	4788.74
433.91	4690.43
434.10	4936.19
434.28	4823.84
434.47	4819.16
434.66	4954.91
434.85	4919.81
435.03	5095.35
435.22	5057.90
435.41	5004.07
435.59	4931.51
435.78	4898.74
435.97	5118.75
436.16	5167.90
436.34	5060.24
436.53	5123.43
436.72	5210.03
436.90	4870.65
437.09	5219.39
437.28	5034.49
437.46	5205.35
437.65	5261.52
437.84	5095.35
438.02	5081.30
438.21	5123.43
438.40	5226.42
438.58	5418.34
438.77	5460.47
438.96	5472.17
439.14	5521.32
439.33	5551.75
439.52	5605.58
439.70	5659.42
439.89	5624.31
440.08	5729.63
440.26	5591.54
440.45	5654.73
440.63	5750.70
440.82	5937.94
441.01	6033.90
441.19	5863.04
441.38	6008.16
441.57	6080.71
441.75	6061.99
441.94	6403.71
442.12	6286.68
442.31	6464.56
442.50	6293.70
442.68	6186.04
442.87	6326.47
443.05	6303.06
443.24	6553.50
443.43	6272.64
443.61	6321.79
443.80	6604.99
443.98	6487.96
444.17	6384.98
444.35	6581.59
444.54	6462.22
444.73	6494.99
444.91	6642.44
445.10	6478.60
445.28	6314.77
445.47	6260.93
445.65	6361.58
445.84	6480.94
446.02	6436.47
446.21	6593.29
446.39	6478.60
446.58	6649.46
446.77	6698.61
446.95	6450.52
447.14	6810.96
447.32	6698.61
447.51	6679.89
447.69	6541.80
447.88	6644.78
448.06	6700.95
448.25	6654.14
448.43	6747.76
448.62	6555.84
448.80	6733.72
448.99	6733.72
449.17	6729.04
449.36	6810.96
449.54	7037.99
449.73	7197.15
449.91	7052.03
450.10	7030.97
450.28	7145.66
450.46	7169.06
450.65	7232.26
450.83	7103.53
451.02	7185.44
451.20	7314.17
451.39	7274.38
451.57	7328.22
451.76	7157.36
451.94	7002.88
452.13	7152.68
452.31	7026.29
452.49	7023.95
452.68	7124.59
452.86	7115.23
453.05	7360.98
453.23	7297.79
453.42	7314.17
453.60	7428.86
453.78	7328.22
453.97	7419.50
454.15	7318.86
454.34	7325.88
454.52	7358.64
454.70	7599.72
454.89	7637.17
455.07	7396.09
455.26	7630.15
455.44	7700.36
455.62	7740.15
455.81	7763.56
455.99	7911.01
456.17	7793.98
456.36	7882.92
456.54	7740.15
456.73	8074.85
456.91	8119.32
457.09	8035.06
457.28	8234.00
457.46	7981.23
457.64	8173.15
457.83	8119.32
458.01	8116.98
458.19	8257.41
458.38	8166.13
458.56	8393.16
458.74	8430.61
458.93	8145.06
459.11	8149.75
459.29	8224.64
459.48	8348.69
459.66	8432.95
459.84	8336.99
460.03	8432.95
460.21	8322.94
460.39	8442.31
460.57	8540.61
460.76	8533.59
460.94	8727.86
461.12	8594.45
461.31	8767.65
461.49	8540.61
461.67	8547.64
461.85	8863.61
462.04	8723.18
462.22	9348.10
462.40	8884.67
462.59	8779.35
462.77	8917.44
462.95	8966.59
463.13	8769.99
463.32	8858.93
463.50	8858.93
463.68	8835.52
463.86	9032.13
464.05	9102.34
464.23	8926.80
464.41	8910.42
464.59	8753.60
464.78	9275.54
464.96	8966.59
465.14	9116.39
465.32	9006.38
465.50	9125.75
465.69	9078.94
465.87	9221.71
466.05	9130.43
466.23	9125.75
466.41	9132.77
466.60	9315.33
466.78	9174.90
466.96	9090.64
467.14	9287.25
467.32	9177.24
467.51	9296.61
467.69	9205.33
467.87	9355.12
468.05	9261.50
468.23	9305.97
468.41	9289.59
468.60	9348.10
468.78	9666.41
468.96	9528.32
469.14	9783.44
469.32	10047.92
469.50	9397.25
469.69	9638.33
469.87	9790.46
470.05	10076.01
470.23	9921.53
470.41	9846.63
470.59	10052.60
470.77	9970.68
470.95	9942.60
471.14	9916.85
471.32	9839.61
471.50	10214.10
471.68	10340.49
471.86	10443.47
472.04	10321.76
472.22	10403.68
472.40	10204.74
472.58	10464.54
472.77	10326.44
472.95	10506.66
473.13	10721.99
473.31	10366.23
473.49	10555.82
473.67	10527.73
473.85	10581.56
474.03	10780.51
474.21	10986.47
474.39	10850.72
474.57	10934.98
474.75	11257.98
474.93	11096.48
475.12	11080.10
475.30	11349.26
475.48	11075.42
475.66	11239.25
475.84	11166.70
476.02	11482.67
476.20	11590.33
476.38	11325.85
476.56	11889.92
476.74	11763.53
476.92	11854.81
477.10	11927.37
477.28	12056.10
477.46	12126.32
477.64	12112.27
477.82	12135.68
478.00	12423.56
478.18	12315.90
478.36	12486.76
478.54	12585.06
478.72	12844.86
478.90	12809.75
479.08	12987.63
479.26	13067.21
479.44	13198.28
479.62	13177.22
479.80	13465.10
479.98	13231.05
480.16	13509.57
480.34	13371.48
480.52	13795.12
480.70	13598.51
480.88	13547.02
481.06	13907.46
481.24	14001.08
481.41	14331.10
481.59	14303.01
481.77	14251.52
481.95	14200.03
482.13	14527.71
482.31	14452.81
482.49	14874.10
482.67	14817.93
482.85	14958.36
483.03	15213.48
483.21	15557.54
483.39	15307.10
483.57	15391.36
483.74	15489.67
483.92	15431.15
484.10	15723.72
484.28	15920.32
484.46	15850.11
484.64	16416.52
484.82	15957.77
485.00	15922.66
485.18	16292.47
485.35	16294.81
485.53	15861.81
485.71	16058.42
485.89	16325.24
486.07	16332.26
486.25	16458.65
486.43	16760.58
486.61	17020.38
486.78	17057.82
486.96	17465.08
487.14	17516.57
487.32	17610.19
487.50	18001.06
487.68	18111.07
487.85	18115.75
488.03	18588.53
488.21	18576.83
488.39	18427.04
488.57	18434.06
488.75	18824.93
488.92	18808.54
489.10	19325.80
489.28	19398.36
489.46	19468.58
489.64	19807.95
489.81	20123.93
489.99	20292.44
490.17	20130.95
490.35	20465.64
490.53	20222.23
490.70	20458.62
490.88	20308.83
491.06	20765.23
491.24	20966.52
491.41	20713.74
491.59	20425.86
491.77	20547.56
491.95	20863.54
492.13	20961.84
492.30	21502.50
492.48	21238.02
492.66	21582.08
492.84	21703.79
493.01	22064.23
493.19	21757.62
493.37	21792.73
493.54	22141.47
493.72	22279.56
493.90	22544.04
494.08	22806.18
494.25	23005.13
494.43	23126.83
494.61	23250.88
494.79	23386.63
494.96	23276.63
495.14	23477.91
495.32	23438.12
495.49	23484.94
495.67	23775.16
495.85	24168.37
496.02	24159.01
496.20	24116.88
496.38	24519.45
496.55	24421.15
496.73	24856.49
496.91	24510.09
497.09	24774.57
497.26	24767.55
497.44	24926.71
497.62	25350.34
497.79	25322.26
497.97	24961.81
498.14	25560.99
498.32	25699.08
498.50	25275.45
498.67	25937.82
498.85	25474.39
499.03	26064.21
499.20	26045.48
499.38	26071.23
499.56	26141.44
499.73	26295.92
499.91	26808.50
500.08	26721.90
500.26	26232.72
500.44	26380.18
500.61	26604.87
500.79	26415.29
500.97	26614.23
501.14	27452.14
501.32	26881.05
501.49	26810.84
501.67	27023.83
501.84	27358.52
502.02	26991.06
502.20	27307.03
502.37	27688.54
502.55	27365.54
502.72	27835.99
502.90	27676.83
503.07	27709.60
503.25	28233.88
503.43	27693.22
503.60	27950.68
503.78	27718.96
503.95	28238.56
504.13	28465.60
504.30	28563.90
504.48	28259.63
504.65	28776.89
504.83	29015.62
505.01	29385.43
505.18	28847.10
505.36	29273.08
505.53	29209.89
505.71	29221.59
505.88	29275.42
506.06	29362.02
506.23	29659.27
506.41	29532.88
506.58	29928.43
506.76	29888.64
506.93	29872.26
507.11	30122.69
507.28	29944.81
507.46	29694.38
507.63	29764.59
507.81	30108.65
507.98	30064.18
508.16	30338.02
508.33	30616.55
508.50	30352.07
508.68	30497.18
508.85	30726.55
509.03	30623.57
509.20	31166.57
509.38	30855.28
509.55	31126.78
509.73	31075.29
509.90	31133.81
510.08	31143.17
510.25	30955.93
510.42	31213.38
510.60	31901.50
510.77	31615.96
510.95	31693.19
511.12	31543.40
511.30	32245.56
511.47	31992.78
511.64	32236.20
511.82	31967.04
511.99	31927.25
512.17	32519.40
512.34	32474.93
512.51	32318.12
512.69	32589.62
512.86	32334.50
513.04	32723.03
513.21	32828.35
513.38	32339.18
513.56	32708.99
513.73	32622.39
513.90	32821.33
514.08	32804.95
514.25	33120.92
514.43	32861.12
514.60	33031.98
514.77	33029.64
514.95	33174.75
515.12	33352.63
515.29	33652.22
515.47	33977.56
515.64	33589.03
515.81	33439.23
515.99	33893.30
516.16	33521.15
516.33	33163.05
516.51	33319.87
516.68	32999.21
516.85	33015.60
517.03	33024.96
517.20	33764.57
517.37	33888.62
517.54	34068.84
517.72	34029.05
517.89	33549.24
518.06	33715.42
518.24	33673.29
518.41	34029.05
518.58	34529.92
518.75	34134.37
518.93	34679.72
519.10	34593.12
519.27	34618.86
519.45	34782.70
519.62	35119.74
519.79	35009.73
519.96	34998.03
520.14	35201.66
520.31	34401.19
520.48	35395.92
520.65	35204.00
520.83	35655.72
521.00	35571.46
521.17	35929.56
521.34	35964.67
521.52	35992.76
521.69	35695.51
521.86	35770.41
522.03	36484.27
522.20	35910.84
522.38	36517.04
522.55	36254.90
522.72	36018.50
522.89	35835.94
523.07	36381.29
523.24	36484.27
523.41	36664.49
523.58	36833.01
523.75	37109.19
523.92	37038.98
524.10	36971.10
524.27	37205.16
524.44	36863.44
524.61	37237.92
524.78	37500.06
524.96	37167.71
525.13	37462.61
525.30	37546.87
525.47	37509.43
525.64	37404.10
525.81	37390.06
525.98	37893.27
526.16	36886.84
526.33	37053.02
526.50	37303.46
526.67	36952.38
526.84	37174.73
527.01	37193.45
527.18	37699.01
527.36	38068.81
527.53	37823.06
527.70	38398.83
527.87	37996.26
528.04	38005.62
528.21	38031.36
528.38	38312.23
528.55	38513.52
528.72	38679.69
528.89	39063.54
529.07	38522.88
529.24	38398.83
529.41	38829.49
529.58	38726.50
529.75	38808.42
529.92	38675.01
530.09	39014.39
530.26	39131.42
530.43	38902.04
530.60	38728.84
530.77	38754.59
530.94	39381.85
531.11	38974.60
531.28	39063.54
531.46	39426.32
531.63	39306.96
531.80	39070.56
531.97	39131.42
532.14	39496.54
532.31	39014.39
532.48	39454.41
532.65	39576.12
532.82	39346.75
532.99	39512.92
533.16	38948.85
533.33	39606.55
533.50	39800.81
533.67	39800.81
533.84	39557.39
534.01	39606.55
534.18	39435.69
534.35	40362.54
534.52	39952.94
534.69	40240.83
534.86	40542.76
535.03	40165.93
535.20	40334.45
535.37	40594.25
535.54	40755.75
535.71	40402.33
535.88	40605.95
536.05	40341.47
536.22	40620.00
536.38	40783.83
536.55	40353.18
536.72	40488.93
536.89	40222.11
537.06	40533.40
537.23	40856.39
537.40	40931.29
537.57	40900.86
537.74	40734.68
537.91	41263.64
538.08	40999.16
538.25	41167.68
538.42	40938.31
538.59	40877.46
538.75	40617.66
538.92	40950.01
539.09	40952.35
539.26	41294.07
539.43	40760.43
539.60	41158.32
539.77	41031.93
539.94	41457.91
540.11	40987.46
540.28	41448.55
540.44	41558.55
540.61	41074.06
540.78	41024.91
540.95	41195.77
541.12	41600.68
541.29	41319.82
541.46	41553.87
541.62	41453.23
541.79	42316.89
541.96	41532.81
542.13	41518.76
542.30	41879.21
542.47	41872.18
542.63	41453.23
542.80	42337.95
542.97	42232.63
543.14	42150.71
543.31	42167.09
543.48	42403.49
543.64	42431.57
543.81	42712.44
543.98	42167.09
544.15	42389.44
544.32	42986.28
544.48	42473.70
544.65	42492.43
544.82	42845.85
544.99	42581.37
545.16	42190.50
545.32	42522.85
545.49	43012.02
545.66	42974.58
545.83	42983.94
546.00	42906.70
546.16	42630.52
546.33	42621.16
546.50	42593.07
546.67	43173.52
546.83	42340.29
547.00	42567.32
547.17	42520.51
547.34	42841.17
547.50	42829.46
547.67	43070.54
547.84	43070.54
548.00	43377.15
548.17	43040.11
548.34	43636.95
548.51	43793.76
548.67	44041.86
548.84	43501.20
549.01	43239.06
549.18	43274.16
549.34	43510.56
549.51	43173.52
549.68	43302.25
549.84	43325.66
550.01	43707.16
550.18	43377.15
550.34	43796.10
550.51	43571.41
550.68	43540.99
550.84	43248.42
551.01	43952.92
551.18	43536.30
551.34	43849.94
551.51	43658.01
551.68	44161.23
551.84	43697.80
552.01	43679.08
552.18	43964.62
552.34	43480.13
552.51	43826.53
552.68	43969.30
552.84	44116.76
553.01	44020.80
553.18	44060.58
553.34	44142.50
553.51	43992.71
553.67	44098.03
553.84	44446.77
554.01	44720.62
554.17	45006.16
554.34	44554.44
554.51	44486.56
554.67	44968.71
554.84	44533.37
555.00	44402.30
555.17	44296.98
555.33	44863.39
555.50	44194.00
555.67	44334.43
555.83	44547.42
556.00	44648.06
556.16	44870.41
556.33	44362.51
556.50	44406.98
556.66	44334.43
556.83	44013.77
556.99	44257.19
557.16	44648.06
557.32	44865.73
557.49	44514.65
557.65	44708.91
557.82	44746.36
557.98	45085.74
558.15	45036.59
558.32	45006.16
558.48	44273.57
558.65	44582.52
558.81	44781.47
558.98	44432.73
559.14	44971.05
559.31	45003.82
559.47	44891.48
559.64	45153.62
559.80	45057.65
559.97	45055.31
560.13	44821.26
560.30	45151.27
560.46	44856.37
560.63	44964.03
560.79	44980.42
560.96	45469.59
561.12	45085.74
561.29	45078.72
561.45	45001.48
561.61	44889.13
561.78	44928.92
561.94	44690.19
562.11	45380.65
562.27	44966.37
562.44	45659.17
562.60	45319.79
562.77	45265.96
562.93	45209.79
563.10	45600.66
563.26	45441.50
563.42	45354.90
563.59	45001.48
563.75	45081.06
563.92	45343.20
564.08	45162.98
564.24	45556.19
564.41	45130.21
564.57	45411.07
564.74	45570.23
564.90	45233.19
565.07	45361.92
565.23	45317.45
565.39	45219.15
565.56	45195.74
565.72	45102.12
565.88	45570.23
566.05	44854.03
566.21	45448.52
566.38	45315.11
566.54	45024.89
566.70	45841.73
566.87	45731.73
567.03	45729.39
567.19	46227.92
567.36	46005.57
567.52	45546.82
567.68	45766.84
567.85	44624.65
568.01	45228.51
568.17	45333.84
568.34	45439.16
568.50	45614.70
568.66	45104.46
568.83	45422.78
568.99	45443.84
569.15	45598.32
569.32	45357.24
569.48	45385.33
569.64	45890.88
569.81	45759.81
569.97	45727.05
570.13	45385.33
570.30	45120.85
570.46	45076.38
570.62	44893.82
570.78	44835.30
570.95	44999.14
571.11	45485.97
571.27	45542.14
571.43	45219.15
571.60	45895.56
571.76	45514.06
571.92	45422.78
572.09	45605.34
572.25	45673.21
572.41	46225.58
572.57	45804.28
572.74	45886.20
572.90	45734.07
573.06	45827.69
573.22	46206.86
573.38	45944.72
573.55	45502.35
573.71	45729.39
573.87	45741.09
574.03	45137.23
574.20	45549.17
574.36	45766.84
574.52	45832.37
574.68	45804.28
574.84	45656.83
575.01	45886.20
575.17	45631.08
575.33	45242.56
575.49	45570.23
575.65	45914.29
575.82	46038.34
575.98	45600.66
576.14	46239.62
576.30	46169.41
576.46	45378.31
576.62	45546.82
576.79	45261.28
576.95	45708.32
577.11	45783.22
577.27	45837.05
577.43	45488.31
577.59	45052.97
577.75	45249.58
577.92	45251.92
578.08	45682.58
578.24	45158.30
578.40	45598.32
578.56	45333.84
578.72	45354.90
578.88	45895.56
579.04	45853.44
579.21	45771.52
579.37	45780.88
579.53	46054.72
579.69	45790.24
579.85	45659.17
580.01	45680.24
580.17	45504.70
580.33	45720.02
580.49	46082.81
580.65	45961.10
580.82	45839.39
580.98	45893.22
581.14	45312.77
581.30	46087.49
581.46	45776.20
581.62	45801.94
581.78	46153.02
581.94	46181.11
582.10	46202.18
582.26	45881.52
582.42	46389.42
582.58	45738.75
582.74	45649.81
582.90	46330.90
583.06	45911.95
583.22	45972.80
583.38	46239.62
583.54	45787.90
583.70	45844.07
583.86	45930.67
584.02	45942.38
584.18	45935.35
584.34	45516.40
584.50	46033.66
584.66	46040.68
584.82	46059.40
584.98	46136.64
585.14	46073.45
585.30	45626.40
585.46	45368.94
585.62	45469.59
585.78	45462.57
585.94	45586.61
586.10	45635.77
586.26	45621.72
586.42	45911.95
586.58	45888.54
586.74	45462.57
586.90	45574.91
587.06	45319.79
587.22	45804.28
587.38	45640.45
587.54	45984.51
587.70	45968.12
587.86	45844.07
588.02	45633.42
588.18	46054.72
588.34	45418.10
588.49	45612.36
588.65	45123.19
588.81	45361.92
588.97	45654.49
589.13	45165.32
589.29	45340.86
589.45	45420.44
589.61	45776.20
589.77	45993.87
589.93	46050.04
590.08	45811.31
590.24	46068.76
590.40	46143.66
590.56	45741.09
590.72	46099.19
590.88	45652.15
591.04	45764.49
591.20	46487.72
591.35	46211.54
591.51	46494.74
591.67	46038.34
591.83	45422.78
591.99	45659.17
592.15	45792.58
592.31	46068.76
592.46	45923.65
592.62	46288.77
592.78	46323.88
592.94	46110.89
593.10	45956.42
593.26	45879.18
593.41	46223.24
593.57	45865.14
593.73	45652.15
593.89	46113.23
594.05	45907.27
594.20	46141.32
594.36	45787.90
594.52	46408.14
594.68	46108.55
594.84	45855.78
594.99	46148.34
595.15	46251.33
595.31	45638.11
595.47	45916.63
595.62	45921.31
595.78	45949.40
595.94	46574.32
596.10	46101.53
596.25	45972.80
596.41	46078.13
596.57	45834.71
596.73	45815.99
596.88	46024.29
597.04	46146.00
597.20	45773.86
597.36	46110.89
597.51	46183.45
597.67	46277.07
597.83	45918.97
597.99	46387.08
598.14	45977.48
598.30	46445.59
598.46	46068.76
598.61	46033.66
598.77	46256.01
598.93	45897.91
599.09	45776.20
599.24	46366.01
599.40	45979.82
599.56	45996.21
599.71	46050.04
599.87	46511.13
600.03	46403.46
600.18	45958.76
600.34	46052.38
600.50	45698.96
600.65	45900.25
600.81	45991.53
600.97	46120.26
601.12	46354.31
601.28	46120.26
601.44	45902.59
601.59	46066.42
601.75	45485.97
601.91	46117.92
602.06	45844.07
602.22	46124.94
602.37	46115.58
602.53	46258.35
602.69	46408.14
602.84	45874.50
603.00	46190.47
603.16	45911.95
603.31	45862.80
603.47	46157.70
603.62	45940.04
603.78	46171.75
603.94	45975.14
604.09	45923.65
604.25	46213.88
604.40	46080.47
604.56	45799.60
604.71	46148.34
604.87	45949.40
605.03	45698.96
605.18	45918.97
605.34	45773.86
605.49	46174.09
605.65	46007.91
605.80	46052.38
605.96	45727.05
606.12	45804.28
606.27	46171.75
606.43	45439.16
606.58	45874.50
606.74	45507.04
606.89	45750.45
607.05	45731.73
607.20	46253.67
607.36	45902.59
607.51	46466.66
607.67	45986.85
607.82	45780.88
607.98	46010.25
608.13	45303.41
608.29	45663.85
608.44	45380.65
608.60	45373.63
608.75	45972.80
608.91	45518.74
609.06	45514.06
609.22	45427.46
609.37	45153.62
609.53	45329.16
609.68	45670.87
609.84	45359.58
609.99	45818.33
610.15	44811.90
610.30	45059.99
610.46	44980.42
610.61	45338.52
610.76	45439.16
610.92	45521.08
611.07	45818.33
611.23	45937.69
611.38	45748.11
611.54	45347.88
611.69	44875.09
611.84	45570.23
612.00	45008.50
612.15	45116.17
612.31	45223.83
612.46	45691.94
612.62	45242.56
612.77	44849.35
612.92	45556.19
613.08	44832.96
613.23	44823.60
613.39	44591.89
613.54	44498.26
613.69	44856.37
613.85	44325.07
614.00	45024.89
614.15	44907.86
614.31	44722.96
614.46	45345.54
614.62	44851.69
614.77	44767.43
614.92	44605.93
615.08	44329.75
615.23	45008.50
615.38	44814.24
615.54	44617.63
615.69	44678.49
615.84	44624.65
616.00	44451.45
616.15	44713.59
616.30	44828.28
616.46	44612.95
616.61	44425.71
616.76	44481.88
616.92	44348.47
617.07	44484.22
617.22	44357.83
617.37	44032.50
617.53	44814.24
617.68	44664.44
617.83	44367.20
617.99	43840.57
618.14	44182.29
618.29	44151.87
618.45	43791.42
618.60	44009.09
618.75	43913.13
618.90	44079.31
619.06	44079.31
619.21	44435.07
619.36	44058.24
619.51	43938.88
619.67	43814.83
619.82	44074.63
619.97	43920.15
620.12	43697.80
620.28	43868.66
620.43	43863.98
620.58	43775.04
620.73	43466.09
620.89	43990.37
621.04	44023.14
621.19	44065.27
621.34	43690.78
621.49	43325.66
621.65	43667.37
621.80	43599.50
621.95	43772.70
622.10	44238.47
622.25	43793.76
622.41	43370.13
622.56	43845.26
622.71	43723.55
622.86	43405.23
623.01	43648.65
623.16	43784.40
623.32	43456.73
623.47	43498.86
623.62	43562.05
623.77	43435.66
623.92	43325.66
624.07	42946.49
624.23	42689.03
624.38	43428.64
624.53	43098.62
624.68	43480.13
624.83	43447.36
624.98	43468.43
625.13	42693.71
625.29	42995.64
625.44	42995.64
625.59	42775.63
625.74	42747.54
625.89	42808.40
626.04	42609.45
626.19	42525.19
626.34	42768.61
626.49	42792.01
626.65	42719.46
626.80	42738.18
626.95	42368.38
627.10	42721.80
627.25	42375.40
627.40	42305.18
627.55	42384.76
627.70	42316.89
627.85	42270.08
628.00	42110.92
628.15	42431.57
628.30	42211.56
628.45	42756.91
628.60	42508.81
628.76	42401.14
628.91	42682.01
629.06	42373.06
629.21	42281.78
629.36	42012.62
629.51	42237.31
629.66	42167.09
629.81	42000.91
629.96	42071.13
630.11	42270.08
630.26	42232.63
630.41	42096.88
630.56	41708.35
630.71	42089.85
630.86	42012.62
631.01	41766.86
631.16	41652.17
631.31	41504.72
631.46	41507.06
631.61	41816.01
631.76	42073.47
631.91	42059.43
632.06	42139.00
632.21	41851.12
632.36	41890.91
632.51	41509.40
632.66	41823.03
632.81	41488.34
632.96	41413.44
633.10	41600.68
633.25	41645.15
633.40	41420.46
633.55	41869.84
633.70	41141.94
633.85	41593.66
634.00	41509.40
634.15	41649.83
634.30	40917.25
634.45	41558.55
634.60	41322.16
634.75	41401.74
634.90	40870.43
635.05	41322.16
635.19	40961.72
635.34	41427.48
635.49	41209.81
635.64	41200.45
635.79	40896.18
635.94	41006.19
636.09	40999.16
636.24	40603.61
636.39	41104.49
636.53	40715.96
636.68	40959.38
636.83	40830.65
636.98	40821.28
637.13	40786.18
637.28	41139.60
637.43	41441.53
637.57	40844.69
637.72	40865.75
637.87	40882.14
638.02	40863.41
638.17	41062.36
638.32	40598.93
638.46	40692.55
638.61	40088.70
638.76	40540.42
638.91	40357.86
639.06	40332.11
639.20	40692.55
639.35	40655.11
639.50	40222.11
639.65	40509.99
639.80	40208.06
639.94	40425.73
640.09	40119.12
640.24	40355.52
640.39	40170.61
640.54	40051.25
640.68	40252.53
640.83	40509.99
640.98	39754.00
641.13	39751.66
641.27	40301.68
641.42	39931.88
641.57	39885.07
641.72	39901.45
641.86	39597.18
642.01	40105.08
642.16	39976.35
642.31	39161.84
642.45	39798.47
642.60	39608.89
642.75	39459.09
642.90	39714.21
643.04	39709.53
643.19	39688.46
643.34	40189.34
643.48	39938.90
643.63	39686.12
643.78	39625.27
643.93	39885.07
644.07	39508.24
644.22	39234.40
644.37	39356.11
644.51	39299.94
644.66	39742.30
644.81	39346.75
644.95	39651.02
645.10	39742.30
645.25	39360.79
645.39	39335.04
645.54	39093.97
645.69	39232.06
645.83	39112.69
645.98	39068.22
646.13	39086.95
646.27	38920.77
646.42	39051.84
646.57	39122.05
646.71	39583.14
646.86	39246.10
647.00	38644.59
647.15	38955.88
647.30	39445.05
647.44	38990.98
647.59	38904.38
647.74	38707.78
647.88	38850.55
648.03	39051.84
648.17	39005.03
648.32	38639.90
648.47	38897.36
648.61	38651.61
648.76	38998.01
648.90	38916.09
649.05	38457.34
649.20	38845.87
649.34	38614.16
649.49	38565.01
649.63	38642.24
649.78	38501.81
649.92	38272.44
650.07	38443.30
650.21	38548.62
650.36	38955.88
650.51	38689.06
650.65	38899.70
650.80	38967.58
650.94	38588.41
651.09	38263.08
651.23	38120.31
651.38	38171.80
651.52	38204.56
651.67	37996.26
651.81	38227.97
651.96	38579.05
652.10	37940.08
652.25	37991.58
652.39	38305.21
652.54	38050.09
652.68	38192.86
652.83	38199.88
652.97	38513.52
653.12	38342.66
653.26	37818.38
653.41	38000.94
653.55	38099.24
653.70	38188.18
653.84	37926.04
653.99	37544.53
654.13	37390.06
654.27	37940.08
654.42	37890.93
654.56	37991.58
654.71	37933.06
654.85	37343.25
655.00	38059.45
655.14	37998.60
655.29	37298.78
655.43	37020.25
655.57	36952.38
655.72	37191.11
655.86	37270.69
656.01	37046.00
656.15	36505.34
656.30	36638.75
656.44	37003.87
656.58	37167.71
656.73	37305.80
656.87	36811.95
657.01	36931.31
657.16	36989.83
657.30	36641.09
657.45	36723.01
657.59	36627.04
657.73	37106.85
657.88	37495.38
658.02	37256.65
658.16	37221.54
658.31	37053.02
658.45	37425.17
658.60	36858.76
658.74	36746.41
658.88	37390.06
659.03	36954.72
659.17	36678.54
659.31	36142.55
659.46	36247.88
659.60	36231.49
659.74	36301.71
659.89	36306.39
660.03	36308.73
660.17	36470.23
660.32	36446.82
660.46	36400.01
660.60	36170.64
660.74	36114.47
660.89	36416.40
661.03	36119.15
661.17	36119.15
661.32	35730.62
661.46	36168.30
661.60	35599.55
661.74	35737.64
661.89	35899.14
662.03	35840.62
662.17	35885.09
662.31	35791.47
662.46	36226.81
662.60	36318.09
662.74	35826.58
662.88	35639.34
663.03	35393.58
663.17	35442.73
663.31	35225.06
663.45	35468.48
663.60	35115.06
663.74	35494.22
663.88	35379.54
664.02	34639.93
664.17	35398.26
664.31	35173.57
664.45	35103.35
664.59	34604.82
664.73	34848.24
664.88	34967.60
665.02	34511.20
665.16	34902.07
665.30	34361.40
665.44	34450.35
665.59	34115.65
665.73	34656.31
665.87	34373.11
666.01	34478.43
666.15	34464.39
666.29	34270.12
666.44	34508.86
666.58	34246.72
666.72	33832.44
666.86	34178.84
667.00	34375.45
667.14	33949.47
667.28	33633.50
667.43	33663.93
667.57	34139.05
667.71	33759.89
667.85	33998.62
667.99	33935.43
668.13	33947.13
668.27	33961.17
668.41	33715.42
668.56	33584.35
668.70	33347.95
668.84	33432.21
668.98	33198.16
669.12	32989.85
669.26	32699.62
669.40	32910.27
669.54	33251.99
669.68	32833.04
669.82	32957.08
669.96	32877.51
670.10	32638.77
670.25	32957.08
670.39	32554.51
670.53	32828.35
670.67	32755.80
670.81	32961.76
670.95	32730.05
671.09	32278.33
671.23	32034.91
671.37	32430.46
671.51	32100.45
671.65	32481.95
671.79	31922.57
671.93	31941.29
672.07	32018.53
672.21	31754.05
672.35	31824.26
672.49	31536.38
672.63	31709.58
672.77	31821.92
672.91	31814.90
673.05	31871.07
673.19	31428.71
673.33	31363.18
673.47	31152.53
673.61	31269.56
673.75	31292.96
673.89	31342.11
674.03	30775.70
674.17	31147.85
674.31	30881.03
674.45	31096.36
674.59	31091.68
674.73	31082.31
674.87	31112.74
675.01	30920.82
675.15	30649.32
675.29	30551.01
675.43	30710.17
675.56	30918.48
675.70	30696.13
675.84	30693.79
675.98	29235.63
676.12	30403.56
676.26	30338.02
676.40	30433.99
676.54	30068.86
676.68	29895.66
676.82	29474.37
676.96	29748.21
677.10	29713.10
677.23	29455.64
677.37	29490.75
677.51	29441.60
677.65	29235.63
677.79	28662.20
677.93	28886.89
678.07	28835.40
678.21	28240.90
678.34	28528.79
678.48	28395.38
678.62	28320.48
678.76	28163.67
678.90	27992.81
679.04	28044.30
679.18	28306.44
679.31	28114.52
679.45	27611.30
679.59	27377.25
679.73	27875.78
679.87	28142.60
680.00	27683.86
680.14	27735.35
680.28	27384.27
680.42	27278.94
680.56	27346.82
680.70	27440.44
680.83	27112.77
680.97	26986.38
681.11	27246.18
681.25	27110.43
681.39	27009.78
681.52	26991.06
681.66	26422.31
681.80	26544.02
681.94	26525.29
682.07	26377.84
682.21	26490.18
682.35	26155.49
682.49	26017.40
682.62	26178.89
682.76	26073.57
682.90	25834.83
683.04	25996.33
683.17	25783.34
683.31	25692.06
683.45	25816.11
683.59	25582.06
683.72	25397.15
683.86	25425.24
684.00	25010.96
684.13	25273.10
684.27	25017.99
684.41	24786.27
684.55	24900.96
684.68	24835.42
684.82	25048.41
684.96	24767.55
685.09	24697.33
685.23	24519.45
685.37	24496.05
685.50	24449.24
685.64	24503.07
685.78	24154.33
685.91	23995.17
686.05	23726.01
686.19	23494.30
686.32	23625.37
686.46	23566.85
686.60	23000.44
686.73	23206.41
686.87	22988.74
687.01	23410.04
687.14	22829.59
687.28	22602.55
687.42	22927.89
687.55	22731.28
687.69	22843.63
687.82	22761.71
687.96	22855.33
688.10	22745.33
688.23	22754.69
688.37	22677.45
688.50	22471.48
688.64	22609.58
688.78	22361.48
688.91	21956.57
689.05	21949.54
689.18	22132.11
689.32	21841.88
689.46	21940.18
689.59	21729.53
689.73	22047.85
689.86	21479.10
690.00	21469.73
690.13	21474.42
690.27	21095.25
690.41	21631.23
690.54	20954.82
690.68	21465.05
690.81	21106.95
690.95	20856.51
691.08	20854.17
691.22	20643.52
691.35	21036.74
691.49	20688.00
691.62	20776.94
691.76	20629.48
691.89	20526.50
692.03	20294.79
692.16	20615.44
692.30	20262.02
692.43	20032.65
692.57	20105.20
692.70	19522.41
692.84	19868.81
692.97	19681.56
693.11	19571.56
693.24	19707.31
693.38	19536.45
693.51	19557.52
693.65	19618.37
693.78	19351.55
693.92	19328.14
694.05	19571.56
694.19	18946.64
694.32	19276.65
694.45	19211.12
694.59	19180.69
694.72	18848.33
694.86	18948.98
694.99	18731.31
695.13	18633.00
695.26	18352.14
695.39	18326.39
695.53	18663.43
695.66	18647.05
695.80	18267.88
695.93	18106.38
696.07	18092.34
696.20	18422.36
696.33	17844.24
696.47	18157.88
696.60	18033.83
696.73	17451.03
696.87	17750.62
697.00	17378.48
697.14	17329.33
697.27	17518.91
697.40	17263.79
697.54	17366.78
697.67	16961.86
697.80	16989.95
697.94	17006.33
698.07	16901.01
698.21	16870.58
698.34	17238.05
698.47	16996.97
698.61	16699.72
698.74	16662.27
698.87	16769.94
699.01	16411.84
699.14	16634.19
699.27	16278.43
699.40	15843.09
699.54	16006.92
699.67	15822.02
699.80	15946.07
699.94	16133.31
700.07	15990.54
700.20	16152.04
700.34	15822.02
700.47	15857.13
700.60	15709.68
700.73	15791.59
700.87	15503.71
701.00	15513.07
701.13	15297.74
701.26	15384.34
701.40	15367.96
701.53	14967.73
701.66	14939.64
701.79	14960.70
701.93	15272.00
702.06	14775.80
702.19	14960.70
702.32	14965.39
702.46	14668.14
702.59	14794.53
702.72	14743.03
702.85	14647.07
702.99	14469.19
703.12	14462.17
703.25	14267.91
703.38	14270.25
703.51	14164.92
703.65	14155.56
703.78	13933.21
703.91	13933.21
704.04	13968.32
704.17	13867.67
704.31	13841.93
704.44	13745.97
704.57	13652.34
704.70	13640.64
704.83	13252.11
704.96	13579.79
705.10	13200.62
705.23	13296.58
>>>>>End Processed Spectral Data<<<<<
