SpectraSuite Data File
++++++++++++++++++++++++++++++++++++
Date: Fri Oct 25 11:34:05 EDT 2013
User: price-jones
Dark Spectrum Present: No
Reference Spectrum Present: No
Number of Sampled Component Spectra: 1
Spectrometers: USB2+H05261
Integration Time (usec): 100000 (USB2+H05261)
Spectra Averaged: 1 (USB2+H05261)
Boxcar Smoothing: 0 (USB2+H05261)
Correct for Electrical Dark: No (USB2+H05261)
Strobe/Lamp Enabled: No (USB2+H05261)
Correct for Detector Non-linearity: No (USB2+H05261)
Correct for Stray Light: No (USB2+H05261)
Number of Pixels in Processed Spectrum: 2048
>>>>>Begin Processed Spectral Data<<<<<
365.73	337.04
365.92	337.04
366.12	337.04
366.32	166.18
366.52	194.26
366.72	252.78
366.91	152.13
367.11	231.71
367.31	201.29
367.51	189.58
367.70	95.96
367.90	133.41
368.10	217.67
368.30	98.30
368.49	140.43
368.69	208.31
368.89	194.26
369.09	159.16
369.28	180.22
369.48	173.20
369.68	224.69
369.87	283.20
370.07	217.67
370.27	241.08
370.47	287.89
370.66	500.87
370.86	444.70
371.06	514.92
371.25	449.38
371.45	477.47
371.65	489.17
371.84	538.32
372.04	624.92
372.24	547.69
372.44	585.13
372.63	524.28
372.83	643.65
373.03	608.54
373.22	617.90
373.42	610.88
373.62	631.94
373.81	627.26
374.01	697.48
374.21	631.94
374.40	622.58
374.60	695.14
374.79	601.52
374.99	578.11
375.19	671.73
375.38	657.69
375.58	676.41
375.78	718.54
375.97	631.94
376.17	732.59
376.37	706.84
376.56	695.14
376.76	709.18
376.95	699.82
377.15	669.39
377.35	634.29
377.54	678.76
377.74	690.46
377.93	706.84
378.13	664.71
378.33	697.48
378.52	706.84
378.72	704.50
378.91	688.12
379.11	697.48
379.31	681.10
379.50	711.52
379.70	734.93
379.89	758.33
380.09	779.40
380.28	755.99
380.48	737.27
380.68	753.65
380.87	720.88
381.07	692.80
381.26	802.80
381.46	774.72
381.65	858.98
381.85	816.85
382.04	767.70
382.24	819.19
382.43	821.53
382.63	770.04
382.83	837.91
383.02	772.38
383.22	774.72
383.41	805.14
383.61	718.54
383.80	812.17
384.00	685.78
384.19	816.85
384.39	840.25
384.58	842.59
384.78	788.76
384.97	816.85
385.17	873.02
385.36	856.64
385.56	882.38
385.75	772.38
385.95	833.23
386.14	858.98
386.34	877.70
386.53	882.38
386.72	835.57
386.92	837.91
387.11	842.59
387.31	887.06
387.50	802.80
387.70	908.13
387.89	870.68
388.09	798.12
388.28	866.00
388.48	917.49
388.67	835.57
388.86	901.11
389.06	929.19
389.25	957.28
389.45	990.05
389.64	898.77
389.84	877.70
390.03	983.02
390.22	973.66
390.42	954.94
390.61	1041.54
390.81	894.08
391.00	999.41
391.19	1032.18
391.39	971.32
391.58	1050.90
391.78	985.37
391.97	1015.79
392.16	999.41
392.36	1146.86
392.55	1020.47
392.75	1046.22
392.94	1053.24
393.13	1064.94
393.33	1034.52
393.52	1034.52
393.71	1055.58
393.91	1104.73
394.10	1004.09
394.29	1067.28
394.49	1123.46
394.68	1123.46
394.88	1165.59
395.07	1107.07
395.26	1090.69
395.46	1130.48
395.65	1062.60
395.84	1048.56
396.04	1233.46
396.23	1245.16
396.42	1179.63
396.62	1240.48
396.81	1235.80
397.00	1196.01
397.19	1170.27
397.39	1219.42
397.58	1259.21
397.77	1111.75
397.97	1210.06
398.16	1228.78
398.35	1364.53
398.55	1240.48
398.74	1256.87
398.93	1341.13
399.12	1287.29
399.32	1291.98
399.51	1390.28
399.70	1362.19
399.90	1263.89
400.09	1165.59
400.28	1383.26
400.47	1287.29
400.67	1437.09
400.86	1469.86
401.05	1387.94
401.24	1416.02
401.44	1430.07
401.63	1411.34
401.82	1434.75
402.01	1434.75
402.21	1441.77
402.40	1511.99
402.59	1495.60
402.78	1493.26
402.97	1558.80
403.17	1516.67
403.36	1481.56
403.55	1444.11
403.74	1577.52
403.93	1638.38
404.13	1610.29
404.32	1584.54
404.51	1565.82
404.70	1610.29
404.89	1589.22
405.09	1764.76
405.28	1629.01
405.47	1554.12
405.66	1652.42
405.85	1664.12
406.05	1626.67
406.24	1673.48
406.43	1596.25
406.62	1678.16
406.81	1811.57
407.00	1696.89
407.20	1713.27
407.39	1727.32
407.58	1909.88
407.77	1825.62
407.96	1888.81
408.15	1788.17
408.34	1839.66
408.54	1844.34
408.73	1870.09
408.92	1881.79
409.11	1872.43
409.30	1970.73
409.49	1991.80
409.68	2029.24
409.87	2008.18
410.07	2024.56
410.26	1989.46
410.45	1968.39
410.64	2122.87
410.83	2031.58
411.02	2104.14
411.21	2162.66
411.40	2200.10
411.59	2200.10
411.78	2101.80
411.98	2186.06
412.17	2134.57
412.36	2237.55
412.55	2101.80
412.74	2338.20
412.93	2249.25
413.12	2347.56
413.31	2394.37
413.50	2256.28
413.69	2387.35
413.88	2434.16
414.07	2377.98
414.26	2408.41
414.45	2443.52
414.64	2399.05
414.83	2588.63
415.02	2466.92
415.22	2635.44
415.41	2623.74
415.60	2600.34
415.79	2668.21
415.98	2745.45
416.17	2813.32
416.36	2820.35
416.55	2691.62
416.74	2771.19
416.93	2626.08
417.12	2778.22
417.31	2827.37
417.50	2780.56
417.69	2869.50
417.88	2839.07
418.07	2843.75
418.26	2928.01
418.45	2937.37
418.64	3026.31
418.83	2935.03
419.02	2937.37
419.21	2953.76
419.39	3075.46
419.58	2956.10
419.77	2984.18
419.96	3084.83
420.15	3197.17
420.34	3117.59
420.53	3108.23
420.72	3262.71
420.91	3117.59
421.10	3232.28
421.29	3213.56
421.48	3206.53
421.67	3265.05
421.86	3208.87
422.05	3091.85
422.24	3229.94
422.43	3389.10
422.61	3328.24
422.80	3358.67
422.99	3407.82
423.18	3337.60
423.37	3471.01
423.56	3391.44
423.75	3262.71
423.94	3300.16
424.13	3068.44
424.32	3255.69
424.50	3382.07
424.69	3499.10
424.88	3447.61
425.07	3297.81
425.26	3389.10
425.45	3396.12
425.64	3353.99
425.83	3410.16
426.01	3431.23
426.20	3417.18
426.39	3496.76
426.58	3445.27
426.77	3452.29
426.96	3637.19
427.15	3534.21
427.33	3531.87
427.52	3431.23
427.71	3435.91
427.90	3646.55
428.09	3548.25
428.28	3688.68
428.46	3688.68
428.65	3405.48
428.84	3740.18
429.03	3747.20
429.22	3651.24
429.40	3681.66
429.59	3707.41
429.78	3606.77
429.97	3501.44
430.16	3665.28
430.34	3756.56
430.53	3852.52
430.72	3770.60
430.91	3749.54
431.10	3733.15
431.28	3957.85
431.47	3936.78
431.66	4023.38
431.85	3852.52
432.03	3981.25
432.22	4025.72
432.41	4053.81
432.60	4018.70
432.79	4081.89
432.97	3997.64
433.16	4002.32
433.35	4072.53
433.54	4131.05
433.72	4180.20
433.91	4180.20
434.10	4142.75
434.28	4147.43
434.47	4154.45
434.66	4205.94
434.85	4196.58
435.03	4093.60
435.22	4325.31
435.41	4358.08
435.59	4273.82
435.78	4456.38
435.97	4386.16
436.16	4243.39
436.34	4400.21
436.53	4374.46
436.72	4332.33
436.90	4351.06
437.09	4318.29
437.28	4442.34
437.46	4477.44
437.65	4409.57
437.84	4552.34
438.02	4575.75
438.21	4432.97
438.40	4533.62
438.58	4545.32
438.77	4741.93
438.96	4615.54
439.14	4667.03
439.33	4807.46
439.52	4809.80
439.70	4856.61
439.89	4823.84
440.08	4826.18
440.26	4945.55
440.45	4947.89
440.63	4938.53
440.82	4985.34
441.01	5095.35
441.19	5123.43
441.38	5195.99
441.57	5200.67
441.75	5259.18
441.94	5266.21
442.12	5174.92
442.31	5439.40
442.50	5467.49
442.68	5268.55
442.87	5280.25
443.05	5343.44
443.24	5390.25
443.43	5493.24
443.61	5474.51
443.80	5514.30
443.98	5399.62
444.17	5228.76
444.35	5444.09
444.54	5598.56
444.73	5647.71
444.91	5518.98
445.10	5689.84
445.28	5607.92
445.47	5652.39
445.65	5369.19
445.84	5612.60
446.02	5603.24
446.21	5727.29
446.39	5781.12
446.58	5680.48
446.77	5626.65
446.95	5621.97
447.14	5593.88
447.32	5717.93
447.51	5537.71
447.69	5678.14
447.88	5699.20
448.06	5633.67
448.25	5734.31
448.43	5785.80
448.62	5692.18
448.80	5764.74
448.99	5834.96
449.17	5790.49
449.36	5685.16
449.54	5959.00
449.73	5973.05
449.91	6017.52
450.10	5926.24
450.28	6097.10
450.46	5977.73
450.65	6080.71
450.83	6001.13
451.02	5991.77
451.20	6216.46
451.39	6087.73
451.57	6132.20
451.76	6024.54
451.94	6090.07
452.13	6083.05
452.31	6324.13
452.49	6141.57
452.68	6200.08
452.86	6263.27
453.05	6310.08
453.23	6394.34
453.42	6157.95
453.60	6277.32
453.78	6216.46
453.97	6265.61
454.15	6382.64
454.34	6389.66
454.52	6427.11
454.70	6413.07
454.89	6455.20
455.07	6504.35
455.26	6654.14
455.44	6490.31
455.62	6509.03
455.81	6534.78
455.99	6640.10
456.17	6672.87
456.36	6609.67
456.54	6642.44
456.73	6768.83
456.91	7019.27
457.09	6951.39
457.28	6965.43
457.46	6904.58
457.64	6935.01
457.83	6848.41
458.01	6855.43
458.19	7183.10
458.38	7040.33
458.56	7087.14
458.74	7007.56
458.93	6963.09
459.11	7080.12
459.29	7129.27
459.48	7185.44
459.66	7124.59
459.84	7482.69
460.03	7368.01
460.21	7222.89
460.39	7403.11
460.57	7279.07
460.76	7279.07
460.94	7419.50
461.12	7475.67
461.31	7344.60
461.49	7332.90
461.67	7363.33
461.85	7534.18
462.04	7410.14
462.22	7866.54
462.40	7630.15
462.59	7588.02
462.77	7777.60
462.95	7581.00
463.13	7688.66
463.32	7637.17
463.50	7885.26
463.68	7927.39
463.86	7784.62
464.05	7805.69
464.23	7833.77
464.41	8051.44
464.59	7817.39
464.78	7894.63
464.96	7892.29
465.14	7644.19
465.32	7990.59
465.50	8140.38
465.69	7964.84
465.87	8044.42
466.05	7843.14
466.23	8201.24
466.41	8234.00
466.60	7976.55
466.78	7812.71
466.96	7936.76
467.14	8067.83
467.32	8107.62
467.51	8285.50
467.69	8182.51
467.87	8077.19
468.05	8287.84
468.23	8135.70
468.41	8100.59
468.60	8163.79
468.78	8231.66
468.96	8313.58
469.14	8425.93
469.32	8524.23
469.50	8344.01
469.69	8571.04
469.87	8566.36
470.05	8442.31
470.23	8636.58
470.41	8674.03
470.59	8692.75
470.77	8732.54
470.95	8791.05
471.14	8835.52
471.32	8540.61
471.50	8823.82
471.68	8929.14
471.86	8954.89
472.04	8879.99
472.22	9202.99
472.40	9048.51
472.58	9046.17
472.77	9179.58
472.95	9256.82
473.13	9575.13
473.31	9167.88
473.49	9256.82
473.67	9111.71
473.85	9305.97
474.03	9549.39
474.21	9682.80
474.39	9474.49
474.57	9575.13
474.75	9748.33
474.93	9806.84
475.12	9848.97
475.30	9968.34
475.48	9907.49
475.66	10139.20
475.84	9905.15
476.02	10052.60
476.20	10076.01
476.38	10366.23
476.56	10417.72
476.74	10249.21
476.92	10162.61
477.10	10228.14
477.28	10583.90
477.46	10616.67
477.64	10803.91
477.82	10736.04
478.00	10944.34
478.18	10939.66
478.36	11070.73
478.54	11033.29
478.72	11257.98
478.90	11035.63
479.08	11499.05
479.26	11321.17
479.44	11630.12
479.62	11524.80
479.80	11721.40
479.98	11819.71
480.16	12081.85
480.34	12002.27
480.52	11995.25
480.70	12065.46
480.88	11779.92
481.06	12121.63
481.24	12219.94
481.41	12184.83
481.59	12336.96
481.77	12683.36
481.95	12585.06
482.13	12821.45
482.31	12552.29
482.49	13338.71
482.67	12872.95
482.85	13198.28
483.03	13413.61
483.21	13486.17
483.39	13390.20
483.57	13319.99
483.74	13561.06
483.92	13778.73
484.10	13680.43
484.28	14139.18
484.46	13912.14
484.64	14410.68
484.82	14059.60
485.00	14518.34
485.18	14743.03
485.35	14771.12
485.53	14626.01
485.71	14949.00
485.89	15197.10
486.07	14911.55
486.25	15129.22
486.43	15309.44
486.61	15433.49
486.78	15789.25
486.96	15517.75
487.14	15929.69
487.32	15761.17
487.50	15866.49
487.68	16280.77
487.85	16278.43
488.03	16252.68
488.21	16659.93
488.39	16496.10
488.57	16505.46
488.75	16847.18
488.92	16807.39
489.10	17219.32
489.28	17099.95
489.46	17369.12
489.64	17523.59
489.81	17769.35
489.99	17813.82
490.17	17774.03
490.35	18113.41
490.53	18127.45
490.70	18579.17
490.88	18305.33
491.06	18658.75
491.24	18750.03
491.41	18574.49
491.59	18782.80
491.77	18750.03
491.95	19054.30
492.13	18836.63
492.30	19314.10
492.48	19197.07
492.66	19321.12
492.84	19590.28
493.01	20177.76
493.19	19679.22
493.37	19955.41
493.54	20194.14
493.72	20262.02
493.90	20297.13
494.08	20673.95
494.25	20526.50
494.43	20774.60
494.61	20716.08
494.79	20781.62
494.96	21130.36
495.14	20924.39
495.32	21022.69
495.49	21338.66
495.67	21095.25
495.85	21460.37
496.02	21469.73
496.20	21893.37
496.38	21752.94
496.55	22202.32
496.73	22401.27
496.91	22462.12
497.09	22506.59
497.26	22113.38
497.44	22368.50
497.62	22548.72
497.79	22951.29
497.97	22555.74
498.14	23213.43
498.32	23103.43
498.50	23281.31
498.67	23690.90
498.85	23295.35
499.03	23627.71
499.20	23445.15
499.38	23878.15
499.56	24044.32
499.73	24051.34
499.91	24060.71
500.08	24196.46
500.26	24215.18
500.44	24474.98
500.61	24444.56
500.79	24388.38
500.97	24650.52
501.14	24704.35
501.32	24849.47
501.49	24856.49
501.67	24669.25
501.84	25153.74
502.02	25003.94
502.20	25223.95
502.37	25312.89
502.55	25209.91
502.72	25483.75
502.90	25294.17
503.07	25420.56
503.25	25813.77
503.43	25490.77
503.60	25539.93
503.78	25886.32
503.95	25727.17
504.13	25923.77
504.30	26349.75
504.48	26092.29
504.65	26749.98
504.83	26494.86
505.01	26668.06
505.18	26551.04
505.36	26939.57
505.53	26691.47
505.71	26904.46
505.88	26771.05
506.06	26991.06
506.23	26981.70
506.41	26955.95
506.58	27285.97
506.76	27742.37
506.93	27536.40
507.11	27737.69
507.28	27625.34
507.46	27513.00
507.63	28126.22
507.81	28018.55
507.98	27648.75
508.16	28002.17
508.33	28332.18
508.50	28386.02
508.68	28212.82
508.85	28463.25
509.03	28144.94
509.20	28390.70
509.38	28783.91
509.55	28453.89
509.73	28594.32
509.90	29048.39
510.08	28882.21
510.25	29106.90
510.42	28919.66
510.60	29156.05
510.77	29380.74
510.95	29649.91
511.12	29493.09
511.30	29259.04
511.47	29420.53
511.64	29532.88
511.82	29556.28
511.99	29610.12
512.17	30085.25
512.34	29659.27
512.51	30218.66
512.69	30445.69
512.86	30228.02
513.04	30045.46
513.21	30066.52
513.38	30426.96
513.56	30775.70
513.73	30398.88
513.90	30455.05
514.08	30513.56
514.25	30843.58
514.43	30583.78
514.60	31168.91
514.77	30689.10
514.95	31505.95
515.12	30909.11
515.29	31108.06
515.47	31110.40
515.64	31601.91
515.81	31208.70
515.99	31044.87
516.16	31784.48
516.33	31796.18
516.51	31978.74
516.68	32020.87
516.85	31955.33
517.03	31728.30
517.20	32032.57
517.37	32294.71
517.54	32357.91
517.72	32362.59
517.89	32556.85
518.06	32690.26
518.24	32315.78
518.41	32568.55
518.58	32528.77
518.75	32554.51
518.93	32720.69
519.10	32753.46
519.27	33015.60
519.45	32573.24
519.62	33078.79
519.79	33310.50
519.96	33127.94
520.14	33577.33
520.31	33198.16
520.48	33380.72
520.65	33312.84
520.83	33610.09
521.00	33792.65
521.17	33401.79
521.34	33731.80
521.52	34047.77
521.69	33755.21
521.86	33773.93
522.03	33792.65
522.20	34188.21
522.38	34314.59
522.55	34782.70
522.72	33888.62
522.89	34235.02
523.07	34834.19
523.24	34443.32
523.41	34642.27
523.58	34405.88
523.75	34799.08
523.92	34909.09
524.10	34934.84
524.27	35339.75
524.44	35140.80
524.61	35115.06
524.78	34960.58
524.96	35332.73
525.13	35566.78
525.30	35613.59
525.47	35512.95
525.64	35229.74
525.81	35576.14
525.98	35522.31
526.16	36039.57
526.33	35651.04
526.50	36217.45
526.67	36025.53
526.84	35655.72
527.01	35695.51
527.18	35812.54
527.36	36020.84
527.53	36378.95
527.70	36336.82
527.87	36507.68
528.04	36315.75
528.21	36416.40
528.38	36453.84
528.55	36610.66
528.72	36540.44
528.89	36528.74
529.07	36641.09
529.24	36423.42
529.41	36950.04
529.58	36900.89
529.75	36240.86
529.92	36554.49
530.09	37134.94
530.26	36657.47
530.43	36964.08
530.60	37076.43
530.77	37050.68
530.94	36886.84
531.11	36861.10
531.28	37081.11
531.46	37565.60
531.63	37483.68
531.80	37432.19
531.97	37034.30
532.14	37816.04
532.31	37776.25
532.48	37635.81
532.65	37975.19
532.82	37937.74
532.99	37907.32
533.16	37717.73
533.33	37912.00
533.50	37956.47
533.67	37699.01
533.84	38183.50
534.01	38113.28
534.18	38307.55
534.35	38237.33
534.52	38621.18
534.69	38850.55
534.86	38827.15
535.03	38232.65
535.20	38363.72
535.37	38808.42
535.54	38724.16
535.71	38518.20
535.88	38799.06
536.05	39084.61
536.22	38927.79
536.38	38756.93
536.55	38546.28
536.72	38923.11
536.89	38913.75
537.06	39091.63
537.23	39150.14
537.40	39009.71
537.57	39110.35
537.74	39063.54
537.91	39550.37
538.08	39086.95
538.25	39054.18
538.42	39557.39
538.59	39690.80
538.75	39615.91
538.92	39351.43
539.09	39934.22
539.26	39943.58
539.43	39597.18
539.60	40116.78
539.77	39976.35
539.94	39849.96
540.11	39931.88
540.28	39990.39
540.44	39805.49
540.61	39833.58
540.78	39770.38
540.95	40081.67
541.12	40194.02
541.29	40004.44
541.46	40325.09
541.62	40531.06
541.79	40556.80
541.96	40362.54
542.13	40341.47
542.30	40505.31
542.47	40486.59
542.63	40854.05
542.80	40921.93
542.97	40868.09
543.14	41277.69
543.31	41008.53
543.48	40947.67
543.64	41310.46
543.81	41439.18
543.98	41256.62
544.15	41401.74
544.32	41352.58
544.48	41626.43
544.65	41460.25
544.82	41703.67
544.99	41160.66
545.16	41429.82
545.32	41420.46
545.49	42272.42
545.66	41954.10
545.83	41848.78
546.00	41816.01
546.16	41553.87
546.33	41600.68
546.50	41453.23
546.67	42227.95
546.83	41654.51
547.00	41663.88
547.17	41858.14
547.34	41930.70
547.50	42160.07
547.67	42398.80
547.84	42171.77
548.00	42155.39
548.17	42403.49
548.34	42539.24
548.51	42869.25
548.67	42401.14
548.84	42337.95
549.01	42298.16
549.18	42356.67
549.34	42419.87
549.51	42689.03
549.68	42806.06
549.84	42630.52
550.01	42976.92
550.18	42387.10
550.34	42817.76
550.51	42911.38
550.68	43318.64
550.84	42501.79
551.01	42852.87
551.18	42773.29
551.34	43152.46
551.51	43037.77
551.68	43388.85
551.84	42920.74
552.01	42834.14
552.18	43578.43
552.34	43072.88
552.51	43374.81
552.68	43330.34
552.84	43250.76
553.01	43538.65
553.18	43105.65
553.34	43583.12
553.51	43512.90
553.67	43302.25
553.84	43393.53
554.01	43313.95
554.17	43674.40
554.34	43938.88
554.51	43885.04
554.67	43945.90
554.84	43821.85
555.00	43910.79
555.17	43665.03
555.33	44072.29
555.50	44011.43
555.67	43753.97
555.83	44004.41
556.00	44282.94
556.16	44264.21
556.33	44280.60
556.50	44175.27
556.66	44163.57
556.83	43665.03
556.99	44357.83
557.16	44264.21
557.32	44304.00
557.49	44589.55
557.65	44395.28
557.82	44091.01
557.98	44566.14
558.15	44650.40
558.32	44091.01
558.48	44151.87
558.65	44612.95
558.81	44694.87
558.98	44004.41
559.14	44392.94
559.31	44428.05
559.47	44807.22
559.64	44371.88
559.80	44465.50
559.97	44900.84
560.13	44591.89
560.30	44655.08
560.46	44999.14
560.63	44879.77
560.79	44952.33
560.96	44751.04
561.12	44762.75
561.29	44884.45
561.45	44933.60
561.61	44577.84
561.78	44605.93
561.94	44722.96
562.11	44982.76
562.27	44729.98
562.44	44982.76
562.60	44870.41
562.77	45375.97
562.93	44615.29
563.10	45235.53
563.26	44891.48
563.42	45567.89
563.59	44818.92
563.75	44790.83
563.92	45343.20
564.08	44835.30
564.24	45193.40
564.41	45207.45
564.57	45109.14
564.74	45017.86
564.90	45050.63
565.07	45408.73
565.23	45322.13
565.39	45134.89
565.56	45116.17
565.72	45052.97
565.88	45439.16
566.05	45226.17
566.21	45357.24
566.38	45815.99
566.54	45619.38
566.70	45675.55
566.87	45474.27
567.03	45130.21
567.19	45656.83
567.36	45567.89
567.52	45593.64
567.68	45275.32
567.85	45792.58
568.01	45986.85
568.17	45539.80
568.34	45977.48
568.50	45464.91
568.66	45703.64
568.83	45460.23
568.99	45539.80
569.15	45778.54
569.32	45996.21
569.48	45085.74
569.64	46138.98
569.81	45944.72
569.97	45755.13
570.13	45991.53
570.30	45982.16
570.46	45834.71
570.62	45890.88
570.78	45364.26
570.95	46136.64
571.11	46373.03
571.27	45600.66
571.43	46302.82
571.60	46043.02
571.76	46050.04
571.92	45902.59
572.09	46164.73
572.25	45797.26
572.41	46054.72
572.57	46244.30
572.74	46302.82
572.90	46040.68
573.06	46000.89
573.22	45722.37
573.38	46307.50
573.55	46417.50
573.71	46192.81
573.87	46218.56
574.03	46487.72
574.20	46405.80
574.36	45977.48
574.52	46265.37
574.68	46532.19
574.84	46387.08
575.01	46263.03
575.17	46101.53
575.33	46202.18
575.49	45874.50
575.65	46260.69
575.82	45977.48
575.98	45907.27
576.14	46410.48
576.30	46742.84
576.46	46490.06
576.62	45986.85
576.79	46103.87
576.95	46012.59
577.11	46274.73
577.27	46115.58
577.43	46700.71
577.59	46202.18
577.75	46073.45
577.92	45823.01
578.08	46288.77
578.24	46115.58
578.40	46522.83
578.56	46724.11
578.72	46115.58
578.88	46583.68
579.04	46323.88
579.21	46469.00
579.37	46021.95
579.53	46518.15
579.69	45986.85
579.85	45862.80
580.01	46106.21
580.17	46216.22
580.33	46192.81
580.49	46232.60
580.65	46642.20
580.82	46401.12
580.98	46293.46
581.14	45872.16
581.30	46562.62
581.46	46075.79
581.62	45935.35
581.78	46461.97
581.94	46642.20
582.10	46476.02
582.26	46483.04
582.42	46354.31
582.58	46548.57
582.74	46841.14
582.90	46597.73
583.06	46693.69
583.22	46511.13
583.38	46438.57
583.54	46721.77
583.70	46696.03
583.86	46553.26
584.02	46195.15
584.18	46536.87
584.34	46806.03
584.50	46979.23
584.66	46873.91
584.82	46653.90
584.98	46602.41
585.14	46784.97
585.30	46784.97
585.46	46471.34
585.62	46389.42
585.78	46670.28
585.94	46618.79
586.10	46485.38
586.26	46452.61
586.42	46394.10
586.58	46717.09
586.74	46696.03
586.90	46665.60
587.06	46471.34
587.22	47143.07
587.38	46389.42
587.54	46834.12
587.70	47016.68
587.86	46780.29
588.02	46162.39
588.18	46527.51
588.34	46754.54
588.49	46405.80
588.65	46251.33
588.81	46789.65
588.97	46494.74
589.13	47117.32
589.29	46749.86
589.45	46710.07
589.61	47103.28
589.77	47213.29
589.93	46843.48
590.08	46801.35
590.24	47068.17
590.40	47035.41
590.56	47112.64
590.72	47021.36
590.88	46787.31
591.04	46698.37
591.20	47058.81
591.35	46759.22
591.51	47402.87
591.67	47028.38
591.83	47302.23
591.99	46902.00
592.15	46972.21
592.31	46969.87
592.46	47227.33
592.62	46944.12
592.78	46990.94
592.94	47309.25
593.10	47489.47
593.26	47679.05
593.41	47398.19
593.57	47019.02
593.73	47084.56
593.89	47393.51
594.05	47222.65
594.20	47203.92
594.36	47636.92
594.52	47608.84
594.68	47377.12
594.84	47297.55
594.99	47482.45
595.15	47398.19
595.31	47721.18
595.47	47208.61
595.62	47288.18
595.78	47063.49
595.94	47721.18
596.10	47601.82
596.25	47192.22
596.41	47583.09
596.57	47463.72
596.73	47662.67
596.88	47412.23
597.04	47306.91
597.20	47569.05
597.36	47524.58
597.51	47196.90
597.67	47248.39
597.83	47566.71
597.99	47384.15
598.14	47299.89
598.30	47377.12
598.46	47407.55
598.61	47615.86
598.77	47372.44
598.93	47468.40
599.09	47622.88
599.24	47955.24
599.40	46902.00
599.56	47508.19
599.71	47569.05
599.87	48247.80
600.03	47587.77
600.18	47353.72
600.34	47580.75
600.50	47629.90
600.65	47468.40
600.81	47859.27
600.97	47737.57
601.12	47646.29
601.28	47297.55
601.44	47323.29
601.59	47199.24
601.75	47054.13
601.91	47695.44
602.06	47487.13
602.22	47814.80
602.37	47657.99
602.53	47430.96
602.69	47746.93
602.84	47290.52
603.00	47026.04
603.16	47468.40
603.31	47285.84
603.47	47508.19
603.62	47777.36
603.78	47814.80
603.94	47288.18
604.09	47503.51
604.25	47313.93
604.40	47737.57
604.56	47400.53
604.71	47739.91
604.87	47695.44
605.03	47440.32
605.18	47201.58
605.34	47136.05
605.49	47327.97
605.65	47522.24
605.80	47126.69
605.96	47447.34
606.12	47363.08
606.27	47496.49
606.43	47166.48
606.58	47807.78
606.74	47075.19
606.89	47325.63
607.05	47487.13
607.20	47697.78
607.36	47391.17
607.51	47430.96
607.67	47522.24
607.82	47147.75
607.98	47232.01
608.13	47182.86
608.29	47051.79
608.44	47110.30
608.60	47313.93
608.75	47325.63
608.91	47615.86
609.06	46637.51
609.22	47344.36
609.37	47014.34
609.53	47339.68
609.68	47281.16
609.84	47175.84
609.99	46979.23
610.15	47208.61
610.30	47466.06
610.46	47028.38
610.61	46632.83
610.76	47129.03
610.92	46817.74
611.07	47164.14
611.23	46396.44
611.38	47021.36
611.54	47334.99
611.69	47185.20
611.84	47012.00
612.00	46850.50
612.15	46930.08
612.31	47154.77
612.46	46834.12
612.62	46410.48
612.77	46813.05
612.92	47143.07
613.08	46773.27
613.23	47182.86
613.39	46913.70
613.54	46464.32
613.69	47042.43
613.85	46897.31
614.00	47004.98
614.15	47232.01
614.31	46646.88
614.46	46469.00
614.62	46625.81
614.77	46681.98
614.92	46752.20
615.08	46567.30
615.23	46553.26
615.38	46770.93
615.54	47077.54
615.69	46581.34
615.84	46997.96
616.00	46918.38
616.15	46408.14
616.30	46745.18
616.46	46571.98
616.61	46281.75
616.76	46848.16
616.92	46515.81
617.07	46827.10
617.22	46644.54
617.37	46110.89
617.53	46642.20
617.68	46609.43
617.83	46227.92
617.99	46646.88
618.14	46426.87
618.29	46504.10
618.45	46419.84
618.60	46274.73
618.75	45918.97
618.90	46026.63
619.06	46457.29
619.21	46520.49
619.36	46663.26
619.51	46099.19
619.67	46176.43
619.82	46241.96
619.97	46225.58
620.12	46174.09
620.28	45720.02
620.43	46478.36
620.58	46312.18
620.73	46045.36
620.89	46358.99
621.04	46431.55
621.19	46019.61
621.34	45808.96
621.49	45783.22
621.65	46120.26
621.80	46096.85
621.95	46115.58
622.10	46202.18
622.25	46005.57
622.41	45645.13
622.56	45869.82
622.71	45982.16
622.86	45979.82
623.01	45633.42
623.16	45434.48
623.32	45621.72
623.47	45722.37
623.62	45708.32
623.77	45668.53
623.92	45911.95
624.07	45565.55
624.23	45689.60
624.38	45780.88
624.53	45734.07
624.68	45380.65
624.83	45031.91
624.98	45673.21
625.13	44849.35
625.29	45422.78
625.44	45439.16
625.59	45584.27
625.74	45375.97
625.89	44940.63
626.04	45193.40
626.19	45045.95
626.34	45289.37
626.49	44832.96
626.65	44928.92
626.80	44987.44
626.95	44762.75
627.10	44678.49
627.25	45319.79
627.40	44914.88
627.55	45364.26
627.70	45485.97
627.85	44903.18
628.00	45436.82
628.15	45052.97
628.30	44767.43
628.45	44856.37
628.60	44465.50
628.76	44636.36
628.91	44886.79
629.06	44535.71
629.21	45059.99
629.36	44659.76
629.51	44624.65
629.66	44694.87
629.81	44790.83
629.96	44959.35
630.11	44292.30
630.26	44645.72
630.41	44844.66
630.56	44198.68
630.71	44711.25
630.86	44381.24
631.01	44414.01
631.16	44505.29
631.31	44612.95
631.46	44430.39
631.61	44505.29
631.76	44088.67
631.91	44404.64
632.06	44720.62
632.21	44580.18
632.36	44746.36
632.51	44088.67
632.66	44612.95
632.81	44524.01
632.96	44002.07
633.10	44233.78
633.25	44016.11
633.40	43971.64
633.55	44706.57
633.70	44074.63
633.85	44119.10
634.00	43569.07
634.15	44208.04
634.30	43866.32
634.45	43927.17
634.60	43723.55
634.75	43981.01
634.90	43711.84
635.05	44208.04
635.19	43885.04
635.34	43653.33
635.49	43948.24
635.64	43924.83
635.79	43917.81
635.94	44116.76
636.09	44247.83
636.24	43501.20
636.39	44093.35
636.53	43821.85
636.68	43281.19
636.83	43260.12
636.98	43622.90
637.13	43203.95
637.28	43196.93
637.43	43215.65
637.57	43777.38
637.72	43505.88
637.87	43168.84
638.02	43555.03
638.17	43306.93
638.32	43555.03
638.46	42644.56
638.61	43416.94
638.76	43222.67
638.91	43033.09
639.06	43445.02
639.20	43416.94
639.35	43084.58
639.50	43164.16
639.65	43435.66
639.80	42714.78
639.94	43421.62
640.09	43414.60
640.24	42976.92
640.39	42548.60
640.54	42483.06
640.68	43044.79
640.83	43229.69
640.98	42646.90
641.13	42880.95
641.27	43166.50
641.42	42663.28
641.57	42731.16
641.72	42824.78
641.86	42866.91
642.01	42492.43
642.16	42740.52
642.31	42160.07
642.45	42742.86
642.60	42651.58
642.75	42810.74
642.90	42616.47
643.04	42848.19
643.19	42625.84
643.34	42232.63
643.48	42066.45
643.63	42335.61
643.78	42323.91
643.93	42518.17
644.07	42679.67
644.22	42251.35
644.37	41965.81
644.51	43051.81
644.66	42298.16
644.81	42511.15
644.95	42279.44
645.10	42344.97
645.25	42101.56
645.39	41762.18
645.54	41961.12
645.69	41464.93
645.83	41865.16
645.98	41972.83
646.13	41813.67
646.27	41776.22
646.42	41631.11
646.57	41429.82
646.71	41858.14
646.86	41769.20
647.00	42157.73
647.15	42153.05
647.30	42373.06
647.44	41764.52
647.59	41724.73
647.74	41626.43
647.88	42087.51
648.03	42043.04
648.17	42281.78
648.32	41696.64
648.47	41771.54
648.61	41261.30
648.76	41450.89
648.90	41581.96
649.05	41904.95
649.20	41493.02
649.34	41801.97
649.49	41614.72
649.63	41432.16
649.78	41357.27
649.92	41659.20
650.07	41982.19
650.21	41816.01
650.36	41406.42
650.51	41675.58
650.65	41605.36
650.80	41359.61
650.94	41378.33
651.09	40786.18
651.23	40828.30
651.38	41038.95
651.52	40863.41
651.67	41366.63
651.81	40863.41
651.96	41235.56
652.10	40395.31
652.25	40950.01
652.39	41036.61
652.54	41170.02
652.68	40538.08
652.83	41036.61
652.97	40994.48
653.12	40519.35
653.26	41092.79
653.41	41053.00
653.55	40886.82
653.70	41240.24
653.84	41003.85
653.99	41134.92
654.13	40542.76
654.27	40620.00
654.42	40790.86
654.56	40392.97
654.71	40594.25
654.85	41265.99
655.00	40889.16
655.14	40959.38
655.29	41013.21
655.43	41177.04
655.57	40271.26
655.72	40119.12
655.86	40627.02
656.01	39873.37
656.15	40395.31
656.30	40226.79
656.44	40353.18
656.58	39861.66
656.73	39983.37
656.87	40381.26
657.01	39819.53
657.16	40346.15
657.30	40252.53
657.45	40484.25
657.59	39899.11
657.73	39847.62
657.88	39531.65
658.02	40224.45
658.16	40006.78
658.31	40414.03
658.45	40095.72
658.60	39838.26
658.74	40046.57
658.88	39896.77
659.03	39887.41
659.17	39342.06
659.31	39531.65
659.46	39470.79
659.60	39945.92
659.74	39356.11
659.89	39360.79
660.03	39082.27
660.17	39393.56
660.32	39473.13
660.46	39276.53
660.60	38696.08
660.74	39227.38
660.89	39297.59
661.03	38660.97
661.17	38972.26
661.32	38803.74
661.46	39072.90
661.60	39213.34
661.74	38600.12
661.89	39086.95
662.03	38932.47
662.17	38274.78
662.31	38590.75
662.46	38756.93
662.60	38536.92
662.74	38382.45
662.88	38529.90
663.03	38033.71
663.17	37956.47
663.31	37907.32
663.45	38033.71
663.60	38567.35
663.74	37813.70
663.88	38272.44
664.02	37881.57
664.17	38326.27
664.31	37984.55
664.45	37682.62
664.59	37919.02
664.73	37872.21
664.88	38101.58
665.02	37427.51
665.16	37397.08
665.30	37935.40
665.44	37535.17
665.59	37170.05
665.73	37104.51
665.87	37057.70
666.01	37268.35
666.15	37277.71
666.29	37258.99
666.44	37127.92
666.58	37425.17
666.72	36987.49
666.86	37338.57
667.00	36872.80
667.14	36842.37
667.28	37034.30
667.43	36643.43
667.57	37181.75
667.71	36699.60
667.85	37156.00
667.99	36598.96
668.13	36498.31
668.27	35934.24
668.41	36383.63
668.56	35716.58
668.70	36282.98
668.84	35800.83
668.98	35807.86
669.12	36004.46
669.26	36060.63
669.40	35562.10
669.54	35861.69
669.68	35732.96
669.82	35564.44
669.96	35339.75
670.10	35796.15
670.25	35550.40
670.39	35299.96
670.53	35445.07
670.67	35185.27
670.81	35655.72
670.95	35402.94
671.09	35056.54
671.23	35330.39
671.37	35185.27
671.51	34932.50
671.65	34998.03
671.79	34668.02
671.93	34602.48
672.07	34923.13
672.21	34838.87
672.35	34356.72
672.49	34686.74
672.63	34494.82
672.77	34520.56
672.91	34628.23
673.05	33919.04
673.19	33675.63
673.33	34017.35
673.47	34391.83
673.61	33926.07
673.75	34007.98
673.89	33645.20
674.03	33619.46
674.17	33315.19
674.31	33230.93
674.45	33432.21
674.59	33191.14
674.73	33413.49
674.87	33249.65
675.01	32760.48
675.15	32432.80
675.29	32629.41
675.43	32898.57
675.56	32739.41
675.70	32737.07
675.84	32870.48
675.98	31711.92
676.12	32341.52
676.26	32783.88
676.40	32486.64
676.54	31985.76
676.68	31618.30
676.82	31391.26
676.96	32240.88
677.10	31828.95
677.23	32079.38
677.37	31945.97
677.51	31866.39
677.65	31529.36
677.79	31529.36
677.93	31094.02
678.07	31168.91
678.21	31070.61
678.34	30953.58
678.48	30857.62
678.62	30967.63
678.76	30707.83
678.90	30300.58
679.04	30836.56
679.18	30841.24
679.31	30052.48
679.45	29956.52
679.59	30096.95
679.73	30108.65
679.87	29928.43
680.00	29507.13
680.14	29687.36
680.28	29982.26
680.42	30047.80
680.56	29415.85
680.70	29500.11
680.83	29422.87
680.97	29102.22
681.11	29177.12
681.25	28947.75
681.39	28690.29
681.52	28821.36
681.66	28453.89
681.80	28339.21
681.94	28032.60
682.07	28386.02
682.21	28364.95
682.35	28086.43
682.49	27985.79
682.62	28025.57
682.76	27903.87
682.90	28070.04
683.04	28070.04
683.17	28137.92
683.31	27391.29
683.45	27414.69
683.59	27082.34
683.72	27250.86
683.86	27398.31
684.00	27180.64
684.13	27309.37
684.27	26995.74
684.41	26562.74
684.55	27072.98
684.68	26757.00
684.82	26174.21
684.96	26368.48
685.09	26237.41
685.23	26410.60
685.37	26347.41
685.50	26726.58
685.64	26380.18
685.78	25993.99
685.91	25935.48
686.05	25565.67
686.19	25174.80
686.32	25633.55
686.46	25259.06
686.60	24809.68
686.73	25125.65
686.87	24999.26
687.01	25324.60
687.14	24945.43
687.28	25001.60
687.42	24629.46
687.55	24648.18
687.69	24718.40
687.82	24149.65
687.96	24240.93
688.10	24629.46
688.23	24526.47
688.37	24287.74
688.50	24556.90
688.64	24430.51
688.78	23697.92
688.91	23616.01
689.05	23744.73
689.18	23564.51
689.32	22867.03
689.46	23281.31
689.59	23136.20
689.73	23506.00
689.86	23520.04
690.00	23285.99
690.13	23288.33
690.27	23019.17
690.41	23026.19
690.54	22689.15
690.68	22499.57
690.81	22302.96
690.95	22373.18
691.08	22188.28
691.22	22050.19
691.35	22167.21
691.49	22321.69
691.62	22190.62
691.76	21181.85
691.89	21717.83
692.03	21387.82
692.16	21490.80
692.30	21256.75
692.43	21385.47
692.57	21345.69
692.70	21085.89
692.84	20992.26
692.97	21053.12
693.11	20800.34
693.24	20746.51
693.38	20896.30
693.51	20711.40
693.65	20526.50
693.78	20563.95
693.92	20130.95
694.05	20505.43
694.19	20177.76
694.32	20257.34
694.45	20187.12
694.59	20472.67
694.72	20177.76
694.86	19707.31
694.99	19927.32
695.13	19587.94
695.26	19580.92
695.39	19115.16
695.53	19281.33
695.66	19564.54
695.80	18998.13
695.93	19098.77
696.07	18902.17
696.20	18412.99
696.33	18523.00
696.47	18637.69
696.60	18834.29
696.73	18555.77
696.87	18635.35
697.00	18291.29
697.14	18314.69
697.27	18106.38
697.40	18008.08
697.54	18174.26
697.67	18190.64
697.80	18033.83
697.94	17802.11
698.07	17521.25
698.21	17617.21
698.34	17497.84
698.47	17556.36
698.61	17029.74
698.74	17411.25
698.87	17453.37
699.01	16833.13
699.14	17053.14
699.27	16819.09
699.40	17034.42
699.54	17069.53
699.67	16709.08
699.80	16776.96
699.94	16638.87
700.07	16718.45
700.20	16657.59
700.34	16519.50
700.47	16573.33
700.60	16617.80
700.73	16348.64
700.87	16121.61
701.00	16107.57
701.13	15941.39
701.26	15580.95
701.40	15833.72
701.53	15740.10
701.66	15658.18
701.79	15602.01
701.93	15300.08
702.06	15243.91
702.19	15105.82
702.32	15321.15
702.46	15311.78
702.59	15323.49
702.72	15297.74
702.85	15082.41
702.99	14977.09
703.12	14721.97
703.25	14761.76
703.38	14752.40
703.51	14644.73
703.65	14366.21
703.78	14169.60
703.91	14422.38
704.04	14251.52
704.17	14185.99
704.31	14052.58
704.44	14171.94
704.57	14139.18
704.70	13947.25
704.83	13776.39
704.96	13706.18
705.10	13568.09
705.23	13614.90
>>>>>End Processed Spectral Data<<<<<
