SpectraSuite Data File
++++++++++++++++++++++++++++++++++++
Date: Fri Oct 25 11:33:22 EDT 2013
User: price-jones
Dark Spectrum Present: No
Reference Spectrum Present: No
Number of Sampled Component Spectra: 1
Spectrometers: USB2+H05261
Integration Time (usec): 100000 (USB2+H05261)
Spectra Averaged: 1 (USB2+H05261)
Boxcar Smoothing: 0 (USB2+H05261)
Correct for Electrical Dark: No (USB2+H05261)
Strobe/Lamp Enabled: No (USB2+H05261)
Correct for Detector Non-linearity: No (USB2+H05261)
Correct for Stray Light: No (USB2+H05261)
Number of Pixels in Processed Spectrum: 2048
>>>>>Begin Processed Spectral Data<<<<<
365.73	299.59
365.92	299.59
366.12	299.59
366.32	149.79
366.52	149.79
366.72	217.67
366.91	159.16
367.11	175.54
367.31	180.22
367.51	133.41
367.70	173.20
367.90	112.35
368.10	196.60
368.30	149.79
368.49	187.24
368.69	147.45
368.89	217.67
369.09	205.97
369.28	215.33
369.48	191.92
369.68	337.04
369.87	201.29
370.07	203.63
370.27	248.10
370.47	264.48
370.66	475.13
370.86	456.40
371.06	447.04
371.25	552.37
371.45	472.79
371.65	561.73
371.84	587.47
372.04	554.71
372.24	587.47
372.44	550.03
372.63	552.37
372.83	638.97
373.03	575.77
373.22	620.24
373.42	631.94
373.62	631.94
373.81	627.26
374.01	594.50
374.21	662.37
374.40	634.29
374.60	636.63
374.79	624.92
374.99	610.88
375.19	702.16
375.38	610.88
375.58	657.69
375.78	655.35
375.97	685.78
376.17	704.50
376.37	676.41
376.56	650.67
376.76	662.37
376.95	650.67
377.15	697.48
377.35	634.29
377.54	706.84
377.74	716.20
377.93	688.12
378.13	732.59
378.33	723.23
378.52	667.05
378.72	737.27
378.91	763.01
379.11	720.88
379.31	690.46
379.50	667.05
379.70	758.33
379.89	681.10
380.09	704.50
380.28	751.31
380.48	784.08
380.68	620.24
380.87	793.44
381.07	788.76
381.26	683.44
381.46	821.53
381.65	847.27
381.85	706.84
382.04	798.12
382.24	737.27
382.43	763.01
382.63	873.02
382.83	798.12
383.02	798.12
383.22	791.10
383.41	798.12
383.61	755.99
383.80	702.16
384.00	823.87
384.19	821.53
384.39	786.42
384.58	863.66
384.78	833.23
384.97	807.48
385.17	788.76
385.36	887.06
385.56	889.40
385.75	842.59
385.95	830.89
386.14	919.83
386.34	840.25
386.53	781.74
386.72	858.98
386.92	835.57
387.11	915.15
387.31	873.02
387.50	896.43
387.70	915.15
387.89	922.17
388.09	917.49
388.28	840.25
388.48	1004.09
388.67	894.08
388.86	978.34
389.06	877.70
389.25	912.81
389.45	880.04
389.64	940.90
389.84	992.39
390.03	912.81
390.22	1011.11
390.42	931.53
390.61	891.74
390.81	952.60
391.00	961.96
391.19	1062.60
391.39	980.68
391.58	931.53
391.78	936.21
391.97	1043.88
392.16	1011.11
392.36	1008.77
392.55	1022.81
392.75	1034.52
392.94	1064.94
393.13	1067.28
393.33	1001.75
393.52	1050.90
393.71	1116.44
393.91	959.62
394.10	1027.50
394.29	1165.59
394.49	1078.99
394.68	1032.18
394.88	1076.65
395.07	1198.35
395.26	1123.46
395.46	1107.07
395.65	1193.67
395.84	1214.74
396.04	1198.35
396.23	1184.31
396.42	1193.67
396.62	1193.67
396.81	1233.46
397.00	1254.53
397.19	1196.01
397.39	1210.06
397.58	1198.35
397.77	1214.74
397.97	1252.19
398.16	1280.27
398.35	1310.70
398.55	1294.32
398.74	1308.36
398.93	1327.08
399.12	1341.13
399.32	1359.85
399.51	1343.47
399.70	1359.85
399.90	1385.60
400.09	1437.09
400.28	1366.87
400.47	1387.94
400.67	1455.81
400.86	1348.15
401.05	1432.41
401.24	1437.09
401.44	1451.13
401.63	1465.18
401.82	1432.41
402.01	1434.75
402.21	1371.55
402.40	1514.33
402.59	1509.65
402.78	1437.09
402.97	1572.84
403.17	1476.88
403.36	1605.61
403.55	1514.33
403.74	1568.16
403.93	1657.10
404.13	1685.19
404.32	1582.20
404.51	1593.90
404.70	1570.50
404.89	1638.38
405.09	1636.03
405.28	1703.91
405.47	1739.02
405.66	1753.06
405.85	1746.04
406.05	1732.00
406.24	1675.82
406.43	1727.32
406.62	1771.79
406.81	1746.04
407.00	1839.66
407.20	1846.68
407.39	1795.19
407.58	1853.70
407.77	1776.47
407.96	1893.49
408.15	1860.73
408.34	1998.82
408.54	1944.99
408.73	1891.15
408.92	1980.09
409.11	1937.96
409.30	2052.65
409.49	1940.30
409.68	2024.56
409.87	2019.88
410.07	2052.65
410.26	2076.06
410.45	2062.01
410.64	2085.42
410.83	2069.03
411.02	2125.21
411.21	2155.63
411.40	2167.34
411.59	2253.94
411.78	2197.76
411.98	2216.49
412.17	2300.75
412.36	2228.19
412.55	2282.02
412.74	2356.92
412.93	2413.09
413.12	2200.10
413.31	2469.27
413.50	2408.41
413.69	2385.01
413.88	2651.83
414.07	2476.29
414.26	2574.59
414.45	2506.71
414.64	2548.84
414.83	2487.99
415.02	2567.57
415.22	2593.31
415.41	2656.51
415.60	2635.44
415.79	2715.02
415.98	2670.55
416.17	2696.30
416.36	2736.09
416.55	2771.19
416.74	2712.68
416.93	2787.58
417.12	2839.07
417.31	2935.03
417.50	2949.08
417.69	3073.12
417.88	2923.33
418.07	3012.27
418.26	2960.78
418.45	2977.16
418.64	3047.38
418.83	3045.04
419.02	2965.46
419.21	3075.46
419.39	2981.84
419.58	3059.08
419.77	3119.93
419.96	3150.36
420.15	3157.38
420.34	3176.11
420.53	3225.26
420.72	3293.13
420.91	3337.60
421.10	3309.52
421.29	3396.12
421.48	3300.16
421.67	3337.60
421.86	3365.69
422.05	3288.45
422.24	3361.01
422.43	3400.80
422.61	3421.86
422.80	3382.07
422.99	3445.27
423.18	3431.23
423.37	3492.08
423.56	3398.46
423.75	3531.87
423.94	3398.46
424.13	3279.09
424.32	3337.60
424.50	3442.93
424.69	3576.34
424.88	3574.00
425.07	3487.40
425.26	3468.67
425.45	3370.37
425.64	3421.86
425.83	3459.31
426.01	3473.36
426.20	3463.99
426.39	3471.01
426.58	3361.01
426.77	3531.87
426.96	3545.91
427.15	3616.13
427.33	3585.70
427.52	3550.59
427.71	3623.15
427.90	3569.32
428.09	3693.37
428.28	3794.01
428.46	3627.83
428.65	3641.87
428.84	3744.86
429.03	3716.77
429.22	3796.35
429.40	3705.07
429.59	3812.73
429.78	3784.65
429.97	3777.62
430.16	3859.54
430.34	3913.38
430.53	3920.40
430.72	3843.16
430.91	4007.00
431.10	3847.84
431.28	3964.87
431.47	3934.44
431.66	4091.26
431.85	3955.51
432.03	4133.39
432.22	4227.01
432.41	4147.43
432.60	4128.70
432.79	4037.42
432.97	4095.94
433.16	3978.91
433.35	4124.02
433.54	4173.18
433.72	4245.73
433.91	4187.22
434.10	4217.65
434.28	4161.47
434.47	4315.95
434.66	4430.63
434.85	4348.72
435.03	4245.73
435.22	4292.54
435.41	4545.32
435.59	4411.91
435.78	4486.81
435.97	4557.02
436.16	4521.92
436.34	4327.65
436.53	4442.34
436.72	4461.06
436.90	4440.00
437.09	4465.74
437.28	4456.38
437.46	4582.77
437.65	4496.17
437.84	4482.13
438.02	4566.39
438.21	4664.69
438.40	4449.36
438.58	4713.84
438.77	4947.89
438.96	4760.65
439.14	4826.18
439.33	4809.80
439.52	4994.70
439.70	4971.30
439.89	4910.44
440.08	4929.17
440.26	4980.66
440.45	5067.26
440.63	5212.37
440.82	5163.22
441.01	5050.88
441.19	5144.50
441.38	5308.34
441.57	5235.78
441.75	5207.69
441.94	5427.70
442.12	5324.72
442.31	5547.07
442.50	5549.41
442.68	5434.72
442.87	5488.56
443.05	5621.97
443.24	5645.37
443.43	5638.35
443.61	5554.09
443.80	5706.23
443.98	5476.85
444.17	5343.44
444.35	5776.44
444.54	5551.75
444.73	5633.67
444.91	5657.07
445.10	5750.70
445.28	5533.03
445.47	5497.92
445.65	5687.50
445.84	5710.91
446.02	5776.44
446.21	5666.44
446.39	5640.69
446.58	5743.67
446.77	5699.20
446.95	5558.77
447.14	5678.14
447.32	5788.14
447.51	5827.93
447.69	5795.17
447.88	5907.51
448.06	5830.27
448.25	5820.91
448.43	5818.57
448.62	5846.66
448.80	5664.10
448.99	5963.68
449.17	5982.41
449.36	5944.96
449.54	5956.66
449.73	5959.00
449.91	6242.21
450.10	6155.61
450.28	6225.82
450.46	6108.80
450.65	6019.86
450.83	6326.47
451.02	6186.04
451.20	6413.07
451.39	6286.68
451.57	6216.46
451.76	6267.95
451.94	6303.06
452.13	6258.59
452.31	6303.06
452.49	6249.23
452.68	6333.49
452.86	6370.94
453.05	6452.86
453.23	6401.37
453.42	6413.07
453.60	6286.68
453.78	6361.58
453.97	6480.94
454.15	6586.27
454.34	6422.43
454.52	6567.54
454.70	6548.82
454.89	6663.51
455.07	6778.19
455.26	6848.41
455.44	6829.68
455.62	6836.70
455.81	6829.68
455.99	6810.96
456.17	6855.43
456.36	6857.77
456.54	6977.14
456.73	6965.43
456.91	7105.87
457.09	7227.57
457.28	7028.63
457.46	6946.71
457.64	7084.80
457.83	7089.48
458.01	7101.19
458.19	7229.91
458.38	7054.37
458.56	7192.47
458.74	7407.80
458.93	7290.77
459.11	7375.03
459.29	7475.67
459.48	7328.22
459.66	7419.50
459.84	7492.05
460.03	7662.91
460.21	7417.16
460.39	7417.16
460.57	7417.16
460.76	7543.55
460.94	7297.79
461.12	7852.50
461.31	7379.71
461.49	7550.57
461.67	7552.91
461.85	7702.70
462.04	7660.57
462.22	8077.19
462.40	7765.90
462.59	7641.85
462.77	7728.45
462.95	7831.43
463.13	7889.95
463.32	7922.71
463.50	7948.46
463.68	7747.17
463.86	7971.86
464.05	7925.05
464.23	7887.61
464.41	7943.78
464.59	7929.74
464.78	8119.32
464.96	7878.24
465.14	7899.31
465.32	8051.44
465.50	8114.64
465.69	8348.69
465.87	8114.64
466.05	8180.17
466.23	8264.43
466.41	8138.04
466.60	8393.16
466.78	8182.51
466.96	8332.31
467.14	8435.29
467.32	8292.52
467.51	8245.71
467.69	7988.25
467.87	8264.43
468.05	8285.50
468.23	8255.07
468.41	8362.73
468.60	8561.68
468.78	8442.31
468.96	8454.02
469.14	8582.74
469.32	8823.82
469.50	8454.02
469.69	8950.21
469.87	8748.92
470.05	8765.31
470.23	9039.15
470.41	8854.25
470.59	8798.07
470.77	8851.91
470.95	9011.06
471.14	9212.35
471.32	8812.12
471.50	9081.28
471.68	8947.87
471.86	9200.65
472.04	9039.15
472.22	9523.64
472.40	9160.86
472.58	9226.39
472.77	9542.36
472.95	9600.88
473.13	9570.45
473.31	9415.98
473.49	9490.87
473.67	9270.86
473.85	9654.71
474.03	9750.67
474.21	9851.31
474.39	9729.61
474.57	9722.59
474.75	9958.98
474.93	10029.20
475.12	10059.62
475.30	10029.20
475.48	10101.75
475.66	10026.86
475.84	10157.92
476.02	10408.36
476.20	10188.35
476.38	10298.36
476.56	10537.09
476.74	10389.64
476.92	10377.94
477.10	10691.57
477.28	10635.39
477.46	10640.08
477.64	10991.16
477.82	11063.71
478.00	11218.19
478.18	11124.57
478.36	11143.29
478.54	11531.82
478.72	11239.25
478.90	11461.60
479.08	11648.85
479.26	11496.71
479.44	11772.89
479.62	11906.31
479.80	11763.53
479.98	12067.80
480.16	12393.14
480.34	11962.48
480.52	12332.28
480.70	12568.68
480.88	12032.69
481.06	12266.75
481.24	12510.16
481.41	12498.46
481.59	12645.91
481.77	12999.34
481.95	13060.19
482.13	12910.40
482.31	13217.01
482.49	13497.87
482.67	13174.88
482.85	13514.25
483.03	13734.26
483.21	13785.76
483.39	14045.55
483.57	13710.86
483.74	14115.77
483.92	14232.80
484.10	14024.49
484.28	14501.96
484.46	14267.91
484.64	15005.17
484.82	14523.02
485.00	14600.26
485.18	14794.53
485.35	15204.12
485.53	15386.68
485.71	15096.46
485.89	15356.25
486.07	15396.04
486.25	15541.16
486.43	15775.21
486.61	15758.83
486.78	15962.45
486.96	15796.28
487.14	16126.29
487.32	16439.92
487.50	16493.76
487.68	16510.14
487.85	16428.22
488.03	16802.71
488.21	17121.02
488.39	16950.16
488.57	16893.99
488.75	17228.68
488.92	17451.03
489.10	17537.63
489.28	17703.81
489.46	17837.22
489.64	17771.69
489.81	18192.98
489.99	18391.93
490.17	18242.14
490.35	18515.98
490.53	18546.40
490.70	18771.10
490.88	18527.68
491.06	19044.94
491.24	19470.92
491.41	19061.32
491.59	19468.58
491.77	19204.10
491.95	19726.04
492.13	19693.27
492.30	19953.07
492.48	19798.59
492.66	20037.33
492.84	19798.59
493.01	20336.91
493.19	20563.95
493.37	20444.58
493.54	20449.26
493.72	20648.21
493.90	20926.73
494.08	20889.28
494.25	21048.44
494.43	20954.82
494.61	21048.44
494.79	21764.64
494.96	21523.57
495.14	21834.86
495.32	21785.71
495.49	22015.08
495.67	22253.81
495.85	22134.45
496.02	22567.45
496.20	22565.10
496.38	22347.44
496.55	22569.79
496.73	22775.75
496.91	23002.78
497.09	23035.55
497.26	23068.32
497.44	23318.76
497.62	23255.56
497.79	23571.54
497.97	23721.33
498.14	23939.00
498.32	23852.40
498.50	23627.71
498.67	24041.98
498.85	23880.49
499.03	24095.82
499.20	24226.89
499.38	24332.21
499.56	24116.88
499.73	24554.56
499.91	24760.53
500.08	24725.42
500.26	25027.35
500.44	24657.54
500.61	25069.48
500.79	24793.29
500.97	25008.62
501.14	25596.10
501.32	25645.25
501.49	25516.52
501.67	25647.59
501.84	25542.27
502.02	25741.21
502.20	25773.98
502.37	25982.29
502.55	26017.40
502.72	26057.18
502.90	26473.80
503.07	26352.09
503.25	26284.22
503.43	26258.47
503.60	26588.49
503.78	26356.77
503.95	26705.51
504.13	26663.38
504.30	26789.77
504.48	26745.30
504.65	26899.78
504.83	27323.41
505.01	27248.52
505.18	27414.69
505.36	27723.65
505.53	27133.83
505.71	27857.06
505.88	27367.88
506.06	27604.28
506.23	27737.69
506.41	27728.33
506.58	27908.55
506.76	27887.48
506.93	28463.25
507.11	28098.13
507.28	28449.21
507.46	28182.39
507.63	28432.83
507.81	28950.09
507.98	28505.38
508.16	28601.35
508.33	28863.49
508.50	29172.44
508.68	29123.29
508.85	28989.88
509.03	29362.02
509.20	29092.86
509.38	29340.96
509.55	29575.01
509.73	29404.15
509.90	29757.57
510.08	29345.64
510.25	29675.65
510.42	29783.32
510.60	29954.18
510.77	29965.88
510.95	30012.69
511.12	30249.08
511.30	30057.16
511.47	30258.45
511.64	30457.39
511.82	30508.88
511.99	30511.22
512.17	30586.12
512.34	30651.66
512.51	31105.72
512.69	31328.07
512.86	31082.31
513.04	31351.48
513.21	30897.41
513.38	30876.35
513.56	31377.22
513.73	31143.17
513.90	31494.25
514.08	31061.25
514.25	31454.46
514.43	31915.54
514.60	31793.84
514.77	31847.67
514.95	32264.28
515.12	31770.43
515.29	32063.00
515.47	32304.07
515.64	32507.70
515.81	32151.94
515.99	32697.28
516.16	32673.88
516.33	32620.05
516.51	32877.51
516.68	32788.56
516.85	32739.41
517.03	33060.07
517.20	32964.10
517.37	32783.88
517.54	33198.16
517.72	33312.84
517.89	33022.62
518.06	33069.43
518.24	33387.74
518.41	33298.80
518.58	33511.79
518.75	33677.97
518.93	33921.38
519.10	33514.13
519.27	33867.55
519.45	33654.56
519.62	34019.69
519.79	33909.68
519.96	34015.01
520.14	33998.62
520.31	34167.14
520.48	34291.19
520.65	34534.60
520.83	34696.10
521.00	34497.16
521.17	34656.31
521.34	34747.59
521.52	34740.57
521.69	34820.15
521.86	34726.53
522.03	35510.61
522.20	35014.41
522.38	35108.04
522.55	35115.06
522.72	34965.26
522.89	35557.42
523.07	35562.10
523.24	35269.53
523.41	35438.05
523.58	35365.49
523.75	36144.89
523.92	35599.55
524.10	35587.85
524.27	35945.95
524.44	36093.40
524.61	35737.64
524.78	36327.45
524.96	36467.89
525.13	36205.75
525.30	36397.67
525.47	36411.71
525.64	36126.17
525.81	36704.28
525.98	36194.04
526.16	36636.41
526.33	36259.58
526.50	36931.31
526.67	36390.65
526.84	36739.39
527.01	36786.20
527.18	36910.25
527.36	36950.04
527.53	37076.43
527.70	37493.04
527.87	37448.57
528.04	37614.75
528.21	37511.77
528.38	37158.34
528.55	37589.00
528.72	37317.50
528.89	37507.08
529.07	37502.40
529.24	37675.60
529.41	37708.37
529.58	37347.93
529.75	37837.10
529.92	38181.16
530.09	37701.35
530.26	38120.31
530.43	37961.15
530.60	37790.29
530.77	37813.70
530.94	38054.77
531.11	38012.64
531.28	37869.87
531.46	38286.48
531.63	38279.46
531.80	38417.55
531.97	38761.61
532.14	38660.97
532.31	38300.53
532.48	38546.28
532.65	38995.67
532.82	38604.80
532.99	38728.84
533.16	38782.68
533.33	38951.20
533.50	39051.84
533.67	38918.43
533.84	39136.10
534.01	38880.98
534.18	39239.08
534.35	39945.92
534.52	39304.62
534.69	39133.76
534.86	39569.10
535.03	39213.34
535.20	39889.75
535.37	39573.78
535.54	40163.59
535.71	39938.90
535.88	39739.96
536.05	39751.66
536.22	39964.65
536.38	39379.51
536.55	40254.87
536.72	40034.86
536.89	39873.37
537.06	40165.93
537.23	40439.78
537.40	39707.19
537.57	39711.87
537.74	39948.26
537.91	40418.71
538.08	40758.09
538.25	40165.93
538.42	40610.64
538.59	40580.21
538.75	40357.86
538.92	40863.41
539.09	40760.43
539.26	40868.09
539.43	41146.62
539.60	40622.34
539.77	40957.03
539.94	40521.69
540.11	40980.44
540.28	40645.74
540.44	40912.56
540.61	41022.57
540.78	41371.31
540.95	40917.25
541.12	40900.86
541.29	41062.36
541.46	41502.38
541.62	41509.40
541.79	41148.96
541.96	40985.12
542.13	41350.24
542.30	41331.52
542.47	41670.90
542.63	41462.59
542.80	41422.80
542.97	41968.15
543.14	42359.02
543.31	41497.70
543.48	42110.92
543.64	42904.36
543.81	42646.90
543.98	41813.67
544.15	42143.69
544.32	42508.81
544.48	42497.11
544.65	42532.22
544.82	42562.64
544.99	42527.53
545.16	42630.52
545.32	42532.22
545.49	42997.98
545.66	42873.93
545.83	42499.45
546.00	42747.54
546.16	42693.71
546.33	42696.05
546.50	42597.75
546.67	42960.53
546.83	42637.54
547.00	42848.19
547.17	42761.59
547.34	43222.67
547.50	43562.05
547.67	43805.47
547.84	43540.99
548.00	43129.05
548.17	43515.24
548.34	43515.24
548.51	43667.37
548.67	43391.19
548.84	43646.31
549.01	43384.17
549.18	43232.04
549.34	43580.78
549.51	43746.95
549.68	43592.48
549.84	43887.39
550.01	43615.88
550.18	43220.33
550.34	43899.09
550.51	43847.60
550.68	44257.19
550.84	43866.32
551.01	44304.00
551.18	43775.04
551.34	43952.92
551.51	44137.82
551.68	44418.69
551.84	43833.55
552.01	44177.61
552.18	44053.56
552.34	44168.25
552.51	44020.80
552.68	44079.31
552.84	44341.45
553.01	44484.22
553.18	44116.76
553.34	44556.78
553.51	44182.29
553.67	44472.52
553.84	44741.68
554.01	44591.89
554.17	44767.43
554.34	44891.48
554.51	44575.50
554.67	44835.30
554.84	45038.93
555.00	44683.17
555.17	44512.31
555.33	44809.56
555.50	44657.42
555.67	44992.12
555.83	45268.30
556.00	44928.92
556.16	45485.97
556.33	45127.87
556.50	45041.27
556.66	45127.87
556.83	45331.50
556.99	45769.18
557.16	45649.81
557.32	45579.59
557.49	45546.82
557.65	44821.26
557.82	45406.39
557.98	45324.47
558.15	45364.26
558.32	45500.01
558.48	45059.99
558.65	45347.88
558.81	45694.28
558.98	45399.37
559.14	45553.85
559.31	45567.89
559.47	46073.45
559.64	46036.00
559.80	45574.91
559.97	45958.76
560.13	45708.32
560.30	45752.79
560.46	45954.08
560.63	45708.32
560.79	46028.98
560.96	45769.18
561.12	46288.77
561.29	45933.01
561.45	45808.96
561.61	46054.72
561.78	45865.14
561.94	46031.32
562.11	45958.76
562.27	45998.55
562.44	45956.42
562.60	46218.56
562.77	46419.84
562.93	46000.89
563.10	46576.66
563.26	45954.08
563.42	46923.06
563.59	45813.65
563.75	46330.90
563.92	46110.89
564.08	46052.38
564.24	46309.84
564.41	46389.42
564.57	46342.61
564.74	46028.98
564.90	46094.51
565.07	46181.11
565.23	46265.37
565.39	46347.29
565.56	46499.42
565.72	46190.47
565.88	46595.38
566.05	46284.09
566.21	46361.33
566.38	46131.96
566.54	46927.74
566.70	46326.22
566.87	46487.72
567.03	46583.68
567.19	46873.91
567.36	47150.09
567.52	46635.17
567.68	46918.38
567.85	46909.02
568.01	46674.96
568.17	46473.68
568.34	46852.84
568.50	46738.16
568.66	46784.97
568.83	46593.04
568.99	46784.97
569.15	46885.61
569.32	47026.04
569.48	46382.40
569.64	47112.64
569.81	46714.75
569.97	46894.97
570.13	46717.09
570.30	46630.49
570.46	46754.54
570.62	47145.41
570.78	46990.94
570.95	46674.96
571.11	47412.23
571.27	46733.48
571.43	47042.43
571.60	47019.02
571.76	46387.08
571.92	46602.41
572.09	46494.74
572.25	46960.51
572.41	47091.58
572.57	47023.70
572.74	47330.31
572.90	46878.59
573.06	47318.61
573.22	47487.13
573.38	47395.85
573.55	47070.51
573.71	47655.65
573.87	46944.12
574.03	47051.79
574.20	47217.97
574.36	47657.99
574.52	47459.04
574.68	47370.10
574.84	47103.28
575.01	47430.96
575.17	47629.90
575.33	47665.01
575.49	46775.61
575.65	47178.18
575.82	47285.84
575.98	47248.39
576.14	47309.25
576.30	47416.91
576.46	47384.15
576.62	47519.90
576.79	47452.02
576.95	47377.12
577.11	46904.34
577.27	46988.60
577.43	47295.21
577.59	46834.12
577.75	47136.05
577.92	47079.88
578.08	46880.93
578.24	46939.44
578.40	47426.28
578.56	47875.66
578.72	47796.08
578.88	47395.85
579.04	47421.59
579.21	47447.34
579.37	47356.06
579.53	47145.41
579.69	47442.66
579.85	47456.70
580.01	47407.55
580.17	47356.06
580.33	47557.35
580.49	47648.63
580.65	47327.97
580.82	47220.31
580.98	47047.11
581.14	46979.23
581.30	47456.70
581.46	47246.05
581.62	47327.97
581.78	47529.26
581.94	47889.70
582.10	47159.45
582.26	47402.87
582.42	47297.55
582.58	47466.06
582.74	47625.22
582.90	47433.30
583.06	47599.47
583.22	47395.85
583.38	47878.00
583.54	47468.40
583.70	48027.79
583.86	47395.85
584.02	47435.64
584.18	48083.97
584.34	47782.04
584.50	48009.07
584.66	47576.07
584.82	47917.79
584.98	48004.39
585.14	48016.09
585.30	47166.48
585.46	47908.43
585.62	47604.16
585.78	47931.83
585.94	47641.60
586.10	47522.24
586.26	47358.40
586.42	47578.41
586.58	47789.06
586.74	47419.25
586.90	47203.92
587.06	47756.29
587.22	47452.02
587.38	47672.03
587.54	47964.60
587.70	48147.16
587.86	48142.48
588.02	47576.07
588.18	47430.96
588.34	47526.92
588.49	47531.60
588.65	47667.35
588.81	47765.65
588.97	47613.52
589.13	48037.16
589.29	47693.10
589.45	47529.26
589.61	47779.70
589.77	48081.63
589.93	47679.05
590.08	48350.79
590.24	48390.58
590.40	48474.84
590.56	48212.70
590.72	48081.63
590.88	47597.13
591.04	47753.95
591.20	48332.06
591.35	47934.17
591.51	48236.10
591.67	48409.30
591.83	48233.76
591.99	48528.67
592.15	48147.16
592.31	48041.84
592.46	48083.97
592.62	48030.13
592.78	47938.85
592.94	48584.84
593.10	48535.69
593.26	48446.75
593.41	48011.41
593.57	48245.46
593.73	48193.97
593.89	48676.12
594.05	48601.22
594.20	48648.03
594.36	48622.29
594.52	48533.35
594.68	48596.54
594.84	48296.95
594.99	48395.26
595.15	48327.38
595.31	48711.23
595.47	48390.58
595.62	48528.67
595.78	48193.97
595.94	48325.04
596.10	48275.89
596.25	48341.42
596.41	48666.76
596.57	48428.02
596.73	48456.11
596.88	48645.69
597.04	48421.00
597.20	48633.99
597.36	48360.15
597.51	48250.14
597.67	48098.01
597.83	48421.00
597.99	48573.14
598.14	48505.26
598.30	48603.56
598.46	48203.33
598.61	49081.03
598.77	48830.60
598.93	48678.46
599.09	48442.07
599.24	48797.83
599.40	48137.80
599.56	48898.47
599.71	48350.79
599.87	49188.70
600.03	49085.72
600.18	48804.85
600.34	48683.14
600.50	48582.50
600.65	48725.27
600.81	48982.73
600.97	48355.47
601.12	48502.92
601.28	48699.53
601.44	48423.34
601.59	48467.81
601.75	48294.61
601.91	48584.84
602.06	48442.07
602.22	48617.61
602.37	49120.82
602.53	48589.52
602.69	48732.29
602.84	48168.22
603.00	48547.39
603.16	48903.15
603.31	48580.16
603.47	48877.41
603.62	48488.88
603.78	48596.54
603.94	48645.69
604.09	48687.82
604.25	48741.66
604.40	48552.07
604.56	48423.34
604.71	48919.54
604.87	48355.47
605.03	48425.68
605.18	48690.16
605.34	48741.66
605.49	48449.09
605.65	48832.94
605.80	48549.73
605.96	48119.07
606.12	48397.60
606.27	48587.18
606.43	48552.07
606.58	48296.95
606.74	48432.71
606.89	48397.60
607.05	48800.17
607.20	48367.17
607.36	48303.98
607.51	48385.89
607.67	48364.83
607.82	48411.64
607.98	48168.22
608.13	48280.57
608.29	48582.50
608.44	48299.30
608.60	48114.39
608.75	48470.15
608.91	47817.14
609.06	47948.21
609.22	48596.54
609.37	48421.00
609.53	48521.65
609.68	48203.33
609.84	48236.10
609.99	48430.36
610.15	48135.46
610.30	48378.87
610.46	48449.09
610.61	48095.67
610.76	48245.46
610.92	48219.72
611.07	47775.02
611.23	47716.50
611.38	48535.69
611.54	48123.75
611.69	48200.99
611.84	48636.33
612.00	47959.92
612.15	48004.39
612.31	48498.24
612.46	47660.33
612.62	47955.24
612.77	48055.88
612.92	48474.84
613.08	47952.90
613.23	48142.48
613.39	47990.34
613.54	47709.48
613.69	47861.61
613.85	47653.31
614.00	48011.41
614.15	48041.84
614.31	47824.17
614.46	47742.25
614.62	47683.73
614.77	48215.04
614.92	47899.06
615.08	47962.26
615.23	47889.70
615.38	47927.15
615.54	48011.41
615.69	47861.61
615.84	48051.20
616.00	48308.66
616.15	47604.16
616.30	48062.90
616.46	47903.74
616.61	47608.84
616.76	47880.34
616.92	47749.27
617.07	47922.47
617.22	47622.88
617.37	47540.96
617.53	47613.52
617.68	47452.02
617.83	47381.80
617.99	47735.23
618.14	48135.46
618.29	47454.36
618.45	47613.52
618.60	47419.25
618.75	46967.53
618.90	47178.18
619.06	47702.46
619.21	47529.26
619.36	47702.46
619.51	47159.45
619.67	47255.42
619.82	47461.38
619.97	47791.40
620.12	47494.15
620.28	47646.29
620.43	47608.84
620.58	47545.64
620.73	46937.10
620.89	47543.30
621.04	47395.85
621.19	46773.27
621.34	46625.81
621.49	46672.62
621.65	46827.10
621.80	47400.53
621.95	46953.49
622.10	47234.35
622.25	47072.85
622.41	47283.50
622.56	46953.49
622.71	47215.63
622.86	46953.49
623.01	46663.26
623.16	47192.22
623.32	47004.98
623.47	46674.96
623.62	46904.34
623.77	46990.94
623.92	46808.37
624.07	46873.91
624.23	46993.28
624.38	46923.06
624.53	46536.87
624.68	46843.48
624.83	46625.81
624.98	46347.29
625.13	46480.70
625.29	46560.28
625.44	46588.36
625.59	46635.17
625.74	46611.77
625.89	46218.56
626.04	46342.61
626.19	46398.78
626.34	46440.91
626.49	46415.16
626.65	45832.37
626.80	46340.27
626.95	46143.66
627.10	45600.66
627.25	45846.41
627.40	46274.73
627.55	46600.07
627.70	46457.29
627.85	46263.03
628.00	46354.31
628.15	46337.93
628.30	45928.33
628.45	45546.82
628.60	45507.04
628.76	45916.63
628.91	45921.31
629.06	45888.54
629.21	46291.12
629.36	46391.76
629.51	45830.03
629.66	46082.81
629.81	46103.87
629.96	45595.98
630.11	46263.03
630.26	45581.93
630.41	45588.95
630.56	45897.91
630.71	45830.03
630.86	45556.19
631.01	45357.24
631.16	45743.43
631.31	45759.81
631.46	45586.61
631.61	45687.26
631.76	45794.92
631.91	45560.87
632.06	45900.25
632.21	45895.56
632.36	45556.19
632.51	45294.05
632.66	45345.54
632.81	45537.46
632.96	45544.48
633.10	45645.13
633.25	45282.34
633.40	45813.65
633.55	45654.49
633.70	45123.19
633.85	44942.97
634.00	45205.11
634.15	44830.62
634.30	45432.14
634.45	44996.80
634.60	45469.59
634.75	45387.67
634.90	45074.04
635.05	45078.72
635.19	45020.20
635.34	44690.19
635.49	45118.51
635.64	45361.92
635.79	45291.71
635.94	44634.02
636.09	45153.62
636.24	44910.20
636.39	44849.35
636.53	44973.39
636.68	44594.23
636.83	44172.93
636.98	44971.05
637.13	44432.73
637.28	44470.18
637.43	44680.83
637.57	44718.28
637.72	44315.70
637.87	44694.87
638.02	44392.94
638.17	44605.93
638.32	44224.42
638.46	43686.10
638.61	44491.24
638.76	44732.32
638.91	44467.84
639.06	44222.08
639.20	44194.00
639.35	44191.65
639.50	44034.84
639.65	43861.64
639.80	44292.30
639.94	44385.92
640.09	44383.58
640.24	44406.98
640.39	44222.08
640.54	43812.49
640.68	44030.16
640.83	44257.19
640.98	44353.15
641.13	43515.24
641.27	44435.07
641.42	43833.55
641.57	43641.63
641.72	43948.24
641.86	43849.94
642.01	43959.94
642.16	43683.76
642.31	43426.30
642.45	43927.17
642.60	43414.60
642.75	43559.71
642.90	43936.54
643.04	43491.83
643.19	43187.56
643.34	43438.00
643.48	43379.49
643.63	43428.64
643.78	43653.33
643.93	43707.16
644.07	43257.78
644.22	43253.10
644.37	42841.17
644.51	43660.35
644.66	43416.94
644.81	43489.49
644.95	43374.81
645.10	43316.29
645.25	42843.51
645.39	42735.84
645.54	42726.48
645.69	42983.94
645.83	42990.96
645.98	43075.22
646.13	42873.93
646.27	42878.61
646.42	42803.72
646.57	42670.31
646.71	42892.66
646.86	42981.60
647.00	43311.61
647.15	43122.03
647.30	43213.31
647.44	42815.42
647.59	42887.98
647.74	42878.61
647.88	43098.62
648.03	42653.92
648.17	43239.06
648.32	43480.13
648.47	43295.23
648.61	42213.90
648.76	42932.45
648.90	42494.77
649.05	42700.73
649.20	42550.94
649.34	42401.14
649.49	42951.17
649.63	42808.40
649.78	42342.63
649.92	42801.38
650.07	42852.87
650.21	42674.99
650.36	43014.37
650.51	42485.40
650.65	42719.46
650.80	42885.64
650.94	42719.46
651.09	42368.38
651.23	41942.40
651.38	42148.37
651.52	42068.79
651.67	42124.96
651.81	42258.37
651.96	42415.19
652.10	41769.20
652.25	41773.88
652.39	42408.17
652.54	42174.11
652.68	41778.56
652.83	41865.16
652.97	42738.18
653.12	42270.08
653.26	41874.52
653.41	41970.49
653.55	42272.42
653.70	42277.10
653.84	41790.27
653.99	42384.76
654.13	42356.67
654.27	41572.60
654.42	42092.19
654.56	41825.37
654.71	42206.88
654.85	41940.06
655.00	41895.59
655.14	41677.92
655.29	41982.19
655.43	42225.60
655.57	41947.08
655.72	41453.23
655.86	41270.67
656.01	41109.17
656.15	41193.43
656.30	41769.20
656.44	41771.54
656.58	41495.36
656.73	41729.41
656.87	40952.35
657.01	41207.47
657.16	41443.87
657.30	41443.87
657.45	40872.78
657.59	41104.49
657.73	40594.25
657.88	41415.78
658.02	41420.46
658.16	41425.14
658.31	41319.82
658.45	40697.24
658.60	40882.14
658.74	40699.58
658.88	41383.01
659.03	41177.04
659.17	40552.12
659.31	40589.57
659.46	40687.87
659.60	40591.91
659.74	40722.98
659.89	40172.96
660.03	40636.38
660.17	40634.04
660.32	40257.21
660.46	40388.28
660.60	40119.12
660.74	40456.16
660.89	40535.74
661.03	40039.54
661.17	39981.03
661.32	39868.69
661.46	40327.43
661.60	39915.50
661.74	39522.29
661.89	39847.62
662.03	39742.30
662.17	39461.43
662.31	39522.29
662.46	39976.35
662.60	40011.46
662.74	39297.59
662.88	39428.66
663.03	39227.38
663.17	39526.97
663.31	38988.64
663.45	39082.27
663.60	39367.81
663.74	39653.36
663.88	39145.46
664.02	38932.47
664.17	39477.82
664.31	38988.64
664.45	38735.87
664.59	38852.89
664.73	38656.29
664.88	38660.97
665.02	38883.32
665.16	38686.71
665.30	38602.46
665.44	38600.12
665.59	38354.36
665.73	38490.11
665.87	38270.10
666.01	38649.27
666.15	38670.33
666.29	38190.52
666.44	38113.28
666.58	37900.29
666.72	37949.45
666.86	38115.62
667.00	38143.71
667.14	37886.25
667.28	38064.13
667.43	37673.26
667.57	37916.68
667.71	37694.33
667.85	37907.32
667.99	38029.02
668.13	37598.37
668.27	37631.13
668.41	37500.06
668.56	37249.63
668.70	36685.56
668.84	36723.01
668.98	36947.70
669.12	37383.04
669.26	36732.37
669.40	37076.43
669.54	37308.14
669.68	36933.65
669.82	37020.25
669.96	36821.31
670.10	36517.04
670.25	36610.66
670.39	36605.98
670.53	36580.23
670.67	36388.31
670.81	36404.69
670.95	36435.12
671.09	36126.17
671.23	36077.02
671.37	36077.02
671.51	35793.81
671.65	36067.66
671.79	35971.69
671.93	36055.95
672.07	36158.94
672.21	36072.34
672.35	35580.82
672.49	35292.94
672.63	35627.63
672.77	35040.16
672.91	35688.49
673.05	35084.63
673.19	35295.28
673.33	34740.57
673.47	35005.05
673.61	34754.61
673.75	34747.59
673.89	35122.08
674.03	34752.27
674.17	34476.09
674.31	34649.29
674.45	34258.42
674.59	34235.02
674.73	34511.20
674.87	34047.77
675.01	33823.08
675.15	33476.68
675.29	33684.99
675.43	33574.98
675.56	33933.09
675.70	33762.23
675.84	33816.06
675.98	32840.06
676.12	33935.43
676.26	33474.34
676.40	33273.06
676.54	33034.32
676.68	32968.79
676.82	32374.29
676.96	33270.72
677.10	33008.58
677.23	32526.42
677.37	32582.60
677.51	32842.40
677.65	32416.42
677.79	32147.26
677.93	32196.41
678.07	32177.68
678.21	31920.23
678.34	31611.28
678.48	31615.96
678.62	31819.58
678.76	31594.89
678.90	31622.98
679.04	31477.86
679.18	32060.66
679.31	30895.07
679.45	31482.55
679.59	30852.94
679.73	31037.84
679.87	30806.13
680.00	30799.11
680.14	30433.99
680.28	30890.39
680.42	30394.20
680.56	30476.12
680.70	30183.55
680.83	30300.58
680.97	30181.21
681.11	29951.84
681.25	29572.67
681.39	29453.30
681.52	29596.07
681.66	29495.43
681.80	28884.55
681.94	29137.33
682.07	28999.24
682.21	29277.76
682.35	29041.37
682.49	29219.25
682.62	29092.86
682.76	28999.24
682.90	28910.30
683.04	28737.10
683.17	28629.43
683.31	28170.69
683.45	28133.24
683.59	28325.16
683.72	27896.85
683.86	28067.70
684.00	28006.85
684.13	27777.48
684.27	27674.49
684.41	27501.29
684.55	27587.89
684.68	27281.28
684.82	27208.73
684.96	27171.28
685.09	27201.71
685.23	26979.36
685.37	27243.84
685.50	27777.48
685.64	26909.14
685.78	26663.38
685.91	26583.80
686.05	26033.78
686.19	26216.34
686.32	26181.23
686.46	25895.69
686.60	26082.93
686.73	26087.61
686.87	26010.37
687.01	25837.17
687.14	26043.14
687.28	25689.72
687.42	25759.94
687.55	25509.50
687.69	25348.00
687.82	25123.31
687.96	25111.61
688.10	25209.91
688.23	24816.70
688.37	25160.76
688.50	25167.78
688.64	25010.96
688.78	24687.97
688.91	24699.67
689.05	24386.04
689.18	24027.94
689.32	23775.16
689.46	24130.92
689.59	24175.39
689.73	24381.36
689.86	24191.78
690.00	24273.70
690.13	23800.91
690.27	23580.90
690.41	23658.14
690.54	23082.36
690.68	23396.00
690.81	23178.33
690.95	23065.98
691.08	23337.48
691.22	22892.78
691.35	22661.07
691.49	22909.16
691.62	22787.46
691.76	22513.61
691.89	22389.56
692.03	22010.40
692.16	22129.77
692.30	22302.96
692.43	22064.23
692.57	21731.87
692.70	21912.10
692.84	21443.99
692.97	21558.67
693.11	21453.35
693.24	21474.42
693.38	21289.51
693.51	20964.18
693.65	21106.95
693.78	20952.48
693.92	21076.52
694.05	20961.84
694.19	20814.38
694.32	20893.96
694.45	20856.51
694.59	20893.96
694.72	20793.32
694.86	20477.35
694.99	20084.14
695.13	20187.12
695.26	20074.77
695.39	19850.08
695.53	20100.52
695.66	19983.49
695.80	19953.07
695.93	19653.48
696.07	19690.93
696.20	19297.72
696.33	19295.38
696.47	18995.79
696.60	19037.92
696.73	19499.00
696.87	19129.20
697.00	19330.48
697.14	19096.43
697.27	18647.05
697.40	18740.67
697.54	18778.12
697.67	18644.71
697.80	18717.26
697.94	18160.22
698.07	18050.21
698.21	18164.90
698.34	18071.28
698.47	18249.16
698.61	17539.97
698.74	17530.61
698.87	17710.83
699.01	17628.92
699.14	17301.24
699.27	17542.32
699.40	17436.99
699.54	17202.94
699.67	17338.69
699.80	17202.94
699.94	16858.88
700.07	17109.32
700.20	16903.35
700.34	16678.66
700.47	16901.01
700.60	17071.87
700.73	16954.84
700.87	16858.88
701.00	16395.45
701.13	16507.80
701.26	16142.67
701.40	16102.89
701.53	16100.55
701.66	16273.74
701.79	15995.22
701.93	15662.86
702.06	15878.19
702.19	15674.57
702.32	16194.17
702.46	15889.90
702.59	15819.68
702.72	15625.42
702.85	15534.14
702.99	15276.68
703.12	15447.54
703.25	15276.68
703.38	15243.91
703.51	15384.34
703.65	14871.76
703.78	14897.51
703.91	14607.28
704.04	14333.44
704.17	14719.63
704.31	14684.52
704.44	14527.71
704.57	14558.13
704.70	14347.48
704.83	14317.06
704.96	14026.83
705.10	14197.69
705.23	13907.46
>>>>>End Processed Spectral Data<<<<<
