SpectraSuite Data File
++++++++++++++++++++++++++++++++++++
Date: Fri Oct 25 11:33:43 EDT 2013
User: price-jones
Dark Spectrum Present: No
Reference Spectrum Present: No
Number of Sampled Component Spectra: 1
Spectrometers: USB2+H05261
Integration Time (usec): 100000 (USB2+H05261)
Spectra Averaged: 1 (USB2+H05261)
Boxcar Smoothing: 0 (USB2+H05261)
Correct for Electrical Dark: No (USB2+H05261)
Strobe/Lamp Enabled: No (USB2+H05261)
Correct for Detector Non-linearity: No (USB2+H05261)
Correct for Stray Light: No (USB2+H05261)
Number of Pixels in Processed Spectrum: 2048
>>>>>Begin Processed Spectral Data<<<<<
365.73	278.52
365.92	278.52
366.12	278.52
366.32	159.16
366.52	170.86
366.72	222.35
366.91	168.52
367.11	196.60
367.31	135.75
367.51	163.84
367.70	168.52
367.90	229.37
368.10	191.92
368.30	198.95
368.49	217.67
368.69	182.56
368.89	173.20
369.09	177.88
369.28	175.54
369.48	259.80
369.68	259.80
369.87	220.01
370.07	266.82
370.27	294.91
370.47	346.40
370.66	479.81
370.86	465.77
371.06	465.77
371.25	566.41
371.45	540.66
371.65	528.96
371.84	510.24
372.04	496.19
372.24	573.43
372.44	543.00
372.63	650.67
372.83	528.96
373.03	648.33
373.22	564.07
373.42	650.67
373.62	692.80
373.81	547.69
374.01	582.79
374.21	622.58
374.40	617.90
374.60	643.65
374.79	681.10
374.99	601.52
375.19	667.05
375.38	744.29
375.58	620.24
375.78	699.82
375.97	695.14
376.17	725.57
376.37	657.69
376.56	739.61
376.76	692.80
376.95	695.14
377.15	645.99
377.35	739.61
377.54	566.41
377.74	746.63
377.93	706.84
378.13	657.69
378.33	704.50
378.52	739.61
378.72	746.63
378.91	650.67
379.11	667.05
379.31	723.23
379.50	662.37
379.70	725.57
379.89	667.05
380.09	744.29
380.28	784.08
380.48	678.76
380.68	681.10
380.87	718.54
381.07	732.59
381.26	802.80
381.46	816.85
381.65	744.29
381.85	692.80
382.04	695.14
382.24	800.46
382.43	760.67
382.63	763.01
382.83	814.51
383.02	741.95
383.22	821.53
383.41	915.15
383.61	849.61
383.80	763.01
384.00	760.67
384.19	770.04
384.39	748.97
384.58	873.02
384.78	812.17
384.97	835.57
385.17	854.30
385.36	788.76
385.56	847.27
385.75	767.70
385.95	800.46
386.14	807.48
386.34	898.77
386.53	840.25
386.72	873.02
386.92	889.40
387.11	882.38
387.31	884.72
387.50	889.40
387.70	873.02
387.89	877.70
388.09	903.45
388.28	816.85
388.48	947.92
388.67	971.32
388.86	950.26
389.06	922.17
389.25	922.17
389.45	894.08
389.64	858.98
389.84	929.19
390.03	877.70
390.22	990.05
390.42	1001.75
390.61	1025.15
390.81	973.66
391.00	1039.20
391.19	938.55
391.39	1013.45
391.58	978.34
391.78	945.58
391.97	1020.47
392.16	978.34
392.36	976.00
392.55	1036.86
392.75	1039.20
392.94	1086.01
393.13	1163.25
393.33	1104.73
393.52	1086.01
393.71	1090.69
393.91	1053.24
394.10	1102.39
394.29	1210.06
394.49	1198.35
394.68	1158.57
394.88	1071.97
395.07	1153.88
395.26	1142.18
395.46	1146.86
395.65	1144.52
395.84	1142.18
396.04	1210.06
396.23	1181.97
396.42	1177.29
396.62	1277.93
396.81	1240.48
397.00	1132.82
397.19	1214.74
397.39	1263.89
397.58	1160.91
397.77	1210.06
397.97	1214.74
398.16	1291.98
398.35	1277.93
398.55	1226.44
398.74	1280.27
398.93	1352.83
399.12	1322.40
399.32	1352.83
399.51	1345.81
399.70	1252.19
399.90	1301.34
400.09	1299.00
400.28	1329.42
400.47	1409.00
400.67	1423.05
400.86	1369.21
401.05	1432.41
401.24	1493.26
401.44	1572.84
401.63	1416.02
401.82	1504.96
402.01	1345.81
402.21	1462.83
402.40	1526.03
402.59	1427.73
402.78	1507.30
402.97	1437.09
403.17	1556.46
403.36	1509.65
403.55	1488.58
403.74	1631.35
403.93	1619.65
404.13	1617.31
404.32	1626.67
404.51	1598.59
404.70	1701.57
404.89	1706.25
405.09	1689.87
405.28	1661.78
405.47	1694.55
405.66	1708.59
405.85	1736.68
406.05	1727.32
406.24	1729.66
406.43	1689.87
406.62	1755.40
406.81	1818.60
407.00	1802.21
407.20	1682.85
407.39	1860.73
407.58	1914.56
407.77	1839.66
407.96	1921.58
408.15	1996.48
408.34	1987.11
408.54	1909.88
408.73	1923.92
408.92	1900.52
409.11	1998.82
409.30	1977.75
409.49	1963.71
409.68	2001.16
409.87	2101.80
410.07	2017.54
410.26	2038.61
410.45	2094.78
410.64	2092.44
410.83	2143.93
411.02	2150.95
411.21	2134.57
411.40	2218.83
411.59	2237.55
411.78	2221.17
411.98	2087.76
412.17	2153.29
412.36	2279.68
412.55	2317.13
412.74	2375.64
412.93	2359.26
413.12	2328.83
413.31	2401.39
413.50	2389.69
413.69	2385.01
413.88	2401.39
414.07	2462.24
414.26	2555.86
414.45	2555.86
414.64	2548.84
414.83	2527.78
415.02	2656.51
415.22	2633.10
415.41	2747.79
415.60	2588.63
415.79	2743.11
415.98	2726.72
416.17	2848.43
416.36	2754.81
416.55	2700.98
416.74	2750.13
416.93	2825.03
417.12	2853.11
417.31	2935.03
417.50	2825.03
417.69	2981.84
417.88	2878.86
418.07	2960.78
418.26	2967.80
418.45	2967.80
418.64	3026.31
418.83	2867.16
419.02	3000.57
419.21	3232.28
419.39	2984.18
419.58	3112.91
419.77	3190.15
419.96	3091.85
420.15	3194.83
420.34	3087.17
420.53	3096.53
420.72	3335.26
420.91	3229.94
421.10	3187.81
421.29	3307.18
421.48	3286.11
421.67	3164.40
421.86	3342.28
422.05	3445.27
422.24	3227.60
422.43	3384.41
422.61	3325.90
422.80	3368.03
422.99	3480.38
423.18	3475.70
423.37	3485.06
423.56	3529.53
423.75	3393.78
423.94	3351.65
424.13	3105.89
424.32	3141.00
424.50	3349.31
424.69	3494.42
424.88	3482.72
425.07	3389.10
425.26	3440.59
425.45	3384.41
425.64	3454.63
425.83	3428.88
426.01	3475.70
426.20	3424.20
426.39	3442.93
426.58	3508.46
426.77	3513.14
426.96	3552.93
427.15	3552.93
427.33	3578.68
427.52	3550.59
427.71	3583.36
427.90	3681.66
428.09	3660.60
428.28	3639.53
428.46	3658.26
428.65	3716.77
428.84	3794.01
429.03	3934.44
429.22	3585.70
429.40	3810.39
429.59	3688.68
429.78	3674.64
429.97	3684.00
430.16	3735.50
430.34	3864.22
430.53	3829.12
430.72	3868.91
430.91	3878.27
431.10	3843.16
431.28	3873.59
431.47	3932.10
431.66	4119.34
431.85	3950.82
432.03	3932.10
432.22	4030.40
432.41	4042.11
432.60	4049.13
432.79	3995.29
432.97	4166.15
433.16	4131.05
433.35	4102.96
433.54	4135.73
433.72	4245.73
433.91	4217.65
434.10	4285.52
434.28	4109.98
434.47	4086.58
434.66	4208.28
434.85	4409.57
435.03	4325.31
435.22	4327.65
435.41	4271.48
435.59	4299.56
435.78	4341.69
435.97	4374.46
436.16	4505.53
436.34	4348.72
436.53	4437.66
436.72	4498.51
436.90	4421.27
437.09	4472.76
437.28	4428.29
437.46	4395.53
437.65	4435.32
437.84	4582.77
438.02	4554.68
438.21	4561.70
438.40	4545.32
438.58	4739.58
438.77	4755.97
438.96	4641.28
439.14	4770.01
439.33	4830.87
439.52	4873.00
439.70	4924.49
439.89	5020.45
440.08	4961.94
440.26	4971.30
440.45	4961.94
440.63	5006.41
440.82	5165.56
441.01	5064.92
441.19	4997.04
441.38	5163.22
441.57	5104.71
441.75	5226.42
441.94	5446.43
442.12	5476.85
442.31	5474.51
442.50	5511.96
442.68	5315.36
442.87	5373.87
443.05	5483.88
443.24	5458.13
443.43	5561.11
443.61	5617.29
443.80	5900.49
443.98	5533.03
444.17	5200.67
444.35	5530.69
444.54	5593.88
444.73	5612.60
444.91	5638.35
445.10	5694.52
445.28	5640.69
445.47	5530.69
445.65	5671.12
445.84	5638.35
446.02	5799.85
446.21	5741.33
446.39	5785.80
446.58	5607.92
446.77	5636.01
446.95	5561.11
447.14	5806.87
447.32	5816.23
447.51	5776.44
447.69	5631.33
447.88	5795.17
448.06	5636.01
448.25	5795.17
448.43	5818.57
448.62	5865.38
448.80	5816.23
448.99	5713.25
449.17	5872.40
449.36	5879.43
449.54	5846.66
449.73	6057.31
449.91	6052.63
450.10	6083.05
450.28	6190.72
450.46	6176.67
450.65	6064.33
450.83	6073.69
451.02	6012.84
451.20	6033.90
451.39	6195.40
451.57	6167.31
451.76	6258.59
451.94	6279.66
452.13	6223.48
452.31	6298.38
452.49	6300.72
452.68	6296.04
452.86	6235.19
453.05	6338.17
453.23	6356.90
453.42	6396.68
453.60	6361.58
453.78	6621.38
453.97	6487.96
454.15	6370.94
454.34	6368.60
454.52	6581.59
454.70	6626.06
454.89	6485.62
455.07	6513.71
455.26	6630.74
455.44	6850.75
455.62	6745.42
455.81	6691.59
455.99	6771.17
456.17	6693.93
456.36	6761.81
456.54	6789.89
456.73	6843.73
456.91	6965.43
457.09	7140.97
457.28	7045.01
457.46	6820.32
457.64	7007.56
457.83	6967.77
458.01	6993.52
458.19	7115.23
458.38	7145.66
458.56	7155.02
458.74	7283.75
458.93	7274.38
459.11	7250.98
459.29	7253.32
459.48	7283.75
459.66	7260.34
459.84	7204.17
460.03	7419.50
460.21	7389.07
460.39	7269.70
460.57	7302.47
460.76	7311.83
460.94	7351.62
461.12	7445.24
461.31	7545.89
461.49	7428.86
461.67	7456.95
461.85	7672.28
462.04	7527.16
462.22	7988.25
462.40	7955.48
462.59	7686.32
462.77	7826.75
462.95	7779.94
463.13	7789.30
463.32	7793.98
463.50	7941.44
463.68	7955.48
463.86	7747.17
464.05	7969.52
464.23	7932.08
464.41	8070.17
464.59	7737.81
464.78	8205.92
464.96	7955.48
465.14	8042.08
465.32	8175.49
465.50	8166.13
465.69	8224.64
465.87	8297.20
466.05	7929.74
466.23	8084.21
466.41	8023.36
466.60	8393.16
466.78	8201.24
466.96	8215.28
467.14	8231.66
467.32	8381.46
467.51	8198.90
467.69	8131.02
467.87	8248.05
468.05	8353.37
468.23	8411.89
468.41	8215.28
468.60	8374.44
468.78	8510.19
468.96	8423.59
469.14	8713.81
469.32	8566.36
469.50	8505.51
469.69	8547.64
469.87	8631.90
470.05	8739.56
470.23	8816.80
470.41	8777.01
470.59	8879.99
470.77	8929.14
470.95	8683.39
471.14	8968.93
471.32	8594.45
471.50	9076.60
471.68	8961.91
471.86	9125.75
472.04	9165.54
472.22	9423.00
472.40	9207.67
472.58	9125.75
472.77	9235.75
472.95	9364.48
473.13	9631.30
473.31	9441.72
473.49	9343.42
473.67	9364.48
473.85	9738.97
474.03	9774.08
474.21	9666.41
474.39	10010.47
474.57	9891.10
474.75	9886.42
474.93	9872.38
475.12	9652.37
475.30	10003.45
475.48	9790.46
475.66	10143.88
475.84	10024.51
476.02	10031.54
476.20	10377.94
476.38	10366.23
476.56	10560.50
476.74	10537.09
476.92	10544.11
477.10	10457.51
477.28	10654.12
477.46	10693.91
477.64	10834.34
477.82	10609.65
478.00	11129.25
478.18	11126.91
478.36	11250.96
478.54	11199.46
478.72	11386.71
478.90	11452.24
479.08	11756.51
479.26	11609.06
479.44	11674.59
479.62	11793.96
479.80	11829.07
479.98	11796.30
480.16	12154.40
480.34	11824.39
480.52	12189.51
480.70	12196.53
480.88	12191.85
481.06	12486.76
481.24	12465.69
481.41	12533.57
481.59	12620.17
481.77	13076.57
481.95	13242.75
482.13	13280.20
482.31	12896.35
482.49	13310.63
482.67	13011.04
482.85	13385.52
483.03	13635.96
483.21	13371.48
483.39	13865.33
483.57	13818.52
483.74	13905.12
483.92	13987.04
484.10	13671.07
484.28	14118.11
484.46	14497.28
484.64	14677.50
484.82	14541.75
485.00	14654.09
485.18	14588.56
485.35	15143.27
485.53	14998.15
485.71	14937.30
485.89	15587.97
486.07	15421.79
486.25	15557.54
486.43	15538.82
486.61	15789.25
486.78	15648.82
486.96	15866.49
487.14	16395.45
487.32	16259.70
487.50	16259.70
487.68	16355.66
487.85	16498.44
488.03	16723.13
488.21	17242.73
488.39	16819.09
488.57	17158.47
488.75	17202.94
488.92	17507.21
489.10	17249.75
489.28	17586.79
489.46	17657.00
489.64	17762.33
489.81	18143.83
489.99	17951.91
490.17	18155.54
490.35	18579.17
490.53	18321.71
490.70	18387.25
490.88	18792.16
491.06	18466.83
491.24	18881.10
491.41	19098.77
491.59	19035.58
491.77	18977.06
491.95	19482.62
492.13	19658.16
492.30	19484.96
492.48	19421.77
492.66	19672.20
492.84	20238.61
493.01	20065.41
493.19	19955.41
493.37	20348.62
493.54	20233.93
493.72	20842.47
493.90	20585.01
494.08	20753.53
494.25	21008.65
494.43	20730.12
494.61	21006.31
494.79	21032.05
494.96	21539.95
495.14	21376.11
495.32	21689.74
495.49	21530.59
495.67	21830.18
495.85	21776.34
496.02	22010.40
496.20	22300.62
496.38	22429.35
496.55	22305.31
496.73	22698.52
496.91	22813.20
497.09	22551.06
497.26	23297.69
497.44	22656.39
497.62	23019.17
497.79	23342.16
497.97	23140.88
498.14	23637.07
498.32	23419.40
498.50	23510.68
498.67	23800.91
498.85	23606.64
499.03	23824.31
499.20	24109.86
499.38	24140.29
499.56	24339.23
499.73	24283.06
499.91	24390.72
500.08	24919.68
500.26	24748.82
500.44	24596.69
500.61	24606.05
500.79	24765.21
500.97	24821.38
501.14	25053.09
501.32	25425.24
501.49	25113.95
501.67	25266.08
501.84	25434.60
502.02	25319.92
502.20	25539.93
502.37	25586.74
502.55	25844.20
502.72	25855.90
502.90	26192.94
503.07	26115.70
503.25	26036.12
503.43	25914.41
503.60	26457.42
503.78	26469.12
503.95	26518.27
504.13	26539.33
504.30	26738.28
504.48	26614.23
504.65	26426.99
504.83	27133.83
505.01	27178.30
505.18	26836.58
505.36	27323.41
505.53	27117.45
505.71	27543.42
505.88	27716.62
506.06	27559.81
506.23	27695.56
506.41	27608.96
506.58	27704.92
506.76	27676.83
506.93	27740.03
507.11	27737.69
507.28	27861.74
507.46	28098.13
507.63	28072.39
507.81	28727.74
507.98	28147.28
508.16	28657.52
508.33	28259.63
508.50	28622.41
508.68	28570.92
508.85	28793.27
509.03	28627.09
509.20	29048.39
509.38	29216.91
509.55	29549.26
509.73	29139.67
509.90	29252.02
510.08	29312.87
510.25	29497.77
510.42	29619.48
510.60	29677.99
510.77	29729.48
510.95	29998.65
511.12	29776.30
511.30	29605.44
511.47	30087.59
511.64	30089.93
511.82	30323.98
511.99	30401.22
512.17	30286.53
512.34	30260.79
512.51	30597.82
512.69	30831.88
512.86	30738.26
513.04	31269.56
513.21	30780.39
513.38	30986.35
513.56	30969.97
513.73	31288.28
513.90	31260.20
514.08	31047.21
514.25	31534.04
514.43	31321.05
514.60	31182.96
514.77	31653.40
514.95	31894.48
515.12	31527.02
515.29	31992.78
515.47	31721.28
515.64	31700.22
515.81	32086.40
515.99	32273.65
516.16	32477.27
516.33	32163.64
516.51	32390.67
516.68	32126.19
516.85	32320.46
517.03	32418.76
517.20	32706.65
517.37	32699.62
517.54	33060.07
517.72	33390.08
517.89	33081.13
518.06	33043.68
518.24	32905.59
518.41	33144.33
518.58	33390.08
518.75	33013.26
518.93	33242.63
519.10	33167.73
519.27	33333.91
519.45	33439.23
519.62	33577.33
519.79	33682.65
519.96	33734.14
520.14	33659.24
520.31	34127.35
520.48	33907.34
520.65	33708.40
520.83	34522.90
521.00	34579.07
521.17	33766.91
521.34	34389.49
521.52	34398.85
521.69	34588.44
521.86	34586.10
522.03	34635.25
522.20	34621.20
522.38	35051.86
522.55	34958.24
522.72	34925.47
522.89	34895.05
523.07	35833.60
523.24	35281.24
523.41	35468.48
523.58	35154.85
523.75	35903.82
523.92	35405.28
524.10	35208.68
524.27	35290.60
524.44	35786.79
524.61	36044.25
524.78	35814.88
524.96	35880.41
525.13	36098.08
525.30	36051.27
525.47	36032.55
525.64	36184.68
525.81	36107.44
525.98	36273.62
526.16	36388.31
526.33	36168.30
526.50	36430.44
526.67	36510.02
526.84	36629.38
527.01	36474.91
527.18	36252.56
527.36	36905.57
527.53	36807.26
527.70	37123.24
527.87	36975.78
528.04	36994.51
528.21	36781.52
528.38	36872.80
528.55	37249.63
528.72	37212.18
528.89	37153.66
529.07	36744.07
529.24	36952.38
529.41	37668.58
529.58	37001.53
529.75	37184.09
529.92	37471.98
530.09	37329.20
530.26	37563.26
530.43	37539.85
530.60	37811.35
530.77	37668.58
530.94	38333.29
531.11	37514.11
531.28	38183.50
531.46	37654.54
531.63	38204.56
531.80	37757.52
531.97	38267.76
532.14	38122.65
532.31	38209.25
532.48	38494.79
532.65	38340.32
532.82	38218.61
532.99	38419.89
533.16	38256.06
533.33	38848.21
533.50	38569.69
533.67	38553.30
533.84	38457.34
534.01	38593.09
534.18	38955.88
534.35	39391.22
534.52	39285.89
534.69	39335.04
534.86	39213.34
535.03	38834.17
535.20	39337.38
535.37	39112.69
535.54	39814.85
535.71	39328.02
535.88	39791.45
536.05	39552.71
536.22	39887.41
536.38	39749.32
536.55	39524.63
536.72	39250.78
536.89	39875.71
537.06	39585.48
537.23	40170.61
537.40	39833.58
537.57	39922.52
537.74	39906.13
537.91	40156.57
538.08	39931.88
538.25	39604.20
538.42	40161.25
538.59	40610.64
538.75	39765.70
538.92	40526.38
539.09	40306.37
539.26	40238.49
539.43	40383.60
539.60	40657.45
539.77	40563.82
539.94	40500.63
540.11	40694.89
540.28	40657.45
540.44	40676.17
540.61	41050.66
540.78	40783.83
540.95	40748.73
541.12	40938.31
541.29	40582.55
541.46	41127.89
541.62	40931.29
541.79	41209.81
541.96	41193.43
542.13	41111.51
542.30	41390.03
542.47	41067.04
542.63	41212.15
542.80	41563.23
542.97	41453.23
543.14	41736.43
543.31	41673.24
543.48	41170.02
543.64	41844.10
543.81	41865.16
543.98	41926.02
544.15	42167.09
544.32	41893.25
544.48	42319.23
544.65	42139.00
544.82	41951.76
544.99	42157.73
545.16	42344.97
545.32	42003.25
545.49	42274.76
545.66	42726.48
545.83	43033.09
546.00	42663.28
546.16	42520.51
546.33	42321.57
546.50	42457.32
546.67	42487.74
546.83	41904.95
547.00	42820.10
547.17	42754.57
547.34	42829.46
547.50	42878.61
547.67	42756.91
547.84	42916.06
548.00	43005.00
548.17	43353.74
548.34	43428.64
548.51	43667.37
548.67	43016.71
548.84	43166.50
549.01	43328.00
549.18	43248.42
549.34	43285.87
549.51	43344.38
549.68	43484.81
549.84	43332.68
550.01	43248.42
550.18	43241.40
550.34	43667.37
550.51	43594.82
550.68	43320.98
550.84	43232.04
551.01	43681.42
551.18	43510.56
551.34	43430.98
551.51	43882.70
551.68	43426.30
551.84	43526.94
552.01	43840.57
552.18	43880.36
552.34	43761.00
552.51	43957.60
552.68	43718.87
552.84	43735.25
553.01	43882.70
553.18	43775.04
553.34	44137.82
553.51	44083.99
553.67	44238.47
553.84	44435.07
554.01	44168.25
554.17	44332.09
554.34	44444.43
554.51	44570.82
554.67	44804.88
554.84	44542.74
555.00	44259.53
555.17	44385.92
555.33	44839.98
555.50	44285.28
555.67	44814.24
555.83	44788.49
556.00	44884.45
556.16	45441.50
556.33	44346.13
556.50	44849.35
556.66	45137.23
556.83	44619.97
556.99	45155.96
557.16	45301.07
557.32	45130.21
557.49	44921.90
557.65	44746.36
557.82	44842.32
557.98	45102.12
558.15	44706.57
558.32	45235.53
558.48	45242.56
558.65	45102.12
558.81	45375.97
558.98	45275.32
559.14	44573.16
559.31	45141.91
559.47	45511.72
559.64	45034.25
559.80	45514.06
559.97	45649.81
560.13	45357.24
560.30	45340.86
560.46	45727.05
560.63	45715.34
560.79	45563.21
560.96	45659.17
561.12	45317.45
561.29	45598.32
561.45	45921.31
561.61	45556.19
561.78	45432.14
561.94	45418.10
562.11	45890.88
562.27	45645.13
562.44	45177.02
562.60	45888.54
562.77	46045.36
562.93	45364.26
563.10	45614.70
563.26	45556.19
563.42	46181.11
563.59	46169.41
563.75	45918.97
563.92	45698.96
564.08	45518.74
564.24	46162.39
564.41	45879.18
564.57	45783.22
564.74	46122.60
564.90	45823.01
565.07	45691.94
565.23	45883.86
565.39	45834.71
565.56	46094.51
565.72	45769.18
565.88	45935.35
566.05	46251.33
566.21	46061.74
566.38	46003.23
566.54	46047.70
566.70	45970.46
566.87	46181.11
567.03	45911.95
567.19	46487.72
567.36	46447.93
567.52	46181.11
567.68	46581.34
567.85	46230.26
568.01	46649.22
568.17	46150.68
568.34	46436.23
568.50	46527.51
568.66	46061.74
568.83	46043.02
568.99	46368.35
569.15	46370.69
569.32	46616.45
569.48	46071.10
569.64	47105.62
569.81	46476.02
569.97	46223.24
570.13	46642.20
570.30	46302.82
570.46	46408.14
570.62	46579.00
570.78	46543.89
570.95	46124.94
571.11	46487.72
571.27	46808.37
571.43	46389.42
571.60	46831.78
571.76	46696.03
571.92	46791.99
572.09	46742.84
572.25	46649.22
572.41	46855.18
572.57	46801.35
572.74	46574.32
572.90	46583.68
573.06	47040.09
573.22	46508.79
573.38	47147.75
573.55	47547.98
573.71	46899.65
573.87	46777.95
574.03	46749.86
574.20	46976.89
574.36	46773.27
574.52	46845.82
574.68	46555.60
574.84	47110.30
575.01	46707.73
575.17	47098.60
575.33	47061.15
575.49	46754.54
575.65	46649.22
575.82	47217.97
575.98	46937.10
576.14	47150.09
576.30	47203.92
576.46	46976.89
576.62	46906.68
576.79	46976.89
576.95	46508.79
577.11	46740.50
577.27	47068.17
577.43	46951.15
577.59	47000.30
577.75	46986.25
577.92	46555.60
578.08	47054.13
578.24	47133.71
578.40	47164.14
578.56	47192.22
578.72	47250.74
578.88	47508.19
579.04	47070.51
579.21	46923.06
579.37	47042.43
579.53	47423.93
579.69	47016.68
579.85	46855.18
580.01	46845.82
580.17	47285.84
580.33	47194.56
580.49	47253.08
580.65	47243.71
580.82	47147.75
580.98	47168.82
581.14	47159.45
581.30	47028.38
581.46	47079.88
581.62	47327.97
581.78	47051.79
581.94	47491.81
582.10	46864.55
582.26	46986.25
582.42	46859.87
582.58	47194.56
582.74	47299.89
582.90	47122.01
583.06	47278.82
583.22	46937.10
583.38	47594.79
583.54	47208.61
583.70	47501.17
583.86	47119.66
584.02	47201.58
584.18	47421.59
584.34	47405.21
584.50	47545.64
584.66	47276.48
584.82	47353.72
584.98	47777.36
585.14	47365.42
585.30	46981.57
585.46	47246.05
585.62	47253.08
585.78	47388.83
585.94	46822.42
586.10	47187.54
586.26	46923.06
586.42	47187.54
586.58	46986.25
586.74	47365.42
586.90	47119.66
587.06	47224.99
587.22	47351.38
587.38	47253.08
587.54	47475.43
587.70	47948.21
587.86	47842.89
588.02	47208.61
588.18	47557.35
588.34	47290.52
588.49	46925.40
588.65	47393.51
588.81	47564.37
588.97	47838.21
589.13	47288.18
589.29	47466.06
589.45	47494.15
589.61	47517.56
589.77	47786.72
589.93	47491.81
590.08	48025.45
590.24	47913.11
590.40	48018.43
590.56	47948.21
590.72	47957.58
590.88	47484.79
591.04	47487.13
591.20	47814.80
591.35	47791.40
591.51	47840.55
591.67	47601.82
591.83	47667.35
591.99	47899.06
592.15	47798.42
592.31	47765.65
592.46	47735.23
592.62	47861.61
592.78	47730.54
592.94	48442.07
593.10	48147.16
593.26	47817.14
593.41	48346.11
593.57	47672.03
593.73	47856.93
593.89	48481.86
594.05	48257.17
594.20	48306.32
594.36	48165.88
594.52	48189.29
594.68	47863.96
594.84	47941.19
594.99	48463.13
595.15	47908.43
595.31	48200.99
595.47	48112.05
595.62	47941.19
595.78	47870.98
595.94	47861.61
596.10	48119.07
596.25	48294.61
596.41	48128.44
596.57	47784.38
596.73	48456.11
596.88	48041.84
597.04	48275.89
597.20	47999.71
597.36	48076.94
597.51	47971.62
597.67	47959.92
597.83	47964.60
597.99	48133.12
598.14	48224.40
598.30	48032.47
598.46	47997.37
598.61	48322.70
598.77	48222.06
598.93	48341.42
599.09	48154.18
599.24	48409.30
599.40	47969.28
599.56	48348.45
599.71	48294.61
599.87	48903.15
600.03	48488.88
600.18	48350.79
600.34	47889.70
600.50	47969.28
600.65	48334.40
600.81	48439.73
600.97	48589.52
601.12	48587.18
601.28	48463.13
601.44	48392.92
601.59	48261.85
601.75	47999.71
601.91	48374.19
602.06	48322.70
602.22	47969.28
602.37	48266.53
602.53	48612.93
602.69	48200.99
602.84	47992.68
603.00	47821.83
603.16	47988.00
603.31	47962.26
603.47	48240.78
603.62	48065.24
603.78	48491.22
603.94	48058.22
604.09	48229.08
604.25	48308.66
604.40	47952.90
604.56	48430.36
604.71	48435.05
604.87	48456.11
605.03	48030.13
605.18	48009.07
605.34	48205.67
605.49	47920.13
605.65	48140.14
605.80	48133.12
605.96	48257.17
606.12	48025.45
606.27	48397.60
606.43	47648.63
606.58	48479.52
606.74	48425.68
606.89	48378.87
607.05	48039.50
607.20	48161.20
607.36	48289.93
607.51	48107.37
607.67	47917.79
607.82	47995.03
607.98	48100.35
608.13	48051.20
608.29	47807.78
608.44	47962.26
608.60	47601.82
608.75	48179.93
608.91	47632.24
609.06	47632.24
609.22	47948.21
609.37	48247.80
609.53	47896.72
609.68	48350.79
609.84	47885.02
609.99	47863.96
610.15	47945.87
610.30	48020.77
610.46	48041.84
610.61	48196.31
610.76	47966.94
610.92	47739.91
611.07	47494.15
611.23	47943.53
611.38	47812.46
611.54	47737.57
611.69	48081.63
611.84	48156.52
612.00	47627.56
612.15	47679.05
612.31	47842.89
612.46	47243.71
612.62	47646.29
612.77	47440.32
612.92	47863.96
613.08	47594.79
613.23	47498.83
613.39	47496.49
613.54	47391.17
613.69	47760.97
613.85	47126.69
614.00	47941.19
614.15	47236.69
614.31	47433.30
614.46	47702.46
614.62	47562.03
614.77	47297.55
614.92	47590.11
615.08	47152.43
615.23	47636.92
615.38	47283.50
615.54	47234.35
615.69	47641.60
615.84	47508.19
616.00	47826.51
616.15	47620.54
616.30	47746.93
616.46	47449.68
616.61	47243.71
616.76	47196.90
616.92	47192.22
617.07	47412.23
617.22	47496.49
617.37	47182.86
617.53	47105.62
617.68	47096.26
617.83	47496.49
617.99	47676.71
618.14	47496.49
618.29	47288.18
618.45	47210.95
618.60	46756.88
618.75	46834.12
618.90	47023.70
619.06	47428.62
619.21	47040.09
619.36	46969.87
619.51	46773.27
619.67	46742.84
619.82	46990.94
619.97	47159.45
620.12	46775.61
620.28	46897.31
620.43	46740.50
620.58	46761.56
620.73	46754.54
620.89	47147.75
621.04	47257.76
621.19	46681.98
621.34	46571.98
621.49	46335.59
621.65	46892.63
621.80	47154.77
621.95	46445.59
622.10	46574.32
622.25	46630.49
622.41	46623.47
622.56	46855.18
622.71	46841.14
622.86	46667.94
623.01	46920.72
623.16	46775.61
623.32	46316.86
623.47	46700.71
623.62	46546.23
623.77	46232.60
623.92	46588.36
624.07	46387.08
624.23	46508.79
624.38	46539.21
624.53	46312.18
624.68	46288.77
624.83	46443.25
624.98	46548.57
625.13	45909.61
625.29	46234.94
625.44	46375.37
625.59	46192.81
625.74	46017.27
625.89	45876.84
626.04	45902.59
626.19	45902.59
626.34	46330.90
626.49	45792.58
626.65	45893.22
626.80	46146.00
626.95	45773.86
627.10	45776.20
627.25	46103.87
627.40	45621.72
627.55	46150.68
627.70	45940.04
627.85	46141.32
628.00	46773.27
628.15	45598.32
628.30	45483.63
628.45	45635.77
628.60	45439.16
628.76	45319.79
628.91	45677.90
629.06	45415.76
629.21	45478.95
629.36	45277.66
629.51	45062.33
629.66	45823.01
629.81	45808.96
629.96	45844.07
630.11	44994.46
630.26	45668.53
630.41	45446.18
630.56	45427.46
630.71	45560.87
630.86	45572.57
631.01	44900.84
631.16	45345.54
631.31	44942.97
631.46	45111.49
631.61	45502.35
631.76	45371.28
631.91	45153.62
632.06	45502.35
632.21	45303.41
632.36	45422.78
632.51	45174.68
632.66	44966.37
632.81	45294.05
632.96	45141.91
633.10	44835.30
633.25	45045.95
633.40	45120.85
633.55	45254.26
633.70	44664.44
633.85	44910.20
634.00	44456.14
634.15	44715.93
634.30	44783.81
634.45	44835.30
634.60	44823.60
634.75	44797.85
634.90	44708.91
635.05	44907.86
635.19	44870.41
635.34	44421.03
635.49	44397.62
635.64	44645.72
635.79	44722.96
635.94	44769.77
636.09	44694.87
636.24	44648.06
636.39	44889.13
636.53	44704.23
636.68	44119.10
636.83	43786.74
636.98	43817.17
637.13	43973.98
637.28	43997.39
637.43	43688.44
637.57	44294.64
637.72	44053.56
637.87	44289.96
638.02	44406.98
638.17	44023.14
638.32	43997.39
638.46	43800.79
638.61	43613.54
638.76	43761.00
638.91	44119.10
639.06	43934.20
639.20	43913.13
639.35	43826.53
639.50	43690.78
639.65	43929.51
639.80	44142.50
639.94	43833.55
640.09	43929.51
640.24	43873.34
640.39	43522.26
640.54	43704.82
640.68	43650.99
640.83	43718.87
640.98	43597.16
641.13	43438.00
641.27	43976.33
641.42	43821.85
641.57	43700.14
641.72	43168.84
641.86	43339.70
642.01	42876.27
642.16	43405.23
642.31	42939.47
642.45	43601.84
642.60	43199.27
642.75	43697.80
642.90	43269.48
643.04	43524.60
643.19	43103.31
643.34	43161.82
643.48	42796.70
643.63	42965.21
643.78	43210.97
643.93	43257.78
644.07	43302.25
644.22	43473.11
644.37	43178.20
644.51	43578.43
644.66	43203.95
644.81	42862.23
644.95	43241.40
645.10	42880.95
645.25	42625.84
645.39	43012.02
645.54	43175.86
645.69	42817.76
645.83	42532.22
645.98	42260.71
646.13	42902.02
646.27	42572.00
646.42	42684.35
646.57	42553.28
646.71	42693.71
646.86	42721.80
647.00	42529.87
647.15	42836.48
647.30	42696.05
647.44	42728.82
647.59	42611.79
647.74	42323.91
647.88	42398.80
648.03	43007.34
648.17	42518.17
648.32	42674.99
648.47	42817.76
648.61	42143.69
648.76	42588.39
648.90	42185.82
649.05	42604.77
649.20	42471.36
649.34	42469.02
649.49	42403.49
649.63	42473.70
649.78	42555.62
649.92	42117.94
650.07	42937.13
650.21	42658.60
650.36	42328.59
650.51	41921.34
650.65	42141.35
650.80	42178.79
650.94	41893.25
651.09	42223.26
651.23	41677.92
651.38	41867.50
651.52	41680.26
651.67	41734.09
651.81	41996.23
651.96	41890.91
652.10	41570.25
652.25	41647.49
652.39	42181.13
652.54	41951.76
652.68	41434.50
652.83	42066.45
652.97	41724.73
653.12	41610.04
653.26	41448.55
653.41	41745.80
653.55	41663.88
653.70	41961.12
653.84	41787.92
653.99	42232.63
654.13	41326.84
654.27	41514.08
654.42	41448.55
654.56	41504.72
654.71	41581.96
654.85	41785.58
655.00	41553.87
655.14	41507.06
655.29	41469.61
655.43	41642.81
655.57	41392.37
655.72	40809.58
655.86	41373.65
656.01	41031.93
656.15	40903.20
656.30	41078.74
656.44	41591.32
656.58	41488.34
656.73	40968.74
656.87	40727.66
657.01	41034.27
657.16	41340.88
657.30	41123.21
657.45	40825.96
657.59	40795.54
657.73	40648.08
657.88	40762.77
658.02	41017.89
658.16	41509.40
658.31	40692.55
658.45	40676.17
658.60	40348.50
658.74	40467.86
658.88	40423.39
659.03	40236.15
659.17	40402.33
659.31	40144.87
659.46	40048.91
659.60	40044.23
659.74	40425.73
659.89	40046.57
660.03	40126.14
660.17	40168.27
660.32	40098.06
660.46	39959.97
660.60	39784.43
660.74	40105.08
660.89	40065.29
661.03	39494.20
661.17	39622.93
661.32	39658.04
661.46	40086.36
661.60	39742.30
661.74	39768.04
661.89	39454.41
662.03	39847.62
662.17	39201.63
662.31	39243.76
662.46	39501.22
662.60	39164.18
662.74	38962.90
662.88	39124.40
663.03	38883.32
663.17	38796.72
663.31	38897.36
663.45	38553.30
663.60	39299.94
663.74	38965.24
663.88	39117.37
664.02	39019.07
664.17	39147.80
664.31	38766.29
664.45	38731.18
664.59	38483.09
664.73	38553.30
664.88	38621.18
665.02	38019.66
665.16	38078.18
665.30	38127.33
665.44	38487.77
665.59	38057.11
665.73	38195.20
665.87	37745.82
666.01	38195.20
666.15	38396.49
666.29	37694.33
666.44	38239.67
666.58	37787.95
666.72	37682.62
666.86	37790.29
667.00	37488.36
667.14	37790.29
667.28	37778.59
667.43	37439.21
667.57	37975.19
667.71	37818.38
667.85	37471.98
667.99	37460.27
668.13	36896.20
668.27	36706.62
668.41	37076.43
668.56	36409.37
668.70	36882.16
668.84	36453.84
668.98	36510.02
669.12	36966.42
669.26	36912.59
669.40	36563.85
669.54	36631.72
669.68	36657.47
669.82	36708.96
669.96	36254.90
670.10	36407.03
670.25	36002.12
670.39	36418.74
670.53	36561.51
670.67	36315.75
670.81	36432.78
670.95	35887.43
671.09	36020.84
671.23	35536.35
671.37	35702.53
671.51	35840.62
671.65	35379.54
671.79	35498.91
671.93	35761.05
672.07	35559.76
672.21	35314.00
672.35	34991.01
672.49	35318.68
672.63	35112.72
672.77	35056.54
672.91	35309.32
673.05	35026.12
673.19	34843.56
673.33	34796.74
673.47	34368.43
673.61	34485.45
673.75	34562.69
673.89	34604.82
674.03	34220.97
674.17	34206.93
674.31	33792.65
674.45	33900.32
674.59	34260.76
674.73	34132.03
674.87	33448.60
675.01	33429.87
675.15	33324.55
675.29	33336.25
675.43	33680.31
675.56	33647.54
675.70	33621.80
675.84	33242.63
675.98	32275.99
676.12	33191.14
676.26	32980.49
676.40	33174.75
676.54	32634.09
676.68	32807.29
676.82	32184.71
676.96	32348.54
677.10	32432.80
677.23	32385.99
677.37	32388.33
677.51	32320.46
677.65	32126.19
677.79	32236.20
677.93	32053.64
678.07	31828.95
678.21	31992.78
678.34	31248.49
678.48	31470.84
678.62	31339.77
678.76	31461.48
678.90	31208.70
679.04	31484.89
679.18	31204.02
679.31	31157.21
679.45	31215.72
679.59	30675.06
679.73	30991.03
679.87	30497.18
680.00	30754.64
680.14	30487.82
680.28	30506.54
680.42	30279.51
680.56	30471.43
680.70	29811.40
680.83	29780.98
680.97	29591.39
681.11	29874.60
681.25	29797.36
681.39	29350.32
681.52	29635.86
681.66	29296.49
681.80	29097.54
681.94	28723.05
682.07	28638.80
682.21	28357.93
682.35	28594.32
682.49	28629.43
682.62	28407.08
682.76	28613.05
682.90	28327.50
683.04	27931.95
683.17	28297.08
683.31	27786.84
683.45	28032.60
683.59	27962.38
683.72	27789.18
683.86	27400.65
684.00	27728.33
684.13	27695.56
684.27	27388.95
684.41	27505.98
684.55	27477.89
684.68	27131.49
684.82	26731.26
684.96	27094.04
685.09	26735.94
685.23	26972.33
685.37	27161.92
685.50	27206.39
685.64	26899.78
685.78	26410.60
685.91	26726.58
686.05	26162.51
686.19	25638.23
686.32	25937.82
686.46	25528.22
686.60	25392.47
686.73	25696.74
686.87	25680.36
687.01	25743.55
687.14	25694.40
687.28	25352.68
687.42	25656.95
687.55	25055.43
687.69	25336.30
687.82	25174.80
687.96	25078.84
688.10	24807.34
688.23	24702.01
688.37	24858.83
688.50	24966.49
688.64	24664.57
688.78	24503.07
688.91	24442.21
689.05	24114.54
689.18	23887.51
689.32	23414.72
689.46	23768.14
689.59	23627.71
689.73	23669.84
689.86	23798.57
690.00	23529.41
690.13	23496.64
690.27	23506.00
690.41	23761.12
690.54	23482.59
690.68	23122.15
690.81	23115.13
690.95	22417.65
691.08	23070.66
691.22	22548.72
691.35	22726.60
691.49	22689.15
691.62	22632.98
691.76	22354.46
691.89	22104.02
692.03	21944.86
692.16	21972.95
692.30	21991.67
692.43	21940.18
692.57	21413.56
692.70	21537.61
692.84	21729.53
692.97	21523.57
693.11	21106.95
693.24	21184.19
693.38	21022.69
693.51	20870.56
693.65	20891.62
693.78	20985.24
693.92	20655.23
694.05	20255.00
694.19	20659.91
694.32	20882.26
694.45	20900.98
694.59	20580.33
694.72	20627.14
694.86	20369.68
694.99	20098.18
695.13	20093.50
695.26	19681.56
695.39	19562.20
695.53	19793.91
695.66	19728.38
695.80	19555.18
695.93	19728.38
696.07	19101.11
696.20	18946.64
696.33	18845.99
696.47	18988.77
696.60	19101.11
696.73	18869.40
696.87	19339.85
697.00	19180.69
697.14	18686.84
697.27	18443.42
697.40	18401.29
697.54	18176.60
697.67	18555.77
697.80	18272.56
697.94	18382.57
698.07	18012.76
698.21	17921.48
698.34	18073.62
698.47	18052.55
698.61	17476.78
698.74	17329.33
698.87	17401.88
699.01	17415.93
699.14	17668.70
699.27	17392.52
699.40	17596.15
699.54	17170.17
699.67	17200.60
699.80	17226.34
699.94	16868.24
700.07	17186.55
700.20	16835.47
700.34	16805.05
700.47	16662.27
700.60	16919.73
700.73	16688.02
700.87	16460.99
701.00	16177.78
701.13	16095.86
701.26	15953.09
701.40	16332.26
701.53	15950.75
701.66	16128.63
701.79	15978.84
701.93	15541.16
702.06	15499.03
702.19	15840.75
702.32	15396.04
702.46	15669.89
702.59	15623.08
702.72	15704.99
702.85	15543.50
702.99	15417.11
703.12	15260.29
703.25	15075.39
703.38	14960.70
703.51	14892.83
703.65	14979.43
703.78	14602.60
703.91	14675.16
704.04	14780.48
704.17	14115.77
704.31	14567.49
704.44	14600.26
704.57	14340.46
704.70	14211.73
704.83	14061.94
704.96	14160.24
705.10	14188.33
705.23	13792.78
>>>>>End Processed Spectral Data<<<<<
