SpectraSuite Data File
++++++++++++++++++++++++++++++++++++
Date: Fri Oct 25 10:43:31 EDT 2013
User: price-jones
Dark Spectrum Present: No
Reference Spectrum Present: No
Number of Sampled Component Spectra: 1
Spectrometers: USB2+H05261
Integration Time (usec): 100000 (USB2+H05261)
Spectra Averaged: 1 (USB2+H05261)
Boxcar Smoothing: 0 (USB2+H05261)
Correct for Electrical Dark: No (USB2+H05261)
Strobe/Lamp Enabled: No (USB2+H05261)
Correct for Detector Non-linearity: No (USB2+H05261)
Correct for Stray Light: No (USB2+H05261)
Number of Pixels in Processed Spectrum: 2048
>>>>>Begin Processed Spectral Data<<<<<
365.73	177.88
365.92	177.88
366.12	177.88
366.32	0.00
366.52	65.54
366.72	21.06
366.91	23.41
367.11	46.81
367.31	35.11
367.51	21.06
367.70	30.43
367.90	39.79
368.10	46.81
368.30	0.00
368.49	0.00
368.69	53.83
368.89	0.00
369.09	14.04
369.28	46.81
369.48	67.88
369.68	32.77
369.87	145.11
370.07	88.94
370.27	107.66
370.47	180.22
370.66	437.68
370.86	498.53
371.06	442.36
371.25	533.64
371.45	447.04
371.65	444.70
371.84	498.53
372.04	470.45
372.24	477.47
372.44	468.11
372.63	514.92
372.83	498.53
373.03	477.47
373.22	498.53
373.42	521.94
373.62	545.34
373.81	510.24
374.01	571.09
374.21	517.26
374.40	571.09
374.60	528.96
374.79	526.62
374.99	552.37
375.19	543.00
375.38	631.94
375.58	594.50
375.78	552.37
375.97	559.39
376.17	568.75
376.37	592.16
376.56	622.58
376.76	617.90
376.95	503.22
377.15	681.10
377.35	634.29
377.54	599.18
377.74	608.54
377.93	624.92
378.13	692.80
378.33	610.88
378.52	615.56
378.72	582.79
378.91	631.94
379.11	662.37
379.31	606.20
379.50	580.45
379.70	723.23
379.89	669.39
380.09	697.48
380.28	634.29
380.48	655.35
380.68	674.07
380.87	678.76
381.07	741.95
381.26	601.52
381.46	704.50
381.65	664.71
381.85	664.71
382.04	730.25
382.24	692.80
382.43	676.41
382.63	690.46
382.83	627.26
383.02	676.41
383.22	690.46
383.41	669.39
383.61	755.99
383.80	767.70
384.00	779.40
384.19	798.12
384.39	779.40
384.58	788.76
384.78	814.51
384.97	802.80
385.17	849.61
385.36	795.78
385.56	840.25
385.75	814.51
385.95	823.87
386.14	847.27
386.34	856.64
386.53	800.46
386.72	802.80
386.92	903.45
387.11	912.81
387.31	828.55
387.50	844.93
387.70	844.93
387.89	873.02
388.09	802.80
388.28	903.45
388.48	898.77
388.67	866.00
388.86	938.55
389.06	891.74
389.25	938.55
389.45	976.00
389.64	952.60
389.84	912.81
390.03	994.73
390.22	1011.11
390.42	976.00
390.61	950.26
390.81	1097.71
391.00	1015.79
391.19	990.05
391.39	976.00
391.58	1090.69
391.78	1022.81
391.97	1060.26
392.16	1081.33
392.36	1158.57
392.55	1027.50
392.75	968.98
392.94	1013.45
393.13	1048.56
393.33	1060.26
393.52	1027.50
393.71	1064.94
393.91	1111.75
394.10	1090.69
394.29	1156.22
394.49	1130.48
394.68	1046.22
394.88	1186.65
395.07	1275.59
395.26	1329.42
395.46	1235.80
395.65	1249.85
395.84	1224.10
396.04	1228.78
396.23	1151.54
396.42	1191.33
396.62	1270.91
396.81	1135.16
397.00	1200.69
397.19	1231.12
397.39	1348.15
397.58	1444.11
397.77	1369.21
397.97	1434.75
398.16	1357.51
398.35	1411.34
398.55	1483.90
398.74	1448.79
398.93	1575.18
399.12	1483.90
399.32	1427.73
399.51	1467.52
399.70	1500.28
399.90	1579.86
400.09	1631.35
400.28	1624.33
400.47	1593.90
400.67	1631.35
400.86	1636.03
401.05	1514.33
401.24	1701.57
401.44	1654.76
401.63	1671.14
401.82	1631.35
402.01	1638.38
402.21	1647.74
402.40	1743.70
402.59	1722.63
402.78	1762.42
402.97	1687.53
403.17	1785.83
403.36	1846.68
403.55	1832.64
403.74	1926.26
403.93	1830.30
404.13	1907.54
404.32	1853.70
404.51	1856.04
404.70	1849.02
404.89	1860.73
405.09	1998.82
405.28	1851.36
405.47	2015.20
405.66	1867.75
405.85	1989.46
406.05	1898.17
406.24	1893.49
406.43	2038.61
406.62	2092.44
406.81	2162.66
407.00	2099.46
407.20	1947.33
407.39	2008.18
407.58	2120.53
407.77	2176.70
407.96	2111.16
408.15	2136.91
408.34	2232.87
408.54	2310.11
408.73	2429.48
408.92	2228.19
409.11	2310.11
409.30	2258.62
409.49	2326.49
409.68	2214.15
409.87	2188.40
410.07	2359.26
410.26	2422.45
410.45	2452.88
410.64	2450.54
410.83	2469.27
411.02	2415.43
411.21	2672.89
411.40	2574.59
411.59	2593.31
411.78	2612.04
411.98	2551.18
412.17	2600.34
412.36	2677.57
412.55	2670.55
412.74	2689.28
412.93	2693.96
413.12	2862.48
413.31	2750.13
413.50	2792.26
413.69	2841.41
413.88	2787.58
414.07	2787.58
414.26	2902.26
414.45	2958.44
414.64	3002.91
414.83	2991.20
415.02	3049.72
415.22	3063.76
415.41	3173.77
415.60	3136.32
415.79	3075.46
415.98	3279.09
416.17	3185.47
416.36	3222.92
416.55	3143.34
416.74	3206.53
416.93	3232.28
417.12	3295.47
417.31	3337.60
417.50	3337.60
417.69	3431.23
417.88	3346.97
418.07	3304.84
418.26	3471.01
418.45	3513.14
418.64	3557.61
418.83	3501.44
419.02	3480.38
419.21	3555.27
419.39	3574.00
419.58	3599.74
419.77	3487.40
419.96	3665.28
420.15	3637.19
420.34	3758.90
420.53	3838.48
420.72	3782.31
420.91	3833.80
421.10	3859.54
421.29	3904.01
421.48	3826.78
421.67	3871.25
421.86	3742.52
422.05	3747.20
422.24	3831.46
422.43	3737.84
422.61	3878.27
422.80	3850.18
422.99	3882.95
423.18	3857.20
423.37	3859.54
423.56	3997.64
423.75	3934.44
423.94	3925.08
424.13	3714.43
424.32	3648.90
424.50	3948.48
424.69	3969.55
424.88	4142.75
425.07	3889.97
425.26	3712.09
425.45	3829.12
425.64	3786.99
425.83	3948.48
426.01	3992.95
426.20	3918.06
426.39	4018.70
426.58	4018.70
426.77	3859.54
426.96	4002.32
427.15	3948.48
427.33	3854.86
427.52	4023.38
427.71	4084.23
427.90	4128.70
428.09	3999.98
428.28	4088.92
428.46	4133.39
428.65	4219.99
428.84	4114.66
429.03	4266.80
429.22	4100.62
429.40	4086.58
429.59	4175.52
429.78	3929.76
429.97	3971.89
430.16	4011.68
430.34	4124.02
430.53	4102.96
430.72	4236.37
430.91	4152.11
431.10	4269.14
431.28	4538.30
431.47	4564.04
431.66	4650.64
431.85	4542.98
432.03	4535.96
432.22	4692.77
432.41	4496.17
432.60	4587.45
432.79	4671.71
432.97	4835.55
433.16	4578.09
433.35	4535.96
433.54	4624.90
433.72	4617.88
433.91	4753.63
434.10	4683.41
434.28	4697.46
434.47	4873.00
434.66	4849.59
434.85	4814.48
435.03	4840.23
435.22	4950.23
435.41	5090.67
435.59	5006.41
435.78	4987.68
435.97	5226.42
436.16	5100.03
436.34	5121.09
436.53	5153.86
436.72	5177.26
436.90	5039.17
437.09	5118.75
437.28	4994.70
437.46	4957.25
437.65	5167.90
437.84	5093.01
438.02	5156.20
438.21	5097.69
438.40	5090.67
438.58	5252.16
438.77	5226.42
438.96	5345.78
439.14	5528.35
439.33	5558.77
439.52	5526.00
439.70	5626.65
439.89	5563.45
440.08	5682.82
440.26	5596.22
440.45	5628.99
440.63	5743.67
440.82	6108.80
441.01	5877.09
441.19	5846.66
441.38	6012.84
441.57	6073.69
441.75	6092.41
441.94	6195.40
442.12	6015.18
442.31	6300.72
442.50	6174.33
442.68	6263.27
442.87	6377.96
443.05	6317.11
443.24	6375.62
443.43	6293.70
443.61	6441.15
443.80	6628.40
443.98	6532.44
444.17	6216.46
444.35	6497.33
444.54	6502.01
444.73	6499.67
444.91	6408.39
445.10	6525.41
445.28	6307.74
445.47	6356.90
445.65	6338.17
445.84	6532.44
446.02	6476.26
446.21	6579.25
446.39	6546.48
446.58	6619.04
446.77	6670.53
446.95	6389.66
447.14	6722.02
447.32	6707.98
447.51	6607.33
447.69	6675.21
447.88	6707.98
448.06	6647.12
448.25	6607.33
448.43	6588.61
448.62	6588.61
448.80	6630.74
448.99	6757.13
449.17	6780.53
449.36	6853.09
449.54	6930.33
449.73	7197.15
449.91	7033.31
450.10	7265.02
450.28	7192.47
450.46	7054.37
450.65	7019.27
450.83	7211.19
451.02	6958.41
451.20	7178.42
451.39	7148.00
451.57	7105.87
451.76	7204.17
451.94	7152.68
452.13	7360.98
452.31	7250.98
452.49	7045.01
452.68	7119.91
452.86	7122.25
453.05	7108.21
453.23	7145.66
453.42	7339.92
453.60	7253.32
453.78	7286.09
453.97	7426.52
454.15	7393.75
454.34	7187.79
454.52	7548.23
454.70	7541.21
454.89	7330.56
455.07	7482.69
455.26	7508.44
455.44	7719.09
455.62	7681.64
455.81	7676.96
455.99	7698.02
456.17	7836.11
456.36	7742.49
456.54	7920.37
456.73	7946.12
456.91	7943.78
457.09	7992.93
457.28	8025.70
457.46	7927.39
457.64	8109.96
457.83	8133.36
458.01	7915.69
458.19	8112.30
458.38	8229.32
458.56	8252.73
458.74	8238.69
458.93	8189.53
459.11	8320.60
459.29	8203.58
459.48	8327.63
459.66	8180.17
459.84	8257.41
460.03	8713.81
460.21	8339.33
460.39	8301.88
460.57	8297.20
460.76	8538.27
460.94	8582.74
461.12	8645.94
461.31	8458.70
461.49	8603.81
461.67	8589.77
461.85	8725.52
462.04	8702.11
462.22	9245.12
462.40	8870.63
462.59	8744.24
462.77	8688.07
462.95	8758.28
463.13	8823.82
463.32	8833.18
463.50	8980.64
463.68	9130.43
463.86	8950.21
464.05	8828.50
464.23	8772.33
464.41	8945.53
464.59	8669.34
464.78	9252.14
464.96	9083.62
465.14	8978.30
465.32	9212.35
465.50	9352.78
465.69	9259.16
465.87	9345.76
466.05	9275.54
466.23	9057.87
466.41	9198.31
466.60	9423.00
466.78	9039.15
466.96	9193.62
467.14	9320.01
467.32	9207.67
467.51	9364.48
467.69	9153.84
467.87	9277.88
468.05	9446.40
468.23	9446.40
468.41	9387.89
468.60	9373.85
468.78	9689.82
468.96	9441.72
469.14	9378.53
469.32	9507.26
469.50	9418.32
469.69	9802.16
469.87	9643.01
470.05	9870.04
470.23	9724.93
470.41	9745.99
470.59	9956.64
470.77	9764.72
470.95	10087.71
471.14	10139.20
471.32	9881.74
471.50	10197.71
471.68	10207.08
471.86	10307.72
472.04	10160.27
472.22	10527.73
472.40	10141.54
472.58	10530.07
472.77	10136.86
472.95	10448.15
473.13	10782.85
473.31	10326.44
473.49	10305.38
473.67	10429.43
473.85	10506.66
474.03	10979.45
474.21	10981.79
474.39	11087.12
474.57	11091.80
474.75	10855.40
474.93	11159.67
475.12	10899.87
475.30	11225.21
475.48	11103.50
475.66	11192.44
475.84	11108.18
476.02	11145.63
476.20	11473.31
476.38	11719.06
476.56	11831.41
476.74	11721.40
476.92	11522.46
477.10	11606.72
477.28	11894.60
477.46	12056.10
477.64	12346.33
477.82	12353.35
478.00	12461.01
478.18	12479.74
478.36	12493.78
478.54	12641.23
478.72	12692.73
478.90	12814.43
479.08	12809.75
479.26	13071.89
479.44	12821.45
479.62	12823.80
479.80	13069.55
479.98	13502.55
480.16	13355.10
480.34	13455.74
480.52	13752.99
480.70	13537.66
480.88	13486.17
481.06	13760.01
481.24	13996.40
481.41	14059.60
481.59	14310.04
481.77	14434.08
481.95	14366.21
482.13	14478.55
482.31	14611.96
482.49	14710.27
482.67	14824.95
482.85	14930.28
483.03	15101.14
483.21	15157.31
483.39	15281.36
483.57	15590.31
483.74	15044.96
483.92	15709.68
484.10	15342.21
484.28	15700.31
484.46	16135.65
484.64	16011.60
484.82	15868.83
485.00	15955.43
485.18	16287.79
485.35	16334.60
485.53	15939.05
485.71	16037.35
485.89	16285.45
486.07	16568.65
486.25	16533.54
486.43	16652.91
486.61	16893.99
486.78	16856.54
486.96	16912.71
487.14	17565.72
487.32	17280.18
487.50	17919.14
487.68	18087.66
487.85	18115.75
488.03	18345.12
488.21	18431.72
488.39	18265.54
488.57	18487.89
488.75	18630.66
488.92	19150.26
489.10	19187.71
489.28	19260.27
489.46	19833.70
489.64	19660.50
489.81	20215.21
489.99	20123.93
490.17	20170.74
490.35	20318.19
490.53	20067.75
490.70	20322.87
490.88	20203.50
491.06	20924.39
491.24	20620.12
491.41	20563.95
491.59	20350.96
491.77	20430.54
491.95	20776.94
492.13	21233.34
492.30	21366.75
492.48	21535.27
492.66	21425.26
492.84	21921.46
493.01	21853.58
493.19	21860.60
493.37	22352.12
493.54	22338.07
493.72	22281.90
493.90	22387.22
494.08	22668.09
494.25	23002.78
494.43	22850.65
494.61	23321.10
494.79	23220.45
494.96	23239.18
495.14	23384.29
495.32	23676.86
495.49	23215.77
495.67	23470.89
495.85	24215.18
496.02	24243.27
496.20	24133.26
496.38	24463.28
496.55	24339.23
496.73	24673.93
496.91	24676.27
497.09	24566.26
497.26	24849.47
497.44	24680.95
497.62	25039.05
497.79	25439.28
497.97	24835.42
498.14	25104.59
498.32	25191.19
498.50	25682.70
498.67	25958.88
498.85	25507.16
499.03	26111.02
499.20	26206.98
499.38	25841.85
499.56	25806.75
499.73	26036.12
499.91	26293.58
500.08	26324.01
500.26	26228.04
500.44	26551.04
500.61	26576.78
500.79	26838.92
500.97	26735.94
501.14	26944.25
501.32	27028.51
501.49	27262.56
501.67	27091.70
501.84	27122.13
502.02	27152.55
502.20	27513.00
502.37	27417.04
502.55	27978.76
502.72	27623.00
502.90	28231.54
503.07	27751.73
503.25	27868.76
503.43	27948.34
503.60	27889.82
503.78	28013.87
503.95	27999.83
504.13	28257.29
504.30	28577.94
504.48	28187.07
504.65	28601.35
504.83	28802.63
505.01	28706.67
505.18	28575.60
505.36	29106.90
505.53	29125.63
505.71	29287.12
505.88	29663.95
506.06	29301.17
506.23	29450.96
506.41	29340.96
506.58	29441.60
506.76	29790.34
506.93	30052.48
507.11	29607.78
507.28	29626.50
507.46	30000.99
507.63	29872.26
507.81	30089.93
507.98	29633.52
508.16	29909.71
508.33	30239.72
508.50	30441.01
508.68	30499.52
508.85	30735.92
509.03	30726.55
509.20	31005.08
509.38	30878.69
509.55	31318.71
509.73	30878.69
509.90	31030.82
510.08	30925.50
510.25	31108.06
510.42	31374.88
510.60	31192.32
510.77	31447.44
510.95	31723.62
511.12	31641.70
511.30	31899.16
511.47	32203.43
511.64	31892.14
511.82	32355.57
511.99	31999.80
512.17	32484.30
512.34	32126.19
512.51	32432.80
512.69	32634.09
512.86	32432.80
513.04	32673.88
513.21	32357.91
513.38	32603.66
513.56	32865.80
513.73	32833.04
513.90	32842.40
514.08	32781.54
514.25	33074.11
514.43	32683.24
514.60	33116.24
514.77	32910.27
514.95	33460.30
515.12	33212.20
515.29	33603.07
515.47	33563.28
515.64	33682.65
515.81	33757.55
515.99	33614.77
516.16	33474.34
516.33	33500.09
516.51	33490.73
516.68	32512.38
516.85	33048.36
517.03	33317.53
517.20	33998.62
517.37	34082.88
517.54	34312.25
517.72	34101.61
517.89	33666.27
518.06	33418.17
518.24	33914.36
518.41	34431.62
518.58	34281.83
518.75	34242.04
518.93	34581.42
519.10	34604.82
519.27	34866.96
519.45	34536.94
519.62	34642.27
519.79	35306.98
519.96	35091.65
520.14	35037.82
520.31	34792.06
520.48	35281.24
520.65	35229.74
520.83	35814.88
521.00	35594.87
521.17	35629.98
521.34	35653.38
521.52	36060.63
521.69	35730.62
521.86	35997.44
522.03	36168.30
522.20	35938.93
522.38	36622.36
522.55	36147.23
522.72	36535.76
522.89	36182.34
523.07	36196.38
523.24	36077.02
523.41	36755.77
523.58	36488.95
523.75	37202.82
523.92	36783.86
524.10	37041.32
524.27	36973.44
524.44	37069.40
524.61	37368.99
524.78	37095.15
524.96	37111.53
525.13	37258.99
525.30	37603.05
525.47	37436.87
525.64	37589.00
525.81	37270.69
525.98	37083.45
526.16	36968.76
526.33	37354.95
526.50	37275.37
526.67	36608.32
526.84	37022.59
527.01	36828.33
527.18	37591.34
527.36	37827.74
527.53	37605.39
527.70	38047.75
527.87	37675.60
528.04	37949.45
528.21	38019.66
528.38	38328.61
528.55	38298.19
528.72	38209.25
528.89	38466.70
529.07	38230.31
529.24	38394.15
529.41	38539.26
529.58	38466.70
529.75	38682.03
529.92	38888.00
530.09	38745.23
530.26	38672.67
530.43	38693.74
530.60	39075.24
530.77	38895.02
530.94	39054.18
531.11	38871.62
531.28	39494.20
531.46	39278.87
531.63	39166.52
531.80	39290.57
531.97	39325.68
532.14	39222.70
532.31	38499.47
532.48	39175.89
532.65	39222.70
532.82	38995.67
532.99	39349.09
533.16	39150.14
533.33	39707.19
533.50	39789.11
533.67	39803.15
533.84	39309.30
534.01	39370.15
534.18	39807.83
534.35	39613.57
534.52	39962.31
534.69	40119.12
534.86	40212.74
535.03	40215.08
535.20	40655.11
535.37	40493.61
535.54	40458.50
535.71	40823.62
535.88	40425.73
536.05	40416.37
536.22	40425.73
536.38	40460.84
536.55	40397.65
536.72	40329.77
536.89	40659.79
537.06	40329.77
537.23	40694.89
537.40	40760.43
537.57	40835.33
537.74	40708.94
537.91	41265.99
538.08	41010.87
538.25	40765.11
538.42	40954.69
538.59	41338.54
538.75	40804.90
538.92	40921.93
539.09	41523.44
539.26	41404.08
539.43	41303.43
539.60	41148.96
539.77	41352.58
539.94	40961.72
540.11	41233.22
540.28	41277.69
540.44	41282.37
540.61	41144.28
540.78	41481.31
540.95	40975.76
541.12	41486.00
541.29	41226.20
541.46	41860.48
541.62	41511.74
541.79	41757.50
541.96	41249.60
542.13	41631.11
542.30	42148.37
542.47	41696.64
542.63	41434.50
542.80	41944.74
542.97	42131.98
543.14	42052.41
543.31	42237.31
543.48	42485.40
543.64	42588.39
543.81	43040.11
543.98	42312.20
544.15	42588.39
544.32	42419.87
544.48	42728.82
544.65	42899.68
544.82	42389.44
544.99	41949.42
545.16	42557.96
545.32	42340.29
545.49	43136.07
545.66	42766.27
545.83	42536.90
546.00	42895.00
546.16	43159.48
546.33	43040.11
546.50	42567.32
546.67	43091.60
546.83	42609.45
547.00	42813.08
547.17	42796.70
547.34	42799.04
547.50	42703.07
547.67	43112.67
547.84	43229.69
548.00	43377.15
548.17	43487.15
548.34	43363.11
548.51	43885.04
548.67	43655.67
548.84	43487.15
549.01	43150.12
549.18	43063.52
549.34	43524.60
549.51	43335.02
549.68	43531.62
549.84	43856.96
550.01	43784.40
550.18	43665.03
550.34	43555.03
550.51	43819.51
550.68	43887.39
550.84	43089.26
551.01	43622.90
551.18	43835.89
551.34	44032.50
551.51	44133.14
551.68	43971.64
551.84	43723.55
552.01	43522.26
552.18	44100.37
552.34	43311.61
552.51	43697.80
552.68	43480.13
552.84	44229.10
553.01	44409.32
553.18	43756.32
553.34	44634.02
553.51	44177.61
553.67	44456.14
553.84	44662.10
554.01	44442.09
554.17	44212.72
554.34	44531.03
554.51	44418.69
554.67	44402.30
554.84	44453.79
555.00	44194.00
555.17	44266.55
555.33	44397.62
555.50	44811.90
555.67	44568.48
555.83	44547.42
556.00	44886.79
556.16	44891.48
556.33	44460.82
556.50	44425.71
556.66	44287.62
556.83	44226.76
556.99	44683.17
557.16	44629.34
557.32	44942.97
557.49	44957.01
557.65	44619.97
557.82	44921.90
557.98	44708.91
558.15	44676.15
558.32	44528.69
558.48	44924.24
558.65	44051.22
558.81	44570.82
558.98	44961.69
559.14	44495.92
559.31	45027.23
559.47	44772.11
559.64	44758.06
559.80	44940.63
559.97	44931.26
560.13	44421.03
560.30	44978.07
560.46	45102.12
560.63	45064.67
560.79	45120.85
560.96	45528.10
561.12	44772.11
561.29	44821.26
561.45	45216.81
561.61	45226.17
561.78	45074.04
561.94	45001.48
562.11	44865.73
562.27	45120.85
562.44	45223.83
562.60	45247.24
562.77	45254.26
562.93	45013.18
563.10	45434.48
563.26	44861.05
563.42	45663.85
563.59	45249.58
563.75	45415.76
563.92	45294.05
564.08	45214.47
564.24	45523.42
564.41	45530.44
564.57	45090.42
564.74	45406.39
564.90	45081.06
565.07	45385.33
565.23	45504.70
565.39	45338.52
565.56	45235.53
565.72	45008.50
565.88	45249.58
566.05	44912.54
566.21	44886.79
566.38	45308.09
566.54	45301.07
566.70	45663.85
566.87	46078.13
567.03	45916.63
567.19	45743.43
567.36	45626.40
567.52	45052.97
567.68	45900.25
567.85	44626.99
568.01	45467.25
568.17	45088.08
568.34	45823.01
568.50	45146.59
568.66	45223.83
568.83	45713.00
568.99	45361.92
569.15	45921.31
569.32	45198.09
569.48	45207.45
569.64	45799.60
569.81	45858.12
569.97	45684.92
570.13	45464.91
570.30	45200.43
570.46	45228.51
570.62	44994.46
570.78	45174.68
570.95	45062.33
571.11	45776.20
571.27	45656.83
571.43	45911.95
571.60	45886.20
571.76	45368.94
571.92	45778.54
572.09	45720.02
572.25	45750.45
572.41	46174.09
572.57	46000.89
572.74	45729.39
572.90	45434.48
573.06	46003.23
573.22	45827.69
573.38	45666.19
573.55	45914.29
573.71	46204.52
573.87	45778.54
574.03	45474.27
574.20	45659.17
574.36	45614.70
574.52	45460.23
574.68	45647.47
574.84	45661.51
575.01	45834.71
575.17	45380.65
575.33	45511.72
575.49	45610.02
575.65	46155.36
575.82	45935.35
575.98	45570.23
576.14	45958.76
576.30	45991.53
576.46	46120.26
576.62	45804.28
576.79	45862.80
576.95	45745.77
577.11	46071.10
577.27	45855.78
577.43	45764.49
577.59	45485.97
577.75	45242.56
577.92	45605.34
578.08	45390.01
578.24	45560.87
578.40	45322.13
578.56	45537.46
578.72	45872.16
578.88	46071.10
579.04	45605.34
579.21	45972.80
579.37	45911.95
579.53	45797.26
579.69	45902.59
579.85	45769.18
580.01	45911.95
580.17	45790.24
580.33	45947.06
580.49	45621.72
580.65	46157.70
580.82	45785.56
580.98	45617.04
581.14	45696.62
581.30	45841.73
581.46	45612.36
581.62	45848.75
581.78	45406.39
581.94	45607.68
582.10	45525.76
582.26	46103.87
582.42	45544.48
582.58	45813.65
582.74	45858.12
582.90	45996.21
583.06	45675.55
583.22	46052.38
583.38	46017.27
583.54	45790.24
583.70	45808.96
583.86	46043.02
584.02	45610.02
584.18	46101.53
584.34	45773.86
584.50	45921.31
584.66	45865.14
584.82	45797.26
584.98	46211.54
585.14	46005.57
585.30	45504.70
585.46	46209.20
585.62	45584.27
585.78	45893.22
585.94	45418.10
586.10	45584.27
586.26	45841.73
586.42	45975.14
586.58	46211.54
586.74	45996.21
586.90	45713.00
587.06	46064.08
587.22	46169.41
587.38	45785.56
587.54	45792.58
587.70	45874.50
587.86	45865.14
588.02	46209.20
588.18	45804.28
588.34	45748.11
588.49	45839.39
588.65	45303.41
588.81	45567.89
588.97	45261.28
589.13	45595.98
589.29	45565.55
589.45	45617.04
589.61	45970.46
589.77	45684.92
589.93	46199.83
590.08	45713.00
590.24	46017.27
590.40	46604.75
590.56	46368.35
590.72	46150.68
590.88	45635.77
591.04	45937.69
591.20	45827.69
591.35	46239.62
591.51	46546.23
591.67	45759.81
591.83	45867.48
591.99	45762.15
592.15	45743.43
592.31	46527.51
592.46	45947.06
592.62	45649.81
592.78	46174.09
592.94	46141.32
593.10	46068.76
593.26	46576.66
593.41	45811.31
593.57	46033.66
593.73	46225.58
593.89	46382.40
594.05	46089.83
594.20	45673.21
594.36	46078.13
594.52	45923.65
594.68	45958.76
594.84	45537.46
594.99	46017.27
595.15	45654.49
595.31	46476.02
595.47	46234.94
595.62	46010.25
595.78	46188.13
595.94	46153.02
596.10	46057.06
596.25	45823.01
596.41	46134.30
596.57	45364.26
596.73	46382.40
596.88	46064.08
597.04	46436.23
597.20	45984.51
597.36	45975.14
597.51	46492.40
597.67	45996.21
597.83	46080.47
597.99	46508.79
598.14	45827.69
598.30	45979.82
598.46	45687.26
598.61	46272.39
598.77	45954.08
598.93	46394.10
599.09	45741.09
599.24	46658.58
599.40	46256.01
599.56	46316.86
599.71	46127.28
599.87	46253.67
600.03	46014.93
600.18	45965.78
600.34	46192.81
600.50	46213.88
600.65	46040.68
600.81	46138.98
600.97	46410.48
601.12	46101.53
601.28	46028.98
601.44	45413.41
601.59	45858.12
601.75	45996.21
601.91	45930.67
602.06	45808.96
602.22	45841.73
602.37	46211.54
602.53	46162.39
602.69	46181.11
602.84	46443.25
603.00	45848.75
603.16	45881.52
603.31	46358.99
603.47	45804.28
603.62	45703.64
603.78	46546.23
603.94	46417.50
604.09	46176.43
604.25	46134.30
604.40	46047.70
604.56	45965.78
604.71	45631.08
604.87	46103.87
605.03	46068.76
605.18	45722.37
605.34	45993.87
605.49	45256.60
605.65	45825.35
605.80	45996.21
605.96	46316.86
606.12	46103.87
606.27	46258.35
606.43	45645.13
606.58	45993.87
606.74	45839.39
606.89	45993.87
607.05	45794.92
607.20	45949.40
607.36	46021.95
607.51	46148.34
607.67	45780.88
607.82	45291.71
607.98	45895.56
608.13	45528.10
608.29	45790.24
608.44	45492.99
608.60	44907.86
608.75	45647.47
608.91	45415.76
609.06	45530.44
609.22	46054.72
609.37	45237.87
609.53	46295.80
609.68	45762.15
609.84	45399.37
609.99	45188.72
610.15	45123.19
610.30	45443.84
610.46	45078.72
610.61	45139.57
610.76	45160.64
610.92	45633.42
611.07	45694.28
611.23	45617.04
611.38	45715.34
611.54	44692.53
611.69	45291.71
611.84	44931.26
612.00	45205.11
612.15	45155.96
612.31	45476.61
612.46	45212.13
612.62	45542.14
612.77	45284.68
612.92	45078.72
613.08	45137.23
613.23	45052.97
613.39	44676.15
613.54	45106.80
613.69	44933.60
613.85	44825.94
614.00	45165.32
614.15	45762.15
614.31	44921.90
614.46	45179.36
614.62	44638.70
614.77	44924.24
614.92	44664.44
615.08	44690.19
615.23	45069.36
615.38	44458.48
615.54	44507.63
615.69	44641.04
615.84	44957.01
616.00	44765.09
616.15	44762.75
616.30	44554.44
616.46	44533.37
616.61	43990.37
616.76	44872.75
616.92	44231.44
617.07	44355.49
617.22	44531.03
617.37	44477.20
617.53	44697.21
617.68	44996.80
617.83	44254.85
617.99	44266.55
618.14	43856.96
618.29	44105.06
618.45	44212.72
618.60	43969.30
618.75	43725.89
618.90	43817.17
619.06	44397.62
619.21	43856.96
619.36	44521.67
619.51	43936.54
619.67	44098.03
619.82	44306.34
619.97	44369.54
620.12	43351.40
620.28	43384.17
620.43	43430.98
620.58	43973.98
620.73	44076.97
620.89	43924.83
621.04	43849.94
621.19	44334.43
621.34	44147.18
621.49	43782.06
621.65	43419.28
621.80	44034.84
621.95	43274.16
622.10	43833.55
622.25	43571.41
622.41	43964.62
622.56	43686.10
622.71	43868.66
622.86	43428.64
623.01	43299.91
623.16	43643.97
623.32	43620.56
623.47	43360.76
623.62	43445.02
623.77	42965.21
623.92	43412.26
624.07	43416.94
624.23	42923.08
624.38	43019.05
624.53	43379.49
624.68	43374.81
624.83	43253.10
624.98	43175.86
625.13	42962.87
625.29	43262.46
625.44	43005.00
625.59	42700.73
625.74	42691.37
625.89	42651.58
626.04	42490.09
626.19	42726.48
626.34	43164.16
626.49	42784.99
626.65	42787.33
626.80	42871.59
626.95	42625.84
627.10	42649.24
627.25	42803.72
627.40	42464.34
627.55	42710.10
627.70	42108.58
627.85	42490.09
628.00	42480.72
628.15	42897.34
628.30	42618.81
628.45	42728.82
628.60	42323.91
628.76	42426.89
628.91	42653.92
629.06	42391.78
629.21	42307.52
629.36	42096.88
629.51	42082.83
629.66	42213.90
629.81	41790.27
629.96	42036.02
630.11	42244.33
630.26	42623.50
630.41	42019.64
630.56	41806.65
630.71	42541.58
630.86	41780.90
631.01	41624.09
631.16	41731.75
631.31	41448.55
631.46	41441.53
631.61	41638.13
631.76	42227.95
631.91	41750.48
632.06	42169.43
632.21	41801.97
632.36	42082.83
632.51	41144.28
632.66	41656.85
632.81	41563.23
632.96	41331.52
633.10	41668.56
633.25	41549.19
633.40	41584.30
633.55	41476.63
633.70	41598.34
633.85	41237.90
634.00	41727.07
634.15	41776.22
634.30	41354.93
634.45	41502.38
634.60	41645.15
634.75	41270.67
634.90	41193.43
635.05	41581.96
635.19	40952.35
635.34	41095.13
635.49	41378.33
635.64	41219.17
635.79	41010.87
635.94	41015.55
636.09	40741.71
636.24	40947.67
636.39	40528.72
636.53	41354.93
636.68	40610.64
636.83	40760.43
636.98	41029.59
637.13	41237.90
637.28	41333.86
637.43	41132.57
637.57	41064.70
637.72	40570.85
637.87	40940.65
638.02	41186.41
638.17	40903.20
638.32	40758.09
638.46	40570.85
638.61	40175.30
638.76	40259.55
638.91	40776.81
639.06	40250.19
639.20	40987.46
639.35	41111.51
639.50	40694.89
639.65	40645.74
639.80	40542.76
639.94	40280.62
640.09	40694.89
640.24	40084.01
640.39	40486.59
640.54	40144.87
640.68	39974.01
640.83	39693.15
640.98	40091.04
641.13	39824.22
641.27	40446.80
641.42	40018.48
641.57	40084.01
641.72	40488.93
641.86	39658.04
642.01	39189.93
642.16	40147.21
642.31	40144.87
642.45	40140.19
642.60	39578.46
642.75	39344.41
642.90	40149.55
643.04	40329.77
643.19	39896.77
643.34	39639.31
643.48	39578.46
643.63	39648.68
643.78	39442.71
643.93	39725.91
644.07	39459.09
644.22	39866.34
644.37	39580.80
644.51	39625.27
644.66	39484.84
644.81	39632.29
644.95	39606.55
645.10	39777.40
645.25	39454.41
645.39	39337.38
645.54	39538.67
645.69	39058.86
645.83	39171.21
645.98	39508.24
646.13	39241.42
646.27	39180.57
646.42	39086.95
646.57	39082.27
646.71	38965.24
646.86	39463.77
647.00	39393.56
647.15	38878.64
647.30	39454.41
647.44	38590.75
647.59	38717.14
647.74	38693.74
647.88	38813.10
648.03	39068.22
648.17	39054.18
648.32	38817.78
648.47	38796.72
648.61	38843.53
648.76	38698.42
648.90	38948.85
649.05	38827.15
649.20	38756.93
649.34	39091.63
649.49	38742.89
649.63	38827.15
649.78	38635.22
649.92	38492.45
650.07	38871.62
650.21	38635.22
650.36	39051.84
650.51	38405.85
650.65	38792.04
650.80	38864.60
650.94	38761.61
651.09	38569.69
651.23	38178.82
651.38	38136.69
651.52	38220.95
651.67	38197.54
651.81	38153.07
651.96	37780.93
652.10	38031.36
652.25	38328.61
652.39	38323.93
652.54	38352.02
652.68	38504.15
652.83	38087.54
652.97	38637.56
653.12	38543.94
653.26	37876.89
653.41	37750.50
653.55	37949.45
653.70	37806.67
653.84	37680.28
653.99	37907.32
654.13	37654.54
654.27	37883.91
654.42	37799.65
654.56	37603.05
654.71	37839.44
654.85	37467.30
655.00	38080.52
655.14	37371.33
655.29	37471.98
655.43	37507.08
655.57	37139.62
655.72	37163.03
655.86	37113.87
656.01	36479.59
656.15	36458.52
656.30	36982.80
656.44	36957.06
656.58	37254.31
656.73	37242.60
656.87	36889.18
657.01	37022.59
657.16	37006.21
657.30	36776.84
657.45	36847.05
657.59	37193.45
657.73	37158.34
657.88	36987.49
658.02	37097.49
658.16	37212.18
658.31	36865.78
658.45	37038.98
658.60	36840.03
658.74	37266.01
658.88	37574.96
659.03	37191.11
659.17	36994.51
659.31	36577.89
659.46	36753.43
659.60	36526.40
659.74	36421.08
659.89	36706.62
660.03	36692.58
660.17	36992.17
660.32	36369.58
660.46	36655.13
660.60	36381.29
660.74	36128.51
660.89	36402.35
661.03	36201.07
661.17	36390.65
661.32	36250.22
661.46	36388.31
661.60	36123.83
661.74	35431.03
661.89	35967.01
662.03	35908.50
662.17	35983.40
662.31	36210.43
662.46	36355.54
662.60	35744.66
662.74	35866.37
662.88	36112.13
663.03	35424.01
663.17	35433.37
663.31	35253.15
663.45	35405.28
663.60	35627.63
663.74	35220.38
663.88	35150.17
664.02	35283.58
664.17	35269.53
664.31	35030.80
664.45	34930.16
664.59	35297.62
664.73	34972.28
664.88	34939.52
665.02	34820.15
665.16	34466.73
665.30	34555.67
665.44	34366.09
665.59	34335.66
665.73	34602.48
665.87	34712.49
666.01	34611.84
666.15	34478.43
666.29	34389.49
666.44	35044.84
666.58	34382.47
666.72	34288.85
666.86	34527.58
667.00	34288.85
667.14	34541.63
667.28	33869.89
667.43	33893.30
667.57	34185.86
667.71	34190.55
667.85	34064.16
667.99	34010.32
668.13	34110.97
668.27	33998.62
668.41	33961.17
668.56	33907.34
668.70	33654.56
668.84	33317.53
668.98	33359.66
669.12	33322.21
669.26	33228.59
669.40	32666.86
669.54	33495.41
669.68	33200.50
669.82	33010.92
669.96	32954.74
670.10	32531.11
670.25	32891.55
670.39	32678.56
670.53	32898.57
670.67	32858.78
670.81	32802.61
670.95	32741.75
671.09	32730.05
671.23	32711.33
671.37	32409.40
671.51	32512.38
671.65	32060.66
671.79	32025.55
671.93	32217.47
672.07	31936.61
672.21	32025.55
672.35	31765.75
672.49	31964.70
672.63	31917.89
672.77	31887.46
672.91	31948.31
673.05	32116.83
673.19	31461.48
673.33	31421.69
673.47	31475.52
673.61	31370.20
673.75	31496.59
673.89	31131.47
674.03	31096.36
674.17	31159.55
674.31	31243.81
674.45	31381.90
674.59	31204.02
674.73	31278.92
674.87	31082.31
675.01	30969.97
675.15	30703.15
675.29	30443.35
675.43	30817.83
675.56	30157.80
675.70	30188.23
675.84	30717.19
675.98	29443.94
676.12	30213.98
676.26	30433.99
676.40	30167.16
676.54	30045.46
676.68	30225.68
676.82	29315.21
676.96	29593.73
677.10	29783.32
677.23	30043.12
677.37	29563.31
677.51	29425.22
677.65	29160.73
677.79	28992.22
677.93	28863.49
678.07	28549.85
678.21	28580.28
678.34	28793.27
678.48	28481.98
678.62	28283.03
678.76	28346.23
678.90	27983.44
679.04	27936.63
679.18	28505.38
679.31	27953.02
679.45	28091.11
679.59	27777.48
679.73	28142.60
679.87	27878.12
680.00	27421.72
680.14	27644.07
680.28	27505.98
680.42	26993.40
680.56	27358.52
680.70	27335.12
680.83	27044.89
680.97	26979.36
681.11	27133.83
681.25	26867.01
681.39	27208.73
681.52	26700.83
681.66	26820.20
681.80	26637.64
681.94	26728.92
682.07	26494.86
682.21	26206.98
682.35	26527.63
682.49	26185.91
682.62	25666.31
682.76	26345.07
682.90	26178.89
683.04	26277.19
683.17	25963.56
683.31	25699.08
683.45	25575.03
683.59	25715.47
683.72	25465.03
683.86	25305.87
684.00	25483.75
684.13	25020.33
684.27	24814.36
684.41	24978.20
684.55	24849.47
684.68	25123.31
684.82	24954.79
684.96	24685.63
685.09	24350.93
685.23	24357.96
685.37	24669.25
685.50	24175.39
685.64	24140.29
685.78	24264.33
685.91	24130.92
686.05	23807.93
686.19	23688.56
686.32	23861.76
686.46	23274.29
686.60	23257.90
686.73	22852.99
686.87	23084.70
687.01	22991.08
687.14	22988.74
687.28	22841.29
687.42	22754.69
687.55	23080.02
687.69	22951.29
687.82	22487.87
687.96	22953.63
688.10	22948.95
688.23	22597.87
688.37	22539.36
688.50	22312.33
688.64	22286.58
688.78	22647.02
688.91	21986.99
689.05	21900.39
689.18	21743.58
689.32	21596.12
689.46	22244.45
689.59	22146.15
689.73	21785.71
689.86	21502.50
690.00	21745.92
690.13	21577.40
690.27	21151.42
690.41	21088.23
690.54	20975.88
690.68	21214.62
690.81	21142.06
690.95	21062.48
691.08	21118.65
691.22	20823.75
691.35	21064.82
691.49	20732.47
691.62	20695.02
691.76	20727.78
691.89	20556.93
692.03	20730.12
692.16	20503.09
692.30	20348.62
692.43	20240.95
692.57	20006.90
692.70	19667.52
692.84	19857.10
692.97	19852.42
693.11	19648.80
693.24	19548.15
693.38	19489.64
693.51	19529.43
693.65	19543.47
693.78	19412.40
693.92	19316.44
694.05	18855.36
694.19	19206.44
694.32	19009.83
694.45	19030.90
694.59	19044.94
694.72	18867.06
694.86	18642.37
694.99	18642.37
695.13	18504.28
695.26	18682.16
695.39	18455.12
695.53	18625.98
695.66	18513.64
695.80	18438.74
695.93	18176.60
696.07	17994.04
696.20	17994.04
696.33	18085.32
696.47	18162.56
696.60	17944.89
696.73	18071.28
696.87	17680.41
697.00	17568.06
697.14	17479.12
697.27	17301.24
697.40	17015.69
697.54	17502.53
697.67	17291.88
697.80	17240.39
697.94	16940.80
698.07	17048.46
698.21	17011.01
698.34	17202.94
698.47	16793.34
698.61	16744.19
698.74	16774.62
698.87	16924.41
699.01	16362.69
699.14	16629.51
699.27	16320.56
699.40	16500.78
699.54	16053.73
699.67	15915.64
699.80	16020.97
699.94	15833.72
700.07	16130.97
700.20	16042.03
700.34	15597.33
700.47	15936.71
700.60	15716.70
700.73	15943.73
700.87	15627.76
701.00	15520.09
701.13	15468.60
701.26	15431.15
701.40	15557.54
701.53	15220.50
701.66	15021.56
701.79	14850.70
701.93	15152.63
702.06	14728.99
702.19	14712.61
702.32	14988.79
702.46	14771.12
702.59	14899.85
702.72	14633.03
702.85	14583.88
702.99	14483.24
703.12	14382.59
703.25	14228.12
703.38	14464.51
703.51	14237.48
703.65	14160.24
703.78	13905.12
703.91	13678.09
704.04	13898.10
704.17	13760.01
704.31	13743.63
704.44	13858.31
704.57	13855.97
704.70	13689.79
704.83	13598.51
704.96	13909.80
705.10	13703.84
705.23	13570.43
>>>>>End Processed Spectral Data<<<<<
