SpectraSuite Data File
++++++++++++++++++++++++++++++++++++
Date: Fri Oct 25 11:33:20 EDT 2013
User: price-jones
Dark Spectrum Present: No
Reference Spectrum Present: No
Number of Sampled Component Spectra: 1
Spectrometers: USB2+H05261
Integration Time (usec): 100000 (USB2+H05261)
Spectra Averaged: 1 (USB2+H05261)
Boxcar Smoothing: 0 (USB2+H05261)
Correct for Electrical Dark: No (USB2+H05261)
Strobe/Lamp Enabled: No (USB2+H05261)
Correct for Detector Non-linearity: No (USB2+H05261)
Correct for Stray Light: No (USB2+H05261)
Number of Pixels in Processed Spectrum: 2048
>>>>>Begin Processed Spectral Data<<<<<
365.73	196.60
365.92	196.60
366.12	196.60
366.32	180.22
366.52	177.88
366.72	215.33
366.91	187.24
367.11	163.84
367.31	128.73
367.51	203.63
367.70	149.79
367.90	196.60
368.10	159.16
368.30	145.11
368.49	154.48
368.69	168.52
368.89	159.16
369.09	154.48
369.28	243.42
369.48	184.90
369.68	205.97
369.87	212.99
370.07	229.37
370.27	283.20
370.47	304.27
370.66	470.45
370.86	510.24
371.06	533.64
371.25	580.45
371.45	557.05
371.65	524.28
371.84	486.83
372.04	557.05
372.24	571.09
372.44	559.39
372.63	615.56
372.83	615.56
373.03	603.86
373.22	678.76
373.42	543.00
373.62	671.73
373.81	580.45
374.01	608.54
374.21	662.37
374.40	594.50
374.60	575.77
374.79	671.73
374.99	564.07
375.19	580.45
375.38	645.99
375.58	709.18
375.78	730.25
375.97	681.10
376.17	692.80
376.37	695.14
376.56	777.06
376.76	645.99
376.95	699.82
377.15	751.31
377.35	739.61
377.54	755.99
377.74	706.84
377.93	706.84
378.13	704.50
378.33	727.91
378.52	676.41
378.72	641.31
378.91	753.65
379.11	730.25
379.31	671.73
379.50	751.31
379.70	814.51
379.89	763.01
380.09	641.31
380.28	784.08
380.48	795.78
380.68	755.99
380.87	627.26
381.07	660.03
381.26	791.10
381.46	786.42
381.65	781.74
381.85	723.23
382.04	699.82
382.24	758.33
382.43	781.74
382.63	802.80
382.83	753.65
383.02	870.68
383.22	877.70
383.41	758.33
383.61	835.57
383.80	873.02
384.00	770.04
384.19	781.74
384.39	851.96
384.58	851.96
384.78	723.23
384.97	833.23
385.17	894.08
385.36	814.51
385.56	833.23
385.75	821.53
385.95	795.78
386.14	870.68
386.34	922.17
386.53	849.61
386.72	819.19
386.92	844.93
387.11	830.89
387.31	910.47
387.50	823.87
387.70	936.21
387.89	908.13
388.09	833.23
388.28	954.94
388.48	877.70
388.67	938.55
388.86	961.96
389.06	933.87
389.25	961.96
389.45	891.74
389.64	943.24
389.84	997.07
390.03	1001.75
390.22	929.19
390.42	1011.11
390.61	966.64
390.81	957.28
391.00	971.32
391.19	997.07
391.39	985.37
391.58	1104.73
391.78	971.32
391.97	1053.24
392.16	992.39
392.36	1057.92
392.55	1102.39
392.75	978.34
392.94	1046.22
393.13	1043.88
393.33	1029.84
393.52	1135.16
393.71	1139.84
393.91	1074.31
394.10	1107.07
394.29	1102.39
394.49	1128.14
394.68	1090.69
394.88	1203.04
395.07	1193.67
395.26	1132.82
395.46	1160.91
395.65	1177.29
395.84	1252.19
396.04	1179.63
396.23	1179.63
396.42	1200.69
396.62	1310.70
396.81	1170.27
397.00	1228.78
397.19	1284.95
397.39	1266.23
397.58	1322.40
397.77	1284.95
397.97	1233.46
398.16	1224.10
398.35	1378.58
398.55	1287.29
398.74	1362.19
398.93	1252.19
399.12	1350.49
399.32	1301.34
399.51	1235.80
399.70	1416.02
399.90	1334.11
400.09	1392.62
400.28	1444.11
400.47	1387.94
400.67	1437.09
400.86	1343.47
401.05	1397.30
401.24	1413.68
401.44	1472.20
401.63	1481.56
401.82	1472.20
402.01	1406.66
402.21	1441.77
402.40	1476.88
402.59	1462.83
402.78	1465.18
402.97	1493.26
403.17	1530.71
403.36	1439.43
403.55	1511.99
403.74	1593.90
403.93	1556.46
404.13	1603.27
404.32	1558.80
404.51	1511.99
404.70	1605.61
404.89	1640.72
405.09	1671.14
405.28	1678.16
405.47	1717.95
405.66	1741.36
405.85	1774.13
406.05	1706.25
406.24	1776.47
406.43	1790.51
406.62	1755.40
406.81	1905.20
407.00	1851.36
407.20	1708.59
407.39	1813.92
407.58	1825.62
407.77	1846.68
407.96	1916.90
408.15	1837.32
408.34	1895.83
408.54	2062.01
408.73	1912.22
408.92	1902.86
409.11	1858.39
409.30	1959.03
409.49	2019.88
409.68	2066.69
409.87	1989.46
410.07	2108.82
410.26	2115.84
410.45	2099.46
410.64	2115.84
410.83	2181.38
411.02	2115.84
411.21	2221.17
411.40	2218.83
411.59	2195.42
411.78	2122.87
411.98	2272.66
412.17	2251.60
412.36	2277.34
412.55	2370.96
412.74	2260.96
412.93	2370.96
413.12	2275.00
413.31	2401.39
413.50	2333.51
413.69	2396.71
413.88	2490.33
414.07	2490.33
414.26	2551.18
414.45	2523.10
414.64	2567.57
414.83	2497.35
415.02	2602.68
415.22	2600.34
415.41	2691.62
415.60	2654.17
415.79	2726.72
415.98	2768.85
416.17	2733.75
416.36	2752.47
416.55	2729.06
416.74	2733.75
416.93	2839.07
417.12	2834.39
417.31	2855.45
417.50	2925.67
417.69	2916.31
417.88	3033.33
418.07	2979.50
418.26	2991.20
418.45	3023.97
418.64	3192.49
418.83	3052.06
419.02	3112.91
419.21	3112.91
419.39	3103.55
419.58	3052.06
419.77	3255.69
419.96	3225.26
420.15	3262.71
420.34	3197.17
420.53	3197.17
420.72	3274.41
420.91	3321.22
421.10	3260.37
421.29	3346.97
421.48	3260.37
421.67	3288.45
421.86	3171.43
422.05	3300.16
422.24	3361.01
422.43	3372.71
422.61	3325.90
422.80	3412.50
422.99	3353.99
423.18	3534.21
423.37	3419.52
423.56	3541.23
423.75	3529.53
423.94	3258.03
424.13	3236.96
424.32	3218.24
424.50	3454.63
424.69	3618.47
424.88	3428.88
425.07	3396.12
425.26	3482.72
425.45	3503.78
425.64	3501.44
425.83	3471.01
426.01	3714.43
426.20	3538.89
426.39	3400.80
426.58	3438.25
426.77	3471.01
426.96	3585.70
427.15	3590.38
427.33	3473.36
427.52	3527.19
427.71	3623.15
427.90	3585.70
428.09	3744.86
428.28	3777.62
428.46	3681.66
428.65	3674.64
428.84	3798.69
429.03	3803.37
429.22	3674.64
429.40	3845.50
429.59	3845.50
429.78	3716.77
429.97	3707.41
430.16	3880.61
430.34	3782.31
430.53	3946.14
430.72	3920.40
430.91	3948.48
431.10	3995.29
431.28	4025.72
431.47	3983.59
431.66	4018.70
431.85	3894.65
432.03	4161.47
432.22	4131.05
432.41	4016.36
432.60	4156.79
432.79	4163.81
432.97	4133.39
433.16	4163.81
433.35	4227.01
433.54	4152.11
433.72	4184.88
433.91	4159.13
434.10	4215.30
434.28	4245.73
434.47	4280.84
434.66	4313.61
434.85	4358.08
435.03	4461.06
435.22	4409.57
435.41	4463.40
435.59	4322.97
435.78	4484.47
435.97	4461.06
436.16	4369.78
436.34	4416.59
436.53	4505.53
436.72	4592.13
436.90	4430.63
437.09	4533.62
437.28	4557.02
437.46	4664.69
437.65	4638.94
437.84	4704.48
438.02	4571.07
438.21	4674.05
438.40	4784.06
438.58	4802.78
438.77	4875.34
438.96	4870.65
439.14	4873.00
439.33	5034.49
439.52	4912.78
439.70	4863.63
439.89	5057.90
440.08	5076.62
440.26	5025.13
440.45	5055.56
440.63	5064.92
440.82	5195.99
441.01	5128.11
441.19	5130.45
441.38	5284.93
441.57	5195.99
441.75	5338.76
441.94	5439.40
442.12	5462.81
442.31	5579.84
442.50	5521.32
442.68	5537.71
442.87	5558.77
443.05	5493.24
443.24	5666.44
443.43	5659.42
443.61	5652.39
443.80	5874.74
443.98	5282.59
444.17	5378.55
444.35	5556.43
444.54	5804.53
444.73	5767.08
444.91	5673.46
445.10	5816.23
445.28	5586.86
445.47	5631.33
445.65	5617.29
445.84	5881.77
446.02	5795.17
446.21	5809.21
446.39	5647.71
446.58	5790.49
446.77	5860.70
446.95	5617.29
447.14	5781.12
447.32	5856.02
447.51	5832.62
447.69	5636.01
447.88	5727.29
448.06	5853.68
448.25	5856.02
448.43	5919.21
448.62	5891.13
448.80	5764.74
448.99	5891.13
449.17	6022.20
449.36	5776.44
449.54	6078.37
449.73	6094.76
449.91	6104.12
450.10	6022.20
450.28	6200.08
450.46	6122.84
450.65	6181.35
450.83	6139.23
451.02	5996.45
451.20	6197.74
451.39	6108.80
451.57	6141.57
451.76	6129.86
451.94	6305.40
452.13	6345.19
452.31	6321.79
452.49	6293.70
452.68	6326.47
452.86	6272.64
453.05	6340.51
453.23	6532.44
453.42	6413.07
453.60	6260.93
453.78	6408.39
453.97	6457.54
454.15	6544.14
454.34	6417.75
454.52	6466.90
454.70	6722.02
454.89	6565.20
455.07	6717.34
455.26	6590.95
455.44	6759.47
455.62	6612.01
455.81	6857.77
455.99	6778.19
456.17	6848.41
456.36	6895.22
456.54	6899.90
456.73	6942.03
456.91	7157.36
457.09	6974.80
457.28	7225.23
457.46	6986.50
457.64	7155.02
457.83	7180.76
458.01	7145.66
458.19	7274.38
458.38	7239.28
458.56	7213.53
458.74	7255.66
458.93	7248.64
459.11	7337.58
459.29	7236.94
459.48	7236.94
459.66	7236.94
459.84	7353.96
460.03	7494.40
460.21	7255.66
460.39	7538.87
460.57	7485.03
460.76	7442.90
460.94	7648.87
461.12	7599.72
461.31	7552.91
461.49	7524.82
461.67	7679.30
461.85	7733.13
462.04	7805.69
462.22	8140.38
462.40	7819.73
462.59	7918.03
462.77	7733.13
462.95	8056.12
463.13	7960.16
463.32	7859.52
463.50	7777.60
463.68	7918.03
463.86	8205.92
464.05	7976.55
464.23	7803.35
464.41	8011.65
464.59	7880.58
464.78	8262.09
464.96	8135.70
465.14	8145.06
465.32	8156.77
465.50	8138.04
465.69	8124.00
465.87	8121.66
466.05	8013.99
466.23	8098.25
466.41	8226.98
466.60	8585.08
466.78	8226.98
466.96	8163.79
467.14	8191.88
467.32	8355.71
467.51	8393.16
467.69	8304.22
467.87	8360.39
468.05	8400.18
468.23	8383.80
468.41	8442.31
468.60	8784.03
468.78	8863.61
468.96	8636.58
469.14	8599.13
469.32	8610.83
469.50	8538.27
469.69	8856.59
469.87	8802.75
470.05	8596.79
470.23	8891.70
470.41	8870.63
470.59	9032.13
470.77	8865.95
470.95	8987.66
471.14	8826.16
471.32	8917.44
471.50	9114.05
471.68	9069.58
471.86	9041.49
472.04	9135.11
472.22	9359.80
472.40	9202.99
472.58	9095.32
472.77	9411.29
472.95	9490.87
473.13	9818.55
473.31	9408.95
473.49	9577.47
473.67	9558.75
473.85	9591.52
474.03	9832.59
474.21	9757.69
474.39	9914.51
474.57	9872.38
474.75	10221.12
474.93	10087.71
475.12	9816.21
475.30	10115.80
475.48	9970.68
475.66	10186.01
475.84	10040.90
476.02	10382.62
476.20	10134.52
476.38	10609.65
476.56	10574.54
476.74	10787.53
476.92	10682.20
477.10	10509.01
477.28	10602.63
477.46	10752.42
477.64	10902.22
477.82	11293.08
478.00	11187.76
478.18	11105.84
478.36	11344.58
478.54	11527.14
478.72	11543.52
478.90	11669.91
479.08	11550.54
479.26	11845.45
479.44	11634.80
479.62	11901.62
479.80	11826.73
479.98	12079.50
480.16	12257.39
480.34	12297.17
480.52	12315.90
480.70	12353.35
480.88	12217.60
481.06	12428.24
481.24	12645.91
481.41	12549.95
481.59	12999.34
481.77	13018.06
481.95	13053.17
482.13	12980.61
482.31	12994.65
482.49	13415.95
482.67	13420.63
482.85	13650.00
483.03	13727.24
483.21	13785.76
483.39	13846.61
483.57	14015.13
483.74	13980.02
483.92	13928.53
484.10	14040.87
484.28	14361.53
484.46	14679.84
484.64	14808.57
484.82	14569.83
485.00	14750.06
485.18	14780.48
485.35	15108.16
485.53	15246.25
485.71	15211.14
485.89	15557.54
486.07	15232.21
486.25	15344.55
486.43	15644.14
486.61	15765.85
486.78	15850.11
486.96	16119.27
487.14	16353.32
487.32	16336.94
487.50	16379.07
487.68	16460.99
487.85	16821.43
488.03	16919.73
488.21	17104.64
488.39	17006.33
488.57	17216.98
488.75	17287.20
488.92	17565.72
489.10	17649.98
489.28	17921.48
489.46	18082.98
489.64	17692.11
489.81	18155.54
489.99	18284.26
490.17	18167.24
490.35	18689.18
490.53	18668.11
490.70	18888.12
490.88	18888.12
491.06	19176.01
491.24	18902.17
491.41	19461.55
491.59	19639.44
491.77	19183.03
491.95	19641.78
492.13	19545.81
492.30	20002.22
492.48	19878.17
492.66	20180.10
492.84	20133.29
493.01	20182.44
493.19	20528.84
493.37	20346.28
493.54	20709.06
493.72	20870.56
493.90	20830.77
494.08	20943.11
494.25	21291.85
494.43	21362.07
494.61	21238.02
494.79	21659.32
494.96	21441.65
495.14	21743.58
495.32	22260.84
495.49	21685.06
495.67	22272.54
495.85	22302.96
496.02	22530.00
496.20	22455.10
496.38	22546.38
496.55	22632.98
496.73	23239.18
496.91	22799.16
497.09	23271.95
497.26	23356.21
497.44	23185.35
497.62	23503.66
497.79	23456.85
497.97	23410.04
498.14	23433.44
498.32	23744.73
498.50	23859.42
498.67	24098.16
498.85	24102.84
499.03	24339.23
499.20	24341.57
499.38	24329.87
499.56	24463.28
499.73	24526.47
499.91	24606.05
500.08	24882.24
500.26	24631.80
500.44	24730.10
500.61	24968.84
500.79	24858.83
500.97	25462.69
501.14	25874.62
501.32	25556.31
501.49	25542.27
501.67	25888.67
501.84	25640.57
502.02	25816.11
502.20	25886.32
502.37	25717.81
502.55	25809.09
502.72	26045.48
502.90	26082.93
503.07	25961.22
503.25	26508.91
503.43	26136.76
503.60	26787.43
503.78	26864.67
503.95	26618.91
504.13	26541.68
504.30	26948.93
504.48	27033.19
504.65	26958.29
504.83	27171.28
505.01	27353.84
505.18	27377.25
505.36	27669.81
505.53	27257.88
505.71	27779.82
505.88	27576.19
506.06	27562.15
506.23	27826.63
506.41	27955.36
506.58	27688.54
506.76	27950.68
506.93	28379.00
507.11	28339.21
507.28	28446.87
507.46	28336.87
507.63	28751.14
507.81	28858.81
507.98	28519.43
508.16	28680.92
508.33	28959.45
508.50	29013.28
508.68	29003.92
508.85	29380.74
509.03	28900.94
509.20	29254.36
509.38	29645.23
509.55	29502.45
509.73	29553.94
509.90	29586.71
510.08	29448.62
510.25	29883.96
510.42	29942.47
510.60	30246.74
510.77	30127.38
510.95	30628.25
511.12	29958.86
511.30	30335.68
511.47	30354.41
511.64	30300.58
511.82	30932.52
511.99	30419.94
512.17	30859.96
512.34	30836.56
512.51	31037.84
512.69	31211.04
512.86	31274.24
513.04	31112.74
513.21	30925.50
513.38	31482.55
513.56	31463.82
513.73	31594.89
513.90	31515.31
514.08	31278.92
514.25	31800.86
514.43	31826.60
514.60	31807.88
514.77	31758.73
514.95	32278.33
515.12	31735.32
515.29	32257.26
515.47	32470.25
515.64	32467.91
515.81	31913.20
515.99	32481.95
516.16	32910.27
516.33	32912.61
516.51	32746.44
516.68	32357.91
516.85	32992.19
517.03	32811.97
517.20	33031.98
517.37	33017.94
517.54	33347.95
517.72	33057.73
517.89	33287.10
518.06	33268.37
518.24	33701.37
518.41	33488.38
518.58	33371.36
518.75	33415.83
518.93	33752.87
519.10	33659.24
519.27	33897.98
519.45	33476.68
519.62	33893.30
519.79	34122.67
519.96	34129.69
520.14	34366.09
520.31	33914.36
520.48	34445.66
520.65	34632.91
520.83	34653.97
521.00	34607.16
521.17	34728.87
521.34	34719.51
521.52	34937.18
521.69	34876.32
521.86	35082.29
522.03	35262.51
522.20	35042.50
522.38	35241.45
522.55	35236.77
522.72	35531.67
522.89	35796.15
523.07	35683.81
523.24	35538.69
523.41	35494.22
523.58	35468.48
523.75	36023.19
523.92	35796.15
524.10	36023.19
524.27	35758.70
524.44	36381.29
524.61	36268.94
524.78	36266.60
524.96	36430.44
525.13	36542.78
525.30	36411.71
525.47	36737.05
525.64	36297.03
525.81	36725.35
525.98	36634.06
526.16	36816.63
526.33	36751.09
526.50	37022.59
526.67	36273.62
526.84	36727.69
527.01	37029.62
527.18	37284.73
527.36	37092.81
527.53	37015.57
527.70	37036.64
527.87	37450.91
528.04	37500.06
528.21	37474.32
528.38	36870.46
528.55	37876.89
528.72	37574.96
528.89	37706.03
529.07	37329.20
529.24	37134.94
529.41	37827.74
529.58	37633.47
529.75	37476.66
529.92	38066.47
530.09	37385.38
530.26	37897.95
530.43	37954.13
530.60	37972.85
530.77	37855.82
530.94	38122.65
531.11	38153.07
531.28	38220.95
531.46	38050.09
531.63	38052.43
531.80	38487.77
531.97	38265.42
532.14	38522.88
532.31	38822.47
532.48	38557.99
532.65	39005.03
532.82	38803.74
532.99	38920.77
533.16	38916.09
533.33	38895.02
533.50	39110.35
533.67	38873.96
533.84	38913.75
534.01	38986.30
534.18	39459.09
534.35	39732.93
534.52	39321.00
534.69	39704.85
534.86	39426.32
535.03	39138.44
535.20	39618.25
535.37	39955.29
535.54	39941.24
535.71	39639.31
535.88	40013.80
536.05	39491.86
536.22	40238.49
536.38	39871.03
536.55	39983.37
536.72	40011.46
536.89	39758.68
537.06	40147.21
537.23	40701.92
537.40	40332.11
537.57	40421.05
537.74	40252.53
537.91	40596.59
538.08	40399.99
538.25	40346.15
538.42	40472.54
538.59	40783.83
538.75	40711.28
538.92	41106.83
539.09	40940.65
539.26	40617.66
539.43	40830.65
539.60	41326.84
539.77	41120.87
539.94	41191.09
540.11	41055.34
540.28	41071.72
540.44	41345.56
540.61	41195.77
540.78	41134.92
540.95	41450.89
541.12	40886.82
541.29	41209.81
541.46	41567.91
541.62	41097.47
541.79	41586.64
541.96	41474.29
542.13	40910.22
542.30	41713.03
542.47	41518.76
542.63	41638.13
542.80	42192.84
542.97	42246.67
543.14	42546.26
543.31	42340.29
543.48	41689.62
543.64	42508.81
543.81	42600.09
543.98	42473.70
544.15	42206.88
544.32	42314.55
544.48	42742.86
544.65	42665.63
544.82	42630.52
544.99	42082.83
545.16	42618.81
545.32	42667.97
545.49	43222.67
545.66	43201.61
545.83	43196.93
546.00	43246.08
546.16	42855.21
546.33	42852.87
546.50	43143.09
546.67	43295.23
546.83	42429.23
547.00	42745.20
547.17	42780.31
547.34	43236.72
547.50	43543.33
547.67	43313.95
547.84	43082.24
548.00	43346.72
548.17	43899.09
548.34	43171.18
548.51	43590.14
548.67	43922.49
548.84	43154.80
549.01	43786.74
549.18	43653.33
549.34	43761.00
549.51	43587.80
549.68	43524.60
549.84	44027.82
550.01	44041.86
550.18	43927.17
550.34	44116.76
550.51	43856.96
550.68	44076.97
550.84	44091.01
551.01	44657.42
551.18	44062.93
551.34	44109.74
551.51	44318.04
551.68	44203.36
551.84	44156.55
552.01	43981.01
552.18	44243.15
552.34	44175.27
552.51	44198.68
552.68	44444.43
552.84	44451.45
553.01	44741.68
553.18	44531.03
553.34	44446.77
553.51	44514.65
553.67	44947.65
553.84	44662.10
554.01	44921.90
554.17	44889.13
554.34	44954.67
554.51	44729.98
554.67	44907.86
554.84	45095.10
555.00	45050.63
555.17	45069.36
555.33	44809.56
555.50	45230.85
555.67	45034.25
555.83	45448.52
556.00	45024.89
556.16	45591.30
556.33	44921.90
556.50	45411.07
556.66	45277.66
556.83	45153.62
556.99	45235.53
557.16	45088.08
557.32	45453.20
557.49	45092.76
557.65	45233.19
557.82	45406.39
557.98	45560.87
558.15	45485.97
558.32	45710.66
558.48	45347.88
558.65	45851.09
558.81	46122.60
558.98	45331.50
559.14	45984.51
559.31	45556.19
559.47	45673.21
559.64	45432.14
559.80	45701.30
559.97	45539.80
560.13	45535.12
560.30	46157.70
560.46	46429.21
560.63	45881.52
560.79	45998.55
560.96	46302.82
561.12	46213.88
561.29	46036.00
561.45	46354.31
561.61	45996.21
561.78	45844.07
561.94	45729.39
562.11	45757.47
562.27	46319.20
562.44	46031.32
562.60	46146.00
562.77	46131.96
562.93	46185.79
563.10	46408.14
563.26	46033.66
563.42	46300.48
563.59	45949.40
563.75	46316.86
563.92	46581.34
564.08	46117.92
564.24	46532.19
564.41	46265.37
564.57	46415.16
564.74	46698.37
564.90	46082.81
565.07	46323.88
565.23	46319.20
565.39	46461.97
565.56	46817.74
565.72	46213.88
565.88	46667.94
566.05	46286.43
566.21	46443.25
566.38	46703.05
566.54	46667.94
566.70	46323.88
566.87	46567.30
567.03	46749.86
567.19	46595.38
567.36	47063.49
567.52	46564.96
567.68	47033.07
567.85	46955.83
568.01	47030.72
568.17	46644.54
568.34	46930.08
568.50	46658.58
568.66	46440.91
568.83	47012.00
568.99	46761.56
569.15	46761.56
569.32	47133.71
569.48	46932.42
569.64	47241.37
569.81	47330.31
569.97	47021.36
570.13	47334.99
570.30	46719.43
570.46	46887.95
570.62	47178.18
570.78	46927.74
570.95	46892.63
571.11	47007.32
571.27	46789.65
571.43	46822.42
571.60	47330.31
571.76	46948.81
571.92	47129.03
572.09	46880.93
572.25	46576.66
572.41	47210.95
572.57	46953.49
572.74	47587.77
572.90	47346.70
573.06	47243.71
573.22	47615.86
573.38	47262.44
573.55	47372.44
573.71	47756.29
573.87	47536.28
574.03	47592.45
574.20	47473.09
574.36	47456.70
574.52	47552.66
574.68	47330.31
574.84	47571.39
575.01	47665.01
575.17	47650.97
575.33	47386.49
575.49	47187.54
575.65	47292.86
575.82	47524.58
575.98	47150.09
576.14	47299.89
576.30	47414.57
576.46	47449.68
576.62	47449.68
576.79	47213.29
576.95	46958.17
577.11	46827.10
577.27	47243.71
577.43	47716.50
577.59	47379.46
577.75	47569.05
577.92	47164.14
578.08	47255.42
578.24	47377.12
578.40	47517.56
578.56	47760.97
578.72	47604.16
578.88	47494.15
579.04	47845.23
579.21	47346.70
579.37	47297.55
579.53	47487.13
579.69	47285.84
579.85	47196.90
580.01	47402.87
580.17	47550.32
580.33	47859.27
580.49	47484.79
580.65	47545.64
580.82	47643.94
580.98	47421.59
581.14	47686.07
581.30	47412.23
581.46	47515.22
581.62	47721.18
581.78	47510.53
581.94	47482.45
582.10	47487.13
582.26	47833.53
582.42	47971.62
582.58	47634.58
582.74	47760.97
582.90	47826.51
583.06	48032.47
583.22	47657.99
583.38	47674.37
583.54	47756.29
583.70	47892.04
583.86	47599.47
584.02	47550.32
584.18	47899.06
584.34	47915.45
584.50	47826.51
584.66	47880.34
584.82	47576.07
584.98	47831.19
585.14	47821.83
585.30	47793.74
585.46	47679.05
585.62	47665.01
585.78	48128.44
585.94	47526.92
586.10	47344.36
586.26	47573.73
586.42	47927.15
586.58	47772.67
586.74	47690.76
586.90	47716.50
587.06	47751.61
587.22	47735.23
587.38	47725.86
587.54	48147.16
587.70	48224.40
587.86	47765.65
588.02	47697.78
588.18	47660.33
588.34	47936.51
588.49	47980.98
588.65	47824.17
588.81	47707.14
588.97	47903.74
589.13	47915.45
589.29	47894.38
589.45	48257.17
589.61	48296.95
589.77	48130.78
589.93	47892.04
590.08	48032.47
590.24	48170.57
590.40	48301.64
590.56	48219.72
590.72	47786.72
590.88	47887.36
591.04	47892.04
591.20	48296.95
591.35	48034.81
591.51	48741.66
591.67	48058.22
591.83	48264.19
591.99	48411.64
592.15	48392.92
592.31	47885.02
592.46	48186.95
592.62	48126.10
592.78	48456.11
592.94	48596.54
593.10	48779.10
593.26	48542.71
593.41	48149.50
593.57	48449.09
593.73	48666.76
593.89	48734.63
594.05	48751.02
594.20	48594.20
594.36	48624.63
594.52	48519.31
594.68	48336.74
594.84	48662.08
594.99	48413.98
595.15	48259.51
595.31	48619.95
595.47	48385.89
595.62	48886.77
595.78	48797.83
595.94	48708.89
596.10	48374.19
596.25	48376.53
596.41	48912.52
596.57	48516.96
596.73	48622.29
596.88	48559.09
597.04	48718.25
597.20	48767.40
597.36	48605.91
597.51	48587.18
597.67	48531.01
597.83	48217.38
597.99	48406.96
598.14	48687.82
598.30	48624.63
598.46	48804.85
598.61	48626.97
598.77	48399.94
598.93	48893.79
599.09	48498.24
599.24	48755.70
599.40	48533.35
599.56	48676.12
599.71	48809.53
599.87	49359.56
600.03	49085.72
600.18	48507.60
600.34	48676.12
600.50	48760.38
600.65	48650.38
600.81	48774.42
600.97	49020.18
601.12	48725.27
601.28	48533.35
601.44	48865.70
601.59	48421.00
601.75	48203.33
601.91	48783.79
602.06	48966.35
602.22	48924.22
602.37	48526.33
602.53	48697.19
602.69	48821.23
602.84	48729.95
603.00	48626.97
603.16	48648.03
603.31	48367.17
603.47	48774.42
603.62	48975.71
603.78	48917.20
603.94	48523.99
604.09	49008.48
604.25	48631.65
604.40	48694.85
604.56	48751.02
604.71	48739.32
604.87	48423.34
605.03	48545.05
605.18	48554.41
605.34	49038.90
605.49	48449.09
605.65	48739.32
605.80	48542.71
605.96	48430.36
606.12	48802.51
606.27	48641.01
606.43	48545.05
606.58	48491.22
606.74	48507.60
606.89	48596.54
607.05	48350.79
607.20	48732.29
607.36	48769.74
607.51	48533.35
607.67	48376.53
607.82	48140.14
607.98	48437.39
608.13	48430.36
608.29	48348.45
608.44	48453.77
608.60	48514.62
608.75	48481.86
608.91	48385.89
609.06	48383.55
609.22	48732.29
609.37	48210.35
609.53	48554.41
609.68	48868.05
609.84	48484.20
609.99	48236.10
610.15	48671.44
610.30	48924.22
610.46	48294.61
610.61	48554.41
610.76	48435.05
610.92	48217.38
611.07	47728.20
611.23	47931.83
611.38	47959.92
611.54	48273.55
611.69	48341.42
611.84	48481.86
612.00	48102.69
612.15	48090.99
612.31	48516.96
612.46	48175.25
612.62	48299.30
612.77	47667.35
612.92	48250.14
613.08	48095.67
613.23	48168.22
613.39	48107.37
613.54	47908.43
613.69	48107.37
613.85	47964.60
614.00	48362.49
614.15	48760.38
614.31	47730.54
614.46	47803.10
614.62	47892.04
614.77	48083.97
614.92	47643.94
615.08	47760.97
615.23	47760.97
615.38	48130.78
615.54	47693.10
615.69	47585.43
615.84	47646.29
616.00	47985.66
616.15	48055.88
616.30	47629.90
616.46	47688.42
616.61	47604.16
616.76	47608.84
616.92	47990.34
617.07	47983.32
617.22	47901.40
617.37	47786.72
617.53	47393.51
617.68	47412.23
617.83	47920.13
617.99	48123.75
618.14	47557.35
618.29	47445.00
618.45	47526.92
618.60	47545.64
618.75	47643.94
618.90	47613.52
619.06	47454.36
619.21	47470.75
619.36	47873.32
619.51	47217.97
619.67	47143.07
619.82	47529.26
619.97	47550.32
620.12	47117.32
620.28	47133.71
620.43	47473.09
620.58	47395.85
620.73	47859.27
620.89	47702.46
621.04	47466.06
621.19	47276.48
621.34	46979.23
621.49	46852.84
621.65	47274.14
621.80	47690.76
621.95	46969.87
622.10	46864.55
622.25	46686.67
622.41	46742.84
622.56	47304.57
622.71	47370.10
622.86	47131.37
623.01	46979.23
623.16	47007.32
623.32	46990.94
623.47	47054.13
623.62	47077.54
623.77	47124.35
623.92	47751.61
624.07	47208.61
624.23	46993.28
624.38	47257.76
624.53	46873.91
624.68	46616.45
624.83	46586.02
624.98	47098.60
625.13	46555.60
625.29	46665.60
625.44	47168.82
625.59	46658.58
625.74	46574.32
625.89	46532.19
626.04	46506.44
626.19	46574.32
626.34	46600.07
626.49	46440.91
626.65	45902.59
626.80	46373.03
626.95	46082.81
627.10	46188.13
627.25	46637.51
627.40	46440.91
627.55	46244.30
627.70	46192.81
627.85	46511.13
628.00	46227.92
628.15	46621.13
628.30	45790.24
628.45	45715.34
628.60	45778.54
628.76	45989.19
628.91	45776.20
629.06	45776.20
629.21	45734.07
629.36	45879.18
629.51	45986.85
629.66	46206.86
629.81	45628.74
629.96	45797.26
630.11	45968.12
630.26	45422.78
630.41	45488.31
630.56	45605.34
630.71	46047.70
630.86	45759.81
631.01	45237.87
631.16	45935.35
631.31	45406.39
631.46	45411.07
631.61	45949.40
631.76	45893.22
631.91	45502.35
632.06	45904.93
632.21	45511.72
632.36	45830.03
632.51	45287.03
632.66	45581.93
632.81	45029.57
632.96	45394.69
633.10	45284.68
633.25	45492.99
633.40	45240.21
633.55	45518.74
633.70	45464.91
633.85	45268.30
634.00	45104.46
634.15	45310.43
634.30	45113.83
634.45	45167.66
634.60	45277.66
634.75	45287.03
634.90	45055.31
635.05	45361.92
635.19	45148.93
635.34	45567.89
635.49	45130.21
635.64	45308.09
635.79	45198.09
635.94	44765.09
636.09	45017.86
636.24	45048.29
636.39	45172.34
636.53	44921.90
636.68	44914.88
636.83	44261.87
636.98	44666.78
637.13	44612.95
637.28	44650.40
637.43	44516.99
637.57	44772.11
637.72	44795.51
637.87	44280.60
638.02	44788.49
638.17	44722.96
638.32	44556.78
638.46	44273.57
638.61	44285.28
638.76	44776.79
638.91	44275.91
639.06	44177.61
639.20	44032.50
639.35	44114.42
639.50	44088.67
639.65	44128.46
639.80	44350.81
639.94	44381.24
640.09	44292.30
640.24	44456.14
640.39	44076.97
640.54	43608.86
640.68	44357.83
640.83	44369.54
640.98	44194.00
641.13	44098.03
641.27	44353.15
641.42	44238.47
641.57	44170.59
641.72	43882.70
641.86	43971.64
642.01	43749.29
642.16	43887.39
642.31	43636.95
642.45	44334.43
642.60	43400.55
642.75	44135.48
642.90	44128.46
643.04	44046.54
643.19	43763.34
643.34	43606.52
643.48	43370.13
643.63	43786.74
643.78	43557.37
643.93	43817.17
644.07	43709.50
644.22	43412.26
644.37	43189.91
644.51	43945.90
644.66	43241.40
644.81	43578.43
644.95	43309.27
645.10	43817.17
645.25	43508.22
645.39	43414.60
645.54	43225.01
645.69	43208.63
645.83	42944.15
645.98	43386.51
646.13	42969.90
646.27	43110.33
646.42	43042.45
646.57	42667.97
646.71	42775.63
646.86	43330.34
647.00	43374.81
647.15	44058.24
647.30	43320.98
647.44	43000.32
647.59	43030.75
647.74	42967.55
647.88	42869.25
648.03	43346.72
648.17	43096.28
648.32	42799.04
648.47	43250.76
648.61	42684.35
648.76	42541.58
648.90	42431.57
649.05	42674.99
649.20	42831.80
649.34	43056.50
649.49	42941.81
649.63	42686.69
649.78	42415.19
649.92	42562.64
650.07	43292.89
650.21	43126.71
650.36	42831.80
650.51	42775.63
650.65	42862.23
650.80	42604.77
650.94	42721.80
651.09	42293.48
651.23	42092.19
651.38	42600.09
651.52	42141.35
651.67	42562.64
651.81	42010.28
651.96	42597.75
652.10	42216.24
652.25	41897.93
652.39	41738.77
652.54	42253.69
652.68	41855.80
652.83	42354.33
652.97	42192.84
653.12	42167.09
653.26	41942.40
653.41	42134.32
653.55	42206.88
653.70	42103.90
653.84	42611.79
653.99	42094.53
654.13	42153.05
654.27	41923.68
654.42	42075.81
654.56	41588.98
654.71	42251.35
654.85	41752.82
655.00	42080.49
655.14	41771.54
655.29	41799.63
655.43	42178.79
655.57	41916.65
655.72	40755.75
655.86	41624.09
656.01	41619.41
656.15	41429.82
656.30	41528.13
656.44	41654.51
656.58	42057.09
656.73	41155.98
656.87	41317.48
657.01	41359.61
657.16	41050.66
657.30	41123.21
657.45	41130.23
657.59	40673.83
657.73	40818.94
657.88	41177.04
658.02	41385.35
658.16	41923.68
658.31	41263.64
658.45	41095.13
658.60	40715.96
658.74	41310.46
658.88	40996.82
659.03	40528.72
659.17	40959.38
659.31	40561.48
659.46	40631.70
659.60	40957.03
659.74	40676.17
659.89	40371.90
660.03	40442.12
660.17	40720.64
660.32	40425.73
660.46	40297.00
660.60	40112.10
660.74	40568.51
660.89	40596.59
661.03	39920.18
661.17	39966.99
661.32	40112.10
661.46	40491.27
661.60	40226.79
661.74	40369.56
661.89	39817.19
662.03	40360.20
662.17	40030.18
662.31	39632.29
662.46	39948.26
662.60	40011.46
662.74	39346.75
662.88	39772.72
663.03	39683.78
663.17	39601.86
663.31	39178.23
663.45	39037.80
663.60	39959.97
663.74	39313.98
663.88	39201.63
664.02	38979.28
664.17	39407.60
664.31	38960.56
664.45	38995.67
664.59	39129.08
664.73	38990.98
664.88	39136.10
665.02	38623.52
665.16	38733.53
665.30	38616.50
665.44	38611.82
665.59	38525.22
665.73	38155.41
665.87	38323.93
666.01	38295.85
666.15	38447.98
666.29	38277.12
666.44	38536.92
666.58	38614.16
666.72	37610.07
666.86	38232.65
667.00	38307.55
667.14	37813.70
667.28	37787.95
667.43	37893.27
667.57	38146.05
667.71	38108.60
667.85	38040.73
667.99	37883.91
668.13	37464.96
668.27	37446.23
668.41	37446.23
668.56	37317.50
668.70	37179.41
668.84	37050.68
668.98	37057.70
669.12	37680.28
669.26	37064.72
669.40	37216.86
669.54	36966.42
669.68	37106.85
669.82	37228.56
669.96	36587.25
670.10	36718.32
670.25	36580.23
670.39	36348.52
670.53	36847.05
670.67	36236.17
670.81	36407.03
670.95	36708.96
671.09	36531.08
671.23	35899.14
671.37	36224.47
671.51	36039.57
671.65	35959.99
671.79	35854.67
671.93	35819.56
672.07	36231.49
672.21	35793.81
672.35	35754.02
672.49	35534.01
672.63	35374.86
672.77	35056.54
672.91	35861.69
673.05	35356.13
673.19	35063.57
673.33	35096.33
673.47	35314.00
673.61	34682.06
673.75	34635.25
673.89	34316.93
674.03	34714.83
674.17	34398.85
674.31	34527.58
674.45	34478.43
674.59	34031.39
674.73	34218.63
674.87	34129.69
675.01	33865.21
675.15	33961.17
675.29	33804.36
675.43	33504.77
675.56	34174.16
675.70	33792.65
675.84	33799.68
675.98	32580.26
676.12	33455.62
676.26	33317.53
676.40	33420.51
676.54	33046.02
676.68	32929.00
676.82	32718.35
676.96	33078.79
677.10	33202.84
677.23	32945.38
677.37	33003.89
677.51	32706.65
677.65	32280.67
677.79	32376.63
677.93	32360.25
678.07	32622.39
678.21	31747.03
678.34	31938.95
678.48	31557.44
678.62	31676.81
678.76	31449.78
678.90	31662.77
679.04	31456.80
679.18	31812.56
679.31	30864.64
679.45	31248.49
679.59	31126.78
679.73	31133.81
679.87	30951.24
680.00	31058.91
680.14	31063.59
680.28	30668.04
680.42	30897.41
680.56	30937.20
680.70	30132.06
680.83	29949.50
680.97	29893.32
681.11	30368.45
681.25	29839.49
681.39	29692.04
681.52	29853.53
681.66	29404.15
681.80	29214.57
681.94	29118.60
682.07	29022.64
682.21	29223.93
682.35	28987.53
682.49	28673.90
682.62	29343.30
682.76	28919.66
682.90	28849.44
683.04	28968.81
683.17	28374.31
683.31	28339.21
683.45	28116.86
683.59	28446.87
683.72	28184.73
683.86	28023.23
684.00	28041.96
684.13	28142.60
684.27	27480.23
684.41	27543.42
684.55	27662.79
684.68	27821.95
684.82	27161.92
684.96	27178.30
685.09	27314.05
685.23	27250.86
685.37	27435.76
685.50	27208.73
685.64	27330.44
685.78	27290.65
685.91	26719.56
686.05	26136.76
686.19	25961.22
686.32	26314.64
686.46	25930.80
686.60	25661.63
686.73	26092.29
686.87	25605.46
687.01	25942.50
687.14	25970.58
687.28	25539.93
687.42	26015.05
687.55	25343.32
687.69	25553.97
687.82	24968.84
687.96	25041.39
688.10	25338.64
688.23	25050.75
688.37	25296.51
688.50	25156.08
688.64	25050.75
688.78	24524.13
688.91	24788.61
689.05	24027.94
689.18	24273.70
689.32	24098.16
689.46	24203.48
689.59	23969.43
689.73	24231.57
689.86	24524.13
690.00	23824.31
690.13	24044.32
690.27	23564.51
690.41	23674.52
690.54	23651.11
690.68	23248.54
690.81	23077.68
690.95	23400.68
691.08	23208.75
691.22	22658.73
691.35	22682.13
691.49	23178.33
691.62	23026.19
691.76	22693.83
691.89	22405.95
692.03	22492.55
692.16	21912.10
692.30	22057.21
692.43	21914.44
692.57	21593.78
692.70	22108.70
692.84	22061.89
692.97	21659.32
693.11	21591.44
693.24	21067.16
693.38	21502.50
693.51	21315.26
693.65	21523.57
693.78	21205.25
693.92	21041.42
694.05	20762.89
694.19	20966.52
694.32	20734.81
694.45	21106.95
694.59	20737.15
694.72	20966.52
694.86	20327.55
694.99	20018.60
695.13	20315.85
695.26	20123.93
695.39	19719.01
695.53	19936.68
695.66	20140.31
695.80	19948.39
695.93	19707.31
696.07	19843.06
696.20	19396.02
696.33	18794.50
696.47	19133.88
696.60	19033.24
696.73	19419.42
696.87	19173.67
697.00	19311.76
697.14	19037.92
697.27	18810.89
697.40	18707.90
697.54	18740.67
697.67	18677.48
697.80	18789.82
697.94	18476.19
698.07	18279.58
698.21	18244.48
698.34	18420.02
698.47	18401.29
698.61	17724.88
698.74	17752.96
698.87	17722.54
699.01	17516.57
699.14	17731.90
699.27	17467.42
699.40	17418.27
699.54	17467.42
699.67	17436.99
699.80	17331.67
699.94	17195.92
700.07	17415.93
700.20	16940.80
700.34	16783.98
700.47	17071.87
700.60	17132.72
700.73	16884.62
700.87	16500.78
701.00	16575.67
701.13	16500.78
701.26	16098.20
701.40	16475.03
701.53	16093.52
701.66	16107.57
701.79	15974.16
701.93	15957.77
702.06	15756.49
702.19	15489.67
702.32	15913.30
702.46	15740.10
702.59	15903.94
702.72	15712.02
702.85	15800.96
702.99	15215.82
703.12	15393.70
703.25	15180.71
703.38	15171.35
703.51	15215.82
703.65	14899.85
703.78	14771.12
703.91	14640.05
704.04	14588.56
704.17	14707.93
704.31	14394.29
704.44	14185.99
704.57	14712.61
704.70	14373.23
704.83	14396.64
704.96	14504.30
705.10	14328.76
705.23	14003.43
>>>>>End Processed Spectral Data<<<<<
