SpectraSuite Data File
++++++++++++++++++++++++++++++++++++
Date: Fri Oct 25 10:43:27 EDT 2013
User: price-jones
Dark Spectrum Present: No
Reference Spectrum Present: No
Number of Sampled Component Spectra: 1
Spectrometers: USB2+H05261
Integration Time (usec): 100000 (USB2+H05261)
Spectra Averaged: 1 (USB2+H05261)
Boxcar Smoothing: 0 (USB2+H05261)
Correct for Electrical Dark: No (USB2+H05261)
Strobe/Lamp Enabled: No (USB2+H05261)
Correct for Detector Non-linearity: No (USB2+H05261)
Correct for Stray Light: No (USB2+H05261)
Number of Pixels in Processed Spectrum: 2048
>>>>>Begin Processed Spectral Data<<<<<
365.73	77.24
365.92	77.24
366.12	77.24
366.32	70.22
366.52	0.00
366.72	23.41
366.91	0.00
367.11	0.00
367.31	72.56
367.51	16.38
367.70	0.00
367.90	28.09
368.10	0.00
368.30	53.83
368.49	14.04
368.69	42.13
368.89	35.11
369.09	46.81
369.28	91.28
369.48	0.00
369.68	140.43
369.87	93.62
370.07	67.88
370.27	133.41
370.47	119.37
370.66	311.29
370.86	353.42
371.06	458.74
371.25	440.02
371.45	423.64
371.65	440.02
371.84	423.64
372.04	519.60
372.24	475.13
372.44	489.17
372.63	514.92
372.83	500.87
373.03	517.26
373.22	519.60
373.42	482.15
373.62	503.22
373.81	580.45
374.01	629.60
374.21	643.65
374.40	606.20
374.60	552.37
374.79	592.16
374.99	512.58
375.19	601.52
375.38	643.65
375.58	599.18
375.78	571.09
375.97	566.41
376.17	660.03
376.37	620.24
376.56	601.52
376.76	596.84
376.95	631.94
377.15	690.46
377.35	557.05
377.54	653.01
377.74	641.31
377.93	660.03
378.13	676.41
378.33	650.67
378.52	578.11
378.72	737.27
378.91	645.99
379.11	596.84
379.31	580.45
379.50	571.09
379.70	671.73
379.89	676.41
380.09	629.60
380.28	727.91
380.48	716.20
380.68	645.99
380.87	650.67
381.07	695.14
381.26	706.84
381.46	697.48
381.65	706.84
381.85	664.71
382.04	631.94
382.24	725.57
382.43	807.48
382.63	713.86
382.83	681.10
383.02	657.69
383.22	732.59
383.41	641.31
383.61	683.44
383.80	777.06
384.00	716.20
384.19	779.40
384.39	784.08
384.58	854.30
384.78	779.40
384.97	786.42
385.17	751.31
385.36	875.36
385.56	823.87
385.75	814.51
385.95	873.02
386.14	856.64
386.34	924.51
386.53	828.55
386.72	741.95
386.92	891.74
387.11	858.98
387.31	870.68
387.50	772.38
387.70	795.78
387.89	917.49
388.09	884.72
388.28	847.27
388.48	887.06
388.67	915.15
388.86	1013.45
389.06	943.24
389.25	945.58
389.45	924.51
389.64	929.19
389.84	938.55
390.03	994.73
390.22	868.34
390.42	947.92
390.61	945.58
390.81	1060.26
391.00	1008.77
391.19	1013.45
391.39	1062.60
391.58	1074.31
391.78	1018.13
391.97	1022.81
392.16	973.66
392.36	1029.84
392.55	1041.54
392.75	1055.58
392.94	1011.11
393.13	1029.84
393.33	903.45
393.52	1083.67
393.71	1053.24
393.91	1090.69
394.10	1064.94
394.29	1130.48
394.49	1128.14
394.68	1144.52
394.88	1240.48
395.07	1224.10
395.26	1294.32
395.46	1158.57
395.65	1193.67
395.84	1245.16
396.04	1224.10
396.23	1130.48
396.42	1107.07
396.62	1121.12
396.81	1188.99
397.00	1104.73
397.19	1207.72
397.39	1299.00
397.58	1352.83
397.77	1289.64
397.97	1303.68
398.16	1441.77
398.35	1348.15
398.55	1359.85
398.74	1490.92
398.93	1530.71
399.12	1430.07
399.32	1460.49
399.51	1430.07
399.70	1380.92
399.90	1507.30
400.09	1537.73
400.28	1446.45
400.47	1675.82
400.67	1680.50
400.86	1586.88
401.05	1629.01
401.24	1584.54
401.44	1640.72
401.63	1694.55
401.82	1668.80
402.01	1694.55
402.21	1708.59
402.40	1699.23
402.59	1703.91
402.78	1640.72
402.97	1727.32
403.17	1715.61
403.36	1792.85
403.55	1858.39
403.74	1804.55
403.93	1846.68
404.13	1818.60
404.32	1858.39
404.51	1771.79
404.70	1900.52
404.89	1795.19
405.09	1832.64
405.28	1940.30
405.47	1937.96
405.66	1968.39
405.85	1891.15
406.05	1952.01
406.24	1977.75
406.43	1982.43
406.62	2012.86
406.81	2143.93
407.00	2101.80
407.20	2118.18
407.39	1984.77
407.58	2026.90
407.77	2115.84
407.96	2146.27
408.15	2221.17
408.34	2120.53
408.54	2181.38
408.73	2291.38
408.92	2218.83
409.11	2279.68
409.30	2272.66
409.49	2228.19
409.68	2190.74
409.87	2186.06
410.07	2338.20
410.26	2211.81
410.45	2443.52
410.64	2424.80
410.83	2478.63
411.02	2464.58
411.21	2635.44
411.40	2553.52
411.59	2593.31
411.78	2516.08
411.98	2480.97
412.17	2597.99
412.36	2525.44
412.55	2644.81
412.74	2715.02
412.93	2612.04
413.12	2621.40
413.31	2698.64
413.50	2647.15
413.69	2867.16
413.88	2946.73
414.07	2904.60
414.26	2951.42
414.45	3021.63
414.64	2937.37
414.83	2958.44
415.02	2958.44
415.22	2949.08
415.41	3096.53
415.60	3002.91
415.79	3089.51
415.98	3068.44
416.17	3150.36
416.36	3033.33
416.55	3260.37
416.74	3304.84
416.93	3091.85
417.12	3159.72
417.31	3225.26
417.50	3152.70
417.69	3431.23
417.88	3353.99
418.07	3447.61
418.26	3262.71
418.45	3398.46
418.64	3510.80
418.83	3529.53
419.02	3559.95
419.21	3651.24
419.39	3438.25
419.58	3494.42
419.77	3426.54
419.96	3494.42
420.15	3564.64
420.34	3571.66
420.53	3712.09
420.72	3735.50
420.91	3644.21
421.10	3712.09
421.29	3763.58
421.48	3782.31
421.67	3786.99
421.86	3653.58
422.05	3843.16
422.24	3880.61
422.43	3747.20
422.61	3705.07
422.80	3847.84
422.99	3847.84
423.18	3899.33
423.37	3805.71
423.56	3815.07
423.75	3847.84
423.94	3733.15
424.13	3644.21
424.32	3559.95
424.50	3932.10
424.69	3969.55
424.88	4023.38
425.07	3817.41
425.26	3744.86
425.45	3796.35
425.64	3845.50
425.83	3803.37
426.01	4086.58
426.20	3983.59
426.39	3887.63
426.58	3911.04
426.77	3887.63
426.96	3950.82
427.15	3639.53
427.33	4105.30
427.52	4018.70
427.71	4058.49
427.90	4039.76
428.09	4081.89
428.28	3983.59
428.46	4121.68
428.65	4117.00
428.84	4224.67
429.03	4238.71
429.22	3936.78
429.40	4016.36
429.59	3988.27
429.78	3866.56
429.97	3889.97
430.16	3971.89
430.34	4081.89
430.53	4065.51
430.72	4156.79
430.91	4042.11
431.10	4297.22
431.28	4414.25
431.47	4486.81
431.66	4566.39
431.85	4428.29
432.03	4489.15
432.22	4606.17
432.41	4573.41
432.60	4557.02
432.79	4557.02
432.97	4650.64
433.16	4751.29
433.35	4519.57
433.54	4437.66
433.72	4547.66
433.91	4594.47
434.10	4526.60
434.28	4711.50
434.47	4774.69
434.66	4739.58
434.85	4823.84
435.03	4933.85
435.22	4910.44
435.41	4919.81
435.59	5057.90
435.78	4950.23
435.97	5158.54
436.16	5015.77
436.34	5050.88
436.53	4940.87
436.72	5034.49
436.90	5104.71
437.09	5057.90
437.28	5034.49
437.46	5240.46
437.65	4985.34
437.84	5156.20
438.02	5123.43
438.21	5083.64
438.40	5149.18
438.58	5486.22
438.77	5245.14
438.96	5282.59
439.14	5570.48
439.33	5509.62
439.52	5572.82
439.70	5441.75
439.89	5427.70
440.08	5614.95
440.26	5607.92
440.45	5614.95
440.63	5771.76
440.82	5818.57
441.01	5841.98
441.19	5755.38
441.38	5867.72
441.57	6047.94
441.75	6097.10
441.94	6204.76
442.12	6312.42
442.31	6167.31
442.50	6197.74
442.68	6300.72
442.87	6195.40
443.05	6115.82
443.24	6457.54
443.43	6235.19
443.61	6375.62
443.80	6539.46
443.98	6324.13
444.17	6047.94
444.35	6464.56
444.54	6527.75
444.73	6497.33
444.91	6462.22
445.10	6408.39
445.28	6328.81
445.47	6270.30
445.65	6274.98
445.84	6455.20
446.02	6466.90
446.21	6443.49
446.39	6450.52
446.58	6389.66
446.77	6541.80
446.95	6270.30
447.14	6590.95
447.32	6572.22
447.51	6640.10
447.69	6497.33
447.88	6590.95
448.06	6499.67
448.25	6506.69
448.43	6764.15
448.62	6497.33
448.80	6679.89
448.99	6630.74
449.17	6726.70
449.36	6562.86
449.54	6773.51
449.73	7016.93
449.91	7124.59
450.10	7063.74
450.28	7066.08
450.46	7098.84
450.65	7133.95
450.83	7049.69
451.02	6904.58
451.20	7073.10
451.39	7101.19
451.57	7117.57
451.76	7005.22
451.94	7192.47
452.13	7124.59
452.31	7119.91
452.49	7061.40
452.68	7150.34
452.86	6956.07
453.05	7131.61
453.23	7229.91
453.42	7215.87
453.60	7162.04
453.78	7468.65
453.97	7382.05
454.15	7236.94
454.34	7241.62
454.52	7463.97
454.70	7536.52
454.89	7503.76
455.07	7487.37
455.26	7552.91
455.44	7686.32
455.62	7550.57
455.81	7527.16
455.99	7756.54
456.17	7644.19
456.36	7674.62
456.54	7688.66
456.73	7873.56
456.91	7850.16
457.09	7899.31
457.28	7964.84
457.46	7859.52
457.64	7882.92
457.83	7941.44
458.01	7894.63
458.19	7995.27
458.38	7913.35
458.56	8236.35
458.74	8046.76
458.93	8145.06
459.11	8124.00
459.29	8161.45
459.48	8091.23
459.66	8081.87
459.84	8271.45
460.03	8374.44
460.21	8287.84
460.39	8400.18
460.57	8388.48
460.76	8320.60
460.94	8381.46
461.12	8437.63
461.31	8655.30
461.49	8688.07
461.67	8601.47
461.85	8734.88
462.04	8788.71
462.22	9057.87
462.40	8709.13
462.59	8636.58
462.77	8664.66
462.95	8746.58
463.13	8772.33
463.32	8830.84
463.50	8791.05
463.68	8959.57
463.86	8678.71
464.05	8709.13
464.23	8854.25
464.41	8936.17
464.59	8624.87
464.78	9151.49
464.96	8999.36
465.14	8830.84
465.32	8896.38
465.50	9200.65
465.69	9151.49
465.87	9130.43
466.05	8936.17
466.23	8922.12
466.41	8994.68
466.60	9193.62
466.78	9043.83
466.96	8933.82
467.14	9191.28
467.32	9142.13
467.51	9273.20
467.69	9046.17
467.87	9004.04
468.05	9221.71
468.23	9191.28
468.41	9320.01
468.60	9427.68
468.78	9659.39
468.96	9329.38
469.14	9551.73
469.32	9652.37
469.50	9413.63
469.69	9605.56
469.87	9607.90
470.05	9736.63
470.23	9750.67
470.41	9612.58
470.59	9701.52
470.77	9703.86
470.95	9643.01
471.14	9839.61
471.32	9774.08
471.50	10246.87
471.68	10127.50
471.86	10078.35
472.04	10122.82
472.22	10466.88
472.40	10345.17
472.58	10167.29
472.77	10509.01
472.95	10186.01
473.13	10815.62
473.31	10298.36
473.49	10438.79
473.67	10326.44
473.85	10562.84
474.03	10738.38
474.21	10810.93
474.39	10909.24
474.57	10970.09
474.75	10988.82
474.93	10970.09
475.12	10930.30
475.30	11117.54
475.48	11030.94
475.66	11030.94
475.84	10998.18
476.02	11171.38
476.20	11215.85
476.38	11220.53
476.56	11641.82
476.74	11693.32
476.92	11524.80
477.10	11510.75
477.28	11775.24
477.46	11808.00
477.64	11990.56
477.82	11948.43
478.00	12397.82
478.18	12306.54
478.36	12585.06
478.54	12521.87
478.72	12500.80
478.90	12816.77
479.08	12989.97
479.26	12966.57
479.44	12861.24
479.62	13092.96
479.80	13022.74
479.98	13149.13
480.16	13404.25
480.34	13537.66
480.52	13453.40
480.70	13525.96
480.88	13422.97
481.06	13404.25
481.24	13813.84
481.41	13970.66
481.59	14303.01
481.77	14017.47
481.95	14153.22
482.13	14396.64
482.31	14214.07
482.49	14810.91
482.67	14607.28
482.85	14712.61
483.03	14745.38
483.21	14986.45
483.39	15377.32
483.57	14916.23
483.74	15253.27
483.92	15297.74
484.10	15279.02
484.28	15550.52
484.46	15805.64
484.64	15927.35
484.82	15609.03
485.00	16063.10
485.18	16060.76
485.35	16348.64
485.53	15953.09
485.71	15917.98
485.89	16060.76
486.07	16156.72
486.25	16147.36
486.43	16606.10
486.61	16875.26
486.78	17039.10
486.96	16989.95
487.14	17399.54
487.32	17446.35
487.50	17593.81
487.68	17879.35
487.85	18106.38
488.03	18188.30
488.21	18401.29
488.39	18209.37
488.57	18281.92
488.75	18656.41
488.92	18829.61
489.10	18845.99
489.28	19192.39
489.46	18934.93
489.64	19325.80
489.81	20170.74
489.99	19990.52
490.17	19814.98
490.35	20128.61
490.53	19957.75
490.70	20140.31
490.88	20088.82
491.06	20482.03
491.24	20559.27
491.41	20444.58
491.59	20491.39
491.77	20360.32
491.95	20566.29
492.13	20680.97
492.30	21205.25
492.48	21436.97
492.66	21455.69
492.84	21425.26
493.01	21888.69
493.19	21752.94
493.37	21565.70
493.54	22015.08
493.72	22448.08
493.90	21837.20
494.08	22230.41
494.25	22885.76
494.43	22799.16
494.61	23234.50
494.79	23068.32
494.96	22941.93
495.14	23129.17
495.32	23379.61
495.49	23349.18
495.67	23566.85
495.85	23562.17
496.02	23859.42
496.20	23559.83
496.38	23927.30
496.55	23960.06
496.73	24638.82
496.91	24189.44
497.09	24657.54
497.26	24809.68
497.44	24273.70
497.62	25097.56
497.79	24807.34
497.97	24936.07
498.14	25083.52
498.32	25057.78
498.50	25261.40
498.67	25853.56
498.85	25645.25
499.03	25766.96
499.20	25865.26
499.38	25345.66
499.56	25923.77
499.73	26139.10
499.91	25979.95
500.08	25965.90
500.26	25975.27
500.44	26239.75
500.61	26228.04
500.79	26403.58
500.97	26141.44
501.14	26920.84
501.32	26635.30
501.49	26698.49
501.67	26513.59
501.84	27175.96
502.02	27103.40
502.20	26789.77
502.37	27580.87
502.55	27246.18
502.72	27391.29
502.90	27573.85
503.07	27505.98
503.25	27723.65
503.43	27728.33
503.60	27473.21
503.78	27702.58
503.95	27702.58
504.13	27864.08
504.30	28254.95
504.48	28027.92
504.65	28500.70
504.83	28650.50
505.01	28804.97
505.18	28629.43
505.36	29216.91
505.53	29053.07
505.71	28886.89
505.88	29209.89
506.06	28849.44
506.23	29296.49
506.41	28891.57
506.58	29429.90
506.76	28914.98
506.93	29675.65
507.11	29460.32
507.28	30038.44
507.46	29734.17
507.63	29958.86
507.81	29944.81
507.98	29441.60
508.16	29883.96
508.33	30043.12
508.50	30195.25
508.68	30450.37
508.85	31049.55
509.03	30326.32
509.20	30668.04
509.38	31077.63
509.55	31049.55
509.73	30824.86
509.90	30890.39
510.08	31049.55
510.25	30871.67
510.42	31288.28
510.60	30920.82
510.77	31672.13
510.95	31625.32
511.12	31360.84
511.30	31723.62
511.47	31559.78
511.64	31651.06
511.82	31950.65
511.99	31758.73
512.17	32091.09
512.34	32098.11
512.51	32126.19
512.69	32025.55
512.86	32369.61
513.04	32568.55
513.21	32418.76
513.38	32240.88
513.56	32734.73
513.73	31749.37
513.90	32807.29
514.08	32360.25
514.25	32582.60
514.43	33036.66
514.60	32893.89
514.77	32723.03
514.95	33092.83
515.12	32891.55
515.29	33392.42
515.47	33303.48
515.64	33804.36
515.81	32655.15
515.99	33362.00
516.16	33305.82
516.33	33001.55
516.51	33209.86
516.68	32950.06
516.85	32708.99
517.03	33294.12
517.20	33603.07
517.37	33724.78
517.54	34153.10
517.72	34036.07
517.89	33364.34
518.06	33701.37
518.24	33343.27
518.41	33961.17
518.58	33998.62
518.75	33979.90
518.93	34328.64
519.10	34272.46
519.27	34735.89
519.45	34490.13
519.62	34756.96
519.79	35138.46
519.96	34553.33
520.14	35159.53
520.31	34862.28
520.48	34686.74
520.65	34829.51
520.83	35559.76
521.00	35718.92
521.17	35332.73
521.34	35683.81
521.52	36180.00
521.69	35658.06
521.86	35913.18
522.03	35899.14
522.20	35775.09
522.38	35983.40
522.55	36205.75
522.72	35522.31
522.89	35920.20
523.07	36016.16
523.24	36275.96
523.41	36102.76
523.58	36446.82
523.75	36961.74
523.92	36610.66
524.10	36479.59
524.27	36481.93
524.44	36704.28
524.61	36598.96
524.78	37198.13
524.96	37031.96
525.13	37008.55
525.30	37153.66
525.47	37368.99
525.64	36861.10
525.81	36893.86
525.98	36954.72
526.16	36987.49
526.33	36849.39
526.50	37120.90
526.67	36526.40
526.84	37046.00
527.01	36755.77
527.18	37294.10
527.36	37530.49
527.53	37497.72
527.70	38043.07
527.87	38000.94
528.04	37680.28
528.21	37614.75
528.38	37961.15
528.55	38700.76
528.72	38143.71
528.89	38600.12
529.07	38220.95
529.24	37834.76
529.41	38366.06
529.58	38522.88
529.75	38211.59
529.92	38684.37
530.09	39021.41
530.26	38576.71
530.43	38785.02
530.60	38855.23
530.77	38749.91
530.94	38953.54
531.11	38675.01
531.28	39033.11
531.46	38890.34
531.63	38998.01
531.80	38852.89
531.97	39159.50
532.14	38675.01
532.31	38380.10
532.48	38808.42
532.65	38953.54
532.82	38672.67
532.99	39346.75
533.16	39033.11
533.33	39353.77
533.50	39208.65
533.67	39576.12
533.84	38967.58
534.01	39225.04
534.18	39501.22
534.35	39641.65
534.52	39318.66
534.69	39632.29
534.86	39388.88
535.03	39601.86
535.20	40156.57
535.37	40477.22
535.54	40442.12
535.71	40060.61
535.88	40631.70
536.05	40327.43
536.22	40488.93
536.38	40722.98
536.55	40058.27
536.72	39899.11
536.89	39924.86
537.06	40540.42
537.23	40605.95
537.40	40388.28
537.57	40430.41
537.74	40472.54
537.91	40961.72
538.08	40807.24
538.25	40294.66
538.42	40453.82
538.59	40767.45
538.75	40870.43
538.92	40790.86
539.09	41024.91
539.26	40800.22
539.43	41193.43
539.60	40591.91
539.77	40524.04
539.94	40563.82
540.11	40891.50
540.28	40945.33
540.44	40928.95
540.61	40697.24
540.78	40627.02
540.95	41106.83
541.12	41071.72
541.29	41017.89
541.46	41280.03
541.62	40931.29
541.79	41352.58
541.96	41017.89
542.13	41151.30
542.30	41553.87
542.47	41691.96
542.63	41577.28
542.80	41560.89
542.97	41979.85
543.14	42143.69
543.31	41961.12
543.48	41841.76
543.64	42188.16
543.81	42000.91
543.98	42181.13
544.15	42515.83
544.32	42080.49
544.48	42792.01
544.65	42424.55
544.82	42244.33
544.99	42040.70
545.16	42232.63
545.32	42300.50
545.49	42431.57
545.66	42995.64
545.83	42520.51
546.00	42525.19
546.16	42487.74
546.33	42337.95
546.50	42447.96
546.67	43236.72
546.83	42115.60
547.00	42564.98
547.17	42965.21
547.34	42529.87
547.50	42777.97
547.67	43480.13
547.84	43524.60
548.00	43292.89
548.17	43405.23
548.34	42932.45
548.51	43796.10
548.67	43384.17
548.84	43166.50
549.01	43405.23
549.18	42925.42
549.34	43386.51
549.51	43262.46
549.68	43320.98
549.84	43164.16
550.01	43440.34
550.18	43339.70
550.34	43023.73
550.51	43786.74
550.68	43723.55
550.84	42831.80
551.01	43426.30
551.18	43393.53
551.34	43365.45
551.51	43580.78
551.68	43791.42
551.84	43632.27
552.01	43428.64
552.18	43950.58
552.34	42944.15
552.51	43936.54
552.68	43709.50
552.84	43990.37
553.01	43969.30
553.18	43868.66
553.34	44236.12
553.51	44411.67
553.67	44130.80
553.84	44409.32
554.01	44626.99
554.17	44315.70
554.34	44289.96
554.51	43737.59
554.67	44425.71
554.84	44570.82
555.00	44006.75
555.17	43962.28
555.33	43931.86
555.50	44744.02
555.67	44629.34
555.83	43922.49
556.00	44481.88
556.16	44753.38
556.33	44252.51
556.50	43936.54
556.66	44521.67
556.83	43667.37
556.99	44706.57
557.16	44570.82
557.32	44584.86
557.49	44292.30
557.65	44383.58
557.82	44215.06
557.98	44905.52
558.15	44610.61
558.32	44896.16
558.48	44547.42
558.65	44364.85
558.81	44690.19
558.98	44779.13
559.14	44154.21
559.31	44329.75
559.47	44729.98
559.64	44795.51
559.80	44751.04
559.97	44767.43
560.13	44514.65
560.30	44769.77
560.46	45106.80
560.63	45001.48
560.79	44526.35
560.96	45368.94
561.12	44952.33
561.29	44477.20
561.45	44828.28
561.61	44659.76
561.78	44687.85
561.94	44978.07
562.11	44582.52
562.27	44720.62
562.44	45324.47
562.60	44816.58
562.77	44940.63
562.93	45076.38
563.10	45230.85
563.26	45162.98
563.42	44980.42
563.59	45064.67
563.75	45043.61
563.92	45132.55
564.08	45085.74
564.24	45181.70
564.41	44889.13
564.57	44870.41
564.74	45340.86
564.90	45212.13
565.07	45443.84
565.23	45308.09
565.39	45158.30
565.56	45359.58
565.72	44861.05
565.88	44940.63
566.05	44926.58
566.21	45289.37
566.38	45265.96
566.54	45347.88
566.70	45656.83
566.87	45710.66
567.03	45504.70
567.19	45579.59
567.36	45759.81
567.52	45200.43
567.68	45378.31
567.85	45448.52
568.01	45371.28
568.17	45380.65
568.34	45600.66
568.50	45289.37
568.66	44849.35
568.83	45296.39
568.99	45291.71
569.15	45193.40
569.32	45411.07
569.48	45345.54
569.64	45537.46
569.81	45673.21
569.97	45436.82
570.13	45551.51
570.30	44954.67
570.46	45471.93
570.62	44821.26
570.78	44989.78
570.95	44954.67
571.11	45041.27
571.27	45401.71
571.43	45258.94
571.60	44999.14
571.76	45284.68
571.92	45354.90
572.09	45549.17
572.25	45617.04
572.41	45701.30
572.57	45453.20
572.74	45890.88
572.90	45350.22
573.06	45783.22
573.22	45539.80
573.38	45345.54
573.55	45481.29
573.71	45736.41
573.87	45471.93
574.03	45404.05
574.20	45528.10
574.36	45612.36
574.52	45502.35
574.68	45490.65
574.84	45696.62
575.01	45717.68
575.17	45017.86
575.33	45247.24
575.49	45193.40
575.65	45647.47
575.82	45397.03
575.98	45207.45
576.14	45736.41
576.30	45474.27
576.46	45382.99
576.62	45331.50
576.79	45595.98
576.95	45390.01
577.11	45804.28
577.27	45752.79
577.43	45460.23
577.59	45132.55
577.75	45420.44
577.92	45294.05
578.08	44996.80
578.24	45333.84
578.40	45436.82
578.56	45619.38
578.72	45734.07
578.88	45741.09
579.04	46227.92
579.21	45633.42
579.37	45879.18
579.53	45778.54
579.69	45291.71
579.85	45476.61
580.01	45492.99
580.17	45137.23
580.33	45717.68
580.49	46040.68
580.65	45537.46
580.82	45755.13
580.98	45518.74
581.14	45759.81
581.30	45982.16
581.46	45942.38
581.62	45867.48
581.78	45635.77
581.94	46340.27
582.10	45895.56
582.26	45500.01
582.42	45792.58
582.58	45598.32
582.74	45947.06
582.90	45956.42
583.06	45745.77
583.22	45848.75
583.38	46010.25
583.54	46134.30
583.70	45841.73
583.86	46014.93
584.02	45645.13
584.18	45591.30
584.34	45705.98
584.50	45921.31
584.66	45710.66
584.82	45593.64
584.98	45677.90
585.14	45799.60
585.30	45467.25
585.46	45675.55
585.62	45413.41
585.78	45392.35
585.94	45453.20
586.10	45617.04
586.26	45834.71
586.42	45881.52
586.58	45806.62
586.74	45839.39
586.90	45280.00
587.06	46043.02
587.22	45691.94
587.38	45666.19
587.54	45673.21
587.70	46344.95
587.86	45701.30
588.02	45406.39
588.18	46101.53
588.34	45193.40
588.49	45317.45
588.65	45397.03
588.81	45010.84
588.97	45020.20
589.13	45137.23
589.29	45137.23
589.45	45631.08
589.61	45312.77
589.77	46017.27
589.93	45727.05
590.08	45333.84
590.24	45986.85
590.40	45925.99
590.56	46188.13
590.72	45638.11
590.88	45675.55
591.04	46019.61
591.20	46216.22
591.35	45972.80
591.51	46089.83
591.67	45787.90
591.83	45558.53
591.99	45640.45
592.15	45738.75
592.31	45975.14
592.46	45933.01
592.62	45666.19
592.78	45862.80
592.94	45951.74
593.10	45888.54
593.26	45722.37
593.41	45736.41
593.57	46117.92
593.73	45710.66
593.89	46239.62
594.05	45951.74
594.20	45626.40
594.36	46213.88
594.52	45813.65
594.68	45968.12
594.84	45411.07
594.99	45942.38
595.15	46043.02
595.31	46117.92
595.47	46225.58
595.62	45825.35
595.78	46078.13
595.94	46014.93
596.10	45720.02
596.25	45736.41
596.41	46010.25
596.57	45897.91
596.73	45804.28
596.88	45542.14
597.04	45872.16
597.20	46199.83
597.36	46234.94
597.51	46199.83
597.67	45872.16
597.83	45574.91
597.99	46080.47
598.14	45780.88
598.30	45656.83
598.46	45860.46
598.61	45986.85
598.77	45865.14
598.93	45848.75
599.09	45736.41
599.24	46113.23
599.40	45930.67
599.56	45902.59
599.71	46192.81
599.87	46454.95
600.03	46223.24
600.18	45925.99
600.34	45614.70
600.50	45628.74
600.65	45624.06
600.81	45703.64
600.97	45724.71
601.12	45827.69
601.28	46319.20
601.44	45581.93
601.59	45769.18
601.75	45539.80
601.91	45200.43
602.06	45317.45
602.22	46120.26
602.37	45935.35
602.53	46096.85
602.69	46293.46
602.84	46003.23
603.00	45687.26
603.16	45984.51
603.31	45378.31
603.47	45427.46
603.62	45970.46
603.78	46000.89
603.94	46106.21
604.09	46117.92
604.25	45860.46
604.40	45586.61
604.56	46185.79
604.71	46281.75
604.87	45797.26
605.03	45851.09
605.18	45895.56
605.34	45659.17
605.49	45343.20
605.65	45701.30
605.80	45385.33
605.96	45773.86
606.12	46176.43
606.27	46141.32
606.43	45755.13
606.58	45750.45
606.74	45261.28
606.89	45511.72
607.05	46026.63
607.20	45656.83
607.36	45617.04
607.51	45762.15
607.67	45691.94
607.82	45610.02
607.98	45429.80
608.13	45439.16
608.29	45406.39
608.44	45647.47
608.60	45277.66
608.75	45378.31
608.91	45322.13
609.06	45104.46
609.22	45673.21
609.37	45219.15
609.53	45893.22
609.68	45902.59
609.84	45336.18
609.99	45315.11
610.15	45090.42
610.30	45462.57
610.46	44839.98
610.61	45059.99
610.76	45684.92
610.92	45586.61
611.07	45366.60
611.23	45713.00
611.38	45366.60
611.54	45116.17
611.69	44886.79
611.84	45099.78
612.00	44975.73
612.15	44999.14
612.31	45118.51
612.46	44891.48
612.62	45329.16
612.77	45048.29
612.92	45446.18
613.08	45017.86
613.23	44987.44
613.39	44858.71
613.54	44772.11
613.69	44786.15
613.85	44516.99
614.00	44481.88
614.15	44847.00
614.31	44678.49
614.46	45050.63
614.62	44957.01
614.77	44739.34
614.92	44825.94
615.08	44699.55
615.23	44711.25
615.38	44383.58
615.54	44177.61
615.69	44238.47
615.84	44402.30
616.00	44266.55
616.15	44706.57
616.30	44755.72
616.46	44252.51
616.61	44243.15
616.76	44315.70
616.92	43800.79
617.07	43973.98
617.22	44355.49
617.37	44179.95
617.53	44554.44
617.68	44655.08
617.83	44112.08
617.99	44128.46
618.14	44484.22
618.29	44175.27
618.45	44046.54
618.60	44149.53
618.75	43814.83
618.90	43899.09
619.06	44060.58
619.21	43929.51
619.36	44168.25
619.51	44411.67
619.67	43875.68
619.82	43817.17
619.97	43798.44
620.12	43578.43
620.28	43526.94
620.43	43948.24
620.58	43849.94
620.73	43627.59
620.89	43749.29
621.04	44299.32
621.19	43814.83
621.34	43353.74
621.49	43498.86
621.65	43838.23
621.80	43854.62
621.95	43697.80
622.10	43772.70
622.25	43964.62
622.41	43473.11
622.56	43302.25
622.71	43688.44
622.86	43594.82
623.01	43335.02
623.16	43402.89
623.32	43440.34
623.47	43461.41
623.62	43166.50
623.77	43395.87
623.92	43225.01
624.07	42824.78
624.23	42792.01
624.38	42953.51
624.53	42754.57
624.68	42895.00
624.83	43058.84
624.98	43033.09
625.13	42696.05
625.29	42550.94
625.44	43166.50
625.59	42815.42
625.74	42726.48
625.89	42300.50
626.04	42895.00
626.19	42426.89
626.34	43009.68
626.49	43082.24
626.65	42464.34
626.80	43178.20
626.95	42628.18
627.10	42457.32
627.25	42342.63
627.40	43037.77
627.55	42410.51
627.70	42588.39
627.85	42270.08
628.00	42469.02
628.15	42588.39
628.30	42291.14
628.45	42656.26
628.60	42251.35
628.76	42127.30
628.91	42546.26
629.06	42043.04
629.21	41862.82
629.36	41654.51
629.51	41823.03
629.66	42522.85
629.81	41858.14
629.96	41977.51
630.11	41596.00
630.26	42092.19
630.41	41923.68
630.56	42216.24
630.71	42101.56
630.86	42113.26
631.01	41366.63
631.16	41741.11
631.31	41771.54
631.46	41434.50
631.61	41806.65
631.76	41911.97
631.91	41654.51
632.06	42337.95
632.21	41701.32
632.36	41951.76
632.51	41813.67
632.66	41736.43
632.81	41483.66
632.96	41713.03
633.10	41340.88
633.25	41991.55
633.40	41343.22
633.55	41694.30
633.70	41574.94
633.85	41118.53
634.00	41469.61
634.15	41383.01
634.30	41177.04
634.45	41188.75
634.60	40840.01
634.75	41193.43
634.90	40905.54
635.05	41043.63
635.19	41179.39
635.34	41352.58
635.49	41240.24
635.64	41244.92
635.79	40905.54
635.94	40421.05
636.09	41017.89
636.24	40479.57
636.39	40762.77
636.53	40814.26
636.68	40409.35
636.83	40404.67
636.98	40601.27
637.13	40231.47
637.28	41020.23
637.43	40987.46
637.57	40975.76
637.72	40123.80
637.87	40701.92
638.02	40596.59
638.17	40664.47
638.32	40624.68
638.46	40617.66
638.61	40170.61
638.76	40142.53
638.91	40226.79
639.06	41036.61
639.20	40495.95
639.35	40891.50
639.50	39887.41
639.65	40610.64
639.80	40442.12
639.94	40327.43
640.09	40037.20
640.24	40081.67
640.39	40020.82
640.54	40034.86
640.68	39739.96
640.83	39976.35
640.98	39608.89
641.13	39831.24
641.27	40416.37
641.42	39882.73
641.57	40350.84
641.72	39974.01
641.86	40219.77
642.01	39807.83
642.16	39559.73
642.31	39688.46
642.45	40067.63
642.60	39339.72
642.75	39725.91
642.90	39545.69
643.04	39454.41
643.19	39786.77
643.34	39988.05
643.48	39491.86
643.63	39363.13
643.78	39552.71
643.93	39681.44
644.07	39306.96
644.22	39255.46
644.37	39342.06
644.51	39662.72
644.66	39468.45
644.81	39220.36
644.95	39679.10
645.10	39559.73
645.25	39129.08
645.39	39440.37
645.54	39269.51
645.69	39299.94
645.83	39037.80
645.98	39377.17
646.13	39009.71
646.27	38873.96
646.42	38895.02
646.57	39318.66
646.71	39164.18
646.86	39674.42
647.00	39239.08
647.15	39089.29
647.30	38836.51
647.44	38443.30
647.59	39206.31
647.74	38834.17
647.88	38667.99
648.03	38679.69
648.17	38703.10
648.32	38857.57
648.47	38487.77
648.61	38234.99
648.76	38532.24
648.90	38721.82
649.05	38712.46
649.20	38728.84
649.34	38618.84
649.49	38281.80
649.63	38396.49
649.78	38728.84
649.92	38714.80
650.07	38820.13
650.21	37858.17
650.36	38604.80
650.51	38646.93
650.65	38838.85
650.80	38576.71
650.94	38717.14
651.09	38593.09
651.23	37713.05
651.38	37940.08
651.52	37670.92
651.67	38061.79
651.81	38146.05
651.96	38017.32
652.10	38148.39
652.25	38106.26
652.39	37986.89
652.54	38244.35
652.68	38064.13
652.83	38195.20
652.97	38284.14
653.12	38347.34
653.26	37574.96
653.41	37816.04
653.55	37830.08
653.70	37979.87
653.84	38080.52
653.99	37703.69
654.13	37809.01
654.27	37970.51
654.42	38029.02
654.56	38054.77
654.71	37771.57
654.85	37598.37
655.00	37954.13
655.14	37589.00
655.29	36980.46
655.43	37661.56
655.57	37148.98
655.72	37097.49
655.86	37289.42
656.01	37141.96
656.15	36950.04
656.30	37078.77
656.44	36891.52
656.58	37298.78
656.73	37277.71
656.87	37013.23
657.01	36542.78
657.16	36952.38
657.30	36706.62
657.45	36617.68
657.59	36975.78
657.73	36781.52
657.88	36781.52
658.02	36678.54
658.16	36821.31
658.31	37067.06
658.45	36889.18
658.60	36678.54
658.74	36610.66
658.88	36189.36
659.03	36554.49
659.17	36467.89
659.31	36409.37
659.46	36395.33
659.60	36662.15
659.74	36285.33
659.89	36168.30
660.03	36292.35
660.17	36655.13
660.32	36332.14
660.46	36727.69
660.60	35779.77
660.74	36154.26
660.89	36177.66
661.03	36109.78
661.17	35915.52
661.32	36348.52
661.46	35894.46
661.60	35901.48
661.74	35489.54
661.89	35646.36
662.03	35924.88
662.17	35412.31
662.31	35990.42
662.46	36369.58
662.60	36327.45
662.74	35892.12
662.88	35700.19
663.03	35426.35
663.17	35824.24
663.31	35660.40
663.45	34953.56
663.60	35246.13
663.74	35063.57
663.88	34808.45
664.02	34962.92
664.17	35550.40
664.31	34710.14
664.45	34904.41
664.59	34913.77
664.73	35267.19
664.88	34895.05
665.02	34543.97
665.16	34197.57
665.30	34558.01
665.44	34717.17
665.59	34139.05
665.73	34433.96
665.87	33766.91
666.01	34494.82
666.15	34190.55
666.29	34309.91
666.44	34412.90
666.58	34068.84
666.72	34106.29
666.86	34122.67
667.00	34185.86
667.14	33745.84
667.28	33780.95
667.43	33923.72
667.57	33813.72
667.71	34052.45
667.85	33888.62
667.99	33668.61
668.13	34251.40
668.27	33806.70
668.41	33460.30
668.56	33516.47
668.70	33579.67
668.84	33366.68
668.98	33652.22
669.12	32987.51
669.26	33240.29
669.40	32980.49
669.54	33102.20
669.68	33053.05
669.82	32793.25
669.96	33029.64
670.10	32821.33
670.25	32994.53
670.39	32786.22
670.53	32751.12
670.67	32458.55
670.81	33076.45
670.95	32708.99
671.09	32346.20
671.23	32395.35
671.37	32425.78
671.51	32154.28
671.65	32034.91
671.79	32194.07
671.93	31887.46
672.07	32194.07
672.21	31835.97
672.35	31672.13
672.49	31880.44
672.63	32060.66
672.77	31878.10
672.91	31866.39
673.05	31519.99
673.19	31660.43
673.33	31494.25
673.47	31068.27
673.61	31274.24
673.75	31098.70
673.89	31105.72
674.03	31255.51
674.17	31084.65
674.31	31094.02
674.45	31323.39
674.59	31222.75
674.73	30951.24
674.87	31054.23
675.01	31009.76
675.15	30693.79
675.29	30951.24
675.43	30541.65
675.56	30618.89
675.70	30426.96
675.84	30169.51
675.98	29053.07
676.12	30127.38
676.26	30223.34
676.40	30235.04
676.54	29963.54
676.68	29970.56
676.82	29394.79
676.96	29909.71
677.10	29673.31
677.23	29324.57
677.37	29663.95
677.51	29479.05
677.65	29266.06
677.79	28863.49
677.93	29013.28
678.07	28545.17
678.21	28215.16
678.34	28580.28
678.48	28486.66
678.62	28299.42
678.76	28411.76
678.90	27824.29
679.04	27992.81
679.18	28479.64
679.31	27681.52
679.45	28072.39
679.59	27702.58
679.73	27796.20
679.87	27840.67
680.00	27662.79
680.14	27718.96
680.28	27599.60
680.42	27353.84
680.56	27058.93
680.70	27274.26
680.83	27276.60
680.97	27218.09
681.11	27164.26
681.25	27091.70
681.39	26731.26
681.52	26675.09
681.66	26817.86
681.80	26930.20
681.94	26319.32
682.07	26197.62
682.21	26319.32
682.35	26153.15
682.49	25975.27
682.62	26256.13
682.76	26218.68
682.90	25998.67
683.04	25979.95
683.17	25940.16
683.31	25436.94
683.45	25411.20
683.59	25659.29
683.72	25757.60
683.86	25387.79
684.00	25188.85
684.13	24968.84
684.27	24854.15
684.41	24725.42
684.55	24910.32
684.68	24812.02
684.82	24795.64
684.96	24744.14
685.09	24470.30
685.23	24659.88
685.37	24325.19
685.50	24512.43
685.64	24449.24
685.78	24559.24
685.91	24362.64
686.05	24030.28
686.19	23667.50
686.32	23653.45
686.46	23466.21
686.60	22916.19
686.73	22813.20
686.87	22909.16
687.01	23304.71
687.14	23000.44
687.28	22792.14
687.42	22771.07
687.55	22782.77
687.69	22906.82
687.82	22874.06
687.96	22834.27
688.10	22609.58
688.23	22483.19
688.37	22199.98
688.50	22326.37
688.64	22038.48
688.78	22300.62
688.91	22043.17
689.05	21830.18
689.18	21893.37
689.32	21654.64
689.46	21989.33
689.59	21891.03
689.73	22122.74
689.86	21687.40
690.00	21553.99
690.13	21305.90
690.27	21228.66
690.41	21249.72
690.54	21043.76
690.68	21104.61
690.81	21095.25
690.95	21160.78
691.08	21048.44
691.22	20666.93
691.35	20741.83
691.49	20910.35
691.62	20512.46
691.76	20699.70
691.89	20360.32
692.03	20400.11
692.16	20685.65
692.30	20231.59
692.43	20198.82
692.57	19983.49
692.70	19829.02
692.84	19840.72
692.97	19763.48
693.11	19297.72
693.24	19697.95
693.38	19669.86
693.51	19627.73
693.65	19396.02
693.78	19339.85
693.92	19192.39
694.05	18932.59
694.19	19295.38
694.32	19349.21
694.45	19243.88
694.59	19047.28
694.72	18822.59
694.86	18911.53
694.99	18766.42
695.13	18520.66
695.26	18532.36
695.39	18445.76
695.53	18845.99
695.66	18452.78
695.80	18101.70
695.93	18249.16
696.07	18228.09
696.20	18340.44
696.33	17942.55
696.47	18059.57
696.60	17788.07
696.73	17769.35
696.87	17696.79
697.00	17273.15
697.14	17114.00
697.27	17153.79
697.40	17163.15
697.54	17174.85
697.67	17156.13
697.80	17163.15
697.94	17214.64
698.07	16901.01
698.21	16919.73
698.34	17055.48
698.47	16938.46
698.61	16428.22
698.74	16730.15
698.87	16549.93
699.01	16500.78
699.14	16365.03
699.27	16285.45
699.40	16255.02
699.54	16145.02
699.67	16079.48
699.80	16226.93
699.94	16013.95
700.07	16123.95
700.20	16116.93
700.34	15756.49
700.47	15644.14
700.60	15782.23
700.73	15770.53
700.87	15447.54
701.00	15559.88
701.13	15470.94
701.26	15424.13
701.40	15264.97
701.53	15103.48
701.66	15096.46
701.79	14775.80
701.93	15218.16
702.06	14984.11
702.19	14815.59
702.32	14829.63
702.46	15016.88
702.59	14752.40
702.72	14766.44
702.85	14705.59
702.99	14614.30
703.12	14307.69
703.25	14415.36
703.38	14569.83
703.51	14452.81
703.65	14071.30
703.78	13877.04
703.91	13799.80
704.04	13760.01
704.17	13788.10
704.31	13921.51
704.44	13635.96
704.57	13706.18
704.70	13591.49
704.83	13586.81
704.96	13535.32
705.10	13439.36
705.23	13547.02
>>>>>End Processed Spectral Data<<<<<
