SpectraSuite Data File
++++++++++++++++++++++++++++++++++++
Date: Fri Oct 25 11:34:40 EDT 2013
User: price-jones
Dark Spectrum Present: No
Reference Spectrum Present: No
Number of Sampled Component Spectra: 1
Spectrometers: USB2+H05261
Integration Time (usec): 100000 (USB2+H05261)
Spectra Averaged: 1 (USB2+H05261)
Boxcar Smoothing: 0 (USB2+H05261)
Correct for Electrical Dark: No (USB2+H05261)
Strobe/Lamp Enabled: No (USB2+H05261)
Correct for Detector Non-linearity: No (USB2+H05261)
Correct for Stray Light: No (USB2+H05261)
Number of Pixels in Processed Spectrum: 2048
>>>>>Begin Processed Spectral Data<<<<<
365.73	285.55
365.92	285.55
366.12	285.55
366.32	236.39
366.52	255.12
366.72	294.91
366.91	112.35
367.11	208.31
367.31	131.07
367.51	152.13
367.70	168.52
367.90	168.52
368.10	173.20
368.30	184.90
368.49	196.60
368.69	229.37
368.89	198.95
369.09	173.20
369.28	168.52
369.48	227.03
369.68	227.03
369.87	269.16
370.07	227.03
370.27	287.89
370.47	325.33
370.66	421.30
370.86	486.83
371.06	535.98
371.25	543.00
371.45	475.13
371.65	566.41
371.84	531.30
372.04	528.96
372.24	594.50
372.44	505.56
372.63	638.97
372.83	573.43
373.03	620.24
373.22	587.47
373.42	608.54
373.62	627.26
373.81	631.94
374.01	627.26
374.21	617.90
374.40	664.71
374.60	622.58
374.79	692.80
374.99	671.73
375.19	603.86
375.38	601.52
375.58	631.94
375.78	669.39
375.97	674.07
376.17	657.69
376.37	638.97
376.56	592.16
376.76	613.22
376.95	676.41
377.15	683.44
377.35	704.50
377.54	685.78
377.74	655.35
377.93	636.63
378.13	594.50
378.33	685.78
378.52	667.05
378.72	711.52
378.91	713.86
379.11	709.18
379.31	653.01
379.50	641.31
379.70	716.20
379.89	695.14
380.09	772.38
380.28	697.48
380.48	737.27
380.68	683.44
380.87	594.50
381.07	770.04
381.26	826.21
381.46	730.25
381.65	763.01
381.85	746.63
382.04	709.18
382.24	805.14
382.43	699.82
382.63	685.78
382.83	772.38
383.02	866.00
383.22	779.40
383.41	774.72
383.61	821.53
383.80	840.25
384.00	795.78
384.19	807.48
384.39	791.10
384.58	753.65
384.78	844.93
384.97	915.15
385.17	805.14
385.36	868.34
385.56	791.10
385.75	751.31
385.95	842.59
386.14	868.34
386.34	866.00
386.53	877.70
386.72	912.81
386.92	908.13
387.11	915.15
387.31	833.23
387.50	856.64
387.70	894.08
387.89	842.59
388.09	863.66
388.28	891.74
388.48	894.08
388.67	814.51
388.86	908.13
389.06	898.77
389.25	910.47
389.45	929.19
389.64	851.96
389.84	912.81
390.03	903.45
390.22	976.00
390.42	894.08
390.61	1029.84
390.81	938.55
391.00	971.32
391.19	980.68
391.39	961.96
391.58	856.64
391.78	950.26
391.97	1013.45
392.16	985.37
392.36	971.32
392.55	1001.75
392.75	1036.86
392.94	1036.86
393.13	980.68
393.33	990.05
393.52	1081.33
393.71	1036.86
393.91	1006.43
394.10	1088.35
394.29	1060.26
394.49	1074.31
394.68	1043.88
394.88	1062.60
395.07	1153.88
395.26	1177.29
395.46	1081.33
395.65	1102.39
395.84	1130.48
396.04	1172.61
396.23	1104.73
396.42	1069.62
396.62	1123.46
396.81	1198.35
397.00	1226.44
397.19	1158.57
397.39	1224.10
397.58	1247.51
397.77	1165.59
397.97	1270.91
398.16	1132.82
398.35	1291.98
398.55	1184.31
398.74	1212.40
398.93	1317.72
399.12	1174.95
399.32	1224.10
399.51	1177.29
399.70	1249.85
399.90	1235.80
400.09	1301.34
400.28	1287.29
400.47	1299.00
400.67	1345.81
400.86	1310.70
401.05	1291.98
401.24	1327.08
401.44	1446.45
401.63	1371.55
401.82	1483.90
402.01	1420.71
402.21	1409.00
402.40	1399.64
402.59	1533.05
402.78	1423.05
402.97	1479.22
403.17	1401.98
403.36	1465.18
403.55	1488.58
403.74	1446.45
403.93	1537.73
404.13	1542.41
404.32	1544.75
404.51	1528.37
404.70	1572.84
404.89	1568.16
405.09	1624.33
405.28	1612.63
405.47	1671.14
405.66	1582.20
405.85	1558.80
406.05	1526.03
406.24	1654.76
406.43	1605.61
406.62	1757.74
406.81	1743.70
407.00	1666.46
407.20	1647.74
407.39	1729.66
407.58	1813.92
407.77	1806.89
407.96	1708.59
408.15	1846.68
408.34	1795.19
408.54	1884.13
408.73	1762.42
408.92	1944.99
409.11	1881.79
409.30	1870.09
409.49	1909.88
409.68	1893.49
409.87	2024.56
410.07	2015.20
410.26	1998.82
410.45	1919.24
410.64	2033.93
410.83	1956.69
411.02	2003.50
411.21	2083.08
411.40	2094.78
411.59	2125.21
411.78	2118.18
411.98	2031.58
412.17	2188.40
412.36	2132.23
412.55	2200.10
412.74	2356.92
412.93	2221.17
413.12	2230.53
413.31	2328.83
413.50	2300.75
413.69	2207.13
413.88	2286.70
414.07	2333.51
414.26	2338.20
414.45	2445.86
414.64	2326.49
414.83	2422.45
415.02	2427.14
415.22	2497.35
415.41	2471.61
415.60	2574.59
415.79	2731.41
415.98	2567.57
416.17	2621.40
416.36	2555.86
416.55	2691.62
416.74	2560.55
416.93	2689.28
417.12	2698.64
417.31	2682.25
417.50	2780.56
417.69	2736.09
417.88	2829.71
418.07	2757.15
418.26	2740.77
418.45	2874.18
418.64	2935.03
418.83	2883.54
419.02	2991.20
419.21	2892.90
419.39	2911.63
419.58	2829.71
419.77	2855.45
419.96	2874.18
420.15	3138.66
420.34	2951.42
420.53	2939.71
420.72	3052.06
420.91	3059.08
421.10	3159.72
421.29	3096.53
421.48	3068.44
421.67	3112.91
421.86	3070.78
422.05	3199.51
422.24	3119.93
422.43	3272.07
422.61	3138.66
422.80	3353.99
422.99	3157.38
423.18	3274.41
423.37	3225.26
423.56	3171.43
423.75	3180.79
423.94	3054.40
424.13	2963.12
424.32	3131.64
424.50	3185.47
424.69	3283.77
424.88	3229.94
425.07	3232.28
425.26	3283.77
425.45	3190.15
425.64	3286.11
425.83	3220.58
426.01	3377.39
426.20	3384.41
426.39	3225.26
426.58	3258.03
426.77	3398.46
426.96	3295.47
427.15	3337.60
427.33	3368.03
427.52	3243.98
427.71	3463.99
427.90	3447.61
428.09	3466.33
428.28	3428.88
428.46	3513.14
428.65	3545.91
428.84	3630.17
429.03	3641.87
429.22	3494.42
429.40	3555.27
429.59	3646.55
429.78	3445.27
429.97	3330.58
430.16	3592.72
430.34	3707.41
430.53	3564.64
430.72	3604.42
430.91	3585.70
431.10	3625.49
431.28	3768.26
431.47	3831.46
431.66	3878.27
431.85	3688.68
432.03	3723.79
432.22	3878.27
432.41	3840.82
432.60	3971.89
432.79	3843.16
432.97	3913.38
433.16	3929.76
433.35	3920.40
433.54	3918.06
433.72	4124.02
433.91	3992.95
434.10	3992.95
434.28	3957.85
434.47	3988.27
434.66	3992.95
434.85	4037.42
435.03	4021.04
435.22	4224.67
435.41	4147.43
435.59	4140.41
435.78	4091.26
435.97	4105.30
436.16	4135.73
436.34	4004.66
436.53	4147.43
436.72	4210.62
436.90	4091.26
437.09	4205.94
437.28	4262.12
437.46	4152.11
437.65	4329.99
437.84	4346.37
438.02	4341.69
438.21	4262.12
438.40	4318.29
438.58	4489.15
438.77	4400.21
438.96	4533.62
439.14	4514.89
439.33	4681.07
439.52	4779.37
439.70	4660.01
439.89	4760.65
440.08	4695.11
440.26	4737.24
440.45	4739.58
440.63	4830.87
440.82	4863.63
441.01	4770.01
441.19	4840.23
441.38	5088.32
441.57	5004.07
441.75	4997.04
441.94	5078.96
442.12	5032.15
442.31	5076.62
442.50	5198.33
442.68	5104.71
442.87	5240.46
443.05	5256.84
443.24	5184.29
443.43	5392.59
443.61	5305.99
443.80	5348.12
443.98	5078.96
444.17	4926.83
444.35	5331.74
444.54	5460.47
444.73	5366.85
444.91	5284.93
445.10	5387.91
445.28	5364.51
445.47	5362.17
445.65	5462.81
445.84	5277.91
446.02	5488.56
446.21	5336.42
446.39	5380.89
446.58	5343.44
446.77	5406.64
446.95	5310.68
447.14	5322.38
447.32	5460.47
447.51	5605.58
447.69	5430.04
447.88	5364.51
448.06	5434.72
448.25	5575.16
448.43	5486.22
448.62	5488.56
448.80	5467.49
448.99	5650.05
449.17	5703.89
449.36	5474.51
449.54	5708.57
449.73	5703.89
449.91	5729.63
450.10	5748.36
450.28	5785.80
450.46	5762.40
450.65	5734.31
450.83	5863.04
451.02	5818.57
451.20	5923.90
451.39	5865.38
451.57	5792.83
451.76	5954.32
451.94	5968.37
452.13	5944.96
452.31	5884.11
452.49	5961.34
452.68	6019.86
452.86	5877.09
453.05	6022.20
453.23	6092.41
453.42	6101.78
453.60	5944.96
453.78	6083.05
453.97	5849.00
454.15	6064.33
454.34	5902.83
454.52	6164.97
454.70	6139.23
454.89	6141.57
455.07	6235.19
455.26	6291.36
455.44	6389.66
455.62	6293.70
455.81	6235.19
455.99	6368.60
456.17	6373.28
456.36	6497.33
456.54	6441.15
456.73	6574.56
456.91	6717.34
457.09	6626.06
457.28	6668.19
457.46	6604.99
457.64	6707.98
457.83	6679.89
458.01	6583.93
458.19	6853.09
458.38	6813.30
458.56	6918.62
458.74	6796.92
458.93	6832.02
459.11	6593.29
459.29	6801.60
459.48	6810.96
459.66	6806.28
459.84	6920.96
460.03	6951.39
460.21	6995.86
460.39	7061.40
460.57	6937.35
460.76	7108.21
460.94	7091.82
461.12	6927.99
461.31	7089.48
461.49	7115.23
461.67	7026.29
461.85	7143.32
462.04	7208.85
462.22	7599.72
462.40	7258.00
462.59	7332.90
462.77	7293.11
462.95	7449.93
463.13	7337.58
463.32	7372.69
463.50	7592.70
463.68	7293.11
463.86	7627.81
464.05	7445.24
464.23	7475.67
464.41	7571.63
464.59	7506.10
464.78	7693.34
464.96	7819.73
465.14	7520.14
465.32	7520.14
465.50	7627.81
465.69	7583.34
465.87	7786.96
466.05	7634.83
466.23	7742.49
466.41	7779.94
466.60	7950.80
466.78	7681.64
466.96	7611.42
467.14	7782.28
467.32	7925.05
467.51	7850.16
467.69	7737.81
467.87	7857.18
468.05	7819.73
468.23	7847.82
468.41	7934.42
468.60	8011.65
468.78	8241.03
468.96	7901.65
469.14	8145.06
469.32	8060.80
469.50	8030.38
469.69	8189.53
469.87	8042.08
470.05	8215.28
470.23	8231.66
470.41	8210.60
470.59	8711.47
470.77	8365.07
470.95	8388.48
471.14	8531.25
471.32	8395.50
471.50	8484.44
471.68	8664.66
471.86	8650.62
472.04	8645.94
472.22	8964.25
472.40	8681.05
472.58	8568.70
472.77	8896.38
472.95	8945.53
473.13	9097.66
473.31	8908.08
473.49	8840.20
473.67	8678.71
473.85	8978.30
474.03	9336.40
474.21	9085.96
474.39	9420.66
474.57	9188.94
474.75	9296.61
474.93	9383.21
475.12	9408.95
475.30	9554.07
475.48	9434.70
475.66	9666.41
475.84	9397.25
476.02	9614.92
476.20	9863.02
476.38	9909.83
476.56	9940.26
476.74	10108.77
476.92	10099.41
477.10	9851.31
477.28	10239.84
477.46	10286.65
477.64	10239.84
477.82	10527.73
478.00	10548.79
478.18	10436.45
478.36	10729.02
478.54	10766.46
478.72	10726.68
478.90	10792.21
479.08	10913.92
479.26	10953.71
479.44	10937.32
479.62	10829.66
479.80	11250.96
479.98	11346.92
480.16	11648.85
480.34	11356.28
480.52	11562.25
480.70	11833.75
480.88	11360.96
481.06	11882.90
481.24	11929.71
481.41	11922.69
481.59	12224.62
481.77	12013.97
481.95	12306.54
482.13	12423.56
482.31	12114.61
482.49	12617.83
482.67	12622.51
482.85	12950.18
483.03	12762.94
483.21	12755.92
483.39	13245.09
483.57	12877.63
483.74	13097.64
483.92	13341.05
484.10	13191.26
484.28	13390.20
484.46	13680.43
484.64	13977.68
484.82	13867.67
485.00	13638.30
485.18	14031.51
485.35	14078.32
485.53	14024.49
485.71	14272.59
485.89	14724.31
486.07	14560.47
486.25	14480.89
486.43	14623.67
486.61	14918.57
486.78	14794.53
486.96	14972.41
487.14	15281.36
487.32	15435.83
487.50	15227.53
487.68	15599.67
487.85	15342.21
488.03	15674.57
488.21	16011.60
488.39	16095.86
488.57	16313.53
488.75	16248.00
488.92	16573.33
489.10	16568.65
489.28	16533.54
489.46	17015.69
489.64	16638.87
489.81	17219.32
489.99	16908.03
490.17	17235.70
490.35	17212.30
490.53	17624.23
490.70	17731.90
490.88	17481.46
491.06	17818.50
491.24	17858.29
491.41	17877.01
491.59	17963.61
491.77	18078.30
491.95	18314.69
492.13	18567.47
492.30	18487.89
492.48	18586.19
492.66	18712.58
492.84	18965.36
493.01	19094.09
493.19	19145.58
493.37	19131.54
493.54	19342.19
493.72	19360.91
493.90	19585.60
494.08	19662.84
494.25	19627.73
494.43	19730.72
494.61	20226.91
494.79	20294.79
494.96	20081.80
495.14	20500.75
495.32	20650.55
495.49	20552.24
495.67	20526.50
495.85	21006.31
496.02	20924.39
496.20	20706.72
496.38	21142.06
496.55	21064.82
496.73	21462.71
496.91	21102.27
497.09	21476.76
497.26	21486.12
497.44	21455.69
497.62	21682.72
497.79	22419.99
497.97	21832.52
498.14	22115.72
498.32	22143.81
498.50	22176.58
498.67	22438.72
498.85	22183.60
499.03	22604.89
499.20	22808.52
499.38	22508.93
499.56	23028.53
499.73	23009.81
499.91	23037.89
500.08	23283.65
500.26	22911.50
500.44	23328.12
500.61	23501.32
500.79	23910.91
500.97	23618.35
501.14	23819.63
501.32	24191.78
501.49	23882.83
501.67	23922.62
501.84	24313.48
502.02	24072.41
502.20	24154.33
502.37	23906.23
502.55	24430.51
502.72	24357.96
502.90	24702.01
503.07	24229.23
503.25	24496.05
503.43	24496.05
503.60	24692.65
503.78	25324.60
503.95	24875.21
504.13	25135.01
504.30	24957.13
504.48	25195.87
504.65	25188.85
504.83	25364.39
505.01	25663.97
505.18	25184.16
505.36	25436.94
505.53	25652.27
505.71	25553.97
505.88	25876.96
506.06	26010.37
506.23	25823.13
506.41	26071.23
506.58	26047.82
506.76	26022.08
506.93	26295.92
507.11	26162.51
507.28	26384.86
507.46	26398.90
507.63	26431.67
507.81	26752.32
507.98	26562.74
508.16	26890.41
508.33	27077.66
508.50	27138.51
508.68	27115.11
508.85	27307.03
509.03	27187.66
509.20	27005.10
509.38	27435.76
509.55	28020.89
509.73	27585.55
509.90	27508.32
510.08	27765.78
510.25	27800.88
510.42	28027.92
510.60	27938.97
510.77	28446.87
510.95	28552.20
511.12	28276.01
511.30	28449.21
511.47	28531.13
511.64	28606.03
511.82	28875.19
511.99	28599.01
512.17	28992.22
512.34	28781.57
512.51	28952.43
512.69	28898.59
512.86	29333.93
513.04	29244.99
513.21	29186.48
513.38	29195.84
513.56	29205.20
513.73	29380.74
513.90	29394.79
514.08	29455.64
514.25	29436.92
514.43	29802.04
514.60	30040.78
514.77	29680.33
514.95	29806.72
515.12	29734.17
515.29	29762.25
515.47	30150.78
515.64	30415.26
515.81	30106.31
515.99	30384.83
516.16	30759.32
516.33	30459.73
516.51	30548.67
516.68	30412.92
516.85	30764.00
517.03	30630.59
517.20	30984.01
517.37	30637.61
517.54	30878.69
517.72	31061.25
517.89	31072.95
518.06	31112.74
518.24	31201.68
518.41	30511.22
518.58	31250.83
518.75	31466.16
518.93	31592.55
519.10	31716.60
519.27	31559.78
519.45	31604.25
519.62	31938.95
519.79	31749.37
519.96	31878.10
520.14	31424.03
520.31	31803.20
520.48	31931.93
520.65	32016.19
520.83	32711.33
521.00	32360.25
521.17	32128.53
521.34	32526.42
521.52	32744.09
521.69	32816.65
521.86	32517.06
522.03	32683.24
522.20	33205.18
522.38	32837.72
522.55	33139.65
522.72	33242.63
522.89	32926.66
523.07	33628.82
523.24	32690.26
523.41	33078.79
523.58	33450.94
523.75	33706.05
523.92	33116.24
524.10	33205.18
524.27	33640.52
524.44	33834.78
524.61	33921.38
524.78	33668.61
524.96	34085.22
525.13	34064.16
525.30	34033.73
525.47	34263.10
525.64	34288.85
525.81	34349.70
525.98	34185.86
526.16	33984.58
526.33	34096.92
526.50	34235.02
526.67	33993.94
526.84	34466.73
527.01	34370.77
527.18	34775.68
527.36	34637.59
527.53	34682.06
527.70	35182.93
527.87	34773.34
528.04	34586.10
528.21	34639.93
528.38	35311.66
528.55	35309.32
528.72	35054.20
528.89	35138.46
529.07	35290.60
529.24	35213.36
529.41	35744.66
529.58	35489.54
529.75	35194.64
529.92	35697.85
530.09	35402.94
530.26	35227.40
530.43	35505.93
530.60	35339.75
530.77	35559.76
530.94	35604.23
531.11	35824.24
531.28	35924.88
531.46	36102.76
531.63	36055.95
531.80	35810.20
531.97	36278.30
532.14	36409.37
532.31	36060.63
532.48	36051.27
532.65	36554.49
532.82	36439.80
532.99	36285.33
533.16	36189.36
533.33	36772.16
533.50	36666.83
533.67	36807.26
533.84	36360.22
534.01	36638.75
534.18	36765.14
534.35	37338.57
534.52	37017.91
534.69	37287.07
534.86	36896.20
535.03	37137.28
535.20	37113.87
535.37	37170.05
535.54	37624.11
535.71	37284.73
535.88	37361.97
536.05	37177.07
536.22	37612.41
536.38	37511.77
536.55	37308.14
536.72	36999.19
536.89	37329.20
537.06	37270.69
537.23	37848.80
537.40	37757.52
537.57	37769.22
537.74	37708.37
537.91	37963.49
538.08	38031.36
538.25	37792.63
538.42	37757.52
538.59	38368.40
538.75	37869.87
538.92	38426.92
539.09	38550.96
539.26	37947.11
539.43	38155.41
539.60	38361.38
539.77	38033.71
539.94	38373.08
540.11	38639.90
540.28	38735.87
540.44	38281.80
540.61	38148.39
540.78	38054.77
540.95	38436.28
541.12	38817.78
541.29	38258.40
541.46	38864.60
541.62	39040.14
541.79	39019.07
541.96	38604.80
542.13	38698.42
542.30	38618.84
542.47	39007.37
542.63	39201.63
542.80	39299.94
542.97	39201.63
543.14	39641.65
543.31	39456.75
543.48	39428.66
543.64	39974.01
543.81	39578.46
543.98	39517.60
544.15	39835.92
544.32	39395.90
544.48	40023.16
544.65	39945.92
544.82	40212.74
544.99	39758.68
545.16	39768.04
545.32	40247.85
545.49	40327.43
545.66	40151.89
545.83	40161.25
546.00	39990.39
546.16	40203.38
546.33	39901.45
546.50	40121.46
546.67	40266.58
546.83	39697.83
547.00	40226.79
547.17	40020.82
547.34	40236.15
547.50	40521.69
547.67	41074.06
547.84	40652.76
548.00	40842.35
548.17	40800.22
548.34	40811.92
548.51	40879.80
548.67	41083.42
548.84	40837.67
549.01	40938.31
549.18	40945.33
549.34	40891.50
549.51	41041.29
549.68	40966.40
549.84	41060.02
550.01	41167.68
550.18	40634.04
550.34	41195.77
550.51	41546.85
550.68	41036.61
550.84	40795.54
551.01	41565.57
551.18	41476.63
551.34	41130.23
551.51	41024.91
551.68	41586.64
551.84	41062.36
552.01	40828.30
552.18	41092.79
552.34	41525.78
552.51	41680.26
552.68	41516.42
552.84	41706.01
553.01	41930.70
553.18	41827.71
553.34	42089.85
553.51	41528.13
553.67	41701.32
553.84	42178.79
554.01	42014.96
554.17	42239.65
554.34	41780.90
554.51	42071.13
554.67	42057.09
554.84	42391.78
555.00	42087.51
555.17	41951.76
555.33	41944.74
555.50	42171.77
555.67	42178.79
555.83	42220.92
556.00	42141.35
556.16	42883.30
556.33	42754.57
556.50	42291.14
556.66	42253.69
556.83	42024.32
556.99	42698.39
557.16	42426.89
557.32	42478.38
557.49	42904.36
557.65	42422.21
557.82	42735.84
557.98	42515.83
558.15	42838.83
558.32	42761.59
558.48	42759.25
558.65	42548.60
558.81	42759.25
558.98	42714.78
559.14	42621.16
559.31	42389.44
559.47	42557.96
559.64	42864.57
559.80	42628.18
559.97	43412.26
560.13	42787.33
560.30	42569.66
560.46	43438.00
560.63	43285.87
560.79	43107.99
560.96	43243.74
561.12	43227.35
561.29	42979.26
561.45	43299.91
561.61	43299.91
561.78	43222.67
561.94	43070.54
562.11	42920.74
562.27	43030.75
562.44	42969.90
562.60	43374.81
562.77	43110.33
562.93	43313.95
563.10	43426.30
563.26	43351.40
563.42	43948.24
563.59	43208.63
563.75	43285.87
563.92	43555.03
564.08	43051.81
564.24	43503.54
564.41	43409.92
564.57	43674.40
564.74	43267.14
564.90	43608.86
565.07	43449.70
565.23	43229.69
565.39	43821.85
565.56	43562.05
565.72	43157.14
565.88	43779.72
566.05	43875.68
566.21	43821.85
566.38	43838.23
566.54	43761.00
566.70	43702.48
566.87	44385.92
567.03	43849.94
567.19	43880.36
567.36	43496.52
567.52	43899.09
567.68	44006.75
567.85	43770.36
568.01	44182.29
568.17	44109.74
568.34	44311.02
568.50	43906.11
568.66	43997.39
568.83	43896.75
568.99	43538.65
569.15	43838.23
569.32	43999.73
569.48	43856.96
569.64	44285.28
569.81	44067.61
569.97	44580.18
570.13	44252.51
570.30	43903.77
570.46	43833.55
570.62	43943.56
570.78	44259.53
570.95	44353.15
571.11	44399.96
571.27	44098.03
571.43	43922.49
571.60	44275.91
571.76	44121.44
571.92	44133.14
572.09	44172.93
572.25	43885.04
572.41	43856.96
572.57	44313.36
572.74	44502.95
572.90	44067.61
573.06	44395.28
573.22	44325.07
573.38	44751.04
573.55	44453.79
573.71	44795.51
573.87	44535.71
574.03	44245.49
574.20	44793.17
574.36	44603.59
574.52	44610.61
574.68	44509.97
574.84	44470.18
575.01	44837.64
575.17	44886.79
575.33	44615.29
575.49	44392.94
575.65	44381.24
575.82	44650.40
575.98	44411.67
576.14	44832.96
576.30	44198.68
576.46	45116.17
576.62	44313.36
576.79	44325.07
576.95	44212.72
577.11	44652.74
577.27	44470.18
577.43	44755.72
577.59	44399.96
577.75	44399.96
577.92	44610.61
578.08	44737.00
578.24	44203.36
578.40	44526.35
578.56	44788.49
578.72	44910.20
578.88	44612.95
579.04	44664.44
579.21	44575.50
579.37	44418.69
579.53	44975.73
579.69	44875.09
579.85	44172.93
580.01	44566.14
580.17	44208.04
580.33	45162.98
580.49	44889.13
580.65	44648.06
580.82	44760.40
580.98	44137.82
581.14	44601.25
581.30	45170.00
581.46	44561.46
581.62	44629.34
581.78	44421.03
581.94	45031.91
582.10	44870.41
582.26	44903.18
582.42	44575.50
582.58	45134.89
582.74	44542.74
582.90	44591.89
583.06	44807.22
583.22	44891.48
583.38	44884.45
583.54	45144.25
583.70	44739.34
583.86	45280.00
584.02	44779.13
584.18	44755.72
584.34	44692.53
584.50	45148.93
584.66	44898.50
584.82	45038.93
584.98	45146.59
585.14	45071.70
585.30	44465.50
585.46	44966.37
585.62	44900.84
585.78	44776.79
585.94	44737.00
586.10	44252.51
586.26	44786.15
586.42	45062.33
586.58	44704.23
586.74	45174.68
586.90	44989.78
587.06	44732.32
587.22	45530.44
587.38	45069.36
587.54	45097.44
587.70	45214.47
587.86	44966.37
588.02	44945.31
588.18	44729.98
588.34	44828.28
588.49	44893.82
588.65	44865.73
588.81	44947.65
588.97	45059.99
589.13	44919.56
589.29	44952.33
589.45	45338.52
589.61	44802.53
589.77	45205.11
589.93	45137.23
590.08	45092.76
590.24	45380.65
590.40	45216.81
590.56	45434.48
590.72	45434.48
590.88	44947.65
591.04	45095.10
591.20	45502.35
591.35	45453.20
591.51	45397.03
591.67	45432.14
591.83	45879.18
591.99	45315.11
592.15	44912.54
592.31	45254.26
592.46	45270.64
592.62	45265.96
592.78	45572.57
592.94	45394.69
593.10	45511.72
593.26	45935.35
593.41	45336.18
593.57	45528.10
593.73	45633.42
593.89	46120.26
594.05	45893.22
594.20	45549.17
594.36	45626.40
594.52	46000.89
594.68	45612.36
594.84	45897.91
594.99	45652.15
595.15	45036.59
595.31	45925.99
595.47	45350.22
595.62	45851.09
595.78	45488.31
595.94	45820.67
596.10	45698.96
596.25	45654.49
596.41	46181.11
596.57	45364.26
596.73	45689.60
596.88	45406.39
597.04	45539.80
597.20	45682.58
597.36	45614.70
597.51	45546.82
597.67	45528.10
597.83	45521.08
597.99	46066.42
598.14	45361.92
598.30	45624.06
598.46	45441.50
598.61	45930.67
598.77	45996.21
598.93	45766.84
599.09	45647.47
599.24	46138.98
599.40	45532.78
599.56	45661.51
599.71	45799.60
599.87	46267.71
600.03	45628.74
600.18	46024.29
600.34	45837.05
600.50	45918.97
600.65	45696.62
600.81	46033.66
600.97	46106.21
601.12	45801.94
601.28	45523.42
601.44	45567.89
601.59	45783.22
601.75	45808.96
601.91	46024.29
602.06	46047.70
602.22	46005.57
602.37	45352.56
602.53	46328.56
602.69	46344.95
602.84	45574.91
603.00	45516.40
603.16	45525.76
603.31	46036.00
603.47	46190.47
603.62	46124.94
603.78	45876.84
603.94	45844.07
604.09	45729.39
604.25	45504.70
604.40	45586.61
604.56	45415.76
604.71	46131.96
604.87	45617.04
605.03	45333.84
605.18	45626.40
605.34	46160.05
605.49	45450.86
605.65	45731.73
605.80	45682.58
605.96	45745.77
606.12	45446.18
606.27	45986.85
606.43	45427.46
606.58	45853.44
606.74	45525.76
606.89	45591.30
607.05	45895.56
607.20	45794.92
607.36	45240.21
607.51	45521.08
607.67	45504.70
607.82	45469.59
607.98	45703.64
608.13	45544.48
608.29	45368.94
608.44	45794.92
608.60	45240.21
608.75	45610.02
608.91	45734.07
609.06	45193.40
609.22	45750.45
609.37	45261.28
609.53	45942.38
609.68	45511.72
609.84	45432.14
609.99	45324.47
610.15	44896.16
610.30	45446.18
610.46	45179.36
610.61	45254.26
610.76	45228.51
610.92	45539.80
611.07	45338.52
611.23	45148.93
611.38	45528.10
611.54	45691.94
611.69	45397.03
611.84	45357.24
612.00	45095.10
612.15	45272.98
612.31	45387.67
612.46	44919.56
612.62	44945.31
612.77	44783.81
612.92	45689.60
613.08	45228.51
613.23	45387.67
613.39	44989.78
613.54	44793.17
613.69	45467.25
613.85	45212.13
614.00	45078.72
614.15	45191.06
614.31	44725.30
614.46	45062.33
614.62	44858.71
614.77	44828.28
614.92	45296.39
615.08	45041.27
615.23	45041.27
615.38	45301.07
615.54	44634.02
615.69	45357.24
615.84	44879.77
616.00	45181.70
616.15	45303.41
616.30	45303.41
616.46	44842.32
616.61	44926.58
616.76	44886.79
616.92	44538.05
617.07	44737.00
617.22	44706.57
617.37	44598.91
617.53	44722.96
617.68	44985.10
617.83	44732.32
617.99	45167.66
618.14	45148.93
618.29	44526.35
618.45	44381.24
618.60	44299.32
618.75	44186.97
618.90	44559.12
619.06	44416.35
619.21	44339.11
619.36	44404.64
619.51	44243.15
619.67	44360.17
619.82	44526.35
619.97	44671.46
620.12	44385.92
620.28	44364.85
620.43	44301.66
620.58	44589.55
620.73	44563.80
620.89	44591.89
621.04	44821.26
621.19	44357.83
621.34	44484.22
621.49	43854.62
621.65	44411.67
621.80	44439.75
621.95	44079.31
622.10	44336.77
622.25	44751.04
622.41	44437.41
622.56	43936.54
622.71	44502.95
622.86	44236.12
623.01	44060.58
623.16	44229.10
623.32	44168.25
623.47	44044.20
623.62	44004.41
623.77	44158.89
623.92	43667.37
624.07	44456.14
624.23	43714.19
624.38	44098.03
624.53	43936.54
624.68	44006.75
624.83	44046.54
624.98	44121.44
625.13	43449.70
625.29	43669.72
625.44	43742.27
625.59	43517.58
625.74	43878.02
625.89	43466.09
626.04	43688.44
626.19	43833.55
626.34	43636.95
626.49	43309.27
626.65	43459.07
626.80	43716.53
626.95	42920.74
627.10	43522.26
627.25	43213.31
627.40	43571.41
627.55	43213.31
627.70	43192.25
627.85	43370.13
628.00	43697.80
628.15	43491.83
628.30	43164.16
628.45	43260.12
628.60	42920.74
628.76	42581.37
628.91	42902.02
629.06	42810.74
629.21	43063.52
629.36	42948.83
629.51	42632.86
629.66	42787.33
629.81	42845.85
629.96	43194.59
630.11	42689.03
630.26	42611.79
630.41	42483.06
630.56	43082.24
630.71	42880.95
630.86	42653.92
631.01	42630.52
631.16	42089.85
631.31	42777.97
631.46	42511.15
631.61	43023.73
631.76	43021.39
631.91	42651.58
632.06	43255.44
632.21	43220.33
632.36	42384.76
632.51	42412.85
632.66	42766.27
632.81	42555.62
632.96	42478.38
633.10	42572.00
633.25	42265.39
633.40	42602.43
633.55	42623.50
633.70	42614.13
633.85	42326.25
634.00	42410.51
634.15	42122.62
634.30	42171.77
634.45	42504.13
634.60	42183.48
634.75	41942.40
634.90	42136.66
635.05	42511.15
635.19	42227.95
635.34	42029.00
635.49	42038.36
635.64	42281.78
635.79	42295.82
635.94	41752.82
636.09	42209.22
636.24	41832.39
636.39	42043.04
636.53	42494.77
636.68	41858.14
636.83	41757.50
636.98	41947.08
637.13	41729.41
637.28	41834.74
637.43	42176.45
637.57	42089.85
637.72	41560.89
637.87	41626.43
638.02	41593.66
638.17	41354.93
638.32	41476.63
638.46	41027.25
638.61	41354.93
638.76	41240.24
638.91	41228.54
639.06	41560.89
639.20	41415.78
639.35	41198.11
639.50	40952.35
639.65	41586.64
639.80	41326.84
639.94	41287.05
640.09	41415.78
640.24	41745.80
640.39	41165.34
640.54	40800.22
640.68	41188.75
640.83	41160.66
640.98	41226.20
641.13	41352.58
641.27	41258.96
641.42	41146.62
641.57	41099.81
641.72	41095.13
641.86	40992.14
642.01	40713.62
642.16	40928.95
642.31	40882.14
642.45	40790.86
642.60	40844.69
642.75	40746.39
642.90	41083.42
643.04	41022.57
643.19	40460.84
643.34	40498.29
643.48	40278.28
643.63	40357.86
643.78	40872.78
643.93	41127.89
644.07	40832.99
644.22	40620.00
644.37	40741.71
644.51	40407.01
644.66	40648.08
644.81	40823.62
644.95	40711.28
645.10	40236.15
645.25	40039.54
645.39	40563.82
645.54	40165.93
645.69	40325.09
645.83	40044.23
645.98	40172.96
646.13	40191.68
646.27	40130.83
646.42	40062.95
646.57	40458.50
646.71	40051.25
646.86	40624.68
647.00	39936.56
647.15	40769.79
647.30	40430.41
647.44	39852.30
647.59	40102.74
647.74	40034.86
647.88	40205.72
648.03	40350.84
648.17	39948.26
648.32	40334.45
648.47	40184.66
648.61	40133.17
648.76	39889.75
648.90	39667.40
649.05	39660.38
649.20	39620.59
649.34	39847.62
649.49	40032.52
649.63	39807.83
649.78	39803.15
649.92	39952.94
650.07	40559.14
650.21	40123.80
650.36	39943.58
650.51	39775.06
650.65	39889.75
650.80	40109.76
650.94	40023.16
651.09	39634.63
651.23	39683.78
651.38	39332.70
651.52	38834.17
651.67	39171.21
651.81	39313.98
651.96	39243.76
652.10	39124.40
652.25	39276.53
652.39	39585.48
652.54	39470.79
652.68	39187.59
652.83	38637.56
652.97	39367.81
653.12	39117.37
653.26	39707.19
653.41	39105.67
653.55	39208.65
653.70	39426.32
653.84	39416.96
653.99	39178.23
654.13	39196.95
654.27	39239.08
654.42	39117.37
654.56	38761.61
654.71	39229.72
654.85	39264.83
655.00	38883.32
655.14	39342.06
655.29	39365.47
655.43	38714.80
655.57	38672.67
655.72	38742.89
655.86	38707.78
656.01	38305.21
656.15	38050.09
656.30	38820.13
656.44	38609.48
656.58	38677.35
656.73	38366.06
656.87	38600.12
657.01	38108.60
657.16	38476.07
657.30	38597.77
657.45	38312.23
657.59	37851.14
657.73	38000.94
657.88	38450.32
658.02	38899.70
658.16	38909.07
658.31	38522.88
658.45	38188.18
658.60	38052.43
658.74	38267.76
658.88	38675.01
659.03	38059.45
659.17	38382.45
659.31	38232.65
659.46	38017.32
659.60	37799.65
659.74	37886.25
659.89	37581.98
660.03	37551.56
660.17	37951.79
660.32	37635.81
660.46	37546.87
660.60	37462.61
660.74	37689.65
660.89	37563.26
661.03	37280.05
661.17	36947.70
661.32	37083.45
661.46	37397.08
661.60	37017.91
661.74	37294.10
661.89	37230.90
662.03	36968.76
662.17	37345.59
662.31	37031.96
662.46	36535.76
662.60	37022.59
662.74	36673.85
662.88	36879.82
663.03	36479.59
663.17	36664.49
663.31	36884.50
663.45	36704.28
663.60	36975.78
663.74	36865.78
663.88	36409.37
664.02	36107.44
664.17	36886.84
664.31	36491.29
664.45	36006.80
664.59	36308.73
664.73	36161.28
664.88	36493.63
665.02	35990.42
665.16	36044.25
665.30	36182.34
665.44	36465.55
665.59	35541.03
665.73	35739.98
665.87	35658.06
666.01	35754.02
666.15	36058.29
666.29	35651.04
666.44	35831.26
666.58	35990.42
666.72	35606.57
666.86	35517.63
667.00	35608.91
667.14	35772.75
667.28	34850.58
667.43	35473.16
667.57	35594.87
667.71	35288.26
667.85	35227.40
667.99	35147.82
668.13	34684.40
668.27	34759.30
668.41	34565.03
668.56	34389.49
668.70	34883.34
668.84	34787.38
668.98	34497.16
669.12	34719.51
669.26	34490.13
669.40	34682.06
669.54	34192.89
669.68	34780.36
669.82	34220.97
669.96	34171.82
670.10	33883.94
670.25	33954.15
670.39	34148.42
670.53	34227.99
670.67	33799.68
670.81	34000.96
670.95	33762.23
671.09	33905.00
671.23	33689.67
671.37	33991.60
671.51	33359.66
671.65	33425.19
671.79	33123.26
671.93	33486.04
672.07	33223.90
672.21	33214.54
672.35	33263.69
672.49	32950.06
672.63	33343.27
672.77	33055.39
672.91	32713.67
673.05	32472.59
673.19	32636.43
673.33	32507.70
673.47	32409.40
673.61	32311.10
673.75	32315.78
673.89	32266.63
674.03	31847.67
674.17	32343.86
674.31	31920.23
674.45	31683.83
674.59	31997.46
674.73	31931.93
674.87	31728.30
675.01	31578.51
675.15	31021.46
675.29	31309.35
675.43	31372.54
675.56	31096.36
675.70	31297.64
675.84	31314.03
675.98	30497.18
676.12	30944.22
676.26	31250.83
676.40	30909.11
676.54	30733.57
676.68	30331.00
676.82	30380.15
676.96	30899.75
677.10	30698.47
677.23	30558.03
677.37	30527.61
677.51	30387.18
677.65	30064.18
677.79	30295.89
677.93	29998.65
678.07	29919.07
678.21	29656.93
678.34	29167.76
678.48	29645.23
678.62	29371.38
678.76	29457.98
678.90	29064.77
679.04	29394.79
679.18	29717.78
679.31	28996.90
679.45	28905.62
679.59	28685.61
679.73	28772.21
679.87	28591.98
680.00	28692.63
680.14	28889.23
680.28	28772.21
680.42	28329.84
680.56	28006.85
680.70	27892.16
680.83	27821.95
680.97	27880.46
681.11	28006.85
681.25	27644.07
681.39	27510.66
681.52	27517.68
681.66	27353.84
681.80	27236.81
681.94	27206.39
682.07	26801.47
682.21	26962.97
682.35	26738.28
682.49	26808.50
682.62	27115.11
682.76	27019.14
682.90	26780.41
683.04	26551.04
683.17	26745.30
683.31	26410.60
683.45	26630.62
683.59	25951.86
683.72	25781.00
683.86	25804.41
684.00	25855.90
684.13	25776.32
684.27	25387.79
684.41	25467.37
684.55	25865.26
684.68	25404.17
684.82	25219.27
684.96	25504.82
685.09	25315.23
685.23	24823.72
685.37	25214.59
685.50	25223.95
685.64	25142.03
685.78	24620.10
685.91	24648.18
686.05	24472.64
686.19	24175.39
686.32	24376.68
686.46	24341.57
686.60	24149.65
686.73	24226.89
686.87	23943.68
687.01	24325.19
687.14	24194.12
687.28	23733.03
687.42	23690.90
687.55	23456.85
687.69	23740.05
687.82	23082.36
687.96	23594.94
688.10	23428.76
688.23	23199.39
688.37	22906.82
688.50	23316.42
688.64	22913.84
688.78	22754.69
688.91	22981.72
689.05	22979.38
689.18	22618.94
689.32	22111.04
689.46	22338.07
689.59	22347.44
689.73	22419.99
689.86	22478.50
690.00	22146.15
690.13	22258.49
690.27	22204.66
690.41	22118.06
690.54	21743.58
690.68	21703.79
690.81	21474.42
690.95	21474.42
691.08	21289.51
691.22	21062.48
691.35	20985.24
691.49	21233.34
691.62	21184.19
691.76	20826.09
691.89	20379.04
692.03	20688.00
692.16	20510.11
692.30	20634.16
692.43	20648.21
692.57	20306.49
692.70	20159.03
692.84	20231.59
692.97	20049.03
693.11	20018.60
693.24	19700.29
693.38	20198.82
693.51	19662.84
693.65	19400.70
693.78	19690.93
693.92	19250.91
694.05	19372.61
694.19	19400.70
694.32	19199.41
694.45	19606.67
694.59	19358.57
694.72	19508.37
694.86	18972.38
694.99	18728.97
695.13	18899.83
695.26	18621.30
695.39	18478.53
695.53	18740.67
695.66	18422.36
695.80	18139.15
695.93	18281.92
696.07	18108.72
696.20	17865.31
696.33	17628.92
696.47	17858.29
696.60	17921.48
696.73	17930.84
696.87	17668.70
697.00	17788.07
697.14	17099.95
697.27	17137.40
697.40	17390.18
697.54	17394.86
697.67	17502.53
697.80	17289.54
697.94	17296.56
698.07	17011.01
698.21	16886.97
698.34	16795.68
698.47	16819.09
698.61	16489.07
698.74	16439.92
698.87	16416.52
699.01	16526.52
699.14	16519.50
699.27	16290.13
699.40	16348.64
699.54	16205.87
699.67	16042.03
699.80	15999.90
699.94	15747.12
700.07	15868.83
700.20	15782.23
700.34	15597.33
700.47	15674.57
700.60	15735.42
700.73	15751.81
700.87	15267.31
701.00	15183.06
701.13	15133.90
701.26	15073.05
701.40	15110.50
701.53	15257.95
701.66	15087.09
701.79	15051.99
701.93	14583.88
702.06	14782.82
702.19	14569.83
702.32	14839.00
702.46	14532.39
702.59	14642.39
702.72	14633.03
702.85	14281.95
702.99	14572.18
703.12	14326.42
703.25	14043.21
703.38	13919.17
703.51	14139.18
703.65	13827.88
703.78	13680.43
703.91	13540.00
704.04	13582.13
704.17	13535.32
704.31	13671.07
704.44	13549.36
704.57	13312.97
704.70	13254.45
704.83	13261.48
704.96	13453.40
705.10	12872.95
705.23	12898.69
>>>>>End Processed Spectral Data<<<<<
