SpectraSuite Data File
++++++++++++++++++++++++++++++++++++
Date: Fri Oct 25 11:33:20 EDT 2013
User: price-jones
Dark Spectrum Present: No
Reference Spectrum Present: No
Number of Sampled Component Spectra: 1
Spectrometers: USB2+H05261
Integration Time (usec): 100000 (USB2+H05261)
Spectra Averaged: 1 (USB2+H05261)
Boxcar Smoothing: 0 (USB2+H05261)
Correct for Electrical Dark: No (USB2+H05261)
Strobe/Lamp Enabled: No (USB2+H05261)
Correct for Detector Non-linearity: No (USB2+H05261)
Correct for Stray Light: No (USB2+H05261)
Number of Pixels in Processed Spectrum: 2048
>>>>>Begin Processed Spectral Data<<<<<
365.73	257.46
365.92	257.46
366.12	257.46
366.32	173.20
366.52	166.18
366.72	166.18
366.91	110.01
367.11	147.45
367.31	231.71
367.51	210.65
367.70	128.73
367.90	170.86
368.10	201.29
368.30	191.92
368.49	238.73
368.69	212.99
368.89	191.92
369.09	187.24
369.28	276.18
369.48	170.86
369.68	215.33
369.87	224.69
370.07	175.54
370.27	252.78
370.47	355.76
370.66	489.17
370.86	475.13
371.06	543.00
371.25	617.90
371.45	533.64
371.65	543.00
371.84	596.84
372.04	613.22
372.24	498.53
372.44	564.07
372.63	571.09
372.83	582.79
373.03	608.54
373.22	580.45
373.42	650.67
373.62	624.92
373.81	627.26
374.01	599.18
374.21	650.67
374.40	620.24
374.60	695.14
374.79	613.22
374.99	613.22
375.19	627.26
375.38	655.35
375.58	709.18
375.78	674.07
375.97	697.48
376.17	770.04
376.37	702.16
376.56	669.39
376.76	669.39
376.95	669.39
377.15	676.41
377.35	730.25
377.54	636.63
377.74	662.37
377.93	624.92
378.13	770.04
378.33	690.46
378.52	748.97
378.72	751.31
378.91	739.61
379.11	683.44
379.31	755.99
379.50	655.35
379.70	802.80
379.89	734.93
380.09	695.14
380.28	681.10
380.48	758.33
380.68	641.31
380.87	699.82
381.07	690.46
381.26	837.91
381.46	798.12
381.65	788.76
381.85	758.33
382.04	765.36
382.24	793.44
382.43	741.95
382.63	781.74
382.83	765.36
383.02	858.98
383.22	866.00
383.41	758.33
383.61	858.98
383.80	786.42
384.00	805.14
384.19	772.38
384.39	798.12
384.58	835.57
384.78	821.53
384.97	753.65
385.17	866.00
385.36	889.40
385.56	901.11
385.75	842.59
385.95	901.11
386.14	830.89
386.34	866.00
386.53	847.27
386.72	854.30
386.92	844.93
387.11	940.90
387.31	816.85
387.50	882.38
387.70	873.02
387.89	891.74
388.09	926.85
388.28	910.47
388.48	866.00
388.67	924.51
388.86	917.49
389.06	908.13
389.25	961.96
389.45	990.05
389.64	976.00
389.84	866.00
390.03	1011.11
390.22	987.71
390.42	919.83
390.61	971.32
390.81	938.55
391.00	999.41
391.19	999.41
391.39	1029.84
391.58	1043.88
391.78	1053.24
391.97	1022.81
392.16	994.73
392.36	1069.62
392.55	1055.58
392.75	1046.22
392.94	1034.52
393.13	1041.54
393.33	1123.46
393.52	1102.39
393.71	1142.18
393.91	1090.69
394.10	1088.35
394.29	1149.20
394.49	1081.33
394.68	1167.93
394.88	1104.73
395.07	1191.33
395.26	1203.04
395.46	1165.59
395.65	1167.93
395.84	1240.48
396.04	1210.06
396.23	1200.69
396.42	1284.95
396.62	1160.91
396.81	1266.23
397.00	1160.91
397.19	1177.29
397.39	1172.61
397.58	1261.55
397.77	1238.14
397.97	1299.00
398.16	1289.64
398.35	1345.81
398.55	1357.51
398.74	1299.00
398.93	1324.74
399.12	1310.70
399.32	1291.98
399.51	1329.42
399.70	1345.81
399.90	1301.34
400.09	1263.89
400.28	1383.26
400.47	1355.17
400.67	1378.58
400.86	1373.89
401.05	1523.69
401.24	1404.32
401.44	1387.94
401.63	1516.67
401.82	1523.69
402.01	1448.79
402.21	1521.35
402.40	1479.22
402.59	1511.99
402.78	1465.18
402.97	1593.90
403.17	1572.84
403.36	1558.80
403.55	1497.94
403.74	1600.93
403.93	1565.82
404.13	1591.56
404.32	1610.29
404.51	1629.01
404.70	1685.19
404.89	1591.56
405.09	1713.27
405.28	1722.63
405.47	1650.08
405.66	1699.23
405.85	1715.61
406.05	1715.61
406.24	1734.34
406.43	1865.41
406.62	1825.62
406.81	1849.02
407.00	1856.04
407.20	1783.49
407.39	1802.21
407.58	1767.10
407.77	1865.41
407.96	1877.11
408.15	1949.67
408.34	1825.62
408.54	1858.39
408.73	1839.66
408.92	1893.49
409.11	2083.08
409.30	2003.50
409.49	2005.84
409.68	1956.69
409.87	1998.82
410.07	2062.01
410.26	2071.37
410.45	2097.12
410.64	2024.56
410.83	2143.93
411.02	2083.08
411.21	2200.10
411.40	2120.53
411.59	2242.23
411.78	2218.83
411.98	2202.44
412.17	2263.30
412.36	2237.55
412.55	2342.88
412.74	2441.18
412.93	2317.13
413.12	2399.05
413.31	2466.92
413.50	2476.29
413.69	2436.50
413.88	2560.55
414.07	2462.24
414.26	2590.97
414.45	2567.57
414.64	2537.14
414.83	2586.29
415.02	2534.80
415.22	2661.19
415.41	2724.38
415.60	2562.89
415.79	2614.38
415.98	2710.34
416.17	2827.37
416.36	2761.83
416.55	2745.45
416.74	2834.39
416.93	2909.29
417.12	2850.77
417.31	2932.69
417.50	2904.60
417.69	2979.50
417.88	2822.69
418.07	2874.18
418.26	3021.63
418.45	2967.80
418.64	3005.25
418.83	3047.38
419.02	3112.91
419.21	3150.36
419.39	3110.57
419.58	3068.44
419.77	3129.30
419.96	3199.51
420.15	3164.40
420.34	3150.36
420.53	3176.11
420.72	3297.81
420.91	3246.32
421.10	3276.75
421.29	3269.73
421.48	3246.32
421.67	3300.16
421.86	3363.35
422.05	3356.33
422.24	3281.43
422.43	3375.05
422.61	3370.37
422.80	3494.42
422.99	3456.97
423.18	3419.52
423.37	3456.97
423.56	3508.46
423.75	3309.52
423.94	3468.67
424.13	3253.34
424.32	3318.88
424.50	3527.19
424.69	3480.38
424.88	3623.15
425.07	3414.84
425.26	3438.25
425.45	3571.66
425.64	3342.28
425.83	3482.72
426.01	3471.01
426.20	3454.63
426.39	3461.65
426.58	3564.64
426.77	3492.08
426.96	3599.74
427.15	3658.26
427.33	3552.93
427.52	3639.53
427.71	3665.28
427.90	3604.42
428.09	3779.97
428.28	3761.24
428.46	3634.85
428.65	3723.79
428.84	3892.31
429.03	3913.38
429.22	3772.94
429.40	3896.99
429.59	3768.26
429.78	3655.92
429.97	3688.68
430.16	3801.03
430.34	3700.39
430.53	3899.33
430.72	3843.16
430.91	3852.52
431.10	3969.55
431.28	4025.72
431.47	4135.73
431.66	3983.59
431.85	4070.19
432.03	4121.68
432.22	4081.89
432.41	4182.54
432.60	4126.36
432.79	4046.79
432.97	4189.56
433.16	4203.60
433.35	4046.79
433.54	4102.96
433.72	4149.77
433.91	4290.20
434.10	4234.03
434.28	4208.28
434.47	4329.99
434.66	4311.27
434.85	4313.61
435.03	4421.27
435.22	4322.97
435.41	4482.13
435.59	4440.00
435.78	4449.36
435.97	4449.36
436.16	4402.55
436.34	4353.40
436.53	4510.21
436.72	4592.13
436.90	4372.12
437.09	4627.24
437.28	4568.73
437.46	4585.11
437.65	4491.49
437.84	4652.98
438.02	4674.05
438.21	4650.64
438.40	4643.62
438.58	4765.33
438.77	4767.67
438.96	4898.74
439.14	4800.44
439.33	4826.18
439.52	4865.97
439.70	4959.60
439.89	4985.34
440.08	5088.32
440.26	5062.58
440.45	4964.28
440.63	5158.54
440.82	5266.21
441.01	5298.97
441.19	5231.10
441.38	5287.27
441.57	5270.89
441.75	5296.63
441.94	5397.28
442.12	5460.47
442.31	5420.68
442.50	5533.03
442.68	5556.43
442.87	5640.69
443.05	5467.49
443.24	5692.18
443.43	5439.40
443.61	5490.90
443.80	5795.17
443.98	5490.90
444.17	5336.42
444.35	5504.94
444.54	5661.76
444.73	5771.76
444.91	5694.52
445.10	5724.95
445.28	5617.29
445.47	5612.60
445.65	5727.29
445.84	5610.26
446.02	5921.56
446.21	5703.89
446.39	5717.93
446.58	5865.38
446.77	5692.18
446.95	5762.40
447.14	5708.57
447.32	5860.70
447.51	5755.38
447.69	5816.23
447.88	5706.23
448.06	5699.20
448.25	5916.87
448.43	5928.58
448.62	5989.43
448.80	5898.15
448.99	6101.78
449.17	5994.11
449.36	5994.11
449.54	6073.69
449.73	6113.48
449.91	6012.84
450.10	5872.40
450.28	6129.86
450.46	6076.03
450.65	6237.53
450.83	6061.99
451.02	6195.40
451.20	6253.91
451.39	6263.27
451.57	6129.86
451.76	6286.68
451.94	6239.87
452.13	6459.88
452.31	6359.24
452.49	6167.31
452.68	6382.64
452.86	6399.02
453.05	6462.22
453.23	6487.96
453.42	6427.11
453.60	6516.05
453.78	6602.65
453.97	6544.14
454.15	6487.96
454.34	6415.41
454.52	6551.16
454.70	6485.62
454.89	6654.14
455.07	6719.68
455.26	6890.54
455.44	6715.00
455.62	6700.95
455.81	6623.72
455.99	6885.86
456.17	7045.01
456.36	7056.72
456.54	6867.13
456.73	6836.70
456.91	7084.80
457.09	7098.84
457.28	7183.10
457.46	7073.10
457.64	7129.27
457.83	6995.86
458.01	6951.39
458.19	7377.37
458.38	7133.95
458.56	7447.58
458.74	7213.53
458.93	7234.60
459.11	7239.28
459.29	7311.83
459.48	7253.32
459.66	7382.05
459.84	7321.20
460.03	7199.49
460.21	7405.46
460.39	7382.05
460.57	7550.57
460.76	7672.28
460.94	7520.14
461.12	7674.62
461.31	7440.56
461.49	7489.71
461.67	7515.46
461.85	7515.46
462.04	7777.60
462.22	8126.34
462.40	7791.64
462.59	7920.37
462.77	7761.22
462.95	7971.86
463.13	7911.01
463.32	7859.52
463.50	7925.05
463.68	7962.50
463.86	7779.94
464.05	7920.37
464.23	8042.08
464.41	8159.11
464.59	7808.03
464.78	8119.32
464.96	8135.70
465.14	7974.21
465.32	8156.77
465.50	8222.30
465.69	8182.51
465.87	7929.74
466.05	8074.85
466.23	8135.70
466.41	8191.88
466.60	8535.93
466.78	8231.66
466.96	8238.69
467.14	8386.14
467.32	8428.27
467.51	8269.11
467.69	8306.56
467.87	8428.27
468.05	8659.98
468.23	8421.25
468.41	8414.23
468.60	8456.36
468.78	8580.40
468.96	8587.43
469.14	8858.93
469.32	8830.84
469.50	8622.53
469.69	9001.70
469.87	8833.18
470.05	8774.67
470.23	9001.70
470.41	8669.34
470.59	9057.87
470.77	9074.26
470.95	9032.13
471.14	8997.02
471.32	8648.28
471.50	8936.17
471.68	9048.51
471.86	9317.67
472.04	9191.28
472.22	9533.00
472.40	9160.86
472.58	9125.75
472.77	9252.14
472.95	9458.10
473.13	9792.80
473.31	9437.04
473.49	9399.59
473.67	9591.52
473.85	9495.55
474.03	9914.51
474.21	9769.40
474.39	9923.87
474.57	10043.24
474.75	10134.52
474.93	9867.70
475.12	10211.76
475.30	9928.55
475.48	10125.16
475.66	10300.70
475.84	10127.50
476.02	10326.44
476.20	10106.43
476.38	10382.62
476.56	10705.61
476.74	10562.84
476.92	10565.18
477.10	10623.69
477.28	10909.24
477.46	10747.74
477.64	10761.78
477.82	11162.01
478.00	11314.15
478.18	11206.48
478.36	11431.18
478.54	11417.13
478.72	11461.60
478.90	11761.19
479.08	11854.81
479.26	11805.66
479.44	11611.40
479.62	11791.62
479.80	11955.46
479.98	12203.55
480.16	12477.40
480.34	12184.83
480.52	12102.91
480.70	12526.55
480.88	12336.96
481.06	12505.48
481.24	12493.78
481.41	12624.85
481.59	12842.52
481.77	12821.45
481.95	12905.71
482.13	13130.41
482.31	13104.66
482.49	13341.05
482.67	13570.43
482.85	13418.29
483.03	13565.74
483.21	13862.99
483.39	14075.98
483.57	13996.40
483.74	14045.55
483.92	14307.69
484.10	14057.26
484.28	14349.82
484.46	14679.84
484.64	14675.16
484.82	14565.15
485.00	14820.27
485.18	15386.68
485.35	15105.82
485.53	15190.08
485.71	15573.92
485.89	15543.50
486.07	15625.42
486.25	15683.93
486.43	15433.49
486.61	15726.06
486.78	16037.35
486.96	16308.85
487.14	16271.40
487.32	16266.72
487.50	16308.85
487.68	16772.28
487.85	16924.41
488.03	17123.36
488.21	16947.82
488.39	16936.12
488.57	17453.37
488.75	17191.23
488.92	17657.00
489.10	17820.84
489.28	17612.53
489.46	17949.57
489.64	17790.41
489.81	18354.48
489.99	18272.56
490.17	18338.10
490.35	18731.31
490.53	18492.57
490.70	18923.23
490.88	18532.36
491.06	18899.83
491.24	19157.28
491.41	19096.43
491.59	19129.20
491.77	19337.51
491.95	19571.56
492.13	19901.58
492.30	19836.04
492.48	19997.54
492.66	19955.41
492.84	20341.60
493.01	20175.42
493.19	20255.00
493.37	20549.90
493.54	20479.69
493.72	20814.38
493.90	20762.89
494.08	21067.16
494.25	21057.80
494.43	21371.43
494.61	21303.56
494.79	21507.18
494.96	21401.86
495.14	21706.13
495.32	21951.88
495.49	21907.41
495.67	22064.23
495.85	22256.15
496.02	22148.49
496.20	22883.42
496.38	22574.47
496.55	22888.10
496.73	23124.49
496.91	22766.39
497.09	22888.10
497.26	22998.10
497.44	23180.67
497.62	23601.96
497.79	23880.49
497.97	23541.11
498.14	23969.43
498.32	23985.81
498.50	23889.85
498.67	24130.92
498.85	24217.52
499.03	24280.72
499.20	24105.18
499.38	24865.85
499.56	24573.28
499.73	24957.13
499.91	24510.09
500.08	24912.66
500.26	24601.37
500.44	24957.13
500.61	25099.90
500.79	25008.62
500.97	25186.50
501.14	25579.71
501.32	25350.34
501.49	25544.61
501.67	25745.89
501.84	25509.50
502.02	25577.37
502.20	25823.13
502.37	25565.67
502.55	25785.68
502.72	26073.57
502.90	26497.20
503.07	26080.59
503.25	26326.35
503.43	26614.23
503.60	26600.19
503.78	26740.62
503.95	26813.18
504.13	26904.46
504.30	27316.39
504.48	26984.04
504.65	26913.82
504.83	27084.68
505.01	27159.58
505.18	27250.86
505.36	27725.99
505.53	27468.53
505.71	27461.51
505.88	27800.88
506.06	27620.66
506.23	27875.78
506.41	27807.90
506.58	28173.03
506.76	27981.10
506.93	28147.28
507.11	28353.25
507.28	28151.96
507.46	28514.75
507.63	28423.47
507.81	28755.82
507.98	28568.58
508.16	28503.04
508.33	28774.55
508.50	29074.13
508.68	29104.56
508.85	29095.20
509.03	29483.73
509.20	29338.62
509.38	29811.40
509.55	29696.72
509.73	29661.61
509.90	29668.63
510.08	29486.07
510.25	29837.15
510.42	30045.46
510.60	30139.08
510.77	30272.49
510.95	30607.19
511.12	29900.34
511.30	30476.12
511.47	30565.06
511.64	30366.11
511.82	30712.51
511.99	30609.53
512.17	30752.30
512.34	30899.75
512.51	31087.00
512.69	31285.94
512.86	31199.34
513.04	30969.97
513.21	31227.43
513.38	30941.88
513.56	31625.32
513.73	31400.63
513.90	31461.48
514.08	31409.99
514.25	31821.92
514.43	31564.46
514.60	31997.46
514.77	31805.54
514.95	32123.85
515.12	31936.61
515.29	31960.02
515.47	32163.64
515.64	32390.67
515.81	32203.43
515.99	32334.50
516.16	32587.28
516.33	32676.22
516.51	32947.72
516.68	32589.62
516.85	32554.51
517.03	32994.53
517.20	33125.60
517.37	33123.26
517.54	32914.95
517.72	33277.74
517.89	33364.34
518.06	33270.72
518.24	32989.85
518.41	33062.41
518.58	33312.84
518.75	33083.47
518.93	33804.36
519.10	33373.70
519.27	33483.70
519.45	33790.31
519.62	34185.86
519.79	33977.56
519.96	33783.29
520.14	34010.32
520.31	33837.12
520.48	34345.02
520.65	34347.36
520.83	34534.60
521.00	34588.44
521.17	34834.19
521.34	34705.46
521.52	35049.52
521.69	34508.86
521.86	35054.20
522.03	35297.62
522.20	35473.16
522.38	35332.73
522.55	35491.88
522.72	35356.13
522.89	35232.08
523.07	36098.08
523.24	35164.21
523.41	35545.72
523.58	35541.03
523.75	35913.18
523.92	35798.49
524.10	35931.90
524.27	35866.37
524.44	36404.69
524.61	35990.42
524.78	36081.70
524.96	35967.01
525.13	35943.61
525.30	36697.26
525.47	36219.79
525.64	36575.55
525.81	36708.96
525.98	36711.30
526.16	36837.69
526.33	36208.09
526.50	36945.36
526.67	36575.55
526.84	36893.86
527.01	37174.73
527.18	37221.54
527.36	37125.58
527.53	37474.32
527.70	37385.38
527.87	37397.08
528.04	37308.14
528.21	37446.23
528.38	37394.74
528.55	37425.17
528.72	37305.80
528.89	37343.25
529.07	37895.61
529.24	37581.98
529.41	38183.50
529.58	37872.21
529.75	37778.59
529.92	37947.11
530.09	37806.67
530.26	37762.20
530.43	38124.99
530.60	37809.01
530.77	38267.76
530.94	38124.99
531.11	38176.48
531.28	38321.59
531.46	38656.29
531.63	38459.68
531.80	38660.97
531.97	38803.74
532.14	38616.50
532.31	38857.57
532.48	39337.38
532.65	38862.26
532.82	38639.90
532.99	38913.75
533.16	38899.70
533.33	39323.34
533.50	39110.35
533.67	38778.00
533.84	38958.22
534.01	39395.90
534.18	39372.49
534.35	39491.86
534.52	39056.52
534.69	39681.44
534.86	39950.60
535.03	39920.18
535.20	39817.19
535.37	39871.03
535.54	40285.30
535.71	39227.38
535.88	40034.86
536.05	39959.97
536.22	40275.94
536.38	40257.21
536.55	39901.45
536.72	39957.63
536.89	40091.04
537.06	40222.11
537.23	40526.38
537.40	40444.46
537.57	39810.17
537.74	40238.49
537.91	40486.59
538.08	40414.03
538.25	40343.81
538.42	40474.88
538.59	40610.64
538.75	40779.15
538.92	41010.87
539.09	40875.12
539.26	40718.30
539.43	40545.10
539.60	41226.20
539.77	40973.42
539.94	41153.64
540.11	41265.99
540.28	41130.23
540.44	41371.31
540.61	41057.68
540.78	41017.89
540.95	41254.28
541.12	41090.44
541.29	41097.47
541.46	41099.81
541.62	41535.15
541.79	41675.58
541.96	41275.35
542.13	41469.61
542.30	41844.10
542.47	41539.83
542.63	41184.07
542.80	41911.97
542.97	42108.58
543.14	42511.15
543.31	41689.62
543.48	42113.26
543.64	42457.32
543.81	42567.32
543.98	42038.36
544.15	42188.16
544.32	42639.88
544.48	42880.95
544.65	42478.38
544.82	42967.55
544.99	42066.45
545.16	42801.38
545.32	42742.86
545.49	42784.99
545.66	42782.65
545.83	42892.66
546.00	42873.93
546.16	42742.86
546.33	42845.85
546.50	42883.30
546.67	43309.27
546.83	42890.32
547.00	43002.66
547.17	42880.95
547.34	43402.89
547.50	43517.58
547.67	43646.31
547.84	43096.28
548.00	43552.69
548.17	43517.58
548.34	43643.97
548.51	43941.22
548.67	43915.47
548.84	44016.11
549.01	43344.38
549.18	43735.25
549.34	43681.42
549.51	43915.47
549.68	43679.08
549.84	43744.61
550.01	44053.56
550.18	43428.64
550.34	44421.03
550.51	44168.25
550.68	44048.88
550.84	43517.58
551.01	44126.12
551.18	43676.74
551.34	44074.63
551.51	44119.10
551.68	44231.44
551.84	44175.27
552.01	44048.88
552.18	44002.07
552.34	44245.49
552.51	44886.79
552.68	44390.60
552.84	44601.25
553.01	44486.56
553.18	44538.05
553.34	44449.11
553.51	44570.82
553.67	44725.30
553.84	45132.55
554.01	44538.05
554.17	44758.06
554.34	44926.58
554.51	44839.98
554.67	44952.33
554.84	45422.78
555.00	44626.99
555.17	44957.01
555.33	45406.39
555.50	45008.50
555.67	45198.09
555.83	44926.58
556.00	45429.80
556.16	45888.54
556.33	44844.66
556.50	45221.49
556.66	45085.74
556.83	45256.60
556.99	45656.83
557.16	45380.65
557.32	45551.51
557.49	45780.88
557.65	45701.30
557.82	45628.74
557.98	45612.36
558.15	45502.35
558.32	45677.90
558.48	45303.41
558.65	45813.65
558.81	45188.72
558.98	45684.92
559.14	45390.01
559.31	45581.93
559.47	45837.05
559.64	45883.86
559.80	45792.58
559.97	45895.56
560.13	45673.21
560.30	45954.08
560.46	45940.04
560.63	46349.63
560.79	45911.95
560.96	45944.72
561.12	46150.68
561.29	46319.20
561.45	46344.95
561.61	46192.81
561.78	45951.74
561.94	46085.15
562.11	46452.61
562.27	46330.90
562.44	46478.36
562.60	46284.09
562.77	46260.69
562.93	46078.13
563.10	45940.04
563.26	46162.39
563.42	46541.55
563.59	46483.04
563.75	46113.23
563.92	46305.16
564.08	45675.55
564.24	46532.19
564.41	46274.73
564.57	46476.02
564.74	46476.02
564.90	46314.52
565.07	46183.45
565.23	46644.54
565.39	46447.93
565.56	46674.96
565.72	46239.62
565.88	46520.49
566.05	46632.83
566.21	46869.23
566.38	46340.27
566.54	46616.45
566.70	47070.51
566.87	46909.02
567.03	46656.24
567.19	46906.68
567.36	47058.81
567.52	46937.10
567.68	47051.79
567.85	46787.31
568.01	47009.66
568.17	46820.08
568.34	46600.07
568.50	46937.10
568.66	46532.19
568.83	46724.11
568.99	46904.34
569.15	46890.29
569.32	46911.36
569.48	46745.18
569.64	47232.01
569.81	46677.30
569.97	47152.43
570.13	47164.14
570.30	46937.10
570.46	47033.07
570.62	47009.66
570.78	47217.97
570.95	47098.60
571.11	47033.07
571.27	46607.09
571.43	46951.15
571.60	46784.97
571.76	46801.35
571.92	47213.29
572.09	47112.64
572.25	47082.22
572.41	46873.91
572.57	47351.38
572.74	47552.66
572.90	47119.66
573.06	47601.82
573.22	47171.16
573.38	46993.28
573.55	47117.32
573.71	47629.90
573.87	47290.52
574.03	47086.90
574.20	47271.80
574.36	47480.11
574.52	47435.64
574.68	46827.10
574.84	47407.55
575.01	47412.23
575.17	47454.36
575.33	47079.88
575.49	47136.05
575.65	46960.51
575.82	47604.16
575.98	47271.80
576.14	47419.25
576.30	47580.75
576.46	47154.77
576.62	47358.40
576.79	47400.53
576.95	46967.53
577.11	47070.51
577.27	47295.21
577.43	47480.11
577.59	47374.78
577.75	47234.35
577.92	47182.86
578.08	47487.13
578.24	47508.19
578.40	47540.96
578.56	47166.48
578.72	47461.38
578.88	47861.61
579.04	47636.92
579.21	47028.38
579.37	47779.70
579.53	47824.17
579.69	47606.50
579.85	47737.57
580.01	47524.58
580.17	47182.86
580.33	47547.98
580.49	47452.02
580.65	47929.49
580.82	47725.86
580.98	47217.97
581.14	47154.77
581.30	47721.18
581.46	47494.15
581.62	47466.06
581.78	47480.11
581.94	47489.47
582.10	47217.97
582.26	47732.89
582.42	47456.70
582.58	47496.49
582.74	47636.92
582.90	47849.91
583.06	47522.24
583.22	47798.42
583.38	47161.79
583.54	47899.06
583.70	47838.21
583.86	47419.25
584.02	47639.26
584.18	47915.45
584.34	47805.44
584.50	47735.23
584.66	47814.80
584.82	47737.57
584.98	48126.10
585.14	48177.59
585.30	47707.14
585.46	47643.94
585.62	47777.36
585.78	48119.07
585.94	47503.51
586.10	47700.12
586.26	47028.38
586.42	47920.13
586.58	47657.99
586.74	47863.96
586.90	47674.37
587.06	47796.08
587.22	48067.58
587.38	47503.51
587.54	48060.56
587.70	47807.78
587.86	47683.73
588.02	47657.99
588.18	47915.45
588.34	48121.41
588.49	47608.84
588.65	47838.21
588.81	47667.35
588.97	47990.34
589.13	47997.37
589.29	47840.55
589.45	47997.37
589.61	47807.78
589.77	48107.37
589.93	48147.16
590.08	48076.94
590.24	48193.97
590.40	48292.27
590.56	48662.08
590.72	47878.00
590.88	48044.18
591.04	47866.30
591.20	48275.89
591.35	48584.84
591.51	48545.05
591.67	48463.13
591.83	48744.00
591.99	48442.07
592.15	48100.35
592.31	48137.80
592.46	48177.59
592.62	48158.86
592.78	48378.87
592.94	48935.92
593.10	48509.94
593.26	48638.67
593.41	48488.88
593.57	48474.84
593.73	48423.34
593.89	48638.67
594.05	48355.47
594.20	48877.41
594.36	48722.93
594.52	48809.53
594.68	48184.61
594.84	48250.14
594.99	48842.30
595.15	48374.19
595.31	48376.53
595.47	48566.12
595.62	48495.90
595.78	48250.14
595.94	48783.79
596.10	48566.12
596.25	48313.34
596.41	48502.92
596.57	48151.84
596.73	48439.73
596.88	48846.98
597.04	48523.99
597.20	48783.79
597.36	48512.28
597.51	48788.47
597.67	48432.71
597.83	48341.42
597.99	48856.34
598.14	48626.97
598.30	48676.12
598.46	48601.22
598.61	48931.24
598.77	48474.84
598.93	48439.73
599.09	48779.10
599.24	48870.39
599.40	48877.41
599.56	48584.84
599.71	49127.84
599.87	49441.48
600.03	49001.46
600.18	48811.87
600.34	48535.69
600.50	48783.79
600.65	48931.24
600.81	49008.48
600.97	48868.05
601.12	48641.01
601.28	48949.96
601.44	48697.19
601.59	48697.19
601.75	48596.54
601.91	48615.27
602.06	48928.90
602.22	48643.35
602.37	48486.54
602.53	48844.64
602.69	48856.34
602.84	48633.99
603.00	48744.00
603.16	48406.96
603.31	48542.71
603.47	49242.53
603.62	48980.39
603.78	48964.01
603.94	48823.58
604.09	49015.50
604.25	48671.44
604.40	48762.72
604.56	48729.95
604.71	49382.96
604.87	48470.15
605.03	48336.74
605.18	48776.76
605.34	48631.65
605.49	48306.32
605.65	48261.85
605.80	48203.33
605.96	48100.35
606.12	48430.36
606.27	48280.57
606.43	48175.25
606.58	48865.70
606.74	48341.42
606.89	48816.55
607.05	48884.43
607.20	48212.70
607.36	48676.12
607.51	48582.50
607.67	48383.55
607.82	48554.41
607.98	48729.95
608.13	48814.21
608.29	48320.36
608.44	48163.54
608.60	48484.20
608.75	48589.52
608.91	48535.69
609.06	48100.35
609.22	48505.26
609.37	48488.88
609.53	48678.46
609.68	48816.55
609.84	48151.84
609.99	48439.73
610.15	48051.20
610.30	48135.46
610.46	48210.35
610.61	48294.61
610.76	48200.99
610.92	47955.24
611.07	48062.90
611.23	48105.03
611.38	48369.51
611.54	47856.93
611.69	48549.73
611.84	48327.38
612.00	48133.12
612.15	48055.88
612.31	48566.12
612.46	48105.03
612.62	47775.02
612.77	47800.76
612.92	47885.02
613.08	48318.02
613.23	48280.57
613.39	48245.46
613.54	47620.54
613.69	48222.06
613.85	48072.26
614.00	48184.61
614.15	48264.19
614.31	48170.57
614.46	47917.79
614.62	47463.72
614.77	48280.57
614.92	47868.64
615.08	48034.81
615.23	47856.93
615.38	48048.86
615.54	47840.55
615.69	47908.43
615.84	47880.34
616.00	48203.33
616.15	47477.77
616.30	47929.49
616.46	47922.47
616.61	47786.72
616.76	47941.19
616.92	47767.99
617.07	47894.38
617.22	47753.95
617.37	47377.12
617.53	47753.95
617.68	47412.23
617.83	47316.27
617.99	47585.43
618.14	47941.19
618.29	47299.89
618.45	47533.94
618.60	47267.12
618.75	47166.48
618.90	47419.25
619.06	47606.50
619.21	47557.35
619.36	47835.87
619.51	47505.85
619.67	47222.65
619.82	47784.38
619.97	47786.72
620.12	47295.21
620.28	47093.92
620.43	47580.75
620.58	47803.10
620.73	47648.63
620.89	47421.59
621.04	47714.16
621.19	47269.46
621.34	47632.24
621.49	46974.55
621.65	47028.38
621.80	47316.27
621.95	47189.88
622.10	47564.37
622.25	46522.83
622.41	47157.11
622.56	47143.07
622.71	47037.75
622.86	46829.44
623.01	47047.11
623.16	46962.85
623.32	46681.98
623.47	47302.23
623.62	46953.49
623.77	46864.55
623.92	47098.60
624.07	47168.82
624.23	47014.34
624.38	47065.83
624.53	46609.43
624.68	46256.01
624.83	47084.56
624.98	47077.54
625.13	46689.01
625.29	46543.89
625.44	46546.23
625.59	46501.76
625.74	46403.46
625.89	46305.16
626.04	46117.92
626.19	46609.43
626.34	46684.33
626.49	46232.60
626.65	46012.59
626.80	46389.42
626.95	46094.51
627.10	46204.52
627.25	46309.84
627.40	46445.59
627.55	46635.17
627.70	45860.46
627.85	46405.80
628.00	46337.93
628.15	46155.36
628.30	45635.77
628.45	45925.99
628.60	45965.78
628.76	45766.84
628.91	45848.75
629.06	45900.25
629.21	46061.74
629.36	45972.80
629.51	46136.64
629.66	46211.54
629.81	46160.05
629.96	46012.59
630.11	45668.53
630.26	45766.84
630.41	46054.72
630.56	45818.33
630.71	45682.58
630.86	46080.47
631.01	45542.14
631.16	45588.95
631.31	45759.81
631.46	46003.23
631.61	46354.31
631.76	45380.65
631.91	45792.58
632.06	45687.26
632.21	45759.81
632.36	45942.38
632.51	45558.53
632.66	45635.77
632.81	45670.87
632.96	45593.64
633.10	45593.64
633.25	45413.41
633.40	45797.26
633.55	46143.66
633.70	45298.73
633.85	45038.93
634.00	44992.12
634.15	45310.43
634.30	45219.15
634.45	45067.02
634.60	45270.64
634.75	45523.42
634.90	44896.16
635.05	45322.13
635.19	44903.18
635.34	45052.97
635.49	44811.90
635.64	45155.96
635.79	45605.34
635.94	44858.71
636.09	45287.03
636.24	45296.39
636.39	45167.66
636.53	45282.34
636.68	44374.22
636.83	44905.52
636.98	44966.37
637.13	44465.50
637.28	44722.96
637.43	44554.44
637.57	44680.83
637.72	44488.90
637.87	44673.81
638.02	44601.25
638.17	44615.29
638.32	44603.59
638.46	44254.85
638.61	44392.94
638.76	44442.09
638.91	44521.67
639.06	44135.48
639.20	44383.58
639.35	44226.76
639.50	44058.24
639.65	44842.32
639.80	44601.25
639.94	44385.92
640.09	44308.68
640.24	44222.08
640.39	43999.73
640.54	43730.57
640.68	44369.54
640.83	44472.52
640.98	43978.67
641.13	43805.47
641.27	44350.81
641.42	44177.61
641.57	44076.97
641.72	44062.93
641.86	44151.87
642.01	43498.86
642.16	43290.55
642.31	43503.54
642.45	44194.00
642.60	43632.27
642.75	43674.40
642.90	44154.21
643.04	43618.22
643.19	43515.24
643.34	43487.15
643.48	43442.68
643.63	43599.50
643.78	43585.46
643.93	43615.88
644.07	43646.31
644.22	43721.21
644.37	43786.74
644.51	43737.59
644.66	43660.35
644.81	43056.50
644.95	43538.65
645.10	43316.29
645.25	43290.55
645.39	43255.44
645.54	43173.52
645.69	43402.89
645.83	42871.59
645.98	42895.00
646.13	43014.37
646.27	43267.14
646.42	42885.64
646.57	43325.66
646.71	43484.81
646.86	43173.52
647.00	43428.64
647.15	43433.32
647.30	43098.62
647.44	42777.97
647.59	43178.20
647.74	42873.93
647.88	43047.13
648.03	43330.34
648.17	43349.06
648.32	43405.23
648.47	43304.59
648.61	42710.10
648.76	42897.34
648.90	42899.68
649.05	42752.23
649.20	43028.41
649.34	42820.10
649.49	43178.20
649.63	42632.86
649.78	42637.54
649.92	42731.16
650.07	43065.86
650.21	42976.92
650.36	42925.42
650.51	42415.19
650.65	42426.89
650.80	42899.68
650.94	42471.36
651.09	42850.53
651.23	42052.41
651.38	42511.15
651.52	42373.06
651.67	42389.44
651.81	42384.76
651.96	42431.57
652.10	42071.13
652.25	42232.63
652.39	42225.60
652.54	42197.52
652.68	42178.79
652.83	42192.84
652.97	42452.64
653.12	42124.96
653.26	42007.94
653.41	42265.39
653.55	41984.53
653.70	42218.58
653.84	42146.03
653.99	42520.51
654.13	42108.58
654.27	42029.00
654.42	42253.69
654.56	41584.30
654.71	41984.53
654.85	42129.64
655.00	42321.57
655.14	42066.45
655.29	42239.65
655.43	41619.41
655.57	41635.79
655.72	41818.35
655.86	41523.44
656.01	41317.48
656.15	41488.34
656.30	41591.32
656.44	41813.67
656.58	41404.08
656.73	41326.84
656.87	40835.33
657.01	40992.14
657.16	41048.32
657.30	41163.00
657.45	41366.63
657.59	41139.60
657.73	40851.71
657.88	41462.59
658.02	41153.64
658.16	40971.08
658.31	41731.75
658.45	41909.63
658.60	41155.98
658.74	40928.95
658.88	41064.70
659.03	41104.49
659.17	41064.70
659.31	40687.87
659.46	40692.55
659.60	40804.90
659.74	40809.58
659.89	40423.39
660.03	40748.73
660.17	40423.39
660.32	40444.46
660.46	40914.90
660.60	40229.13
660.74	40231.47
660.89	40493.61
661.03	40273.60
661.17	39632.29
661.32	39796.13
661.46	39789.11
661.60	40032.52
661.74	39819.53
661.89	39555.05
662.03	39903.79
662.17	39613.57
662.31	39508.24
662.46	39761.02
662.60	39580.80
662.74	39632.29
662.88	39318.66
663.03	39566.76
663.17	39438.03
663.31	39173.55
663.45	39487.18
663.60	39854.64
663.74	39501.22
663.88	39318.66
664.02	39349.09
664.17	39452.07
664.31	38902.04
664.45	38958.22
664.59	39058.86
664.73	38932.47
664.88	38902.04
665.02	38946.51
665.16	39112.69
665.30	38827.15
665.44	39171.21
665.59	38471.39
665.73	38775.66
665.87	38024.34
666.01	38206.90
666.15	38209.25
666.29	38050.09
666.44	38581.39
666.58	38106.26
666.72	37799.65
666.86	38148.39
667.00	37773.91
667.14	38347.34
667.28	37883.91
667.43	38473.73
667.57	37986.89
667.71	38071.15
667.85	38117.96
667.99	37897.95
668.13	37764.54
668.27	37797.31
668.41	37855.82
668.56	37380.70
668.70	36903.23
668.84	36666.83
668.98	37085.79
669.12	37287.07
669.26	37467.30
669.40	37120.90
669.54	37284.73
669.68	36978.12
669.82	37132.60
669.96	36465.55
670.10	36828.33
670.25	36797.90
670.39	36325.11
670.53	36524.06
670.67	36615.34
670.81	36542.78
670.95	36161.28
671.09	36067.66
671.23	36142.55
671.37	36271.28
671.51	36290.01
671.65	36334.48
671.79	36039.57
671.93	35896.80
672.07	36093.40
672.21	35938.93
672.35	35695.51
672.49	35618.27
672.63	35948.29
672.77	35445.07
672.91	35859.35
673.05	35419.33
673.19	34897.39
673.33	35346.77
673.47	35096.33
673.61	35098.67
673.75	34735.89
673.89	34719.51
674.03	34911.43
674.17	34719.51
674.31	34550.99
674.45	33830.10
674.59	34553.33
674.73	34719.51
674.87	33883.94
675.01	34190.55
675.15	33776.27
675.29	33783.29
675.43	34120.33
675.56	34188.21
675.70	33628.82
675.84	33872.23
675.98	32837.72
676.12	33254.33
676.26	33528.17
676.40	33469.66
676.54	33099.86
676.68	33092.83
676.82	32470.25
676.96	32910.27
677.10	33156.03
677.23	32451.53
677.37	32716.01
677.51	32694.94
677.65	32226.84
677.79	32278.33
677.93	32598.98
678.07	32275.99
678.21	31929.59
678.34	31807.88
678.48	32266.63
678.62	31620.64
678.76	31367.86
678.90	31292.96
679.04	31571.49
679.18	31517.65
679.31	31264.88
679.45	31597.23
679.59	31147.85
679.73	31349.14
679.87	30677.40
680.00	31304.67
680.14	30597.82
680.28	30911.46
680.42	30539.31
680.56	30588.46
680.70	30092.27
680.83	30225.68
680.97	30319.30
681.11	30216.32
681.25	29474.37
681.39	29916.73
681.52	29982.26
681.66	29689.70
681.80	29029.66
681.94	29287.12
682.07	29312.87
682.21	29352.66
682.35	28676.24
682.49	28720.71
682.62	28987.53
682.76	29095.20
682.90	28875.19
683.04	28783.91
683.17	28753.48
683.31	28786.25
683.45	28657.52
683.59	28074.73
683.72	28379.00
683.86	27847.69
684.00	28210.48
684.13	28208.14
684.27	27967.06
684.41	27639.39
684.55	27700.24
684.68	27487.25
684.82	27197.02
684.96	27349.16
685.09	27068.30
685.23	27225.11
685.37	27412.35
685.50	27236.81
685.64	27229.79
685.78	26838.92
685.91	26520.61
686.05	26445.71
686.19	26218.68
686.32	26185.91
686.46	25979.95
686.60	25844.20
686.73	26031.44
686.87	25766.96
687.01	25802.07
687.14	26274.85
687.28	25586.74
687.42	25706.10
687.55	25394.81
687.69	25050.75
687.82	24989.90
687.96	25160.76
688.10	25411.20
688.23	25474.39
688.37	24952.45
688.50	25099.90
688.64	24875.21
688.78	24634.14
688.91	24542.86
689.05	24596.69
689.18	24526.47
689.32	23920.28
689.46	23803.25
689.59	23917.93
689.73	23807.93
689.86	24077.09
690.00	23910.91
690.13	24123.90
690.27	23545.79
690.41	23969.43
690.54	23288.33
690.68	23384.29
690.81	23447.49
690.95	23094.07
691.08	23070.66
691.22	22803.84
691.35	22958.31
691.49	22754.69
691.62	22906.82
691.76	22366.16
691.89	22375.52
692.03	22317.01
692.16	22015.08
692.30	22338.07
692.43	22188.28
692.57	21940.18
692.70	21811.45
692.84	21724.85
692.97	21565.70
693.11	21720.17
693.24	21558.67
693.38	21221.64
693.51	21305.90
693.65	21069.50
693.78	21095.25
693.92	21160.78
694.05	21027.37
694.19	20999.29
694.32	20758.21
694.45	21043.76
694.59	20950.14
694.72	20688.00
694.86	20334.57
694.99	20297.13
695.13	20032.65
695.26	20102.86
695.39	19843.06
695.53	19754.12
695.66	20070.09
695.80	20100.52
695.93	19892.21
696.07	19646.46
696.20	19487.30
696.33	19246.23
696.47	19377.30
696.60	19346.87
696.73	19339.85
696.87	19325.80
697.00	19124.52
697.14	18792.16
697.27	18878.76
697.40	18623.64
697.54	18775.78
697.67	18604.92
697.80	18677.48
697.94	18551.09
698.07	18295.97
698.21	18031.49
698.34	18237.45
698.47	18071.28
698.61	17944.89
698.74	17689.77
698.87	17769.35
699.01	17507.21
699.14	17558.70
699.27	17881.69
699.40	17521.25
699.54	17322.30
699.67	17273.15
699.80	17542.32
699.94	17163.15
700.07	17090.59
700.20	16912.71
700.34	16875.26
700.47	16964.20
700.60	17294.22
700.73	16933.78
700.87	16868.24
701.00	16624.83
701.13	16718.45
701.26	16563.97
701.40	16475.03
701.53	16182.46
701.66	16231.62
701.79	16004.58
701.93	16051.39
702.06	15707.34
702.19	15772.87
702.32	15910.96
702.46	15943.73
702.59	15611.37
702.72	15854.79
702.85	15721.38
702.99	15524.77
703.12	15508.39
703.25	15236.89
703.38	15405.41
703.51	15211.14
703.65	15070.71
703.78	14902.19
703.91	14686.86
704.04	14670.48
704.17	14960.70
704.31	14714.95
704.44	14501.96
704.57	14368.55
704.70	14558.13
704.83	14391.95
704.96	14118.11
705.10	14068.96
705.23	14127.47
>>>>>End Processed Spectral Data<<<<<
