SpectraSuite Data File
++++++++++++++++++++++++++++++++++++
Date: Fri Oct 25 11:33:21 EDT 2013
User: price-jones
Dark Spectrum Present: No
Reference Spectrum Present: No
Number of Sampled Component Spectra: 1
Spectrometers: USB2+H05261
Integration Time (usec): 100000 (USB2+H05261)
Spectra Averaged: 1 (USB2+H05261)
Boxcar Smoothing: 0 (USB2+H05261)
Correct for Electrical Dark: No (USB2+H05261)
Strobe/Lamp Enabled: No (USB2+H05261)
Correct for Detector Non-linearity: No (USB2+H05261)
Correct for Stray Light: No (USB2+H05261)
Number of Pixels in Processed Spectrum: 2048
>>>>>Begin Processed Spectral Data<<<<<
365.73	313.63
365.92	313.63
366.12	313.63
366.32	262.14
366.52	156.82
366.72	215.33
366.91	241.08
367.11	189.58
367.31	180.22
367.51	135.75
367.70	198.95
367.90	271.50
368.10	166.18
368.30	236.39
368.49	177.88
368.69	196.60
368.89	208.31
369.09	161.50
369.28	187.24
369.48	205.97
369.68	243.42
369.87	238.73
370.07	250.44
370.27	320.65
370.47	337.04
370.66	400.23
370.86	554.71
371.06	575.77
371.25	568.75
371.45	477.47
371.65	664.71
371.84	512.58
372.04	482.15
372.24	592.16
372.44	631.94
372.63	540.66
372.83	596.84
373.03	484.49
373.22	599.18
373.42	622.58
373.62	657.69
373.81	688.12
374.01	664.71
374.21	641.31
374.40	613.22
374.60	678.76
374.79	587.47
374.99	636.63
375.19	601.52
375.38	664.71
375.58	695.14
375.78	648.33
375.97	748.97
376.17	676.41
376.37	678.76
376.56	751.31
376.76	709.18
376.95	643.65
377.15	631.94
377.35	634.29
377.54	692.80
377.74	671.73
377.93	624.92
378.13	636.63
378.33	608.54
378.52	589.82
378.72	739.61
378.91	746.63
379.11	739.61
379.31	774.72
379.50	746.63
379.70	718.54
379.89	755.99
380.09	716.20
380.28	697.48
380.48	774.72
380.68	716.20
380.87	746.63
381.07	697.48
381.26	826.21
381.46	786.42
381.65	697.48
381.85	840.25
382.04	819.19
382.24	718.54
382.43	741.95
382.63	774.72
382.83	716.20
383.02	842.59
383.22	805.14
383.41	819.19
383.61	802.80
383.80	779.40
384.00	875.36
384.19	840.25
384.39	807.48
384.58	748.97
384.78	837.91
384.97	875.36
385.17	861.32
385.36	809.83
385.56	837.91
385.75	819.19
385.95	833.23
386.14	901.11
386.34	887.06
386.53	851.96
386.72	847.27
386.92	847.27
387.11	858.98
387.31	777.06
387.50	880.04
387.70	833.23
387.89	884.72
388.09	823.87
388.28	889.40
388.48	938.55
388.67	933.87
388.86	1053.24
389.06	915.15
389.25	994.73
389.45	999.41
389.64	997.07
389.84	922.17
390.03	987.71
390.22	898.77
390.42	940.90
390.61	943.24
390.81	966.64
391.00	961.96
391.19	1018.13
391.39	1036.86
391.58	987.71
391.78	957.28
391.97	1001.75
392.16	954.94
392.36	1039.20
392.55	1142.18
392.75	1071.97
392.94	1046.22
393.13	1071.97
393.33	1050.90
393.52	978.34
393.71	1151.54
393.91	1020.47
394.10	1048.56
394.29	1069.62
394.49	1118.78
394.68	1146.86
394.88	1081.33
395.07	1088.35
395.26	1177.29
395.46	1128.14
395.65	1174.95
395.84	1177.29
396.04	1315.38
396.23	1128.14
396.42	1196.01
396.62	1193.67
396.81	1240.48
397.00	1235.80
397.19	1135.16
397.39	1289.64
397.58	1362.19
397.77	1280.27
397.97	1242.82
398.16	1249.85
398.35	1291.98
398.55	1217.08
398.74	1277.93
398.93	1338.79
399.12	1315.38
399.32	1331.76
399.51	1233.46
399.70	1313.04
399.90	1416.02
400.09	1430.07
400.28	1366.87
400.47	1313.04
400.67	1355.17
400.86	1362.19
401.05	1401.98
401.24	1371.55
401.44	1373.89
401.63	1493.26
401.82	1432.41
402.01	1359.85
402.21	1500.28
402.40	1533.05
402.59	1514.33
402.78	1530.71
402.97	1481.56
403.17	1577.52
403.36	1516.67
403.55	1607.95
403.74	1533.05
403.93	1638.38
404.13	1675.82
404.32	1619.65
404.51	1640.72
404.70	1682.85
404.89	1579.86
405.09	1696.89
405.28	1748.38
405.47	1734.34
405.66	1746.04
405.85	1664.12
406.05	1750.72
406.24	1753.06
406.43	1769.44
406.62	1732.00
406.81	1827.96
407.00	1785.83
407.20	1736.68
407.39	1816.26
407.58	1942.64
407.77	1853.70
407.96	1834.98
408.15	1893.49
408.34	1881.79
408.54	1865.41
408.73	1942.64
408.92	1998.82
409.11	1973.07
409.30	1989.46
409.49	2019.88
409.68	2003.50
409.87	2005.84
410.07	2001.16
410.26	2120.53
410.45	2122.87
410.64	2183.72
410.83	2169.68
411.02	2097.12
411.21	2211.81
411.40	2160.31
411.59	2216.49
411.78	2209.47
411.98	2230.53
412.17	2253.94
412.36	2275.00
412.55	2310.11
412.74	2324.15
412.93	2452.88
413.12	2296.07
413.31	2382.67
413.50	2415.43
413.69	2420.11
413.88	2417.77
414.07	2492.67
414.26	2499.69
414.45	2654.17
414.64	2574.59
414.83	2562.89
415.02	2537.14
415.22	2558.21
415.41	2616.72
415.60	2649.49
415.79	2590.97
415.98	2796.94
416.17	2780.56
416.36	2605.02
416.55	2782.90
416.74	2892.90
416.93	2862.48
417.12	2892.90
417.31	2857.79
417.50	2909.29
417.69	2958.44
417.88	2937.37
418.07	2860.13
418.26	2937.37
418.45	2942.05
418.64	3129.30
418.83	3012.27
419.02	2993.55
419.21	3176.11
419.39	3138.66
419.58	3112.91
419.77	3148.02
419.96	3225.26
420.15	3215.90
420.34	3091.85
420.53	3229.94
420.72	3265.05
420.91	3239.30
421.10	3365.69
421.29	3353.99
421.48	3169.09
421.67	3192.49
421.86	3328.24
422.05	3332.92
422.24	3199.51
422.43	3351.65
422.61	3403.14
422.80	3473.36
422.99	3499.10
423.18	3421.86
423.37	3494.42
423.56	3529.53
423.75	3543.57
423.94	3351.65
424.13	3164.40
424.32	3241.64
424.50	3332.92
424.69	3592.72
424.88	3597.40
425.07	3375.05
425.26	3456.97
425.45	3545.91
425.64	3503.78
425.83	3405.48
426.01	3534.21
426.20	3585.70
426.39	3581.02
426.58	3566.98
426.77	3419.52
426.96	3552.93
427.15	3581.02
427.33	3569.32
427.52	3616.13
427.71	3508.46
427.90	3527.19
428.09	3662.94
428.28	3709.75
428.46	3698.05
428.65	3705.07
428.84	3932.10
429.03	3985.93
429.22	3742.52
429.40	3637.19
429.59	3812.73
429.78	3761.24
429.97	3604.42
430.16	3744.86
430.34	3927.42
430.53	3791.67
430.72	3861.88
430.91	3990.61
431.10	3859.54
431.28	4002.32
431.47	3843.16
431.66	3915.72
431.85	3999.98
432.03	4142.75
432.22	4091.26
432.41	4021.04
432.60	4121.68
432.79	4203.60
432.97	4173.18
433.16	4180.20
433.35	4117.00
433.54	4318.29
433.72	4294.88
433.91	4194.24
434.10	4217.65
434.28	4241.05
434.47	4287.86
434.66	4145.09
434.85	4276.16
435.03	4341.69
435.22	4348.72
435.41	4437.66
435.59	4437.66
435.78	4458.72
435.97	4493.83
436.16	4397.87
436.34	4423.61
436.53	4358.08
436.72	4550.00
436.90	4505.53
437.09	4521.92
437.28	4500.85
437.46	4559.36
437.65	4634.26
437.84	4620.22
438.02	4564.04
438.21	4685.75
438.40	4676.39
438.58	4772.35
438.77	4868.31
438.96	4685.75
439.14	4896.40
439.33	4849.59
439.52	4971.30
439.70	5104.71
439.89	4985.34
440.08	5078.96
440.26	5036.83
440.45	5198.33
440.63	5078.96
440.82	5205.35
441.01	5090.67
441.19	5057.90
441.38	5186.63
441.57	5224.08
441.75	5355.15
441.94	5509.62
442.12	5434.72
442.31	5432.38
442.50	5401.96
442.68	5582.18
442.87	5497.92
443.05	5411.32
443.24	5607.92
443.43	5399.62
443.61	5558.77
443.80	5841.98
443.98	5411.32
444.17	5310.68
444.35	5596.22
444.54	5593.88
444.73	5703.89
444.91	5689.84
445.10	5619.63
445.28	5696.86
445.47	5710.91
445.65	5533.03
445.84	5823.25
446.02	5792.83
446.21	5748.36
446.39	5722.61
446.58	5841.98
446.77	5830.27
446.95	5654.73
447.14	5797.51
447.32	5930.92
447.51	5675.80
447.69	5785.80
447.88	5729.63
448.06	5816.23
448.25	5914.53
448.43	6001.13
448.62	6010.50
448.80	5849.00
448.99	6010.50
449.17	6019.86
449.36	5853.68
449.54	6008.16
449.73	6169.65
449.91	6122.84
450.10	6085.39
450.28	6085.39
450.46	6235.19
450.65	6197.74
450.83	6139.23
451.02	6263.27
451.20	6193.06
451.39	6228.17
451.57	6221.14
451.76	6080.71
451.94	6399.02
452.13	6382.64
452.31	6237.53
452.49	6328.81
452.68	6249.23
452.86	6258.59
453.05	6579.25
453.23	6506.69
453.42	6509.03
453.60	6499.67
453.78	6399.02
453.97	6483.28
454.15	6511.37
454.34	6492.65
454.52	6679.89
454.70	6354.55
454.89	6572.22
455.07	6539.46
455.26	6541.80
455.44	6932.67
455.62	6773.51
455.81	6752.45
455.99	6855.43
456.17	6799.26
456.36	6780.53
456.54	6920.96
456.73	6878.83
456.91	6902.24
457.09	7021.61
457.28	7194.81
457.46	6939.69
457.64	6979.48
457.83	7129.27
458.01	7187.79
458.19	7269.70
458.38	7148.00
458.56	7204.17
458.74	7211.19
458.93	7407.80
459.11	7201.83
459.29	7316.51
459.48	7293.11
459.66	7239.28
459.84	7480.35
460.03	7466.31
460.21	7510.78
460.39	7496.74
460.57	7510.78
460.76	7510.78
460.94	7569.29
461.12	7475.67
461.31	7365.67
461.49	7529.50
461.67	7627.81
461.85	7831.43
462.04	7541.21
462.22	8039.74
462.40	7969.52
462.59	7672.28
462.77	7808.03
462.95	7873.56
463.13	7803.35
463.32	7927.39
463.50	7887.61
463.68	7906.33
463.86	7922.71
464.05	7845.48
464.23	7854.84
464.41	8121.66
464.59	7918.03
464.78	8095.91
464.96	8053.78
465.14	7992.93
465.32	8131.02
465.50	8131.02
465.69	8294.86
465.87	8236.35
466.05	8212.94
466.23	8067.83
466.41	8156.77
466.60	8428.27
466.78	8128.68
466.96	8175.49
467.14	8119.32
467.32	8369.76
467.51	8365.07
467.69	8285.50
467.87	8524.23
468.05	8421.25
468.23	8360.39
468.41	8482.10
468.60	8351.03
468.78	8706.79
468.96	8386.14
469.14	8641.26
469.32	8601.47
469.50	8446.99
469.69	8769.99
469.87	8903.40
470.05	8875.31
470.23	8674.03
470.41	8915.10
470.59	9053.19
470.77	9069.58
470.95	8938.51
471.14	8879.99
471.32	8863.61
471.50	8982.98
471.68	9249.80
471.86	9111.71
472.04	9123.41
472.22	9584.49
472.40	9261.50
472.58	9174.90
472.77	9156.18
472.95	9352.78
473.13	9720.24
473.31	9287.25
473.49	9647.69
473.67	9446.40
473.85	9481.51
474.03	9640.67
474.21	9907.49
474.39	10054.94
474.57	10001.11
474.75	10068.98
474.93	9994.09
475.12	10066.64
475.30	10057.28
475.48	10012.81
475.66	10178.99
475.84	10073.67
476.02	10216.44
476.20	10188.35
476.38	10349.85
476.56	10516.03
476.74	10621.35
476.92	10675.18
477.10	10630.71
477.28	10888.17
477.46	11012.22
477.64	10780.51
477.82	10960.73
478.00	11232.23
478.18	11129.25
478.36	11335.21
478.54	11576.29
478.72	11461.60
478.90	11550.54
479.08	11735.45
479.26	11777.58
479.44	12002.27
479.62	11836.09
479.80	12079.50
479.98	12128.66
480.16	12105.25
480.34	11992.90
480.52	12397.82
480.70	12245.68
480.88	12173.13
481.06	12535.91
481.24	12287.81
481.41	12751.24
481.59	12786.35
481.77	12908.05
481.95	12837.84
482.13	13284.88
482.31	13015.72
482.49	13535.32
482.67	13350.42
482.85	13811.50
483.03	13823.20
483.21	14111.09
483.39	14094.71
483.57	13586.81
483.74	14047.90
483.92	14218.75
484.10	14122.79
484.28	14279.61
484.46	14747.72
484.64	14752.40
484.82	14457.49
485.00	14862.40
485.18	15194.76
485.35	15049.64
485.53	15316.47
485.71	15239.23
485.89	15637.12
486.07	15623.08
486.25	15702.65
486.43	15770.53
486.61	15878.19
486.78	15894.58
486.96	15941.39
487.14	16105.23
487.32	16538.23
487.50	16809.73
487.68	16704.40
487.85	16931.44
488.03	16959.52
488.21	17441.67
488.39	16903.35
488.57	17584.44
488.75	17411.25
488.92	17495.50
489.10	17701.47
489.28	17614.87
489.46	17909.78
489.64	17975.31
489.81	18148.51
489.99	18190.64
490.17	18176.60
490.35	18567.47
490.53	18778.12
490.70	18970.04
490.88	18733.65
491.06	18956.00
491.24	19229.84
491.41	18977.06
491.59	19569.22
491.77	19140.90
491.95	19623.05
492.13	19522.41
492.30	19824.34
492.48	19894.55
492.66	19798.59
492.84	20023.28
493.01	20451.60
493.19	20210.53
493.37	20205.84
493.54	20802.68
493.72	20872.90
493.90	20886.94
494.08	21106.95
494.25	21268.45
494.43	21350.37
494.61	21289.51
494.79	21483.78
494.96	21364.41
495.14	21551.65
495.32	21898.05
495.49	21996.35
495.67	22059.55
495.85	22211.68
496.02	22108.70
496.20	22731.28
496.38	22340.41
496.55	22773.41
496.73	23014.49
496.91	22733.62
497.09	22850.65
497.26	22963.00
497.44	22974.70
497.62	23379.61
497.79	23520.04
497.97	23513.02
498.14	23747.08
498.32	23789.20
498.50	23948.36
498.67	24126.24
498.85	24156.67
499.03	24463.28
499.20	24404.77
499.38	24437.53
499.56	24500.73
499.73	24512.43
499.91	24329.87
500.08	25266.08
500.26	24837.76
500.44	24952.45
500.61	24783.93
500.79	24961.81
500.97	25434.60
501.14	25759.94
501.32	25362.04
501.49	25364.39
501.67	25493.12
501.84	25577.37
502.02	26005.69
502.20	26199.96
502.37	26024.42
502.55	26181.23
502.72	26153.15
502.90	25909.73
503.07	26106.34
503.25	25993.99
503.43	26361.45
503.60	26347.41
503.78	26382.52
503.95	26394.22
504.13	26572.10
504.30	26726.58
504.48	26602.53
504.65	27285.97
504.83	27150.21
505.01	27304.69
505.18	26890.41
505.36	27545.76
505.53	27433.42
505.71	27615.98
505.88	27477.89
506.06	27761.09
506.23	27782.16
506.41	27969.40
506.58	28151.96
506.76	28060.68
506.93	28201.11
507.11	28341.55
507.28	28393.04
507.46	28587.30
507.63	28479.64
507.81	28795.61
507.98	28318.14
508.16	28842.42
508.33	28950.09
508.50	28891.57
508.68	28952.43
508.85	29132.65
509.03	29406.49
509.20	29289.46
509.38	29617.14
509.55	29525.86
509.73	29855.87
509.90	29465.00
510.08	29446.28
510.25	29741.19
510.42	29617.14
510.60	29811.40
510.77	29986.94
510.95	30197.59
511.12	29907.37
511.30	29942.47
511.47	30412.92
511.64	30232.70
511.82	30604.84
511.99	30443.35
512.17	31033.16
512.34	30541.65
512.51	31044.87
512.69	31311.69
512.86	31112.74
513.04	31065.93
513.21	31325.73
513.38	31882.78
513.56	31335.09
513.73	31220.41
513.90	31328.07
514.08	31477.86
514.25	31562.12
514.43	32156.62
514.60	31988.10
514.77	32116.83
514.95	32112.15
515.12	31810.22
515.29	31857.03
515.47	32163.64
515.64	32112.15
515.81	31960.02
515.99	32437.48
516.16	32421.10
516.33	32556.85
516.51	32718.35
516.68	32617.71
516.85	32886.87
517.03	33172.41
517.20	33102.20
517.37	32730.05
517.54	32837.72
517.72	33149.01
517.89	33546.90
518.06	33141.99
518.24	33354.97
518.41	33446.26
518.58	33551.58
518.75	33141.99
518.93	34024.37
519.10	33427.53
519.27	33495.41
519.45	33617.11
519.62	33876.91
519.79	34082.88
519.96	33783.29
520.14	34005.64
520.31	33944.79
520.48	34485.45
520.65	34270.12
520.83	34888.03
521.00	34930.16
521.17	34380.13
521.34	34628.23
521.52	34827.17
521.69	34497.16
521.86	35105.70
522.03	35129.10
522.20	35337.41
522.38	35297.62
522.55	35372.52
522.72	35339.75
522.89	34855.26
523.07	35587.85
523.24	35402.94
523.41	35431.03
523.58	35669.76
523.75	35871.05
523.92	35536.35
524.10	35693.17
524.27	35824.24
524.44	35667.42
524.61	36311.07
524.78	36020.84
524.96	36144.89
525.13	36172.98
525.30	36428.10
525.47	36105.10
525.64	36341.50
525.81	36725.35
525.98	36685.56
526.16	36608.32
526.33	36203.41
526.50	36971.10
526.67	36287.67
526.84	36989.83
527.01	36711.30
527.18	37113.87
527.36	36999.19
527.53	37088.13
527.70	37301.12
527.87	37317.50
528.04	37432.19
528.21	37216.86
528.38	37184.09
528.55	37413.46
528.72	37322.18
528.89	37593.68
529.07	37605.39
529.24	37418.14
529.41	37993.92
529.58	37525.81
529.75	37670.92
529.92	37890.93
530.09	37734.12
530.26	37991.58
530.43	37858.17
530.60	37827.74
530.77	38188.18
530.94	38110.94
531.11	37879.23
531.28	38204.56
531.46	38174.14
531.63	38319.25
531.80	38115.62
531.97	38340.32
532.14	38574.37
532.31	38476.07
532.48	38979.28
532.65	39089.29
532.82	38752.25
532.99	38527.56
533.16	38705.44
533.33	38614.16
533.50	38920.77
533.67	38911.41
533.84	38927.79
534.01	38747.57
534.18	39199.29
534.35	39618.25
534.52	39522.29
534.69	39983.37
534.86	39505.90
535.03	39435.69
535.20	39854.64
535.37	39449.73
535.54	39604.20
535.71	39655.70
535.88	39974.01
536.05	39662.72
536.22	40652.76
536.38	39864.00
536.55	40069.97
536.72	39845.28
536.89	39761.02
537.06	40009.12
537.23	40596.59
537.40	40210.40
537.57	40259.55
537.74	40044.23
537.91	40451.48
538.08	40652.76
538.25	40350.84
538.42	40566.16
538.59	40865.75
538.75	40725.32
538.92	40854.05
539.09	41102.15
539.26	40643.40
539.43	41095.13
539.60	41296.41
539.77	40994.48
539.94	41244.92
540.11	41067.04
540.28	41125.55
540.44	40554.46
540.61	41153.64
540.78	40968.74
540.95	41289.39
541.12	41151.30
541.29	41273.01
541.46	41434.50
541.62	41254.28
541.79	41486.00
541.96	41254.28
542.13	41464.93
542.30	41060.02
542.47	41017.89
542.63	42024.32
542.80	41806.65
542.97	41794.95
543.14	42305.18
543.31	42230.29
543.48	41949.42
543.64	42454.98
543.81	42398.80
543.98	42759.25
544.15	42525.19
544.32	42583.71
544.48	42728.82
544.65	42972.24
544.82	42707.76
544.99	42195.18
545.16	42384.76
545.32	42707.76
545.49	42930.11
545.66	43161.82
545.83	43201.61
546.00	43051.81
546.16	42745.20
546.33	42904.36
546.50	42677.33
546.67	42670.31
546.83	42403.49
547.00	43171.18
547.17	42628.18
547.34	42892.66
547.50	43445.02
547.67	43480.13
547.84	43117.35
548.00	43882.70
548.17	43690.78
548.34	43775.04
548.51	43430.98
548.67	43274.16
548.84	43452.05
549.01	43370.13
549.18	43461.41
549.34	43503.54
549.51	43885.04
549.68	44060.58
549.84	43777.38
550.01	44037.18
550.18	43840.57
550.34	43538.65
550.51	43983.35
550.68	44421.03
550.84	43152.46
551.01	44032.50
551.18	44006.75
551.34	44142.50
551.51	44390.60
551.68	44322.72
551.84	43908.45
552.01	44236.12
552.18	44257.19
552.34	44102.71
552.51	44713.59
552.68	44023.14
552.84	44432.73
553.01	44708.91
553.18	44072.29
553.34	44989.78
553.51	44353.15
553.67	44535.71
553.84	44676.15
554.01	44872.75
554.17	44706.57
554.34	45354.90
554.51	45092.76
554.67	45188.72
554.84	44999.14
555.00	44762.75
555.17	44907.86
555.33	45125.53
555.50	45017.86
555.67	45148.93
555.83	44807.22
556.00	45354.90
556.16	45565.55
556.33	45345.54
556.50	44863.39
556.66	45132.55
556.83	44898.50
556.99	45132.55
557.16	45443.84
557.32	45057.65
557.49	45605.34
557.65	45312.77
557.82	45345.54
557.98	45509.38
558.15	45640.45
558.32	45705.98
558.48	45755.13
558.65	45588.95
558.81	46071.10
558.98	45930.67
559.14	45347.88
559.31	45453.20
559.47	45249.58
559.64	46164.73
559.80	45411.07
559.97	45815.99
560.13	45588.95
560.30	45813.65
560.46	45698.96
560.63	45907.27
560.79	46115.58
560.96	45621.72
561.12	46129.62
561.29	45958.76
561.45	46263.03
561.61	46082.81
561.78	45832.37
561.94	45792.58
562.11	45958.76
562.27	46686.67
562.44	46071.10
562.60	46045.36
562.77	46387.08
562.93	45811.31
563.10	46499.42
563.26	46401.12
563.42	46377.72
563.59	45869.82
563.75	46007.91
563.92	46401.12
564.08	46115.58
564.24	46674.96
564.41	46309.84
564.57	46164.73
564.74	46368.35
564.90	46562.62
565.07	46433.89
565.23	45808.96
565.39	46387.08
565.56	46871.57
565.72	47077.54
565.88	46609.43
566.05	46124.94
566.21	46518.15
566.38	46766.24
566.54	46639.86
566.70	47159.45
566.87	46316.86
567.03	46131.96
567.19	46515.81
567.36	46127.28
567.52	46639.86
567.68	47021.36
567.85	46700.71
568.01	46550.91
568.17	46590.70
568.34	47004.98
568.50	47105.62
568.66	46906.68
568.83	47098.60
568.99	46719.43
569.15	46562.62
569.32	47007.32
569.48	46892.63
569.64	47395.85
569.81	47283.50
569.97	46564.96
570.13	46967.53
570.30	46880.93
570.46	46855.18
570.62	47346.70
570.78	46815.40
570.95	47021.36
571.11	46848.16
571.27	46763.90
571.43	47187.54
571.60	46742.84
571.76	46930.08
571.92	46878.59
572.09	46859.87
572.25	46789.65
572.41	47217.97
572.57	47189.88
572.74	47557.35
572.90	47084.56
573.06	47405.21
573.22	47295.21
573.38	47498.83
573.55	47180.52
573.71	47503.51
573.87	47131.37
574.03	46700.71
574.20	47508.19
574.36	47489.47
574.52	47264.78
574.68	47276.48
574.84	47550.32
575.01	47342.02
575.17	47564.37
575.33	47306.91
575.49	47030.72
575.65	47246.05
575.82	47435.64
575.98	47283.50
576.14	47498.83
576.30	47608.84
576.46	47325.63
576.62	47232.01
576.79	47281.16
576.95	47342.02
577.11	47051.79
577.27	47196.90
577.43	47779.70
577.59	47367.76
577.75	47327.97
577.92	47323.29
578.08	47098.60
578.24	47648.63
578.40	47725.86
578.56	47358.40
578.72	46866.89
578.88	47566.71
579.04	47449.68
579.21	47557.35
579.37	47412.23
579.53	47852.25
579.69	47426.28
579.85	47276.48
580.01	47365.42
580.17	47620.54
580.33	47819.49
580.49	47735.23
580.65	47423.93
580.82	47042.43
580.98	47168.82
581.14	47456.70
581.30	47334.99
581.46	47613.52
581.62	47133.71
581.78	47576.07
581.94	47468.40
582.10	47643.94
582.26	47650.97
582.42	47655.65
582.58	47625.22
582.74	47650.97
582.90	47632.24
583.06	47657.99
583.22	47475.43
583.38	48074.60
583.54	47737.57
583.70	48020.77
583.86	47828.85
584.02	47763.31
584.18	47613.52
584.34	47786.72
584.50	48048.86
584.66	47728.20
584.82	48041.84
584.98	47643.94
585.14	48177.59
585.30	47503.51
585.46	47929.49
585.62	47657.99
585.78	47885.02
585.94	47547.98
586.10	47344.36
586.26	47232.01
586.42	47716.50
586.58	48044.18
586.74	47950.56
586.90	47800.76
587.06	47784.38
587.22	48172.91
587.38	48165.88
587.54	47838.21
587.70	48126.10
587.86	48193.97
588.02	47997.37
588.18	47800.76
588.34	47505.85
588.49	47892.04
588.65	47487.13
588.81	47597.13
588.97	48030.13
589.13	47826.51
589.29	47903.74
589.45	48041.84
589.61	47641.60
589.77	48004.39
589.93	47782.04
590.08	47973.96
590.24	48528.67
590.40	48463.13
590.56	48137.80
590.72	48189.29
590.88	47767.99
591.04	47878.00
591.20	48509.94
591.35	48198.65
591.51	48566.12
591.67	48210.35
591.83	48683.14
591.99	48065.24
592.15	47870.98
592.31	47688.42
592.46	48114.39
592.62	48058.22
592.78	48327.38
592.94	48423.34
593.10	48275.89
593.26	48432.71
593.41	48252.48
593.57	48477.18
593.73	48589.52
593.89	48217.38
594.05	48329.72
594.20	48542.71
594.36	48816.55
594.52	48615.27
594.68	48423.34
594.84	48554.41
594.99	48680.80
595.15	48566.12
595.31	48395.26
595.47	48465.47
595.62	48844.64
595.78	48151.84
595.94	48825.92
596.10	48442.07
596.25	48566.12
596.41	48772.08
596.57	48472.49
596.73	48619.95
596.88	48395.26
597.04	48421.00
597.20	48736.98
597.36	48582.50
597.51	48821.23
597.67	48481.86
597.83	48376.53
597.99	48680.80
598.14	48245.46
598.30	48184.61
598.46	48849.32
598.61	48498.24
598.77	48343.77
598.93	48498.24
599.09	48095.67
599.24	49109.12
599.40	48488.88
599.56	48563.78
599.71	48907.83
599.87	49174.66
600.03	48432.71
600.18	48484.20
600.34	48629.31
600.50	48673.78
600.65	48531.01
600.81	48994.43
600.97	48839.96
601.12	48877.41
601.28	48385.89
601.44	48367.17
601.59	48828.26
601.75	48559.09
601.91	48662.08
602.06	48751.02
602.22	48910.17
602.37	48678.46
602.53	48554.41
602.69	48608.25
602.84	48404.62
603.00	48336.74
603.16	48428.02
603.31	48825.92
603.47	48839.96
603.62	48357.81
603.78	48619.95
603.94	48655.06
604.09	48741.66
604.25	48678.46
604.40	48268.87
604.56	48491.22
604.71	48760.38
604.87	48250.14
605.03	48292.27
605.18	48835.28
605.34	48430.36
605.49	48451.43
605.65	48413.98
605.80	48360.15
605.96	48156.52
606.12	48652.72
606.27	48538.03
606.43	48388.24
606.58	48811.87
606.74	48655.06
606.89	48467.81
607.05	48973.37
607.20	48748.68
607.36	48325.04
607.51	48327.38
607.67	48341.42
607.82	48039.50
607.98	48683.14
608.13	48425.68
608.29	48381.21
608.44	48416.32
608.60	48215.04
608.75	48402.28
608.91	48102.69
609.06	48156.52
609.22	48666.76
609.37	48142.48
609.53	48280.57
609.68	48502.92
609.84	48224.40
609.99	48140.14
610.15	48767.40
610.30	48568.46
610.46	48362.49
610.61	47817.14
610.76	48617.61
610.92	48294.61
611.07	47983.32
611.23	48121.41
611.38	48130.78
611.54	48222.06
611.69	48772.08
611.84	48355.47
612.00	47810.12
612.15	48051.20
612.31	48233.76
612.46	48140.14
612.62	47973.96
612.77	48102.69
612.92	48318.02
613.08	48004.39
613.23	48205.67
613.39	47878.00
613.54	47515.22
613.69	48135.46
613.85	48016.09
614.00	48442.07
614.15	47889.70
614.31	47646.29
614.46	48105.03
614.62	47604.16
614.77	48233.76
614.92	47681.39
615.08	48041.84
615.23	48086.31
615.38	48229.08
615.54	47672.03
615.69	47831.19
615.84	47756.29
616.00	47894.38
616.15	48032.47
616.30	47997.37
616.46	47777.36
616.61	47704.80
616.76	47641.60
616.92	47833.53
617.07	47613.52
617.22	47627.56
617.37	47625.22
617.53	47604.16
617.68	47299.89
617.83	47363.08
617.99	48208.01
618.14	47957.58
618.29	47487.13
618.45	47421.59
618.60	47363.08
618.75	47269.46
618.90	47339.68
619.06	47316.27
619.21	47129.03
619.36	47636.92
619.51	47552.66
619.67	47615.86
619.82	47473.09
619.97	47622.88
620.12	47538.62
620.28	47194.56
620.43	47676.71
620.58	47246.05
620.73	47449.68
620.89	47009.66
621.04	47398.19
621.19	47419.25
621.34	47292.86
621.49	47194.56
621.65	47180.52
621.80	47447.34
621.95	47484.79
622.10	47065.83
622.25	47288.18
622.41	46733.48
622.56	46689.01
622.71	47276.48
622.86	46911.36
623.01	47049.45
623.16	47000.30
623.32	46979.23
623.47	46813.05
623.62	47054.13
623.77	46761.56
623.92	46892.63
624.07	46864.55
624.23	46904.34
624.38	46997.96
624.53	46728.80
624.68	46382.40
624.83	46515.81
624.98	46866.89
625.13	46302.82
625.29	46270.05
625.44	46822.42
625.59	46857.52
625.74	46983.91
625.89	46370.69
626.04	46681.98
626.19	46770.93
626.34	46368.35
626.49	46452.61
626.65	46026.63
626.80	46234.94
626.95	45876.84
627.10	46375.37
627.25	46569.64
627.40	46312.18
627.55	46347.29
627.70	46485.38
627.85	46719.43
628.00	46440.91
628.15	46293.46
628.30	45717.68
628.45	45825.35
628.60	45455.54
628.76	46153.02
628.91	45970.46
629.06	45755.13
629.21	45748.11
629.36	45668.53
629.51	45663.85
629.66	46349.63
629.81	46054.72
629.96	45799.60
630.11	45694.28
630.26	45874.50
630.41	46064.08
630.56	45736.41
630.71	45539.80
630.86	45624.06
631.01	45708.32
631.16	45844.07
631.31	45553.85
631.46	45511.72
631.61	45991.53
631.76	45855.78
631.91	45687.26
632.06	45675.55
632.21	46127.28
632.36	45656.83
632.51	45478.95
632.66	45453.20
632.81	45390.01
632.96	45333.84
633.10	45354.90
633.25	45382.99
633.40	45350.22
633.55	45668.53
633.70	45291.71
633.85	44821.26
634.00	45165.32
634.15	45141.91
634.30	45404.05
634.45	45064.67
634.60	45064.67
634.75	45230.85
634.90	44931.26
635.05	45127.87
635.19	45006.16
635.34	45446.18
635.49	45001.48
635.64	45085.74
635.79	45205.11
635.94	44978.07
636.09	45397.03
636.24	44959.35
636.39	44678.49
636.53	44659.76
636.68	44432.73
636.83	44531.03
636.98	45029.57
637.13	44079.31
637.28	44568.48
637.43	44414.01
637.57	44802.53
637.72	44428.05
637.87	44612.95
638.02	44671.46
638.17	44811.90
638.32	44594.23
638.46	44226.76
638.61	44142.50
638.76	44329.75
638.91	44109.74
639.06	44437.41
639.20	44210.38
639.35	44332.09
639.50	44217.40
639.65	44437.41
639.80	44406.98
639.94	44421.03
640.09	44495.92
640.24	44603.59
640.39	43608.86
640.54	43950.58
640.68	44254.85
640.83	44540.39
640.98	43842.92
641.13	43934.20
641.27	44072.29
641.42	43906.11
641.57	44039.52
641.72	43723.55
641.86	44395.28
642.01	43653.33
642.16	43852.28
642.31	43852.28
642.45	44151.87
642.60	43875.68
642.75	43735.25
642.90	44444.43
643.04	43395.87
643.19	43260.12
643.34	43344.38
643.48	43702.48
643.63	43477.79
643.78	43739.93
643.93	44074.63
644.07	43335.02
644.22	43557.37
644.37	43426.30
644.51	43583.12
644.66	43367.79
644.81	43852.28
644.95	43648.65
645.10	43475.45
645.25	43386.51
645.39	43175.86
645.54	43206.29
645.69	43021.39
645.83	42951.17
645.98	42733.50
646.13	42897.34
646.27	42944.15
646.42	42852.87
646.57	42916.06
646.71	43019.05
646.86	43278.85
647.00	43255.44
647.15	43330.34
647.30	43220.33
647.44	43068.20
647.59	42799.04
647.74	42431.57
647.88	43147.78
648.03	42766.27
648.17	43325.66
648.32	43164.16
648.47	43316.29
648.61	42806.06
648.76	42569.66
648.90	42590.73
649.05	42595.41
649.20	42897.34
649.34	42719.46
649.49	42532.22
649.63	42883.30
649.78	42796.70
649.92	42855.21
650.07	43257.78
650.21	42948.83
650.36	42630.52
650.51	42721.80
650.65	43122.03
650.80	43005.00
650.94	42483.06
651.09	42569.66
651.23	41883.89
651.38	42258.37
651.52	42321.57
651.67	42031.34
651.81	42628.18
651.96	42691.37
652.10	41935.38
652.25	42031.34
652.39	42131.98
652.54	42075.81
652.68	42340.29
652.83	41883.89
652.97	42492.43
653.12	42394.12
653.26	41741.11
653.41	41834.74
653.55	42021.98
653.70	42195.18
653.84	41996.23
653.99	42204.54
654.13	42536.90
654.27	41937.72
654.42	41846.44
654.56	41858.14
654.71	41752.82
654.85	41909.63
655.00	41591.32
655.14	41881.55
655.29	42330.93
655.43	41834.74
655.57	41406.42
655.72	41668.56
655.86	41546.85
656.01	41364.29
656.15	41298.75
656.30	41567.91
656.44	41696.64
656.58	41504.72
656.73	41638.13
656.87	41144.28
657.01	41095.13
657.16	41617.07
657.30	41336.20
657.45	41212.15
657.59	41109.17
657.73	40924.27
657.88	41617.07
658.02	41258.96
658.16	41893.25
658.31	41364.29
658.45	41331.52
658.60	41443.87
658.74	40957.03
658.88	40950.01
659.03	40676.17
659.17	40449.14
659.31	40650.42
659.46	40622.34
659.60	40924.27
659.74	40470.20
659.89	40629.36
660.03	40524.04
660.17	40973.42
660.32	40793.20
660.46	40460.84
660.60	39798.47
660.74	40938.31
660.89	40416.37
661.03	39817.19
661.17	39915.50
661.32	40119.12
661.46	40416.37
661.60	39938.90
661.74	39693.15
661.89	39988.05
662.03	39903.79
662.17	40142.53
662.31	39367.81
662.46	39711.87
662.60	39765.70
662.74	39473.13
662.88	39704.85
663.03	39503.56
663.17	39278.87
663.31	39267.17
663.45	39239.08
663.60	39431.01
663.74	39264.83
663.88	39648.68
664.02	39096.31
664.17	39187.59
664.31	38733.53
664.45	38796.72
664.59	38827.15
664.73	38902.04
664.88	39040.14
665.02	38789.70
665.16	38532.24
665.30	38864.60
665.44	38988.64
665.59	38469.04
665.73	38752.25
665.87	38185.84
666.01	38536.92
666.15	38569.69
666.29	38225.63
666.44	38218.61
666.58	38316.91
666.72	37841.78
666.86	38136.69
667.00	38012.64
667.14	37600.71
667.28	37720.07
667.43	37912.00
667.57	38155.41
667.71	38155.41
667.85	38396.49
667.99	37514.11
668.13	37425.17
668.27	37202.82
668.41	37104.51
668.56	37326.86
668.70	37144.30
668.84	36751.09
668.98	37635.81
669.12	37273.03
669.26	37008.55
669.40	36975.78
669.54	36884.50
669.68	37118.56
669.82	36783.86
669.96	36950.04
670.10	36257.24
670.25	36652.79
670.39	36893.86
670.53	36762.79
670.67	36107.44
670.81	36795.56
670.95	36240.86
671.09	36027.87
671.23	36222.13
671.37	36222.13
671.51	35761.05
671.65	35955.31
671.79	36266.60
671.93	35857.01
672.07	36062.97
672.21	35810.20
672.35	35037.82
672.49	35367.84
672.63	35744.66
672.77	35388.90
672.91	35508.27
673.05	35353.79
673.19	35182.93
673.33	35220.38
673.47	34946.54
673.61	34953.56
673.75	34590.78
673.89	34740.57
674.03	34553.33
674.17	34057.14
674.31	34347.36
674.45	34099.26
674.59	33984.58
674.73	34139.05
674.87	33954.15
675.01	34073.52
675.15	34005.64
675.29	33661.58
675.43	33427.53
675.56	33926.07
675.70	33357.32
675.84	33759.89
675.98	32507.70
676.12	33472.00
676.26	33811.38
676.40	32989.85
676.54	33170.07
676.68	33404.13
676.82	32339.18
676.96	32694.94
677.10	33097.52
677.23	32671.54
677.37	32936.02
677.51	32708.99
677.65	32627.07
677.79	32486.64
677.93	32402.38
678.07	32254.92
678.21	32119.17
678.34	31915.54
678.48	31791.50
678.62	31992.78
678.76	31220.41
678.90	31353.82
679.04	31601.91
679.18	31889.80
679.31	31087.00
679.45	31299.98
679.59	31276.58
679.73	31133.81
679.87	30679.74
680.00	31150.19
680.14	30836.56
680.28	30527.61
680.42	30569.74
680.56	30635.27
680.70	30356.75
680.83	29954.18
680.97	30242.06
681.11	30169.51
681.25	29549.26
681.39	29628.84
681.52	29600.76
681.66	29598.41
681.80	29331.59
681.94	29013.28
682.07	29123.29
682.21	28861.15
682.35	28987.53
682.49	28783.91
682.62	28814.34
682.76	29230.95
682.90	28727.74
683.04	28699.65
683.17	28676.24
683.31	28198.77
683.45	28505.38
683.59	28299.42
683.72	28030.26
683.86	28006.85
684.00	27983.44
684.13	27728.33
684.27	27484.91
684.41	27751.73
684.55	27690.88
684.68	27115.11
684.82	27147.87
684.96	27005.10
685.09	27744.71
685.23	27014.46
685.37	27288.31
685.50	27253.20
685.64	26962.97
685.78	26560.40
685.91	26771.05
686.05	26125.06
686.19	26258.47
686.32	26089.95
686.46	25874.62
686.60	25383.11
686.73	25937.82
686.87	25692.06
687.01	26113.36
687.14	26202.30
687.28	25624.18
687.42	25628.87
687.55	25465.03
687.69	25469.71
687.82	24996.92
687.96	25252.04
688.10	25254.38
688.23	25029.69
688.37	25132.67
688.50	25123.31
688.64	24877.55
688.78	24538.18
688.91	25003.94
689.05	24931.39
689.18	24285.40
689.32	23791.55
689.46	23662.82
689.59	23887.51
689.73	24219.86
689.86	24236.25
690.00	24072.41
690.13	23847.72
690.27	23737.71
690.41	23405.36
690.54	23323.44
690.68	23396.00
690.81	23058.96
690.95	22963.00
691.08	23105.77
691.22	22726.60
691.35	22906.82
691.49	23358.55
691.62	22745.33
691.76	22597.87
691.89	22462.12
692.03	22181.26
692.16	21968.27
692.30	22391.91
692.43	21909.75
692.57	22043.17
692.70	21764.64
692.84	21785.71
692.97	21834.86
693.11	21266.11
693.24	21404.20
693.38	21418.24
693.51	21074.18
693.65	20992.26
693.78	20999.29
693.92	21062.48
694.05	21198.23
694.19	20772.25
694.32	20688.00
694.45	20833.11
694.59	20875.24
694.72	20779.28
694.86	20631.82
694.99	20287.76
695.13	20105.20
695.26	19749.44
695.39	20189.46
695.53	19873.49
695.66	20037.33
695.80	19796.25
695.93	19683.91
696.07	19695.61
696.20	19506.02
696.33	19290.70
696.47	19323.46
696.60	19531.77
696.73	19365.59
696.87	19346.87
697.00	18998.13
697.14	18874.08
697.27	18579.17
697.40	18609.60
697.54	19082.39
697.67	18721.95
697.80	18738.33
697.94	18541.72
698.07	18490.23
698.21	18015.10
698.34	18373.21
698.47	18038.51
698.61	17614.87
698.74	17701.47
698.87	17837.22
699.01	17776.37
699.14	17755.30
699.27	17750.62
699.40	17406.56
699.54	17532.95
699.67	17434.65
699.80	17149.11
699.94	17200.60
700.07	17011.01
700.20	17111.66
700.34	16961.86
700.47	17067.19
700.60	17149.11
700.73	16737.17
700.87	16561.63
701.00	16219.91
701.13	16383.75
701.26	16304.17
701.40	16533.54
701.53	16098.20
701.66	16119.27
701.79	16152.04
701.93	15836.06
702.06	15836.06
702.19	15646.48
702.32	15571.58
702.46	15899.26
702.59	16065.44
702.72	15833.72
702.85	15431.15
702.99	15494.35
703.12	15353.91
703.25	15307.10
703.38	15161.99
703.51	15059.01
703.65	14747.72
703.78	14698.56
703.91	14562.81
704.04	14810.91
704.17	14373.23
704.31	14541.75
704.44	14565.15
704.57	14410.68
704.70	14471.53
704.83	14286.63
704.96	14359.19
705.10	14270.25
705.23	14101.73
>>>>>End Processed Spectral Data<<<<<
