SpectraSuite Data File
++++++++++++++++++++++++++++++++++++
Date: Fri Oct 25 10:48:21 EDT 2013
User: price-jones
Dark Spectrum Present: No
Reference Spectrum Present: No
Number of Sampled Component Spectra: 1
Spectrometers: USB2+H05261
Integration Time (usec): 100000 (USB2+H05261)
Spectra Averaged: 1 (USB2+H05261)
Boxcar Smoothing: 0 (USB2+H05261)
Correct for Electrical Dark: No (USB2+H05261)
Strobe/Lamp Enabled: No (USB2+H05261)
Correct for Detector Non-linearity: No (USB2+H05261)
Correct for Stray Light: No (USB2+H05261)
Number of Pixels in Processed Spectrum: 2048
>>>>>Begin Processed Spectral Data<<<<<
365.73	243.42
365.92	243.42
366.12	243.42
366.32	53.83
366.52	28.09
366.72	51.49
366.91	0.00
367.11	95.96
367.31	58.51
367.51	0.00
367.70	18.72
367.90	100.64
368.10	35.11
368.30	35.11
368.49	128.73
368.69	28.09
368.89	30.43
369.09	65.54
369.28	67.88
369.48	95.96
369.68	63.19
369.87	110.01
370.07	91.28
370.27	86.60
370.47	177.88
370.66	411.93
370.86	470.45
371.06	458.74
371.25	451.72
371.45	451.72
371.65	484.49
371.84	489.17
372.04	468.11
372.24	514.92
372.44	524.28
372.63	517.26
372.83	477.47
373.03	507.90
373.22	566.41
373.42	519.60
373.62	587.47
373.81	496.19
374.01	615.56
374.21	552.37
374.40	575.77
374.60	528.96
374.79	664.71
374.99	571.09
375.19	521.94
375.38	615.56
375.58	638.97
375.78	608.54
375.97	704.50
376.17	620.24
376.37	557.05
376.56	599.18
376.76	678.76
376.95	624.92
377.15	734.93
377.35	634.29
377.54	725.57
377.74	699.82
377.93	692.80
378.13	608.54
378.33	723.23
378.52	713.86
378.72	699.82
378.91	688.12
379.11	669.39
379.31	547.69
379.50	748.97
379.70	746.63
379.89	730.25
380.09	711.52
380.28	802.80
380.48	634.29
380.68	748.97
380.87	732.59
381.07	690.46
381.26	741.95
381.46	763.01
381.65	748.97
381.85	695.14
382.04	746.63
382.24	807.48
382.43	678.76
382.63	774.72
382.83	795.78
383.02	763.01
383.22	737.27
383.41	688.12
383.61	678.76
383.80	805.14
384.00	730.25
384.19	758.33
384.39	875.36
384.58	816.85
384.78	821.53
384.97	854.30
385.17	821.53
385.36	854.30
385.56	833.23
385.75	919.83
385.95	802.80
386.14	833.23
386.34	964.30
386.53	882.38
386.72	866.00
386.92	887.06
387.11	849.61
387.31	828.55
387.50	901.11
387.70	938.55
387.89	887.06
388.09	964.30
388.28	887.06
388.48	889.40
388.67	863.66
388.86	1034.52
389.06	1027.50
389.25	1053.24
389.45	983.02
389.64	1083.67
389.84	1088.35
390.03	971.32
390.22	1011.11
390.42	1069.62
390.61	1013.45
390.81	1121.12
391.00	1137.50
391.19	1114.10
391.39	1022.81
391.58	1053.24
391.78	1081.33
391.97	1046.22
392.16	1008.77
392.36	1078.99
392.55	1029.84
392.75	1069.62
392.94	947.92
393.13	1055.58
393.33	1001.75
393.52	1069.62
393.71	1210.06
393.91	1193.67
394.10	1144.52
394.29	1198.35
394.49	1172.61
394.68	1277.93
394.88	1249.85
395.07	1200.69
395.26	1228.78
395.46	1277.93
395.65	1226.44
395.84	1329.42
396.04	1275.59
396.23	1200.69
396.42	1228.78
396.62	1203.04
396.81	1249.85
397.00	1291.98
397.19	1378.58
397.39	1322.40
397.58	1392.62
397.77	1462.83
397.97	1437.09
398.16	1502.62
398.35	1582.20
398.55	1519.01
398.74	1509.65
398.93	1624.33
399.12	1624.33
399.32	1488.58
399.51	1547.09
399.70	1621.99
399.90	1558.80
400.09	1582.20
400.28	1694.55
400.47	1694.55
400.67	1671.14
400.86	1626.67
401.05	1739.02
401.24	1699.23
401.44	1834.98
401.63	1788.17
401.82	1790.51
402.01	1746.04
402.21	1802.21
402.40	1853.70
402.59	1832.64
402.78	1790.51
402.97	1797.53
403.17	1888.81
403.36	1877.11
403.55	1895.83
403.74	1919.24
403.93	1809.23
404.13	1781.15
404.32	1895.83
404.51	1870.09
404.70	1935.62
404.89	1977.75
405.09	2080.74
405.28	1998.82
405.47	1968.39
405.66	2050.31
405.85	2008.18
406.05	2059.67
406.24	2012.86
406.43	2036.27
406.62	2146.27
406.81	2200.10
407.00	2090.10
407.20	2038.61
407.39	2214.15
407.58	2298.41
407.77	2174.36
407.96	2277.34
408.15	2434.16
408.34	2410.75
408.54	2363.94
408.73	2415.43
408.92	2333.51
409.11	2303.09
409.30	2282.02
409.49	2303.09
409.68	2366.28
409.87	2289.04
410.07	2387.35
410.26	2392.03
410.45	2401.39
410.64	2572.25
410.83	2511.39
411.02	2511.39
411.21	2656.51
411.40	2551.18
411.59	2708.00
411.78	2696.30
411.98	2736.09
412.17	2691.62
412.36	2862.48
412.55	2684.59
412.74	2867.16
412.93	2829.71
413.12	2740.77
413.31	2848.43
413.50	2904.60
413.69	2958.44
413.88	2963.12
414.07	2991.20
414.26	2986.52
414.45	2981.84
414.64	3005.25
414.83	3089.51
415.02	3056.74
415.22	3103.55
415.41	3171.43
415.60	3173.77
415.79	3150.36
415.98	3262.71
416.17	3265.05
416.36	3304.84
416.55	3274.41
416.74	3361.01
416.93	3255.69
417.12	3389.10
417.31	3431.23
417.50	3424.20
417.69	3538.89
417.88	3410.16
418.07	3459.31
418.26	3468.67
418.45	3510.80
418.64	3660.60
418.83	3733.15
419.02	3698.05
419.21	3698.05
419.39	3669.96
419.58	3581.02
419.77	3548.25
419.96	3698.05
420.15	3744.86
420.34	3721.45
420.53	3854.86
420.72	3934.44
420.91	3894.65
421.10	3983.59
421.29	4002.32
421.48	3922.74
421.67	4056.15
421.86	3857.20
422.05	4053.81
422.24	3871.25
422.43	3878.27
422.61	3906.35
422.80	3899.33
422.99	4081.89
423.18	4002.32
423.37	4088.92
423.56	4023.38
423.75	4030.40
423.94	3992.95
424.13	3815.07
424.32	3906.35
424.50	4044.45
424.69	4217.65
424.88	4180.20
425.07	4056.15
425.26	3992.95
425.45	4154.45
425.64	3988.27
425.83	4053.81
426.01	4037.42
426.20	4124.02
426.39	4088.92
426.58	4002.32
426.77	4021.04
426.96	3904.01
427.15	4070.19
427.33	4142.75
427.52	4182.54
427.71	4222.33
427.90	4304.25
428.09	4266.80
428.28	4259.78
428.46	4301.90
428.65	4311.27
428.84	4465.74
429.03	4292.54
429.22	4278.50
429.40	4063.17
429.59	4177.86
429.78	3840.82
429.97	4156.79
430.16	4124.02
430.34	4142.75
430.53	4252.75
430.72	4432.97
430.91	4252.75
431.10	4496.17
431.28	4573.41
431.47	4645.96
431.66	4762.99
431.85	4650.64
432.03	4770.01
432.22	4800.44
432.41	4683.41
432.60	4882.36
432.79	4795.76
432.97	4926.83
433.16	4933.85
433.35	4741.93
433.54	4678.73
433.72	4842.57
433.91	4868.31
434.10	4847.25
434.28	4961.94
434.47	4947.89
434.66	4884.70
434.85	4997.04
435.03	4863.63
435.22	5172.58
435.41	5118.75
435.59	5188.97
435.78	5191.31
435.97	5259.18
436.16	5242.80
436.34	5242.80
436.53	5364.51
436.72	5336.42
436.90	5116.41
437.09	5357.49
437.28	5151.52
437.46	5298.97
437.65	5289.61
437.84	5399.62
438.02	5317.70
438.21	5376.21
438.40	5266.21
438.58	5600.90
438.77	5556.43
438.96	5444.09
439.14	5776.44
439.33	5757.72
439.52	5696.86
439.70	5666.44
439.89	5731.97
440.08	5914.53
440.26	5818.57
440.45	5961.34
440.63	6054.97
440.82	6129.86
441.01	5865.38
441.19	6026.88
441.38	6150.93
441.57	6384.98
441.75	6408.39
441.94	6443.49
442.12	6347.53
442.31	6354.55
442.50	6616.69
442.68	6520.73
442.87	6473.92
443.05	6415.41
443.24	6616.69
443.43	6429.45
443.61	6623.72
443.80	6860.11
443.98	6516.05
444.17	6438.81
444.35	6668.19
444.54	6457.54
444.73	6511.37
444.91	6663.51
445.10	6693.93
445.28	6553.50
445.47	6626.06
445.65	6590.95
445.84	6691.59
446.02	6705.63
446.21	6649.46
446.39	6607.33
446.58	6715.00
446.77	6801.60
446.95	6738.40
447.14	6775.85
447.32	6881.18
447.51	6782.87
447.69	6761.81
447.88	6752.45
448.06	6832.02
448.25	6946.71
448.43	6956.07
448.62	6796.92
448.80	6899.90
448.99	6939.69
449.17	6967.77
449.36	7082.46
449.54	7133.95
449.73	7265.02
449.91	7213.53
450.10	7243.96
450.28	7456.95
450.46	7442.90
450.65	7515.46
450.83	7513.12
451.02	7372.69
451.20	7470.99
451.39	7391.41
451.57	7473.33
451.76	7389.07
451.94	7487.37
452.13	7433.54
452.31	7140.97
452.49	7201.83
452.68	7365.67
452.86	7356.30
453.05	7630.15
453.23	7461.63
453.42	7449.93
453.60	7510.78
453.78	7639.51
453.97	7536.52
454.15	7681.64
454.34	7583.34
454.52	7562.27
454.70	7646.53
454.89	7730.79
455.07	7515.46
455.26	7691.00
455.44	8079.53
455.62	7723.77
455.81	7894.63
455.99	8035.06
456.17	8154.43
456.36	8147.40
456.54	8070.17
456.73	8124.00
456.91	8575.72
457.09	8318.26
457.28	8549.98
457.46	8056.12
457.64	8322.94
457.83	8180.17
458.01	7929.74
458.19	8400.18
458.38	8465.72
458.56	8486.78
458.74	8489.12
458.93	8475.08
459.11	8435.29
459.29	8344.01
459.48	8320.60
459.66	8528.91
459.84	8648.28
460.03	8713.81
460.21	8528.91
460.39	8830.84
460.57	8568.70
460.76	8767.65
460.94	8912.76
461.12	8723.18
461.31	8875.31
461.49	9064.89
461.67	8915.10
461.85	8889.35
462.04	9011.06
462.22	9675.77
462.40	9139.79
462.59	9179.58
462.77	8940.85
462.95	9097.66
463.13	9217.03
463.32	9149.15
463.50	9331.72
463.68	9277.88
463.86	9289.59
464.05	8830.84
464.23	9137.45
464.41	9242.78
464.59	9116.39
464.78	9284.91
464.96	9366.82
465.14	9282.56
465.32	9500.23
465.50	9446.40
465.69	9472.15
465.87	9408.95
466.05	9507.26
466.23	9343.42
466.41	9397.25
466.60	9577.47
466.78	9252.14
466.96	9462.79
467.14	9497.89
467.32	9591.52
467.51	9638.33
467.69	9453.42
467.87	9638.33
468.05	9790.46
468.23	9542.36
468.41	9671.09
468.60	9680.46
468.78	9689.82
468.96	9682.80
469.14	10015.15
469.32	10038.56
469.50	9715.56
469.69	9825.57
469.87	9891.10
470.05	9863.02
470.23	10113.45
470.41	10047.92
470.59	10239.84
470.77	10197.71
470.95	10150.90
471.14	10305.38
471.32	10097.07
471.50	10406.02
471.68	10516.03
471.86	10569.86
472.04	10876.47
472.22	10843.70
472.40	10335.81
472.58	10516.03
472.77	10497.30
472.95	10930.30
473.13	11007.54
473.31	10721.99
473.49	10986.47
473.67	10808.59
473.85	11042.65
474.03	11227.55
474.21	11131.59
474.39	11281.38
474.57	11138.61
474.75	11316.49
474.93	11456.92
475.12	11311.81
475.30	11487.35
475.48	11477.99
475.66	11604.38
475.84	11440.54
476.02	11620.76
476.20	11609.06
476.38	11978.86
476.56	11948.43
476.74	12107.59
476.92	12276.11
477.10	11990.56
477.28	12236.32
477.46	12367.39
477.64	12402.50
477.82	12601.44
478.00	12954.87
478.18	12627.19
478.36	12659.96
478.54	12929.12
478.72	13015.72
478.90	13198.28
479.08	13387.86
479.26	13327.01
479.44	13319.99
479.62	13511.91
479.80	13614.90
479.98	13736.60
480.16	14190.67
480.34	13661.71
480.52	14075.98
480.70	13741.29
480.88	13797.46
481.06	14197.69
481.24	14298.33
481.41	14555.79
481.59	14675.16
481.77	14813.25
481.95	14696.22
482.13	14841.34
482.31	14839.00
482.49	15290.72
482.67	15129.22
482.85	15419.45
483.03	15562.22
483.21	15323.49
483.39	15639.46
483.57	15770.53
483.74	15981.18
483.92	15885.22
484.10	15599.67
484.28	16105.23
484.46	16187.14
484.64	16905.69
484.82	16512.48
485.00	16570.99
485.18	16893.99
485.35	16645.89
485.53	16596.74
485.71	16400.13
485.89	16702.06
486.07	16765.26
486.25	16938.46
486.43	17099.95
486.61	17427.63
486.78	17371.46
486.96	17727.22
487.14	18387.25
487.32	18134.47
487.50	17980.00
487.68	18513.64
487.85	18941.96
488.03	19084.73
488.21	19183.03
488.39	18958.34
488.57	19002.81
488.75	19136.22
488.92	19379.64
489.10	19545.81
489.28	19735.40
489.46	20217.55
489.64	19763.48
489.81	20477.35
489.99	20690.34
490.17	20512.46
490.35	20793.32
490.53	20648.21
490.70	21060.14
490.88	20952.48
491.06	21462.71
491.24	21104.61
491.41	21245.04
491.59	21532.93
491.77	21308.24
491.95	21530.59
492.13	21902.73
492.30	22085.30
492.48	21926.14
492.66	22139.13
492.84	22097.00
493.01	22345.09
493.19	22401.27
493.37	22422.33
493.54	22658.73
493.72	23040.23
493.90	23080.02
494.08	23232.16
494.25	23630.05
494.43	23557.49
494.61	23929.64
494.79	24166.03
494.96	23838.36
495.14	24016.24
495.32	24144.97
495.49	24196.46
495.67	24788.61
495.85	24652.86
496.02	24828.40
496.20	25001.60
496.38	24830.74
496.55	25242.68
496.73	25687.38
496.91	25116.29
497.09	25415.88
497.26	25287.15
497.44	25509.50
497.62	25708.44
497.79	25923.77
497.97	25614.82
498.14	25942.50
498.32	26054.84
498.50	26167.19
498.67	26792.11
498.85	26412.95
499.03	26899.78
499.20	26829.56
499.38	26649.34
499.56	26794.45
499.73	27192.34
499.91	26977.01
500.08	27140.85
500.26	26967.65
500.44	27225.11
500.61	27197.02
500.79	27168.94
500.97	27358.52
501.14	28051.32
501.32	27711.94
501.49	27775.14
501.67	27641.73
501.84	27859.40
502.02	28245.58
502.20	28477.30
502.37	28322.82
502.55	28243.24
502.72	28446.87
502.90	28460.91
503.07	28893.91
503.25	28975.83
503.43	28390.70
503.60	28814.34
503.78	28685.61
503.95	28961.79
504.13	29003.92
504.30	28922.00
504.48	29259.04
504.65	29392.45
504.83	29820.77
505.01	29748.21
505.18	29596.07
505.36	30143.76
505.53	29982.26
505.71	30256.11
505.88	30551.01
506.06	29855.87
506.23	30160.14
506.41	30038.44
506.58	30331.00
506.76	30480.80
506.93	30831.88
507.11	30789.75
507.28	30515.90
507.46	30515.90
507.63	30696.13
507.81	30813.15
507.98	30925.50
508.16	31318.71
508.33	31419.35
508.50	31405.31
508.68	31012.10
508.85	32013.85
509.03	31487.23
509.20	31660.43
509.38	32130.87
509.55	31882.78
509.73	31924.91
509.90	32163.64
510.08	32119.17
510.25	32306.41
510.42	32318.12
510.60	32112.15
510.77	32018.53
510.95	32727.71
511.12	32451.53
511.30	32360.25
511.47	33179.43
511.64	32912.61
511.82	33479.02
511.99	32863.46
512.17	33263.69
512.34	32947.72
512.51	33186.46
512.69	33607.75
512.86	33319.87
513.04	33420.51
513.21	33748.18
513.38	33612.43
513.56	33457.96
513.73	33387.74
513.90	33654.56
514.08	33881.60
514.25	34026.71
514.43	33832.44
514.60	34141.39
514.77	33848.83
514.95	33958.83
515.12	34225.65
515.29	34286.51
515.47	34766.32
515.64	35093.99
515.81	34810.79
515.99	34567.37
516.16	34398.85
516.33	34225.65
516.51	34731.21
516.68	33783.29
516.85	33937.77
517.03	34246.72
517.20	34663.33
517.37	34918.45
517.54	34934.84
517.72	34897.39
517.89	34560.35
518.06	34834.19
518.24	34749.93
518.41	34895.05
518.58	35629.98
518.75	35101.01
518.93	35639.34
519.10	35292.94
519.27	35739.98
519.45	36079.36
519.62	35913.18
519.79	36236.17
519.96	36304.05
520.14	36575.55
520.31	35906.16
520.48	36041.91
520.65	36147.23
520.83	36720.66
521.00	36329.80
521.17	36538.10
521.34	36453.84
521.52	36641.09
521.69	36395.33
521.86	37156.00
522.03	36893.86
522.20	36900.89
522.38	37158.34
522.55	37387.72
522.72	36912.59
522.89	36875.14
523.07	37144.30
523.24	37518.79
523.41	37635.81
523.58	37823.06
523.75	38169.46
523.92	37846.46
524.10	37790.29
524.27	37876.89
524.44	37881.57
524.61	38094.56
524.78	38286.48
524.96	38239.67
525.13	38600.12
525.30	38408.19
525.47	38747.57
525.64	38658.63
525.81	38401.17
525.98	38183.50
526.16	38066.47
526.33	38096.90
526.50	38178.82
526.67	38059.45
526.84	38272.44
527.01	38354.36
527.18	38394.15
527.36	38581.39
527.53	39377.17
527.70	39248.44
527.87	39239.08
528.04	39037.80
528.21	39077.58
528.38	39569.10
528.55	39559.73
528.72	39498.88
528.89	39611.23
529.07	39512.92
529.24	39487.18
529.41	39875.71
529.58	39512.92
529.75	39526.97
529.92	39683.78
530.09	39728.25
530.26	39997.41
530.43	39990.39
530.60	39868.69
530.77	40194.02
530.94	40605.95
531.11	40107.42
531.28	40062.95
531.46	40273.60
531.63	40123.80
531.80	40210.40
531.97	40278.28
532.14	39899.11
532.31	39969.33
532.48	40390.62
532.65	40177.64
532.82	40519.35
532.99	40751.07
533.16	40229.13
533.33	40477.22
533.50	40947.67
533.67	40765.11
533.84	40879.80
534.01	40737.02
534.18	40250.19
534.35	41022.57
534.52	41418.12
534.69	41202.79
534.86	41460.25
535.03	41247.26
535.20	41303.43
535.37	41563.23
535.54	41624.09
535.71	41268.33
535.88	41776.22
536.05	41610.04
536.22	41233.22
536.38	41308.11
536.55	41237.90
536.72	41507.06
536.89	41141.94
537.06	41673.24
537.23	41830.05
537.40	41921.34
537.57	41703.67
537.74	41897.93
537.91	42188.16
538.08	41989.21
538.25	41642.81
538.42	42122.62
538.59	42220.92
538.75	42071.13
538.92	42326.25
539.09	42656.26
539.26	42249.01
539.43	41883.89
539.60	42162.41
539.77	42246.67
539.94	42335.61
540.11	42279.44
540.28	42139.00
540.44	41813.67
540.61	41954.10
540.78	42382.42
540.95	42057.09
541.12	42387.10
541.29	42499.45
541.46	42597.75
541.62	42658.60
541.79	43044.79
541.96	42241.99
542.13	42363.70
542.30	42799.04
542.47	42925.42
542.63	43150.12
542.80	43009.68
542.97	43210.97
543.14	43819.51
543.31	43356.08
543.48	43517.58
543.64	43878.02
543.81	43693.12
543.98	43522.26
544.15	43421.62
544.32	43643.97
544.48	44266.55
544.65	43667.37
544.82	44060.58
544.99	43519.92
545.16	43599.50
545.32	43555.03
545.49	43995.05
545.66	44219.74
545.83	44123.78
546.00	44236.12
546.16	43835.89
546.33	44306.34
546.50	43793.76
546.67	43959.94
546.83	43320.98
547.00	44044.20
547.17	43981.01
547.34	43938.88
547.50	44083.99
547.67	44479.54
547.84	44247.83
548.00	44502.95
548.17	44638.70
548.34	44526.35
548.51	44474.86
548.67	44821.26
548.84	45177.02
549.01	44737.00
549.18	44549.76
549.34	44673.81
549.51	44877.43
549.68	44734.66
549.84	44552.10
550.01	45092.76
550.18	44165.91
550.34	45228.51
550.51	44402.30
550.68	44603.59
550.84	44463.16
551.01	44652.74
551.18	45102.12
551.34	44636.36
551.51	44851.69
551.68	45001.48
551.84	45474.27
552.01	44940.63
552.18	45469.59
552.34	44751.04
552.51	45113.83
552.68	45207.45
552.84	45251.92
553.01	45436.82
553.18	45148.93
553.34	45268.30
553.51	45081.06
553.67	45450.86
553.84	45605.34
554.01	45792.58
554.17	45844.07
554.34	45755.13
554.51	45415.76
554.67	45518.74
554.84	45595.98
555.00	45521.08
555.17	45523.42
555.33	45525.76
555.50	45940.04
555.67	45642.79
555.83	45645.13
556.00	46019.61
556.16	46021.95
556.33	45624.06
556.50	45815.99
556.66	46014.93
556.83	45312.77
556.99	45787.90
557.16	45949.40
557.32	46181.11
557.49	45741.09
557.65	45682.58
557.82	45851.09
557.98	46218.56
558.15	45783.22
558.32	45925.99
558.48	45823.01
558.65	45762.15
558.81	46431.55
558.98	46178.77
559.14	45820.67
559.31	45933.01
559.47	45883.86
559.64	46422.19
559.80	46153.02
559.97	46546.23
560.13	46082.81
560.30	45708.32
560.46	46307.50
560.63	45844.07
560.79	46532.19
560.96	46361.33
561.12	46162.39
561.29	45689.60
561.45	46660.92
561.61	46494.74
561.78	46101.53
561.94	45921.31
562.11	46492.40
562.27	46363.67
562.44	46101.53
562.60	46520.49
562.77	46735.82
562.93	46471.34
563.10	46911.36
563.26	46209.20
563.42	46518.15
563.59	46597.73
563.75	46349.63
563.92	46630.49
564.08	46459.63
564.24	46796.67
564.41	46707.73
564.57	46319.20
564.74	46855.18
564.90	46817.74
565.07	46478.36
565.23	46363.67
565.39	46576.66
565.56	46637.51
565.72	46663.26
565.88	46974.55
566.05	46490.06
566.21	46951.15
566.38	46749.86
566.54	46899.65
566.70	46677.30
566.87	47349.04
567.03	47353.72
567.19	47246.05
567.36	46927.74
567.52	46637.51
567.68	46756.88
567.85	46759.22
568.01	46738.16
568.17	46569.64
568.34	46719.43
568.50	46923.06
568.66	46770.93
568.83	46674.96
568.99	46377.72
569.15	46398.78
569.32	46436.23
569.48	46518.15
569.64	47140.73
569.81	46974.55
569.97	46628.15
570.13	46796.67
570.30	46501.76
570.46	46190.47
570.62	46363.67
570.78	46672.62
570.95	46499.42
571.11	46583.68
571.27	46464.32
571.43	46857.52
571.60	47058.81
571.76	47033.07
571.92	46616.45
572.09	46777.95
572.25	47030.72
572.41	46628.15
572.57	47042.43
572.74	47578.41
572.90	47089.24
573.06	47334.99
573.22	47337.33
573.38	47150.09
573.55	46726.46
573.71	46972.21
573.87	47075.19
574.03	46974.55
574.20	46782.63
574.36	46646.88
574.52	46705.39
574.68	47166.48
574.84	46794.33
575.01	46948.81
575.17	46796.67
575.33	46796.67
575.49	46473.68
575.65	46923.06
575.82	47138.39
575.98	46667.94
576.14	47117.32
576.30	46646.88
576.46	46939.44
576.62	46873.91
576.79	47007.32
576.95	46501.76
577.11	46768.58
577.27	46782.63
577.43	46979.23
577.59	47028.38
577.75	46927.74
577.92	46595.38
578.08	46574.32
578.24	46424.53
578.40	47061.15
578.56	46646.88
578.72	47063.49
578.88	46770.93
579.04	47037.75
579.21	47178.18
579.37	46527.51
579.53	46614.11
579.69	46831.78
579.85	46986.25
580.01	47131.37
580.17	47250.74
580.33	47367.76
580.49	47103.28
580.65	47711.82
580.82	46986.25
580.98	46773.27
581.14	46646.88
581.30	47257.76
581.46	46820.08
581.62	47323.29
581.78	47393.51
581.94	47416.91
582.10	47131.37
582.26	47234.35
582.42	46534.53
582.58	47175.84
582.74	46965.19
582.90	46909.02
583.06	47222.65
583.22	46969.87
583.38	47510.53
583.54	47484.79
583.70	47185.20
583.86	47021.36
584.02	46829.44
584.18	46721.77
584.34	47079.88
584.50	47000.30
584.66	46827.10
584.82	47103.28
584.98	47173.50
585.14	47093.92
585.30	46789.65
585.46	47033.07
585.62	46824.76
585.78	47019.02
585.94	46539.21
586.10	47189.88
586.26	47232.01
586.42	47182.86
586.58	47061.15
586.74	47405.21
586.90	47168.82
587.06	47129.03
587.22	46894.97
587.38	46756.88
587.54	47379.46
587.70	47269.46
587.86	47400.53
588.02	46791.99
588.18	47227.33
588.34	47129.03
588.49	46403.46
588.65	46506.44
588.81	46616.45
588.97	46862.21
589.13	46733.48
589.29	46347.29
589.45	46738.16
589.61	46986.25
589.77	47210.95
589.93	47173.50
590.08	47342.02
590.24	46969.87
590.40	47428.62
590.56	47395.85
590.72	47227.33
590.88	47056.47
591.04	47136.05
591.20	47552.66
591.35	47562.03
591.51	47159.45
591.67	47250.74
591.83	47550.32
591.99	47180.52
592.15	46810.71
592.31	47482.45
592.46	47285.84
592.62	47117.32
592.78	47674.37
592.94	47456.70
593.10	47007.32
593.26	47131.37
593.41	47033.07
593.57	46803.69
593.73	46958.17
593.89	47227.33
594.05	47236.69
594.20	47505.85
594.36	47517.56
594.52	47012.00
594.68	47119.66
594.84	47213.29
594.99	47505.85
595.15	47316.27
595.31	47379.46
595.47	47320.95
595.62	47302.23
595.78	47334.99
595.94	47697.78
596.10	47440.32
596.25	47686.07
596.41	47744.59
596.57	47241.37
596.73	47437.98
596.88	47250.74
597.04	47391.17
597.20	47014.34
597.36	47468.40
597.51	47653.31
597.67	47351.38
597.83	47562.03
597.99	47503.51
598.14	47342.02
598.30	47131.37
598.46	46904.34
598.61	47386.49
598.77	47449.68
598.93	47178.18
599.09	47194.56
599.24	47826.51
599.40	47168.82
599.56	47122.01
599.71	47540.96
599.87	47807.78
600.03	47426.28
600.18	47641.60
600.34	47154.77
600.50	47547.98
600.65	47028.38
600.81	47543.30
600.97	47552.66
601.12	47489.47
601.28	47330.31
601.44	47136.05
601.59	47393.51
601.75	47009.66
601.91	46808.37
602.06	47384.15
602.22	47365.42
602.37	47079.88
602.53	47175.84
602.69	47578.41
602.84	47512.88
603.00	47222.65
603.16	47236.69
603.31	46806.03
603.47	47215.63
603.62	47215.63
603.78	47452.02
603.94	47154.77
604.09	47187.54
604.25	47091.58
604.40	47594.79
604.56	46532.19
604.71	47393.51
604.87	47339.68
605.03	47512.88
605.18	47185.20
605.34	46841.14
605.49	46927.74
605.65	46997.96
605.80	47192.22
605.96	47072.85
606.12	47040.09
606.27	47175.84
606.43	47199.24
606.58	47236.69
606.74	46782.63
606.89	47489.47
607.05	47185.20
607.20	47643.94
607.36	47004.98
607.51	47243.71
607.67	47107.96
607.82	47157.11
607.98	47028.38
608.13	46925.40
608.29	47026.04
608.44	46831.78
608.60	46305.16
608.75	46511.13
608.91	46403.46
609.06	46553.26
609.22	46672.62
609.37	47117.32
609.53	46967.53
609.68	47033.07
609.84	46937.10
609.99	46808.37
610.15	46752.20
610.30	46621.13
610.46	46497.08
610.61	46417.50
610.76	46775.61
610.92	46508.79
611.07	46515.81
611.23	46330.90
611.38	46735.82
611.54	46611.77
611.69	46328.56
611.84	46241.96
612.00	46588.36
612.15	46106.21
612.31	46349.63
612.46	46476.02
612.62	46543.89
612.77	46417.50
612.92	46923.06
613.08	46323.88
613.23	46340.27
613.39	46321.54
613.54	46052.38
613.69	46391.76
613.85	46073.45
614.00	46424.53
614.15	46183.45
614.31	46274.73
614.46	46389.42
614.62	46178.77
614.77	46117.92
614.92	46274.73
615.08	46087.49
615.23	46295.80
615.38	45975.14
615.54	45762.15
615.69	45291.71
615.84	45450.86
616.00	45965.78
616.15	45818.33
616.30	45947.06
616.46	45434.48
616.61	45762.15
616.76	45902.59
616.92	45453.20
617.07	45474.27
617.22	45436.82
617.37	45757.47
617.53	46284.09
617.68	45860.46
617.83	46040.68
617.99	45940.04
618.14	45940.04
618.29	46012.59
618.45	45165.32
618.60	45764.49
618.75	45553.85
618.90	45111.49
619.06	45876.84
619.21	45420.44
619.36	45535.12
619.51	45474.27
619.67	45495.33
619.82	45219.15
619.97	45574.91
620.12	44994.46
620.28	44966.37
620.43	45062.33
620.58	45294.05
620.73	45200.43
620.89	45141.91
621.04	45134.89
621.19	45577.25
621.34	45186.38
621.49	45228.51
621.65	44996.80
621.80	45219.15
621.95	44804.88
622.10	44774.45
622.25	44828.28
622.41	45109.14
622.56	44875.09
622.71	45375.97
622.86	45067.02
623.01	44505.29
623.16	45083.40
623.32	44837.64
623.47	44758.06
623.62	45191.06
623.77	44292.30
623.92	44163.57
624.07	44399.96
624.23	44538.05
624.38	44013.77
624.53	44353.15
624.68	44439.75
624.83	44711.25
624.98	44994.46
625.13	44023.14
625.29	44577.84
625.44	44612.95
625.59	44156.55
625.74	44289.96
625.89	43917.81
626.04	44004.41
626.19	44308.68
626.34	44027.82
626.49	44175.27
626.65	43966.96
626.80	44388.26
626.95	44095.69
627.10	43871.00
627.25	43896.75
627.40	43580.78
627.55	43349.06
627.70	43508.22
627.85	43871.00
628.00	43388.85
628.15	43845.26
628.30	43765.68
628.45	44238.47
628.60	43786.74
628.76	43889.73
628.91	43597.16
629.06	43445.02
629.21	43344.38
629.36	43058.84
629.51	43356.08
629.66	43384.17
629.81	43206.29
629.96	43257.78
630.11	43351.40
630.26	43508.22
630.41	43894.41
630.56	43288.21
630.71	43386.51
630.86	43370.13
631.01	43007.34
631.16	43047.13
631.31	43112.67
631.46	42532.22
631.61	43192.25
631.76	43203.95
631.91	43105.65
632.06	43107.99
632.21	42939.47
632.36	43098.62
632.51	42902.02
632.66	43133.73
632.81	42714.78
632.96	42822.44
633.10	42590.73
633.25	42511.15
633.40	42572.00
633.55	42829.46
633.70	42799.04
633.85	42946.49
634.00	42759.25
634.15	42660.94
634.30	42621.16
634.45	42864.57
634.60	42611.79
634.75	42981.60
634.90	42747.54
635.05	42796.70
635.19	42958.19
635.34	42885.64
635.49	42459.66
635.64	42312.20
635.79	42244.33
635.94	42293.48
636.09	42625.84
636.24	42361.36
636.39	42213.90
636.53	42024.32
636.68	41900.27
636.83	42277.10
636.98	42410.51
637.13	41748.14
637.28	42607.11
637.43	41942.40
637.57	42326.25
637.72	42033.68
637.87	42157.73
638.02	42586.05
638.17	41963.46
638.32	42092.19
638.46	41993.89
638.61	42176.45
638.76	41481.31
638.91	41926.02
639.06	41724.73
639.20	41621.75
639.35	41764.52
639.50	41792.61
639.65	41713.03
639.80	41902.61
639.94	41251.94
640.09	41790.27
640.24	41202.79
640.39	41130.23
640.54	41502.38
640.68	41436.84
640.83	41591.32
640.98	41680.26
641.13	40978.10
641.27	41968.15
641.42	41383.01
641.57	41556.21
641.72	41195.77
641.86	41193.43
642.01	41006.19
642.16	41120.87
642.31	40458.50
642.45	41441.53
642.60	40793.20
642.75	41148.96
642.90	40996.82
643.04	41155.98
643.19	41148.96
643.34	41291.73
643.48	40802.56
643.63	41074.06
643.78	40828.30
643.93	40795.54
644.07	40994.48
644.22	40886.82
644.37	40751.07
644.51	40659.79
644.66	41088.10
644.81	41167.68
644.95	40898.52
645.10	40746.39
645.25	40545.10
645.39	40664.47
645.54	40711.28
645.69	40636.38
645.83	40435.10
645.98	40622.34
646.13	40374.24
646.27	40467.86
646.42	40414.03
646.57	40236.15
646.71	40498.29
646.86	40076.99
647.00	40610.64
647.15	40201.04
647.30	40121.46
647.44	40449.14
647.59	40175.30
647.74	40240.83
647.88	39833.58
648.03	39894.43
648.17	40142.53
648.32	39768.04
648.47	40285.30
648.61	40163.59
648.76	40636.38
648.90	40086.36
649.05	40098.06
649.20	40016.14
649.34	40039.54
649.49	40053.59
649.63	39950.60
649.78	39793.79
649.92	39690.80
650.07	39770.38
650.21	39468.45
650.36	39365.47
650.51	39405.26
650.65	39878.05
650.80	40165.93
650.94	39927.20
651.09	40067.63
651.23	39220.36
651.38	39803.15
651.52	39751.66
651.67	39398.24
651.81	39531.65
651.96	39054.18
652.10	39639.31
652.25	38869.28
652.39	39033.11
652.54	39543.35
652.68	39882.73
652.83	39498.88
652.97	39669.74
653.12	39555.05
653.26	39152.48
653.41	39325.68
653.55	38946.51
653.70	39143.12
653.84	39126.74
653.99	38953.54
654.13	39285.89
654.27	39388.88
654.42	39145.46
654.56	38841.19
654.71	38831.83
654.85	38799.06
655.00	38742.89
655.14	39070.56
655.29	38206.90
655.43	38717.14
655.57	38679.69
655.72	38447.98
655.86	38424.57
656.01	38478.41
656.15	38071.15
656.30	38422.23
656.44	38345.00
656.58	38127.33
656.73	38204.56
656.87	38101.58
657.01	38361.38
657.16	38122.65
657.30	37717.73
657.45	38040.73
657.59	38352.02
657.73	38087.54
657.88	38721.82
658.02	38412.87
658.16	38043.07
658.31	38010.30
658.45	38485.43
658.60	38260.74
658.74	38534.58
658.88	38286.48
659.03	38096.90
659.17	37628.79
659.31	38005.62
659.46	37642.84
659.60	37729.44
659.74	37689.65
659.89	37642.84
660.03	37305.80
660.17	37589.00
660.32	37546.87
660.46	37792.63
660.60	37572.62
660.74	37619.43
660.89	37706.03
661.03	37144.30
661.17	37415.80
661.32	36727.69
661.46	37041.32
661.60	36898.55
661.74	37455.59
661.89	37048.34
662.03	37406.44
662.17	36624.70
662.31	37029.62
662.46	37539.85
662.60	36760.45
662.74	36720.66
662.88	36575.55
663.03	36893.86
663.17	36582.57
663.31	36758.11
663.45	36545.12
663.60	36304.05
663.74	36318.09
663.88	36439.80
664.02	36287.67
664.17	36093.40
664.31	35765.73
664.45	36027.87
664.59	36250.22
664.73	36229.15
664.88	36273.62
665.02	35859.35
665.16	36278.30
665.30	35983.40
665.44	35875.73
665.59	35531.67
665.73	35529.33
665.87	35098.67
666.01	35524.65
666.15	35447.41
666.29	35629.98
666.44	36140.21
666.58	35463.80
666.72	35791.47
666.86	35849.99
667.00	35267.19
667.14	35419.33
667.28	35185.27
667.43	34780.36
667.57	34792.06
667.71	35049.52
667.85	35058.88
667.99	34836.53
668.13	34359.06
668.27	34644.61
668.41	34623.54
668.56	34380.13
668.70	34663.33
668.84	34274.80
668.98	34366.09
669.12	34572.05
669.26	34543.97
669.40	34326.30
669.54	33743.50
669.68	34375.45
669.82	34061.82
669.96	33736.48
670.10	34391.83
670.25	34518.22
670.39	34024.37
670.53	33816.06
670.67	33727.12
670.81	34132.03
670.95	34047.77
671.09	33874.57
671.23	33792.65
671.37	33537.54
671.51	33483.70
671.65	33434.55
671.79	33603.07
671.93	33228.59
672.07	33457.96
672.21	32856.44
672.35	32828.35
672.49	33287.10
672.63	33237.95
672.77	33170.07
672.91	33102.20
673.05	32636.43
673.19	32559.19
673.33	32837.72
673.47	32395.35
673.61	32692.60
673.75	32526.42
673.89	32027.89
674.03	32023.21
674.17	32177.68
674.31	32180.03
674.45	32074.70
674.59	32343.86
674.73	32137.90
674.87	31756.39
675.01	31974.06
675.15	31873.42
675.29	31850.01
675.43	31545.74
675.56	32156.62
675.70	31702.56
675.84	31508.29
675.98	30609.53
676.12	31213.38
676.26	31498.93
676.40	31168.91
676.54	30892.73
676.68	30836.56
676.82	30497.18
676.96	30401.22
677.10	30162.48
677.23	30370.79
677.37	30309.94
677.51	30293.55
677.65	30494.84
677.79	30024.39
677.93	30075.88
678.07	30036.09
678.21	29914.39
678.34	29855.87
678.48	29731.83
678.62	29675.65
678.76	29305.85
678.90	29717.78
679.04	29127.97
679.18	29603.10
679.31	29134.99
679.45	28819.02
679.59	28643.48
679.73	29067.11
679.87	28456.23
680.00	29111.58
680.14	28826.04
680.28	28842.42
680.42	28442.19
680.56	28411.76
680.70	28474.96
680.83	28325.16
680.97	27948.34
681.11	27885.14
681.25	27452.14
681.39	27831.31
681.52	27697.90
681.66	27852.38
681.80	27740.03
681.94	27576.19
682.07	27351.50
682.21	27449.80
682.35	27498.95
682.49	27374.91
682.62	27119.79
682.76	27094.04
682.90	26742.96
683.04	26749.98
683.17	26696.15
683.31	26455.08
683.45	26405.92
683.59	26373.16
683.72	26211.66
683.86	26096.97
684.00	26043.14
684.13	26466.78
684.27	26155.49
684.41	26050.16
684.55	25879.30
684.68	25776.32
684.82	25596.10
684.96	25675.68
685.09	25551.63
685.23	25305.87
685.37	25488.43
685.50	25270.76
685.64	25394.81
685.78	24957.13
685.91	25149.06
686.05	24947.77
686.19	24545.20
686.32	24847.13
686.46	24348.59
686.60	24311.14
686.73	24088.79
686.87	23770.48
687.01	23789.20
687.14	23847.72
687.28	23847.72
687.42	23669.84
687.55	23250.88
687.69	23587.92
687.82	23400.68
687.96	23555.15
688.10	23726.01
688.23	23311.74
688.37	23101.09
688.50	22618.94
688.64	22852.99
688.78	23007.47
688.91	22822.56
689.05	22885.76
689.18	22384.88
689.32	22223.39
689.46	22403.61
689.59	22654.05
689.73	22522.98
689.86	22174.24
690.00	22239.77
690.13	22176.58
690.27	22670.43
690.41	21972.95
690.54	21769.32
690.68	21949.54
690.81	21764.64
690.95	21708.47
691.08	21563.36
691.22	21797.41
691.35	21891.03
691.49	21486.12
691.62	21453.35
691.76	21673.36
691.89	21376.11
692.03	21008.65
692.16	21153.76
692.30	21228.66
692.43	21156.10
692.57	20622.46
692.70	20959.50
692.84	20444.58
692.97	20470.33
693.11	20383.73
693.24	20580.33
693.38	20070.09
693.51	19995.20
693.65	20152.01
693.78	20049.03
693.92	20060.73
694.05	19777.53
694.19	19847.74
694.32	19723.69
694.45	19484.96
694.59	19506.02
694.72	19332.82
694.86	19365.59
694.99	19358.57
695.13	18817.91
695.26	18934.93
695.39	18726.63
695.53	19002.81
695.66	19002.81
695.80	18948.98
695.93	18787.48
696.07	18539.38
696.20	18745.35
696.33	18728.97
696.47	18560.45
696.60	18347.46
696.73	18427.04
696.87	18148.51
697.00	18448.10
697.14	18101.70
697.27	17949.57
697.40	18338.10
697.54	17872.33
697.67	17568.06
697.80	17865.31
697.94	17811.48
698.07	17668.70
698.21	17902.76
698.34	17481.46
698.47	17294.22
698.61	17415.93
698.74	17338.69
698.87	17282.52
699.01	17039.10
699.14	16856.54
699.27	16954.84
699.40	16964.20
699.54	16917.39
699.67	16528.86
699.80	16741.85
699.94	16496.10
700.07	16713.77
700.20	16376.73
700.34	16236.30
700.47	16255.02
700.60	16217.57
700.73	16297.15
700.87	15995.22
701.00	16135.65
701.13	15875.85
701.26	15594.99
701.40	15702.65
701.53	15798.62
701.66	15932.03
701.79	15803.30
701.93	15578.61
702.06	15066.03
702.19	15363.28
702.32	15555.20
702.46	15323.49
702.59	15307.10
702.72	15239.23
702.85	15377.32
702.99	15372.64
703.12	15276.68
703.25	15068.37
703.38	15007.52
703.51	14834.32
703.65	14827.29
703.78	14696.22
703.91	14647.07
704.04	14637.71
704.17	14527.71
704.31	14661.12
704.44	14052.58
704.57	14148.54
704.70	14253.86
704.83	13970.66
704.96	14211.73
705.10	14178.97
705.23	14167.26
>>>>>End Processed Spectral Data<<<<<
