SpectraSuite Data File
++++++++++++++++++++++++++++++++++++
Date: Fri Oct 25 10:48:31 EDT 2013
User: price-jones
Dark Spectrum Present: No
Reference Spectrum Present: No
Number of Sampled Component Spectra: 1
Spectrometers: USB2+H05261
Integration Time (usec): 100000 (USB2+H05261)
Spectra Averaged: 1 (USB2+H05261)
Boxcar Smoothing: 0 (USB2+H05261)
Correct for Electrical Dark: No (USB2+H05261)
Strobe/Lamp Enabled: No (USB2+H05261)
Correct for Detector Non-linearity: No (USB2+H05261)
Correct for Stray Light: No (USB2+H05261)
Number of Pixels in Processed Spectrum: 2048
>>>>>Begin Processed Spectral Data<<<<<
365.73	224.69
365.92	224.69
366.12	224.69
366.32	35.11
366.52	91.28
366.72	30.43
366.91	65.54
367.11	53.83
367.31	56.17
367.51	42.13
367.70	53.83
367.90	110.01
368.10	18.72
368.30	25.75
368.49	152.13
368.69	74.90
368.89	37.45
369.09	86.60
369.28	142.77
369.48	110.01
369.68	70.22
369.87	170.86
370.07	79.58
370.27	182.56
370.47	236.39
370.66	435.34
370.86	454.06
371.06	470.45
371.25	587.47
371.45	430.66
371.65	531.30
371.84	472.79
372.04	456.40
372.24	489.17
372.44	444.70
372.63	505.56
372.83	475.13
373.03	564.07
373.22	545.34
373.42	547.69
373.62	535.98
373.81	552.37
374.01	582.79
374.21	676.41
374.40	561.73
374.60	645.99
374.79	573.43
374.99	594.50
375.19	571.09
375.38	568.75
375.58	660.03
375.78	676.41
375.97	681.10
376.17	638.97
376.37	564.07
376.56	566.41
376.76	695.14
376.95	601.52
377.15	603.86
377.35	648.33
377.54	657.69
377.74	709.18
377.93	643.65
378.13	683.44
378.33	720.88
378.52	753.65
378.72	704.50
378.91	624.92
379.11	575.77
379.31	685.78
379.50	575.77
379.70	744.29
379.89	720.88
380.09	657.69
380.28	753.65
380.48	695.14
380.68	683.44
380.87	702.16
381.07	699.82
381.26	791.10
381.46	645.99
381.65	709.18
381.85	627.26
382.04	709.18
382.24	723.23
382.43	723.23
382.63	753.65
382.83	699.82
383.02	774.72
383.22	760.67
383.41	711.52
383.61	748.97
383.80	723.23
384.00	779.40
384.19	767.70
384.39	840.25
384.58	746.63
384.78	854.30
384.97	856.64
385.17	823.87
385.36	772.38
385.56	861.32
385.75	791.10
385.95	772.38
386.14	990.05
386.34	875.36
386.53	880.04
386.72	858.98
386.92	931.53
387.11	903.45
387.31	816.85
387.50	910.47
387.70	833.23
387.89	903.45
388.09	889.40
388.28	917.49
388.48	964.30
388.67	931.53
388.86	936.21
389.06	940.90
389.25	1062.60
389.45	915.15
389.64	976.00
389.84	1048.56
390.03	968.98
390.22	1015.79
390.42	1013.45
390.61	1034.52
390.81	987.71
391.00	1048.56
391.19	1228.78
391.39	1137.50
391.58	1123.46
391.78	1118.78
391.97	983.02
392.16	1050.90
392.36	1086.01
392.55	1011.11
392.75	1137.50
392.94	1100.05
393.13	1022.81
393.33	1057.92
393.52	999.41
393.71	1074.31
393.91	1172.61
394.10	1149.20
394.29	1128.14
394.49	1137.50
394.68	1277.93
394.88	1200.69
395.07	1329.42
395.26	1317.72
395.46	1280.27
395.65	1306.02
395.84	1235.80
396.04	1242.82
396.23	1256.87
396.42	1142.18
396.62	1355.17
396.81	1247.51
397.00	1270.91
397.19	1380.92
397.39	1334.11
397.58	1343.47
397.77	1390.28
397.97	1523.69
398.16	1425.39
398.35	1521.35
398.55	1462.83
398.74	1612.63
398.93	1542.41
399.12	1603.27
399.32	1603.27
399.51	1600.93
399.70	1558.80
399.90	1661.78
400.09	1516.67
400.28	1638.38
400.47	1668.80
400.67	1603.27
400.86	1708.59
401.05	1727.32
401.24	1760.08
401.44	1685.19
401.63	1844.34
401.82	1741.36
402.01	1792.85
402.21	1689.87
402.40	1724.97
402.59	1851.36
402.78	1844.34
402.97	1675.82
403.17	1820.94
403.36	1774.13
403.55	1806.89
403.74	1884.13
403.93	1839.66
404.13	1914.56
404.32	1842.00
404.51	1856.04
404.70	1888.81
404.89	1949.67
405.09	1944.99
405.28	1975.41
405.47	1907.54
405.66	2017.54
405.85	1980.09
406.05	1942.64
406.24	2052.65
406.43	2029.24
406.62	2127.55
406.81	2118.18
407.00	2066.69
407.20	2024.56
407.39	2186.06
407.58	2101.80
407.77	2209.47
407.96	2225.85
408.15	2289.04
408.34	2303.09
408.54	2284.36
408.73	2237.55
408.92	2345.22
409.11	2338.20
409.30	2303.09
409.49	2282.02
409.68	2275.00
409.87	2258.62
410.07	2434.16
410.26	2448.20
410.45	2438.84
410.64	2478.63
410.83	2473.95
411.02	2565.23
411.21	2579.27
411.40	2593.31
411.59	2567.57
411.78	2679.91
411.98	2654.17
412.17	2682.25
412.36	2780.56
412.55	2691.62
412.74	2668.21
412.93	2841.41
413.12	2740.77
413.31	2878.86
413.50	2848.43
413.69	2911.63
413.88	2906.95
414.07	2822.69
414.26	3049.72
414.45	2974.82
414.64	3045.04
414.83	3080.14
415.02	2876.52
415.22	3101.21
415.41	3112.91
415.60	3164.40
415.79	3253.34
415.98	3243.98
416.17	3152.70
416.36	3265.05
416.55	3281.43
416.74	3393.78
416.93	3304.84
417.12	3283.77
417.31	3335.26
417.50	3412.50
417.69	3529.53
417.88	3599.74
418.07	3442.93
418.26	3513.14
418.45	3440.59
418.64	3625.49
418.83	3653.58
419.02	3620.81
419.21	3646.55
419.39	3627.83
419.58	3529.53
419.77	3644.21
419.96	3588.04
420.15	3669.96
420.34	3765.92
420.53	3740.18
420.72	3950.82
420.91	3948.48
421.10	3913.38
421.29	3962.53
421.48	3875.93
421.67	3822.09
421.86	3815.07
422.05	3789.33
422.24	3836.14
422.43	3721.45
422.61	3808.05
422.80	3925.08
422.99	4056.15
423.18	3943.80
423.37	4018.70
423.56	3957.85
423.75	4023.38
423.94	3974.23
424.13	3777.62
424.32	3777.62
424.50	3999.98
424.69	4072.53
424.88	4088.92
425.07	3927.42
425.26	3885.29
425.45	3920.40
425.64	4042.11
425.83	4070.19
426.01	4159.13
426.20	4049.13
426.39	4037.42
426.58	4037.42
426.77	4093.60
426.96	4149.77
427.15	4084.23
427.33	4175.52
427.52	4053.81
427.71	4372.12
427.90	4278.50
428.09	4168.49
428.28	4252.75
428.46	4339.35
428.65	4114.66
428.84	4271.48
429.03	4276.16
429.22	4119.34
429.40	4163.81
429.59	4290.20
429.78	3932.10
429.97	3885.29
430.16	4046.79
430.34	4273.82
430.53	4301.90
430.72	4215.30
430.91	4348.72
431.10	4482.13
431.28	4599.15
431.47	4528.94
431.66	4753.63
431.85	4557.02
432.03	4573.41
432.22	4802.78
432.41	4704.48
432.60	4744.27
432.79	4606.17
432.97	4814.48
433.16	4894.06
433.35	4636.60
433.54	4702.14
433.72	4802.78
433.91	4723.20
434.10	4758.31
434.28	4840.23
434.47	4807.46
434.66	4889.38
434.85	4978.32
435.03	4880.02
435.22	4908.10
435.41	5060.24
435.59	5184.29
435.78	5067.26
435.97	5301.31
436.16	5085.98
436.34	5184.29
436.53	5188.97
436.72	5298.97
436.90	5109.39
437.09	5345.78
437.28	5130.45
437.46	5224.08
437.65	5249.82
437.84	5277.91
438.02	5149.18
438.21	5235.78
438.40	5350.46
438.58	5355.15
438.77	5561.11
438.96	5535.37
439.14	5687.50
439.33	5605.58
439.52	5603.24
439.70	5638.35
439.89	5628.99
440.08	5844.32
440.26	5743.67
440.45	5837.30
440.63	5909.85
440.82	6038.58
441.01	5879.43
441.19	6031.56
441.38	6085.39
441.57	6085.39
441.75	6073.69
441.94	6399.02
442.12	6307.74
442.31	6359.24
442.50	6532.44
442.68	6274.98
442.87	6436.47
443.05	6436.47
443.24	6569.88
443.43	6349.87
443.61	6473.92
443.80	6724.36
443.98	6434.13
444.17	6324.13
444.35	6565.20
444.54	6703.29
444.73	6672.87
444.91	6462.22
445.10	6541.80
445.28	6623.72
445.47	6490.31
445.65	6424.77
445.84	6586.27
446.02	6544.14
446.21	6607.33
446.39	6635.42
446.58	6775.85
446.77	6754.79
446.95	6705.63
447.14	6813.30
447.32	6853.09
447.51	6862.45
447.69	6757.13
447.88	6857.77
448.06	6778.19
448.25	6719.68
448.43	6764.15
448.62	6796.92
448.80	6906.92
448.99	6803.94
449.17	7002.88
449.36	6869.47
449.54	6991.18
449.73	7279.07
449.91	7166.72
450.10	7094.16
450.28	7323.54
450.46	7194.81
450.65	7435.88
450.83	7208.85
451.02	7178.42
451.20	7260.34
451.39	7400.77
451.57	7232.26
451.76	7129.27
451.94	7258.00
452.13	7403.11
452.31	7307.15
452.49	7225.23
452.68	7239.28
452.86	7239.28
453.05	7431.20
453.23	7379.71
453.42	7330.56
453.60	7295.45
453.78	7531.84
453.97	7452.27
454.15	7473.33
454.34	7363.33
454.52	7499.08
454.70	7637.17
454.89	7679.30
455.07	7660.57
455.26	7770.58
455.44	7779.94
455.62	7702.70
455.81	7939.10
455.99	7906.33
456.17	7908.67
456.36	7716.75
456.54	8063.15
456.73	8077.19
456.91	8226.98
457.09	8135.70
457.28	8566.36
457.46	8042.08
457.64	8074.85
457.83	8077.19
458.01	8032.72
458.19	8407.20
458.38	8102.93
458.56	8367.42
458.74	8362.73
458.93	8367.42
459.11	8344.01
459.29	8479.76
459.48	8400.18
459.66	8346.35
459.84	8493.80
460.03	8704.45
460.21	8718.50
460.39	8674.03
460.57	8535.93
460.76	8498.49
460.94	8779.35
461.12	8786.37
461.31	8940.85
461.49	8982.98
461.67	8678.71
461.85	9090.64
462.04	8879.99
462.22	9275.54
462.40	9184.26
462.59	9055.53
462.77	8966.59
462.95	8964.25
463.13	9114.05
463.32	9198.31
463.50	9231.07
463.68	9228.73
463.86	9170.22
464.05	9207.67
464.23	9050.85
464.41	9081.28
464.59	9057.87
464.78	9202.99
464.96	9064.89
465.14	9198.31
465.32	9217.03
465.50	9399.59
465.69	9430.02
465.87	9298.95
466.05	9366.82
466.23	9287.25
466.41	9355.12
466.60	9738.97
466.78	9252.14
466.96	9453.42
467.14	9628.96
467.32	9755.35
467.51	9425.34
467.69	9277.88
467.87	9441.72
468.05	9736.63
468.23	9423.00
468.41	9469.81
468.60	9696.84
468.78	9598.54
468.96	9837.27
469.14	9944.94
469.32	9659.39
469.50	9654.71
469.69	9715.56
469.87	9851.31
470.05	10052.60
470.23	9856.00
470.41	9811.53
470.59	9921.53
470.77	9923.87
470.95	10186.01
471.14	10331.12
471.32	10017.49
471.50	10270.27
471.68	10265.59
471.86	10457.51
472.04	10506.66
472.22	10761.78
472.40	10338.15
472.58	10621.35
472.77	10588.58
472.95	10803.91
473.13	10939.66
473.31	10633.05
473.49	10443.47
473.67	10614.33
473.85	10567.52
474.03	10944.34
474.21	11012.22
474.39	11283.72
474.57	11243.93
474.75	11178.40
474.93	11349.26
475.12	11417.13
475.30	11414.79
475.48	11332.87
475.66	11370.32
475.84	11157.33
476.02	11318.83
476.20	11501.39
476.38	11822.05
476.56	11957.80
476.74	12072.48
476.92	11686.29
477.10	11789.28
477.28	11927.37
477.46	12123.98
477.64	12416.54
477.82	12676.34
478.00	12484.42
478.18	12512.50
478.36	12571.02
478.54	12713.79
478.72	12725.49
478.90	12912.74
479.08	13172.54
479.26	13453.40
479.44	13366.80
479.62	13331.69
479.80	13832.57
479.98	13713.20
480.16	13783.41
480.34	13514.25
480.52	13870.01
480.70	13848.95
480.88	13621.92
481.06	14193.01
481.24	14036.19
481.41	14478.55
481.59	14796.87
481.77	14670.48
481.95	14881.13
482.13	14719.63
482.31	14593.24
482.49	15143.27
482.67	15026.24
482.85	15042.62
483.03	15073.05
483.21	15522.43
483.39	15707.34
483.57	15632.44
483.74	15704.99
483.92	15779.89
484.10	15618.39
484.28	16130.97
484.46	16137.99
484.64	16430.56
484.82	16444.60
485.00	16634.19
485.18	16638.87
485.35	16580.36
485.53	16692.70
485.71	16301.83
485.89	16884.62
486.07	16631.85
486.25	16826.11
486.43	17200.60
486.61	17270.81
486.78	17699.13
486.96	17958.93
487.14	17846.58
487.32	17928.50
487.50	18354.48
487.68	18403.63
487.85	18401.29
488.03	18714.92
488.21	18719.60
488.39	18867.06
488.57	18916.21
488.75	18820.25
488.92	19005.15
489.10	19555.18
489.28	19571.56
489.46	20044.35
489.64	19829.02
489.81	20315.85
489.99	20423.51
490.17	20306.49
490.35	20943.11
490.53	20467.98
490.70	20758.21
490.88	20992.26
491.06	21336.32
491.24	21043.76
491.41	20971.20
491.59	20884.60
491.77	20730.12
491.95	21205.25
492.13	21596.12
492.30	21762.30
492.48	22050.19
492.66	22403.61
492.84	22120.40
493.01	22064.23
493.19	22272.54
493.37	22487.87
493.54	22981.72
493.72	23007.47
493.90	22647.02
494.08	23278.97
494.25	23697.92
494.43	23541.11
494.61	23648.77
494.79	23697.92
494.96	23608.98
495.14	23594.94
495.32	24130.92
495.49	23920.28
495.67	24053.69
495.85	24472.64
496.02	24615.41
496.20	24769.89
496.38	24994.58
496.55	24800.32
496.73	25305.87
496.91	25029.69
497.09	25680.36
497.26	25549.29
497.44	25441.62
497.62	25635.89
497.79	25715.47
497.97	25350.34
498.14	25678.02
498.32	26054.84
498.50	25993.99
498.67	26225.70
498.85	25942.50
499.03	26831.90
499.20	26497.20
499.38	26572.10
499.56	26993.40
499.73	26845.94
499.91	27077.66
500.08	27005.10
500.26	26892.76
500.44	27236.81
500.61	27161.92
500.79	26871.69
500.97	27419.38
501.14	27623.00
501.32	27639.39
501.49	27321.07
501.67	27585.55
501.84	27737.69
502.02	27864.08
502.20	27885.14
502.37	27946.00
502.55	28238.56
502.72	28236.22
502.90	28439.85
503.07	28301.76
503.25	28781.57
503.43	28559.22
503.60	28620.07
503.78	28636.45
503.95	28664.54
504.13	28933.70
504.30	29006.26
504.48	29062.43
504.65	29202.86
504.83	29312.87
505.01	29619.48
505.18	29516.50
505.36	29638.20
505.53	29907.37
505.71	29986.94
505.88	30199.93
506.06	29401.81
506.23	30321.64
506.41	29823.11
506.58	30270.15
506.76	30373.13
506.93	30249.08
507.11	30160.14
507.28	30415.26
507.46	30412.92
507.63	30258.45
507.81	30370.79
507.98	30817.83
508.16	30866.98
508.33	30693.79
508.50	30932.52
508.68	31328.07
508.85	31285.94
509.03	31115.08
509.20	31356.16
509.38	31683.83
509.55	31714.26
509.73	32130.87
509.90	32081.72
510.08	32025.55
510.25	31772.77
510.42	32247.90
510.60	32074.70
510.77	32414.08
510.95	32484.30
511.12	32650.47
511.30	32512.38
511.47	32697.28
511.64	32617.71
511.82	33076.45
511.99	32851.76
512.17	32992.19
512.34	32701.96
512.51	32708.99
512.69	33186.46
512.86	33099.86
513.04	33268.37
513.21	33322.21
513.38	33172.41
513.56	32851.76
513.73	33322.21
513.90	33371.36
514.08	33303.48
514.25	33706.05
514.43	33565.62
514.60	33656.90
514.77	33647.54
514.95	34003.30
515.12	33734.14
515.29	34267.78
515.47	34450.35
515.64	34448.00
515.81	34094.58
515.99	34597.80
516.16	34417.58
516.33	34092.24
516.51	33909.68
516.68	33720.10
516.85	33759.89
517.03	34036.07
517.20	34103.95
517.37	34555.67
517.54	35281.24
517.72	34607.16
517.89	34487.79
518.06	34508.86
518.24	34504.18
518.41	34899.73
518.58	34871.64
518.75	34869.30
518.93	35576.14
519.10	35054.20
519.27	35386.56
519.45	35840.62
519.62	35658.06
519.79	35634.66
519.96	35887.43
520.14	36388.31
520.31	35690.83
520.48	36013.82
520.65	36081.70
520.83	36123.83
521.00	36528.74
521.17	36545.12
521.34	36591.94
521.52	36589.59
521.69	36774.50
521.86	36898.55
522.03	36617.68
522.20	36474.91
522.38	37090.47
522.55	37120.90
522.72	36858.76
522.89	36833.01
523.07	37572.62
523.24	36957.06
523.41	37156.00
523.58	37031.96
523.75	37474.32
523.92	37455.59
524.10	37830.08
524.27	38120.31
524.44	37928.38
524.61	37715.39
524.78	37883.91
524.96	38223.29
525.13	38553.30
525.30	38553.30
525.47	38504.15
525.64	38616.50
525.81	38293.50
525.98	38206.90
526.16	37549.21
526.33	37862.85
526.50	38160.09
526.67	37961.15
526.84	38040.73
527.01	38195.20
527.18	38417.55
527.36	38859.91
527.53	38717.14
527.70	39414.62
527.87	39065.88
528.04	38733.53
528.21	38925.45
528.38	39218.02
528.55	39505.90
528.72	39330.36
528.89	39662.72
529.07	39185.25
529.24	39168.87
529.41	39498.88
529.58	39438.03
529.75	39311.64
529.92	39632.29
530.09	39655.70
530.26	39824.22
530.43	40041.88
530.60	39349.09
530.77	40051.25
530.94	39791.45
531.11	39966.99
531.28	39896.77
531.46	39990.39
531.63	40371.90
531.80	40053.59
531.97	39885.07
532.14	39842.94
532.31	39812.51
532.48	40252.53
532.65	40264.24
532.82	40187.00
532.99	40697.24
533.16	40182.32
533.33	40182.32
533.50	40538.08
533.67	40811.92
533.84	40722.98
534.01	40580.21
534.18	40573.19
534.35	40968.74
534.52	41010.87
534.69	40928.95
534.86	40807.24
535.03	41050.66
535.20	41263.64
535.37	41717.71
535.54	41399.40
535.71	40992.14
535.88	41364.29
536.05	41074.06
536.22	41656.85
536.38	41392.37
536.55	41624.09
536.72	41017.89
536.89	41132.57
537.06	41462.59
537.23	41193.43
537.40	41345.56
537.57	41364.29
537.74	41991.55
537.91	42108.58
538.08	41778.56
538.25	41860.48
538.42	41794.95
538.59	42223.26
538.75	41872.18
538.92	41783.24
539.09	41902.61
539.26	42218.58
539.43	42197.52
539.60	41890.91
539.77	42192.84
539.94	41853.46
540.11	41734.09
540.28	41944.74
540.44	42211.56
540.61	42277.10
540.78	41841.76
540.95	42323.91
541.12	42349.65
541.29	42419.87
541.46	42171.77
541.62	42263.05
541.79	43035.43
541.96	42375.40
542.13	42251.35
542.30	42485.40
542.47	42576.69
542.63	42763.93
542.80	43091.60
542.97	43166.50
543.14	43030.75
543.31	43232.04
543.48	43405.23
543.64	43636.95
543.81	43405.23
543.98	42934.79
544.15	43042.45
544.32	43686.10
544.48	43569.07
544.65	43412.26
544.82	43529.28
544.99	43529.28
545.16	43562.05
545.32	43419.28
545.49	43782.06
545.66	43950.58
545.83	43807.81
546.00	43756.32
546.16	43913.13
546.33	44133.14
546.50	43365.45
546.67	43875.68
546.83	43358.42
547.00	43562.05
547.17	43351.40
547.34	44112.08
547.50	43899.09
547.67	44545.08
547.84	44325.07
548.00	44093.35
548.17	44273.57
548.34	44566.14
548.51	44809.56
548.67	44570.82
548.84	44797.85
549.01	44528.69
549.18	44332.09
549.34	44502.95
549.51	44638.70
549.68	44556.78
549.84	44507.63
550.01	44905.52
550.18	44409.32
550.34	44477.20
550.51	44250.17
550.68	44472.52
550.84	44425.71
551.01	44814.24
551.18	44563.80
551.34	44563.80
551.51	44842.32
551.68	45280.00
551.84	44706.57
552.01	45024.89
552.18	44652.74
552.34	44643.38
552.51	45067.02
552.68	45069.36
552.84	45303.41
553.01	45181.70
553.18	45357.24
553.34	45233.19
553.51	44912.54
553.67	45233.19
553.84	45544.48
554.01	45074.04
554.17	45532.78
554.34	45736.41
554.51	45551.51
554.67	45537.46
554.84	44875.09
555.00	45263.62
555.17	45064.67
555.33	45640.45
555.50	45624.06
555.67	45598.32
555.83	45581.93
556.00	45216.81
556.16	46061.74
556.33	45940.04
556.50	45652.15
556.66	45329.16
556.83	45584.27
556.99	46026.63
557.16	45818.33
557.32	45628.74
557.49	45661.51
557.65	45626.40
557.82	45233.19
557.98	45752.79
558.15	45848.75
558.32	45933.01
558.48	45488.31
558.65	45844.07
558.81	45900.25
558.98	45649.81
559.14	45928.33
559.31	45530.44
559.47	46075.79
559.64	46232.60
559.80	46213.88
559.97	46284.09
560.13	45982.16
560.30	45979.82
560.46	46057.06
560.63	45705.98
560.79	46078.13
560.96	46347.29
561.12	46075.79
561.29	46131.96
561.45	45612.36
561.61	46387.08
561.78	45907.27
561.94	46171.75
562.11	46031.32
562.27	46195.15
562.44	45909.61
562.60	46398.78
562.77	46539.21
562.93	46094.51
563.10	46447.93
563.26	46218.56
563.42	46384.74
563.59	46522.83
563.75	46185.79
563.92	46469.00
564.08	46394.10
564.24	46471.34
564.41	46405.80
564.57	46314.52
564.74	46494.74
564.90	46679.64
565.07	46527.51
565.23	46351.97
565.39	46199.83
565.56	46447.93
565.72	46487.72
565.88	46635.17
566.05	46085.15
566.21	46232.60
566.38	46490.06
566.54	46663.26
566.70	46546.23
566.87	46918.38
567.03	46415.16
567.19	46824.76
567.36	46820.08
567.52	46307.50
567.68	46820.08
567.85	46218.56
568.01	46567.30
568.17	46281.75
568.34	46841.14
568.50	46883.27
568.66	46866.89
568.83	46358.99
568.99	46239.62
569.15	46609.43
569.32	46274.73
569.48	46167.07
569.64	46967.53
569.81	46838.80
569.97	46555.60
570.13	46588.36
570.30	46646.88
570.46	46419.84
570.62	46216.22
570.78	46237.28
570.95	46433.89
571.11	46447.93
571.27	46445.59
571.43	46476.02
571.60	46958.17
571.76	46588.36
571.92	46754.54
572.09	46539.21
572.25	46567.30
572.41	46466.66
572.57	46827.10
572.74	47164.14
572.90	47009.66
573.06	47023.70
573.22	47136.05
573.38	46923.06
573.55	46719.43
573.71	47342.02
573.87	46333.24
574.03	46494.74
574.20	46969.87
574.36	46670.28
574.52	47007.32
574.68	46712.41
574.84	47339.68
575.01	46469.00
575.17	46897.31
575.33	46625.81
575.49	46543.89
575.65	47147.75
575.82	47117.32
575.98	46368.35
576.14	46768.58
576.30	46504.10
576.46	46321.54
576.62	46497.08
576.79	46473.68
576.95	46256.01
577.11	46660.92
577.27	46670.28
577.43	46810.71
577.59	46670.28
577.75	46827.10
577.92	46314.52
578.08	46553.26
578.24	46539.21
578.40	46693.69
578.56	46539.21
578.72	46630.49
578.88	46780.29
579.04	46763.90
579.21	47143.07
579.37	46506.44
579.53	46937.10
579.69	46937.10
579.85	46506.44
580.01	46834.12
580.17	46864.55
580.33	47150.09
580.49	46902.00
580.65	46827.10
580.82	47084.56
580.98	46672.62
581.14	46611.77
581.30	47012.00
581.46	46614.11
581.62	47054.13
581.78	46972.21
581.94	47388.83
582.10	46639.86
582.26	46958.17
582.42	46866.89
582.58	47068.17
582.74	46557.94
582.90	47037.75
583.06	47154.77
583.22	47229.67
583.38	47206.26
583.54	46890.29
583.70	46754.54
583.86	47168.82
584.02	46658.58
584.18	46791.99
584.34	46831.78
584.50	47105.62
584.66	46808.37
584.82	46955.83
584.98	47035.41
585.14	46630.49
585.30	46621.13
585.46	46756.88
585.62	46775.61
585.78	47220.31
585.94	46447.93
586.10	46759.22
586.26	46621.13
586.42	46899.65
586.58	47023.70
586.74	46873.91
586.90	46972.21
587.06	46679.64
587.22	47103.28
587.38	46958.17
587.54	47159.45
587.70	47290.52
587.86	47103.28
588.02	46941.78
588.18	46625.81
588.34	46890.29
588.49	46595.38
588.65	46433.89
588.81	46244.30
588.97	46628.15
589.13	46218.56
589.29	46597.73
589.45	46499.42
589.61	46590.70
589.77	46763.90
589.93	46609.43
590.08	47129.03
590.24	47004.98
590.40	47255.42
590.56	47082.22
590.72	47056.47
590.88	47014.34
591.04	46836.46
591.20	47292.86
591.35	47065.83
591.51	47327.97
591.67	47068.17
591.83	47152.43
591.99	47274.14
592.15	46747.52
592.31	47012.00
592.46	47199.24
592.62	46859.87
592.78	47543.30
592.94	47016.68
593.10	46635.17
593.26	47075.19
593.41	46897.31
593.57	46735.82
593.73	47398.19
593.89	47044.77
594.05	46857.52
594.20	46937.10
594.36	47089.24
594.52	46663.26
594.68	47138.39
594.84	47304.57
594.99	47482.45
595.15	46902.00
595.31	47255.42
595.47	47344.36
595.62	47299.89
595.78	47388.83
595.94	47437.98
596.10	47655.65
596.25	47370.10
596.41	47409.89
596.57	47182.86
596.73	47213.29
596.88	47054.13
597.04	47353.72
597.20	47030.72
597.36	47360.74
597.51	47494.15
597.67	47068.17
597.83	46862.21
597.99	47435.64
598.14	47049.45
598.30	47026.04
598.46	47166.48
598.61	47281.16
598.77	46660.92
598.93	46958.17
599.09	47222.65
599.24	47271.80
599.40	47264.78
599.56	47327.97
599.71	47302.23
599.87	47374.78
600.03	47346.70
600.18	47084.56
600.34	46909.02
600.50	47007.32
600.65	47035.41
600.81	47297.55
600.97	47611.18
601.12	47096.26
601.28	47573.73
601.44	47023.70
601.59	47117.32
601.75	46911.36
601.91	46897.31
602.06	47152.43
602.22	47143.07
602.37	47290.52
602.53	47107.96
602.69	47353.72
602.84	46979.23
603.00	46838.80
603.16	47201.58
603.31	46801.35
603.47	46969.87
603.62	47283.50
603.78	47271.80
603.94	47220.31
604.09	47334.99
604.25	47295.21
604.40	47196.90
604.56	47004.98
604.71	47173.50
604.87	47356.06
605.03	47016.68
605.18	47016.68
605.34	47075.19
605.49	46632.83
605.65	47079.88
605.80	47203.92
605.96	46871.57
606.12	47269.46
606.27	47248.39
606.43	46649.22
606.58	46827.10
606.74	46808.37
606.89	46974.55
607.05	46873.91
607.20	47320.95
607.36	47058.81
607.51	47086.90
607.67	47093.92
607.82	46923.06
607.98	46817.74
608.13	46822.42
608.29	46693.69
608.44	46597.73
608.60	46616.45
608.75	46518.15
608.91	46295.80
609.06	46560.28
609.22	46768.58
609.37	46347.29
609.53	46916.04
609.68	46382.40
609.84	46653.90
609.99	46387.08
610.15	46422.19
610.30	46719.43
610.46	46225.58
610.61	46492.40
610.76	46447.93
610.92	46728.80
611.07	46677.30
611.23	46319.20
611.38	46499.42
611.54	46164.73
611.69	46293.46
611.84	46146.00
612.00	46389.42
612.15	46096.85
612.31	46539.21
612.46	46571.98
612.62	46635.17
612.77	46164.73
612.92	46361.33
613.08	46122.60
613.23	46136.64
613.39	45865.14
613.54	45853.44
613.69	46195.15
613.85	45783.22
614.00	46342.61
614.15	46337.93
614.31	46124.94
614.46	46239.62
614.62	45970.46
614.77	46195.15
614.92	46082.81
615.08	45853.44
615.23	45844.07
615.38	45867.48
615.54	45642.79
615.69	46036.00
615.84	45340.86
616.00	45820.67
616.15	45537.46
616.30	45984.51
616.46	45125.53
616.61	45467.25
616.76	45397.03
616.92	45577.25
617.07	45319.79
617.22	45574.91
617.37	45670.87
617.53	45734.07
617.68	46040.68
617.83	45326.81
617.99	45935.35
618.14	45656.83
618.29	45399.37
618.45	45408.73
618.60	45418.10
618.75	45525.76
618.90	45148.93
619.06	45247.24
619.21	45191.06
619.36	45624.06
619.51	45305.75
619.67	44659.76
619.82	45394.69
619.97	45804.28
620.12	45031.91
620.28	44917.22
620.43	45537.46
620.58	44924.24
620.73	45263.62
620.89	44924.24
621.04	44664.44
621.19	45055.31
621.34	44957.01
621.49	44928.92
621.65	44631.68
621.80	45270.64
621.95	45219.15
622.10	44898.50
622.25	44699.55
622.41	44776.79
622.56	44531.03
622.71	44879.77
622.86	44781.47
623.01	45078.72
623.16	44729.98
623.32	45055.31
623.47	45111.49
623.62	44652.74
623.77	44762.75
623.92	44322.72
624.07	44268.89
624.23	44219.74
624.38	44238.47
624.53	44275.91
624.68	44332.09
624.83	44744.02
624.98	44322.72
625.13	44151.87
625.29	44226.76
625.44	44095.69
625.59	44107.40
625.74	44229.10
625.89	43840.57
626.04	43941.22
626.19	44514.65
626.34	44114.42
626.49	43981.01
626.65	43885.04
626.80	44339.11
626.95	43866.32
627.10	43835.89
627.25	43391.19
627.40	43452.05
627.55	43349.06
627.70	43075.22
627.85	43569.07
628.00	43505.88
628.15	43807.81
628.30	43229.69
628.45	43746.95
628.60	43377.15
628.76	43124.37
628.91	44002.07
629.06	43842.92
629.21	43241.40
629.36	43217.99
629.51	43203.95
629.66	43283.53
629.81	43077.56
629.96	43704.82
630.11	43213.31
630.26	43138.41
630.41	43243.74
630.56	42777.97
630.71	43145.44
630.86	43522.26
631.01	42916.06
631.16	43107.99
631.31	42628.18
631.46	42405.83
631.61	42897.34
631.76	43007.34
631.91	43456.73
632.06	43243.74
632.21	43119.69
632.36	42899.68
632.51	42820.10
632.66	43089.26
632.81	42686.69
632.96	42646.90
633.10	42588.39
633.25	42515.83
633.40	42574.34
633.55	42745.20
633.70	42782.65
633.85	42948.83
634.00	42576.69
634.15	42983.94
634.30	42686.69
634.45	43496.52
634.60	42536.90
634.75	42405.83
634.90	42483.06
635.05	42705.41
635.19	42483.06
635.34	42637.54
635.49	42586.05
635.64	42241.99
635.79	42164.75
635.94	42139.00
636.09	42017.30
636.24	42024.32
636.39	41956.44
636.53	41694.30
636.68	42099.22
636.83	41883.89
636.98	42291.14
637.13	41888.57
637.28	41858.14
637.43	42017.30
637.57	42265.39
637.72	42120.28
637.87	42012.62
638.02	41635.79
638.17	41738.77
638.32	41647.49
638.46	41820.69
638.61	42075.81
638.76	41633.45
638.91	41631.11
639.06	41581.96
639.20	41736.43
639.35	41741.11
639.50	41467.27
639.65	41916.65
639.80	42139.00
639.94	41357.27
640.09	41687.28
640.24	41460.25
640.39	41228.54
640.54	41179.39
640.68	41542.17
640.83	41586.64
640.98	41322.16
641.13	41303.43
641.27	41668.56
641.42	41553.87
641.57	41441.53
641.72	41249.60
641.86	41036.61
642.01	40947.67
642.16	41221.52
642.31	41141.94
642.45	41130.23
642.60	40769.79
642.75	40423.39
642.90	40615.32
643.04	40882.14
643.19	40928.95
643.34	41024.91
643.48	40643.40
643.63	40711.28
643.78	40437.44
643.93	40676.17
644.07	40685.53
644.22	40802.56
644.37	40187.00
644.51	40556.80
644.66	40964.06
644.81	40954.69
644.95	40835.33
645.10	40779.15
645.25	40952.35
645.39	40615.32
645.54	40666.81
645.69	40601.27
645.83	40385.94
645.98	40470.20
646.13	40444.46
646.27	40212.74
646.42	40285.30
646.57	40238.49
646.71	40119.12
646.86	40182.32
647.00	40505.31
647.15	40715.96
647.30	40364.88
647.44	40549.78
647.59	40336.79
647.74	39934.22
647.88	39882.73
648.03	39658.04
648.17	39814.85
648.32	39831.24
648.47	39997.41
648.61	40030.18
648.76	40392.97
648.90	39955.29
649.05	40079.33
649.20	39924.86
649.34	40390.62
649.49	39557.39
649.63	39777.40
649.78	39770.38
649.92	39920.18
650.07	39903.79
650.21	39515.26
650.36	39824.22
650.51	39817.19
650.65	40182.32
650.80	40025.50
650.94	39955.29
651.09	39744.64
651.23	39758.68
651.38	39721.23
651.52	39386.54
651.67	39746.98
651.81	39283.55
651.96	39150.14
652.10	39269.51
652.25	39110.35
652.39	38827.15
652.54	39674.42
652.68	39379.51
652.83	39248.44
652.97	39995.07
653.12	39105.67
653.26	39079.92
653.41	39187.59
653.55	39189.93
653.70	38944.17
653.84	38976.94
653.99	39353.77
654.13	38855.23
654.27	39075.24
654.42	39030.77
654.56	38836.51
654.71	38796.72
654.85	38593.09
655.00	38864.60
655.14	38754.59
655.29	38373.08
655.43	38618.84
655.57	38747.57
655.72	38115.62
655.86	38075.84
656.01	38337.98
656.15	38139.03
656.30	38075.84
656.44	37961.15
656.58	38244.35
656.73	37933.06
656.87	38157.75
657.01	38139.03
657.16	37914.34
657.30	37832.42
657.45	37670.92
657.59	38047.75
657.73	37710.71
657.88	38340.32
658.02	37989.24
658.16	38106.26
658.31	38691.40
658.45	38244.35
658.60	38167.12
658.74	38052.43
658.88	37965.83
659.03	37380.70
659.17	37387.72
659.31	38031.36
659.46	37471.98
659.60	37764.54
659.74	37514.11
659.89	37453.25
660.03	37322.18
660.17	37336.23
660.32	37626.45
660.46	37682.62
660.60	37567.94
660.74	37691.99
660.89	37830.08
661.03	37109.19
661.17	37071.75
661.32	37095.15
661.46	37233.24
661.60	36669.17
661.74	37139.62
661.89	36746.41
662.03	37048.34
662.17	36765.14
662.31	36339.16
662.46	36680.88
662.60	36865.78
662.74	36566.19
662.88	36744.07
663.03	36816.63
663.17	36615.34
663.31	36144.89
663.45	36091.06
663.60	36463.21
663.74	36348.52
663.88	36128.51
664.02	35988.08
664.17	36390.65
664.31	35988.08
664.45	35945.95
664.59	35866.37
664.73	36264.26
664.88	36226.81
665.02	35707.21
665.16	35763.39
665.30	36034.89
665.44	35896.80
665.59	35831.26
665.73	35756.36
665.87	35220.38
666.01	35192.30
666.15	35447.41
666.29	35206.34
666.44	36100.42
666.58	35637.00
666.72	35360.81
666.86	35693.17
667.00	35426.35
667.14	34827.17
667.28	34689.08
667.43	35023.78
667.57	34754.61
667.71	34457.37
667.85	34546.31
667.99	34609.50
668.13	34604.82
668.27	34682.06
668.41	34817.81
668.56	34459.71
668.70	34728.87
668.84	34588.44
668.98	34597.80
669.12	34543.97
669.26	34298.21
669.40	34405.88
669.54	33851.17
669.68	33846.49
669.82	33975.22
669.96	33563.28
670.10	33881.60
670.25	34078.20
670.39	33972.88
670.53	33890.96
670.67	33329.23
670.81	33586.69
670.95	33982.24
671.09	33757.55
671.23	33846.49
671.37	33266.03
671.51	33195.82
671.65	33305.82
671.79	33240.29
671.93	33273.06
672.07	33055.39
672.21	33230.93
672.35	33041.34
672.49	33193.48
672.63	33383.06
672.77	33163.05
672.91	32924.32
673.05	32999.21
673.19	32505.36
673.33	32617.71
673.47	32573.24
673.61	32390.67
673.75	32521.74
673.89	31978.74
674.03	32067.68
674.17	32018.53
674.31	31674.47
674.45	31892.14
674.59	31948.31
674.73	32079.38
674.87	31716.60
675.01	31929.59
675.15	32095.77
675.29	31805.54
675.43	31208.70
675.56	31634.68
675.70	31531.70
675.84	31522.34
675.98	30246.74
676.12	31285.94
676.26	31042.53
676.40	30946.56
676.54	31061.25
676.68	30742.94
676.82	29935.45
676.96	30345.05
677.10	29977.58
677.23	30515.90
677.37	30684.42
677.51	30426.96
677.65	30291.21
677.79	30129.72
677.93	29930.77
678.07	29834.81
678.21	29322.23
678.34	29638.20
678.48	29364.36
678.62	29415.85
678.76	29259.04
678.90	29273.08
679.04	29202.86
679.18	29319.89
679.31	29301.17
679.45	29230.95
679.59	29041.37
679.73	28645.82
679.87	29013.28
680.00	29399.47
680.14	28959.45
680.28	28594.32
680.42	28533.47
680.56	28615.39
680.70	28093.45
680.83	28201.11
680.97	28226.86
681.11	27976.42
681.25	27515.34
681.39	27845.35
681.52	27838.33
681.66	27803.22
681.80	27676.83
681.94	27665.13
682.07	27665.13
682.21	27239.15
682.35	27014.46
682.49	27262.56
682.62	27360.86
682.76	26946.59
682.90	26628.27
683.04	26663.38
683.17	26548.70
683.31	26281.88
683.45	26480.82
683.59	26576.78
683.72	25773.98
683.86	25846.54
684.00	25914.41
684.13	26459.76
684.27	26288.90
684.41	26029.10
684.55	25872.28
684.68	25912.07
684.82	25776.32
684.96	25319.92
685.09	25661.63
685.23	25654.61
685.37	25469.71
685.50	25207.57
685.64	25345.66
685.78	25039.05
685.91	25301.19
686.05	24957.13
686.19	24610.73
686.32	24938.41
686.46	24154.33
686.60	24175.39
686.73	24151.99
686.87	23688.56
687.01	23768.14
687.14	23639.41
687.28	23695.58
687.42	23941.34
687.55	23508.34
687.69	23761.12
687.82	23520.04
687.96	23548.13
688.10	23543.45
688.23	23428.76
688.37	23314.08
688.50	22717.24
688.64	23229.82
688.78	22827.24
688.91	22705.54
689.05	23002.78
689.18	22443.40
689.32	22251.47
689.46	22677.45
689.59	22459.78
689.73	22403.61
689.86	22483.19
690.00	22684.47
690.13	22750.01
690.27	22342.75
690.41	21998.70
690.54	21788.05
690.68	21919.12
690.81	21972.95
690.95	21582.08
691.08	21542.29
691.22	21408.88
691.35	21373.77
691.49	21036.74
691.62	21685.06
691.76	21270.79
691.89	21406.54
692.03	21156.10
692.16	20713.74
692.30	21069.50
692.43	20971.20
692.57	20603.74
692.70	20739.49
692.84	20592.03
692.97	20432.88
693.11	20634.16
693.24	20229.25
693.38	20350.96
693.51	19878.17
693.65	19880.51
693.78	19868.81
693.92	19903.92
694.05	19620.71
694.19	19892.21
694.32	19587.94
694.45	19756.46
694.59	19466.24
694.72	19161.97
694.86	19513.05
694.99	19360.91
695.13	18918.55
695.26	19363.25
695.39	18829.61
695.53	19103.45
695.66	18993.45
695.80	18590.88
695.93	19021.53
696.07	18616.62
696.20	18874.08
696.33	18721.95
696.47	18317.03
696.60	18333.42
696.73	18317.03
696.87	18298.31
697.00	18141.49
697.14	18167.24
697.27	17933.18
697.40	17933.18
697.54	17944.89
697.67	17713.17
697.80	18160.22
697.94	17743.60
698.07	17628.92
698.21	17521.25
698.34	17612.53
698.47	17289.54
698.61	16994.63
698.74	17207.62
698.87	17336.35
699.01	16961.86
699.14	16931.44
699.27	16711.42
699.40	16982.93
699.54	16603.76
699.67	16788.66
699.80	16603.76
699.94	16437.58
700.07	16739.51
700.20	16535.88
700.34	16451.63
700.47	16383.75
700.60	16430.56
700.73	16374.39
700.87	16177.78
701.00	16053.73
701.13	16051.39
701.26	16130.97
701.40	15857.13
701.53	15866.49
701.66	15653.50
701.79	15602.01
701.93	15541.16
702.06	15405.41
702.19	15452.22
702.32	15239.23
702.46	15194.76
702.59	14984.11
702.72	15213.48
702.85	15131.56
702.99	15374.98
703.12	15183.06
703.25	15005.17
703.38	15199.44
703.51	14888.15
703.65	14902.19
703.78	14607.28
703.91	14684.52
704.04	14483.24
704.17	14609.62
704.31	14401.32
704.44	14197.69
704.57	13991.72
704.70	14071.30
704.83	14022.15
704.96	14106.41
705.10	13947.25
705.23	14200.03
>>>>>End Processed Spectral Data<<<<<
