SpectraSuite Data File
++++++++++++++++++++++++++++++++++++
Date: Fri Oct 25 10:47:10 EDT 2013
User: price-jones
Dark Spectrum Present: No
Reference Spectrum Present: No
Number of Sampled Component Spectra: 1
Spectrometers: USB2+H05261
Integration Time (usec): 100000 (USB2+H05261)
Spectra Averaged: 1 (USB2+H05261)
Boxcar Smoothing: 0 (USB2+H05261)
Correct for Electrical Dark: No (USB2+H05261)
Strobe/Lamp Enabled: No (USB2+H05261)
Correct for Detector Non-linearity: No (USB2+H05261)
Correct for Stray Light: No (USB2+H05261)
Number of Pixels in Processed Spectrum: 2048
>>>>>Begin Processed Spectral Data<<<<<
365.73	138.09
365.92	138.09
366.12	138.09
366.32	49.15
366.52	14.04
366.72	58.51
366.91	56.17
367.11	39.79
367.31	28.09
367.51	37.45
367.70	0.00
367.90	30.43
368.10	79.58
368.30	88.94
368.49	121.71
368.69	102.98
368.89	72.56
369.09	168.52
369.28	124.05
369.48	35.11
369.68	46.81
369.87	81.92
370.07	189.58
370.27	138.09
370.47	238.73
370.66	388.53
370.86	456.40
371.06	437.68
371.25	449.38
371.45	451.72
371.65	524.28
371.84	437.68
372.04	416.62
372.24	442.36
372.44	524.28
372.63	437.68
372.83	517.26
373.03	601.52
373.22	559.39
373.42	479.81
373.62	435.34
373.81	552.37
374.01	613.22
374.21	500.87
374.40	564.07
374.60	538.32
374.79	573.43
374.99	533.64
375.19	524.28
375.38	528.96
375.58	505.56
375.78	629.60
375.97	486.83
376.17	587.47
376.37	617.90
376.56	620.24
376.76	582.79
376.95	578.11
377.15	580.45
377.35	631.94
377.54	624.92
377.74	578.11
377.93	585.13
378.13	496.19
378.33	617.90
378.52	620.24
378.72	610.88
378.91	629.60
379.11	608.54
379.31	627.26
379.50	692.80
379.70	620.24
379.89	655.35
380.09	718.54
380.28	671.73
380.48	667.05
380.68	664.71
380.87	667.05
381.07	664.71
381.26	629.60
381.46	620.24
381.65	671.73
381.85	657.69
382.04	681.10
382.24	669.39
382.43	758.33
382.63	610.88
382.83	683.44
383.02	622.58
383.22	711.52
383.41	667.05
383.61	737.27
383.80	657.69
384.00	744.29
384.19	650.67
384.39	741.95
384.58	751.31
384.78	744.29
384.97	723.23
385.17	748.97
385.36	657.69
385.56	760.67
385.75	699.82
385.95	723.23
386.14	861.32
386.34	744.29
386.53	791.10
386.72	753.65
386.92	805.14
387.11	821.53
387.31	814.51
387.50	809.83
387.70	800.46
387.89	828.55
388.09	833.23
388.28	856.64
388.48	819.19
388.67	861.32
388.86	861.32
389.06	788.76
389.25	851.96
389.45	896.43
389.64	889.40
389.84	877.70
390.03	868.34
390.22	933.87
390.42	917.49
390.61	887.06
390.81	910.47
391.00	863.66
391.19	908.13
391.39	847.27
391.58	891.74
391.78	964.30
391.97	978.34
392.16	964.30
392.36	987.71
392.55	961.96
392.75	922.17
392.94	936.21
393.13	912.81
393.33	903.45
393.52	999.41
393.71	1029.84
393.91	1027.50
394.10	976.00
394.29	966.64
394.49	1046.22
394.68	1062.60
394.88	1055.58
395.07	1081.33
395.26	1032.18
395.46	1074.31
395.65	1149.20
395.84	1146.86
396.04	1149.20
396.23	1057.92
396.42	1121.12
396.62	1130.48
396.81	1184.31
397.00	1181.97
397.19	1240.48
397.39	1174.95
397.58	1294.32
397.77	1130.48
397.97	1303.68
398.16	1188.99
398.35	1315.38
398.55	1263.89
398.74	1359.85
398.93	1359.85
399.12	1420.71
399.32	1359.85
399.51	1294.32
399.70	1289.64
399.90	1284.95
400.09	1315.38
400.28	1369.21
400.47	1287.29
400.67	1380.92
400.86	1355.17
401.05	1427.73
401.24	1413.68
401.44	1437.09
401.63	1401.98
401.82	1483.90
402.01	1530.71
402.21	1409.00
402.40	1448.79
402.59	1579.86
402.78	1530.71
402.97	1476.88
403.17	1542.41
403.36	1607.95
403.55	1596.25
403.74	1654.76
403.93	1579.86
404.13	1596.25
404.32	1636.03
404.51	1621.99
404.70	1696.89
404.89	1593.90
405.09	1771.79
405.28	1689.87
405.47	1699.23
405.66	1682.85
405.85	1631.35
406.05	1703.91
406.24	1743.70
406.43	1790.51
406.62	1853.70
406.81	1827.96
407.00	1816.26
407.20	1797.53
407.39	1753.06
407.58	1853.70
407.77	1952.01
407.96	1874.77
408.15	1956.69
408.34	1856.04
408.54	1947.33
408.73	1944.99
408.92	1984.77
409.11	2057.33
409.30	2071.37
409.49	1959.03
409.68	1982.43
409.87	1952.01
410.07	2111.16
410.26	2120.53
410.45	2050.31
410.64	2062.01
410.83	2235.21
411.02	2162.66
411.21	2087.76
411.40	2120.53
411.59	2176.70
411.78	2279.68
411.98	2307.77
412.17	2228.19
412.36	2277.34
412.55	2356.92
412.74	2438.84
412.93	2476.29
413.12	2352.24
413.31	2441.18
413.50	2457.56
413.69	2530.12
413.88	2466.92
414.07	2438.84
414.26	2626.08
414.45	2523.10
414.64	2572.25
414.83	2754.81
415.02	2658.85
415.22	2682.25
415.41	2665.87
415.60	2738.43
415.79	2841.41
415.98	2899.92
416.17	2864.82
416.36	2942.05
416.55	2733.75
416.74	2813.32
416.93	2913.97
417.12	2836.73
417.31	2867.16
417.50	2904.60
417.69	2979.50
417.88	2937.37
418.07	2939.71
418.26	2991.20
418.45	2965.46
418.64	3222.92
418.83	3171.43
419.02	3038.02
419.21	3141.00
419.39	3042.70
419.58	3180.79
419.77	2974.82
419.96	3178.45
420.15	3166.74
420.34	3272.07
420.53	3227.60
420.72	3262.71
420.91	3304.84
421.10	3356.33
421.29	3487.40
421.48	3323.56
421.67	3421.86
421.86	3335.26
422.05	3349.31
422.24	3375.05
422.43	3372.71
422.61	3485.06
422.80	3445.27
422.99	3339.94
423.18	3459.31
423.37	3431.23
423.56	3478.04
423.75	3499.10
423.94	3375.05
424.13	3265.05
424.32	3274.41
424.50	3520.17
424.69	3604.42
424.88	3452.29
425.07	3349.31
425.26	3428.88
425.45	3461.65
425.64	3442.93
425.83	3496.76
426.01	3641.87
426.20	3578.68
426.39	3515.48
426.58	3592.72
426.77	3550.59
426.96	3564.64
427.15	3499.10
427.33	3630.17
427.52	3531.87
427.71	3527.19
427.90	3655.92
428.09	3782.31
428.28	3602.08
428.46	3840.82
428.65	3714.43
428.84	3831.46
429.03	3878.27
429.22	3632.51
429.40	3712.09
429.59	3758.90
429.78	3632.51
429.97	3543.57
430.16	3737.84
430.34	3702.73
430.53	3882.95
430.72	3878.27
430.91	3761.24
431.10	3852.52
431.28	4021.04
431.47	4051.47
431.66	4032.74
431.85	3899.33
432.03	4028.06
432.22	4283.18
432.41	4177.86
432.60	4194.24
432.79	4035.08
432.97	4280.84
433.16	4124.02
433.35	4149.77
433.54	4140.41
433.72	4135.73
433.91	4234.03
434.10	4205.94
434.28	4231.69
434.47	4397.87
434.66	4367.44
434.85	4395.53
435.03	4463.40
435.22	4292.54
435.41	4432.97
435.59	4369.78
435.78	4416.59
435.97	4447.02
436.16	4447.02
436.34	4521.92
436.53	4519.57
436.72	4678.73
436.90	4496.17
437.09	4662.35
437.28	4418.93
437.46	4514.89
437.65	4557.02
437.84	4667.03
438.02	4622.56
438.21	4762.99
438.40	4622.56
438.58	4660.01
438.77	4863.63
438.96	4704.48
439.14	4858.95
439.33	4856.61
439.52	4891.72
439.70	5102.37
439.89	5104.71
440.08	5102.37
440.26	5088.32
440.45	5076.62
440.63	5149.18
440.82	5231.10
441.01	5188.97
441.19	5172.58
441.38	5446.43
441.57	5296.63
441.75	5455.79
441.94	5533.03
442.12	5397.28
442.31	5502.60
442.50	5455.79
442.68	5631.33
442.87	5631.33
443.05	5589.20
443.24	5736.65
443.43	5621.97
443.61	5680.48
443.80	5764.74
443.98	5542.39
444.17	5493.24
444.35	5643.03
444.54	5846.66
444.73	5774.10
444.91	5764.74
445.10	5706.23
445.28	5617.29
445.47	5685.16
445.65	5675.80
445.84	5762.40
446.02	5823.25
446.21	5771.76
446.39	5668.78
446.58	5895.81
446.77	5863.04
446.95	5802.19
447.14	5661.76
447.32	5806.87
447.51	5778.78
447.69	5942.62
447.88	5764.74
448.06	5816.23
448.25	5837.30
448.43	5858.36
448.62	5928.58
448.80	5914.53
448.99	5872.40
449.17	5966.03
449.36	5975.39
449.54	6017.52
449.73	6090.07
449.91	6202.42
450.10	6179.01
450.28	6349.87
450.46	6340.51
450.65	6209.44
450.83	6415.41
451.02	5996.45
451.20	6399.02
451.39	6328.81
451.57	6373.28
451.76	6186.04
451.94	6326.47
452.13	6410.73
452.31	6298.38
452.49	6314.77
452.68	6441.15
452.86	6396.68
453.05	6506.69
453.23	6572.22
453.42	6422.43
453.60	6441.15
453.78	6590.95
453.97	6354.55
454.15	6523.07
454.34	6595.63
454.52	6670.53
454.70	6572.22
454.89	6698.61
455.07	6731.38
455.26	6792.23
455.44	6836.70
455.62	6672.87
455.81	6906.92
455.99	6803.94
456.17	6991.18
456.36	6836.70
456.54	7005.22
456.73	7159.70
456.91	7171.40
457.09	7000.54
457.28	7384.39
457.46	7119.91
457.64	7236.94
457.83	7185.44
458.01	7077.78
458.19	7260.34
458.38	7318.86
458.56	7316.51
458.74	7360.98
458.93	7321.20
459.11	7337.58
459.29	7101.19
459.48	7503.76
459.66	7311.83
459.84	7281.41
460.03	7613.76
460.21	7424.18
460.39	7653.55
460.57	7538.87
460.76	7693.34
460.94	7634.83
461.12	7700.36
461.31	7676.96
461.49	7791.64
461.67	7744.83
461.85	7819.73
462.04	7501.42
462.22	8271.45
462.40	8018.68
462.59	7845.48
462.77	7840.79
462.95	7843.14
463.13	7695.68
463.32	7882.92
463.50	7850.16
463.68	7889.95
463.86	7936.76
464.05	7810.37
464.23	7850.16
464.41	8194.22
464.59	7749.51
464.78	8243.37
464.96	7990.59
465.14	8095.91
465.32	8315.92
465.50	8374.44
465.69	8320.60
465.87	8201.24
466.05	8175.49
466.23	8088.89
466.41	8091.23
466.60	8255.07
466.78	8112.30
466.96	8217.62
467.14	8180.17
467.32	8205.92
467.51	8655.30
467.69	8344.01
467.87	8346.35
468.05	8400.18
468.23	8454.02
468.41	8348.69
468.60	8355.71
468.78	8702.11
468.96	8549.98
469.14	8369.76
469.32	8505.51
469.50	8514.87
469.69	8798.07
469.87	8631.90
470.05	8805.10
470.23	8716.16
470.41	8784.03
470.59	8840.20
470.77	8903.40
470.95	8835.52
471.14	8929.14
471.32	8975.95
471.50	9095.32
471.68	9163.20
471.86	9268.52
472.04	9322.35
472.22	9500.23
472.40	9139.79
472.58	9357.46
472.77	9121.07
472.95	9432.36
473.13	9696.84
473.31	9378.53
473.49	9451.08
473.67	9558.75
473.85	9605.56
474.03	9685.14
474.21	9867.70
474.39	9935.57
474.57	10040.90
474.75	9745.99
474.93	9942.60
475.12	9916.85
475.30	9954.30
475.48	10092.39
475.66	9998.77
475.84	9998.77
476.02	10129.84
476.20	10148.56
476.38	10331.12
476.56	10637.73
476.74	10724.33
476.92	10527.73
477.10	10530.07
477.28	10871.79
477.46	10853.06
477.64	10721.99
477.82	10998.18
478.00	11239.25
478.18	11176.06
478.36	11283.72
478.54	11393.73
478.72	11192.44
478.90	11442.88
479.08	11775.24
479.26	11435.86
479.44	11852.47
479.62	11688.64
479.80	11763.53
479.98	12018.65
480.16	12116.95
480.34	12018.65
480.52	12138.02
480.70	12322.92
480.88	12219.94
481.06	12395.48
481.24	12280.79
481.41	12840.18
481.59	12896.35
481.77	12971.25
481.95	13050.83
482.13	13083.59
482.31	12872.95
482.49	13490.85
482.67	13273.18
482.85	13518.93
483.03	13322.33
483.21	13628.94
483.39	13696.82
483.57	13502.55
483.74	14008.11
483.92	13872.36
484.10	13792.78
484.28	14141.52
484.46	14235.14
484.64	14375.57
484.82	14459.83
485.00	14663.46
485.18	14714.95
485.35	14820.27
485.53	14988.79
485.71	14881.13
485.89	15222.84
486.07	15019.22
486.25	15229.87
486.43	15372.64
486.61	15655.84
486.78	15620.74
486.96	15751.81
487.14	16030.33
487.32	16126.29
487.50	16271.40
487.68	16418.86
487.85	16582.70
488.03	16716.11
488.21	16980.59
488.39	16772.28
488.57	16819.09
488.75	17027.40
488.92	17036.76
489.10	17263.79
489.28	17462.74
489.46	17605.51
489.64	17624.23
489.81	18274.90
489.99	18155.54
490.17	18394.27
490.35	18506.62
490.53	18293.63
490.70	18431.72
490.88	18508.96
491.06	18925.57
491.24	18796.84
491.41	18899.83
491.59	18576.83
491.77	18817.91
491.95	19398.36
492.13	19112.81
492.30	19541.13
492.48	19513.05
492.66	19669.86
492.84	19449.85
493.01	19896.89
493.19	20018.60
493.37	20233.93
493.54	20231.59
493.72	20212.87
493.90	20547.56
494.08	20875.24
494.25	20744.17
494.43	20964.18
494.61	21247.38
494.79	21207.59
494.96	21120.99
495.14	21291.85
495.32	21362.07
495.49	21577.40
495.67	21394.84
495.85	21209.93
496.02	21837.20
496.20	22218.71
496.38	22061.89
496.55	22003.38
496.73	22572.13
496.91	22665.75
497.09	22548.72
497.26	22855.33
497.44	22728.94
497.62	22897.46
497.79	22885.76
497.97	23105.77
498.14	23154.92
498.32	23587.92
498.50	23662.82
498.67	23592.60
498.85	23747.08
499.03	23871.12
499.20	24037.30
499.38	24049.00
499.56	24182.42
499.73	24156.67
499.91	24154.33
500.08	24409.45
500.26	23985.81
500.44	24589.67
500.61	24390.72
500.79	24196.46
500.97	24746.48
501.14	24917.34
501.32	25137.35
501.49	25043.73
501.67	24790.95
501.84	25062.46
502.02	25172.46
502.20	25032.03
502.37	25486.09
502.55	25291.83
502.72	25750.57
502.90	25518.86
503.07	25558.65
503.25	25816.11
503.43	25481.41
503.60	25708.44
503.78	26073.57
503.95	25858.24
504.13	26265.49
504.30	26672.74
504.48	26150.81
504.65	26639.98
504.83	26654.02
505.01	26881.05
505.18	26639.98
505.36	26913.82
505.53	26604.87
505.71	26941.91
505.88	27145.53
506.06	26878.71
506.23	26757.00
506.41	27264.90
506.58	27056.59
506.76	27351.50
506.93	27463.85
507.11	27309.37
507.28	27566.83
507.46	27772.80
507.63	27756.41
507.81	28020.89
507.98	27733.01
508.16	27620.66
508.33	28362.61
508.50	28395.38
508.68	28528.79
508.85	28655.18
509.03	28568.58
509.20	28198.77
509.38	29085.84
509.55	28856.46
509.73	28924.34
509.90	29113.92
510.08	29071.79
510.25	28842.42
510.42	28886.89
510.60	29242.65
510.77	29521.18
510.95	28926.68
511.12	29193.50
511.30	29380.74
511.47	29717.78
511.64	29675.65
511.82	29890.98
511.99	30108.65
512.17	29783.32
512.34	29827.79
512.51	30260.79
512.69	29773.95
512.86	30314.62
513.04	30410.58
513.21	30061.84
513.38	30305.26
513.56	30199.93
513.73	30473.78
513.90	30817.83
514.08	30260.79
514.25	30646.97
514.43	30492.50
514.60	31049.55
514.77	30632.93
514.95	31079.97
515.12	31051.89
515.29	31044.87
515.47	31021.46
515.64	31534.04
515.81	31194.66
515.99	31236.79
516.16	31489.57
516.33	31924.91
516.51	31648.72
516.68	31037.84
516.85	31307.01
517.03	31718.94
517.20	31489.57
517.37	32243.22
517.54	32063.00
517.72	31737.66
517.89	31866.39
518.06	32224.50
518.24	31992.78
518.41	31882.78
518.58	32044.27
518.75	32257.26
518.93	32484.30
519.10	32528.77
519.27	32594.30
519.45	32540.47
519.62	33125.60
519.79	32685.58
519.96	32943.04
520.14	33270.72
520.31	32858.78
520.48	32971.13
520.65	33165.39
520.83	33736.48
521.00	33589.03
521.17	33455.62
521.34	33251.99
521.52	33479.02
521.69	33436.89
521.86	33589.03
522.03	33858.19
522.20	33521.15
522.38	34106.29
522.55	34183.52
522.72	34024.37
522.89	33944.79
523.07	33996.28
523.24	34052.45
523.41	34555.67
523.58	34246.72
523.75	34433.96
523.92	34415.24
524.10	34717.17
524.27	34574.39
524.44	34721.85
524.61	34808.45
524.78	34979.31
524.96	35206.34
525.13	34918.45
525.30	35037.82
525.47	35522.31
525.64	34918.45
525.81	34946.54
525.98	35098.67
526.16	34820.15
526.33	34962.92
526.50	35360.81
526.67	35056.54
526.84	35201.66
527.01	35295.28
527.18	35002.71
527.36	35772.75
527.53	35512.95
527.70	35997.44
527.87	35995.10
528.04	35695.51
528.21	36208.09
528.38	35601.89
528.55	36294.69
528.72	36273.62
528.89	36381.29
529.07	36421.08
529.24	35796.15
529.41	36627.04
529.58	36261.92
529.75	36112.13
529.92	36182.34
530.09	36570.87
530.26	36182.34
530.43	36692.58
530.60	36430.44
530.77	36367.24
530.94	36825.99
531.11	36648.11
531.28	37350.27
531.46	37017.91
531.63	37158.34
531.80	37092.81
531.97	37031.96
532.14	37141.96
532.31	36847.05
532.48	37120.90
532.65	36671.51
532.82	37015.57
532.99	37415.80
533.16	37139.62
533.33	37333.89
533.50	37675.60
533.67	37563.26
533.84	37474.32
534.01	37771.57
534.18	37514.11
534.35	37963.49
534.52	37495.38
534.69	37893.27
534.86	38082.86
535.03	37736.46
535.20	38085.20
535.37	38068.81
535.54	38064.13
535.71	37963.49
535.88	37977.53
536.05	38375.42
536.22	38487.77
536.38	38197.54
536.55	38387.13
536.72	38497.13
536.89	37881.57
537.06	38258.40
537.23	38499.47
537.40	38183.50
537.57	38511.17
537.74	38525.22
537.91	39140.78
538.08	38714.80
538.25	38778.00
538.42	38698.42
538.59	38843.53
538.75	38609.48
538.92	38440.96
539.09	38728.84
539.26	39278.87
539.43	38672.67
539.60	39049.50
539.77	38562.67
539.94	39264.83
540.11	39159.50
540.28	38927.79
540.44	39124.40
540.61	39206.31
540.78	39433.35
540.95	38920.77
541.12	39236.74
541.29	39218.02
541.46	39414.62
541.62	39257.81
541.79	39484.84
541.96	38862.26
542.13	39590.16
542.30	39313.98
542.47	39672.08
542.63	39679.10
542.80	40208.06
542.97	39847.62
543.14	39966.99
543.31	40032.52
543.48	40378.92
543.64	40297.00
543.81	40713.62
543.98	40226.79
544.15	40498.29
544.32	40304.02
544.48	40517.01
544.65	40526.38
544.82	40488.93
544.99	39901.45
545.16	40720.64
545.32	40425.73
545.49	40795.54
545.66	40584.89
545.83	41057.68
546.00	41130.23
546.16	40863.41
546.33	40449.14
546.50	40844.69
546.67	40657.45
546.83	40502.97
547.00	41371.31
547.17	40982.78
547.34	40856.39
547.50	41642.81
547.67	41237.90
547.84	40842.35
548.00	40935.97
548.17	41338.54
548.34	41387.69
548.51	41588.98
548.67	41001.50
548.84	41413.44
549.01	41375.99
549.18	41441.53
549.34	41308.11
549.51	41687.28
549.68	41696.64
549.84	41359.61
550.01	41331.52
550.18	41649.83
550.34	41521.10
550.51	41457.91
550.68	41375.99
550.84	41745.80
551.01	41846.44
551.18	41397.06
551.34	41930.70
551.51	41677.92
551.68	41954.10
551.84	41993.89
552.01	41605.36
552.18	42206.88
552.34	41958.78
552.51	42129.64
552.68	42080.49
552.84	42103.90
553.01	42277.10
553.18	42211.56
553.34	42384.76
553.51	41811.33
553.67	42309.86
553.84	42560.30
554.01	42082.83
554.17	42761.59
554.34	42373.06
554.51	42476.04
554.67	42738.18
554.84	42452.64
555.00	42445.62
555.17	42253.69
555.33	42726.48
555.50	42850.53
555.67	42543.92
555.83	42415.19
556.00	42656.26
556.16	43100.97
556.33	43339.70
556.50	42450.30
556.66	42344.97
556.83	42562.64
556.99	42749.88
557.16	42705.41
557.32	43037.77
557.49	42845.85
557.65	42497.11
557.82	42607.11
557.98	42607.11
558.15	43477.79
558.32	43182.88
558.48	43061.18
558.65	42710.10
558.81	42590.73
558.98	42986.28
559.14	43257.78
559.31	43175.86
559.47	43117.35
559.64	43594.82
559.80	43023.73
559.97	43384.17
560.13	43185.22
560.30	43201.61
560.46	43281.19
560.63	43225.01
560.79	43241.40
560.96	43374.81
561.12	43189.91
561.29	43157.14
561.45	43292.89
561.61	43498.86
561.78	43374.81
561.94	43271.82
562.11	43232.04
562.27	43428.64
562.44	43470.77
562.60	43538.65
562.77	43777.38
562.93	43487.15
563.10	43543.33
563.26	43072.88
563.42	43665.03
563.59	43386.51
563.75	43501.20
563.92	43672.06
564.08	43718.87
564.24	43842.92
564.41	43281.19
564.57	43093.94
564.74	43505.88
564.90	43421.62
565.07	44058.24
565.23	43742.27
565.39	43796.10
565.56	43775.04
565.72	43615.88
565.88	43271.82
566.05	43480.13
566.21	44327.41
566.38	43765.68
566.54	43477.79
566.70	43924.83
566.87	43955.26
567.03	43693.12
567.19	44519.33
567.36	43964.62
567.52	43896.75
567.68	44100.37
567.85	43681.42
568.01	43723.55
568.17	43828.87
568.34	44179.95
568.50	43887.39
568.66	43833.55
568.83	44147.18
568.99	44030.16
569.15	43868.66
569.32	43821.85
569.48	44107.40
569.64	44430.39
569.81	44065.27
569.97	43978.67
570.13	43892.07
570.30	43973.98
570.46	43665.03
570.62	43679.08
570.78	43906.11
570.95	43548.01
571.11	44568.48
571.27	43992.71
571.43	44151.87
571.60	44165.91
571.76	44238.47
571.92	44259.53
572.09	44210.38
572.25	43950.58
572.41	43962.28
572.57	44545.08
572.74	44397.62
572.90	44081.65
573.06	44282.94
573.22	44123.78
573.38	43962.28
573.55	43665.03
573.71	44406.98
573.87	44095.69
574.03	43784.40
574.20	44215.06
574.36	43917.81
574.52	44287.62
574.68	44603.59
574.84	44542.74
575.01	44357.83
575.17	44282.94
575.33	43959.94
575.49	44257.19
575.65	44582.52
575.82	44580.18
575.98	44271.23
576.14	44708.91
576.30	44516.99
576.46	44191.65
576.62	43791.42
576.79	44390.60
576.95	44020.80
577.11	44048.88
577.27	44390.60
577.43	44430.39
577.59	44425.71
577.75	44521.67
577.92	43885.04
578.08	44023.14
578.24	43910.79
578.40	44081.65
578.56	44030.16
578.72	44353.15
578.88	44238.47
579.04	44521.67
579.21	43896.75
579.37	44156.55
579.53	44374.22
579.69	43983.35
579.85	44308.68
580.01	44477.20
580.17	44308.68
580.33	44678.49
580.49	44495.92
580.65	44568.48
580.82	44444.43
580.98	44561.46
581.14	44320.38
581.30	44718.28
581.46	44505.29
581.62	44596.57
581.78	44247.83
581.94	44973.39
582.10	44369.54
582.26	44615.29
582.42	44933.60
582.58	44556.78
582.74	44116.76
582.90	44402.30
583.06	44484.22
583.22	44151.87
583.38	44685.51
583.54	44334.43
583.70	44898.50
583.86	44479.54
584.02	43658.01
584.18	44615.29
584.34	44231.44
584.50	44320.38
584.66	44208.04
584.82	44301.66
584.98	44540.39
585.14	44926.58
585.30	44486.56
585.46	44474.86
585.62	44091.01
585.78	44425.71
585.94	44093.35
586.10	44484.22
586.26	44765.09
586.42	44619.97
586.58	44404.64
586.74	44964.03
586.90	44708.91
587.06	44870.41
587.22	44486.56
587.38	44250.17
587.54	44741.68
587.70	44477.20
587.86	44570.82
588.02	44701.89
588.18	45111.49
588.34	44369.54
588.49	44392.94
588.65	43995.05
588.81	44069.95
588.97	44107.40
589.13	44378.90
589.29	44744.02
589.45	44989.78
589.61	44816.58
589.77	44879.77
589.93	44868.07
590.08	45013.18
590.24	44961.69
590.40	45038.93
590.56	44903.18
590.72	44706.57
590.88	44451.45
591.04	44823.60
591.20	45062.33
591.35	44704.23
591.51	45186.38
591.67	44776.79
591.83	44875.09
591.99	44301.66
592.15	44545.08
592.31	44949.99
592.46	44746.36
592.62	44566.14
592.78	44741.68
592.94	44931.26
593.10	44744.02
593.26	44655.08
593.41	44825.94
593.57	44650.40
593.73	45022.54
593.89	44732.32
594.05	44659.76
594.20	44566.14
594.36	45160.64
594.52	44893.82
594.68	44996.80
594.84	44680.83
594.99	45125.53
595.15	44886.79
595.31	45027.23
595.47	44919.56
595.62	44687.85
595.78	45228.51
595.94	45123.19
596.10	44973.39
596.25	45291.71
596.41	44905.52
596.57	44811.90
596.73	44678.49
596.88	44935.95
597.04	44776.79
597.20	45158.30
597.36	45038.93
597.51	45312.77
597.67	45258.94
597.83	44872.75
597.99	45006.16
598.14	45027.23
598.30	44971.05
598.46	44795.51
598.61	45162.98
598.77	44446.77
598.93	44744.02
599.09	44964.03
599.24	45228.51
599.40	45312.77
599.56	45284.68
599.71	45088.08
599.87	44816.58
600.03	45146.59
600.18	44968.71
600.34	45270.64
600.50	44676.15
600.65	44594.23
600.81	45373.63
600.97	45198.09
601.12	45495.33
601.28	45088.08
601.44	45048.29
601.59	44884.45
601.75	45139.57
601.91	44744.02
602.06	44825.94
602.22	45097.44
602.37	45102.12
602.53	44825.94
602.69	45127.87
602.84	44924.24
603.00	44657.42
603.16	44744.02
603.31	44947.65
603.47	45109.14
603.62	44516.99
603.78	45558.53
603.94	44715.93
604.09	44762.75
604.25	45181.70
604.40	45235.53
604.56	45261.28
604.71	44856.37
604.87	44671.46
605.03	44605.93
605.18	44910.20
605.34	45249.58
605.49	44465.50
605.65	44655.08
605.80	44753.38
605.96	45272.98
606.12	45280.00
606.27	45249.58
606.43	44666.78
606.58	44823.60
606.74	44996.80
606.89	44821.26
607.05	44720.62
607.20	44617.63
607.36	44858.71
607.51	44912.54
607.67	44973.39
607.82	44610.61
607.98	44783.81
608.13	44767.43
608.29	44460.82
608.44	44194.00
608.60	43901.43
608.75	44402.30
608.91	44224.42
609.06	44652.74
609.22	44907.86
609.37	44729.98
609.53	44610.61
609.68	44737.00
609.84	44491.24
609.99	44575.50
610.15	44477.20
610.30	44339.11
610.46	44245.49
610.61	44711.25
610.76	44514.65
610.92	44308.68
611.07	44322.72
611.23	44437.41
611.38	44079.31
611.54	44456.14
611.69	44055.90
611.84	44189.31
612.00	44285.28
612.15	44261.87
612.31	43973.98
612.46	44488.90
612.62	44381.24
612.77	44388.26
612.92	44306.34
613.08	43856.96
613.23	44006.75
613.39	44044.20
613.54	43562.05
613.69	43971.64
613.85	44144.84
614.00	44346.13
614.15	44430.39
614.31	44271.23
614.46	44329.75
614.62	43922.49
614.77	44261.87
614.92	43871.00
615.08	44020.80
615.23	44032.50
615.38	44091.01
615.54	43335.02
615.69	43538.65
615.84	43433.32
616.00	43636.95
616.15	43899.09
616.30	44140.16
616.46	43742.27
616.61	43601.84
616.76	43442.68
616.92	43445.02
617.07	43185.22
617.22	43590.14
617.37	43449.70
617.53	43835.89
617.68	43903.77
617.83	43704.82
617.99	43421.62
618.14	43718.87
618.29	43475.45
618.45	43217.99
618.60	43222.67
618.75	43281.19
618.90	43489.49
619.06	43901.43
619.21	43344.38
619.36	43735.25
619.51	43105.65
619.67	43047.13
619.82	43522.26
619.97	43402.89
620.12	42967.55
620.28	43133.73
620.43	42976.92
620.58	43126.71
620.73	43192.25
620.89	42808.40
621.04	42864.57
621.19	43021.39
621.34	43210.97
621.49	42878.61
621.65	43000.32
621.80	43168.84
621.95	42742.86
622.10	42986.28
622.25	42855.21
622.41	42286.46
622.56	42384.76
622.71	43262.46
622.86	42883.30
623.01	43208.63
623.16	42546.26
623.32	42974.58
623.47	42827.12
623.62	42693.71
623.77	42328.59
623.92	42347.31
624.07	42508.81
624.23	42555.62
624.38	42396.46
624.53	42487.74
624.68	42644.56
624.83	42197.52
624.98	42529.87
625.13	42176.45
625.29	42543.92
625.44	42429.23
625.59	42080.49
625.74	41750.48
625.89	41816.01
626.04	41954.10
626.19	41942.40
626.34	42251.35
626.49	42059.43
626.65	42068.79
626.80	42483.06
626.95	41736.43
627.10	42078.15
627.25	42003.25
627.40	41397.06
627.55	41619.41
627.70	41181.73
627.85	41787.92
628.00	41546.85
628.15	41797.29
628.30	41780.90
628.45	41507.06
628.60	42319.23
628.76	42127.30
628.91	42113.26
629.06	41680.26
629.21	41785.58
629.36	41579.62
629.51	41542.17
629.66	41244.92
629.81	41256.62
629.96	41572.60
630.11	41518.76
630.26	41493.02
630.41	41963.46
630.56	41340.88
630.71	41502.38
630.86	41338.54
631.01	41060.02
631.16	41434.50
631.31	40849.37
631.46	40987.46
631.61	41326.84
631.76	41734.09
631.91	41308.11
632.06	40828.30
632.21	41109.17
632.36	41184.07
632.51	40975.76
632.66	41160.66
632.81	40767.45
632.96	40851.71
633.10	40641.06
633.25	40577.87
633.40	40767.45
633.55	41280.03
633.70	40533.40
633.85	41069.38
634.00	40790.86
634.15	40762.77
634.30	40868.09
634.45	40898.52
634.60	40320.41
634.75	40875.12
634.90	40582.55
635.05	41254.28
635.19	40624.68
635.34	40786.18
635.49	40734.68
635.64	40435.10
635.79	40423.39
635.94	40514.67
636.09	40257.21
636.24	40304.02
636.39	40088.70
636.53	39819.53
636.68	40112.10
636.83	40027.84
636.98	40074.65
637.13	40011.46
637.28	40292.32
637.43	40224.45
637.57	40442.12
637.72	40350.84
637.87	40584.89
638.02	40062.95
638.17	40245.51
638.32	39739.96
638.46	40060.61
638.61	39812.51
638.76	39433.35
638.91	39988.05
639.06	40062.95
639.20	40219.77
639.35	40542.76
639.50	39545.69
639.65	40299.34
639.80	39796.13
639.94	39646.33
640.09	39704.85
640.24	39735.27
640.39	39803.15
640.54	39449.73
640.68	40224.45
640.83	39533.99
640.98	39475.48
641.13	39152.48
641.27	40119.12
641.42	39833.58
641.57	39622.93
641.72	40151.89
641.86	39543.35
642.01	39040.14
642.16	39615.91
642.31	39072.90
642.45	39625.27
642.60	38714.80
642.75	39182.91
642.90	39288.23
643.04	39241.42
643.19	39311.64
643.34	39400.58
643.48	39321.00
643.63	39435.69
643.78	38740.55
643.93	38883.32
644.07	38827.15
644.22	38925.45
644.37	38738.21
644.51	38660.97
644.66	38799.06
644.81	39306.96
644.95	39360.79
645.10	38843.53
645.25	39541.01
645.39	38852.89
645.54	39386.54
645.69	38789.70
645.83	38710.12
645.98	38696.08
646.13	39082.27
646.27	38822.47
646.42	38883.32
646.57	38925.45
646.71	38623.52
646.86	38663.31
647.00	39091.63
647.15	38794.38
647.30	38815.44
647.44	39239.08
647.59	38469.04
647.74	38040.73
647.88	38710.12
648.03	38480.75
648.17	38646.93
648.32	38396.49
648.47	38485.43
648.61	38124.99
648.76	38892.68
648.90	38583.73
649.05	38026.68
649.20	38373.08
649.34	38494.79
649.49	38188.18
649.63	38213.93
649.78	38284.14
649.92	38396.49
650.07	38653.95
650.21	37727.10
650.36	38663.31
650.51	37982.21
650.65	38281.80
650.80	38653.95
650.94	38284.14
651.09	38019.66
651.23	37937.74
651.38	38342.66
651.52	37839.44
651.67	37591.34
651.81	38096.90
651.96	37319.84
652.10	37869.87
652.25	37785.61
652.39	37549.21
652.54	37687.31
652.68	37888.59
652.83	37837.10
652.97	37844.12
653.12	37919.02
653.26	37883.91
653.41	37972.85
653.55	37329.20
653.70	37518.79
653.84	37893.27
653.99	37481.34
654.13	37677.94
654.27	38022.00
654.42	37720.07
654.56	37455.59
654.71	37708.37
654.85	37408.78
655.00	37376.01
655.14	37200.47
655.29	36931.31
655.43	37071.75
655.57	37212.18
655.72	37097.49
655.86	37240.26
656.01	37156.00
656.15	36982.80
656.30	37027.28
656.44	36706.62
656.58	36772.16
656.73	36856.42
656.87	36928.97
657.01	36409.37
657.16	36713.64
657.30	36435.12
657.45	36816.63
657.59	36453.84
657.73	36362.56
657.88	36828.33
658.02	36638.75
658.16	36814.29
658.31	37408.78
658.45	36875.14
658.60	36320.43
658.74	36409.37
658.88	36395.33
659.03	36474.91
659.17	36390.65
659.31	36493.63
659.46	36151.91
659.60	36306.39
659.74	36196.38
659.89	35995.10
660.03	36217.45
660.17	36341.50
660.32	35845.30
660.46	36116.81
660.60	36177.66
660.74	36231.49
660.89	36154.26
661.03	35613.59
661.17	35431.03
661.32	35534.01
661.46	35412.31
661.60	35573.80
661.74	35337.41
661.89	35871.05
662.03	35812.54
662.17	35651.04
662.31	35381.88
662.46	35688.49
662.60	35688.49
662.74	35096.33
662.88	35262.51
663.03	35494.22
663.17	35592.53
663.31	34857.60
663.45	34916.11
663.60	35342.09
663.74	35026.12
663.88	34646.95
664.02	34789.72
664.17	34857.60
664.31	34487.79
664.45	34679.72
664.59	35117.40
664.73	34672.70
664.88	34824.83
665.02	34232.68
665.16	34429.28
665.30	34235.02
665.44	34595.46
665.59	34525.24
665.73	34459.71
665.87	34160.12
666.01	33986.92
666.15	34471.41
666.29	34188.21
666.44	34448.00
666.58	34143.74
666.72	34349.70
666.86	33741.16
667.00	33968.19
667.14	34052.45
667.28	33750.52
667.43	33855.85
667.57	33867.55
667.71	33958.83
667.85	33326.89
667.99	33780.95
668.13	33612.43
668.27	33319.87
668.41	33596.05
668.56	33031.98
668.70	33787.97
668.84	33188.80
668.98	33132.62
669.12	32929.00
669.26	33273.06
669.40	33209.86
669.54	32872.82
669.68	33319.87
669.82	33177.09
669.96	32985.17
670.10	32582.60
670.25	32943.04
670.39	33144.33
670.53	32746.44
670.67	33020.28
670.81	32645.79
670.95	32816.65
671.09	32390.67
671.23	32243.22
671.37	32870.48
671.51	32357.91
671.65	32315.78
671.79	32320.46
671.93	31601.91
672.07	32004.49
672.21	32039.59
672.35	31592.55
672.49	32027.89
672.63	32355.57
672.77	31798.52
672.91	31622.98
673.05	31384.24
673.19	31187.64
673.33	31594.89
673.47	31461.48
673.61	31344.45
673.75	31124.44
673.89	31108.06
674.03	30883.37
674.17	30646.97
674.31	31215.72
674.45	30822.51
674.59	30838.90
674.73	31274.24
674.87	31000.40
675.01	30909.11
675.15	30780.39
675.29	30792.09
675.43	30654.00
675.56	30597.82
675.70	30078.22
675.84	30415.26
675.98	29338.62
676.12	29916.73
676.26	30047.80
676.40	30108.65
676.54	29954.18
676.68	29759.91
676.82	29392.45
676.96	29532.88
677.10	29542.24
677.23	29355.00
677.37	29340.96
677.51	29287.12
677.65	29443.94
677.79	28727.74
677.93	29053.07
678.07	28397.72
678.21	28315.80
678.34	28388.36
678.48	28320.48
678.62	28577.94
678.76	28367.29
678.90	28189.41
679.04	28362.61
679.18	28240.90
679.31	27920.25
679.45	27604.28
679.59	27681.52
679.73	27784.50
679.87	27651.09
680.00	27676.83
680.14	27608.96
680.28	27505.98
680.42	27332.78
680.56	27374.91
680.70	27344.48
680.83	27655.77
680.97	26859.99
681.11	27103.40
681.25	26583.80
681.39	26384.86
681.52	27054.25
681.66	26586.15
681.80	27026.17
681.94	26712.53
682.07	26682.11
682.21	26113.36
682.35	26469.12
682.49	26536.99
682.62	26228.04
682.76	26202.30
682.90	25921.43
683.04	25680.36
683.17	25736.53
683.31	25628.87
683.45	25671.00
683.59	25717.81
683.72	25497.80
683.86	25415.88
684.00	24732.44
684.13	25404.17
684.27	25376.09
684.41	24751.17
684.55	24830.74
684.68	25174.80
684.82	24596.69
684.96	24994.58
685.09	24472.64
685.23	24191.78
685.37	24484.34
685.50	24217.52
685.64	24596.69
685.78	23840.70
685.91	24205.82
686.05	24119.22
686.19	23864.10
686.32	23714.31
686.46	23821.97
686.60	23302.37
686.73	23606.64
686.87	23920.28
687.01	23412.38
687.14	23234.50
687.28	23084.70
687.42	23545.79
687.55	22984.06
687.69	23241.52
687.82	22782.77
687.96	22951.29
688.10	22785.12
688.23	22677.45
688.37	22408.29
688.50	22082.95
688.64	22202.32
688.78	22019.76
688.91	22228.07
689.05	22134.45
689.18	22260.84
689.32	21844.22
689.46	21687.40
689.59	21914.44
689.73	22221.05
689.86	21895.71
690.00	21546.97
690.13	21678.04
690.27	21486.12
690.41	21619.53
690.54	21174.83
690.68	21036.74
690.81	21048.44
690.95	21118.65
691.08	20814.38
691.22	20542.88
691.35	21268.45
691.49	21010.99
691.62	20847.15
691.76	20863.54
691.89	20652.89
692.03	20477.35
692.16	20362.66
692.30	20231.59
692.43	20313.51
692.57	19941.36
692.70	19924.98
692.84	19960.09
692.97	19714.33
693.11	19683.91
693.24	19777.53
693.38	19594.96
693.51	19744.76
693.65	19529.43
693.78	19281.33
693.92	19384.32
694.05	19262.61
694.19	19147.92
694.32	19105.79
694.45	18822.59
694.59	18979.40
694.72	18817.91
694.86	18958.34
694.99	18775.78
695.13	18958.34
695.26	18677.48
695.39	18200.01
695.53	18249.16
695.66	18354.48
695.80	18221.07
695.93	18054.89
696.07	17933.18
696.20	18029.15
696.33	17949.57
696.47	18036.17
696.60	17544.66
696.73	17914.46
696.87	17675.73
697.00	17778.71
697.14	17558.70
697.27	17645.30
697.40	17542.32
697.54	17282.52
697.67	17006.33
697.80	17188.89
697.94	17341.03
698.07	16982.93
698.21	17088.25
698.34	16868.24
698.47	17025.06
698.61	16477.37
698.74	16430.56
698.87	16669.30
699.01	16334.60
699.14	16451.63
699.27	16159.06
699.40	16140.33
699.54	15887.56
699.67	15864.15
699.80	16065.44
699.94	15988.20
700.07	15819.68
700.20	15826.70
700.34	16056.08
700.47	15913.30
700.60	15854.79
700.73	15946.07
700.87	15829.04
701.00	15264.97
701.13	15534.14
701.26	15307.10
701.40	15749.46
701.53	15042.62
701.66	15297.74
701.79	15157.31
701.93	15059.01
702.06	14834.32
702.19	14733.67
702.32	14967.73
702.46	14647.07
702.59	14768.78
702.72	15002.83
702.85	14693.88
702.99	14773.46
703.12	14565.15
703.25	14286.63
703.38	14450.47
703.51	14167.26
703.65	14139.18
703.78	14214.07
703.91	13926.19
704.04	13975.34
704.17	13963.64
704.31	13528.30
704.44	13593.83
704.57	13715.54
704.70	13577.45
704.83	13668.73
704.96	13687.45
705.10	13816.18
705.23	13673.41
>>>>>End Processed Spectral Data<<<<<
