SpectraSuite Data File
++++++++++++++++++++++++++++++++++++
Date: Fri Oct 25 11:34:26 EDT 2013
User: price-jones
Dark Spectrum Present: No
Reference Spectrum Present: No
Number of Sampled Component Spectra: 1
Spectrometers: USB2+H05261
Integration Time (usec): 100000 (USB2+H05261)
Spectra Averaged: 1 (USB2+H05261)
Boxcar Smoothing: 0 (USB2+H05261)
Correct for Electrical Dark: No (USB2+H05261)
Strobe/Lamp Enabled: No (USB2+H05261)
Correct for Detector Non-linearity: No (USB2+H05261)
Correct for Stray Light: No (USB2+H05261)
Number of Pixels in Processed Spectrum: 2048
>>>>>Begin Processed Spectral Data<<<<<
365.73	285.55
365.92	285.55
366.12	285.55
366.32	222.35
366.52	166.18
366.72	184.90
366.91	168.52
367.11	241.08
367.31	135.75
367.51	175.54
367.70	121.71
367.90	203.63
368.10	159.16
368.30	152.13
368.49	184.90
368.69	191.92
368.89	196.60
369.09	168.52
369.28	189.58
369.48	208.31
369.68	264.48
369.87	241.08
370.07	212.99
370.27	194.26
370.47	348.74
370.66	482.15
370.86	470.45
371.06	512.58
371.25	538.32
371.45	538.32
371.65	498.53
371.84	545.34
372.04	507.90
372.24	526.62
372.44	561.73
372.63	550.03
372.83	547.69
373.03	517.26
373.22	613.22
373.42	634.29
373.62	662.37
373.81	603.86
374.01	732.59
374.21	662.37
374.40	622.58
374.60	772.38
374.79	653.01
374.99	655.35
375.19	641.31
375.38	690.46
375.58	664.71
375.78	660.03
375.97	648.33
376.17	713.86
376.37	660.03
376.56	695.14
376.76	610.88
376.95	697.48
377.15	671.73
377.35	744.29
377.54	617.90
377.74	674.07
377.93	596.84
378.13	688.12
378.33	732.59
378.52	723.23
378.72	711.52
378.91	711.52
379.11	655.35
379.31	730.25
379.50	660.03
379.70	746.63
379.89	674.07
380.09	741.95
380.28	664.71
380.48	655.35
380.68	734.93
380.87	786.42
381.07	741.95
381.26	784.08
381.46	713.86
381.65	826.21
381.85	748.97
382.04	781.74
382.24	748.97
382.43	763.01
382.63	755.99
382.83	798.12
383.02	812.17
383.22	774.72
383.41	704.50
383.61	748.97
383.80	744.29
384.00	770.04
384.19	807.48
384.39	786.42
384.58	730.25
384.78	842.59
384.97	765.36
385.17	840.25
385.36	830.89
385.56	800.46
385.75	816.85
385.95	807.48
386.14	861.32
386.34	847.27
386.53	816.85
386.72	788.76
386.92	851.96
387.11	847.27
387.31	882.38
387.50	936.21
387.70	866.00
387.89	877.70
388.09	912.81
388.28	875.36
388.48	840.25
388.67	922.17
388.86	863.66
389.06	854.30
389.25	957.28
389.45	847.27
389.64	863.66
389.84	926.85
390.03	940.90
390.22	917.49
390.42	931.53
390.61	980.68
390.81	910.47
391.00	997.07
391.19	1020.47
391.39	1018.13
391.58	931.53
391.78	959.62
391.97	978.34
392.16	968.98
392.36	1013.45
392.55	1071.97
392.75	1088.35
392.94	940.90
393.13	933.87
393.33	1034.52
393.52	964.30
393.71	1081.33
393.91	1029.84
394.10	1060.26
394.29	1018.13
394.49	1074.31
394.68	1041.54
394.88	1067.28
395.07	1083.67
395.26	1100.05
395.46	1088.35
395.65	1076.65
395.84	1100.05
396.04	1179.63
396.23	1203.04
396.42	1228.78
396.62	1125.80
396.81	1137.50
397.00	1118.78
397.19	1097.71
397.39	1217.08
397.58	1217.08
397.77	1181.97
397.97	1203.04
398.16	1174.95
398.35	1294.32
398.55	1301.34
398.74	1207.72
398.93	1348.15
399.12	1334.11
399.32	1214.74
399.51	1207.72
399.70	1303.68
399.90	1277.93
400.09	1233.46
400.28	1254.53
400.47	1401.98
400.67	1378.58
400.86	1416.02
401.05	1380.92
401.24	1448.79
401.44	1247.51
401.63	1413.68
401.82	1460.49
402.01	1413.68
402.21	1364.53
402.40	1416.02
402.59	1334.11
402.78	1425.39
402.97	1542.41
403.17	1584.54
403.36	1544.75
403.55	1427.73
403.74	1533.05
403.93	1605.61
404.13	1544.75
404.32	1582.20
404.51	1570.50
404.70	1650.08
404.89	1591.56
405.09	1612.63
405.28	1600.93
405.47	1577.52
405.66	1593.90
405.85	1678.16
406.05	1720.29
406.24	1645.40
406.43	1650.08
406.62	1708.59
406.81	1844.34
407.00	1591.56
407.20	1673.48
407.39	1797.53
407.58	1771.79
407.77	1853.70
407.96	1853.70
408.15	1820.94
408.34	1832.64
408.54	1839.66
408.73	1839.66
408.92	1954.35
409.11	1874.77
409.30	1959.03
409.49	1902.86
409.68	1872.43
409.87	1902.86
410.07	1975.41
410.26	1884.13
410.45	2031.58
410.64	2026.90
410.83	2073.71
411.02	2125.21
411.21	2045.63
411.40	2059.67
411.59	2031.58
411.78	2146.27
411.98	2106.48
412.17	2244.57
412.36	2106.48
412.55	2204.78
412.74	2319.47
412.93	2270.32
413.12	2209.47
413.31	2277.34
413.50	2282.02
413.69	2249.25
413.88	2347.56
414.07	2382.67
414.26	2375.64
414.45	2291.38
414.64	2345.22
414.83	2516.08
415.02	2567.57
415.22	2424.80
415.41	2527.78
415.60	2562.89
415.79	2630.76
415.98	2569.91
416.17	2642.46
416.36	2670.55
416.55	2656.51
416.74	2633.10
416.93	2605.02
417.12	2871.84
417.31	2698.64
417.50	2836.73
417.69	2820.35
417.88	2717.36
418.07	2768.85
418.26	2932.69
418.45	2899.92
418.64	2913.97
418.83	2897.58
419.02	2930.35
419.21	2930.35
419.39	3005.25
419.58	2951.42
419.77	2892.90
419.96	3110.57
420.15	3066.10
420.34	3000.57
420.53	3089.51
420.72	3143.34
420.91	3103.55
421.10	3129.30
421.29	3201.85
421.48	3016.95
421.67	3091.85
421.86	3096.53
422.05	3035.67
422.24	3126.96
422.43	3129.30
422.61	3283.77
422.80	3325.90
422.99	3243.98
423.18	3286.11
423.37	3412.50
423.56	3309.52
423.75	3314.20
423.94	3236.96
424.13	3028.65
424.32	3222.92
424.50	3267.39
424.69	3398.46
424.88	3339.94
425.07	3332.92
425.26	3281.43
425.45	3246.32
425.64	3218.24
425.83	3169.09
426.01	3463.99
426.20	3274.41
426.39	3328.24
426.58	3311.86
426.77	3377.39
426.96	3520.17
427.15	3342.28
427.33	3407.82
427.52	3300.16
427.71	3417.18
427.90	3618.47
428.09	3501.44
428.28	3641.87
428.46	3590.38
428.65	3520.17
428.84	3794.01
429.03	3721.45
429.22	3503.78
429.40	3571.66
429.59	3623.15
429.78	3468.67
429.97	3520.17
430.16	3571.66
430.34	3679.32
430.53	3859.54
430.72	3770.60
430.91	3843.16
431.10	3709.75
431.28	3758.90
431.47	3805.71
431.66	3794.01
431.85	3913.38
432.03	3911.04
432.22	3892.31
432.41	3798.69
432.60	3779.97
432.79	3983.59
432.97	3974.23
433.16	4028.06
433.35	3927.42
433.54	4060.83
433.72	3990.61
433.91	4079.55
434.10	4152.11
434.28	4121.68
434.47	4049.13
434.66	4119.34
434.85	3985.93
435.03	4280.84
435.22	4117.00
435.41	4269.14
435.59	4194.24
435.78	4210.62
435.97	4145.09
436.16	4119.34
436.34	4205.94
436.53	4374.46
436.72	4416.59
436.90	4128.70
437.09	4414.25
437.28	4348.72
437.46	4390.84
437.65	4339.35
437.84	4465.74
438.02	4372.12
438.21	4458.72
438.40	4219.99
438.58	4674.05
438.77	4465.74
438.96	4559.36
439.14	4589.79
439.33	4629.58
439.52	4753.63
439.70	4667.03
439.89	4732.56
440.08	4828.53
440.26	4856.61
440.45	4683.41
440.63	4924.49
440.82	4959.60
441.01	4940.87
441.19	4957.25
441.38	5048.54
441.57	5053.22
441.75	5076.62
441.94	5195.99
442.12	5184.29
442.31	5233.44
442.50	5245.14
442.68	5345.78
442.87	5313.02
443.05	5214.71
443.24	5270.89
443.43	5425.36
443.61	5385.57
443.80	5444.09
443.98	5242.80
444.17	5069.60
444.35	5357.49
444.54	5483.88
444.73	5439.40
444.91	5516.64
445.10	5502.60
445.28	5577.50
445.47	5439.40
445.65	5401.96
445.84	5425.36
446.02	5392.59
446.21	5458.13
446.39	5509.62
446.58	5760.06
446.77	5523.66
446.95	5322.38
447.14	5413.66
447.32	5547.07
447.51	5455.79
447.69	5460.47
447.88	5533.03
448.06	5579.84
448.25	5458.13
448.43	5547.07
448.62	5636.01
448.80	5507.28
448.99	5500.26
449.17	5626.65
449.36	5671.12
449.54	5650.05
449.73	5781.12
449.91	5935.60
450.10	5961.34
450.28	5830.27
450.46	5900.49
450.65	5804.53
450.83	5870.06
451.02	5935.60
451.20	5944.96
451.39	5928.58
451.57	6019.86
451.76	5659.42
451.94	5959.00
452.13	6001.13
452.31	6015.18
452.49	6076.03
452.68	5951.98
452.86	6073.69
453.05	6153.27
453.23	6101.78
453.42	6141.57
453.60	6108.80
453.78	6160.29
453.97	6183.70
454.15	6071.35
454.34	6368.60
454.52	6354.55
454.70	6223.48
454.89	6228.17
455.07	6256.25
455.26	6485.62
455.44	6487.96
455.62	6342.85
455.81	6420.09
455.99	6609.67
456.17	6492.65
456.36	6729.04
456.54	6656.48
456.73	6619.04
456.91	6600.31
457.09	6569.88
457.28	6862.45
457.46	6792.23
457.64	6899.90
457.83	6726.70
458.01	6682.23
458.19	6825.00
458.38	6663.51
458.56	6918.62
458.74	6785.21
458.93	6764.15
459.11	6963.09
459.29	7028.63
459.48	6965.43
459.66	6991.18
459.84	7049.69
460.03	7140.97
460.21	7066.08
460.39	7077.78
460.57	7162.04
460.76	7047.35
460.94	7269.70
461.12	7325.88
461.31	7241.62
461.49	7255.66
461.67	7089.48
461.85	7248.64
462.04	7241.62
462.22	7660.57
462.40	7433.54
462.59	7627.81
462.77	7590.36
462.95	7485.03
463.13	7323.54
463.32	7485.03
463.50	7349.28
463.68	7489.71
463.86	7803.35
464.05	7459.29
464.23	7426.52
464.41	7648.87
464.59	7492.05
464.78	7695.68
464.96	7676.96
465.14	7653.55
465.32	7702.70
465.50	7950.80
465.69	7772.92
465.87	7829.09
466.05	7793.98
466.23	7878.24
466.41	7864.20
466.60	7992.93
466.78	7737.81
466.96	7892.29
467.14	7864.20
467.32	7903.99
467.51	8098.25
467.69	7805.69
467.87	7845.48
468.05	8100.59
468.23	8084.21
468.41	7985.91
468.60	8051.44
468.78	8109.96
468.96	8013.99
469.14	8154.43
469.32	8311.24
469.50	8313.58
469.69	8276.13
469.87	8262.09
470.05	8344.01
470.23	8540.61
470.41	8428.27
470.59	8432.95
470.77	8365.07
470.95	8423.59
471.14	8643.60
471.32	8234.00
471.50	8631.90
471.68	8678.71
471.86	8697.43
472.04	8718.50
472.22	8926.80
472.40	8688.07
472.58	8823.82
472.77	8997.02
472.95	9022.77
473.13	9221.71
473.31	8891.70
473.49	9146.81
473.67	8919.78
473.85	9193.62
474.03	9324.69
474.21	9380.87
474.39	9446.40
474.57	9317.67
474.75	9535.34
474.93	9652.37
475.12	9399.59
475.30	9680.46
475.48	9699.18
475.66	9806.84
475.84	9544.70
476.02	9694.50
476.20	9881.74
476.38	9888.76
476.56	10338.15
476.74	9874.72
476.92	10125.16
477.10	10136.86
477.28	10267.93
477.46	10239.84
477.64	10406.02
477.82	10609.65
478.00	10686.89
478.18	10729.02
478.36	10815.62
478.54	10752.42
478.72	10939.66
478.90	11005.20
479.08	11012.22
479.26	11075.42
479.44	11255.64
479.62	11314.15
479.80	11398.41
479.98	11482.67
480.16	11716.72
480.34	11492.03
480.52	11843.11
480.70	11747.15
480.88	11655.87
481.06	11882.90
481.24	11873.54
481.41	12149.72
481.59	12425.90
481.77	12081.85
481.95	12306.54
482.13	12517.18
482.31	12465.69
482.49	12556.97
482.67	12919.76
482.85	13078.91
483.03	12905.71
483.21	13050.83
483.39	13214.66
483.57	13102.32
483.74	13418.29
483.92	13420.63
484.10	13462.76
484.28	13731.92
484.46	13729.58
484.64	14181.31
484.82	13912.14
485.00	14073.64
485.18	14295.99
485.35	14853.04
485.53	14314.72
485.71	14363.87
485.89	14740.69
486.07	14911.55
486.25	14799.21
486.43	14810.91
486.61	14867.08
486.78	15044.96
486.96	15330.51
487.14	15442.85
487.32	15414.77
487.50	15712.02
487.68	15836.06
487.85	15840.75
488.03	15932.03
488.21	16350.98
488.39	15974.16
488.57	16498.44
488.75	16372.05
488.92	16828.45
489.10	16943.14
489.28	17022.72
489.46	16959.52
489.64	17380.82
489.81	17039.10
489.99	17214.64
490.17	17310.60
490.35	17614.87
490.53	17547.00
490.70	17839.56
490.88	17968.29
491.06	17994.04
491.24	18171.92
491.41	18331.08
491.59	18115.75
491.77	18508.96
491.95	18361.50
492.13	18661.09
492.30	18845.99
492.48	18738.33
492.66	19012.17
492.84	19089.41
493.01	19297.72
493.19	19147.92
493.37	19466.24
493.54	19386.66
493.72	19644.12
493.90	19784.55
494.08	19976.47
494.25	20091.16
494.43	20084.14
494.61	20395.43
494.79	20456.28
494.96	20182.44
495.14	20414.15
495.32	20711.40
495.49	20781.62
495.67	20952.48
495.85	21209.93
496.02	21109.29
496.20	21432.29
496.38	21488.46
496.55	21628.89
496.73	21589.10
496.91	21537.61
497.09	21647.61
497.26	21799.75
497.44	21795.07
497.62	21991.67
497.79	22338.07
497.97	22270.20
498.14	22693.83
498.32	22750.01
498.50	22700.86
498.67	22902.14
498.85	22803.84
499.03	23068.32
499.20	22925.55
499.38	22920.87
499.56	23208.75
499.73	23424.08
499.91	23339.82
500.08	23718.99
500.26	23644.09
500.44	23807.93
500.61	23723.67
500.79	23704.95
500.97	23857.08
501.14	24081.77
501.32	24315.83
501.49	23880.49
501.67	24191.78
501.84	24238.59
502.02	24364.98
502.20	24645.84
502.37	24617.75
502.55	24334.55
502.72	24587.33
502.90	24615.41
503.07	24975.86
503.25	24980.54
503.43	24945.43
503.60	25387.79
503.78	25462.69
503.95	25135.01
504.13	25439.28
504.30	25455.67
504.48	25174.80
504.65	25530.56
504.83	25830.15
505.01	25865.26
505.18	25584.40
505.36	26169.53
505.53	25792.70
505.71	26391.88
505.88	26160.17
506.06	26080.59
506.23	26632.96
506.41	26445.71
506.58	26579.12
506.76	26618.91
506.93	26850.63
507.11	26881.05
507.28	26920.84
507.46	26848.29
507.63	27136.17
507.81	27056.59
507.98	26771.05
508.16	27321.07
508.33	27634.71
508.50	27414.69
508.68	27365.54
508.85	27648.75
509.03	27590.24
509.20	27742.37
509.38	28002.17
509.55	28334.53
509.73	28276.01
509.90	28156.64
510.08	28051.32
510.25	28105.15
510.42	27934.29
510.60	28278.35
510.77	28535.81
510.95	28655.18
511.12	28655.18
511.30	28161.33
511.47	29244.99
511.64	28968.81
511.82	29120.95
511.99	28671.56
512.17	29401.81
512.34	29404.15
512.51	29378.40
512.69	29645.23
512.86	29792.68
513.04	29631.18
513.21	29846.51
513.38	29907.37
513.56	29577.35
513.73	29717.78
513.90	29919.07
514.08	29883.96
514.25	29986.94
514.43	30073.54
514.60	30052.48
514.77	30162.48
514.95	30274.83
515.12	30249.08
515.29	29912.05
515.47	30419.94
515.64	30932.52
515.81	30239.72
515.99	31227.43
516.16	30637.61
516.33	30855.28
516.51	30808.47
516.68	30616.55
516.85	31087.00
517.03	31295.30
517.20	31234.45
517.37	30988.69
517.54	31124.44
517.72	31566.81
517.89	31335.09
518.06	31974.06
518.24	31491.91
518.41	31608.93
518.58	31929.59
518.75	31431.05
518.93	32137.90
519.10	31772.77
519.27	31850.01
519.45	31983.42
519.62	32055.98
519.79	32261.94
519.96	32266.63
520.14	32451.53
520.31	32287.69
520.48	32613.02
520.65	32992.19
520.83	32943.04
521.00	32931.34
521.17	32657.49
521.34	33113.90
521.52	32767.50
521.69	32971.13
521.86	33336.25
522.03	33392.42
522.20	33532.86
522.38	33242.63
522.55	33518.81
522.72	33345.61
522.89	33783.29
523.07	33834.78
523.24	33795.00
523.41	33692.01
523.58	33696.69
523.75	34206.93
523.92	33919.04
524.10	34167.14
524.27	34066.50
524.44	34424.60
524.61	34340.34
524.78	34588.44
524.96	34513.54
525.13	34340.34
525.30	34675.04
525.47	34876.32
525.64	34352.04
525.81	34808.45
525.98	35077.61
526.16	34843.56
526.33	34864.62
526.50	34873.98
526.67	34733.55
526.84	34902.07
527.01	34969.94
527.18	35023.78
527.36	35161.87
527.53	35058.88
527.70	35438.05
527.87	35529.33
528.04	35407.62
528.21	35328.05
528.38	35428.69
528.55	35424.01
528.72	35702.53
528.89	35653.38
529.07	35199.32
529.24	35421.67
529.41	36182.34
529.58	35803.17
529.75	35728.28
529.92	35840.62
530.09	35978.72
530.26	36180.00
530.43	36608.32
530.60	36161.28
530.77	35676.79
530.94	36013.82
531.11	36285.33
531.28	36268.94
531.46	36444.48
531.63	36594.28
531.80	36329.80
531.97	36868.12
532.14	36905.57
532.31	36680.88
532.48	36807.26
532.65	37053.02
532.82	36774.50
532.99	36952.38
533.16	36783.86
533.33	37020.25
533.50	37261.33
533.67	37469.64
533.84	37078.77
534.01	37301.12
534.18	37378.36
534.35	37418.14
534.52	37507.08
534.69	37748.16
534.86	37738.80
535.03	37720.07
535.20	37928.38
535.37	37701.35
535.54	37612.41
535.71	37930.72
535.88	37596.03
536.05	37818.38
536.22	38590.75
536.38	38000.94
536.55	37745.82
536.72	38129.67
536.89	38124.99
537.06	37687.31
537.23	38536.92
537.40	38403.51
537.57	37801.99
537.74	38197.54
537.91	38639.90
538.08	38258.40
538.25	37680.28
538.42	38443.30
538.59	38234.99
538.75	38555.64
538.92	38529.90
539.09	38785.02
539.26	38838.85
539.43	38700.76
539.60	38740.55
539.77	38583.73
539.94	39269.51
540.11	38993.32
540.28	39206.31
540.44	38845.87
540.61	39311.64
540.78	38904.38
540.95	39044.82
541.12	39328.02
541.29	39363.13
541.46	39325.68
541.62	39716.55
541.79	39423.98
541.96	39311.64
542.13	38768.63
542.30	39599.52
542.47	39636.97
542.63	39262.49
542.80	39873.37
542.97	39732.93
543.14	40252.53
543.31	39835.92
543.48	40226.79
543.64	40699.58
543.81	40315.73
543.98	40130.83
544.15	39971.67
544.32	40575.53
544.48	40828.30
544.65	40158.91
544.82	40360.20
544.99	40294.66
545.16	40655.11
545.32	40217.43
545.49	40683.19
545.66	40818.94
545.83	41104.49
546.00	40896.18
546.16	40465.52
546.33	40704.26
546.50	40900.86
546.67	40861.07
546.83	40460.84
547.00	40788.52
547.17	40900.86
547.34	40741.71
547.50	41565.57
547.67	41460.25
547.84	41123.21
548.00	41521.10
548.17	41347.90
548.34	41717.71
548.51	41570.25
548.67	41654.51
548.84	41476.63
549.01	41787.92
549.18	41567.91
549.34	41436.84
549.51	41324.50
549.68	41909.63
549.84	41780.90
550.01	41778.56
550.18	41455.57
550.34	41799.63
550.51	41687.28
550.68	42103.90
550.84	41167.68
551.01	42096.88
551.18	41993.89
551.34	41769.20
551.51	42513.49
551.68	42096.88
551.84	41741.11
552.01	41888.57
552.18	41844.10
552.34	41911.97
552.51	42373.06
552.68	41921.34
552.84	41673.24
553.01	42532.22
553.18	42094.53
553.34	42328.59
553.51	42349.65
553.67	42497.11
553.84	42239.65
554.01	42646.90
554.17	42323.91
554.34	42471.36
554.51	42761.59
554.67	42670.31
554.84	42408.17
555.00	42852.87
555.17	42412.85
555.33	42550.94
555.50	42838.83
555.67	42738.18
555.83	43005.00
556.00	42738.18
556.16	42876.27
556.33	43131.39
556.50	42871.59
556.66	43178.20
556.83	42836.48
556.99	43384.17
557.16	43452.05
557.32	43587.80
557.49	43402.89
557.65	42927.77
557.82	43098.62
557.98	43402.89
558.15	43264.80
558.32	43161.82
558.48	43164.16
558.65	43157.14
558.81	43297.57
558.98	43372.47
559.14	43349.06
559.31	43145.44
559.47	43533.96
559.64	43306.93
559.80	43592.48
559.97	43615.88
560.13	43210.97
560.30	43821.85
560.46	43871.00
560.63	43761.00
560.79	43805.47
560.96	43573.75
561.12	43594.82
561.29	43522.26
561.45	43681.42
561.61	43372.47
561.78	43686.10
561.94	43669.72
562.11	43681.42
562.27	44032.50
562.44	43868.66
562.60	43978.67
562.77	44301.66
562.93	44046.54
563.10	44444.43
563.26	44531.03
563.42	44383.58
563.59	43882.70
563.75	43945.90
563.92	44268.89
564.08	44048.88
564.24	44329.75
564.41	44072.29
564.57	43814.83
564.74	44128.46
564.90	44060.58
565.07	44404.64
565.23	44177.61
565.39	44556.78
565.56	44580.18
565.72	44184.63
565.88	44399.96
566.05	44006.75
566.21	44086.33
566.38	44013.77
566.54	44205.70
566.70	44589.55
566.87	44697.21
567.03	44383.58
567.19	44615.29
567.36	44442.09
567.52	44720.62
567.68	44638.70
567.85	44280.60
568.01	44961.69
568.17	44362.51
568.34	44467.84
568.50	44814.24
568.66	44137.82
568.83	44095.69
568.99	44751.04
569.15	44765.09
569.32	44816.58
569.48	44694.87
569.64	45041.27
569.81	44610.61
569.97	44865.73
570.13	44582.52
570.30	44505.29
570.46	44971.05
570.62	44680.83
570.78	44940.63
570.95	44748.70
571.11	45184.04
571.27	44755.72
571.43	44247.83
571.60	45249.58
571.76	44662.10
571.92	44800.19
572.09	44652.74
572.25	44921.90
572.41	44676.15
572.57	44795.51
572.74	45319.79
572.90	44664.44
573.06	44678.49
573.22	45237.87
573.38	45448.52
573.55	45258.94
573.71	45713.00
573.87	45120.85
574.03	44795.51
574.20	45280.00
574.36	45036.59
574.52	44863.39
574.68	45195.74
574.84	45385.33
575.01	45413.41
575.17	45521.08
575.33	45647.47
575.49	44914.88
575.65	45455.54
575.82	45118.51
575.98	45106.80
576.14	45668.53
576.30	45516.40
576.46	44825.94
576.62	44905.52
576.79	45443.84
576.95	44847.00
577.11	44624.65
577.27	45198.09
577.43	45116.17
577.59	45193.40
577.75	45052.97
577.92	44502.95
578.08	45003.82
578.24	45509.38
578.40	44949.99
578.56	45305.75
578.72	45284.68
578.88	45233.19
579.04	45375.97
579.21	44622.31
579.37	45134.89
579.53	45167.66
579.69	45310.43
579.85	44910.20
580.01	45170.00
580.17	45612.36
580.33	45298.73
580.49	45303.41
580.65	45184.04
580.82	44701.89
580.98	45099.78
581.14	45085.74
581.30	45249.58
581.46	45287.03
581.62	45195.74
581.78	45125.53
581.94	45741.09
582.10	45406.39
582.26	45476.61
582.42	45251.92
582.58	45193.40
582.74	45698.96
582.90	45464.91
583.06	45436.82
583.22	45563.21
583.38	45588.95
583.54	45373.63
583.70	44978.07
583.86	45081.06
584.02	45448.52
584.18	45827.69
584.34	45799.60
584.50	45394.69
584.66	45783.22
584.82	45762.15
584.98	45394.69
585.14	45338.52
585.30	44999.14
585.46	45404.05
585.62	45563.21
585.78	45523.42
585.94	44947.65
586.10	45755.13
586.26	45528.10
586.42	45464.91
586.58	45886.20
586.74	45382.99
586.90	45265.96
587.06	45801.94
587.22	45745.77
587.38	45415.76
587.54	45909.61
587.70	45918.97
587.86	45511.72
588.02	45425.12
588.18	45394.69
588.34	45839.39
588.49	45619.38
588.65	45441.50
588.81	45434.48
588.97	45893.22
589.13	45490.65
589.29	45549.17
589.45	45895.56
589.61	45996.21
589.77	45537.46
589.93	45172.34
590.08	46054.72
590.24	46277.07
590.40	46239.62
590.56	45790.24
590.72	46237.28
590.88	45654.49
591.04	45755.13
591.20	46103.87
591.35	46358.99
591.51	46288.77
591.67	46000.89
591.83	46164.73
591.99	46106.21
592.15	45808.96
592.31	46258.35
592.46	45893.22
592.62	45951.74
592.78	46258.35
592.94	46195.15
593.10	46043.02
593.26	46323.88
593.41	45956.42
593.57	45972.80
593.73	46188.13
593.89	46363.67
594.05	46614.11
594.20	46218.56
594.36	46550.91
594.52	46305.16
594.68	46038.34
594.84	45968.12
594.99	46501.76
595.15	45865.14
595.31	46358.99
595.47	46375.37
595.62	46490.06
595.78	45668.53
595.94	46609.43
596.10	46164.73
596.25	46078.13
596.41	46291.12
596.57	46033.66
596.73	46103.87
596.88	46099.19
597.04	45722.37
597.20	46258.35
597.36	46602.41
597.51	46223.24
597.67	46234.94
597.83	46358.99
597.99	46265.37
598.14	46256.01
598.30	46469.00
598.46	46466.66
598.61	46602.41
598.77	46443.25
598.93	46782.63
599.09	46564.96
599.24	46284.09
599.40	46124.94
599.56	46436.23
599.71	46642.20
599.87	46820.08
600.03	46614.11
600.18	46597.73
600.34	46642.20
600.50	46450.27
600.65	46330.90
600.81	46569.64
600.97	46494.74
601.12	46658.58
601.28	46279.41
601.44	46436.23
601.59	46761.56
601.75	46138.98
601.91	46866.89
602.06	46195.15
602.22	46461.97
602.37	46417.50
602.53	46492.40
602.69	46822.42
602.84	46461.97
603.00	46522.83
603.16	46576.66
603.31	46476.02
603.47	46607.09
603.62	46513.47
603.78	46298.14
603.94	46560.28
604.09	46679.64
604.25	46195.15
604.40	46595.38
604.56	46258.35
604.71	47056.47
604.87	45841.73
605.03	46375.37
605.18	45975.14
605.34	46454.95
605.49	45855.78
605.65	46518.15
605.80	46113.23
605.96	45940.04
606.12	46101.53
606.27	46387.08
606.43	46567.30
606.58	46553.26
606.74	45862.80
606.89	46429.21
607.05	46539.21
607.20	46417.50
607.36	46637.51
607.51	46232.60
607.67	46618.79
607.82	45947.06
607.98	46007.91
608.13	46108.55
608.29	46164.73
608.44	45792.58
608.60	45626.40
608.75	46199.83
608.91	45907.27
609.06	45900.25
609.22	46309.84
609.37	46256.01
609.53	46609.43
609.68	46326.22
609.84	46036.00
609.99	46218.56
610.15	46019.61
610.30	45743.43
610.46	46000.89
610.61	46169.41
610.76	46342.61
610.92	45876.84
611.07	45935.35
611.23	45806.62
611.38	45982.16
611.54	46337.93
611.69	46436.23
611.84	46581.34
612.00	45867.48
612.15	45659.17
612.31	46167.07
612.46	45462.57
612.62	45834.71
612.77	46120.26
612.92	46096.85
613.08	45565.55
613.23	45694.28
613.39	45986.85
613.54	45586.61
613.69	46225.58
613.85	45579.59
614.00	46209.20
614.15	46040.68
614.31	45830.03
614.46	45801.94
614.62	45504.70
614.77	45659.17
614.92	45954.08
615.08	45705.98
615.23	45420.44
615.38	46178.77
615.54	45710.66
615.69	45713.00
615.84	45539.80
616.00	46153.02
616.15	45361.92
616.30	45874.50
616.46	45556.19
616.61	45640.45
616.76	45839.39
616.92	45326.81
617.07	45581.93
617.22	45408.73
617.37	44910.20
617.53	45394.69
617.68	45628.74
617.83	45399.37
617.99	45722.37
618.14	45565.55
618.29	44982.76
618.45	44928.92
618.60	45104.46
618.75	45141.91
618.90	45092.76
619.06	44849.35
619.21	45251.92
619.36	45734.07
619.51	45052.97
619.67	45177.02
619.82	45015.52
619.97	45308.09
620.12	45242.56
620.28	44821.26
620.43	45909.61
620.58	45191.06
620.73	45111.49
620.89	45081.06
621.04	45095.10
621.19	45186.38
621.34	44643.38
621.49	44367.20
621.65	44898.50
621.80	45385.33
621.95	45195.74
622.10	45024.89
622.25	44538.05
622.41	44914.88
622.56	44484.22
622.71	45223.83
622.86	45265.96
623.01	44919.56
623.16	44502.95
623.32	44931.26
623.47	44802.53
623.62	44739.34
623.77	44481.88
623.92	44596.57
624.07	44439.75
624.23	44776.79
624.38	44701.89
624.53	44856.37
624.68	44402.30
624.83	44509.97
624.98	44406.98
625.13	44100.37
625.29	43847.60
625.44	43948.24
625.59	44332.09
625.74	44219.74
625.89	44051.22
626.04	44201.02
626.19	44140.16
626.34	44287.62
626.49	44292.30
626.65	43798.44
626.80	44350.81
626.95	43784.40
627.10	43681.42
627.25	44186.97
627.40	44348.47
627.55	44446.77
627.70	44083.99
627.85	44360.17
628.00	44296.98
628.15	43950.58
628.30	43583.12
628.45	43655.67
628.60	43674.40
628.76	43784.40
628.91	43812.49
629.06	43344.38
629.21	43466.09
629.36	43847.60
629.51	43440.34
629.66	43922.49
629.81	43725.89
629.96	43768.02
630.11	44039.52
630.26	43688.44
630.41	43845.26
630.56	43302.25
630.71	43152.46
630.86	43089.26
631.01	43019.05
631.16	42934.79
631.31	42904.36
631.46	43739.93
631.61	43601.84
631.76	43512.90
631.91	43358.42
632.06	43461.41
632.21	43292.89
632.36	43594.82
632.51	43049.47
632.66	43316.29
632.81	43086.92
632.96	43489.49
633.10	42920.74
633.25	42794.36
633.40	43419.28
633.55	43473.11
633.70	43374.81
633.85	42902.02
634.00	42806.06
634.15	42621.16
634.30	42834.14
634.45	42705.41
634.60	42813.08
634.75	43072.88
634.90	43030.75
635.05	42794.36
635.19	42759.25
635.34	42515.83
635.49	42658.60
635.64	42644.56
635.79	42747.54
635.94	43035.43
636.09	42862.23
636.24	42499.45
636.39	42401.14
636.53	42583.71
636.68	42389.44
636.83	42653.92
636.98	42195.18
637.13	42026.66
637.28	42043.04
637.43	42504.13
637.57	42288.80
637.72	42344.97
637.87	42440.93
638.02	42246.67
638.17	42157.73
638.32	42412.85
638.46	42071.13
638.61	42164.75
638.76	41970.49
638.91	41986.87
639.06	41963.46
639.20	42101.56
639.35	41940.06
639.50	41574.94
639.65	42237.31
639.80	42574.34
639.94	42197.52
640.09	41956.44
640.24	42036.02
640.39	41691.96
640.54	42019.64
640.68	41661.54
640.83	42281.78
640.98	41771.54
641.13	41453.23
641.27	41907.29
641.42	42038.36
641.57	41045.97
641.72	42103.90
641.86	41214.49
642.01	40985.12
642.16	41006.19
642.31	41223.86
642.45	41677.92
642.60	41202.79
642.75	41581.96
642.90	41654.51
643.04	41205.13
643.19	41432.16
643.34	41120.87
643.48	41336.20
643.63	41432.16
643.78	41137.26
643.93	41640.47
644.07	41425.14
644.22	41380.67
644.37	41322.16
644.51	41392.37
644.66	41888.57
644.81	41237.90
644.95	41090.44
645.10	41017.89
645.25	41055.34
645.39	40865.75
645.54	40715.96
645.69	40964.06
645.83	41036.61
645.98	40481.91
646.13	40650.42
646.27	40645.74
646.42	40655.11
646.57	40865.75
646.71	40994.48
646.86	40779.15
647.00	41130.23
647.15	40725.32
647.30	40650.42
647.44	40978.10
647.59	40425.73
647.74	40669.15
647.88	40774.47
648.03	40837.67
648.17	40994.48
648.32	40900.86
648.47	41404.08
648.61	40285.30
648.76	40531.06
648.90	40318.07
649.05	40517.01
649.20	40566.16
649.34	40521.69
649.49	40718.30
649.63	40711.28
649.78	40545.10
649.92	40769.79
650.07	41277.69
650.21	40807.24
650.36	41158.32
650.51	40641.06
650.65	40942.99
650.80	40648.08
650.94	40088.70
651.09	40374.24
651.23	39702.51
651.38	40343.81
651.52	39557.39
651.67	40332.11
651.81	40219.77
651.96	40053.59
652.10	39302.28
652.25	40093.38
652.39	39943.58
652.54	40018.48
652.68	39964.65
652.83	39779.74
652.97	40119.12
653.12	39725.91
653.26	39613.57
653.41	40289.98
653.55	39814.85
653.70	40093.38
653.84	40039.54
653.99	40140.19
654.13	40133.17
654.27	39541.01
654.42	39770.38
654.56	39533.99
654.71	39517.60
654.85	39688.46
655.00	39601.86
655.14	39988.05
655.29	40109.76
655.43	39798.47
655.57	39477.82
655.72	39232.06
655.86	39311.64
656.01	39632.29
656.15	38675.01
656.30	39363.13
656.44	39732.93
656.58	39234.40
656.73	39147.80
656.87	38567.35
657.01	38590.75
657.16	39388.88
657.30	39019.07
657.45	39281.21
657.59	39297.59
657.73	38302.87
657.88	38742.89
658.02	38827.15
658.16	39470.79
658.31	39180.57
658.45	39126.74
658.60	38827.15
658.74	39084.61
658.88	38719.48
659.03	38845.87
659.17	38944.17
659.31	38815.44
659.46	38323.93
659.60	38859.91
659.74	38342.66
659.89	38150.73
660.03	38202.22
660.17	38447.98
660.32	38316.91
660.46	38059.45
660.60	37855.82
660.74	38010.30
660.89	38483.09
661.03	37764.54
661.17	37872.21
661.32	38220.95
661.46	38174.14
661.60	37516.45
661.74	38000.94
661.89	37890.93
662.03	37865.19
662.17	37738.80
662.31	37586.66
662.46	37776.25
662.60	37411.12
662.74	37046.00
662.88	37116.22
663.03	37102.17
663.17	37305.80
663.31	36952.38
663.45	36804.92
663.60	37567.94
663.74	37305.80
663.88	37144.30
664.02	36912.59
664.17	37305.80
664.31	36720.66
664.45	36638.75
664.59	36566.19
664.73	36910.25
664.88	36903.23
665.02	36322.77
665.16	36512.36
665.30	36533.42
665.44	36561.51
665.59	36781.52
665.73	36196.38
665.87	35739.98
666.01	36282.98
666.15	36547.47
666.29	36369.58
666.44	36371.92
666.58	35936.59
666.72	35967.01
666.86	36142.55
667.00	36184.68
667.14	36130.85
667.28	35807.86
667.43	35306.98
667.57	36287.67
667.71	35761.05
667.85	36018.50
667.99	35988.08
668.13	35519.97
668.27	35414.65
668.41	35653.38
668.56	35079.95
668.70	34871.64
668.84	34962.92
668.98	35182.93
669.12	35292.94
669.26	34862.28
669.40	34890.37
669.54	35314.00
669.68	35220.38
669.82	34696.10
669.96	34625.89
670.10	34749.93
670.25	34724.19
670.39	34543.97
670.53	34785.04
670.67	34150.76
670.81	34256.08
670.95	34738.23
671.09	34263.10
671.23	34314.59
671.37	34553.33
671.51	33961.17
671.65	33982.24
671.79	33645.20
671.93	34342.68
672.07	33797.34
672.21	33727.12
672.35	33556.26
672.49	34031.39
672.63	33846.49
672.77	33783.29
672.91	33369.02
673.05	33167.73
673.19	33156.03
673.33	33270.72
673.47	32844.74
673.61	33165.39
673.75	32713.67
673.89	32807.29
674.03	32409.40
674.17	32271.31
674.31	32278.33
674.45	32451.53
674.59	32582.60
674.73	32350.88
674.87	32390.67
675.01	31817.24
675.15	31931.93
675.29	31857.03
675.43	31857.03
675.56	32187.05
675.70	31899.16
675.84	31512.97
675.98	31145.51
676.12	31519.99
676.26	31913.20
676.40	31295.30
676.54	31168.91
676.68	31360.84
676.82	30443.35
676.96	31171.25
677.10	31108.06
677.23	30902.09
677.37	30698.47
677.51	30546.33
677.65	30955.93
677.79	30574.42
677.93	30480.80
678.07	30312.28
678.21	30115.67
678.34	29858.21
678.48	29692.04
678.62	30405.90
678.76	29809.06
678.90	29862.90
679.04	29792.68
679.18	29390.11
679.31	29399.47
679.45	29509.47
679.59	29308.19
679.73	29287.12
679.87	29118.60
680.00	29048.39
680.14	29109.24
680.28	29013.28
680.42	29083.50
680.56	28627.09
680.70	28730.08
680.83	28858.81
680.97	28222.18
681.11	28470.28
681.25	28280.69
681.39	27887.48
681.52	27927.27
681.66	27835.99
681.80	27899.19
681.94	27690.88
682.07	27417.04
682.21	27896.85
682.35	27051.91
682.49	27557.47
682.62	27391.29
682.76	27129.15
682.90	27145.53
683.04	26801.47
683.17	27129.15
683.31	26794.45
683.45	27070.64
683.59	26326.35
683.72	26300.60
683.86	26583.80
684.00	26242.09
684.13	25975.27
684.27	26209.32
684.41	26389.54
684.55	26033.78
684.68	26057.18
684.82	25668.66
684.96	25462.69
685.09	25399.49
685.23	25584.40
685.37	25858.24
685.50	25467.37
685.64	25507.16
685.78	25282.47
685.91	24905.64
686.05	24858.83
686.19	24599.03
686.32	24671.59
686.46	24189.44
686.60	24446.90
686.73	24734.78
686.87	24758.19
687.01	24531.15
687.14	24379.02
687.28	24439.87
687.42	24135.60
687.55	24133.26
687.69	23887.51
687.82	23653.45
687.96	23782.18
688.10	23995.17
688.23	23728.35
688.37	23653.45
688.50	23789.20
688.64	23470.89
688.78	23246.20
688.91	23119.81
689.05	23129.17
689.18	22939.59
689.32	22700.86
689.46	22593.19
689.59	22647.02
689.73	22813.20
689.86	22792.14
690.00	22471.48
690.13	22703.20
690.27	22153.17
690.41	22223.39
690.54	22026.78
690.68	22026.78
690.81	21689.74
690.95	21687.40
691.08	21757.62
691.22	21446.33
691.35	21584.42
691.49	21411.22
691.62	21549.31
691.76	21048.44
691.89	20917.37
692.03	20765.23
692.16	21048.44
692.30	20753.53
692.43	20954.82
692.57	20599.05
692.70	20379.04
692.84	20692.68
692.97	20243.29
693.11	20400.11
693.24	20428.20
693.38	19852.42
693.51	20067.75
693.65	19648.80
693.78	19812.63
693.92	19763.48
694.05	19604.33
694.19	19723.69
694.32	19613.69
694.45	19997.54
694.59	19805.61
694.72	19812.63
694.86	19585.60
694.99	19194.73
695.13	18988.77
695.26	18948.98
695.39	18782.80
695.53	18768.76
695.66	18829.61
695.80	18534.70
695.93	18850.67
696.07	18183.62
696.20	18068.94
696.33	18256.18
696.47	17956.59
696.60	18061.91
696.73	18326.39
696.87	18195.32
697.00	18408.31
697.14	18057.23
697.27	17900.42
697.40	17612.53
697.54	17422.95
697.67	17586.79
697.80	17586.79
697.94	17507.21
698.07	17202.94
698.21	17238.05
698.34	16985.27
698.47	17053.14
698.61	16798.02
698.74	16585.04
698.87	16589.72
699.01	16767.60
699.14	16709.08
699.27	16519.50
699.40	16620.14
699.54	16248.00
699.67	16613.12
699.80	16343.96
699.94	15943.73
700.07	16065.44
700.20	15974.16
700.34	15735.42
700.47	15892.24
700.60	16231.62
700.73	16102.89
700.87	15461.58
701.00	15503.71
701.13	15634.78
701.26	15538.82
701.40	15267.31
701.53	15316.47
701.66	15297.74
701.79	15176.03
701.93	14993.47
702.06	14623.67
702.19	14871.76
702.32	14820.27
702.46	14953.68
702.59	14970.07
702.72	14934.96
702.85	14752.40
702.99	14799.21
703.12	14401.32
703.25	14457.49
703.38	14455.15
703.51	14333.44
703.65	13958.96
703.78	14150.88
703.91	13825.54
704.04	13776.39
704.17	13846.61
704.31	13778.73
704.44	13816.18
704.57	14005.77
704.70	13448.72
704.83	13308.29
704.96	13547.02
705.10	13259.13
705.23	13205.30
>>>>>End Processed Spectral Data<<<<<
