SpectraSuite Data File
++++++++++++++++++++++++++++++++++++
Date: Fri Oct 25 10:43:49 EDT 2013
User: price-jones
Dark Spectrum Present: No
Reference Spectrum Present: No
Number of Sampled Component Spectra: 1
Spectrometers: USB2+H05261
Integration Time (usec): 100000 (USB2+H05261)
Spectra Averaged: 1 (USB2+H05261)
Boxcar Smoothing: 0 (USB2+H05261)
Correct for Electrical Dark: No (USB2+H05261)
Strobe/Lamp Enabled: No (USB2+H05261)
Correct for Detector Non-linearity: No (USB2+H05261)
Correct for Stray Light: No (USB2+H05261)
Number of Pixels in Processed Spectrum: 2048
>>>>>Begin Processed Spectral Data<<<<<
365.73	91.28
365.92	91.28
366.12	91.28
366.32	18.72
366.52	4.68
366.72	0.00
366.91	0.00
367.11	63.19
367.31	0.00
367.51	51.49
367.70	14.04
367.90	11.70
368.10	0.00
368.30	60.85
368.49	0.00
368.69	65.54
368.89	67.88
369.09	79.58
369.28	100.64
369.48	7.02
369.68	21.06
369.87	124.05
370.07	67.88
370.27	84.26
370.47	147.45
370.66	365.12
370.86	397.89
371.06	416.62
371.25	491.51
371.45	390.87
371.65	402.57
371.84	444.70
372.04	470.45
372.24	407.25
372.44	463.43
372.63	465.77
372.83	517.26
373.03	510.24
373.22	456.40
373.42	571.09
373.62	521.94
373.81	484.49
374.01	543.00
374.21	531.30
374.40	535.98
374.60	585.13
374.79	580.45
374.99	510.24
375.19	615.56
375.38	690.46
375.58	641.31
375.78	585.13
375.97	681.10
376.17	631.94
376.37	660.03
376.56	545.34
376.76	557.05
376.95	688.12
377.15	725.57
377.35	676.41
377.54	648.33
377.74	667.05
377.93	627.26
378.13	760.67
378.33	664.71
378.52	603.86
378.72	655.35
378.91	688.12
379.11	643.65
379.31	662.37
379.50	641.31
379.70	662.37
379.89	674.07
380.09	730.25
380.28	669.39
380.48	683.44
380.68	704.50
380.87	704.50
381.07	716.20
381.26	748.97
381.46	683.44
381.65	681.10
381.85	671.73
382.04	681.10
382.24	720.88
382.43	678.76
382.63	704.50
382.83	709.18
383.02	777.06
383.22	755.99
383.41	702.16
383.61	699.82
383.80	814.51
384.00	753.65
384.19	837.91
384.39	887.06
384.58	741.95
384.78	770.04
384.97	837.91
385.17	791.10
385.36	833.23
385.56	830.89
385.75	800.46
385.95	854.30
386.14	795.78
386.34	755.99
386.53	873.02
386.72	837.91
386.92	870.68
387.11	812.17
387.31	823.87
387.50	875.36
387.70	887.06
387.89	884.72
388.09	924.51
388.28	877.70
388.48	896.43
388.67	950.26
388.86	910.47
389.06	877.70
389.25	931.53
389.45	992.39
389.64	1060.26
389.84	997.07
390.03	968.98
390.22	1057.92
390.42	908.13
390.61	980.68
390.81	992.39
391.00	999.41
391.19	1144.52
391.39	1083.67
391.58	926.85
391.78	1046.22
391.97	1022.81
392.16	1055.58
392.36	1069.62
392.55	1083.67
392.75	983.02
392.94	938.55
393.13	1069.62
393.33	1008.77
393.52	1015.79
393.71	1081.33
393.91	1121.12
394.10	1069.62
394.29	1179.63
394.49	1107.07
394.68	1160.91
394.88	1280.27
395.07	1249.85
395.26	1228.78
395.46	1224.10
395.65	1282.61
395.84	1200.69
396.04	1137.50
396.23	1221.76
396.42	1224.10
396.62	1203.04
396.81	1158.57
397.00	1116.44
397.19	1284.95
397.39	1273.25
397.58	1441.77
397.77	1376.24
397.97	1373.89
398.16	1341.13
398.35	1497.94
398.55	1469.86
398.74	1409.00
398.93	1460.49
399.12	1369.21
399.32	1533.05
399.51	1563.48
399.70	1533.05
399.90	1519.01
400.09	1607.95
400.28	1607.95
400.47	1589.22
400.67	1563.48
400.86	1593.90
401.05	1614.97
401.24	1652.42
401.44	1736.68
401.63	1643.06
401.82	1696.89
402.01	1682.85
402.21	1706.25
402.40	1788.17
402.59	1870.09
402.78	1694.55
402.97	1816.26
403.17	1750.72
403.36	1755.40
403.55	1797.53
403.74	1963.71
403.93	1783.49
404.13	1771.79
404.32	1872.43
404.51	1774.13
404.70	1853.70
404.89	1881.79
405.09	1874.77
405.28	1877.11
405.47	1994.14
405.66	1991.80
405.85	1860.73
406.05	2022.22
406.24	1982.43
406.43	1963.71
406.62	2108.82
406.81	1996.48
407.00	2052.65
407.20	2050.31
407.39	2083.08
407.58	2134.57
407.77	2242.23
407.96	2258.62
408.15	2277.34
408.34	2181.38
408.54	2310.11
408.73	2286.70
408.92	2300.75
409.11	2445.86
409.30	2380.32
409.49	2275.00
409.68	2312.45
409.87	2270.32
410.07	2275.00
410.26	2352.24
410.45	2291.38
410.64	2506.71
410.83	2399.05
411.02	2546.50
411.21	2654.17
411.40	2588.63
411.59	2537.14
411.78	2595.65
411.98	2628.42
412.17	2708.00
412.36	2583.95
412.55	2593.31
412.74	2825.03
412.93	2820.35
413.12	2633.10
413.31	2850.77
413.50	2855.45
413.69	2703.32
413.88	2874.18
414.07	2932.69
414.26	2974.82
414.45	2974.82
414.64	3019.29
414.83	3080.14
415.02	3112.91
415.22	3038.02
415.41	3056.74
415.60	3145.68
415.79	3187.81
415.98	3286.11
416.17	3295.47
416.36	3185.47
416.55	3293.13
416.74	3323.56
416.93	3178.45
417.12	3328.24
417.31	3183.13
417.50	3363.35
417.69	3386.76
417.88	3276.75
418.07	3400.80
418.26	3410.16
418.45	3398.46
418.64	3597.40
418.83	3548.25
419.02	3522.51
419.21	3632.51
419.39	3506.12
419.58	3468.67
419.77	3489.74
419.96	3538.89
420.15	3634.85
420.34	3676.98
420.53	3653.58
420.72	3810.39
420.91	3791.67
421.10	3824.44
421.29	3896.99
421.48	3829.12
421.67	3866.56
421.86	3707.41
422.05	3808.05
422.24	3632.51
422.43	3763.58
422.61	3770.60
422.80	3880.61
422.99	3812.73
423.18	3854.86
423.37	3889.97
423.56	3943.80
423.75	4021.04
423.94	3887.63
424.13	3693.37
424.32	3833.80
424.50	3847.84
424.69	4039.76
424.88	3953.16
425.07	3950.82
425.26	3932.10
425.45	3927.42
425.64	3992.95
425.83	3981.25
426.01	4044.45
426.20	3983.59
426.39	4046.79
426.58	3990.61
426.77	4049.13
426.96	3983.59
427.15	4021.04
427.33	4023.38
427.52	4058.49
427.71	4081.89
427.90	4121.68
428.09	4145.09
428.28	4156.79
428.46	4236.37
428.65	4131.05
428.84	4208.28
429.03	4241.05
429.22	4105.30
429.40	4154.45
429.59	4063.17
429.78	4016.36
429.97	3887.63
430.16	3974.23
430.34	4030.40
430.53	4135.73
430.72	4074.87
430.91	4201.26
431.10	4381.48
431.28	4599.15
431.47	4568.73
431.66	4627.24
431.85	4552.34
432.03	4507.87
432.22	4716.18
432.41	4517.23
432.60	4538.30
432.79	4641.28
432.97	4762.99
433.16	4709.16
433.35	4636.60
433.54	4578.09
433.72	4645.96
433.91	4650.64
434.10	4741.93
434.28	4870.65
434.47	4959.60
434.66	4894.06
434.85	4954.91
435.03	4961.94
435.22	4814.48
435.41	5011.09
435.59	5001.72
435.78	4961.94
435.97	4997.04
436.16	5158.54
436.34	5046.20
436.53	5034.49
436.72	5348.12
436.90	5020.45
437.09	5217.05
437.28	5315.36
437.46	5153.86
437.65	5191.31
437.84	5327.06
438.02	5097.69
438.21	5046.20
438.40	5203.01
438.58	5408.98
438.77	5423.02
438.96	5338.76
439.14	5549.41
439.33	5640.69
439.52	5659.42
439.70	5614.95
439.89	5577.50
440.08	5685.16
440.26	5675.80
440.45	5558.77
440.63	5816.23
440.82	5825.59
441.01	6017.52
441.19	5959.00
441.38	6008.16
441.57	5935.60
441.75	6246.89
441.94	6377.96
442.12	6300.72
442.31	6289.02
442.50	6272.64
442.68	6200.08
442.87	6251.57
443.05	6370.94
443.24	6471.58
443.43	6176.67
443.61	6452.86
443.80	6574.56
443.98	6345.19
444.17	6249.23
444.35	6480.94
444.54	6427.11
444.73	6487.96
444.91	6497.33
445.10	6457.54
445.28	6286.68
445.47	6396.68
445.65	6394.34
445.84	6410.73
446.02	6445.84
446.21	6651.80
446.39	6546.48
446.58	6607.33
446.77	6504.35
446.95	6527.75
447.14	6586.27
447.32	6766.49
447.51	6691.59
447.69	6651.80
447.88	6700.95
448.06	6883.52
448.25	6799.26
448.43	6925.65
448.62	6771.17
448.80	6637.76
448.99	6810.96
449.17	6876.49
449.36	6644.78
449.54	6979.48
449.73	7077.78
449.91	7183.10
450.10	7115.23
450.28	7110.55
450.46	7000.54
450.65	7166.72
450.83	7227.57
451.02	7173.74
451.20	7183.10
451.39	7243.96
451.57	7176.08
451.76	7236.94
451.94	7222.89
452.13	7499.08
452.31	7089.48
452.49	7148.00
452.68	7173.74
452.86	7194.81
453.05	7166.72
453.23	7330.56
453.42	7337.58
453.60	7129.27
453.78	7597.38
453.97	7377.37
454.15	7548.23
454.34	7262.68
454.52	7531.84
454.70	7489.71
454.89	7606.74
455.07	7606.74
455.26	7623.12
455.44	7744.83
455.62	7702.70
455.81	7641.85
455.99	7829.09
456.17	7758.88
456.36	7992.93
456.54	8002.29
456.73	7981.23
456.91	8021.02
457.09	8102.93
457.28	8039.74
457.46	8039.74
457.64	8226.98
457.83	8248.05
458.01	7859.52
458.19	8264.43
458.38	8088.89
458.56	8072.51
458.74	8067.83
458.93	8456.36
459.11	8175.49
459.29	8259.75
459.48	8348.69
459.66	8311.24
459.84	8439.97
460.03	8608.49
460.21	8475.08
460.39	8292.52
460.57	8528.91
460.76	8477.42
460.94	8517.21
461.12	8554.66
461.31	8484.44
461.49	8500.83
461.67	8650.62
461.85	8800.41
462.04	8606.15
462.22	8755.94
462.40	8755.94
462.59	8805.10
462.77	8681.05
462.95	8910.42
463.13	8997.02
463.32	8805.10
463.50	8901.06
463.68	8910.42
463.86	8959.57
464.05	8975.95
464.23	8910.42
464.41	8847.22
464.59	8931.48
464.78	9067.24
464.96	9050.85
465.14	8828.50
465.32	9055.53
465.50	9315.33
465.69	9179.58
465.87	9212.35
466.05	9228.73
466.23	9167.88
466.41	9064.89
466.60	9415.98
466.78	9064.89
466.96	9298.95
467.14	9214.69
467.32	9345.76
467.51	9385.55
467.69	9233.41
467.87	9355.12
468.05	9664.07
468.23	9460.45
468.41	9425.34
468.60	9547.05
468.78	9586.83
468.96	9495.55
469.14	9699.18
469.32	9619.60
469.50	9366.82
469.69	9750.67
469.87	9881.74
470.05	9795.14
470.23	9804.50
470.41	9671.09
470.59	9750.67
470.77	9851.31
470.95	10115.80
471.14	10167.29
471.32	9998.77
471.50	10223.46
471.68	10176.65
471.86	10111.11
472.04	10202.40
472.22	10429.43
472.40	10132.18
472.58	10190.69
472.77	10431.77
472.95	10511.35
473.13	10752.42
473.31	10501.98
473.49	10665.82
473.67	10452.83
473.85	10511.35
474.03	10927.96
474.21	10857.75
474.39	10986.47
474.57	11061.37
474.75	11122.23
474.93	11293.08
475.12	11005.20
475.30	11239.25
475.48	11143.29
475.66	11314.15
475.84	11133.93
476.02	11290.74
476.20	11393.73
476.38	11307.13
476.56	11992.90
476.74	11887.58
476.92	11751.83
477.10	11824.39
477.28	12152.06
477.46	11950.78
477.64	12325.26
477.82	12250.36
478.00	12819.11
478.18	12521.87
478.36	12400.16
478.54	12622.51
478.72	12514.84
478.90	12830.82
479.08	13090.62
479.26	13139.77
479.44	13041.46
479.62	13132.75
479.80	13495.53
479.98	13275.52
480.16	13872.36
480.34	13687.45
480.52	13568.09
480.70	13640.64
480.88	13858.31
481.06	13647.66
481.24	14162.58
481.41	14061.94
481.59	14160.24
481.77	14361.53
481.95	14319.40
482.13	14237.48
482.31	14569.83
482.49	14700.90
482.67	14717.29
482.85	14860.06
483.03	15194.76
483.21	15129.22
483.39	15419.45
483.57	15311.78
483.74	15360.94
483.92	15613.71
484.10	15337.53
484.28	15941.39
484.46	15892.24
484.64	16409.50
484.82	16123.95
485.00	16292.47
485.18	16369.71
485.35	16711.42
485.53	16011.60
485.71	15932.03
485.89	16350.98
486.07	16290.13
486.25	16570.99
486.43	16985.27
486.61	16989.95
486.78	17118.68
486.96	17247.41
487.14	17666.36
487.32	17912.12
487.50	17982.34
487.68	18169.58
487.85	18249.16
488.03	18436.40
488.21	18483.21
488.39	18485.55
488.57	18354.48
488.75	18420.02
488.92	18925.57
489.10	19431.13
489.28	19286.01
489.46	19482.62
489.64	19733.06
489.81	20058.39
489.99	20098.18
490.17	20177.76
490.35	20386.07
490.53	20112.22
490.70	20299.47
490.88	20318.19
491.06	20821.41
491.24	20577.99
491.41	20739.49
491.59	20645.87
491.77	20514.80
491.95	21179.51
492.13	21106.95
492.30	21788.05
492.48	21759.96
492.66	21907.41
492.84	21708.47
493.01	21865.28
493.19	22080.61
493.37	22136.79
493.54	22157.85
493.72	22429.35
493.90	22464.46
494.08	22569.79
494.25	23035.55
494.43	22754.69
494.61	23330.46
494.79	23531.75
494.96	23669.84
495.14	23658.14
495.32	23627.71
495.49	23810.27
495.67	23955.38
495.85	23976.45
496.02	24067.73
496.20	23976.45
496.38	24299.44
496.55	24077.09
496.73	24978.20
496.91	24884.58
497.09	24877.55
497.26	24704.35
497.44	24943.09
497.62	25010.96
497.79	25607.80
497.97	25172.46
498.14	25256.72
498.32	25530.56
498.50	26052.50
498.67	26146.12
498.85	25806.75
499.03	26157.83
499.20	26103.99
499.38	26312.30
499.56	26415.29
499.73	26396.56
499.91	26309.96
500.08	26398.90
500.26	26139.10
500.44	26740.62
500.61	26813.18
500.79	26696.15
500.97	27033.19
501.14	27105.74
501.32	26953.61
501.49	26829.56
501.67	27393.63
501.84	27395.97
502.02	27150.21
502.20	27630.02
502.37	27768.12
502.55	27843.01
502.72	27763.43
502.90	27976.42
503.07	27545.76
503.25	28187.07
503.43	27758.75
503.60	27908.55
503.78	27899.19
503.95	28203.46
504.13	28250.27
504.30	28453.89
504.48	28666.88
504.65	28926.68
504.83	28802.63
505.01	29170.10
505.18	28842.42
505.36	29347.98
505.53	29516.50
505.71	29593.73
505.88	29385.43
506.06	29097.54
506.23	29504.79
506.41	29408.83
506.58	29766.93
506.76	30087.59
506.93	29809.06
507.11	30190.57
507.28	30096.95
507.46	29659.27
507.63	30057.16
507.81	30015.03
507.98	29680.33
508.16	30106.31
508.33	30319.30
508.50	30892.73
508.68	30625.91
508.85	31204.02
509.03	30478.46
509.20	30897.41
509.38	31309.35
509.55	31311.69
509.73	31040.18
509.90	31175.94
510.08	31454.46
510.25	31435.74
510.42	31601.91
510.60	31517.65
510.77	31552.76
510.95	31868.73
511.12	31889.80
511.30	31889.80
511.47	32020.87
511.64	32484.30
511.82	32088.74
511.99	32430.46
512.17	32016.19
512.34	32109.81
512.51	32133.21
512.69	32643.45
512.86	32744.09
513.04	32818.99
513.21	32622.39
513.38	32891.55
513.56	32580.26
513.73	32809.63
513.90	33001.55
514.08	33116.24
514.25	32936.02
514.43	32933.68
514.60	33268.37
514.77	33251.99
514.95	33322.21
515.12	33464.98
515.29	33841.81
515.47	34033.73
515.64	34300.55
515.81	33647.54
515.99	33528.17
516.16	33834.78
516.33	33654.56
516.51	33692.01
516.68	33081.13
516.85	33181.77
517.03	33446.26
517.20	33970.54
517.37	34286.51
517.54	34522.90
517.72	34113.31
517.89	33734.14
518.06	34064.16
518.24	34174.16
518.41	34302.89
518.58	34422.26
518.75	34649.29
518.93	34930.16
519.10	34576.73
519.27	34871.64
519.45	34958.24
519.62	35494.22
519.79	35526.99
519.96	35454.44
520.14	35276.55
520.31	34958.24
520.48	35335.07
520.65	35161.87
520.83	35557.42
521.00	35613.59
521.17	36016.16
521.34	35709.55
521.52	36477.25
521.69	35768.07
521.86	36011.48
522.03	35962.33
522.20	36376.61
522.38	36425.76
522.55	35878.07
522.72	36444.48
522.89	36261.92
523.07	36636.41
523.24	36587.25
523.41	36982.80
523.58	36458.52
523.75	37156.00
523.92	37137.28
524.10	37216.86
524.27	37273.03
524.44	36938.33
524.61	37462.61
524.78	37376.01
524.96	37486.02
525.13	36959.40
525.30	37699.01
525.47	37764.54
525.64	37383.04
525.81	37322.18
525.98	37776.25
526.16	37205.16
526.33	36903.23
526.50	37556.24
526.67	37074.09
526.84	37418.14
527.01	37666.24
527.18	37361.97
527.36	38134.35
527.53	38181.16
527.70	38087.54
527.87	38485.43
528.04	37979.87
528.21	38754.59
528.38	38562.67
528.55	38803.74
528.72	39028.43
528.89	38927.79
529.07	38438.62
529.24	38625.86
529.41	38878.64
529.58	38597.77
529.75	38403.51
529.92	38731.18
530.09	39180.57
530.26	39203.97
530.43	39182.91
530.60	38693.74
530.77	39089.29
530.94	39126.74
531.11	39555.05
531.28	39171.21
531.46	40147.21
531.63	39543.35
531.80	39494.20
531.97	39599.52
532.14	39316.32
532.31	38813.10
532.48	39182.91
532.65	39871.03
532.82	39721.23
532.99	39878.05
533.16	39704.85
533.33	40027.84
533.50	39929.54
533.67	39803.15
533.84	39573.78
534.01	39859.32
534.18	40109.76
534.35	40119.12
534.52	40395.31
534.69	40098.06
534.86	40463.18
535.03	40187.00
535.20	41048.32
535.37	41017.89
535.54	41043.63
535.71	40844.69
535.88	40615.32
536.05	40229.13
536.22	40383.60
536.38	40493.61
536.55	40917.25
536.72	40533.40
536.89	40402.33
537.06	40648.08
537.23	41069.38
537.40	40734.68
537.57	40509.99
537.74	40964.06
537.91	41329.18
538.08	41317.48
538.25	40748.73
538.42	40886.82
538.59	41134.92
538.75	40762.77
538.92	41043.63
539.09	41331.52
539.26	41572.60
539.43	41165.34
539.60	41399.40
539.77	41195.77
539.94	41223.86
540.11	41226.20
540.28	41776.22
540.44	41619.41
540.61	41490.68
540.78	41230.88
540.95	41296.41
541.12	41502.38
541.29	41631.11
541.46	41736.43
541.62	41563.23
541.79	41778.56
541.96	41549.19
542.13	41563.23
542.30	42277.10
542.47	42029.00
542.63	42064.11
542.80	42148.37
542.97	42621.16
543.14	42742.86
543.31	42876.27
543.48	42359.02
543.64	42646.90
543.81	42635.20
543.98	42541.58
544.15	42630.52
544.32	42887.98
544.48	43145.44
544.65	42927.77
544.82	43119.69
544.99	42366.04
545.16	42700.73
545.32	42684.35
545.49	42939.47
545.66	43225.01
545.83	42873.93
546.00	43131.39
546.16	42813.08
546.33	42986.28
546.50	43075.22
546.67	43538.65
546.83	42796.70
547.00	42983.94
547.17	43084.58
547.34	43028.41
547.50	43175.86
547.67	43194.59
547.84	43583.12
548.00	43351.40
548.17	43438.00
548.34	43592.48
548.51	44060.58
548.67	43908.45
548.84	43739.93
549.01	43501.20
549.18	43517.58
549.34	43693.12
549.51	43468.43
549.68	43990.37
549.84	43744.61
550.01	44189.31
550.18	43540.99
550.34	43807.81
550.51	44076.97
550.68	44182.29
550.84	43475.45
551.01	44287.62
551.18	44069.95
551.34	43929.51
551.51	44336.77
551.68	44322.72
551.84	43662.69
552.01	44123.78
552.18	44456.14
552.34	43695.46
552.51	44282.94
552.68	43749.29
552.84	44437.41
553.01	44594.23
553.18	44023.14
553.34	43856.96
553.51	44184.63
553.67	44500.61
553.84	44484.22
554.01	44500.61
554.17	44774.45
554.34	44875.09
554.51	44940.63
554.67	44683.17
554.84	44208.04
555.00	44266.55
555.17	44570.82
555.33	44802.53
555.50	44669.12
555.67	44802.53
555.83	44259.53
556.00	44531.03
556.16	45186.38
556.33	44645.72
556.50	45027.23
556.66	44664.44
556.83	44292.30
556.99	44432.73
557.16	45502.35
557.32	45228.51
557.49	45074.04
557.65	44847.00
557.82	44900.84
557.98	45193.40
558.15	44729.98
558.32	44886.79
558.48	45092.76
558.65	44507.63
558.81	44671.46
558.98	44786.15
559.14	44690.19
559.31	45184.04
559.47	44774.45
559.64	45345.54
559.80	45045.95
559.97	45230.85
560.13	44957.01
560.30	44694.87
560.46	45010.84
560.63	45240.21
560.79	45610.02
560.96	45907.27
561.12	45471.93
561.29	45174.68
561.45	45518.74
561.61	45226.17
561.78	44879.77
561.94	45237.87
562.11	45024.89
562.27	45132.55
562.44	45095.10
562.60	45413.41
562.77	45551.51
562.93	45546.82
563.10	45502.35
563.26	45184.04
563.42	45514.06
563.59	45530.44
563.75	45155.96
563.92	45687.26
564.08	45401.71
564.24	45841.73
564.41	45537.46
564.57	45291.71
564.74	45415.76
564.90	45268.30
565.07	45230.85
565.23	45481.29
565.39	45532.78
565.56	45731.73
565.72	44945.31
565.88	45280.00
566.05	45605.34
566.21	45198.09
566.38	45235.53
566.54	45338.52
566.70	45624.06
566.87	46007.91
567.03	45577.25
567.19	46506.44
567.36	45935.35
567.52	45921.31
567.68	45902.59
567.85	45420.44
568.01	45654.49
568.17	45773.86
568.34	45869.82
568.50	45621.72
568.66	45422.78
568.83	45865.14
568.99	45652.15
569.15	45808.96
569.32	45661.51
569.48	45769.18
569.64	46115.58
569.81	45804.28
569.97	45509.38
570.13	45722.37
570.30	45308.09
570.46	45071.70
570.62	45565.55
570.78	45111.49
570.95	45364.26
571.11	45773.86
571.27	45748.11
571.43	45450.86
571.60	45879.18
571.76	46391.76
571.92	46096.85
572.09	45895.56
572.25	45713.00
572.41	45937.69
572.57	46012.59
572.74	46316.86
572.90	45792.58
573.06	46146.00
573.22	45989.19
573.38	46206.86
573.55	45457.88
573.71	46078.13
573.87	46239.62
574.03	46047.70
574.20	45713.00
574.36	45668.53
574.52	45553.85
574.68	46068.76
574.84	45862.80
575.01	45696.62
575.17	45900.25
575.33	45799.60
575.49	45815.99
575.65	46408.14
575.82	46122.60
575.98	45226.17
576.14	45989.19
576.30	45886.20
576.46	45862.80
576.62	45734.07
576.79	45647.47
576.95	45380.65
577.11	46183.45
577.27	46036.00
577.43	45961.10
577.59	45977.48
577.75	45574.91
577.92	45481.29
578.08	45677.90
578.24	45303.41
578.40	45832.37
578.56	45986.85
578.72	46082.81
578.88	46078.13
579.04	45748.11
579.21	45628.74
579.37	45893.22
579.53	46202.18
579.69	45764.49
579.85	46033.66
580.01	45963.44
580.17	46073.45
580.33	46028.98
580.49	46314.52
580.65	46087.49
580.82	45867.48
580.98	45797.26
581.14	45729.39
581.30	45954.08
581.46	45769.18
581.62	46003.23
581.78	46293.46
581.94	46316.86
582.10	45949.40
582.26	46211.54
582.42	45811.31
582.58	46082.81
582.74	45893.22
582.90	45883.86
583.06	46618.79
583.22	45846.41
583.38	46136.64
583.54	45963.44
583.70	46239.62
583.86	45986.85
584.02	45605.34
584.18	46295.80
584.34	45958.76
584.50	45909.61
584.66	46094.51
584.82	46003.23
584.98	46068.76
585.14	46480.70
585.30	46080.47
585.46	46143.66
585.62	45518.74
585.78	46134.30
585.94	46010.25
586.10	45972.80
586.26	45687.26
586.42	46131.96
586.58	46019.61
586.74	46047.70
586.90	45787.90
587.06	46124.94
587.22	46735.82
587.38	46169.41
587.54	46288.77
587.70	46150.68
587.86	46171.75
588.02	46504.10
588.18	46529.85
588.34	45764.49
588.49	45544.48
588.65	45617.04
588.81	45170.00
588.97	45638.11
589.13	45853.44
589.29	45748.11
589.45	45825.35
589.61	45591.30
589.77	46160.05
589.93	46103.87
590.08	46265.37
590.24	46138.98
590.40	46436.23
590.56	46499.42
590.72	46155.36
590.88	45750.45
591.04	46213.88
591.20	46370.69
591.35	46335.59
591.51	46550.91
591.67	46174.09
591.83	46300.48
591.99	45619.38
592.15	46260.69
592.31	46469.00
592.46	46438.57
592.62	46157.70
592.78	46658.58
592.94	46358.99
593.10	46424.53
593.26	45935.35
593.41	46347.29
593.57	46204.52
593.73	45961.10
593.89	46469.00
594.05	46270.05
594.20	46005.57
594.36	46169.41
594.52	45911.95
594.68	46160.05
594.84	45731.73
594.99	46518.15
595.15	46117.92
595.31	46382.40
595.47	46213.88
595.62	46291.12
595.78	46253.67
595.94	46550.91
596.10	46307.50
596.25	46096.85
596.41	45862.80
596.57	46232.60
596.73	46326.22
596.88	46143.66
597.04	46337.93
597.20	46394.10
597.36	46408.14
597.51	46513.47
597.67	46113.23
597.83	46403.46
597.99	46770.93
598.14	46347.29
598.30	46096.85
598.46	46380.06
598.61	46562.62
598.77	46223.24
598.93	45876.84
599.09	46358.99
599.24	46546.23
599.40	46342.61
599.56	46497.08
599.71	46258.35
599.87	46504.10
600.03	46459.63
600.18	46237.28
600.34	46244.30
600.50	46387.08
600.65	46387.08
600.81	46171.75
600.97	46382.40
601.12	46412.82
601.28	46248.99
601.44	46157.70
601.59	45851.09
601.75	45780.88
601.91	46108.55
602.06	46534.53
602.22	46103.87
602.37	46174.09
602.53	46192.81
602.69	46562.62
602.84	46405.80
603.00	46176.43
603.16	45834.71
603.31	45757.47
603.47	46440.91
603.62	45942.38
603.78	46483.04
603.94	46246.65
604.09	46850.50
604.25	46204.52
604.40	46026.63
604.56	46209.20
604.71	46485.38
604.87	46485.38
605.03	46256.01
605.18	46342.61
605.34	46167.07
605.49	45815.99
605.65	46176.43
605.80	46209.20
605.96	46431.55
606.12	46036.00
606.27	46148.34
606.43	45986.85
606.58	46464.32
606.74	45610.02
606.89	46305.16
607.05	46028.98
607.20	46108.55
607.36	46129.62
607.51	46480.70
607.67	46045.36
607.82	45925.99
607.98	45869.82
608.13	45846.41
608.29	45666.19
608.44	45736.41
608.60	45467.25
608.75	45783.22
608.91	45808.96
609.06	45897.91
609.22	45736.41
609.37	46199.83
609.53	45813.65
609.68	45682.58
609.84	45930.67
609.99	45045.95
610.15	45153.62
610.30	45059.99
610.46	45301.07
610.61	45591.30
610.76	45443.84
610.92	45855.78
611.07	45226.17
611.23	45277.66
611.38	45319.79
611.54	45525.76
611.69	45354.90
611.84	45364.26
612.00	45188.72
612.15	44999.14
612.31	45734.07
612.46	45401.71
612.62	45638.11
612.77	45490.65
612.92	45364.26
613.08	45249.58
613.23	45148.93
613.39	45226.17
613.54	44804.88
613.69	45261.28
613.85	44676.15
614.00	44734.66
614.15	45193.40
614.31	45181.70
614.46	45364.26
614.62	44825.94
614.77	45373.63
614.92	45139.57
615.08	45165.32
615.23	45041.27
615.38	44893.82
615.54	44832.96
615.69	44964.03
615.84	44978.07
616.00	44673.81
616.15	45001.48
616.30	44652.74
616.46	44465.50
616.61	44282.94
616.76	44811.90
616.92	44425.71
617.07	44542.74
617.22	44479.54
617.37	44296.98
617.53	44788.49
617.68	44626.99
617.83	45013.18
617.99	44406.98
618.14	44332.09
618.29	44222.08
618.45	44509.97
618.60	44339.11
618.75	44369.54
618.90	44339.11
619.06	44091.01
619.21	44854.03
619.36	44378.90
619.51	44222.08
619.67	44069.95
619.82	44432.73
619.97	44252.51
620.12	43990.37
620.28	43756.32
620.43	43789.08
620.58	44175.27
620.73	44381.24
620.89	44121.44
621.04	43936.54
621.19	44381.24
621.34	44233.78
621.49	44243.15
621.65	43838.23
621.80	44247.83
621.95	44025.48
622.10	44175.27
622.25	43803.13
622.41	43697.80
622.56	43548.01
622.71	44175.27
622.86	43821.85
623.01	43592.48
623.16	43641.63
623.32	43859.30
623.47	43665.03
623.62	43650.99
623.77	43927.17
623.92	43665.03
624.07	43377.15
624.23	43407.58
624.38	43599.50
624.53	43700.14
624.68	43470.77
624.83	43634.61
624.98	43540.99
625.13	43264.80
625.29	43194.59
625.44	43129.05
625.59	43115.01
625.74	42955.85
625.89	42843.51
626.04	42897.34
626.19	43161.82
626.34	43248.42
626.49	43030.75
626.65	42993.30
626.80	43096.28
626.95	43248.42
627.10	42705.41
627.25	42752.23
627.40	42541.58
627.55	42298.16
627.70	42373.06
627.85	42932.45
628.00	42864.57
628.15	43007.34
628.30	42382.42
628.45	42691.37
628.60	42005.59
628.76	42810.74
628.91	42567.32
629.06	42429.23
629.21	42298.16
629.36	42487.74
629.51	42745.20
629.66	42396.46
629.81	42101.56
629.96	42436.25
630.11	42284.12
630.26	42653.92
630.41	42838.83
630.56	42272.42
630.71	42204.54
630.86	41951.76
631.01	41893.25
631.16	41825.37
631.31	41951.76
631.46	41787.92
631.61	42078.15
631.76	42253.69
631.91	41888.57
632.06	42960.53
632.21	42148.37
632.36	42014.96
632.51	41408.76
632.66	41801.97
632.81	41837.08
632.96	41937.72
633.10	41727.07
633.25	41757.50
633.40	41827.71
633.55	41816.01
633.70	41897.93
633.85	41780.90
634.00	41177.04
634.15	41553.87
634.30	41537.49
634.45	41289.39
634.60	41734.09
634.75	41551.53
634.90	41436.84
635.05	41635.79
635.19	41289.39
635.34	41787.92
635.49	41090.44
635.64	41656.85
635.79	41071.72
635.94	41450.89
636.09	41013.21
636.24	41329.18
636.39	41172.36
636.53	41008.53
636.68	41221.52
636.83	41181.73
636.98	40648.08
637.13	40783.83
637.28	41251.94
637.43	41427.48
637.57	41556.21
637.72	41092.79
637.87	41137.26
638.02	40931.29
638.17	41310.46
638.32	40961.72
638.46	40917.25
638.61	41013.21
638.76	40680.85
638.91	40725.32
639.06	41273.01
639.20	41127.89
639.35	41354.93
639.50	40783.83
639.65	40863.41
639.80	40407.01
639.94	40720.64
640.09	40725.32
640.24	40928.95
640.39	40149.55
640.54	40570.85
640.68	40741.71
640.83	40554.46
640.98	40381.26
641.13	39906.13
641.27	40425.73
641.42	40306.37
641.57	40311.05
641.72	40474.88
641.86	40212.74
642.01	40102.74
642.16	40009.12
642.31	40016.14
642.45	40065.29
642.60	39763.36
642.75	39880.39
642.90	40102.74
643.04	40528.72
643.19	40224.45
643.34	39964.65
643.48	39697.83
643.63	39751.66
643.78	39580.80
643.93	39864.00
644.07	39749.32
644.22	39761.02
644.37	39409.94
644.51	39665.06
644.66	40395.31
644.81	39681.44
644.95	39903.79
645.10	39927.20
645.25	39807.83
645.39	39859.32
645.54	39756.34
645.69	39503.56
645.83	39796.13
645.98	39622.93
646.13	39295.25
646.27	39901.45
646.42	39426.32
646.57	39381.85
646.71	38773.31
646.86	39222.70
647.00	39082.27
647.15	39482.50
647.30	39203.97
647.44	38969.92
647.59	39339.72
647.74	38478.41
647.88	38974.60
648.03	39363.13
648.17	39213.34
648.32	39208.65
648.47	38918.43
648.61	38990.98
648.76	38937.15
648.90	39019.07
649.05	39072.90
649.20	38878.64
649.34	38663.31
649.49	38328.61
649.63	38920.77
649.78	38660.97
649.92	39145.46
650.07	39112.69
650.21	38719.48
650.36	38955.88
650.51	38754.59
650.65	39236.74
650.80	39180.57
650.94	38628.20
651.09	38871.62
651.23	38567.35
651.38	38242.01
651.52	38319.25
651.67	38061.79
651.81	38665.65
651.96	38178.82
652.10	38499.47
652.25	38616.50
652.39	38480.75
652.54	38199.88
652.68	38256.06
652.83	38497.13
652.97	39199.29
653.12	38649.27
653.26	37982.21
653.41	38195.20
653.55	38122.65
653.70	38258.40
653.84	38270.10
653.99	38003.28
654.13	38082.86
654.27	37799.65
654.42	37851.14
654.56	38148.39
654.71	37881.57
654.85	38094.56
655.00	37670.92
655.14	37663.90
655.29	37638.15
655.43	37666.24
655.57	37216.86
655.72	37177.07
655.86	37551.56
656.01	37406.44
656.15	37170.05
656.30	37144.30
656.44	37235.58
656.58	37514.11
656.73	37008.55
656.87	37134.94
657.01	37284.73
657.16	37635.81
657.30	37230.90
657.45	37027.28
657.59	36884.50
657.73	37144.30
657.88	37497.72
658.02	37160.69
658.16	37181.75
658.31	37420.48
658.45	37333.89
658.60	36978.12
658.74	37460.27
658.88	37153.66
659.03	36739.39
659.17	36978.12
659.31	37081.11
659.46	36598.96
659.60	36514.70
659.74	36746.41
659.89	36615.34
660.03	36423.42
660.17	36631.72
660.32	37050.68
660.46	36994.51
660.60	36320.43
660.74	36231.49
660.89	36648.11
661.03	36006.80
661.17	36678.54
661.32	36187.02
661.46	35941.27
661.60	36194.04
661.74	35990.42
661.89	36072.34
662.03	36261.92
662.17	35786.79
662.31	36264.26
662.46	36465.55
662.60	36699.60
662.74	35964.67
662.88	36039.57
663.03	35611.25
663.17	35847.64
663.31	35419.33
663.45	35597.21
663.60	35625.29
663.74	35386.56
663.88	35227.40
664.02	35435.71
664.17	35297.62
664.31	35075.27
664.45	34967.60
664.59	34986.33
664.73	35175.91
664.88	35248.47
665.02	34897.39
665.16	35089.31
665.30	34890.37
665.44	34731.21
665.59	34611.84
665.73	35182.93
665.87	34763.98
666.01	34579.07
666.15	34689.08
666.29	34223.31
666.44	34768.66
666.58	34621.20
666.72	34274.80
666.86	34536.94
667.00	34515.88
667.14	34017.35
667.28	34258.42
667.43	34087.56
667.57	34567.37
667.71	34199.91
667.85	34132.03
667.99	34139.05
668.13	34426.94
668.27	33848.83
668.41	34005.64
668.56	34012.66
668.70	33785.63
668.84	33874.57
668.98	33354.97
669.12	33404.13
669.26	33270.72
669.40	33022.62
669.54	33301.14
669.68	33600.73
669.82	33134.96
669.96	33329.23
670.10	32940.70
670.25	33139.65
670.39	33006.23
670.53	32835.38
670.67	32921.98
670.81	32854.10
670.95	32744.09
671.09	32858.78
671.23	32641.11
671.37	32524.08
671.51	32437.48
671.65	32638.77
671.79	32259.60
671.93	32013.85
672.07	32210.45
672.21	32327.48
672.35	31978.74
672.49	31828.95
672.63	31838.31
672.77	32357.91
672.91	31922.57
673.05	31646.38
673.19	31777.45
673.33	31899.16
673.47	31365.52
673.61	31204.02
673.75	31475.52
673.89	31072.95
674.03	31218.07
674.17	31288.28
674.31	31122.10
674.45	31498.93
674.59	31262.54
674.73	31278.92
674.87	31042.53
675.01	30902.09
675.15	30855.28
675.29	30726.55
675.43	30663.36
675.56	31000.40
675.70	30562.72
675.84	30579.10
675.98	29893.32
676.12	30206.95
676.26	30595.48
676.40	30302.92
676.54	30263.13
676.68	30368.45
676.82	29734.17
676.96	29928.43
677.10	29951.84
677.23	29682.67
677.37	29369.04
677.51	29450.96
677.65	29263.72
677.79	28959.45
677.93	29252.02
678.07	28711.35
678.21	28666.88
678.34	28360.27
678.48	28886.89
678.62	28484.32
678.76	28594.32
678.90	28350.91
679.04	28350.91
679.18	28524.11
679.31	27999.83
679.45	27765.78
679.59	28144.94
679.73	27908.55
679.87	27920.25
680.00	27590.24
680.14	27751.73
680.28	27754.07
680.42	27995.15
680.56	27791.52
680.70	27297.67
680.83	27583.21
680.97	27332.78
681.11	27424.06
681.25	26923.18
681.39	27140.85
681.52	27239.15
681.66	26948.93
681.80	27157.24
681.94	27166.60
682.07	26761.69
682.21	26670.40
682.35	26228.04
682.49	26499.55
682.62	26118.04
682.76	26134.42
682.90	26089.95
683.04	26473.80
683.17	26136.76
683.31	25781.00
683.45	25781.00
683.59	25586.74
683.72	25649.93
683.86	25284.81
684.00	25542.27
684.13	25254.38
684.27	25193.53
684.41	25106.93
684.55	25160.76
684.68	24711.38
684.82	24842.45
684.96	24620.10
685.09	24978.20
685.23	24648.18
685.37	24278.38
685.50	24884.58
685.64	24608.39
685.78	24292.42
685.91	24051.34
686.05	23768.14
686.19	23538.77
686.32	24121.56
686.46	23852.40
686.60	23398.34
686.73	23239.18
686.87	23236.84
687.01	23283.65
687.14	23110.45
687.28	23058.96
687.42	23145.56
687.55	22965.34
687.69	23040.23
687.82	22939.59
687.96	22932.57
688.10	22731.28
688.23	22838.95
688.37	22508.93
688.50	22567.45
688.64	22569.79
688.78	22391.91
688.91	22169.55
689.05	22235.09
689.18	21888.69
689.32	21769.32
689.46	22061.89
689.59	22066.57
689.73	22267.86
689.86	21799.75
690.00	21790.39
690.13	21809.11
690.27	21591.44
690.41	21572.72
690.54	21422.92
690.68	21216.96
690.81	21481.44
690.95	21755.28
691.08	21116.31
691.22	20828.43
691.35	21020.35
691.49	21095.25
691.62	20568.63
691.76	20854.17
691.89	20908.01
692.03	20856.51
692.16	20357.98
692.30	20210.53
692.43	20119.24
692.57	19875.83
692.70	19812.63
692.84	19871.15
692.97	19704.97
693.11	19800.93
693.24	19653.48
693.38	19531.77
693.51	19850.08
693.65	19702.63
693.78	19463.90
693.92	19688.59
694.05	19372.61
694.19	19068.34
694.32	19346.87
694.45	19117.50
694.59	19019.19
694.72	19187.71
694.86	18820.25
694.99	18532.36
695.13	18974.72
695.26	18684.50
695.39	18464.49
695.53	18986.43
695.66	18890.46
695.80	18403.63
695.93	18448.10
696.07	18572.15
696.20	18466.83
696.33	17972.97
696.47	18008.08
696.60	18061.91
696.73	17703.81
696.87	17804.46
697.00	17933.18
697.14	17923.82
697.27	17607.85
697.40	17221.66
697.54	17392.52
697.67	17179.53
697.80	16758.24
697.94	17022.72
698.07	17043.78
698.21	17121.02
698.34	17212.30
698.47	17104.64
698.61	16901.01
698.74	16748.87
698.87	16610.78
699.01	16444.60
699.14	16465.67
699.27	16224.59
699.40	16456.31
699.54	16299.49
699.67	16245.66
699.80	16262.04
699.94	15859.47
700.07	15988.20
700.20	15941.39
700.34	16091.18
700.47	16013.95
700.60	16130.97
700.73	15887.56
700.87	15861.81
701.00	15709.68
701.13	15482.64
701.26	15398.38
701.40	15456.90
701.53	15272.00
701.66	15339.87
701.79	15192.42
701.93	14911.55
702.06	14916.23
702.19	14796.87
702.32	14820.27
702.46	14469.19
702.59	14813.25
702.72	14672.82
702.85	14633.03
702.99	14576.86
703.12	14836.66
703.25	14363.87
703.38	14359.19
703.51	14244.50
703.65	14331.10
703.78	14047.90
703.91	13893.42
704.04	13930.87
704.17	13912.14
704.31	13898.10
704.44	13673.41
704.57	13727.24
704.70	13724.90
704.83	13736.60
704.96	13591.49
705.10	13729.58
705.23	13532.98
>>>>>End Processed Spectral Data<<<<<
