SpectraSuite Data File
++++++++++++++++++++++++++++++++++++
Date: Fri Oct 25 11:33:55 EDT 2013
User: price-jones
Dark Spectrum Present: No
Reference Spectrum Present: No
Number of Sampled Component Spectra: 1
Spectrometers: USB2+H05261
Integration Time (usec): 100000 (USB2+H05261)
Spectra Averaged: 1 (USB2+H05261)
Boxcar Smoothing: 0 (USB2+H05261)
Correct for Electrical Dark: No (USB2+H05261)
Strobe/Lamp Enabled: No (USB2+H05261)
Correct for Detector Non-linearity: No (USB2+H05261)
Correct for Stray Light: No (USB2+H05261)
Number of Pixels in Processed Spectrum: 2048
>>>>>Begin Processed Spectral Data<<<<<
365.73	269.16
365.92	269.16
366.12	269.16
366.32	156.82
366.52	138.09
366.72	217.67
366.91	243.42
367.11	208.31
367.31	163.84
367.51	198.95
367.70	180.22
367.90	173.20
368.10	117.03
368.30	170.86
368.49	149.79
368.69	201.29
368.89	217.67
369.09	205.97
369.28	269.16
369.48	215.33
369.68	215.33
369.87	266.82
370.07	236.39
370.27	259.80
370.47	297.25
370.66	482.15
370.86	477.47
371.06	582.79
371.25	578.11
371.45	592.16
371.65	533.64
371.84	561.73
372.04	521.94
372.24	566.41
372.44	573.43
372.63	603.86
372.83	547.69
373.03	624.92
373.22	664.71
373.42	664.71
373.62	643.65
373.81	615.56
374.01	617.90
374.21	641.31
374.40	660.03
374.60	634.29
374.79	660.03
374.99	634.29
375.19	723.23
375.38	610.88
375.58	697.48
375.78	678.76
375.97	692.80
376.17	695.14
376.37	662.37
376.56	636.63
376.76	653.01
376.95	622.58
377.15	741.95
377.35	704.50
377.54	744.29
377.74	688.12
377.93	671.73
378.13	723.23
378.33	648.33
378.52	734.93
378.72	732.59
378.91	713.86
379.11	674.07
379.31	777.06
379.50	638.97
379.70	835.57
379.89	737.27
380.09	734.93
380.28	746.63
380.48	763.01
380.68	727.91
380.87	727.91
381.07	800.46
381.26	844.93
381.46	781.74
381.65	788.76
381.85	788.76
382.04	784.08
382.24	781.74
382.43	774.72
382.63	828.55
382.83	781.74
383.02	854.30
383.22	821.53
383.41	777.06
383.61	840.25
383.80	812.17
384.00	922.17
384.19	847.27
384.39	784.08
384.58	748.97
384.78	905.79
384.97	903.45
385.17	798.12
385.36	844.93
385.56	814.51
385.75	837.91
385.95	875.36
386.14	917.49
386.34	819.19
386.53	814.51
386.72	823.87
386.92	894.08
387.11	816.85
387.31	854.30
387.50	774.72
387.70	903.45
387.89	880.04
388.09	833.23
388.28	873.02
388.48	896.43
388.67	842.59
388.86	952.60
389.06	922.17
389.25	964.30
389.45	842.59
389.64	954.94
389.84	957.28
390.03	992.39
390.22	1039.20
390.42	968.98
390.61	945.58
390.81	997.07
391.00	889.40
391.19	952.60
391.39	1034.52
391.58	1001.75
391.78	992.39
391.97	1032.18
392.16	1048.56
392.36	1013.45
392.55	1090.69
392.75	1043.88
392.94	1020.47
393.13	992.39
393.33	1041.54
393.52	997.07
393.71	1156.22
393.91	1118.78
394.10	1088.35
394.29	1083.67
394.49	1053.24
394.68	1097.71
394.88	1156.22
395.07	1125.80
395.26	1095.37
395.46	1252.19
395.65	1153.88
395.84	1196.01
396.04	1245.16
396.23	1233.46
396.42	1254.53
396.62	1196.01
396.81	1226.44
397.00	1186.65
397.19	1317.72
397.39	1256.87
397.58	1228.78
397.77	1210.06
397.97	1235.80
398.16	1273.25
398.35	1336.45
398.55	1233.46
398.74	1231.12
398.93	1348.15
399.12	1299.00
399.32	1303.68
399.51	1289.64
399.70	1378.58
399.90	1315.38
400.09	1366.87
400.28	1401.98
400.47	1394.96
400.67	1444.11
400.86	1486.24
401.05	1409.00
401.24	1399.64
401.44	1516.67
401.63	1432.41
401.82	1409.00
402.01	1404.32
402.21	1462.83
402.40	1448.79
402.59	1542.41
402.78	1509.65
402.97	1542.41
403.17	1509.65
403.36	1570.50
403.55	1502.62
403.74	1614.97
403.93	1558.80
404.13	1682.85
404.32	1575.18
404.51	1621.99
404.70	1626.67
404.89	1593.90
405.09	1694.55
405.28	1703.91
405.47	1687.53
405.66	1652.42
405.85	1629.01
406.05	1645.40
406.24	1762.42
406.43	1778.81
406.62	1748.38
406.81	1818.60
407.00	1790.51
407.20	1675.82
407.39	1739.02
407.58	1823.28
407.77	1839.66
407.96	1839.66
408.15	1818.60
408.34	1853.70
408.54	1872.43
408.73	1853.70
408.92	1900.52
409.11	1998.82
409.30	1961.37
409.49	1963.71
409.68	1991.80
409.87	2017.54
410.07	2038.61
410.26	2076.06
410.45	2012.86
410.64	2080.74
410.83	1935.62
411.02	2125.21
411.21	2050.31
411.40	2232.87
411.59	2120.53
411.78	2150.95
411.98	2150.95
412.17	2237.55
412.36	2242.23
412.55	2377.98
412.74	2363.94
412.93	2286.70
413.12	2403.73
413.31	2459.90
413.50	2340.54
413.69	2298.41
413.88	2457.56
414.07	2506.71
414.26	2434.16
414.45	2438.84
414.64	2506.71
414.83	2630.76
415.02	2539.48
415.22	2628.42
415.41	2558.21
415.60	2656.51
415.79	2719.70
415.98	2715.02
416.17	2623.74
416.36	2700.98
416.55	2729.06
416.74	2832.05
416.93	2754.81
417.12	2867.16
417.31	2731.41
417.50	2747.79
417.69	3007.59
417.88	2928.01
418.07	2906.95
418.26	2911.63
418.45	2871.84
418.64	3033.33
418.83	3052.06
419.02	3005.25
419.21	3119.93
419.39	3084.83
419.58	3021.63
419.77	3117.59
419.96	3115.25
420.15	3337.60
420.34	3236.96
420.53	3133.98
420.72	3274.41
420.91	3208.87
421.10	3274.41
421.29	3302.50
421.48	3318.88
421.67	3239.30
421.86	3410.16
422.05	3330.58
422.24	3358.67
422.43	3220.58
422.61	3461.65
422.80	3473.36
422.99	3543.57
423.18	3494.42
423.37	3435.91
423.56	3363.35
423.75	3419.52
423.94	3302.50
424.13	3192.49
424.32	3295.47
424.50	3311.86
424.69	3438.25
424.88	3499.10
425.07	3524.85
425.26	3272.07
425.45	3243.98
425.64	3391.44
425.83	3433.57
426.01	3485.06
426.20	3482.72
426.39	3442.93
426.58	3412.50
426.77	3592.72
426.96	3442.93
427.15	3562.30
427.33	3595.06
427.52	3538.89
427.71	3653.58
427.90	3552.93
428.09	3679.32
428.28	3684.00
428.46	3716.77
428.65	3805.71
428.84	3843.16
429.03	3859.54
429.22	3700.39
429.40	3817.41
429.59	3728.47
429.78	3616.13
429.97	3576.34
430.16	3695.71
430.34	3779.97
430.53	3758.90
430.72	4063.17
430.91	3777.62
431.10	3836.14
431.28	3999.98
431.47	3808.05
431.66	4028.06
431.85	3953.16
432.03	4051.47
432.22	4072.53
432.41	4098.28
432.60	3950.82
432.79	4016.36
432.97	4074.87
433.16	4215.30
433.35	4049.13
433.54	4177.86
433.72	4280.84
433.91	4198.92
434.10	4276.16
434.28	4166.15
434.47	4315.95
434.66	4346.37
434.85	4367.44
435.03	4414.25
435.22	4285.52
435.41	4428.29
435.59	4334.67
435.78	4348.72
435.97	4428.29
436.16	4395.53
436.34	4301.90
436.53	4418.93
436.72	4505.53
436.90	4320.63
437.09	4521.92
437.28	4437.66
437.46	4404.89
437.65	4566.39
437.84	4575.75
438.02	4550.00
438.21	4512.55
438.40	4652.98
438.58	4699.80
438.77	4741.93
438.96	4662.35
439.14	4720.86
439.33	4915.12
439.52	4873.00
439.70	4873.00
439.89	4961.94
440.08	4919.81
440.26	4924.49
440.45	4891.72
440.63	4983.00
440.82	5188.97
441.01	5146.84
441.19	5064.92
441.38	5179.61
441.57	5245.14
441.75	5184.29
441.94	5357.49
442.12	5303.65
442.31	5423.02
442.50	5530.69
442.68	5376.21
442.87	5364.51
443.05	5378.55
443.24	5636.01
443.43	5717.93
443.61	5612.60
443.80	5788.14
443.98	5345.78
444.17	5331.74
444.35	5544.73
444.54	5628.99
444.73	5621.97
444.91	5547.07
445.10	5589.20
445.28	5678.14
445.47	5483.88
445.65	5591.54
445.84	5741.33
446.02	5731.97
446.21	5680.48
446.39	5600.90
446.58	5633.67
446.77	5605.58
446.95	5518.98
447.14	5748.36
447.32	5919.21
447.51	5514.30
447.69	5533.03
447.88	5865.38
448.06	5696.86
448.25	5689.84
448.43	5916.87
448.62	5757.72
448.80	5785.80
448.99	6012.84
449.17	5846.66
449.36	5799.85
449.54	6024.54
449.73	5968.37
449.91	6139.23
450.10	6010.50
450.28	5982.41
450.46	6019.86
450.65	6106.46
450.83	6209.44
451.02	6054.97
451.20	6235.19
451.39	6087.73
451.57	6305.40
451.76	6167.31
451.94	6237.53
452.13	6377.96
452.31	6333.49
452.49	6202.42
452.68	6300.72
452.86	6279.66
453.05	6253.91
453.23	6403.71
453.42	6136.88
453.60	6289.02
453.78	6534.78
453.97	6300.72
454.15	6401.37
454.34	6384.98
454.52	6368.60
454.70	6516.05
454.89	6471.58
455.07	6490.31
455.26	6647.12
455.44	6668.19
455.62	6502.01
455.81	6553.50
455.99	6707.98
456.17	6623.72
456.36	6792.23
456.54	6911.60
456.73	6867.13
456.91	6993.52
457.09	6988.84
457.28	6977.14
457.46	6853.09
457.64	6895.22
457.83	7194.81
458.01	7059.06
458.19	7162.04
458.38	7019.27
458.56	7220.55
458.74	7108.21
458.93	7239.28
459.11	7108.21
459.29	7307.15
459.48	7283.75
459.66	7220.55
459.84	7215.87
460.03	7342.26
460.21	7211.19
460.39	7293.11
460.57	7332.90
460.76	7353.96
460.94	7253.32
461.12	7353.96
461.31	7431.20
461.49	7576.31
461.67	7564.61
461.85	7651.21
462.04	7609.08
462.22	7922.71
462.40	7772.92
462.59	7763.56
462.77	7592.70
462.95	7681.64
463.13	7702.70
463.32	7793.98
463.50	7824.41
463.68	7847.82
463.86	7969.52
464.05	7721.43
464.23	7840.79
464.41	8011.65
464.59	7861.86
464.78	8168.47
464.96	7983.57
465.14	7808.03
465.32	7915.69
465.50	7967.18
465.69	8035.06
465.87	8231.66
466.05	8081.87
466.23	7899.31
466.41	7946.12
466.60	8290.18
466.78	8002.29
466.96	8161.45
467.14	8006.97
467.32	8234.00
467.51	8322.94
467.69	8081.87
467.87	8505.51
468.05	8587.43
468.23	8414.23
468.41	8430.61
468.60	8236.35
468.78	8503.17
468.96	8325.29
469.14	8489.12
469.32	8697.43
469.50	8273.79
469.69	8606.15
469.87	8786.37
470.05	8739.56
470.23	8702.11
470.41	8617.85
470.59	8744.24
470.77	8683.39
470.95	8917.44
471.14	8786.37
471.32	8781.69
471.50	8858.93
471.68	9018.08
471.86	9100.00
472.04	9107.02
472.22	9355.12
472.40	9184.26
472.58	9305.97
472.77	9341.08
472.95	9294.27
473.13	9509.60
473.31	9200.65
473.49	9387.89
473.67	9334.06
473.85	9511.94
474.03	9724.93
474.21	9626.62
474.39	9755.35
474.57	9764.72
474.75	9792.80
474.93	9753.01
475.12	9848.97
475.30	9841.95
475.48	10040.90
475.66	9905.15
475.84	10001.11
476.02	10160.27
476.20	10296.02
476.38	10431.77
476.56	10391.98
476.74	10413.04
476.92	10560.50
477.10	10209.42
477.28	10710.29
477.46	10553.48
477.64	10731.36
477.82	10775.83
478.00	11157.33
478.18	10871.79
478.36	11073.07
478.54	11300.11
478.72	11335.21
478.90	11485.01
479.08	11250.96
479.26	11604.38
479.44	11648.85
479.62	11712.04
479.80	11850.13
479.98	11747.15
480.16	12093.55
480.34	12018.65
480.52	12264.41
480.70	12072.48
480.88	12067.80
481.06	12203.55
481.24	12255.04
481.41	12519.53
481.59	12610.81
481.77	12821.45
481.95	12784.01
482.13	12732.51
482.31	12772.30
482.49	13319.99
482.67	13095.30
482.85	13408.93
483.03	13561.06
483.21	13635.96
483.39	13865.33
483.57	13635.96
483.74	13942.57
483.92	13659.37
484.10	13902.78
484.28	14422.38
484.46	14417.70
484.64	14740.69
484.82	14436.42
485.00	14607.28
485.18	15016.88
485.35	15288.38
485.53	14885.81
485.71	14888.15
485.89	15208.80
486.07	15253.27
486.25	15428.81
486.43	15260.29
486.61	15632.44
486.78	15611.37
486.96	15822.02
487.14	15925.00
487.32	15941.39
487.50	16369.71
487.68	16252.68
487.85	16538.23
488.03	16727.81
488.21	16802.71
488.39	16842.50
488.57	17132.72
488.75	17200.60
488.92	17142.08
489.10	17137.40
489.28	17334.01
489.46	17535.29
489.64	17539.97
489.81	17937.87
489.99	18099.36
490.17	18087.66
490.35	18073.62
490.53	18150.85
490.70	18583.85
490.88	18361.50
491.06	18838.97
491.24	18651.73
491.41	18712.58
491.59	18953.66
491.77	18902.17
491.95	19091.75
492.13	19660.50
492.30	19482.62
492.48	19506.02
492.66	19599.65
492.84	19690.93
493.01	20360.32
493.19	20137.97
493.37	20156.69
493.54	20231.59
493.72	20702.04
493.90	20634.16
494.08	20678.63
494.25	20762.89
494.43	20788.64
494.61	21142.06
494.79	21268.45
494.96	20975.88
495.14	21399.52
495.32	21486.12
495.49	21488.46
495.67	21813.79
495.85	21827.84
496.02	21666.34
496.20	22104.02
496.38	22272.54
496.55	22218.71
496.73	22824.90
496.91	22607.23
497.09	22679.79
497.26	22717.24
497.44	22717.24
497.62	22852.99
497.79	23147.90
497.97	22927.89
498.14	23332.80
498.32	23693.24
498.50	23592.60
498.67	23885.17
498.85	23463.87
499.03	23812.61
499.20	23859.42
499.38	23992.83
499.56	24121.56
499.73	24311.14
499.91	24451.58
500.08	24435.19
500.26	24245.61
500.44	24734.78
500.61	24917.34
500.79	24816.70
500.97	24919.68
501.14	25165.44
501.32	25090.54
501.49	24896.28
501.67	25247.36
501.84	25352.68
502.02	25221.61
502.20	25443.96
502.37	25420.56
502.55	25811.43
502.72	25443.96
502.90	25968.24
503.07	25479.07
503.25	25802.07
503.43	26096.97
503.60	26354.43
503.78	26373.16
503.95	26192.94
504.13	26106.34
504.30	26668.06
504.48	26307.62
504.65	26682.11
504.83	26712.53
505.01	26904.46
505.18	26803.82
505.36	27159.58
505.53	27412.35
505.71	27220.43
505.88	27108.08
506.06	27091.70
506.23	27410.01
506.41	27173.62
506.58	28051.32
506.76	27555.13
506.93	27779.82
507.11	27669.81
507.28	27796.20
507.46	27648.75
507.63	27850.03
507.81	28276.01
507.98	28306.44
508.16	28098.13
508.33	28297.08
508.50	28451.55
508.68	28620.07
508.85	28758.16
509.03	28451.55
509.20	28599.01
509.38	29240.31
509.55	29191.16
509.73	29120.95
509.90	29289.46
510.08	29130.31
510.25	29507.13
510.42	29305.85
510.60	29638.20
510.77	29539.90
510.95	30089.93
511.12	29846.51
511.30	29617.14
511.47	29982.26
511.64	29722.46
511.82	29968.22
511.99	29792.68
512.17	30331.00
512.34	30045.46
512.51	30703.15
512.69	30450.37
512.86	30604.84
513.04	30841.24
513.21	30326.32
513.38	30995.71
513.56	30941.88
513.73	30806.13
513.90	31201.68
514.08	30808.47
514.25	30946.56
514.43	31597.23
514.60	31742.35
514.77	31056.57
514.95	31302.32
515.12	31276.58
515.29	31529.36
515.47	31641.70
515.64	31594.89
515.81	31512.97
515.99	32116.83
516.16	32259.60
516.33	31828.95
516.51	32266.63
516.68	31938.95
516.85	32175.34
517.03	32788.56
517.20	32657.49
517.37	32538.13
517.54	32313.44
517.72	32638.77
517.89	32711.33
518.06	32591.96
518.24	32664.52
518.41	32474.93
518.58	32437.48
518.75	32865.80
518.93	32931.34
519.10	33064.75
519.27	33500.09
519.45	33186.46
519.62	33668.61
519.79	33390.08
519.96	33752.87
520.14	33689.67
520.31	33394.76
520.48	33825.42
520.65	33574.98
520.83	34213.95
521.00	34052.45
521.17	34099.26
521.34	34157.78
521.52	34239.70
521.69	34279.49
521.86	34511.20
522.03	34782.70
522.20	34904.41
522.38	34939.52
522.55	34969.94
522.72	34705.46
522.89	34852.92
523.07	35344.43
523.24	35136.12
523.41	34979.31
523.58	34972.28
523.75	35398.26
523.92	35351.45
524.10	35243.79
524.27	35089.31
524.44	35426.35
524.61	35674.45
524.78	35751.68
524.96	35845.30
525.13	36016.16
525.30	36130.85
525.47	36098.08
525.64	35786.79
525.81	36098.08
525.98	36407.03
526.16	36266.60
526.33	35739.98
526.50	36605.98
526.67	36259.58
526.84	36297.03
527.01	36266.60
527.18	36748.75
527.36	36219.79
527.53	36697.26
527.70	36865.78
527.87	37226.22
528.04	36828.33
528.21	36725.35
528.38	36692.58
528.55	37055.36
528.72	37174.73
528.89	36884.50
529.07	37069.40
529.24	36931.31
529.41	37380.70
529.58	37132.60
529.75	36748.75
529.92	37247.29
530.09	37261.33
530.26	37474.32
530.43	37514.11
530.60	37261.33
530.77	37237.92
530.94	37581.98
531.11	37743.48
531.28	37565.60
531.46	37446.23
531.63	38230.31
531.80	37640.50
531.97	38433.94
532.14	38080.52
532.31	38012.64
532.48	38195.20
532.65	38314.57
532.82	38211.59
532.99	38492.45
533.16	38387.13
533.33	38543.94
533.50	38536.92
533.67	38513.52
533.84	38316.91
534.01	38834.17
534.18	38895.02
534.35	38981.62
534.52	38986.30
534.69	39658.04
534.86	39023.75
535.03	38492.45
535.20	39068.22
535.37	39344.41
535.54	39281.21
535.71	39014.39
535.88	39419.30
536.05	39447.39
536.22	39370.15
536.38	39725.91
536.55	39108.01
536.72	39880.39
536.89	39447.39
537.06	39878.05
537.23	40086.36
537.40	39641.65
537.57	39842.94
537.74	39716.55
537.91	39803.15
538.08	39688.46
538.25	39639.31
538.42	39971.67
538.59	40327.43
538.75	39386.54
538.92	40224.45
539.09	39992.73
539.26	40587.23
539.43	40545.10
539.60	40243.17
539.77	40409.35
539.94	40605.95
540.11	40311.05
540.28	40676.17
540.44	40477.22
540.61	40641.06
540.78	40369.56
540.95	40570.85
541.12	40767.45
541.29	40687.87
541.46	41125.55
541.62	40692.55
541.79	41214.49
541.96	40385.94
542.13	40840.01
542.30	40783.83
542.47	41132.57
542.63	41029.59
542.80	41322.16
542.97	41598.34
543.14	42017.30
543.31	41642.81
543.48	41816.01
543.64	42366.04
543.81	41698.98
543.98	41558.55
544.15	41532.81
544.32	41748.14
544.48	42288.80
544.65	41816.01
544.82	42211.56
544.99	42129.64
545.16	41996.23
545.32	41816.01
545.49	42391.78
545.66	42000.91
545.83	42003.25
546.00	42014.96
546.16	42483.06
546.33	42120.28
546.50	42424.55
546.67	42494.77
546.83	41633.45
547.00	42433.91
547.17	42328.59
547.34	42405.83
547.50	42632.86
547.67	42738.18
547.84	42529.87
548.00	43093.94
548.17	43267.14
548.34	42976.92
548.51	42857.55
548.67	42883.30
548.84	42808.40
549.01	43196.93
549.18	43079.90
549.34	43016.71
549.51	43178.20
549.68	43026.07
549.84	43215.65
550.01	43407.58
550.18	43365.45
550.34	43253.10
550.51	43573.75
550.68	43246.08
550.84	43288.21
551.01	43494.18
551.18	43683.76
551.34	43512.90
551.51	43138.41
551.68	43641.63
551.84	43606.52
552.01	43548.01
552.18	43971.64
552.34	43524.60
552.51	43278.85
552.68	43819.51
552.84	43786.74
553.01	44229.10
553.18	44194.00
553.34	44121.44
553.51	43491.83
553.67	43761.00
553.84	43948.24
554.01	44013.77
554.17	43679.08
554.34	43988.03
554.51	44156.55
554.67	44561.46
554.84	44486.56
555.00	44577.84
555.17	44339.11
555.33	44205.70
555.50	44196.34
555.67	44004.41
555.83	44378.90
556.00	44385.92
556.16	44809.56
556.33	44484.22
556.50	44404.64
556.66	44402.30
556.83	44453.79
556.99	44769.77
557.16	44931.26
557.32	44835.30
557.49	44825.94
557.65	44711.25
557.82	44154.21
557.98	44781.47
558.15	44933.60
558.32	44748.70
558.48	44591.89
558.65	44727.64
558.81	45050.63
558.98	44910.20
559.14	45076.38
559.31	45308.09
559.47	45186.38
559.64	45340.86
559.80	45118.51
559.97	45607.68
560.13	44879.77
560.30	45261.28
560.46	45415.76
560.63	45502.35
560.79	45717.68
560.96	45446.18
561.12	45298.73
561.29	45125.53
561.45	45605.34
561.61	45633.42
561.78	45354.90
561.94	44971.05
562.11	45240.21
562.27	45537.46
562.44	45326.81
562.60	45612.36
562.77	45485.97
562.93	45429.80
563.10	45722.37
563.26	45127.87
563.42	46019.61
563.59	45961.10
563.75	45371.28
563.92	45722.37
564.08	45663.85
564.24	45603.00
564.41	46312.18
564.57	45869.82
564.74	45666.19
564.90	45792.58
565.07	45591.30
565.23	45762.15
565.39	45748.11
565.56	45893.22
565.72	45694.28
565.88	46103.87
566.05	46038.34
566.21	45841.73
566.38	45654.49
566.54	46148.34
566.70	46024.29
566.87	45909.61
567.03	45923.65
567.19	46143.66
567.36	46277.07
567.52	46085.15
567.68	46813.05
567.85	46064.08
568.01	46403.46
568.17	45380.65
568.34	46134.30
568.50	46176.43
568.66	46155.36
568.83	46197.49
568.99	46227.92
569.15	46019.61
569.32	46218.56
569.48	46007.91
569.64	46719.43
569.81	46115.58
569.97	46312.18
570.13	46330.90
570.30	45715.34
570.46	46351.97
570.62	46419.84
570.78	46108.55
570.95	46354.31
571.11	46712.41
571.27	46003.23
571.43	46597.73
571.60	46469.00
571.76	46567.30
571.92	46073.45
572.09	46326.22
572.25	46761.56
572.41	46429.21
572.57	46277.07
572.74	46871.57
572.90	46419.84
573.06	46681.98
573.22	46389.42
573.38	46674.96
573.55	47271.80
573.71	47009.66
573.87	46696.03
574.03	46583.68
574.20	46979.23
574.36	46934.76
574.52	46691.35
574.68	46658.58
574.84	46848.16
575.01	46852.84
575.17	46639.86
575.33	46885.61
575.49	46604.75
575.65	46850.50
575.82	46944.12
575.98	46579.00
576.14	46806.03
576.30	46927.74
576.46	46815.40
576.62	46553.26
576.79	46951.15
576.95	46171.75
577.11	46307.50
577.27	46541.55
577.43	46600.07
577.59	46852.84
577.75	46546.23
577.92	46686.67
578.08	47201.58
578.24	47068.17
578.40	46939.44
578.56	46646.88
578.72	46656.24
578.88	46899.65
579.04	46902.00
579.21	46967.53
579.37	46941.78
579.53	46983.91
579.69	46733.48
579.85	46941.78
580.01	46628.15
580.17	46642.20
580.33	47096.26
580.49	47112.64
580.65	46571.98
580.82	46806.03
580.98	46859.87
581.14	46796.67
581.30	46784.97
581.46	46845.82
581.62	46328.56
581.78	46873.91
581.94	47124.35
582.10	47196.90
582.26	46990.94
582.42	47250.74
582.58	46808.37
582.74	47110.30
582.90	46958.17
583.06	47344.36
583.22	47004.98
583.38	47288.18
583.54	46920.72
583.70	47040.09
583.86	46909.02
584.02	46621.13
584.18	47278.82
584.34	47445.00
584.50	47239.03
584.66	46845.82
584.82	47112.64
584.98	47262.44
585.14	46754.54
585.30	46862.21
585.46	47091.58
585.62	46944.12
585.78	46887.95
585.94	46883.27
586.10	47203.92
586.26	46806.03
586.42	46679.64
586.58	47419.25
586.74	47107.96
586.90	47334.99
587.06	46937.10
587.22	47194.56
587.38	46590.70
587.54	47295.21
587.70	47562.03
587.86	47442.66
588.02	46969.87
588.18	46990.94
588.34	46983.91
588.49	47129.03
588.65	47098.60
588.81	47189.88
588.97	47267.12
589.13	47384.15
589.29	47449.68
589.45	47367.76
589.61	47316.27
589.77	47332.65
589.93	47257.76
590.08	47192.22
590.24	47353.72
590.40	47856.93
590.56	47580.75
590.72	47512.88
590.88	47576.07
591.04	47517.56
591.20	47540.96
591.35	47208.61
591.51	47709.48
591.67	47236.69
591.83	47737.57
591.99	47971.62
592.15	47590.11
592.31	47409.89
592.46	47325.63
592.62	47784.38
592.78	47971.62
592.94	47861.61
593.10	48027.79
593.26	48170.57
593.41	47543.30
593.57	47714.16
593.73	47819.49
593.89	48137.80
594.05	47709.48
594.20	47915.45
594.36	47845.23
594.52	47782.04
594.68	47735.23
594.84	47643.94
594.99	48231.42
595.15	48034.81
595.31	48039.50
595.47	47543.30
595.62	48002.05
595.78	47576.07
595.94	47980.98
596.10	47934.17
596.25	47995.03
596.41	48123.75
596.57	48048.86
596.73	47833.53
596.88	47683.73
597.04	48062.90
597.20	47569.05
597.36	47789.06
597.51	47559.69
597.67	48217.38
597.83	47391.17
597.99	47789.06
598.14	48081.63
598.30	47835.87
598.46	47646.29
598.61	48041.84
598.77	47569.05
598.93	47634.58
599.09	47882.68
599.24	48083.97
599.40	47959.92
599.56	48020.77
599.71	48116.73
599.87	48252.48
600.03	48306.32
600.18	48303.98
600.34	47828.85
600.50	48041.84
600.65	48002.05
600.81	48685.48
600.97	48315.68
601.12	48575.48
601.28	48072.26
601.44	47812.46
601.59	48179.93
601.75	47973.96
601.91	48177.59
602.06	47985.66
602.22	47936.51
602.37	47978.64
602.53	48231.42
602.69	48189.29
602.84	48137.80
603.00	47894.38
603.16	47709.48
603.31	48264.19
603.47	48182.27
603.62	47952.90
603.78	48144.82
603.94	47887.36
604.09	47955.24
604.25	47985.66
604.40	47779.70
604.56	47866.30
604.71	48149.50
604.87	47580.75
605.03	47910.77
605.18	47744.59
605.34	47978.64
605.49	47831.19
605.65	47791.40
605.80	47941.19
605.96	47892.04
606.12	48292.27
606.27	48123.75
606.43	47903.74
606.58	47751.61
606.74	47662.67
606.89	47775.02
607.05	47934.17
607.20	48114.39
607.36	47878.00
607.51	47903.74
607.67	47627.56
607.82	47599.47
607.98	47695.44
608.13	47681.39
608.29	47973.96
608.44	47875.66
608.60	47515.22
608.75	48025.45
608.91	47835.87
609.06	47524.58
609.22	47861.61
609.37	47735.23
609.53	47625.22
609.68	47824.17
609.84	47512.88
609.99	47547.98
610.15	48041.84
610.30	47566.71
610.46	47782.04
610.61	47585.43
610.76	47817.14
610.92	47409.89
611.07	47543.30
611.23	47323.29
611.38	47430.96
611.54	47487.13
611.69	47756.29
611.84	47672.03
612.00	47838.21
612.15	47332.65
612.31	47466.06
612.46	47276.48
612.62	47386.49
612.77	47388.83
612.92	47641.60
613.08	47693.10
613.23	47487.13
613.39	47297.55
613.54	46902.00
613.69	47398.19
613.85	47430.96
614.00	47878.00
614.15	47665.01
614.31	47288.18
614.46	46988.60
614.62	46681.98
614.77	47260.10
614.92	47388.83
615.08	47168.82
615.23	47501.17
615.38	47480.11
615.54	46930.08
615.69	47517.56
615.84	47248.39
616.00	47555.00
616.15	47119.66
616.30	46855.18
616.46	46637.51
616.61	47267.12
616.76	47147.75
616.92	47138.39
617.07	47243.71
617.22	47093.92
617.37	46859.87
617.53	46993.28
617.68	47264.78
617.83	46653.90
617.99	47276.48
618.14	47187.54
618.29	46429.21
618.45	46593.04
618.60	47089.24
618.75	46632.83
618.90	46518.15
619.06	46965.19
619.21	46841.14
619.36	46902.00
619.51	46323.88
619.67	46354.31
619.82	46719.43
619.97	46808.37
620.12	46904.34
620.28	46534.53
620.43	46637.51
620.58	47147.75
620.73	47056.47
620.89	46670.28
621.04	46740.50
621.19	46344.95
621.34	46433.89
621.49	46691.35
621.65	46834.12
621.80	46574.32
621.95	46433.89
622.10	46756.88
622.25	46651.56
622.41	46106.21
622.56	46480.70
622.71	46618.79
622.86	46436.23
623.01	46518.15
623.16	46560.28
623.32	46347.29
623.47	46344.95
623.62	46284.09
623.77	46457.29
623.92	46227.92
624.07	45961.10
624.23	46291.12
624.38	46204.52
624.53	46405.80
624.68	46078.13
624.83	46054.72
624.98	46129.62
625.13	45572.57
625.29	45521.08
625.44	45869.82
625.59	45865.14
625.74	46153.02
625.89	45855.78
626.04	45588.95
626.19	45792.58
626.34	45633.42
626.49	45570.23
626.65	45230.85
626.80	45935.35
626.95	45298.73
627.10	45425.12
627.25	45743.43
627.40	45591.30
627.55	45610.02
627.70	45310.43
627.85	45984.51
628.00	45886.20
628.15	45434.48
628.30	45123.19
628.45	45097.44
628.60	44699.55
628.76	45092.76
628.91	45289.37
629.06	44783.81
629.21	45317.45
629.36	44893.82
629.51	45385.33
629.66	45518.74
629.81	45415.76
629.96	45427.46
630.11	45357.24
630.26	44978.07
630.41	45366.60
630.56	44842.32
630.71	45326.81
630.86	45216.81
631.01	44662.10
631.16	44692.53
631.31	45125.53
631.46	44624.65
631.61	45338.52
631.76	44755.72
631.91	44769.77
632.06	45134.89
632.21	45265.96
632.36	45132.55
632.51	44296.98
632.66	45083.40
632.81	44409.32
632.96	44772.11
633.10	44369.54
633.25	44720.62
633.40	44924.24
633.55	44889.13
633.70	44807.22
633.85	44442.09
634.00	44577.84
634.15	44151.87
634.30	44116.76
634.45	44243.15
634.60	44617.63
634.75	44608.27
634.90	44369.54
635.05	44638.70
635.19	44154.21
635.34	44414.01
635.49	44669.12
635.64	44418.69
635.79	44580.18
635.94	44886.79
636.09	44341.45
636.24	44229.10
636.39	44353.15
636.53	44126.12
636.68	44149.53
636.83	44011.43
636.98	44074.63
637.13	43739.93
637.28	43983.35
637.43	44058.24
637.57	43885.04
637.72	43929.51
637.87	44060.58
638.02	43807.81
638.17	43634.61
638.32	44168.25
638.46	43873.34
638.61	43452.05
638.76	43636.95
638.91	43934.20
639.06	43803.13
639.20	43456.73
639.35	43409.92
639.50	43606.52
639.65	43737.59
639.80	43903.77
639.94	43285.87
640.09	43533.96
640.24	43702.48
640.39	43559.71
640.54	42986.28
640.68	43775.04
640.83	43433.32
640.98	43482.47
641.13	43196.93
641.27	43985.69
641.42	43515.24
641.57	43489.49
641.72	43227.35
641.86	43466.09
642.01	43377.15
642.16	43122.03
642.31	42939.47
642.45	43285.87
642.60	42703.07
642.75	42859.89
642.90	43325.66
643.04	43084.58
643.19	42951.17
643.34	43021.39
643.48	42951.17
643.63	42824.78
643.78	42707.76
643.93	42880.95
644.07	43236.72
644.22	42740.52
644.37	42902.02
644.51	43356.08
644.66	42951.17
644.81	42829.46
644.95	42911.38
645.10	42462.00
645.25	42185.82
645.39	42527.53
645.54	42642.22
645.69	42410.51
645.83	42387.10
645.98	42618.81
646.13	42396.46
646.27	42377.74
646.42	42277.10
646.57	42426.89
646.71	42567.32
646.86	42621.16
647.00	42815.42
647.15	42536.90
647.30	42543.92
647.44	42195.18
647.59	42099.22
647.74	42356.67
647.88	42277.10
648.03	42447.96
648.17	42831.80
648.32	42211.56
648.47	42658.60
648.61	42054.75
648.76	41977.51
648.90	42127.30
649.05	41867.50
649.20	42059.43
649.34	42316.89
649.49	42342.63
649.63	42237.31
649.78	42108.58
649.92	41841.76
650.07	42763.93
650.21	42335.61
650.36	42108.58
650.51	42401.14
650.65	42195.18
650.80	42249.01
650.94	41722.39
651.09	41670.90
651.23	41495.36
651.38	41785.58
651.52	41689.62
651.67	41572.60
651.81	41846.44
651.96	41542.17
652.10	41191.09
652.25	41603.02
652.39	41408.76
652.54	41652.17
652.68	41083.42
652.83	41383.01
652.97	41858.14
653.12	41539.83
653.26	41577.28
653.41	41631.11
653.55	41368.97
653.70	41394.71
653.84	41308.11
653.99	41455.57
654.13	41497.70
654.27	41148.96
654.42	41474.29
654.56	41165.34
654.71	41326.84
654.85	41237.90
655.00	41448.55
655.14	41383.01
655.29	41476.63
655.43	41764.52
655.57	41134.92
655.72	40882.14
655.86	40800.22
656.01	40980.44
656.15	40519.35
656.30	40627.02
656.44	40713.62
656.58	40678.51
656.73	40786.18
656.87	40725.32
657.01	40704.26
657.16	40938.31
657.30	40620.00
657.45	40306.37
657.59	40612.98
657.73	40367.22
657.88	40612.98
658.02	40783.83
658.16	40816.60
658.31	40526.38
658.45	40353.18
658.60	40416.37
658.74	40517.01
658.88	40107.42
659.03	40093.38
659.17	39854.64
659.31	40128.48
659.46	39761.02
659.60	40664.47
659.74	39770.38
659.89	39526.97
660.03	39360.79
660.17	40060.61
660.32	39971.67
660.46	39456.75
660.60	39365.47
660.74	39651.02
660.89	39416.96
661.03	39398.24
661.17	39597.18
661.32	39370.15
661.46	39480.16
661.60	39278.87
661.74	39040.14
661.89	39379.51
662.03	39157.16
662.17	38909.07
662.31	38892.68
662.46	39323.34
662.60	38939.49
662.74	38731.18
662.88	38866.94
663.03	38337.98
663.17	38190.52
663.31	38689.06
663.45	38574.37
663.60	39065.88
663.74	38883.32
663.88	38976.94
664.02	38286.48
664.17	38927.79
664.31	38546.28
664.45	38546.28
664.59	38389.47
664.73	38286.48
664.88	38188.18
665.02	37851.14
665.16	38391.81
665.30	38068.81
665.44	38197.54
665.59	37916.68
665.73	37769.22
665.87	37436.87
666.01	38071.15
666.15	37949.45
666.29	37656.88
666.44	37844.12
666.58	37338.57
666.72	37434.53
666.86	37869.87
667.00	37453.25
667.14	37455.59
667.28	37572.62
667.43	37329.20
667.57	36921.95
667.71	37507.08
667.85	37731.78
667.99	37193.45
668.13	37188.77
668.27	36989.83
668.41	36472.57
668.56	36566.19
668.70	36648.11
668.84	36753.43
668.98	36320.43
669.12	36470.23
669.26	36715.98
669.40	36374.27
669.54	36818.97
669.68	36517.04
669.82	36154.26
669.96	35978.72
670.10	35833.60
670.25	36044.25
670.39	35519.97
670.53	36428.10
670.67	35742.32
670.81	36350.86
670.95	35646.36
671.09	35641.68
671.23	35292.94
671.37	35885.09
671.51	35573.80
671.65	35440.39
671.79	35793.81
671.93	35295.28
672.07	35454.44
672.21	35152.51
672.35	34665.67
672.49	35271.87
672.63	35122.08
672.77	34501.84
672.91	35166.55
673.05	34859.94
673.19	34771.00
673.33	34469.07
673.47	34443.32
673.61	34230.33
673.75	34536.94
673.89	34274.80
674.03	34183.52
674.17	34068.84
674.31	34050.11
674.45	34064.16
674.59	33633.50
674.73	34015.01
674.87	33596.05
675.01	33514.13
675.15	33546.90
675.29	33331.57
675.43	33230.93
675.56	33514.13
675.70	32964.10
675.84	33001.55
675.98	31545.74
676.12	32718.35
676.26	33160.71
676.40	32432.80
676.54	32514.72
676.68	32264.28
676.82	31742.35
676.96	32606.00
677.10	32788.56
677.23	32191.73
677.37	32357.91
677.51	32283.01
677.65	31557.44
677.79	32006.83
677.93	32053.64
678.07	31417.01
678.21	31435.74
678.34	31400.63
678.48	31122.10
678.62	31103.38
678.76	30866.98
678.90	30824.86
679.04	30976.99
679.18	30792.09
679.31	31178.28
679.45	30579.10
679.59	30483.14
679.73	30480.80
679.87	30270.15
680.00	30429.30
680.14	30532.29
680.28	29818.42
680.42	30089.93
680.56	29825.45
680.70	29860.55
680.83	29343.30
680.97	29436.92
681.11	29575.01
681.25	29624.16
681.39	28978.17
681.52	29268.40
681.66	28727.74
681.80	28826.04
681.94	28905.62
682.07	28521.77
682.21	28652.84
682.35	28596.67
682.49	28437.51
682.62	28233.88
682.76	28505.38
682.90	28158.99
683.04	28180.05
683.17	28535.81
683.31	27913.23
683.45	28058.34
683.59	27592.58
683.72	27470.87
683.86	27728.33
684.00	27435.76
684.13	27342.14
684.27	26862.33
684.41	27414.69
684.55	27213.41
684.68	26679.77
684.82	26651.68
684.96	27171.28
685.09	26939.57
685.23	26363.79
685.37	27072.98
685.50	27082.34
685.64	26639.98
685.78	26345.07
685.91	26223.36
686.05	25692.06
686.19	25652.27
686.32	25830.15
686.46	25245.02
686.60	25174.80
686.73	25563.33
686.87	25610.14
687.01	25282.47
687.14	25465.03
687.28	25570.35
687.42	25139.69
687.55	25179.48
687.69	24613.07
687.82	24428.17
687.96	24713.72
688.10	24723.08
688.23	24592.01
688.37	24608.39
688.50	24985.22
688.64	24393.06
688.78	24547.54
688.91	23995.17
689.05	24105.18
689.18	24006.87
689.32	23403.02
689.46	23559.83
689.59	23754.10
689.73	23887.51
689.86	23875.80
690.00	23660.48
690.13	23571.54
690.27	23625.37
690.41	23473.23
690.54	22747.67
690.68	22862.35
690.81	23014.49
690.95	22679.79
691.08	22817.88
691.22	22520.63
691.35	22218.71
691.49	22775.75
691.62	22618.94
691.76	21713.15
691.89	22129.77
692.03	21696.77
692.16	21909.75
692.30	21713.15
692.43	21785.71
692.57	21577.40
692.70	21589.10
692.84	21198.23
692.97	21223.98
693.11	21193.55
693.24	20833.11
693.38	20758.21
693.51	20826.09
693.65	20699.70
693.78	20631.82
693.92	20552.24
694.05	20835.45
694.19	20575.65
694.32	20519.48
694.45	20435.22
694.59	20627.14
694.72	20144.99
694.86	19871.15
694.99	19728.38
695.13	19648.80
695.26	19690.93
695.39	19714.33
695.53	19566.88
695.66	19721.35
695.80	19421.77
695.93	19321.12
696.07	19192.39
696.20	19117.50
696.33	18670.45
696.47	18878.76
696.60	19028.56
696.73	18937.27
696.87	18831.95
697.00	18827.27
697.14	18506.62
697.27	18562.79
697.40	18359.16
697.54	18534.70
697.67	18321.71
697.80	18382.57
697.94	18052.55
698.07	17905.10
698.21	17834.88
698.34	17916.80
698.47	17865.31
698.61	17350.39
698.74	17268.47
698.87	17408.90
699.01	17544.66
699.14	17642.96
699.27	17444.01
699.40	17380.82
699.54	17132.72
699.67	16879.94
699.80	16943.14
699.94	16816.75
700.07	16882.28
700.20	16718.45
700.34	16650.57
700.47	16800.37
700.60	16819.09
700.73	16695.04
700.87	16343.96
701.00	16418.86
701.13	16348.64
701.26	15840.75
701.40	16063.10
701.53	15826.70
701.66	15829.04
701.79	15831.38
701.93	15616.05
702.06	15587.97
702.19	15262.63
702.32	15234.55
702.46	15407.75
702.59	15534.14
702.72	15602.01
702.85	15543.50
702.99	15260.29
703.12	15103.48
703.25	14916.23
703.38	14766.44
703.51	14803.89
703.65	14649.41
703.78	14611.96
703.91	14401.32
704.04	14494.94
704.17	14394.29
704.31	14431.74
704.44	14108.75
704.57	14291.31
704.70	14059.60
704.83	13944.91
704.96	13888.74
705.10	13949.59
705.23	14097.05
>>>>>End Processed Spectral Data<<<<<
