SpectraSuite Data File
++++++++++++++++++++++++++++++++++++
Date: Fri Oct 25 10:47:34 EDT 2013
User: price-jones
Dark Spectrum Present: No
Reference Spectrum Present: No
Number of Sampled Component Spectra: 1
Spectrometers: USB2+H05261
Integration Time (usec): 100000 (USB2+H05261)
Spectra Averaged: 1 (USB2+H05261)
Boxcar Smoothing: 0 (USB2+H05261)
Correct for Electrical Dark: No (USB2+H05261)
Strobe/Lamp Enabled: No (USB2+H05261)
Correct for Detector Non-linearity: No (USB2+H05261)
Correct for Stray Light: No (USB2+H05261)
Number of Pixels in Processed Spectrum: 2048
>>>>>Begin Processed Spectral Data<<<<<
365.73	147.45
365.92	147.45
366.12	147.45
366.32	39.79
366.52	65.54
366.72	58.51
366.91	28.09
367.11	0.00
367.31	32.77
367.51	2.34
367.70	100.64
367.90	53.83
368.10	44.47
368.30	63.19
368.49	32.77
368.69	56.17
368.89	46.81
369.09	102.98
369.28	30.43
369.48	0.00
369.68	107.66
369.87	98.30
370.07	110.01
370.27	65.54
370.47	212.99
370.66	425.98
370.86	390.87
371.06	341.72
371.25	418.96
371.45	428.32
371.65	442.36
371.84	425.98
372.04	468.11
372.24	451.72
372.44	482.15
372.63	503.22
372.83	517.26
373.03	535.98
373.22	491.51
373.42	505.56
373.62	566.41
373.81	568.75
374.01	514.92
374.21	545.34
374.40	564.07
374.60	545.34
374.79	608.54
374.99	454.06
375.19	528.96
375.38	538.32
375.58	512.58
375.78	657.69
375.97	545.34
376.17	617.90
376.37	547.69
376.56	631.94
376.76	580.45
376.95	559.39
377.15	603.86
377.35	622.58
377.54	624.92
377.74	629.60
377.93	648.33
378.13	664.71
378.33	702.16
378.52	585.13
378.72	706.84
378.91	636.63
379.11	582.79
379.31	547.69
379.50	610.88
379.70	596.84
379.89	723.23
380.09	699.82
380.28	620.24
380.48	610.88
380.68	645.99
380.87	645.99
381.07	748.97
381.26	816.85
381.46	690.46
381.65	678.76
381.85	655.35
382.04	636.63
382.24	664.71
382.43	685.78
382.63	610.88
382.83	669.39
383.02	692.80
383.22	774.72
383.41	718.54
383.61	702.16
383.80	835.57
384.00	748.97
384.19	765.36
384.39	695.14
384.58	779.40
384.78	765.36
384.97	751.31
385.17	774.72
385.36	758.33
385.56	753.65
385.75	755.99
385.95	753.65
386.14	875.36
386.34	849.61
386.53	802.80
386.72	763.01
386.92	828.55
387.11	713.86
387.31	786.42
387.50	847.27
387.70	772.38
387.89	830.89
388.09	788.76
388.28	765.36
388.48	784.08
388.67	840.25
388.86	851.96
389.06	887.06
389.25	929.19
389.45	943.24
389.64	821.53
389.84	868.34
390.03	887.06
390.22	957.28
390.42	891.74
390.61	971.32
390.81	842.59
391.00	973.66
391.19	954.94
391.39	990.05
391.58	912.81
391.78	910.47
391.97	997.07
392.16	858.98
392.36	938.55
392.55	1008.77
392.75	976.00
392.94	898.77
393.13	880.04
393.33	898.77
393.52	1067.28
393.71	990.05
393.91	1043.88
394.10	1004.09
394.29	1067.28
394.49	1034.52
394.68	1048.56
394.88	1083.67
395.07	1167.93
395.26	1057.92
395.46	1142.18
395.65	1172.61
395.84	1083.67
396.04	1200.69
396.23	1179.63
396.42	1132.82
396.62	1165.59
396.81	1095.37
397.00	1125.80
397.19	1179.63
397.39	1233.46
397.58	1247.51
397.77	1196.01
397.97	1188.99
398.16	1177.29
398.35	1299.00
398.55	1280.27
398.74	1306.02
398.93	1338.79
399.12	1303.68
399.32	1277.93
399.51	1348.15
399.70	1366.87
399.90	1366.87
400.09	1364.53
400.28	1404.32
400.47	1359.85
400.67	1348.15
400.86	1509.65
401.05	1533.05
401.24	1509.65
401.44	1460.49
401.63	1453.47
401.82	1521.35
402.01	1528.37
402.21	1500.28
402.40	1535.39
402.59	1537.73
402.78	1504.96
402.97	1554.12
403.17	1558.80
403.36	1619.65
403.55	1554.12
403.74	1682.85
403.93	1519.01
404.13	1621.99
404.32	1607.95
404.51	1675.82
404.70	1607.95
404.89	1685.19
405.09	1696.89
405.28	1717.95
405.47	1692.21
405.66	1757.74
405.85	1790.51
406.05	1769.44
406.24	1785.83
406.43	1846.68
406.62	1804.55
406.81	1668.80
407.00	1771.79
407.20	1764.76
407.39	1827.96
407.58	1837.32
407.77	1982.43
407.96	1870.09
408.15	1968.39
408.34	1884.13
408.54	2008.18
408.73	1949.67
408.92	2043.29
409.11	2010.52
409.30	1994.14
409.49	1980.09
409.68	2017.54
409.87	2064.35
410.07	2029.24
410.26	2143.93
410.45	2113.50
410.64	2036.27
410.83	2090.10
411.02	2157.97
411.21	2375.64
411.40	2167.34
411.59	2204.78
411.78	2291.38
411.98	2279.68
412.17	2289.04
412.36	2399.05
412.55	2345.22
412.74	2457.56
412.93	2462.24
413.12	2478.63
413.31	2605.02
413.50	2546.50
413.69	2448.20
413.88	2576.93
414.07	2649.49
414.26	2506.71
414.45	2562.89
414.64	2626.08
414.83	2605.02
415.02	2635.44
415.22	2780.56
415.41	2654.17
415.60	2663.53
415.79	2733.75
415.98	2818.00
416.17	2801.62
416.36	2710.34
416.55	2839.07
416.74	2743.11
416.93	2787.58
417.12	2932.69
417.31	2836.73
417.50	2874.18
417.69	2965.46
417.88	2984.18
418.07	2916.31
418.26	3040.36
418.45	3131.64
418.64	3201.85
418.83	3180.79
419.02	3122.27
419.21	3222.92
419.39	3056.74
419.58	3192.49
419.77	3176.11
419.96	3255.69
420.15	3288.45
420.34	3258.03
420.53	3372.71
420.72	3309.52
420.91	3384.41
421.10	3417.18
421.29	3445.27
421.48	3440.59
421.67	3365.69
421.86	3407.82
422.05	3508.46
422.24	3361.01
422.43	3258.03
422.61	3370.37
422.80	3602.08
422.99	3459.31
423.18	3365.69
423.37	3543.57
423.56	3524.85
423.75	3426.54
423.94	3290.79
424.13	3260.37
424.32	3358.67
424.50	3588.04
424.69	3513.14
424.88	3698.05
425.07	3447.61
425.26	3468.67
425.45	3363.35
425.64	3590.38
425.83	3417.18
426.01	3676.98
426.20	3531.87
426.39	3616.13
426.58	3625.49
426.77	3627.83
426.96	3693.37
427.15	3592.72
427.33	3609.11
427.52	3646.55
427.71	3623.15
427.90	3733.15
428.09	3702.73
428.28	3726.13
428.46	3751.88
428.65	3611.45
428.84	3829.12
429.03	3871.25
429.22	3648.90
429.40	3609.11
429.59	3777.62
429.78	3597.40
429.97	3550.59
430.16	3784.65
430.34	3765.92
430.53	3829.12
430.72	3833.80
430.91	4016.36
431.10	3885.29
431.28	4119.34
431.47	3960.19
431.66	4161.47
431.85	4058.49
432.03	4166.15
432.22	4234.03
432.41	3997.64
432.60	4308.93
432.79	4049.13
432.97	4280.84
433.16	4285.52
433.35	4126.36
433.54	4203.60
433.72	4339.35
433.91	4351.06
434.10	4468.08
434.28	4327.65
434.47	4311.27
434.66	4273.82
434.85	4400.21
435.03	4365.10
435.22	4461.06
435.41	4454.04
435.59	4533.62
435.78	4559.36
435.97	4678.73
436.16	4552.34
436.34	4463.40
436.53	4545.32
436.72	4781.71
436.90	4521.92
437.09	4538.30
437.28	4620.22
437.46	4603.83
437.65	4667.03
437.84	4718.52
438.02	4657.67
438.21	4571.07
438.40	4524.26
438.58	4858.95
438.77	4833.21
438.96	4865.97
439.14	4908.10
439.33	5018.11
439.52	5055.56
439.70	5268.55
439.89	5188.97
440.08	4983.00
440.26	5137.48
440.45	5069.60
440.63	5275.57
440.82	5193.65
441.01	5350.46
441.19	5362.17
441.38	5591.54
441.57	5427.70
441.75	5425.36
441.94	5451.11
442.12	5460.47
442.31	5668.78
442.50	5544.73
442.68	5549.41
442.87	5420.68
443.05	5706.23
443.24	5806.87
443.43	5710.91
443.61	5675.80
443.80	5905.17
443.98	5710.91
444.17	5474.51
444.35	5841.98
444.54	5937.94
444.73	5863.04
444.91	5891.13
445.10	5863.04
445.28	5928.58
445.47	5837.30
445.65	5638.35
445.84	5865.38
446.02	5881.77
446.21	5959.00
446.39	5682.82
446.58	5914.53
446.77	6008.16
446.95	5792.83
447.14	5961.34
447.32	5980.07
447.51	5973.05
447.69	5760.06
447.88	5928.58
448.06	6001.13
448.25	6193.06
448.43	6017.52
448.62	5980.07
448.80	6099.44
448.99	6106.46
449.17	6001.13
449.36	5980.07
449.54	6239.87
449.73	6307.74
449.91	6403.71
450.10	6342.85
450.28	6413.07
450.46	6466.90
450.65	6377.96
450.83	6317.11
451.02	6429.45
451.20	6506.69
451.39	6497.33
451.57	6331.15
451.76	6403.71
451.94	6452.86
452.13	6483.28
452.31	6494.99
452.49	6448.18
452.68	6319.45
452.86	6473.92
453.05	6455.20
453.23	6532.44
453.42	6630.74
453.60	6462.22
453.78	6516.05
453.97	6736.06
454.15	6576.91
454.34	6555.84
454.52	6705.63
454.70	6560.52
454.89	6548.82
455.07	6604.99
455.26	6789.89
455.44	6822.66
455.62	6916.28
455.81	6883.52
455.99	6794.58
456.17	7005.22
456.36	6932.67
456.54	7140.97
456.73	7279.07
456.91	7342.26
457.09	7166.72
457.28	7353.96
457.46	7197.15
457.64	7243.96
457.83	7162.04
458.01	7180.76
458.19	7332.90
458.38	7229.91
458.56	7419.50
458.74	7456.95
458.93	7470.99
459.11	7375.03
459.29	7405.46
459.48	7421.84
459.66	7445.24
459.84	7529.50
460.03	7576.31
460.21	7726.11
460.39	7829.09
460.57	7597.38
460.76	7709.72
460.94	7751.85
461.12	7824.41
461.31	7779.94
461.49	7749.51
461.67	7728.45
461.85	7786.96
462.04	7911.01
462.22	8222.30
462.40	7887.61
462.59	7915.69
462.77	7871.22
462.95	7999.95
463.13	7981.23
463.32	7990.59
463.50	8006.97
463.68	8226.98
463.86	8051.44
464.05	7981.23
464.23	7974.21
464.41	8280.82
464.59	7974.21
464.78	8437.63
464.96	8175.49
465.14	8093.57
465.32	8234.00
465.50	8362.73
465.69	8409.54
465.87	8154.43
466.05	8161.45
466.23	8360.39
466.41	8187.19
466.60	8372.10
466.78	8374.44
466.96	8318.26
467.14	8369.76
467.32	8376.78
467.51	8671.68
467.69	8215.28
467.87	8542.96
468.05	8500.83
468.23	8578.06
468.41	8458.70
468.60	8683.39
468.78	8629.56
468.96	8685.73
469.14	8887.01
469.32	8688.07
469.50	8446.99
469.69	8793.39
469.87	8814.46
470.05	8879.99
470.23	9043.83
470.41	8762.97
470.59	8919.78
470.77	8823.82
470.95	8957.23
471.14	9090.64
471.32	8868.29
471.50	9231.07
471.68	9214.69
471.86	9383.21
472.04	9312.99
472.22	9643.01
472.40	9205.33
472.58	9362.14
472.77	9439.38
472.95	9486.19
473.13	9825.57
473.31	9624.28
473.49	9565.77
473.67	9710.88
473.85	9598.54
474.03	9872.38
474.21	9912.17
474.39	10106.43
474.57	9795.14
474.75	10001.11
474.93	10286.65
475.12	10068.98
475.30	10274.95
475.48	10164.95
475.66	10120.48
475.84	9982.38
476.02	10310.06
476.20	10420.06
476.38	10406.02
476.56	10754.76
476.74	10661.14
476.92	10860.09
477.10	10644.76
477.28	10794.55
477.46	10885.83
477.64	11021.58
477.82	11213.51
478.00	11199.46
478.18	11052.01
478.36	11421.81
478.54	11412.45
478.72	11389.05
478.90	11658.21
479.08	11644.17
479.26	11822.05
479.44	12035.03
479.62	11953.12
479.80	12299.52
479.98	12119.29
480.16	12393.14
480.34	12280.79
480.52	12147.38
480.70	12468.03
480.88	12341.64
481.06	12425.90
481.24	12730.17
481.41	12903.37
481.59	13231.05
481.77	13130.41
481.95	13085.94
482.13	13177.22
482.31	12929.12
482.49	13476.80
482.67	13490.85
482.85	13298.92
483.03	13673.41
483.21	13865.33
483.39	14157.90
483.57	13642.98
483.74	14176.62
483.92	14281.95
484.10	14164.92
484.28	14300.67
484.46	14473.87
484.64	14846.02
484.82	14611.96
485.00	14778.14
485.18	14857.72
485.35	15229.87
485.53	14778.14
485.71	15030.92
485.89	15222.84
486.07	15288.38
486.25	15391.36
486.43	15386.68
486.61	15756.49
486.78	15777.55
486.96	16135.65
487.14	15992.88
487.32	16407.16
487.50	16573.33
487.68	16484.39
487.85	16739.51
488.03	17121.02
488.21	16980.59
488.39	17149.11
488.57	16858.88
488.75	17514.23
488.92	17830.20
489.10	17706.15
489.28	17703.81
489.46	17797.43
489.64	17788.07
489.81	18235.11
489.99	18239.79
490.17	18214.05
490.35	18857.70
490.53	18602.58
490.70	18640.03
490.88	18853.02
491.06	18871.74
491.24	18991.11
491.41	19232.18
491.59	19035.58
491.77	19131.54
491.95	19187.71
492.13	19536.45
492.30	19637.09
492.48	19936.68
492.66	19997.54
492.84	20032.65
493.01	20163.72
493.19	20444.58
493.37	20250.32
493.54	20292.44
493.72	20545.22
493.90	20685.65
494.08	20758.21
494.25	20840.13
494.43	21383.13
494.61	21373.77
494.79	21633.57
494.96	21373.77
495.14	21373.77
495.32	21668.68
495.49	21900.39
495.67	21813.79
495.85	22150.83
496.02	22075.93
496.20	22436.38
496.38	22373.18
496.55	22352.12
496.73	22838.95
496.91	22775.75
497.09	22703.20
497.26	23143.22
497.44	22939.59
497.62	22923.21
497.79	23374.93
497.97	23218.11
498.14	23276.63
498.32	23550.47
498.50	23903.89
498.67	24018.58
498.85	24091.13
499.03	24294.76
499.20	23950.70
499.38	24074.75
499.56	24250.29
499.73	24474.98
499.91	24346.25
500.08	24243.27
500.26	24285.40
500.44	24945.43
500.61	24594.35
500.79	24835.42
500.97	24893.94
501.14	25055.43
501.32	25078.84
501.49	25230.98
501.67	25345.66
501.84	25268.42
502.02	25488.43
502.20	25130.33
502.37	25668.66
502.55	25757.60
502.72	25376.09
502.90	25830.15
503.07	25773.98
503.25	25827.81
503.43	25965.90
503.60	26174.21
503.78	26167.19
503.95	26300.60
504.13	26375.50
504.30	26572.10
504.48	26529.97
504.65	26637.64
504.83	27105.74
505.01	26836.58
505.18	26607.21
505.36	27311.71
505.53	26712.53
505.71	27129.15
505.88	27316.39
506.06	27133.83
506.23	27372.57
506.41	27096.38
506.58	27623.00
506.76	27679.18
506.93	27906.21
507.11	27978.76
507.28	27936.63
507.46	27871.10
507.63	27938.97
507.81	28196.43
507.98	27995.15
508.16	28034.94
508.33	28112.17
508.50	28414.10
508.68	28849.44
508.85	28896.25
509.03	28673.90
509.20	28772.21
509.38	28526.45
509.55	28690.29
509.73	29024.98
509.90	29228.61
510.08	28978.17
510.25	28914.98
510.42	29500.11
510.60	29207.55
510.77	29848.85
510.95	29523.52
511.12	29364.36
511.30	29685.01
511.47	29923.75
511.64	29989.28
511.82	30202.27
511.99	29567.99
512.17	30019.71
512.34	29855.87
512.51	30532.29
512.69	30312.28
512.86	30412.92
513.04	30747.62
513.21	30450.37
513.38	30462.07
513.56	30574.42
513.73	30490.16
513.90	30787.41
514.08	30639.95
514.25	30895.07
514.43	30848.26
514.60	30576.76
514.77	31173.60
514.95	31468.50
515.12	31058.91
515.29	31349.14
515.47	31653.40
515.64	31583.19
515.81	31604.25
515.99	31372.54
516.16	31641.70
516.33	31945.97
516.51	31838.31
516.68	31791.50
516.85	31316.37
517.03	31756.39
517.20	31826.60
517.37	31854.69
517.54	31969.38
517.72	32154.28
517.89	32023.21
518.06	31999.80
518.24	32437.48
518.41	32208.11
518.58	32327.48
518.75	31983.42
518.93	32634.09
519.10	32734.73
519.27	32804.95
519.45	32573.24
519.62	33027.30
519.79	33074.11
519.96	33212.20
520.14	33359.66
520.31	32971.13
520.48	33336.25
520.65	32758.14
520.83	33823.08
521.00	33785.63
521.17	33820.74
521.34	33883.94
521.52	33560.94
521.69	33371.36
521.86	33773.93
522.03	33977.56
522.20	34169.48
522.38	33624.14
522.55	34347.36
522.72	33958.83
522.89	34206.93
523.07	34738.23
523.24	34567.37
523.41	34384.81
523.58	34319.28
523.75	34548.65
523.92	34726.53
524.10	34986.33
524.27	34536.94
524.44	34822.49
524.61	34859.94
524.78	34965.26
524.96	34941.86
525.13	35372.52
525.30	35700.19
525.47	35353.79
525.64	35082.29
525.81	35381.88
525.98	35395.92
526.16	35110.38
526.33	35182.93
526.50	35768.07
526.67	35442.73
526.84	35449.75
527.01	35552.74
527.18	35772.75
527.36	35894.46
527.53	36184.68
527.70	36514.70
527.87	36261.92
528.04	35810.20
528.21	36287.67
528.38	36163.62
528.55	36371.92
528.72	36252.56
528.89	36292.35
529.07	36374.27
529.24	36041.91
529.41	36383.63
529.58	36678.54
529.75	36746.41
529.92	36620.02
530.09	36708.96
530.26	36835.35
530.43	37102.17
530.60	36788.54
530.77	36748.75
530.94	37083.45
531.11	37146.64
531.28	36840.03
531.46	37085.79
531.63	37008.55
531.80	37090.47
531.97	37621.77
532.14	37397.08
532.31	37137.28
532.48	37287.07
532.65	37745.82
532.82	37003.87
532.99	37853.48
533.16	37736.46
533.33	37811.35
533.50	37783.27
533.67	37624.11
533.84	37394.74
534.01	37778.59
534.18	37846.46
534.35	38295.85
534.52	37998.60
534.69	38153.07
534.86	38038.39
535.03	37886.25
535.20	38417.55
535.37	38450.32
535.54	38663.31
535.71	38204.56
535.88	38642.24
536.05	38459.68
536.22	38452.66
536.38	38436.28
536.55	38527.56
536.72	38873.96
536.89	38127.33
537.06	38307.55
537.23	38869.28
537.40	38789.70
537.57	38366.06
537.74	38817.78
537.91	39445.05
538.08	39122.05
538.25	38565.01
538.42	38731.18
538.59	38775.66
538.75	39047.16
538.92	39358.45
539.09	39281.21
539.26	39480.16
539.43	39201.63
539.60	39571.44
539.77	39108.01
539.94	39182.91
540.11	39061.20
540.28	38869.28
540.44	39065.88
540.61	39178.23
540.78	39234.40
540.95	39814.85
541.12	39012.05
541.29	39819.53
541.46	39679.10
541.62	39845.28
541.79	40060.61
541.96	39625.27
542.13	39819.53
542.30	39913.16
542.47	39651.02
542.63	40013.80
542.80	40182.32
542.97	40144.87
543.14	40491.27
543.31	40383.60
543.48	40301.68
543.64	40957.03
543.81	40748.73
543.98	40765.11
544.15	40989.80
544.32	40842.35
544.48	40554.46
544.65	40517.01
544.82	40479.57
544.99	41109.17
545.16	40758.09
545.32	40961.72
545.49	40975.76
545.66	41137.26
545.83	41127.89
546.00	40971.08
546.16	41523.44
546.33	40781.49
546.50	40589.57
546.67	40872.78
546.83	40828.30
547.00	41132.57
547.17	40844.69
547.34	41221.52
547.50	41579.62
547.67	41422.80
547.84	41462.59
548.00	41287.05
548.17	41661.54
548.34	41553.87
548.51	41375.99
548.67	41729.41
548.84	41619.41
549.01	41338.54
549.18	41696.64
549.34	41621.75
549.51	41904.95
549.68	41886.23
549.84	41755.16
550.01	42000.91
550.18	41982.19
550.34	41790.27
550.51	41853.46
550.68	41537.49
550.84	41734.09
551.01	42431.57
551.18	41780.90
551.34	41940.06
551.51	42763.93
551.68	42087.51
551.84	42663.28
552.01	42103.90
552.18	42141.35
552.34	42258.37
552.51	42616.47
552.68	42036.02
552.84	42593.07
553.01	43042.45
553.18	42190.50
553.34	42246.67
553.51	42508.81
553.67	42300.50
553.84	42555.62
554.01	42895.00
554.17	42560.30
554.34	42962.87
554.51	42541.58
554.67	43030.75
554.84	42937.13
555.00	42969.90
555.17	42141.35
555.33	42979.26
555.50	42635.20
555.67	42480.72
555.83	42939.47
556.00	42925.42
556.16	43398.21
556.33	43384.17
556.50	43047.13
556.66	43442.68
556.83	42794.36
556.99	43695.46
557.16	42916.06
557.32	42843.51
557.49	43189.91
557.65	42967.55
557.82	43117.35
557.98	42951.17
558.15	42988.62
558.32	43236.72
558.48	43257.78
558.65	43346.72
558.81	43115.01
558.98	43112.67
559.14	43065.86
559.31	43157.14
559.47	43622.90
559.64	43838.23
559.80	43892.07
559.97	43222.67
560.13	43330.34
560.30	43339.70
560.46	43573.75
560.63	43566.73
560.79	43564.39
560.96	43770.36
561.12	43672.06
561.29	43875.68
561.45	43650.99
561.61	43643.97
561.78	43217.99
561.94	43140.75
562.11	43318.64
562.27	44083.99
562.44	43950.58
562.60	43707.16
562.77	43711.84
562.93	43807.81
563.10	44069.95
563.26	43512.90
563.42	43789.08
563.59	43856.96
563.75	43959.94
563.92	44278.25
564.08	43838.23
564.24	44421.03
564.41	43941.22
564.57	44109.74
564.74	44091.01
564.90	44233.78
565.07	43988.03
565.23	44018.46
565.39	43634.61
565.56	43852.28
565.72	43882.70
565.88	44130.80
566.05	43981.01
566.21	44142.50
566.38	43358.42
566.54	43966.96
566.70	44348.47
566.87	44367.20
567.03	43938.88
567.19	44231.44
567.36	44624.65
567.52	43796.10
567.68	44032.50
567.85	44474.86
568.01	44203.36
568.17	44446.77
568.34	44151.87
568.50	44318.04
568.66	44177.61
568.83	43962.28
568.99	43901.43
569.15	44009.09
569.32	44154.21
569.48	43948.24
569.64	44477.20
569.81	44456.14
569.97	43814.83
570.13	44205.70
570.30	43807.81
570.46	43915.47
570.62	44271.23
570.78	43992.71
570.95	44364.85
571.11	44334.43
571.27	44250.17
571.43	44474.86
571.60	44737.00
571.76	44165.91
571.92	44123.78
572.09	44072.29
572.25	44179.95
572.41	44095.69
572.57	44626.99
572.74	45118.51
572.90	44502.95
573.06	44133.14
573.22	44449.11
573.38	43971.64
573.55	44060.58
573.71	44404.64
573.87	44226.76
574.03	44065.27
574.20	44341.45
574.36	44282.94
574.52	44545.08
574.68	44301.66
574.84	44334.43
575.01	44406.98
575.17	44652.74
575.33	44519.33
575.49	44339.11
575.65	44921.90
575.82	44559.12
575.98	44762.75
576.14	44989.78
576.30	44875.09
576.46	44542.74
576.62	44488.90
576.79	44779.13
576.95	43627.59
577.11	44404.64
577.27	44261.87
577.43	44797.85
577.59	44477.20
577.75	44388.26
577.92	44439.75
578.08	44451.45
578.24	44273.57
578.40	44313.36
578.56	44617.63
578.72	44311.02
578.88	44896.16
579.04	44392.94
579.21	44631.68
579.37	44589.55
579.53	44914.88
579.69	44287.62
579.85	44615.29
580.01	44304.00
580.17	44409.32
580.33	44694.87
580.49	44713.59
580.65	44725.30
580.82	44858.71
580.98	44346.13
581.14	44809.56
581.30	44788.49
581.46	44505.29
581.62	44549.76
581.78	44641.04
581.94	45181.70
582.10	44561.46
582.26	44868.07
582.42	44870.41
582.58	44533.37
582.74	44769.77
582.90	44491.24
583.06	44704.23
583.22	44954.67
583.38	44814.24
583.54	44531.03
583.70	44435.07
583.86	44477.20
584.02	44381.24
584.18	45059.99
584.34	44739.34
584.50	44931.26
584.66	44629.34
584.82	44086.33
584.98	45177.02
585.14	44655.08
585.30	44559.12
585.46	44566.14
585.62	44467.84
585.78	44605.93
585.94	44245.49
586.10	44744.02
586.26	44559.12
586.42	44947.65
586.58	44900.84
586.74	44751.04
586.90	44463.16
587.06	44404.64
587.22	44964.03
587.38	44304.00
587.54	45151.27
587.70	45144.25
587.86	44711.25
588.02	44875.09
588.18	44959.35
588.34	44680.83
588.49	44701.89
588.65	44528.69
588.81	44776.79
588.97	45083.40
589.13	44598.91
589.29	44917.22
589.45	44893.82
589.61	44877.43
589.77	45235.53
589.93	45153.62
590.08	45188.72
590.24	45170.00
590.40	45010.84
590.56	45045.95
590.72	44676.15
590.88	44697.21
591.04	44807.22
591.20	44734.66
591.35	45088.08
591.51	45280.00
591.67	44807.22
591.83	45324.47
591.99	44514.65
592.15	44921.90
592.31	44594.23
592.46	44971.05
592.62	45109.14
592.78	45167.66
592.94	45460.23
593.10	44926.58
593.26	44823.60
593.41	45078.72
593.57	45069.36
593.73	44842.32
593.89	44584.86
594.05	44985.10
594.20	44938.29
594.36	44926.58
594.52	44978.07
594.68	44919.56
594.84	45141.91
594.99	45584.27
595.15	44821.26
595.31	45118.51
595.47	44973.39
595.62	45062.33
595.78	45427.46
595.94	45141.91
596.10	45207.45
596.25	45013.18
596.41	45476.61
596.57	44804.88
596.73	45406.39
596.88	44556.78
597.04	45127.87
597.20	45322.13
597.36	44701.89
597.51	45212.13
597.67	45387.67
597.83	45776.20
597.99	45532.78
598.14	44811.90
598.30	44921.90
598.46	45336.18
598.61	45333.84
598.77	44924.24
598.93	44692.53
599.09	44879.77
599.24	45624.06
599.40	45698.96
599.56	45453.20
599.71	45378.31
599.87	45492.99
600.03	45310.43
600.18	45319.79
600.34	45120.85
600.50	45441.50
600.65	45076.38
600.81	45722.37
600.97	45333.84
601.12	45984.51
601.28	45347.88
601.44	45385.33
601.59	45422.78
601.75	45221.49
601.91	45057.65
602.06	45104.46
602.22	45130.21
602.37	45240.21
602.53	45310.43
602.69	45820.67
602.84	45289.37
603.00	44863.39
603.16	45188.72
603.31	45287.03
603.47	44671.46
603.62	44793.17
603.78	45055.31
603.94	44921.90
604.09	45291.71
604.25	45167.66
604.40	45247.24
604.56	45219.15
604.71	45193.40
604.87	44982.76
605.03	45399.37
605.18	44896.16
605.34	44928.92
605.49	45127.87
605.65	45177.02
605.80	45357.24
605.96	45368.94
606.12	45205.11
606.27	45593.64
606.43	44720.62
606.58	45471.93
606.74	44985.10
606.89	44926.58
607.05	44687.85
607.20	45074.04
607.36	44842.32
607.51	45450.86
607.67	44942.97
607.82	44788.49
607.98	45029.57
608.13	44889.13
608.29	44587.21
608.44	44879.77
608.60	44601.25
608.75	44687.85
608.91	44694.87
609.06	44306.34
609.22	45029.57
609.37	44832.96
609.53	44921.90
609.68	44926.58
609.84	44729.98
609.99	44411.67
610.15	44491.24
610.30	44788.49
610.46	44744.02
610.61	44385.92
610.76	44545.08
610.92	44989.78
611.07	44779.13
611.23	44385.92
611.38	44626.99
611.54	44418.69
611.69	44287.62
611.84	44362.51
612.00	44371.88
612.15	44655.08
612.31	44732.32
612.46	44444.43
612.62	45076.38
612.77	44603.59
612.92	44776.79
613.08	44287.62
613.23	44273.57
613.39	44484.22
613.54	44074.63
613.69	44516.99
613.85	44196.34
614.00	44390.60
614.15	44435.07
614.31	44332.09
614.46	44589.55
614.62	44332.09
614.77	44156.55
614.92	44126.12
615.08	43941.22
615.23	43927.17
615.38	44046.54
615.54	44067.61
615.69	43828.87
615.84	43625.25
616.00	44016.11
616.15	44222.08
616.30	44294.64
616.46	43571.41
616.61	43552.69
616.76	43480.13
616.92	43826.53
617.07	43782.06
617.22	43494.18
617.37	43866.32
617.53	44392.94
617.68	44116.76
617.83	43688.44
617.99	43941.22
618.14	43971.64
618.29	43398.21
618.45	43917.81
618.60	43344.38
618.75	43805.47
618.90	43650.99
619.06	43686.10
619.21	43672.06
619.36	43573.75
619.51	43669.72
619.67	43339.70
619.82	43859.30
619.97	43641.63
620.12	42859.89
620.28	43395.87
620.43	43379.49
620.58	43182.88
620.73	42876.27
620.89	43349.06
621.04	43260.12
621.19	43213.31
621.34	42822.44
621.49	43147.78
621.65	43030.75
621.80	43189.91
621.95	42902.02
622.10	42962.87
622.25	42953.51
622.41	42721.80
622.56	42995.64
622.71	43199.27
622.86	43131.39
623.01	43030.75
623.16	42869.25
623.32	43016.71
623.47	43002.66
623.62	43119.69
623.77	43180.54
623.92	42747.54
624.07	42394.12
624.23	42267.73
624.38	42609.45
624.53	42323.91
624.68	42670.31
624.83	42944.15
624.98	42986.28
625.13	42696.05
625.29	42625.84
625.44	42665.63
625.59	42227.95
625.74	42103.90
625.89	42279.44
626.04	42101.56
626.19	42419.87
626.34	42337.95
626.49	42518.17
626.65	42543.92
626.80	42440.93
626.95	42522.85
627.10	41890.91
627.25	42010.28
627.40	41703.67
627.55	42029.00
627.70	41610.04
627.85	42050.06
628.00	42141.35
628.15	42366.04
628.30	42061.77
628.45	42291.14
628.60	42520.51
628.76	42057.09
628.91	41841.76
629.06	42286.46
629.21	42094.53
629.36	42309.86
629.51	41460.25
629.66	41308.11
629.81	41371.31
629.96	41977.51
630.11	41963.46
630.26	41914.31
630.41	41851.12
630.56	41780.90
630.71	41853.46
630.86	41326.84
631.01	41542.17
631.16	41649.83
631.31	41146.62
631.46	41273.01
631.61	41258.96
631.76	41415.78
631.91	41677.92
632.06	41495.36
632.21	41315.14
632.36	41647.49
632.51	41289.39
632.66	41020.23
632.81	40741.71
632.96	41303.43
633.10	40877.46
633.25	41003.85
633.40	41289.39
633.55	41432.16
633.70	41558.55
633.85	40643.40
634.00	41256.62
634.15	41053.00
634.30	40823.62
634.45	41062.36
634.60	40919.59
634.75	41155.98
634.90	41134.92
635.05	40627.02
635.19	40865.75
635.34	40933.63
635.49	40971.08
635.64	40545.10
635.79	40437.44
635.94	40772.13
636.09	40179.98
636.24	40634.04
636.39	40222.11
636.53	40198.70
636.68	40465.52
636.83	40425.73
636.98	40650.42
637.13	40245.51
637.28	40804.90
637.43	40472.54
637.57	40430.41
637.72	40460.84
637.87	40643.40
638.02	40587.23
638.17	40142.53
638.32	40023.16
638.46	40210.40
638.61	40297.00
638.76	39880.39
638.91	40158.91
639.06	39974.01
639.20	40016.14
639.35	40229.13
639.50	39929.54
639.65	40299.34
639.80	40102.74
639.94	40079.33
640.09	39793.79
640.24	39969.33
640.39	39707.19
640.54	39941.24
640.68	39871.03
640.83	39995.07
640.98	39763.36
641.13	39651.02
641.27	39828.90
641.42	39819.53
641.57	39873.37
641.72	39707.19
641.86	39503.56
642.01	39704.85
642.16	39360.79
642.31	38979.28
642.45	39854.64
642.60	39103.33
642.75	39505.90
642.90	39395.90
643.04	38909.07
643.19	39562.08
643.34	39423.98
643.48	39533.99
643.63	39482.50
643.78	39063.54
643.93	39309.30
644.07	39311.64
644.22	38967.58
644.37	38918.43
644.51	39026.09
644.66	38838.85
644.81	39756.34
644.95	39246.10
645.10	38965.24
645.25	39503.56
645.39	39351.43
645.54	39470.79
645.69	38951.20
645.83	38785.02
645.98	39374.83
646.13	39058.86
646.27	39185.25
646.42	38925.45
646.57	38946.51
646.71	38986.30
646.86	38873.96
647.00	38955.88
647.15	38927.79
647.30	39096.31
647.44	39044.82
647.59	38902.04
647.74	38555.64
647.88	38242.01
648.03	38658.63
648.17	38553.30
648.32	38623.52
648.47	38630.54
648.61	38480.75
648.76	38927.79
648.90	38780.34
649.05	38494.79
649.20	38679.69
649.34	38672.67
649.49	38433.94
649.63	38342.66
649.78	38309.89
649.92	38321.59
650.07	38499.47
650.21	38220.95
650.36	38227.97
650.51	38600.12
650.65	38333.29
650.80	38691.40
650.94	38455.00
651.09	38548.62
651.23	37914.34
651.38	38073.49
651.52	37734.12
651.67	38157.75
651.81	38192.86
651.96	37794.97
652.10	38014.98
652.25	38169.46
652.39	38045.41
652.54	38136.69
652.68	38192.86
652.83	38108.60
652.97	38038.39
653.12	37834.76
653.26	37448.57
653.41	37654.54
653.55	37970.51
653.70	37862.85
653.84	37633.47
653.99	37525.81
654.13	37584.32
654.27	37766.88
654.42	37376.01
654.56	37495.38
654.71	37785.61
654.85	37890.93
655.00	37324.52
655.14	37141.96
655.29	37287.07
655.43	37078.77
655.57	37228.56
655.72	37193.45
655.86	36943.02
656.01	37207.50
656.15	37069.40
656.30	37345.59
656.44	37081.11
656.58	36664.49
656.73	36891.52
656.87	36685.56
657.01	36947.70
657.16	36847.05
657.30	36685.56
657.45	36636.41
657.59	36737.05
657.73	36634.06
657.88	36907.91
658.02	36865.78
658.16	37186.43
658.31	36802.58
658.45	37186.43
658.60	36236.17
658.74	36662.15
658.88	36561.51
659.03	36837.69
659.17	36617.68
659.31	36402.35
659.46	35927.22
659.60	36144.89
659.74	36442.14
659.89	36018.50
660.03	36795.56
660.17	36439.80
660.32	36198.73
660.46	36311.07
660.60	36350.86
660.74	36123.83
660.89	35999.78
661.03	36074.68
661.17	35948.29
661.32	35531.67
661.46	35690.83
661.60	35697.85
661.74	35634.66
661.89	35756.36
662.03	35817.22
662.17	36006.80
662.31	35651.04
662.46	35667.42
662.60	35735.30
662.74	35917.86
662.88	35805.52
663.03	35143.14
663.17	35700.19
663.31	35103.35
663.45	35393.58
663.60	35241.45
663.74	35196.98
663.88	34714.83
664.02	34778.02
664.17	34866.96
664.31	34817.81
664.45	35037.82
664.59	35016.75
664.73	34508.86
664.88	34988.67
665.02	34312.25
665.16	34904.41
665.30	34457.37
665.44	34370.77
665.59	34354.38
665.73	34380.13
665.87	34085.22
666.01	34539.29
666.15	34452.69
666.29	34117.99
666.44	34260.76
666.58	34155.44
666.72	34071.18
666.86	34576.73
667.00	34396.51
667.14	33750.52
667.28	33755.21
667.43	33577.33
667.57	33837.12
667.71	33703.71
667.85	33872.23
667.99	33692.01
668.13	33717.76
668.27	33750.52
668.41	33589.03
668.56	33397.10
668.70	33563.28
668.84	33350.29
668.98	33446.26
669.12	32872.82
669.26	33160.71
669.40	33362.00
669.54	33221.56
669.68	32861.12
669.82	32767.50
669.96	32671.54
670.10	32828.35
670.25	32524.08
670.39	32996.87
670.53	32849.42
670.67	32657.49
670.81	32856.44
670.95	32608.34
671.09	32301.73
671.23	32875.16
671.37	32542.81
671.51	32662.18
671.65	32161.30
671.79	32025.55
671.93	31922.57
672.07	32531.11
672.21	32086.40
672.35	31908.52
672.49	31960.02
672.63	32254.92
672.77	32283.01
672.91	31857.03
673.05	31716.60
673.19	31637.02
673.33	31522.34
673.47	31227.43
673.61	31519.99
673.75	31140.83
673.89	31021.46
674.03	30658.68
674.17	31087.00
674.31	30972.31
674.45	30696.13
674.59	31505.95
674.73	31271.90
674.87	30848.26
675.01	30754.64
675.15	31115.08
675.29	30831.88
675.43	30532.29
675.56	30630.59
675.70	30684.42
675.84	30457.39
675.98	29090.52
676.12	30045.46
676.26	30270.15
676.40	29937.79
676.54	29710.76
676.68	29909.71
676.82	29317.55
676.96	29366.70
677.10	29565.65
677.23	29586.71
677.37	29252.02
677.51	29497.77
677.65	29132.65
677.79	28851.78
677.93	28786.25
678.07	28987.53
678.21	28701.99
678.34	28697.31
678.48	28121.54
678.62	28835.40
678.76	28271.33
678.90	28212.82
679.04	28355.59
679.18	28119.20
679.31	27807.90
679.45	28039.62
679.59	28123.88
679.73	27789.18
679.87	27669.81
680.00	27796.20
680.14	27791.52
680.28	27524.70
680.42	27473.21
680.56	27154.90
680.70	27131.49
680.83	27218.09
680.97	26948.93
681.11	27023.83
681.25	26857.65
681.39	27173.62
681.52	26789.77
681.66	27180.64
681.80	26808.50
681.94	26691.47
682.07	26684.45
682.21	26499.55
682.35	26178.89
682.49	26621.25
682.62	26157.83
682.76	26129.74
682.90	25792.70
683.04	25933.14
683.17	26150.81
683.31	25790.36
683.45	25858.24
683.59	25514.18
683.72	25340.98
683.86	25074.16
684.00	25254.38
684.13	25472.05
684.27	25460.35
684.41	25212.25
684.55	25029.69
684.68	24741.80
684.82	24592.01
684.96	24725.42
685.09	24650.52
685.23	24486.68
685.37	24451.58
685.50	24180.07
685.64	24772.23
685.78	24121.56
685.91	24065.39
686.05	24154.33
686.19	23562.17
686.32	24243.27
686.46	23665.16
686.60	23695.58
686.73	23545.79
686.87	23515.36
687.01	23566.85
687.14	23433.44
687.28	22998.10
687.42	23229.82
687.55	22951.29
687.69	23049.60
687.82	22878.74
687.96	23037.89
688.10	22607.23
688.23	22691.49
688.37	22551.06
688.50	22501.91
688.64	22073.59
688.78	22478.50
688.91	21855.92
689.05	21996.35
689.18	21869.97
689.32	21593.78
689.46	21645.27
689.59	21832.52
689.73	22108.70
689.86	21717.83
690.00	21422.92
690.13	21755.28
690.27	21591.44
690.41	21287.17
690.54	21296.53
690.68	21060.14
690.81	21116.31
690.95	20905.66
691.08	21188.87
691.22	21287.17
691.35	20837.79
691.49	20961.84
691.62	21036.74
691.76	20592.03
691.89	20727.78
692.03	20240.95
692.16	20592.03
692.30	20149.67
692.43	20662.25
692.57	20233.93
692.70	20493.73
692.84	20460.96
692.97	19939.02
693.11	20086.48
693.24	19601.99
693.38	19707.31
693.51	19398.36
693.65	19370.27
693.78	19583.26
693.92	19405.38
694.05	19236.86
694.19	19187.71
694.32	19318.78
694.45	19389.00
694.59	19180.69
694.72	19122.18
694.86	18862.38
694.99	18527.68
695.13	19009.83
695.26	18373.21
695.39	18394.27
695.53	18593.22
695.66	18281.92
695.80	18338.10
695.93	17987.02
696.07	18246.82
696.20	17848.93
696.33	17994.04
696.47	17982.34
696.60	17994.04
696.73	17748.28
696.87	17907.44
697.00	17724.88
697.14	17762.33
697.27	17160.81
697.40	17755.30
697.54	17572.74
697.67	17158.47
697.80	17397.20
697.94	17106.98
698.07	16975.91
698.21	16978.25
698.34	17254.43
698.47	17231.02
698.61	16608.44
698.74	16538.23
698.87	16666.95
699.01	16517.16
699.14	16208.21
699.27	16486.73
699.40	16681.00
699.54	16257.36
699.67	16152.04
699.80	15784.57
699.94	15950.75
700.07	15882.88
700.20	16023.31
700.34	15662.86
700.47	16027.99
700.60	15840.75
700.73	15520.09
700.87	15768.19
701.00	15445.20
701.13	15480.30
701.26	15365.62
701.40	15721.38
701.53	15257.95
701.66	15225.18
701.79	14972.41
701.93	14941.98
702.06	14817.93
702.19	15077.73
702.32	14888.15
702.46	14881.13
702.59	14743.03
702.72	14848.36
702.85	14668.14
702.99	14761.76
703.12	14843.68
703.25	14647.07
703.38	14614.30
703.51	14354.51
703.65	14106.41
703.78	14380.25
703.91	14216.41
704.04	14478.55
704.17	14071.30
704.31	13853.63
704.44	13650.00
704.57	13706.18
704.70	13551.70
704.83	13556.38
704.96	13905.12
705.10	13511.91
705.23	13877.04
>>>>>End Processed Spectral Data<<<<<
