SpectraSuite Data File
++++++++++++++++++++++++++++++++++++
Date: Fri Oct 25 10:43:51 EDT 2013
User: price-jones
Dark Spectrum Present: No
Reference Spectrum Present: No
Number of Sampled Component Spectra: 1
Spectrometers: USB2+H05261
Integration Time (usec): 100000 (USB2+H05261)
Spectra Averaged: 1 (USB2+H05261)
Boxcar Smoothing: 0 (USB2+H05261)
Correct for Electrical Dark: No (USB2+H05261)
Strobe/Lamp Enabled: No (USB2+H05261)
Correct for Detector Non-linearity: No (USB2+H05261)
Correct for Stray Light: No (USB2+H05261)
Number of Pixels in Processed Spectrum: 2048
>>>>>Begin Processed Spectral Data<<<<<
365.73	121.71
365.92	121.71
366.12	121.71
366.32	14.04
366.52	25.75
366.72	2.34
366.91	14.04
367.11	58.51
367.31	51.49
367.51	79.58
367.70	4.68
367.90	39.79
368.10	0.00
368.30	42.13
368.49	74.90
368.69	79.58
368.89	65.54
369.09	46.81
369.28	105.32
369.48	30.43
369.68	79.58
369.87	117.03
370.07	53.83
370.27	224.69
370.47	177.88
370.66	372.15
370.86	402.57
371.06	390.87
371.25	510.24
371.45	386.19
371.65	477.47
371.84	535.98
372.04	423.64
372.24	479.81
372.44	538.32
372.63	477.47
372.83	472.79
373.03	489.17
373.22	484.49
373.42	543.00
373.62	543.00
373.81	526.62
374.01	538.32
374.21	543.00
374.40	533.64
374.60	620.24
374.79	571.09
374.99	592.16
375.19	578.11
375.38	573.43
375.58	608.54
375.78	638.97
375.97	594.50
376.17	610.88
376.37	575.77
376.56	575.77
376.76	622.58
376.95	608.54
377.15	667.05
377.35	699.82
377.54	620.24
377.74	624.92
377.93	662.37
378.13	653.01
378.33	678.76
378.52	667.05
378.72	681.10
378.91	676.41
379.11	688.12
379.31	634.29
379.50	629.60
379.70	678.76
379.89	727.91
380.09	718.54
380.28	709.18
380.48	734.93
380.68	746.63
380.87	699.82
381.07	648.33
381.26	748.97
381.46	690.46
381.65	699.82
381.85	660.03
382.04	690.46
382.24	692.80
382.43	713.86
382.63	662.37
382.83	699.82
383.02	758.33
383.22	905.79
383.41	713.86
383.61	793.44
383.80	816.85
384.00	814.51
384.19	772.38
384.39	828.55
384.58	873.02
384.78	802.80
384.97	779.40
385.17	835.57
385.36	833.23
385.56	779.40
385.75	819.19
385.95	828.55
386.14	842.59
386.34	779.40
386.53	868.34
386.72	898.77
386.92	856.64
387.11	856.64
387.31	884.72
387.50	816.85
387.70	880.04
387.89	854.30
388.09	805.14
388.28	896.43
388.48	898.77
388.67	875.36
388.86	945.58
389.06	947.92
389.25	966.64
389.45	947.92
389.64	966.64
389.84	966.64
390.03	1067.28
390.22	1055.58
390.42	1025.15
390.61	1069.62
390.81	990.05
391.00	1055.58
391.19	1100.05
391.39	1022.81
391.58	1139.84
391.78	990.05
391.97	1116.44
392.16	1057.92
392.36	1111.75
392.55	1036.86
392.75	980.68
392.94	1020.47
393.13	1032.18
393.33	1013.45
393.52	1069.62
393.71	1053.24
393.91	1078.99
394.10	1170.27
394.29	1135.16
394.49	1238.14
394.68	1233.46
394.88	1235.80
395.07	1331.76
395.26	1245.16
395.46	1277.93
395.65	1291.98
395.84	1181.97
396.04	1212.40
396.23	1254.53
396.42	1212.40
396.62	1053.24
396.81	1174.95
397.00	1167.93
397.19	1277.93
397.39	1256.87
397.58	1371.55
397.77	1455.81
397.97	1430.07
398.16	1439.43
398.35	1385.60
398.55	1476.88
398.74	1511.99
398.93	1530.71
399.12	1511.99
399.32	1460.49
399.51	1453.47
399.70	1558.80
399.90	1575.18
400.09	1598.59
400.28	1666.46
400.47	1643.06
400.67	1607.95
400.86	1617.31
401.05	1666.46
401.24	1724.97
401.44	1652.42
401.63	1849.02
401.82	1755.40
402.01	1650.08
402.21	1710.93
402.40	1739.02
402.59	1741.36
402.78	1776.47
402.97	1708.59
403.17	1849.02
403.36	1827.96
403.55	1825.62
403.74	1795.19
403.93	1923.92
404.13	1977.75
404.32	1837.32
404.51	2010.52
404.70	1952.01
404.89	1994.14
405.09	2087.76
405.28	2120.53
405.47	1935.62
405.66	1966.05
405.85	2012.86
406.05	2108.82
406.24	2064.35
406.43	2087.76
406.62	2083.08
406.81	2150.95
407.00	2059.67
407.20	2076.06
407.39	2111.16
407.58	2190.74
407.77	2188.40
407.96	2263.30
408.15	2246.91
408.34	2195.42
408.54	2338.20
408.73	2347.56
408.92	2338.20
409.11	2408.41
409.30	2265.64
409.49	2218.83
409.68	2251.60
409.87	2326.49
410.07	2502.03
410.26	2375.64
410.45	2434.16
410.64	2487.99
410.83	2548.84
411.02	2532.46
411.21	2722.04
411.40	2644.81
411.59	2663.53
411.78	2649.49
411.98	2698.64
412.17	2710.34
412.36	2722.04
412.55	2745.45
412.74	2796.94
412.93	2827.37
413.12	2862.48
413.31	2958.44
413.50	2911.63
413.69	3035.67
413.88	3061.42
414.07	2960.78
414.26	3000.57
414.45	3002.91
414.64	3007.59
414.83	2979.50
415.02	3019.29
415.22	3183.13
415.41	3087.17
415.60	3227.60
415.79	3208.87
415.98	3330.58
416.17	3396.12
416.36	3225.26
416.55	3279.09
416.74	3466.33
416.93	3407.82
417.12	3400.80
417.31	3267.39
417.50	3290.79
417.69	3513.14
417.88	3634.85
418.07	3405.48
418.26	3597.40
418.45	3513.14
418.64	3702.73
418.83	3756.56
419.02	3728.47
419.21	3669.96
419.39	3623.15
419.58	3742.52
419.77	3566.98
419.96	3662.94
420.15	3756.56
420.34	3770.60
420.53	3932.10
420.72	3810.39
420.91	3927.42
421.10	3880.61
421.29	3892.31
421.48	3875.93
421.67	3770.60
421.86	3915.72
422.05	3868.91
422.24	3684.00
422.43	3927.42
422.61	3943.80
422.80	4007.00
422.99	3913.38
423.18	4079.55
423.37	3974.23
423.56	4102.96
423.75	4046.79
423.94	3941.46
424.13	3576.34
424.32	3756.56
424.50	3981.25
424.69	4060.83
424.88	4011.68
425.07	3896.99
425.26	3950.82
425.45	4053.81
425.64	4081.89
425.83	4046.79
426.01	4093.60
426.20	4119.34
426.39	4170.83
426.58	4009.34
426.77	4030.40
426.96	3957.85
427.15	3976.57
427.33	4124.02
427.52	4074.87
427.71	4114.66
427.90	4292.54
428.09	4264.46
428.28	4170.83
428.46	4194.24
428.65	4077.21
428.84	4329.99
429.03	4161.47
429.22	4264.46
429.40	4217.65
429.59	4217.65
429.78	4070.19
429.97	3985.93
430.16	4210.62
430.34	4014.02
430.53	4294.88
430.72	4231.69
430.91	4306.59
431.10	4395.53
431.28	4629.58
431.47	4650.64
431.66	4671.71
431.85	4603.83
432.03	4547.66
432.22	4699.80
432.41	4671.71
432.60	4664.69
432.79	4753.63
432.97	4910.44
433.16	4968.96
433.35	4699.80
433.54	4762.99
433.72	4784.06
433.91	4669.37
434.10	5055.56
434.28	4887.04
434.47	4882.36
434.66	4987.68
434.85	4931.51
435.03	4901.08
435.22	4936.19
435.41	5135.14
435.59	5249.82
435.78	5078.96
435.97	5203.01
436.16	5266.21
436.34	5195.99
436.53	5224.08
436.72	5334.08
436.90	5179.61
437.09	5207.69
437.28	5034.49
437.46	5158.54
437.65	5214.71
437.84	5287.27
438.02	5242.80
438.21	5193.65
438.40	5118.75
438.58	5350.46
438.77	5394.93
438.96	5462.81
439.14	5577.50
439.33	5724.95
439.52	5722.61
439.70	5755.38
439.89	5767.08
440.08	5710.91
440.26	5757.72
440.45	5746.02
440.63	5860.70
440.82	5961.34
441.01	6094.76
441.19	6108.80
441.38	6120.50
441.57	6148.59
441.75	6361.58
441.94	6216.46
442.12	6473.92
442.31	6417.75
442.50	6392.00
442.68	6410.73
442.87	6354.55
443.05	6202.42
443.24	6602.65
443.43	6464.56
443.61	6572.22
443.80	6670.53
443.98	6375.62
444.17	6406.05
444.35	6548.82
444.54	6698.61
444.73	6586.27
444.91	6516.05
445.10	6487.96
445.28	6597.97
445.47	6480.94
445.65	6494.99
445.84	6569.88
446.02	6644.78
446.21	6848.41
446.39	6663.51
446.58	6715.00
446.77	6890.54
446.95	6614.35
447.14	6766.49
447.32	6984.16
447.51	6761.81
447.69	6766.49
447.88	6864.79
448.06	6775.85
448.25	6815.64
448.43	6803.94
448.62	6850.75
448.80	6609.67
448.99	6815.64
449.17	6876.49
449.36	7145.66
449.54	7243.96
449.73	7155.02
449.91	7321.20
450.10	7201.83
450.28	7274.38
450.46	7276.73
450.65	7611.42
450.83	7229.91
451.02	7166.72
451.20	7503.76
451.39	7307.15
451.57	7396.09
451.76	7328.22
451.94	7260.34
452.13	7396.09
452.31	7148.00
452.49	7082.46
452.68	7307.15
452.86	7250.98
453.05	7162.04
453.23	7330.56
453.42	7438.22
453.60	7552.91
453.78	7562.27
453.97	7396.09
454.15	7634.83
454.34	7438.22
454.52	7714.41
454.70	7597.38
454.89	7588.02
455.07	7468.65
455.26	7740.15
455.44	7892.29
455.62	7826.75
455.81	7728.45
455.99	7908.67
456.17	7939.10
456.36	7941.44
456.54	8011.65
456.73	7908.67
456.91	8329.97
457.09	7971.86
457.28	8107.62
457.46	8116.98
457.64	8205.92
457.83	8051.44
458.01	8119.32
458.19	8386.14
458.38	8294.86
458.56	8437.63
458.74	8449.33
458.93	8379.12
459.11	8486.78
459.29	8395.50
459.48	8367.42
459.66	8290.18
459.84	8463.38
460.03	8720.84
460.21	8500.83
460.39	8564.02
460.57	8624.87
460.76	8638.92
460.94	8936.17
461.12	8681.05
461.31	8833.18
461.49	8908.08
461.67	8690.41
461.85	8765.31
462.04	9015.74
462.22	9036.81
462.40	9205.33
462.59	8821.48
462.77	9048.51
462.95	9062.55
463.13	8978.30
463.32	9036.81
463.50	9067.24
463.68	9029.79
463.86	8994.68
464.05	9100.00
464.23	9060.21
464.41	9163.20
464.59	9111.71
464.78	9383.21
464.96	9188.94
465.14	9167.88
465.32	9523.64
465.50	9502.58
465.69	9434.70
465.87	9528.32
466.05	9235.75
466.23	9214.69
466.41	9305.97
466.60	9542.36
466.78	9385.55
466.96	9298.95
467.14	9336.40
467.32	9458.10
467.51	9795.14
467.69	9486.19
467.87	9516.62
468.05	9795.14
468.23	9460.45
468.41	9549.39
468.60	9703.86
468.78	9425.34
468.96	9600.88
469.14	9778.76
469.32	9912.17
469.50	9544.70
469.69	9867.70
469.87	9863.02
470.05	9851.31
470.23	10022.17
470.41	10068.98
470.59	9977.70
470.77	9914.51
470.95	10015.15
471.14	10160.27
471.32	10193.03
471.50	10473.90
471.68	10368.57
471.86	10626.03
472.04	10576.88
472.22	10675.18
472.40	10274.95
472.58	10569.86
472.77	10813.28
472.95	10654.12
473.13	11016.90
473.31	10696.25
473.49	10492.62
473.67	10820.30
473.85	10743.06
474.03	11066.05
474.21	11272.02
474.39	11049.67
474.57	11257.98
474.75	11162.01
474.93	11255.64
475.12	11367.98
475.30	11473.31
475.48	11211.17
475.66	11543.52
475.84	11648.85
476.02	11494.37
476.20	11595.01
476.38	11775.24
476.56	11943.75
476.74	11908.65
476.92	11805.66
477.10	12004.61
477.28	12131.00
477.46	12175.47
477.64	12580.38
477.82	12657.62
478.00	12578.04
478.18	12461.01
478.36	12610.81
478.54	12919.76
478.72	12833.16
478.90	13142.11
479.08	13298.92
479.26	13268.50
479.44	13376.16
479.62	13593.83
479.80	13432.33
479.98	13750.65
480.16	13914.48
480.34	13858.31
480.52	13916.83
480.70	14012.79
480.88	13722.56
481.06	14118.11
481.24	14115.77
481.41	14295.99
481.59	14621.33
481.77	14766.44
481.95	14677.50
482.13	14850.70
482.31	14661.12
482.49	14979.43
482.67	14967.73
482.85	15323.49
483.03	15742.44
483.21	15484.98
483.39	15618.39
483.57	15351.57
483.74	15695.63
483.92	16020.97
484.10	15864.15
484.28	15974.16
484.46	16533.54
484.64	16617.80
484.82	16255.02
485.00	16592.06
485.18	16622.48
485.35	16688.02
485.53	16252.68
485.71	16491.41
485.89	16648.23
486.07	16636.53
486.25	16814.41
486.43	17041.44
486.61	17261.45
486.78	17432.31
486.96	17795.09
487.14	17755.30
487.32	17827.86
487.50	18265.54
487.68	18335.76
487.85	18370.86
488.03	18569.81
488.21	18904.51
488.39	18675.13
488.57	18848.33
488.75	18836.63
488.92	19367.93
489.10	19419.42
489.28	19555.18
489.46	19796.25
489.64	19754.12
489.81	20308.83
489.99	20592.03
490.17	20521.82
490.35	20458.62
490.53	20641.18
490.70	20549.90
490.88	20603.74
491.06	21144.40
491.24	21099.93
491.41	20919.71
491.59	20912.69
491.77	20950.14
491.95	21153.76
492.13	21656.98
492.30	21774.00
492.48	21919.12
492.66	22059.55
492.84	22335.73
493.01	22429.35
493.19	22207.00
493.37	22670.43
493.54	22527.66
493.72	22693.83
493.90	22637.66
494.08	22977.04
494.25	23398.34
494.43	23388.97
494.61	23714.31
494.79	23854.74
494.96	23761.12
495.14	23721.33
495.32	23927.30
495.49	24130.92
495.67	24212.84
495.85	24226.89
496.02	24460.94
496.20	24470.30
496.38	24444.56
496.55	24580.31
496.73	25345.66
496.91	25085.86
497.09	25408.86
497.26	25312.89
497.44	25392.47
497.62	25607.80
497.79	25333.96
497.97	25317.57
498.14	25486.09
498.32	25869.94
498.50	25827.81
498.67	26188.25
498.85	26508.91
499.03	26607.21
499.20	26773.39
499.38	26778.07
499.56	26888.07
499.73	26768.71
499.91	26719.56
500.08	26998.08
500.26	26789.77
500.44	27007.44
500.61	26969.99
500.79	26733.60
500.97	27061.27
501.14	27257.88
501.32	27220.43
501.49	27400.65
501.67	27206.39
501.84	27868.76
502.02	27749.39
502.20	28163.67
502.37	28095.79
502.55	28353.25
502.72	28077.07
502.90	28496.02
503.07	28077.07
503.25	28268.99
503.43	28245.58
503.60	28191.75
503.78	28556.88
503.95	28428.15
504.13	28828.38
504.30	28971.15
504.48	28755.82
504.65	29149.03
504.83	29268.40
505.01	29666.29
505.18	29670.97
505.36	29359.68
505.53	29701.40
505.71	30033.75
505.88	29951.84
506.06	29612.46
506.23	29795.02
506.41	30089.93
506.58	29944.81
506.76	30178.87
506.93	30054.82
507.11	30551.01
507.28	30555.69
507.46	30122.69
507.63	30213.98
507.81	30422.28
507.98	30508.88
508.16	30576.76
508.33	31026.14
508.50	31285.94
508.68	31136.15
508.85	31283.60
509.03	31239.13
509.20	31611.28
509.38	31765.75
509.55	31756.39
509.73	31433.39
509.90	32088.74
510.08	31936.61
510.25	31608.93
510.42	31901.50
510.60	32355.57
510.77	31915.54
510.95	32437.48
511.12	32079.38
511.30	32659.84
511.47	32844.74
511.64	32645.79
511.82	32975.81
511.99	32453.87
512.17	33034.32
512.34	32472.59
512.51	32929.00
512.69	33123.26
512.86	33305.82
513.04	33193.48
513.21	32858.78
513.38	33167.73
513.56	33397.10
513.73	32945.38
513.90	33703.71
514.08	33502.43
514.25	33619.46
514.43	33347.95
514.60	33717.76
514.77	33483.70
514.95	34099.26
515.12	33649.88
515.29	33818.40
515.47	34328.64
515.64	34277.15
515.81	33820.74
515.99	34216.29
516.16	33727.12
516.33	33708.40
516.51	33710.74
516.68	33507.11
516.85	33713.08
517.03	34174.16
517.20	34333.32
517.37	34817.81
517.54	34443.32
517.72	34508.86
517.89	34380.13
518.06	34543.97
518.24	34206.93
518.41	34536.94
518.58	35009.73
518.75	34855.26
518.93	34869.30
519.10	35133.78
519.27	35449.75
519.45	35517.63
519.62	35667.42
519.79	35608.91
519.96	35833.60
520.14	35714.23
520.31	35400.60
520.48	35725.94
520.65	35922.54
520.83	36282.98
521.00	36613.00
521.17	36500.65
521.34	36039.57
521.52	36737.05
521.69	36800.24
521.86	36498.31
522.03	36697.26
522.20	36694.92
522.38	36664.49
522.55	36465.55
522.72	36701.94
522.89	36662.15
523.07	37270.69
523.24	36823.65
523.41	37509.43
523.58	36999.19
523.75	37865.19
523.92	37078.77
524.10	37610.07
524.27	37937.74
524.44	37834.76
524.61	37926.04
524.78	38155.41
524.96	37694.33
525.13	38218.61
525.30	37991.58
525.47	37944.76
525.64	37713.05
525.81	38005.62
525.98	37298.78
526.16	37263.67
526.33	37605.39
526.50	37832.42
526.67	37376.01
526.84	38204.56
527.01	37645.18
527.18	37771.57
527.36	38457.34
527.53	38780.34
527.70	38686.71
527.87	38806.08
528.04	38892.68
528.21	38609.48
528.38	38958.22
528.55	39620.59
528.72	39250.78
528.89	39585.48
529.07	39370.15
529.24	38944.17
529.41	39164.18
529.58	39412.28
529.75	38927.79
529.92	39243.76
530.09	39849.96
530.26	39218.02
530.43	39913.16
530.60	39377.17
530.77	39536.33
530.94	40069.97
531.11	39777.40
531.28	39772.72
531.46	39985.71
531.63	40297.00
531.80	40128.48
531.97	40060.61
532.14	39328.02
532.31	39627.61
532.48	39625.27
532.65	40034.86
532.82	39915.50
532.99	40105.08
533.16	39906.13
533.33	40308.71
533.50	40339.13
533.67	40154.23
533.84	40107.42
534.01	40753.41
534.18	40271.26
534.35	40669.15
534.52	40493.61
534.69	41170.02
534.86	40856.39
535.03	40804.90
535.20	41123.21
535.37	41151.30
535.54	41242.58
535.71	41303.43
535.88	41191.09
536.05	40966.40
536.22	41003.85
536.38	40921.93
536.55	41247.26
536.72	41146.62
536.89	40781.49
537.06	41478.97
537.23	41392.37
537.40	41228.54
537.57	41441.53
537.74	41326.84
537.91	42122.62
538.08	41738.77
538.25	41523.44
538.42	41556.21
538.59	41439.18
538.75	41195.77
538.92	41769.20
539.09	42087.51
539.26	42054.75
539.43	42197.52
539.60	41663.88
539.77	41523.44
539.94	41708.35
540.11	41333.86
540.28	41811.33
540.44	41799.63
540.61	41773.88
540.78	41708.35
540.95	41827.71
541.12	41596.00
541.29	41926.02
541.46	41961.12
541.62	42340.29
541.79	42209.22
541.96	41862.82
542.13	42452.64
542.30	42117.94
542.47	42192.84
542.63	42061.77
542.80	42794.36
542.97	42946.49
543.14	43047.13
543.31	42946.49
543.48	42855.21
543.64	42808.40
543.81	43487.15
543.98	43311.61
544.15	43292.89
544.32	42988.62
544.48	43845.26
544.65	42714.78
544.82	43463.75
544.99	43229.69
545.16	43075.22
545.32	43161.82
545.49	43924.83
545.66	43428.64
545.83	43936.54
546.00	43791.42
546.16	43192.25
546.33	43599.50
546.50	43370.13
546.67	43786.74
546.83	43632.27
547.00	43522.26
547.17	43210.97
547.34	43253.10
547.50	43536.30
547.67	43751.63
547.84	43604.18
548.00	44208.04
548.17	44212.72
548.34	44170.59
548.51	44165.91
548.67	43995.05
548.84	44151.87
549.01	43805.47
549.18	44170.59
549.34	43821.85
549.51	44350.81
549.68	44409.32
549.84	44493.58
550.01	44163.57
550.18	44289.96
550.34	44226.76
550.51	44121.44
550.68	44460.82
550.84	44046.54
551.01	43922.49
551.18	44186.97
551.34	44547.42
551.51	44776.79
551.68	44626.99
551.84	44577.84
552.01	44367.20
552.18	44643.38
552.34	44655.08
552.51	44421.03
552.68	44587.21
552.84	44854.03
553.01	45158.30
553.18	44608.27
553.34	44825.94
553.51	44957.01
553.67	45326.81
553.84	45549.17
554.01	45153.62
554.17	45322.13
554.34	45048.29
554.51	45116.17
554.67	45368.94
554.84	44893.82
555.00	44989.78
555.17	44999.14
555.33	44781.47
555.50	45291.71
555.67	45413.41
555.83	45280.00
556.00	45170.00
556.16	45605.34
556.33	45017.86
556.50	45048.29
556.66	45277.66
556.83	45015.52
556.99	45514.06
557.16	45572.57
557.32	45595.98
557.49	45195.74
557.65	45368.94
557.82	45471.93
557.98	45708.32
558.15	45764.49
558.32	45464.91
558.48	45621.72
558.65	44982.76
558.81	45125.53
558.98	45794.92
559.14	45382.99
559.31	45464.91
559.47	45537.46
559.64	45455.54
559.80	45347.88
559.97	45635.77
560.13	45544.48
560.30	45818.33
560.46	45708.32
560.63	45820.67
560.79	46038.34
560.96	45675.55
561.12	45670.87
561.29	45518.74
561.45	45488.31
561.61	45394.69
561.78	45490.65
561.94	45530.44
562.11	45263.62
562.27	45617.04
562.44	46045.36
562.60	45956.42
562.77	46038.34
562.93	45853.44
563.10	45682.58
563.26	45390.01
563.42	46197.49
563.59	46047.70
563.75	46075.79
563.92	46005.57
564.08	46026.63
564.24	46286.43
564.41	45862.80
564.57	46007.91
564.74	45956.42
564.90	46134.30
565.07	45652.15
565.23	45923.65
565.39	46059.40
565.56	46000.89
565.72	45553.85
565.88	45895.56
566.05	45970.46
566.21	45633.42
566.38	46103.87
566.54	45834.71
566.70	46356.65
566.87	46567.30
567.03	46188.13
567.19	46536.87
567.36	46225.58
567.52	46192.81
567.68	46253.67
567.85	45815.99
568.01	46571.98
568.17	46054.72
568.34	45666.19
568.50	45902.59
568.66	45603.00
568.83	46330.90
568.99	46085.15
569.15	45940.04
569.32	46267.71
569.48	46508.79
569.64	46628.15
569.81	46244.30
569.97	45837.05
570.13	46342.61
570.30	45762.15
570.46	45811.31
570.62	45759.81
570.78	45837.05
570.95	46110.89
571.11	46192.81
571.27	45951.74
571.43	46038.34
571.60	46370.69
571.76	46630.49
571.92	46536.87
572.09	46363.67
572.25	46141.32
572.41	46536.87
572.57	46300.48
572.74	46611.77
572.90	46333.24
573.06	46335.59
573.22	46550.91
573.38	46014.93
573.55	46515.81
573.71	46539.21
573.87	46476.02
574.03	46178.77
574.20	46122.60
574.36	46443.25
574.52	46382.40
574.68	46223.24
574.84	46588.36
575.01	46335.59
575.17	46522.83
575.33	46403.46
575.49	46167.07
575.65	46553.26
575.82	46754.54
575.98	45846.41
576.14	46487.72
576.30	46480.70
576.46	46670.28
576.62	46270.05
576.79	46071.10
576.95	46326.22
577.11	46476.02
577.27	46071.10
577.43	46862.21
577.59	46078.13
577.75	46237.28
577.92	45785.56
578.08	46141.32
578.24	46298.14
578.40	46665.60
578.56	46604.75
578.72	46476.02
578.88	46267.71
579.04	46499.42
579.21	45982.16
579.37	46389.42
579.53	46438.57
579.69	46251.33
579.85	46459.63
580.01	46244.30
580.17	46213.88
580.33	46309.84
580.49	46637.51
580.65	47114.98
580.82	46586.02
580.98	46483.04
581.14	46293.46
581.30	46588.36
581.46	46665.60
581.62	46412.82
581.78	46387.08
581.94	46822.42
582.10	46085.15
582.26	46335.59
582.42	46284.09
582.58	46445.59
582.74	46679.64
582.90	46330.90
583.06	46768.58
583.22	46211.54
583.38	46780.29
583.54	46859.87
583.70	46307.50
583.86	46635.17
584.02	46663.26
584.18	46443.25
584.34	46976.89
584.50	46340.27
584.66	46721.77
584.82	46227.92
584.98	46478.36
585.14	46590.70
585.30	46464.32
585.46	46230.26
585.62	46387.08
585.78	46176.43
585.94	46115.58
586.10	46508.79
586.26	46340.27
586.42	46515.81
586.58	46689.01
586.74	46595.38
586.90	46321.54
587.06	46410.48
587.22	46763.90
587.38	46078.13
587.54	46642.20
587.70	46824.76
587.86	46265.37
588.02	46478.36
588.18	46597.73
588.34	46429.21
588.49	46206.86
588.65	45951.74
588.81	45900.25
588.97	46178.77
589.13	46216.22
589.29	46234.94
589.45	46129.62
589.61	46607.09
589.77	46209.20
589.93	46574.32
590.08	46799.01
590.24	47009.66
590.40	47309.25
590.56	46953.49
590.72	46518.15
590.88	46209.20
591.04	46593.04
591.20	46997.96
591.35	46508.79
591.51	47021.36
591.67	46499.42
591.83	46389.42
591.99	46782.63
592.15	46564.96
592.31	46527.51
592.46	46937.10
592.62	46698.37
592.78	46904.34
592.94	47098.60
593.10	46731.14
593.26	46784.97
593.41	46831.78
593.57	46937.10
593.73	46520.49
593.89	46759.22
594.05	46766.24
594.20	46616.45
594.36	46609.43
594.52	46593.04
594.68	46534.53
594.84	46691.35
594.99	46831.78
595.15	46459.63
595.31	46632.83
595.47	46862.21
595.62	46689.01
595.78	46188.13
595.94	46955.83
596.10	46906.68
596.25	46639.86
596.41	46445.59
596.57	46492.40
596.73	46808.37
596.88	46246.65
597.04	46916.04
597.20	46756.88
597.36	46763.90
597.51	46930.08
597.67	46562.62
597.83	46438.57
597.99	46752.20
598.14	46660.92
598.30	46838.80
598.46	46939.44
598.61	46742.84
598.77	46319.20
598.93	46630.49
599.09	46672.62
599.24	47267.12
599.40	46646.88
599.56	46738.16
599.71	46653.90
599.87	46995.62
600.03	46284.09
600.18	46574.32
600.34	46726.46
600.50	46410.48
600.65	46274.73
600.81	46916.04
600.97	46789.65
601.12	46817.74
601.28	46557.94
601.44	46209.20
601.59	46384.74
601.75	46101.53
601.91	46761.56
602.06	46117.92
602.22	46724.11
602.37	46625.81
602.53	46866.89
602.69	46958.17
602.84	46358.99
603.00	46295.80
603.16	46461.97
603.31	46429.21
603.47	46700.71
603.62	46377.72
603.78	46698.37
603.94	46473.68
604.09	46944.12
604.25	46845.82
604.40	46501.76
604.56	46295.80
604.71	46527.51
604.87	46363.67
605.03	46457.29
605.18	46129.62
605.34	46588.36
605.49	46050.04
605.65	46375.37
605.80	46281.75
605.96	46719.43
606.12	46815.40
606.27	46822.42
606.43	46864.55
606.58	46817.74
606.74	46216.22
606.89	46452.61
607.05	46160.05
607.20	46244.30
607.36	46698.37
607.51	46628.15
607.67	46506.44
607.82	46328.56
607.98	45925.99
608.13	46494.74
608.29	46148.34
608.44	46003.23
608.60	45420.44
608.75	46192.81
608.91	45979.82
609.06	46120.26
609.22	46064.08
609.37	46251.33
609.53	46457.29
609.68	46223.24
609.84	46349.63
609.99	45844.07
610.15	45717.68
610.30	46122.60
610.46	46134.30
610.61	46281.75
610.76	46115.58
610.92	46363.67
611.07	46326.22
611.23	46146.00
611.38	45823.01
611.54	45869.82
611.69	45794.92
611.84	45462.57
612.00	45244.90
612.15	45846.41
612.31	45977.48
612.46	45844.07
612.62	46270.05
612.77	45158.30
612.92	45497.67
613.08	45308.09
613.23	45764.49
613.39	45390.01
613.54	44893.82
613.69	45869.82
613.85	45195.74
614.00	45773.86
614.15	45874.50
614.31	45787.90
614.46	45893.22
614.62	45240.21
614.77	45195.74
614.92	45598.32
615.08	45382.99
615.23	45104.46
615.38	45507.04
615.54	44891.48
615.69	45371.28
615.84	45207.45
616.00	45598.32
616.15	45067.02
616.30	45345.54
616.46	44912.54
616.61	45123.19
616.76	44905.52
616.92	44591.89
617.07	45165.32
617.22	44254.85
617.37	44844.66
617.53	45497.67
617.68	45165.32
617.83	45380.65
617.99	45177.02
618.14	45092.76
618.29	44507.63
618.45	44500.61
618.60	44402.30
618.75	44697.21
618.90	44725.30
619.06	44641.04
619.21	44879.77
619.36	45151.27
619.51	44680.83
619.67	44615.29
619.82	44680.83
619.97	45076.38
620.12	44797.85
620.28	44278.25
620.43	44383.58
620.58	44381.24
620.73	44601.25
620.89	44481.88
621.04	44737.00
621.19	44591.89
621.34	44402.30
621.49	44556.78
621.65	44201.02
621.80	44446.77
621.95	44013.77
622.10	44179.95
622.25	43761.00
622.41	43608.86
622.56	44098.03
622.71	44589.55
622.86	44383.58
623.01	43997.39
623.16	44374.22
623.32	43936.54
623.47	43653.33
623.62	44123.78
623.77	43835.89
623.92	43878.02
624.07	43840.57
624.23	43501.20
624.38	43866.32
624.53	43618.22
624.68	44229.10
624.83	43882.70
624.98	43945.90
625.13	43194.59
625.29	43533.96
625.44	43758.66
625.59	43189.91
625.74	43089.26
625.89	43283.53
626.04	43320.98
626.19	43292.89
626.34	43480.13
626.49	43459.07
626.65	43089.26
626.80	43594.82
626.95	43248.42
627.10	42850.53
627.25	42995.64
627.40	42981.60
627.55	43194.59
627.70	42927.77
627.85	43166.50
628.00	42862.23
628.15	42780.31
628.30	43068.20
628.45	43323.32
628.60	42951.17
628.76	43119.69
628.91	42953.51
629.06	42756.91
629.21	42567.32
629.36	42337.95
629.51	42728.82
629.66	42880.95
629.81	42590.73
629.96	42464.34
630.11	42761.59
630.26	43480.13
630.41	42590.73
630.56	42838.83
630.71	42787.33
630.86	42705.41
631.01	42431.57
631.16	41982.19
631.31	42281.78
631.46	41565.57
631.61	42298.16
631.76	42344.97
631.91	42506.47
632.06	42412.85
632.21	43082.24
632.36	42239.65
632.51	42082.83
632.66	42319.23
632.81	41752.82
632.96	42705.41
633.10	42181.13
633.25	42068.79
633.40	42232.63
633.55	42019.64
633.70	42026.66
633.85	42068.79
634.00	41769.20
634.15	41769.20
634.30	41792.61
634.45	41755.16
634.60	42181.13
634.75	41921.34
634.90	41399.40
635.05	42040.70
635.19	41720.05
635.34	42019.64
635.49	41581.96
635.64	41570.25
635.79	41670.90
635.94	41450.89
636.09	41439.18
636.24	41701.32
636.39	41172.36
636.53	41687.28
636.68	41251.94
636.83	41500.04
636.98	41750.48
637.13	41738.77
637.28	41596.00
637.43	41502.38
637.57	41537.49
637.72	41167.68
637.87	41860.48
638.02	41640.47
638.17	41230.88
638.32	41343.22
638.46	41048.32
638.61	40858.73
638.76	40779.15
638.91	41146.62
639.06	41106.83
639.20	41530.47
639.35	42061.77
639.50	41043.63
639.65	41357.27
639.80	40868.09
639.94	40905.54
640.09	40926.61
640.24	40870.43
640.39	40837.67
640.54	40542.76
640.68	40884.48
640.83	41010.87
640.98	40411.69
641.13	40584.89
641.27	40758.09
641.42	40381.26
641.57	40982.78
641.72	40781.49
641.86	40610.64
642.01	40275.94
642.16	40528.72
642.31	40140.19
642.45	40458.50
642.60	40088.70
642.75	40107.42
642.90	40594.25
643.04	39821.87
643.19	40299.34
643.34	40229.13
643.48	40250.19
643.63	40226.79
643.78	40030.18
643.93	40428.07
644.07	40554.46
644.22	40549.78
644.37	39896.77
644.51	40151.89
644.66	40088.70
644.81	40334.45
644.95	40044.23
645.10	39761.02
645.25	40250.19
645.39	40329.77
645.54	39416.96
645.69	39807.83
645.83	39948.26
645.98	40098.06
646.13	40013.80
646.27	39538.67
646.42	39393.56
646.57	39618.25
646.71	39292.91
646.86	39636.97
647.00	39810.17
647.15	39679.10
647.30	39810.17
647.44	39508.24
647.59	39707.19
647.74	38937.15
647.88	39363.13
648.03	39737.62
648.17	39700.17
648.32	39253.12
648.47	39274.19
648.61	38719.48
648.76	39515.26
648.90	39634.63
649.05	39377.17
649.20	39386.54
649.34	39246.10
649.49	38663.31
649.63	38976.94
649.78	39461.43
649.92	39454.41
650.07	39599.52
650.21	38993.32
650.36	39152.48
650.51	39138.44
650.65	39604.20
650.80	39672.08
650.94	39648.68
651.09	39138.44
651.23	38614.16
651.38	38693.74
651.52	38485.43
651.67	38504.15
651.81	39093.97
651.96	38576.71
652.10	38581.39
652.25	39143.12
652.39	38941.83
652.54	39161.84
652.68	38848.21
652.83	38813.10
652.97	39035.45
653.12	38637.56
653.26	38789.70
653.41	38267.76
653.55	38333.29
653.70	38274.78
653.84	38080.52
653.99	38227.97
654.13	38085.20
654.27	37731.78
654.42	37958.81
654.56	37986.89
654.71	37867.53
654.85	38003.28
655.00	38036.05
655.14	38068.81
655.29	37860.51
655.43	38052.43
655.57	37661.56
655.72	37565.60
655.86	37596.03
656.01	37078.77
656.15	37268.35
656.30	37170.05
656.44	37287.07
656.58	37476.66
656.73	37633.47
656.87	37694.33
657.01	37546.87
657.16	37567.94
657.30	37586.66
657.45	37053.02
657.59	37689.65
657.73	37603.05
657.88	37844.12
658.02	37738.80
658.16	37689.65
658.31	37617.09
658.45	37277.71
658.60	37322.18
658.74	37345.59
658.88	37034.30
659.03	37067.06
659.17	37240.26
659.31	36861.10
659.46	37202.82
659.60	36978.12
659.74	36943.02
659.89	36985.15
660.03	36781.52
660.17	37137.28
660.32	37191.11
660.46	36741.73
660.60	36744.07
660.74	36886.84
660.89	36994.51
661.03	36425.76
661.17	36589.59
661.32	36807.26
661.46	36098.08
661.60	36236.17
661.74	36208.09
661.89	36774.50
662.03	36858.76
662.17	36306.39
662.31	35913.18
662.46	36278.30
662.60	35978.72
662.74	36774.50
662.88	36074.68
663.03	35962.33
663.17	35747.00
663.31	36023.19
663.45	35999.78
663.60	36020.84
663.74	36011.48
663.88	35854.67
664.02	35672.10
664.17	35864.03
664.31	35754.02
664.45	35323.36
664.59	35154.85
664.73	35564.44
664.88	35199.32
665.02	34981.65
665.16	35466.14
665.30	35152.51
665.44	34944.20
665.59	35124.42
665.73	34946.54
665.87	34930.16
666.01	35119.74
666.15	35019.10
666.29	34820.15
666.44	34752.27
666.58	35112.72
666.72	34424.60
666.86	34902.07
667.00	34670.36
667.14	34501.84
667.28	34230.33
667.43	34174.16
667.57	34625.89
667.71	34284.17
667.85	34607.16
667.99	34466.73
668.13	34143.74
668.27	34352.04
668.41	34284.17
668.56	34197.57
668.70	33771.59
668.84	34174.16
668.98	33535.20
669.12	33670.95
669.26	34033.73
669.40	33483.70
669.54	33514.13
669.68	33710.74
669.82	33565.62
669.96	33486.04
670.10	33130.28
670.25	33497.75
670.39	32882.19
670.53	33282.42
670.67	33074.11
670.81	33015.60
670.95	33237.95
671.09	33191.14
671.23	33057.73
671.37	32840.06
671.51	32554.51
671.65	32716.01
671.79	32652.81
671.93	32442.17
672.07	32945.38
672.21	32292.37
672.35	32353.23
672.49	32598.98
672.63	32723.03
672.77	32463.23
672.91	32217.47
673.05	32313.44
673.19	32297.05
673.33	31878.10
673.47	32226.84
673.61	31899.16
673.75	31618.30
673.89	31218.07
674.03	31594.89
674.17	31487.23
674.31	31515.31
674.45	31718.94
674.59	31335.09
674.73	31763.41
674.87	31681.49
675.01	30852.94
675.15	30939.54
675.29	31103.38
675.43	30876.35
675.56	31014.44
675.70	30445.69
675.84	31019.12
675.98	29890.98
676.12	30426.96
676.26	30494.84
676.40	30513.56
676.54	30698.47
676.68	30558.03
676.82	30441.01
676.96	30125.04
677.10	30263.13
677.23	29738.85
677.37	30033.75
677.51	30239.72
677.65	29991.62
677.79	29242.65
677.93	29516.50
678.07	28919.66
678.21	28837.74
678.34	28936.04
678.48	28961.79
678.62	28776.89
678.76	28697.31
678.90	28781.57
679.04	28582.62
679.18	28252.61
679.31	28517.09
679.45	28180.05
679.59	28112.17
679.73	28400.06
679.87	27929.61
680.00	28257.29
680.14	28060.68
680.28	28142.60
680.42	28018.55
680.56	27676.83
680.70	27515.34
680.83	28109.83
680.97	27580.87
681.11	27520.02
681.25	27337.46
681.39	27534.06
681.52	27648.75
681.66	27466.19
681.80	27133.83
681.94	27232.13
682.07	26981.70
682.21	26611.89
682.35	26593.17
682.49	26792.11
682.62	26565.08
682.76	26113.36
682.90	26288.90
683.04	26384.86
683.17	26436.35
683.31	26244.43
683.45	26043.14
683.59	25874.62
683.72	25776.32
683.86	25839.51
684.00	25853.56
684.13	25656.95
684.27	25207.57
684.41	25359.70
684.55	25345.66
684.68	25715.47
684.82	25523.54
684.96	25214.59
685.09	25120.97
685.23	24823.72
685.37	24879.89
685.50	24905.64
685.64	24486.68
685.78	24418.81
685.91	24664.57
686.05	23999.85
686.19	24053.69
686.32	24128.58
686.46	23669.84
686.60	23309.40
686.73	23332.80
686.87	23168.96
687.01	23534.09
687.14	23056.62
687.28	23007.47
687.42	23089.38
687.55	23082.36
687.69	23440.47
687.82	23309.40
687.96	23173.64
688.10	23227.48
688.23	22602.55
688.37	22733.62
688.50	22869.37
688.64	22558.08
688.78	22724.26
688.91	22218.71
689.05	22813.20
689.18	22291.26
689.32	21755.28
689.46	22434.03
689.59	22242.11
689.73	22274.88
689.86	21764.64
690.00	21771.66
690.13	21841.88
690.27	21699.11
690.41	21617.19
690.54	21242.70
690.68	21458.03
690.81	21586.76
690.95	21411.22
691.08	21429.94
691.22	21322.28
691.35	21364.41
691.49	21069.50
691.62	21137.38
691.76	21137.38
691.89	20725.44
692.03	20840.13
692.16	20765.23
692.30	20439.90
692.43	20245.63
692.57	20613.10
692.70	19903.92
692.84	20182.44
692.97	19880.51
693.11	20032.65
693.24	19901.58
693.38	19496.66
693.51	19754.12
693.65	20142.65
693.78	19716.67
693.92	19992.86
694.05	19398.36
694.19	19609.01
694.32	19241.54
694.45	19173.67
694.59	19374.95
694.72	19096.43
694.86	18796.84
694.99	18890.46
695.13	18958.34
695.26	18855.36
695.39	18607.26
695.53	18871.74
695.66	18581.51
695.80	18663.43
695.93	18518.32
696.07	18387.25
696.20	18281.92
696.33	18242.14
696.47	18345.12
696.60	18097.02
696.73	18040.85
696.87	17869.99
697.00	17909.78
697.14	17600.83
697.27	17376.14
697.40	17507.21
697.54	17357.41
697.67	17483.80
697.80	17160.81
697.94	17355.07
698.07	17062.51
698.21	17280.18
698.34	16959.52
698.47	17275.49
698.61	16905.69
698.74	16830.79
698.87	16908.03
699.01	16851.86
699.14	16552.27
699.27	16578.01
699.40	16547.59
699.54	16280.77
699.67	16372.05
699.80	16259.70
699.94	15812.66
700.07	16430.56
700.20	16201.19
700.34	16161.40
700.47	16156.72
700.60	16060.76
700.73	15929.69
700.87	15988.20
701.00	15852.45
701.13	15461.58
701.26	15508.39
701.40	15541.16
701.53	15208.80
701.66	15351.57
701.79	15260.29
701.93	14932.62
702.06	14810.91
702.19	14998.15
702.32	15030.92
702.46	15044.96
702.59	14995.81
702.72	14794.53
702.85	15016.88
702.99	14834.32
703.12	14546.43
703.25	14586.22
703.38	14466.85
703.51	14185.99
703.65	14504.30
703.78	14457.49
703.91	13961.30
704.04	13912.14
704.17	13844.27
704.31	14015.13
704.44	14120.45
704.57	13762.35
704.70	14012.79
704.83	13774.05
704.96	13886.40
705.10	14005.77
705.23	13886.40
>>>>>End Processed Spectral Data<<<<<
